sender,sender_type,sender_id,timestamp,meta,,Blues,Classical,Country,Dance,Electronic,Folk,Gospel,Hip-Hop,Jazz,Latin,Musical/Film,New-age,Pop,Provo_ID,R&B,Rap,Reggae,Religious,Rock,Soul,Swing,Traditional,age,artist_name,correct,correctResponse,distraction,duration,education,ended_on,familiarity,gender,item,list,music_frequency,offensiveness,pleasantness,preference,response,response_action,snippet_file,song_name,song_rating,sound,text,time_commit,time_end,time_render,time_run,time_show,time_switch,url,word,word_ID
Instructions,html.Page,0_0,2021-11-04T11:56:29.048Z,"{""labjs_version"":""20.2.3"",""labjs_build"":{""flavor"":""production"",""commit"":""7ea907d66ca8aeef8054924ca5d82ffbe11e34e5""},""location"":""https://run.pavlovia.org/mvasilev/lab_music_f/"",""userAgent"":""Mozilla/5.0 (Windows NT 6.1; Win64; x64) AppleWebKit/537.36 (KHTML, like Gecko) Chrome/94.0.4606.81 Safari/537.36"",""platform"":""Win32"",""language"":""en-US"",""locale"":""en-US"",""timeZone"":""Europe/London"",""timezoneOffset"":0,""screen_width"":1920,""screen_height"":1080,""scroll_width"":1920,""scroll_height"":959,""window_innerWidth"":1920,""window_innerHeight"":1007,""devicePixelRatio"":1}",,,,,,,,,,,,,,,,,,,,,,,,,,,,,40515.167999998506,,form submission,,,,,,,,,,,,,,,,54982.59999999963,54981.39999999851,14449.561,14455.299999998882,14466.232,54976.807,{},,
Headphones,html.Page,0_1,2021-11-04T11:56:35.492Z,,,,,,,,,,,,,,,,,,,,,,,,,,,,,,6446.692999999999,,form submission,,,,,,,,,,,,,,,,61423.89999999851,61423.5,54960.151,54983.29999999888,54976.807,61438.872,,,
Holding screen,html.Screen,0_2_0_0,2021-11-04T11:56:45.489Z,,,,,,,,,,,,,,,,,,,,,,,,,,,,,,9992.741999999998,,timeout,,,,,,,,,,,,,,,,71420.69999999925,71414.943,61422.217,61424.39999999851,61438.872,71431.614,,,
screen,html.Screen,0_2_0_1_0,2021-11-04T11:56:47.588Z,,,,,,,,,,,,,,,,53,,,,,,,,,,,,,,2086.8859999999986,,response,,,99,,,,,,Space,keypress(Space),,,,,When -- ----- -- ------ - ------- --- ----------<br>------------- ------ ------ ---- ---- ------- ----- -- ----<br>-------- ------- -- ---------- --- - --- ----- ----- ----<br>---- --- --- ----- --- ---- ---- ------- ----- ---- -------<br>--- --- -- ----- -- --- ---- -- --- ---- -- ------ ------<br>--- ----- -- ----,73520,73518.5,71414.943,71421.09999999963,71431.614,73532.285,,0,When
screen,html.Screen,0_2_0_1_1,2021-11-04T11:56:48.403Z,,,,,,,,,,,,,,,,53,,,,,,,,,,,,,,801.6149999985064,,response,,,99,,,,,,Space,keypress(Space),,,,,---- it ----- -- ------ - ------- --- ----------<br>------------- ------ ------ ---- ---- ------- ----- -- ----<br>-------- ------- -- ---------- --- - --- ----- ----- ----<br>---- --- --- ----- --- ---- ---- ------- ----- ---- -------<br>--- --- -- ----- -- --- ---- -- --- ---- -- ------ ------<br>--- ----- -- ----,74334.69999999925,74333.89999999851,73515.614,73520.39999999851,73532.285,74349.106,,1,it
screen,html.Screen,0_2_0_1_2,2021-11-04T11:56:49.131Z,,,,,,,,,,,,,,,,53,,,,,,,,,,,,,,712.6939999988826,,response,,,99,,,,,,Space,keypress(Space),,,,,---- -- comes -- ------ - ------- --- ----------<br>------------- ------ ------ ---- ---- ------- ----- -- ----<br>-------- ------- -- ---------- --- - --- ----- ----- ----<br>---- --- --- ----- --- ---- ---- ------- ----- ---- -------<br>--- --- -- ----- -- --- ---- -- --- ---- -- ------ ------<br>--- ----- -- ----,75062.69999999925,75061.79999999888,74332.435,74335,74349.106,75065.868,,2,comes
screen,html.Screen,0_2_0_1_3,2021-11-04T11:56:49.867Z,,,,,,,,,,,,,,,,53,,,,,,,,,,,,,,731.9319999988802,,response,,,99,,,,,,Space,keypress(Space),,,,,---- -- ----- to ------ - ------- --- ----------<br>------------- ------ ------ ---- ---- ------- ----- -- ----<br>-------- ------- -- ---------- --- - --- ----- ----- ----<br>---- --- --- ----- --- ---- ---- ------- ----- ---- -------<br>--- --- -- ----- -- --- ---- -- --- ---- -- ------ ------<br>--- ----- -- ----,75798.79999999888,75797.79999999888,75049.198,75063.09999999963,75065.868,75816.31,,3,to
screen,html.Screen,0_2_0_1_4,2021-11-04T11:56:50.427Z,,,,,,,,,,,,,,,,53,,,,,,,,,,,,,,541.4899999988847,,response,,,99,,,,,,Space,keypress(Space),,,,,---- -- ----- -- having - ------- --- ----------<br>------------- ------ ------ ---- ---- ------- ----- -- ----<br>-------- ------- -- ---------- --- - --- ----- ----- ----<br>---- --- --- ----- --- ---- ---- ------- ----- ---- -------<br>--- --- -- ----- -- --- ---- -- --- ---- -- ------ ------<br>--- ----- -- ----,76358.89999999851,76357.79999999888,75799.638,75799.19999999925,75816.31,76366.182,,4,having
screen,html.Screen,0_2_0_1_5,2021-11-04T11:56:51.019Z,,,,,,,,,,,,,,,,53,,,,,,,,,,,,,,583.5179999992542,,response,,,99,,,,,,Space,keypress(Space),,,,,---- -- ----- -- ------ a ------- --- ----------<br>------------- ------ ------ ---- ---- ------- ----- -- ----<br>-------- ------- -- ---------- --- - --- ----- ----- ----<br>---- --- --- ----- --- ---- ---- ------- ----- ---- -------<br>--- --- -- ----- -- --- ---- -- --- ---- -- ------ ------<br>--- ----- -- ----,76950.69999999925,76949.69999999925,76349.513,76359.19999999925,76366.182,76966.533,,5,a
screen,html.Screen,0_2_0_1_6,2021-11-04T11:56:51.667Z,,,,,,,,,,,,,,,,53,,,,,,,,,,,,,,631.1669999992591,,response,,,99,,,,,,Space,keypress(Space),,,,,---- -- ----- -- ------ - lasting --- ----------<br>------------- ------ ------ ---- ---- ------- ----- -- ----<br>-------- ------- -- ---------- --- - --- ----- ----- ----<br>---- --- --- ----- --- ---- ---- ------- ----- ---- -------<br>--- --- -- ----- -- --- ---- -- --- ---- -- ------ ------<br>--- ----- -- ----,77598.59999999963,77597.69999999925,76949.862,76951.09999999963,76966.533,77600.01,,6,lasting
screen,html.Screen,0_2_0_1_7,2021-11-04T11:56:52.283Z,,,,,,,,,,,,,,,,53,,,,,,,,,,,,,,613.6899999992602,,response,,,99,,,,,,Space,keypress(Space),,,,,---- -- ----- -- ------ - ------- and ----------<br>------------- ------ ------ ---- ---- ------- ----- -- ----<br>-------- ------- -- ---------- --- - --- ----- ----- ----<br>---- --- --- ----- --- ---- ---- ------- ----- ---- -------<br>--- --- -- ----- -- --- ---- -- --- ---- -- ------ ------<br>--- ----- -- ----,78214.59999999963,78213.69999999925,77583.339,77599,77600.01,78216.791,,7,and
screen,html.Screen,0_2_0_1_8,2021-11-04T11:56:52.979Z,,,,,,,,,,,,,,,,53,,,,,,,,,,,,,,692.9089999992575,,response,,,99,,,,,,Space,keypress(Space),,,,,---- -- ----- -- ------ - ------- --- fulfilling<br>------------- ------ ------ ---- ---- ------- ----- -- ----<br>-------- ------- -- ---------- --- - --- ----- ----- ----<br>---- --- --- ----- --- ---- ---- ------- ----- ---- -------<br>--- --- -- ----- -- --- ---- -- --- ---- -- ------ ------<br>--- ----- -- ----,78910.79999999888,78909.69999999925,78200.121,78214.89999999851,78216.791,78916.858,,8,fulfilling
screen,html.Screen,0_2_0_1_9,2021-11-04T11:56:54.059Z,,,,,,,,,,,,,,,,53,,,,,,,,,,,,,,1072.7419999996346,,response,,,99,,,,,,Space,keypress(Space),,,,,"---- -- ----- -- ------ - ------- --- ----------<br>relationship, ------ ------ ---- ---- ------- ----- -- ----<br>-------- ------- -- ---------- --- - --- ----- ----- ----<br>---- --- --- ----- --- ---- ---- ------- ----- ---- -------<br>--- --- -- ----- -- --- ---- -- --- ---- -- ------ ------<br>--- ----- -- ----",79990.5,79989.59999999963,78900.189,78911.09999999963,78916.858,80000.754,,9,"relationship,"
screen,html.Screen,0_2_0_1_10,2021-11-04T11:56:54.755Z,,,,,,,,,,,,,,,,53,,,,,,,,,,,,,,684.8459999996267,,response,,,99,,,,,,Space,keypress(Space),,,,,---- -- ----- -- ------ - ------- --- ----------<br>------------- common ------ ---- ---- ------- ----- -- ----<br>-------- ------- -- ---------- --- - --- ----- ----- ----<br>---- --- --- ----- --- ---- ---- ------- ----- ---- -------<br>--- --- -- ----- -- --- ---- -- --- ---- -- ------ ------<br>--- ----- -- ----,80686.39999999851,80685.59999999963,79984.082,79990.79999999888,80000.754,80700.635,,10,common
screen,html.Screen,0_2_0_1_11,2021-11-04T11:56:55.403Z,,,,,,,,,,,,,,,,53,,,,,,,,,,,,,,632.8650000000052,,response,,,99,,,,,,Space,keypress(Space),,,,,---- -- ----- -- ------ - ------- --- ----------<br>------------- ------ wisdom ---- ---- ------- ----- -- ----<br>-------- ------- -- ---------- --- - --- ----- ----- ----<br>---- --- --- ----- --- ---- ---- ------- ----- ---- -------<br>--- --- -- ----- -- --- ---- -- --- ---- -- ------ ------<br>--- ----- -- ----,81334.39999999851,81333.5,80683.966,80686.69999999925,80700.635,81351.043,,11,wisdom
screen,html.Screen,0_2_0_1_12,2021-11-04T11:56:56.091Z,,,,,,,,,,,,,,,,53,,,,,,,,,,,,,,670.4569999999949,,response,,,99,,,,,,Space,keypress(Space),,,,,---- -- ----- -- ------ - ------- --- ----------<br>------------- ------ ------ says ---- ------- ----- -- ----<br>-------- ------- -- ---------- --- - --- ----- ----- ----<br>---- --- --- ----- --- ---- ---- ------- ----- ---- -------<br>--- --- -- ----- -- --- ---- -- --- ---- -- ------ ------<br>--- ----- -- ----,82022.29999999888,82021.5,81334.372,81334.69999999925,81351.043,82034.367,,12,says
screen,html.Screen,0_2_0_1_13,2021-11-04T11:56:56.843Z,,,,,,,,,,,,,,,,53,,,,,,,,,,,,,,739.0329999985115,,response,,,99,,,,,,Space,keypress(Space),,,,,---- -- ----- -- ------ - ------- --- ----------<br>------------- ------ ------ ---- that ------- ----- -- ----<br>-------- ------- -- ---------- --- - --- ----- ----- ----<br>---- --- --- ----- --- ---- ---- ------- ----- ---- -------<br>--- --- -- ----- -- --- ---- -- --- ---- -- ------ ------<br>--- ----- -- ----,82774.29999999888,82773.39999999851,82017.698,82022.59999999963,82034.367,82784.835,,13,that
screen,html.Screen,0_2_0_1_14,2021-11-04T11:56:57.523Z,,,,,,,,,,,,,,,,53,,,,,,,,,,,,,,668.5649999985035,,response,,,99,,,,,,Space,keypress(Space),,,,,---- -- ----- -- ------ - ------- --- ----------<br>------------- ------ ------ ---- ---- feeling ----- -- ----<br>-------- ------- -- ---------- --- - --- ----- ----- ----<br>---- --- --- ----- --- ---- ---- ------- ----- ---- -------<br>--- --- -- ----- -- --- ---- -- --- ---- -- ------ ------<br>--- ----- -- ----,83454.19999999925,83453.39999999851,82768.163,82774.59999999963,82784.835,83468.2,,14,feeling
screen,html.Screen,0_2_0_1_15,2021-11-04T11:56:58.211Z,,,,,,,,,,,,,,,,53,,,,,,,,,,,,,,673.5999999988853,,response,,,99,,,,,,Space,keypress(Space),,,,,---- -- ----- -- ------ - ------- --- ----------<br>------------- ------ ------ ---- ---- ------- close -- ----<br>-------- ------- -- ---------- --- - --- ----- ----- ----<br>---- --- --- ----- --- ---- ---- ------- ----- ---- -------<br>--- --- -- ----- -- --- ---- -- --- ---- -- ------ ------<br>--- ----- -- ----,84142.59999999963,84141.79999999888,83451.53,83454.5,83468.2,84151.71,,15,close
screen,html.Screen,0_2_0_1_16,2021-11-04T11:56:58.955Z,,,,,,,,,,,,,,,,53,,,,,,,,,,,,,,733.6899999985035,,response,,,99,,,,,,Space,keypress(Space),,,,,---- -- ----- -- ------ - ------- --- ----------<br>------------- ------ ------ ---- ---- ------- ----- to ----<br>-------- ------- -- ---------- --- - --- ----- ----- ----<br>---- --- --- ----- --- ---- ---- ------- ----- ---- -------<br>--- --- -- ----- -- --- ---- -- --- ---- -- ------ ------<br>--- ----- -- ----,84886.19999999925,84885.39999999851,84135.04,84142.89999999851,84151.71,84901.971,,16,to
screen,html.Screen,0_2_0_1_17,2021-11-04T11:56:59.787Z,,,,,,,,,,,,,,,,53,,,,,,,,,,,,,,815.3289999988774,,response,,,99,,,,,,Space,keypress(Space),,,,,---- -- ----- -- ------ - ------- --- ----------<br>------------- ------ ------ ---- ---- ------- ----- -- your<br>-------- ------- -- ---------- --- - --- ----- ----- ----<br>---- --- --- ----- --- ---- ---- ------- ----- ---- -------<br>--- --- -- ----- -- --- ---- -- --- ---- -- ------ ------<br>--- ----- -- ----,85718.09999999963,85717.29999999888,84885.3,84886.5,84901.971,85735.531,,17,your
screen,html.Screen,0_2_0_1_18,2021-11-04T11:57:00.515Z,,,,,,,,,,,,,,,,53,,,,,,,,,,,,,,709.7689999988797,,response,,,99,,,,,,Space,keypress(Space),,,,,---- -- ----- -- ------ - ------- --- ----------<br>------------- ------ ------ ---- ---- ------- ----- -- ----<br>romantic ------- -- ---------- --- - --- ----- ----- ----<br>---- --- --- ----- --- ---- ---- ------- ----- ---- -------<br>--- --- -- ----- -- --- ---- -- --- ---- -- ------ ------<br>--- ----- -- ----,86446.09999999963,86445.29999999888,85718.86,85718.29999999888,85735.531,86452.386,,18,romantic
screen,html.Screen,0_2_0_1_19,2021-11-04T11:57:01.106Z,,,,,,,,,,,,,,,,53,,,,,,,,,,,,,,584.9139999988838,,response,,,99,,,,,,Space,keypress(Space),,,,,---- -- ----- -- ------ - ------- --- ----------<br>------------- ------ ------ ---- ---- ------- ----- -- ----<br>-------- partner -- ---------- --- - --- ----- ----- ----<br>---- --- --- ----- --- ---- ---- ------- ----- ---- -------<br>--- --- -- ----- -- --- ---- -- --- ---- -- ------ ------<br>--- ----- -- ----,87038,87037.29999999888,86435.715,86446.39999999851,86452.386,87052.493,,19,partner
screen,html.Screen,0_2_0_1_20,2021-11-04T11:57:01.555Z,,,,,,,,,,,,,,,,53,,,,,,,,,,,,,,432.70699999925273,,response,,,99,,,,,,Space,keypress(Space),,,,,---- -- ----- -- ------ - ------- --- ----------<br>------------- ------ ------ ---- ---- ------- ----- -- ----<br>-------- ------- is ---------- --- - --- ----- ----- ----<br>---- --- --- ----- --- ---- ---- ------- ----- ---- -------<br>--- --- -- ----- -- --- ---- -- --- ---- -- ------ ------<br>--- ----- -- ----,87486.09999999963,87485.19999999925,87035.823,87038.39999999851,87052.493,87502.671,,20,is
screen,html.Screen,0_2_0_1_21,2021-11-04T11:57:02.442Z,,,,,,,,,,,,,,,,53,,,,,,,,,,,,,,870.5289999992528,,response,,,99,,,,,,Space,keypress(Space),,,,,---- -- ----- -- ------ - ------- --- ----------<br>------------- ------ ------ ---- ---- ------- ----- -- ----<br>-------- ------- -- paramount. --- - --- ----- ----- ----<br>---- --- --- ----- --- ---- ---- ------- ----- ---- -------<br>--- --- -- ----- -- --- ---- -- --- ---- -- ------ ------<br>--- ----- -- ----,88374,88373.19999999925,87486,87486.39999999851,87502.671,88386.171,,21,paramount.
screen,html.Screen,0_2_0_1_22,2021-11-04T11:57:03.074Z,,,,,,,,,,,,,,,,53,,,,,,,,,,,,,,619.0289999992528,,response,,,99,,,,,,Space,keypress(Space),,,,,---- -- ----- -- ------ - ------- --- ----------<br>------------- ------ ------ ---- ---- ------- ----- -- ----<br>-------- ------- -- ---------- But - --- ----- ----- ----<br>---- --- --- ----- --- ---- ---- ------- ----- ---- -------<br>--- --- -- ----- -- --- ---- -- --- ---- -- ------ ------<br>--- ----- -- ----,89005.89999999851,89005.19999999925,88369.501,88374.5,88386.171,89019.737,,22,But
screen,html.Screen,0_2_0_1_23,2021-11-04T11:57:03.506Z,,,,,,,,,,,,,,,,53,,,,,,,,,,,,,,417.4629999992612,,response,,,99,,,,,,Space,keypress(Space),,,,,---- -- ----- -- ------ - ------- --- ----------<br>------------- ------ ------ ---- ---- ------- ----- -- ----<br>-------- ------- -- ---------- --- a --- ----- ----- ----<br>---- --- --- ----- --- ---- ---- ------- ----- ---- -------<br>--- --- -- ----- -- --- ---- -- --- ---- -- ------ ------<br>--- ----- -- ----,89437.89999999851,89437.19999999925,89003.066,89006.19999999925,89019.737,89453.216,,23,a
screen,html.Screen,0_2_0_1_24,2021-11-04T11:57:03.914Z,,,,,,,,,,,,,,,,53,,,,,,,,,,,,,,391.8839999996271,,response,,,99,,,,,,Space,keypress(Space),,,,,---- -- ----- -- ------ - ------- --- ----------<br>------------- ------ ------ ---- ---- ------- ----- -- ----<br>-------- ------- -- ---------- --- - new ----- ----- ----<br>---- --- --- ----- --- ---- ---- ------- ----- ---- -------<br>--- --- -- ----- -- --- ---- -- --- ---- -- ------ ------<br>--- ----- -- ----,89845.89999999851,89845.09999999963,89436.545,89438.19999999925,89453.216,89853.279,,24,new
screen,html.Screen,0_2_0_1_25,2021-11-04T11:57:04.370Z,,,,,,,,,,,,,,,,53,,,,,,,,,,,,,,447.8209999996325,,response,,,99,,,,,,Space,keypress(Space),,,,,---- -- ----- -- ------ - ------- --- ----------<br>------------- ------ ------ ---- ---- ------- ----- -- ----<br>-------- ------- -- ---------- --- - --- study ----- ----<br>---- --- --- ----- --- ---- ---- ------- ----- ---- -------<br>--- --- -- ----- -- --- ---- -- --- ---- -- ------ ------<br>--- ----- -- ----,90301.79999999888,90301.09999999963,89836.609,89846.19999999925,89853.279,90303.43,,25,study
screen,html.Screen,0_2_0_1_26,2021-11-04T11:57:04.778Z,,,,,,,,,,,,,,,,53,,,,,,,,,,,,,,405.66999999963446,,response,,,99,,,,,,Space,keypress(Space),,,,,---- -- ----- -- ------ - ------- --- ----------<br>------------- ------ ------ ---- ---- ------- ----- -- ----<br>-------- ------- -- ---------- --- - --- ----- finds ----<br>---- --- --- ----- --- ---- ---- ------- ----- ---- -------<br>--- --- -- ----- -- --- ---- -- --- ---- -- ------ ------<br>--- ----- -- ----,90709.79999999888,90709.09999999963,90286.759,90302.09999999963,90303.43,90720.169,,26,finds
screen,html.Screen,0_2_0_1_27,2021-11-04T11:57:05.250Z,,,,,,,,,,,,,,,,53,,,,,,,,,,,,,,460.93099999963306,,response,,,99,,,,,,Space,keypress(Space),,,,,---- -- ----- -- ------ - ------- --- ----------<br>------------- ------ ------ ---- ---- ------- ----- -- ----<br>-------- ------- -- ---------- --- - --- ----- ----- that<br>---- --- --- ----- --- ---- ---- ------- ----- ---- -------<br>--- --- -- ----- -- --- ---- -- --- ---- -- ------ ------<br>--- ----- -- ----,91181.79999999888,91181.09999999963,90703.499,90710.09999999963,90720.169,91186.993,,27,that
screen,html.Screen,0_2_0_1_28,2021-11-04T11:57:05.778Z,,,,,,,,,,,,,,,,53,,,,,,,,,,,,,,522.1069999996253,,response,,,99,,,,,,Space,keypress(Space),,,,,---- -- ----- -- ------ - ------- --- ----------<br>------------- ------ ------ ---- ---- ------- ----- -- ----<br>-------- ------- -- ---------- --- - --- ----- ----- ----<br>it's --- --- ----- --- ---- ---- ------- ----- ---- -------<br>--- --- -- ----- -- --- ---- -- --- ---- -- ------ ------<br>--- ----- -- ----,91709.79999999888,91709.09999999963,91170.322,91182.09999999963,91186.993,91720.497,,28,it's
screen,html.Screen,0_2_0_1_29,2021-11-04T11:57:06.138Z,,,,,,,,,,,,,,,,53,,,,,,,,,,,,,,348.60299999962444,,response,,,99,,,,,,Space,keypress(Space),,,,,---- -- ----- -- ------ - ------- --- ----------<br>------------- ------ ------ ---- ---- ------- ----- -- ----<br>-------- ------- -- ---------- --- - --- ----- ----- ----<br>---- not --- ----- --- ---- ---- ------- ----- ---- -------<br>--- --- -- ----- -- --- ---- -- --- ---- -- ------ ------<br>--- ----- -- ----,92069.79999999888,92069.09999999963,91703.826,91710.19999999925,91720.497,92087.195,,29,not
screen,html.Screen,0_2_0_1_30,2021-11-04T11:57:06.570Z,,,,,,,,,,,,,,,,53,,,,,,,,,,,,,,413.804999999993,,response,,,99,,,,,,Space,keypress(Space),,,,,---- -- ----- -- ------ - ------- --- ----------<br>------------- ------ ------ ---- ---- ------- ----- -- ----<br>-------- ------- -- ---------- --- - --- ----- ----- ----<br>---- --- how ----- --- ---- ---- ------- ----- ---- -------<br>--- --- -- ----- -- --- ---- -- --- ---- -- ------ ------<br>--- ----- -- ----,92501.79999999888,92501,92070.525,92070.09999999963,92087.195,92503.94,,30,how
screen,html.Screen,0_2_0_1_31,2021-11-04T11:57:07.922Z,,,,,,,,,,,,,,,,53,,,,,,,,,,,,,,1349.0599999999977,,response,,,99,,,,,,Space,keypress(Space),,,,,---- -- ----- -- ------ - ------- --- ----------<br>------------- ------ ------ ---- ---- ------- ----- -- ----<br>-------- ------- -- ---------- --- - --- ----- ----- ----<br>---- --- --- close --- ---- ---- ------- ----- ---- -------<br>--- --- -- ----- -- --- ---- -- --- ---- -- ------ ------<br>--- ----- -- ----,93853.69999999925,93853,92487.27,92502,92503.94,93854.593,,31,close
screen,html.Screen,0_2_0_1_32,2021-11-04T11:57:08.331Z,,,,,,,,,,,,,,,,53,,,,,,,,,,,,,,406.8069999985164,,response,,,99,,,,,,Space,keypress(Space),,,,,---- -- ----- -- ------ - ------- --- ----------<br>------------- ------ ------ ---- ---- ------- ----- -- ----<br>-------- ------- -- ---------- --- - --- ----- ----- ----<br>---- --- --- ----- you ---- ---- ------- ----- ---- -------<br>--- --- -- ----- -- --- ---- -- --- ---- -- ------ ------<br>--- ----- -- ----,94262.19999999925,94261.39999999851,93837.92,93853.89999999851,93854.593,94271.076,,32,you
screen,html.Screen,0_2_0_1_33,2021-11-04T11:57:08.690Z,,,,,,,,,,,,,,,,53,,,,,,,,,,,,,,349.82399999850895,,response,,,99,,,,,,Space,keypress(Space),,,,,---- -- ----- -- ------ - ------- --- ----------<br>------------- ------ ------ ---- ---- ------- ----- -- ----<br>-------- ------- -- ---------- --- - --- ----- ----- ----<br>---- --- --- ----- --- feel ---- ------- ----- ---- -------<br>--- --- -- ----- -- --- ---- -- --- ---- -- ------ ------<br>--- ----- -- ----,94621.69999999925,94620.89999999851,94254.406,94262.39999999851,94271.076,94637.929,,33,feel
screen,html.Screen,0_2_0_1_34,2021-11-04T11:57:09.194Z,,,,,,,,,,,,,,,,53,,,,,,,,,,,,,,486.8709999988787,,response,,,99,,,,,,Space,keypress(Space),,,,,---- -- ----- -- ------ - ------- --- ----------<br>------------- ------ ------ ---- ---- ------- ----- -- ----<br>-------- ------- -- ---------- --- - --- ----- ----- ----<br>---- --- --- ----- --- ---- that ------- ----- ---- -------<br>--- --- -- ----- -- --- ---- -- --- ---- -- ------ ------<br>--- ----- -- ----,95125.89999999851,95124.79999999888,94621.258,94622,94637.929,95138.018,,34,that
screen,html.Screen,0_2_0_1_35,2021-11-04T11:57:09.658Z,,,,,,,,,,,,,,,,53,,,,,,,,,,,,,,450.781999998886,,response,,,99,,,,,,Space,keypress(Space),,,,,---- -- ----- -- ------ - ------- --- ----------<br>------------- ------ ------ ---- ---- ------- ----- -- ----<br>-------- ------- -- ---------- --- - --- ----- ----- ----<br>---- --- --- ----- --- ---- ---- matters ----- ---- -------<br>--- --- -- ----- -- --- ---- -- --- ---- -- ------ ------<br>--- ----- -- ----,95589.59999999963,95588.79999999888,95121.348,95126.19999999925,95138.018,95604.646,,35,matters
screen,html.Screen,0_2_0_1_36,2021-11-04T11:57:10.130Z,,,,,,,,,,,,,,,,53,,,,,,,,,,,,,,456.15399999888905,,response,,,99,,,,,,Space,keypress(Space),,,,,"---- -- ----- -- ------ - ------- --- ----------<br>------------- ------ ------ ---- ---- ------- ----- -- ----<br>-------- ------- -- ---------- --- - --- ----- ----- ----<br>---- --- --- ----- --- ---- ---- ------- most, ---- -------<br>--- --- -- ----- -- --- ---- -- --- ---- -- ------ ------<br>--- ----- -- ----",96061.79999999888,96060.79999999888,95587.978,95589.79999999888,95604.646,96071.686,,36,"most,"
screen,html.Screen,0_2_0_1_37,2021-11-04T11:57:10.626Z,,,,,,,,,,,,,,,,53,,,,,,,,,,,,,,485.1139999988809,,response,,,99,,,,,,Space,keypress(Space),,,,,---- -- ----- -- ------ - ------- --- ----------<br>------------- ------ ------ ---- ---- ------- ----- -- ----<br>-------- ------- -- ---------- --- - --- ----- ----- ----<br>---- --- --- ----- --- ---- ---- ------- ----- it's -------<br>--- --- -- ----- -- --- ---- -- --- ---- -- ------ ------<br>--- ----- -- ----,96557.5,96556.79999999888,96055.014,96062.09999999963,96071.686,96571.614,,37,it's
screen,html.Screen,0_2_0_1_38,2021-11-04T11:57:11.226Z,,,,,,,,,,,,,,,,53,,,,,,,,,,,,,,585.185999998881,,response,,,99,,,,,,Space,keypress(Space),,,,,---- -- ----- -- ------ - ------- --- ----------<br>------------- ------ ------ ---- ---- ------- ----- -- ----<br>-------- ------- -- ---------- --- - --- ----- ----- ----<br>---- --- --- ----- --- ---- ---- ------- ----- ---- whether<br>--- --- -- ----- -- --- ---- -- --- ---- -- ------ ------<br>--- ----- -- ----,97157.59999999963,97156.79999999888,96554.945,96557.69999999925,96571.614,97171.987,,38,whether
screen,html.Screen,0_2_0_1_39,2021-11-04T11:57:11.746Z,,,,,,,,,,,,,,,,53,,,,,,,,,,,,,,504.8129999988887,,response,,,99,,,,,,Space,keypress(Space),,,,,---- -- ----- -- ------ - ------- --- ----------<br>------------- ------ ------ ---- ---- ------- ----- -- ----<br>-------- ------- -- ---------- --- - --- ----- ----- ----<br>---- --- --- ----- --- ---- ---- ------- ----- ---- -------<br>you --- -- ----- -- --- ---- -- --- ---- -- ------ ------<br>--- ----- -- ----,97677.5,97676.79999999888,97155.315,97157.89999999851,97171.987,97688.765,,39,you
screen,html.Screen,0_2_0_1_40,2021-11-04T11:57:12.218Z,,,,,,,,,,,,,,,,53,,,,,,,,,,,,,,459.9349999992555,,response,,,99,,,,,,Space,keypress(Space),,,,,---- -- ----- -- ------ - ------- --- ----------<br>------------- ------ ------ ---- ---- ------- ----- -- ----<br>-------- ------- -- ---------- --- - --- ----- ----- ----<br>---- --- --- ----- --- ---- ---- ------- ----- ---- -------<br>--- are -- ----- -- --- ---- -- --- ---- -- ------ ------<br>--- ----- -- ----,98149.5,98148.69999999925,97672.094,97677.79999999888,97688.765,98155.494,,40,are
screen,html.Screen,0_2_0_1_41,2021-11-04T11:57:12.906Z,,,,,,,,,,,,,,,,53,,,,,,,,,,,,,,681.2059999992489,,response,,,99,,,,,,Space,keypress(Space),,,,,---- -- ----- -- ------ - ------- --- ----------<br>------------- ------ ------ ---- ---- ------- ----- -- ----<br>-------- ------- -- ---------- --- - --- ----- ----- ----<br>---- --- --- ----- --- ---- ---- ------- ----- ---- -------<br>--- --- as ----- -- --- ---- -- --- ---- -- ------ ------<br>--- ----- -- ----,98837.5,98836.69999999925,98138.824,98149.69999999925,98155.494,98839.061,,41,as
screen,html.Screen,0_2_0_1_42,2021-11-04T11:57:13.338Z,,,,,,,,,,,,,,,,53,,,,,,,,,,,,,,429.63899999925343,,response,,,99,,,,,,Space,keypress(Space),,,,,---- -- ----- -- ------ - ------- --- ----------<br>------------- ------ ------ ---- ---- ------- ----- -- ----<br>-------- ------- -- ---------- --- - --- ----- ----- ----<br>---- --- --- ----- --- ---- ---- ------- ----- ---- -------<br>--- --- -- close -- --- ---- -- --- ---- -- ------ ------<br>--- ----- -- ----,99269.5,99268.69999999925,98822.39,98837.69999999925,98839.061,99272.504,,42,close
screen,html.Screen,0_2_0_1_43,2021-11-04T11:57:13.754Z,,,,,,,,,,,,,,,,53,,,,,,,,,,,,,,412.1959999992541,,response,,,99,,,,,,Space,keypress(Space),,,,,---- -- ----- -- ------ - ------- --- ----------<br>------------- ------ ------ ---- ---- ------- ----- -- ----<br>-------- ------- -- ---------- --- - --- ----- ----- ----<br>---- --- --- ----- --- ---- ---- ------- ----- ---- -------<br>--- --- -- ----- as --- ---- -- --- ---- -- ------ ------<br>--- ----- -- ----,99685.5,99684.69999999925,99255.833,99269.69999999925,99272.504,99689.244,,43,as
screen,html.Screen,0_2_0_1_44,2021-11-04T11:57:14.186Z,,,,,,,,,,,,,,,,53,,,,,,,,,,,,,,427.4559999992489,,response,,,99,,,,,,Space,keypress(Space),,,,,---- -- ----- -- ------ - ------- --- ----------<br>------------- ------ ------ ---- ---- ------- ----- -- ----<br>-------- ------- -- ---------- --- - --- ----- ----- ----<br>---- --- --- ----- --- ---- ---- ------- ----- ---- -------<br>--- --- -- ----- -- you ---- -- --- ---- -- ------ ------<br>--- ----- -- ----,100117.39999999851,100116.69999999925,99672.574,99685.79999999888,99689.244,100122.738,,44,you
screen,html.Screen,0_2_0_1_45,2021-11-04T11:57:14.650Z,,,,,,,,,,,,,,,,53,,,,,,,,,,,,,,457.9619999992574,,response,,,99,,,,,,Space,keypress(Space),,,,,---- -- ----- -- ------ - ------- --- ----------<br>------------- ------ ------ ---- ---- ------- ----- -- ----<br>-------- ------- -- ---------- --- - --- ----- ----- ----<br>---- --- --- ----- --- ---- ---- ------- ----- ---- -------<br>--- --- -- ----- -- --- want -- --- ---- -- ------ ------<br>--- ----- -- ----,100581.39999999851,100580.69999999925,100106.067,100117.69999999925,100122.738,100589.483,,45,want
screen,html.Screen,0_2_0_1_46,2021-11-04T11:57:15.114Z,,,,,,,,,,,,,,,,53,,,,,,,,,,,,,,455.1169999996346,,response,,,99,,,,,,Space,keypress(Space),,,,,---- -- ----- -- ------ - ------- --- ----------<br>------------- ------ ------ ---- ---- ------- ----- -- ----<br>-------- ------- -- ---------- --- - --- ----- ----- ----<br>---- --- --- ----- --- ---- ---- ------- ----- ---- -------<br>--- --- -- ----- -- --- ---- to --- ---- -- ------ ------<br>--- ----- -- ----,101045.29999999888,101044.59999999963,100572.813,100581.59999999963,100589.483,101056.322,,46,to
screen,html.Screen,0_2_0_1_47,2021-11-04T11:57:15.546Z,,,,,,,,,,,,,,,,53,,,,,,,,,,,,,,420.27799999962735,,response,,,99,,,,,,Space,keypress(Space),,,,,"---- -- ----- -- ------ - ------- --- ----------<br>------------- ------ ------ ---- ---- ------- ----- -- ----<br>-------- ------- -- ---------- --- - --- ----- ----- ----<br>---- --- --- ----- --- ---- ---- ------- ----- ---- -------<br>--- --- -- ----- -- --- ---- -- be, ---- -- ------ ------<br>--- ----- -- ----",101477.5,101476.59999999963,101039.651,101045.59999999963,101056.322,101489.727,,47,"be,"
screen,html.Screen,0_2_0_1_48,2021-11-04T11:57:16.026Z,,,,,,,,,,,,,,,,53,,,,,,,,,,,,,,466.8729999996285,,response,,,99,,,,,,Space,keypress(Space),,,,,---- -- ----- -- ------ - ------- --- ----------<br>------------- ------ ------ ---- ---- ------- ----- -- ----<br>-------- ------- -- ---------- --- - --- ----- ----- ----<br>---- --- --- ----- --- ---- ---- ------- ----- ---- -------<br>--- --- -- ----- -- --- ---- -- --- even -- ------ ------<br>--- ----- -- ----,101957.39999999851,101956.59999999963,101473.057,101477.69999999925,101489.727,101973.225,,48,even
screen,html.Screen,0_2_0_1_49,2021-11-04T11:57:16.418Z,,,,,,,,,,,,,,,,53,,,,,,,,,,,,,,375.37499999962165,,response,,,99,,,,,,Space,keypress(Space),,,,,---- -- ----- -- ------ - ------- --- ----------<br>------------- ------ ------ ---- ---- ------- ----- -- ----<br>-------- ------- -- ---------- --- - --- ----- ----- ----<br>---- --- --- ----- --- ---- ---- ------- ----- ---- -------<br>--- --- -- ----- -- --- ---- -- --- ---- if ------ ------<br>--- ----- -- ----,102349.29999999888,102348.59999999963,101956.554,101957.69999999925,101973.225,102356.676,,49,if
screen,html.Screen,0_2_0_1_50,2021-11-04T11:57:16.842Z,,,,,,,,,,,,,,,,53,,,,,,,,,,,,,,415.9239999996207,,response,,,99,,,,,,Space,keypress(Space),,,,,---- -- ----- -- ------ - ------- --- ----------<br>------------- ------ ------ ---- ---- ------- ----- -- ----<br>-------- ------- -- ---------- --- - --- ----- ----- ----<br>---- --- --- ----- --- ---- ---- ------- ----- ---- -------<br>--- --- -- ----- -- --- ---- -- --- ---- -- that's ------<br>--- ----- -- ----,102773.29999999888,102772.59999999963,102340.005,102349.59999999963,102356.676,102790.118,,50,that's
screen,html.Screen,0_2_0_1_51,2021-11-04T11:57:17.210Z,,,,,,,,,,,,,,,,53,,,,,,,,,,,,,,350.48199999962526,,response,,,99,,,,,,Space,keypress(Space),,,,,---- -- ----- -- ------ - ------- --- ----------<br>------------- ------ ------ ---- ---- ------- ----- -- ----<br>-------- ------- -- ---------- --- - --- ----- ----- ----<br>---- --- --- ----- --- ---- ---- ------- ----- ---- -------<br>--- --- -- ----- -- --- ---- -- --- ---- -- ------ really<br>--- ----- -- ----,103141.29999999888,103140.59999999963,102773.447,102773.59999999963,102790.118,103156.887,,51,really
screen,html.Screen,0_2_0_1_52,2021-11-04T11:57:17.658Z,,,,,,,,,,,,,,,,53,,,,,,,,,,,,,,431.61299999999756,,response,,,99,,,,,,Space,keypress(Space),,,,,---- -- ----- -- ------ - ------- --- ----------<br>------------- ------ ------ ---- ---- ------- ----- -- ----<br>-------- ------- -- ---------- --- - --- ----- ----- ----<br>---- --- --- ----- --- ---- ---- ------- ----- ---- -------<br>--- --- -- ----- -- --- ---- -- --- ---- -- ------ ------<br>not ----- -- ----,103589.29999999888,103588.5,103140.216,103141.59999999963,103156.887,103590.301,,52,not
screen,html.Screen,0_2_0_1_53,2021-11-04T11:57:18.090Z,,,,,,,,,,,,,,,,53,,,,,,,,,,,,,,430.19899999999325,,response,,,99,,,,,,Space,keypress(Space),,,,,---- -- ----- -- ------ - ------- --- ----------<br>------------- ------ ------ ---- ---- ------- ----- -- ----<br>-------- ------- -- ---------- --- - --- ----- ----- ----<br>---- --- --- ----- --- ---- ---- ------- ----- ---- -------<br>--- --- -- ----- -- --- ---- -- --- ---- -- ------ ------<br>--- close -- ----,104021.19999999925,104020.5,103573.631,103589.59999999963,103590.301,104023.732,,53,close
screen,html.Screen,0_2_0_1_54,2021-11-04T11:57:18.570Z,,,,,,,,,,,,,,,,53,,,,,,,,,,,,,,477.2679999999964,,response,,,99,,,,,,Space,keypress(Space),,,,,---- -- ----- -- ------ - ------- --- ----------<br>------------- ------ ------ ---- ---- ------- ----- -- ----<br>-------- ------- -- ---------- --- - --- ----- ----- ----<br>---- --- --- ----- --- ---- ---- ------- ----- ---- -------<br>--- --- -- ----- -- --- ---- -- --- ---- -- ------ ------<br>--- ----- at ----,104501.69999999925,104501,104007.062,104021.5,104023.732,104507.264,,54,at
screen,html.Screen,0_2_0_1_55,2021-11-04T11:57:20.010Z,,,,,,,,,,,,,,,,53,,,,,,,,,,,,,,1433.2360000000044,,response,,,99,,,,,,Space,keypress(Space),,,,,---- -- ----- -- ------ - ------- --- ----------<br>------------- ------ ------ ---- ---- ------- ----- -- ----<br>-------- ------- -- ---------- --- - --- ----- ----- ----<br>---- --- --- ----- --- ---- ---- ------- ----- ---- -------<br>--- --- -- ----- -- --- ---- -- --- ---- -- ------ ------<br>--- ----- -- all.,105941.29999999888,105940.5,104490.593,104502,104507.264,105957.629,,55,all.
Item 99,flow.Loop,0_2_0_1,2021-11-04T11:57:20.014Z,,,,,,,,,,,,,,,,,,,,,,,,,,,,,,34508.886,,completion,,,,F,,,,,,,,,,silence,,105945.59999999963,105940.5,71414.943,71421,71431.614,105957.629,,,
Question 1,html.Screen,0_2_0_2,2021-11-04T11:57:27.554Z,,,,,,,,,,,,,,,,,,,,,,,,,,,true,FALSE,,7526.170999998882,,response,,,99,F,,,,,FALSE,click #choice-2,,,,silence,,113485.29999999888,113483.79999999888,105940.958,105945.89999999851,105957.629,113492.901,,,
Question 2,html.Screen,0_2_0_3,2021-11-04T11:57:34.169Z,,,,,,,,,,,,,,,,,,,,,,,,,,,true,TRUE,,6606.698999999629,,response,,,99,F,,,,,TRUE,click #choice-1,,,,silence,,120100.79999999888,120099.59999999963,113476.231,113485.59999999963,113492.901,120111.325,,,
Item 99,flow.Sequence,0_2_0,2021-11-04T11:57:34.170Z,,,,,,,,,,,,,,,,,,,,,,,,,,,,,,58660.727999999624,,completion,,,,,,,,,,,,,,,,120101.39999999851,120099.59999999963,61422.217,61424.29999999888,61438.872,120111.325,,,
Holding screen,html.Screen,0_2_1_0,2021-11-04T11:57:44.169Z,,,,,,,,,,,,,,,,,,,,,,,,,,,,,,10002.729999999996,,timeout,,,,,,,,,,,,,,,,130098.29999999888,130097.384,120094.656,120101.79999999888,120111.325,130114.055,,,
screen,html.Screen,0_2_1_1_0,2021-11-04T11:57:45.859Z,,,,,,,,,,,,,,,,54,,,,,,,,,,,,,,1673.7449999988894,,response,,,100,,,,,,Space,keypress(Space),,,,,At --- ---- --- ------ ----- ------- ---- -- --- ------- --<br>------- ---------- ------ -- ----- -- ----- -- ---- ------<br>--- ----- --- --- ------ -------- ----- --- ------ ----- --<br>----- ----- ---------- --- --- ------ ------ ---- -- ------<br>------- --- ------ ----- --- ---- ------- -- ---- --- --<br>------- ------,131788.69999999925,131787.79999999888,130097.384,130098.69999999925,130114.055,131797.948,,0,At
screen,html.Screen,0_2_1_1_1,2021-11-04T11:57:46.387Z,,,,,,,,,,,,,,,,54,,,,,,,,,,,,,,517.251999999251,,response,,,100,,,,,,Space,keypress(Space),,,,,-- the ---- --- ------ ----- ------- ---- -- --- ------- --<br>------- ---------- ------ -- ----- -- ----- -- ---- ------<br>--- ----- --- --- ------ -------- ----- --- ------ ----- --<br>----- ----- ---------- --- --- ------ ------ ---- -- ------<br>------- --- ------ ----- --- ---- ------- -- ---- --- --<br>------- ------,132316.09999999963,132315.19999999925,131781.277,131788.8999999985,131797.948,132331.309,,1,the
screen,html.Screen,0_2_1_1_2,2021-11-04T11:57:46.811Z,,,,,,,,,,,,,,,,54,,,,,,,,,,,,,,407.89099999924656,,response,,,100,,,,,,Space,keypress(Space),,,,,-- --- time --- ------ ----- ------- ---- -- --- ------- --<br>------- ---------- ------ -- ----- -- ----- -- ---- ------<br>--- ----- --- --- ------ -------- ----- --- ------ ----- --<br>----- ----- ---------- --- --- ------ ------ ---- -- ------<br>------- --- ------ ----- --- ---- ------- -- ---- --- --<br>------- ------,132740.09999999963,132739.19999999925,132314.639,132316.3999999985,132331.309,132748.068,,2,time
screen,html.Screen,0_2_1_1_3,2021-11-04T11:57:47.251Z,,,,,,,,,,,,,,,,54,,,,,,,,,,,,,,431.13199999925564,,response,,,100,,,,,,Space,keypress(Space),,,,,-- --- ---- the ------ ----- ------- ---- -- --- ------- --<br>------- ---------- ------ -- ----- -- ----- -- ---- ------<br>--- ----- --- --- ------ -------- ----- --- ------ ----- --<br>----- ----- ---------- --- --- ------ ------ ---- -- ------<br>------- --- ------ ----- --- ---- ------- -- ---- --- --<br>------- ------,133180.09999999963,133179.19999999925,132731.398,132740.3999999985,132748.068,133181.678,,3,the
screen,html.Screen,0_2_1_1_4,2021-11-04T11:57:47.723Z,,,,,,,,,,,,,,,,54,,,,,,,,,,,,,,469.5219999992405,,response,,,100,,,,,,Space,keypress(Space),,,,,-- --- ---- --- French ----- ------- ---- -- --- ------- --<br>------- ---------- ------ -- ----- -- ----- -- ---- ------<br>--- ----- --- --- ------ -------- ----- --- ------ ----- --<br>----- ----- ---------- --- --- ------ ------ ---- -- ------<br>------- --- ------ ----- --- ---- ------- -- ---- --- --<br>------- ------,133652.19999999925,133651.19999999925,133165.006,133180.3999999985,133181.678,133665.089,,4,French
screen,html.Screen,0_2_1_1_5,2021-11-04T11:57:48.155Z,,,,,,,,,,,,,,,,54,,,,,,,,,,,,,,418.1109999992477,,response,,,100,,,,,,Space,keypress(Space),,,,,-- --- ---- --- ------ crown ------- ---- -- --- ------- --<br>------- ---------- ------ -- ----- -- ----- -- ---- ------<br>--- ----- --- --- ------ -------- ----- --- ------ ----- --<br>----- ----- ---------- --- --- ------ ------ ---- -- ------<br>------- --- ------ ----- --- ---- ------- -- ---- --- --<br>------- ------,134083.8999999985,134083.19999999925,133648.418,133652.5,133665.089,134098.489,,5,crown
screen,html.Screen,0_2_1_1_6,2021-11-04T11:57:48.731Z,,,,,,,,,,,,,,,,54,,,,,,,,,,,,,,560.7109999992535,,response,,,100,,,,,,Space,keypress(Space),,,,,-- --- ---- --- ------ ----- secured ---- -- --- ------- --<br>------- ---------- ------ -- ----- -- ----- -- ---- ------<br>--- ----- --- --- ------ -------- ----- --- ------ ----- --<br>----- ----- ---------- --- --- ------ ------ ---- -- ------<br>------- --- ------ ----- --- ---- ------- -- ---- --- --<br>------- ------,134660,134659.19999999925,134081.819,134084.29999999888,134098.489,134665.18,,6,secured
screen,html.Screen,0_2_1_1_7,2021-11-04T11:57:49.195Z,,,,,,,,,,,,,,,,54,,,,,,,,,,,,,,458.0199999992619,,response,,,100,,,,,,Space,keypress(Space),,,,,-- --- ---- --- ------ ----- ------- much -- --- ------- --<br>------- ---------- ------ -- ----- -- ----- -- ---- ------<br>--- ----- --- --- ------ -------- ----- --- ------ ----- --<br>----- ----- ---------- --- --- ------ ------ ---- -- ------<br>------- --- ------ ----- --- ---- ------- -- ---- --- --<br>------- ------,135124,135123.19999999925,134648.511,134660.29999999888,134665.18,135132.22,,7,much
screen,html.Screen,0_2_1_1_8,2021-11-04T11:57:50.203Z,,,,,,,,,,,,,,,,54,,,,,,,,,,,,,,998.9799999992538,,response,,,100,,,,,,Space,keypress(Space),,,,,-- --- ---- --- ------ ----- ------- ---- of --- ------- --<br>------- ---------- ------ -- ----- -- ----- -- ---- ------<br>--- ----- --- --- ------ -------- ----- --- ------ ----- --<br>----- ----- ---------- --- --- ------ ------ ---- -- ------<br>------- --- ------ ----- --- ---- ------- -- ---- --- --<br>------- ------,136132,136131.19999999925,135115.548,135125,135132.22,136148.952,,8,of
screen,html.Screen,0_2_1_1_9,2021-11-04T11:57:50.611Z,,,,,,,,,,,,,,,,54,,,,,,,,,,,,,,390.14799999963725,,response,,,100,,,,,,Space,keypress(Space),,,,,-- --- ---- --- ------ ----- ------- ---- -- its ------- --<br>------- ---------- ------ -- ----- -- ----- -- ---- ------<br>--- ----- --- --- ------ -------- ----- --- ------ ----- --<br>----- ----- ---------- --- --- ------ ------ ---- -- ------<br>------- --- ------ ----- --- ---- ------- -- ---- --- --<br>------- ------,136539.8999999985,136539.09999999963,136132.282,136132.29999999888,136148.952,136549.301,,9,its
screen,html.Screen,0_2_1_1_10,2021-11-04T11:57:50.987Z,,,,,,,,,,,,,,,,54,,,,,,,,,,,,,,365.7989999996207,,response,,,100,,,,,,Space,keypress(Space),,,,,-- --- ---- --- ------ ----- ------- ---- -- --- revenue --<br>------- ---------- ------ -- ----- -- ----- -- ---- ------<br>--- ----- --- --- ------ -------- ----- --- ------ ----- --<br>----- ----- ---------- --- --- ------ ------ ---- -- ------<br>------- --- ------ ----- --- ---- ------- -- ---- --- --<br>------- ------,136916,136915.09999999963,136532.629,136540.09999999963,136549.301,136932.542,,10,revenue
screen,html.Screen,0_2_1_1_11,2021-11-04T11:57:51.499Z,,,,,,,,,,,,,,,,54,,,,,,,,,,,,,,494.45800000001327,,response,,,100,,,,,,Space,keypress(Space),,,,,-- --- ---- --- ------ ----- ------- ---- -- --- ------- by<br>------- ---------- ------ -- ----- -- ----- -- ---- ------<br>--- ----- --- --- ------ -------- ----- --- ------ ----- --<br>----- ----- ---------- --- --- ------ ------ ---- -- ------<br>------- --- ------ ----- --- ---- ------- -- ---- --- --<br>------- ------,137427.8999999985,137427,136915.872,136916.19999999925,136932.542,137432.814,,11,by
screen,html.Screen,0_2_1_1_12,2021-11-04T11:57:52.051Z,,,,,,,,,,,,,,,,54,,,,,,,,,,,,,,546.185999999987,,response,,,100,,,,,,Space,keypress(Space),,,,,-- --- ---- --- ------ ----- ------- ---- -- --- ------- --<br>issuing ---------- ------ -- ----- -- ----- -- ---- ------<br>--- ----- --- --- ------ -------- ----- --- ------ ----- --<br>----- ----- ---------- --- --- ------ ------ ---- -- ------<br>------- --- ------ ----- --- ---- ------- -- ---- --- --<br>------- ------,137979.79999999888,137979,137416.142,137428.09999999963,137432.814,137982.911,,12,issuing
screen,html.Screen,0_2_1_1_13,2021-11-04T11:57:52.635Z,,,,,,,,,,,,,,,,54,,,,,,,,,,,,,,580.0890000000072,,response,,,100,,,,,,Space,keypress(Space),,,,,-- --- ---- --- ------ ----- ------- ---- -- --- ------- --<br>------- government ------ -- ----- -- ----- -- ---- ------<br>--- ----- --- --- ------ -------- ----- --- ------ ----- --<br>----- ----- ---------- --- --- ------ ------ ---- -- ------<br>------- --- ------ ----- --- ---- ------- -- ---- --- --<br>------- ------,138563.79999999888,138563,137966.24,137980.09999999963,137982.911,138566.392,,13,government
screen,html.Screen,0_2_1_1_14,2021-11-04T11:57:53.227Z,,,,,,,,,,,,,,,,54,,,,,,,,,,,,,,588.6080000000075,,response,,,100,,,,,,Space,keypress(Space),,,,,-- --- ---- --- ------ ----- ------- ---- -- --- ------- --<br>------- ---------- bonds. -- ----- -- ----- -- ---- ------<br>--- ----- --- --- ------ -------- ----- --- ------ ----- --<br>----- ----- ---------- --- --- ------ ------ ---- -- ------<br>------- --- ------ ----- --- ---- ------- -- ---- --- --<br>------- ------,139155.79999999888,139155,138549.721,138564,138566.392,139166.553,,14,bonds.
screen,html.Screen,0_2_1_1_15,2021-11-04T11:57:54.875Z,,,,,,,,,,,,,,,,54,,,,,,,,,,,,,,1636.3469999984954,,response,,,100,,,,,,Space,keypress(Space),,,,,-- --- ---- --- ------ ----- ------- ---- -- --- ------- --<br>------- ---------- ------ In ----- -- ----- -- ---- ------<br>--- ----- --- --- ------ -------- ----- --- ------ ----- --<br>----- ----- ---------- --- --- ------ ------ ---- -- ------<br>------- --- ------ ----- --- ---- ------- -- ---- --- --<br>------- ------,140803.79999999888,140802.8999999985,139149.882,139156.09999999963,139166.553,140816.705,,15,In
screen,html.Screen,0_2_1_1_16,2021-11-04T11:57:56.819Z,,,,,,,,,,,,,,,,54,,,,,,,,,,,,,,1930.5949999988952,,response,,,100,,,,,,Space,keypress(Space),,,,,"-- --- ---- --- ------ ----- ------- ---- -- --- ------- --<br>------- ---------- ------ -- 1727, -- ----- -- ---- ------<br>--- ----- --- --- ------ -------- ----- --- ------ ----- --<br>----- ----- ---------- --- --- ------ ------ ---- -- ------<br>------- --- ------ ----- --- ---- ------- -- ---- --- --<br>------- ------",142748.09999999963,142747.29999999888,140800.036,140804,140816.705,142750.997,,16,"1727,"
screen,html.Screen,0_2_1_1_17,2021-11-04T11:57:57.402Z,,,,,,,,,,,,,,,,54,,,,,,,,,,,,,,579.8029999988794,,response,,,100,,,,,,Space,keypress(Space),,,,,-- --- ---- --- ------ ----- ------- ---- -- --- ------- --<br>------- ---------- ------ -- ----- in ----- -- ---- ------<br>--- ----- --- --- ------ -------- ----- --- ------ ----- --<br>----- ----- ---------- --- --- ------ ------ ---- -- ------<br>------- --- ------ ----- --- ---- ------- -- ---- --- --<br>------- ------,143331.5,143330.79999999888,142734.325,142748.5,142750.997,143334.341,,17,in
screen,html.Screen,0_2_1_1_18,2021-11-04T11:57:57.898Z,,,,,,,,,,,,,,,,54,,,,,,,,,,,,,,492.35899999926914,,response,,,100,,,,,,Space,keypress(Space),,,,,-- --- ---- --- ------ ----- ------- ---- -- --- ------- --<br>------- ---------- ------ -- ----- -- order -- ---- ------<br>--- ----- --- --- ------ -------- ----- --- ------ ----- --<br>----- ----- ---------- --- --- ------ ------ ---- -- ------<br>------- --- ------ ----- --- ---- ------- -- ---- --- --<br>------- ------,143827.59999999963,143826.69999999925,143317.67,143331.69999999925,143334.341,143834.359,,18,order
screen,html.Screen,0_2_1_1_19,2021-11-04T11:57:58.242Z,,,,,,,,,,,,,,,,54,,,,,,,,,,,,,,336.3409999992582,,response,,,100,,,,,,Space,keypress(Space),,,,,-- --- ---- --- ------ ----- ------- ---- -- --- ------- --<br>------- ---------- ------ -- ----- -- ----- to ---- ------<br>--- ----- --- --- ------ -------- ----- --- ------ ----- --<br>----- ----- ---------- --- --- ------ ------ ---- -- ------<br>------- --- ------ ----- --- ---- ------- -- ---- --- --<br>------- ------,144171.5,144170.69999999925,143817.689,143827.8999999985,143834.359,144184.683,,19,to
screen,html.Screen,0_2_1_1_20,2021-11-04T11:57:58.618Z,,,,,,,,,,,,,,,,54,,,,,,,,,,,,,,362.1169999988924,,response,,,100,,,,,,Space,keypress(Space),,,,,-- --- ---- --- ------ ----- ------- ---- -- --- ------- --<br>------- ---------- ------ -- ----- -- ----- -- save ------<br>--- ----- --- --- ------ -------- ----- --- ------ ----- --<br>----- ----- ---------- --- --- ------ ------ ---- -- ------<br>------- --- ------ ----- --- ---- ------- -- ---- --- --<br>------- ------,144547.3999999985,144546.79999999888,144168.01,144171.69999999925,144184.683,144551.281,,20,save
screen,html.Screen,0_2_1_1_21,2021-11-04T11:57:59.082Z,,,,,,,,,,,,,,,,54,,,,,,,,,,,,,,459.5189999988943,,response,,,100,,,,,,Space,keypress(Space),,,,,"-- --- ---- --- ------ ----- ------- ---- -- --- ------- --<br>------- ---------- ------ -- ----- -- ----- -- ---- money,<br>--- ----- --- --- ------ -------- ----- --- ------ ----- --<br>----- ----- ---------- --- --- ------ ------ ---- -- ------<br>------- --- ------ ----- --- ---- ------- -- ---- --- --<br>------- ------",145011.5,145010.79999999888,144534.611,144548.5,144551.281,145018.188,,21,"money,"
screen,html.Screen,0_2_1_1_22,2021-11-04T11:57:59.602Z,,,,,,,,,,,,,,,,54,,,,,,,,,,,,,,512.5119999992603,,response,,,100,,,,,,Space,keypress(Space),,,,,-- --- ---- --- ------ ----- ------- ---- -- --- ------- --<br>------- ---------- ------ -- ----- -- ----- -- ---- ------<br>the ----- --- --- ------ -------- ----- --- ------ ----- --<br>----- ----- ---------- --- --- ------ ------ ---- -- ------<br>------- --- ------ ----- --- ---- ------- -- ---- --- --<br>------- ------,145531.3999999985,145530.69999999925,145001.516,145011.79999999888,145018.188,145534.938,,22,the
screen,html.Screen,0_2_1_1_23,2021-11-04T11:58:00.058Z,,,,,,,,,,,,,,,,54,,,,,,,,,,,,,,451.6619999996328,,response,,,100,,,,,,Space,keypress(Space),,,,,-- --- ---- --- ------ ----- ------- ---- -- --- ------- --<br>------- ---------- ------ -- ----- -- ----- -- ---- ------<br>--- state --- --- ------ -------- ----- --- ------ ----- --<br>----- ----- ---------- --- --- ------ ------ ---- -- ------<br>------- --- ------ ----- --- ---- ------- -- ---- --- --<br>------- ------,145987.3999999985,145986.59999999963,145518.267,145531.69999999925,145534.938,146001.691,,23,state
screen,html.Screen,0_2_1_1_24,2021-11-04T11:58:00.466Z,,,,,,,,,,,,,,,,54,,,,,,,,,,,,,,392.90899999963585,,response,,,100,,,,,,Space,keypress(Space),,,,,-- --- ---- --- ------ ----- ------- ---- -- --- ------- --<br>------- ---------- ------ -- ----- -- ----- -- ---- ------<br>--- ----- cut --- ------ -------- ----- --- ------ ----- --<br>----- ----- ---------- --- --- ------ ------ ---- -- ------<br>------- --- ------ ----- --- ---- ------- -- ---- --- --<br>------- ------,146395.29999999888,146394.59999999963,145985.021,145987.59999999963,146001.691,146401.798,,24,cut
screen,html.Screen,0_2_1_1_25,2021-11-04T11:58:00.826Z,,,,,,,,,,,,,,,,54,,,,,,,,,,,,,,352.7019999999902,,response,,,100,,,,,,Space,keypress(Space),,,,,-- --- ---- --- ------ ----- ------- ---- -- --- ------- --<br>------- ---------- ------ -- ----- -- ----- -- ---- ------<br>--- ----- --- the ------ -------- ----- --- ------ ----- --<br>----- ----- ---------- --- --- ------ ------ ---- -- ------<br>------- --- ------ ----- --- ---- ------- -- ---- --- --<br>------- ------,146755.29999999888,146754.5,146385.128,146395.5,146401.798,146768.596,,25,the
screen,html.Screen,0_2_1_1_26,2021-11-04T11:58:01.218Z,,,,,,,,,,,,,,,,54,,,,,,,,,,,,,,378.003999999637,,response,,,100,,,,,,Space,keypress(Space),,,,,-- --- ---- --- ------ ----- ------- ---- -- --- ------- --<br>------- ---------- ------ -- ----- -- ----- -- ---- ------<br>--- ----- --- --- bonds' -------- ----- --- ------ ----- --<br>----- ----- ---------- --- --- ------ ------ ---- -- ------<br>------- --- ------ ----- --- ---- ------- -- ---- --- --<br>------- ------,147147.3999999985,147146.59999999963,146751.925,146755.5,146768.596,147152.043,,26,bonds'
screen,html.Screen,0_2_1_1_27,2021-11-04T11:58:01.754Z,,,,,,,,,,,,,,,,54,,,,,,,,,,,,,,530.5569999996223,,response,,,100,,,,,,Space,keypress(Space),,,,,-- --- ---- --- ------ ----- ------- ---- -- --- ------- --<br>------- ---------- ------ -- ----- -- ----- -- ---- ------<br>--- ----- --- --- ------ interest ----- --- ------ ----- --<br>----- ----- ---------- --- --- ------ ------ ---- -- ------<br>------- --- ------ ----- --- ---- ------- -- ---- --- --<br>------- ------,147683.29999999888,147682.59999999963,147135.372,147147.59999999963,147152.043,147685.511,,27,interest
screen,html.Screen,0_2_1_1_28,2021-11-04T11:58:02.234Z,,,,,,,,,,,,,,,,54,,,,,,,,,,,,,,476.9890000000014,,response,,,100,,,,,,Space,keypress(Space),,,,,-- --- ---- --- ------ ----- ------- ---- -- --- ------- --<br>------- ---------- ------ -- ----- -- ----- -- ---- ------<br>--- ----- --- --- ------ -------- rate. --- ------ ----- --<br>----- ----- ---------- --- --- ------ ------ ---- -- ------<br>------- --- ------ ----- --- ---- ------- -- ---- --- --<br>------- ------,148163.29999999888,148162.5,147668.84,147683.59999999963,147685.511,148168.975,,28,rate.
screen,html.Screen,0_2_1_1_29,2021-11-04T11:58:02.754Z,,,,,,,,,,,,,,,,54,,,,,,,,,,,,,,513.5249999999942,,response,,,100,,,,,,Space,keypress(Space),,,,,-- --- ---- --- ------ ----- ------- ---- -- --- ------- --<br>------- ---------- ------ -- ----- -- ----- -- ---- ------<br>--- ----- --- --- ------ -------- ----- The ------ ----- --<br>----- ----- ---------- --- --- ------ ------ ---- -- ------<br>------- --- ------ ----- --- ---- ------- -- ---- --- --<br>------- ------,148683.29999999888,148682.5,148152.304,148163.59999999963,148168.975,148685.697,,29,The
screen,html.Screen,0_2_1_1_30,2021-11-04T11:58:03.210Z,,,,,,,,,,,,,,,,54,,,,,,,,,,,,,,452.80300000001444,,response,,,100,,,,,,Space,keypress(Space),,,,,-- --- ---- --- ------ ----- ------- ---- -- --- ------- --<br>------- ---------- ------ -- ----- -- ----- -- ---- ------<br>--- ----- --- --- ------ -------- ----- --- market ----- --<br>----- ----- ---------- --- --- ------ ------ ---- -- ------<br>------- --- ------ ----- --- ---- ------- -- ---- --- --<br>------- ------,149139.29999999888,149138.5,148669.027,148683.5,148685.697,149152.597,,30,market
screen,html.Screen,0_2_1_1_31,2021-11-04T11:58:03.698Z,,,,,,,,,,,,,,,,54,,,,,,,,,,,,,,473.80299999850104,,response,,,100,,,,,,Space,keypress(Space),,,,,-- --- ---- --- ------ ----- ------- ---- -- --- ------- --<br>------- ---------- ------ -- ----- -- ----- -- ---- ------<br>--- ----- --- --- ------ -------- ----- --- ------ value --<br>----- ----- ---------- --- --- ------ ------ ---- -- ------<br>------- --- ------ ----- --- ---- ------- -- ---- --- --<br>------- ------,149627.29999999888,149626.3999999985,149135.926,149139.5,149152.597,149635.994,,31,value
screen,html.Screen,0_2_1_1_32,2021-11-04T11:58:04.130Z,,,,,,,,,,,,,,,,54,,,,,,,,,,,,,,422.40599999850383,,response,,,100,,,,,,Space,keypress(Space),,,,,-- --- ---- --- ------ ----- ------- ---- -- --- ------- --<br>------- ---------- ------ -- ----- -- ----- -- ---- ------<br>--- ----- --- --- ------ -------- ----- --- ------ ----- of<br>----- ----- ---------- --- --- ------ ------ ---- -- ------<br>------- --- ------ ----- --- ---- ------- -- ---- --- --<br>------- ------,150059.29999999888,150058.3999999985,149619.324,149627.3999999985,149635.994,150069.483,,32,of
screen,html.Screen,0_2_1_1_33,2021-11-04T11:58:04.626Z,,,,,,,,,,,,,,,,54,,,,,,,,,,,,,,484.91699999850243,,response,,,100,,,,,,Space,keypress(Space),,,,,-- --- ---- --- ------ ----- ------- ---- -- --- ------- --<br>------- ---------- ------ -- ----- -- ----- -- ---- ------<br>--- ----- --- --- ------ -------- ----- --- ------ ----- --<br>these ----- ---------- --- --- ------ ------ ---- -- ------<br>------- --- ------ ----- --- ---- ------- -- ---- --- --<br>------- ------,150555.09999999963,150554.3999999985,150052.812,150059.5,150069.483,150569.617,,33,these
screen,html.Screen,0_2_1_1_34,2021-11-04T11:58:05.051Z,,,,,,,,,,,,,,,,54,,,,,,,,,,,,,,408.88300000000163,,response,,,100,,,,,,Space,keypress(Space),,,,,-- --- ---- --- ------ ----- ------- ---- -- --- ------- --<br>------- ---------- ------ -- ----- -- ----- -- ---- ------<br>--- ----- --- --- ------ -------- ----- --- ------ ----- --<br>----- bonds ---------- --- --- ------ ------ ---- -- ------<br>------- --- ------ ----- --- ---- ------- -- ---- --- --<br>------- ------,150980.5,150978.5,150552.946,150555.3999999985,150569.617,150986.413,,34,bonds
screen,html.Screen,0_2_1_1_35,2021-11-04T11:58:05.698Z,,,,,,,,,,,,,,,,54,,,,,,,,,,,,,,640.0869999999995,,response,,,100,,,,,,Space,keypress(Space),,,,,"-- --- ---- --- ------ ----- ------- ---- -- --- ------- --<br>------- ---------- ------ -- ----- -- ----- -- ---- ------<br>--- ----- --- --- ------ -------- ----- --- ------ ----- --<br>----- ----- plummeted, --- --- ------ ------ ---- -- ------<br>------- --- ------ ----- --- ---- ------- -- ---- --- --<br>------- ------",151627.19999999925,151626.5,150969.742,150980.69999999925,150986.413,151636.576,,35,"plummeted,"
screen,html.Screen,0_2_1_1_36,2021-11-04T11:58:06.154Z,,,,,,,,,,,,,,,,54,,,,,,,,,,,,,,445.82399999850895,,response,,,100,,,,,,Space,keypress(Space),,,,,-- --- ---- --- ------ ----- ------- ---- -- --- ------- --<br>------- ---------- ------ -- ----- -- ----- -- ---- ------<br>--- ----- --- --- ------ -------- ----- --- ------ ----- --<br>----- ----- ---------- and --- ------ ------ ---- -- ------<br>------- --- ------ ----- --- ---- ------- -- ---- --- --<br>------- ------,152083.09999999963,152082.3999999985,151619.905,151627.3999999985,151636.576,152086.72,,36,and
screen,html.Screen,0_2_1_1_37,2021-11-04T11:58:06.506Z,,,,,,,,,,,,,,,,54,,,,,,,,,,,,,,347.57999999888125,,response,,,100,,,,,,Space,keypress(Space),,,,,-- --- ---- --- ------ ----- ------- ---- -- --- ------- --<br>------- ---------- ------ -- ----- -- ----- -- ---- ------<br>--- ----- --- --- ------ -------- ----- --- ------ ----- --<br>----- ----- ---------- --- the ------ ------ ---- -- ------<br>------- --- ------ ----- --- ---- ------- -- ---- --- --<br>------- ------,152435.09999999963,152434.29999999888,152070.049,152083.3999999985,152086.72,152436.754,,37,the
screen,html.Screen,0_2_1_1_38,2021-11-04T11:58:06.818Z,,,,,,,,,,,,,,,,54,,,,,,,,,,,,,,309.6459999985236,,response,,,100,,,,,,Space,keypress(Space),,,,,-- --- ---- --- ------ ----- ------- ---- -- --- ------- --<br>------- ---------- ------ -- ----- -- ----- -- ---- ------<br>--- ----- --- --- ------ -------- ----- --- ------ ----- --<br>----- ----- ---------- --- --- market ------ ---- -- ------<br>------- --- ------ ----- --- ---- ------- -- ---- --- --<br>------- ------,152747.19999999925,152746.3999999985,152420.084,152435.3999999985,152436.754,152753.514,,38,market
screen,html.Screen,0_2_1_1_39,2021-11-04T11:58:07.370Z,,,,,,,,,,,,,,,,54,,,,,,,,,,,,,,545.2859999988868,,response,,,100,,,,,,Space,keypress(Space),,,,,-- --- ---- --- ------ ----- ------- ---- -- --- ------- --<br>------- ---------- ------ -- ----- -- ----- -- ---- ------<br>--- ----- --- --- ------ -------- ----- --- ------ ----- --<br>----- ----- ---------- --- --- ------ became ---- -- ------<br>------- --- ------ ----- --- ---- ------- -- ---- --- --<br>------- ------,153299.59999999963,153298.79999999888,152736.844,152747.3999999985,152753.514,153303.695,,39,became
screen,html.Screen,0_2_1_1_40,2021-11-04T11:58:07.842Z,,,,,,,,,,,,,,,,54,,,,,,,,,,,,,,466.6049999988754,,response,,,100,,,,,,Space,keypress(Space),,,,,-- --- ---- --- ------ ----- ------- ---- -- --- ------- --<br>------- ---------- ------ -- ----- -- ----- -- ---- ------<br>--- ----- --- --- ------ -------- ----- --- ------ ----- --<br>----- ----- ---------- --- --- ------ ------ wary -- ------<br>------- --- ------ ----- --- ---- ------- -- ---- --- --<br>------- ------,153771.09999999963,153770.29999999888,153287.024,153299.79999999888,153303.695,153787.023,,40,wary
screen,html.Screen,0_2_1_1_41,2021-11-04T11:58:08.298Z,,,,,,,,,,,,,,,,54,,,,,,,,,,,,,,439.2769999988959,,response,,,100,,,,,,Space,keypress(Space),,,,,-- --- ---- --- ------ ----- ------- ---- -- --- ------- --<br>------- ---------- ------ -- ----- -- ----- -- ---- ------<br>--- ----- --- --- ------ -------- ----- --- ------ ----- --<br>----- ----- ---------- --- --- ------ ------ ---- of ------<br>------- --- ------ ----- --- ---- ------- -- ---- --- --<br>------- ------,154227.09999999963,154226.29999999888,153770.354,153771.29999999888,153787.023,154237.281,,41,of
screen,html.Screen,0_2_1_1_42,2021-11-04T11:58:08.738Z,,,,,,,,,,,,,,,,54,,,,,,,,,,,,,,429.0189999988943,,response,,,100,,,,,,Space,keypress(Space),,,,,-- --- ---- --- ------ ----- ------- ---- -- --- ------- --<br>------- ---------- ------ -- ----- -- ----- -- ---- ------<br>--- ----- --- --- ------ -------- ----- --- ------ ----- --<br>----- ----- ---------- --- --- ------ ------ ---- -- French<br>------- --- ------ ----- --- ---- ------- -- ---- --- --<br>------- ------,154667.09999999963,154666.29999999888,154220.61,154227.29999999888,154237.281,154670.734,,42,French
screen,html.Screen,0_2_1_1_43,2021-11-04T11:58:09.274Z,,,,,,,,,,,,,,,,54,,,,,,,,,,,,,,531.4659999992582,,response,,,100,,,,,,Space,keypress(Space),,,,,-- --- ---- --- ------ ----- ------- ---- -- --- ------- --<br>------- ---------- ------ -- ----- -- ----- -- ---- ------<br>--- ----- --- --- ------ -------- ----- --- ------ ----- --<br>----- ----- ---------- --- --- ------ ------ ---- -- ------<br>credit. --- ------ ----- --- ---- ------- -- ---- --- --<br>------- ------,155203,155202.19999999925,154654.063,154667.29999999888,154670.734,155204.046,,43,credit.
screen,html.Screen,0_2_1_1_44,2021-11-04T11:58:09.666Z,,,,,,,,,,,,,,,,54,,,,,,,,,,,,,,390.2539999988803,,response,,,100,,,,,,Space,keypress(Space),,,,,-- --- ---- --- ------ ----- ------- ---- -- --- ------- --<br>------- ---------- ------ -- ----- -- ----- -- ---- ------<br>--- ----- --- --- ------ -------- ----- --- ------ ----- --<br>----- ----- ---------- --- --- ------ ------ ---- -- ------<br>------- The ------ ----- --- ---- ------- -- ---- --- --<br>------- ------,155595,155594.29999999888,155187.377,155203.19999999925,155204.046,155604.283,,44,The
screen,html.Screen,0_2_1_1_45,2021-11-04T11:58:10.634Z,,,,,,,,,,,,,,,,54,,,,,,,,,,,,,,958.0169999988866,,response,,,100,,,,,,Space,keypress(Space),,,,,-- --- ---- --- ------ ----- ------- ---- -- --- ------- --<br>------- ---------- ------ -- ----- -- ----- -- ---- ------<br>--- ----- --- --- ------ -------- ----- --- ------ ----- --<br>----- ----- ---------- --- --- ------ ------ ---- -- ------<br>------- --- French ----- --- ---- ------- -- ---- --- --<br>------- ------,156563,156562.29999999888,155587.612,155595.19999999925,155604.283,156571.314,,45,French
screen,html.Screen,0_2_1_1_46,2021-11-04T11:58:11.074Z,,,,,,,,,,,,,,,,54,,,,,,,,,,,,,,430.78599999961443,,response,,,100,,,,,,Space,keypress(Space),,,,,-- --- ---- --- ------ ----- ------- ---- -- --- ------- --<br>------- ---------- ------ -- ----- -- ----- -- ---- ------<br>--- ----- --- --- ------ -------- ----- --- ------ ----- --<br>----- ----- ---------- --- --- ------ ------ ---- -- ------<br>------- --- ------ state --- ---- ------- -- ---- --- --<br>------- ------,157003,157002.09999999963,156554.642,156563.19999999925,156571.314,157004.44,,46,state
screen,html.Screen,0_2_1_1_47,2021-11-04T11:58:11.522Z,,,,,,,,,,,,,,,,54,,,,,,,,,,,,,,445.7599999992526,,response,,,100,,,,,,Space,keypress(Space),,,,,-- --- ---- --- ------ ----- ------- ---- -- --- ------- --<br>------- ---------- ------ -- ----- -- ----- -- ---- ------<br>--- ----- --- --- ------ -------- ----- --- ------ ----- --<br>----- ----- ---------- --- --- ------ ------ ---- -- ------<br>------- --- ------ ----- was ---- ------- -- ---- --- --<br>------- ------,157451,157450.19999999925,156987.772,157003.09999999963,157004.44,157454.758,,47,was
screen,html.Screen,0_2_1_1_48,2021-11-04T11:58:11.954Z,,,,,,,,,,,,,,,,54,,,,,,,,,,,,,,427.34199999962584,,response,,,100,,,,,,Space,keypress(Space),,,,,-- --- ---- --- ------ ----- ------- ---- -- --- ------- --<br>------- ---------- ------ -- ----- -- ----- -- ---- ------<br>--- ----- --- --- ------ -------- ----- --- ------ ----- --<br>----- ----- ---------- --- --- ------ ------ ---- -- ------<br>------- --- ------ ----- --- left ------- -- ---- --- --<br>------- ------,157882.8999999985,157882.09999999963,157438.087,157451.19999999925,157454.758,157888.209,,48,left
screen,html.Screen,0_2_1_1_49,2021-11-04T11:58:12.562Z,,,,,,,,,,,,,,,,54,,,,,,,,,,,,,,601.8909999996249,,response,,,100,,,,,,Space,keypress(Space),,,,,-- --- ---- --- ------ ----- ------- ---- -- --- ------- --<br>------- ---------- ------ -- ----- -- ----- -- ---- ------<br>--- ----- --- --- ------ -------- ----- --- ------ ----- --<br>----- ----- ---------- --- --- ------ ------ ---- -- ------<br>------- --- ------ ----- --- ---- without -- ---- --- --<br>------- ------,158490.8999999985,158490.09999999963,157871.538,157883.09999999963,157888.209,158505.166,,49,without
screen,html.Screen,0_2_1_1_50,2021-11-04T11:58:13.106Z,,,,,,,,,,,,,,,,54,,,,,,,,,,,,,,528.93399999963,,response,,,100,,,,,,Space,keypress(Space),,,,,-- --- ---- --- ------ ----- ------- ---- -- --- ------- --<br>------- ---------- ------ -- ----- -- ----- -- ---- ------<br>--- ----- --- --- ------ -------- ----- --- ------ ----- --<br>----- ----- ---------- --- --- ------ ------ ---- -- ------<br>------- --- ------ ----- --- ---- ------- an ---- --- --<br>------- ------,159034.8999999985,159034.09999999963,158488.494,158491.19999999925,158505.166,159038.515,,50,an
screen,html.Screen,0_2_1_1_51,2021-11-04T11:58:13.626Z,,,,,,,,,,,,,,,,54,,,,,,,,,,,,,,515.5849999996135,,response,,,100,,,,,,Space,keypress(Space),,,,,-- --- ---- --- ------ ----- ------- ---- -- --- ------- --<br>------- ---------- ------ -- ----- -- ----- -- ---- ------<br>--- ----- --- --- ------ -------- ----- --- ------ ----- --<br>----- ----- ---------- --- --- ------ ------ ---- -- ------<br>------- --- ------ ----- --- ---- ------- -- easy --- --<br>------- ------,159554.79999999888,159554.09999999963,159021.845,159035.09999999963,159038.515,159572.056,,51,easy
screen,html.Screen,0_2_1_1_52,2021-11-04T11:58:14.378Z,,,,,,,,,,,,,,,,54,,,,,,,,,,,,,,734.0439999996161,,response,,,100,,,,,,Space,keypress(Space),,,,,-- --- ---- --- ------ ----- ------- ---- -- --- ------- --<br>------- ---------- ------ -- ----- -- ----- -- ---- ------<br>--- ----- --- --- ------ -------- ----- --- ------ ----- --<br>----- ----- ---------- --- --- ------ ------ ---- -- ------<br>------- --- ------ ----- --- ---- ------- -- ---- way --<br>------- ------,160306.8999999985,160306.09999999963,159555.385,159555.09999999963,159572.056,160322.246,,52,way
screen,html.Screen,0_2_1_1_53,2021-11-04T11:58:15.330Z,,,,,,,,,,,,,,,,54,,,,,,,,,,,,,,935.7539999999863,,response,,,100,,,,,,Space,keypress(Space),,,,,-- --- ---- --- ------ ----- ------- ---- -- --- ------- --<br>------- ---------- ------ -- ----- -- ----- -- ---- ------<br>--- ----- --- --- ------ -------- ----- --- ------ ----- --<br>----- ----- ---------- --- --- ------ ------ ---- -- ------<br>------- --- ------ ----- --- ---- ------- -- ---- --- of<br>------- ------,161258.79999999888,161258,160305.575,160307.09999999963,160322.246,161272.421,,53,of
screen,html.Screen,0_2_1_1_54,2021-11-04T11:58:15.826Z,,,,,,,,,,,,,,,,54,,,,,,,,,,,,,,481.5789999999979,,response,,,100,,,,,,Space,keypress(Space),,,,,-- --- ---- --- ------ ----- ------- ---- -- --- ------- --<br>------- ---------- ------ -- ----- -- ----- -- ---- ------<br>--- ----- --- --- ------ -------- ----- --- ------ ----- --<br>----- ----- ---------- --- --- ------ ------ ---- -- ------<br>------- --- ------ ----- --- ---- ------- -- ---- --- --<br>raising ------,161754.8999999985,161754,161255.751,161259.09999999963,161272.421,161755.965,,54,raising
screen,html.Screen,0_2_1_1_55,2021-11-04T11:58:16.498Z,,,,,,,,,,,,,,,,54,,,,,,,,,,,,,,670.0350000000035,,response,,,100,,,,,,Space,keypress(Space),,,,,-- --- ---- --- ------ ----- ------- ---- -- --- ------- --<br>------- ---------- ------ -- ----- -- ----- -- ---- ------<br>--- ----- --- --- ------ -------- ----- --- ------ ----- --<br>----- ----- ---------- --- --- ------ ------ ---- -- ------<br>------- --- ------ ----- --- ---- ------- -- ---- --- --<br>------- money.,162426.69999999925,162426,161739.294,161755.19999999925,161755.965,162439.419,,55,money.
Item 100,flow.Loop,0_2_1_1,2021-11-04T11:58:16.498Z,,,,,,,,,,,,,,,,,,,,,,,,,,,,,,32311.945000000007,,completion,,,,F,,,,,,,,,,silence,,162427.19999999925,162426,130097.384,130098.59999999963,130114.055,162439.419,,,
Question 1,html.Screen,0_2_1_2,2021-11-04T11:58:21.242Z,,,,,,,,,,,,,,,,,,,,,,,,,,,true,TRUE,,4730.081000000006,,response,,,100,F,,,,,TRUE,click #choice-1,,,,silence,,167170.69999999925,167169.5,162422.749,162427.3999999985,162439.419,167174.024,,,
Question 2,html.Screen,0_2_1_3,2021-11-04T11:58:24.321Z,,,,,,,,,,,,,,,,,,,,,,,,,,,true,FALSE,,3075.475999999995,,response,,,100,F,,,,,FALSE,click #choice-2,,,,silence,,170250.59999999963,170249.5,167157.354,167171,167174.024,170258.258,,,
Item 100,flow.Sequence,0_2_1,2021-11-04T11:58:24.322Z,,,,,,,,,,,,,,,,,,,,,,,,,,,,,,50138.175,,completion,,,,,,,,,,,,,,,,170250.8999999985,170249.5,120094.656,120101.59999999963,120111.325,170258.258,,,
End of Practice,html.Page,0_2_2,2021-11-04T11:58:30.178Z,,,,,,,,,,,,,,,,,,,,,,,,,,,,,,5848.641999998508,,form submission,,,,,,,,,,,,,,,,176107.3999999985,176106.8999999985,170241.587,170251.09999999963,170258.258,176109.574,,,
Practice,flow.Sequence,0_2,2021-11-04T11:58:30.179Z,,,,,,,,,,,,,,,,,,,,,,,,,,,,,,114668.0279999985,,completion,,,,,,,,,,,,,,,,176107.79999999888,176106.8999999985,61422.217,61424.199999999255,61438.872,176109.574,,,
Trap_instruction,html.Page,0_3_0,2021-11-04T11:58:34.786Z,,,,,,,,,,,,,,,,,,,,,,,,,,,,,,4604.725999998889,,form submission,,,,,,,,,,,,,,,,180714.79999999888,180714.29999999888,176092.904,176108.19999999925,176109.574,180777.348,,,
trap_trial,html.Screen,0_3_1,2021-11-04T11:58:39.115Z,,,,,,,,,,,,,,,,,,,,,,,,,,,true,1,,4263.451999998884,,response,,,,,,,,,1,click #choice-1,,,,,,185042,185040.79999999888,180710.668,180715,180777.348,185044.714,,,
end of trap trial,html.Page,0_3_2,2021-11-04T11:58:42.252Z,,,,,,,,,,,,,,,,,,,,,,,,,,,,,,3133.3859999996203,,form submission,,,,,,,,,,,,,,,,188178.59999999963,188178.09999999963,185028.046,185042.29999999888,185044.714,188196.483,,,
Trap 1,flow.Sequence,0_3,2021-11-04T11:58:42.252Z,,,,,,,,,,,,,,,,,,,,,,,,,,,,,,12068.525999999634,,completion,,,,,,,,,,,,,,,,188179,188178.09999999963,176092.904,176108.09999999963,176109.574,188196.483,,,
Standby,html.Page,0_4_0,2021-11-04T11:58:50.252Z,,,,,,,,,,,,,,,,,,,,,,,,,,,,,,7997.876999999979,,timeout,,,,,,,,,,,,,,,,196179,196177.697,188179.81,188179.09999999963,188196.483,196194.36,,,
Holding screen,html.Screen,0_4_1_0_0,2021-11-04T11:58:57.258Z,,,,,,,,,,,,,,,,,,,,,,,,,,,,,,7006.064000000013,,timeout,,,,,,,,,,,,,,,,203184.69999999925,203183.753,196177.697,196179.3999999985,196194.36,203200.424,,,
screen,html.Screen,0_4_1_0_1_0,2021-11-04T11:58:58.051Z,,,,,,,,,,,,,,,,2,,,,,,,,,,,,,,776.2759999992559,,response,,,1,F,,,,,Space,keypress(Space),,,,instrumental,Two ---- ------ --- ------- ---------- ------- ----------<br>--- --------- --- ----------- ------- ----- ------- ---<br>--------- ---- -- --- ---- -- --------- -- ---- -------<br>-- --------- ------ --- ----- ------ ---- --- --------- --<br>------ - ---- -- --- ----------- ------- ---- ----- -----<br>--- -------- - ------ ---- -- ----- ---- --- --- -----------<br>-- -------,203977.69999999925,203976.69999999925,203183.753,203185.09999999963,203200.424,203983.885,,0,Two
screen,html.Screen,0_4_1_0_1_1,2021-11-04T11:58:58.522Z,,,,,,,,,,,,,,,,2,,,,,,,,,,,,,,464.31499999924563,,response,,,1,F,,,,,Space,keypress(Space),,,,instrumental,--- days ------ --- ------- ---------- ------- ----------<br>--- --------- --- ----------- ------- ----- ------- ---<br>--------- ---- -- --- ---- -- --------- -- ---- -------<br>-- --------- ------ --- ----- ------ ---- --- --------- --<br>------ - ---- -- --- ----------- ------- ---- ----- -----<br>--- -------- - ------ ---- -- ----- ---- --- --- -----------<br>-- -------,204449.09999999963,204448.19999999925,203967.215,203978,203983.885,204450.656,,1,days
screen,html.Screen,0_4_1_0_1_2,2021-11-04T11:58:59.010Z,,,,,,,,,,,,,,,,2,,,,,,,,,,,,,,485.3440000000119,,response,,,1,F,,,,,Space,keypress(Space),,,,instrumental,"--- ---- later, --- ------- ---------- ------- ----------<br>--- --------- --- ----------- ------- ----- ------- ---<br>--------- ---- -- --- ---- -- --------- -- ---- -------<br>-- --------- ------ --- ----- ------ ---- --- --------- --<br>------ - ---- -- --- ----------- ------- ---- ----- -----<br>--- -------- - ------ ---- -- ----- ---- --- --- -----------<br>-- -------",204936.79999999888,204936,204433.986,204449.29999999888,204450.656,204950.959,,2,"later,"
screen,html.Screen,0_4_1_0_1_3,2021-11-04T11:58:59.538Z,,,,,,,,,,,,,,,,2,,,,,,,,,,,,,,513.0409999999974,,response,,,1,F,,,,,Space,keypress(Space),,,,instrumental,--- ---- ------ the ------- ---------- ------- ----------<br>--- --------- --- ----------- ------- ----- ------- ---<br>--------- ---- -- --- ---- -- --------- -- ---- -------<br>-- --------- ------ --- ----- ------ ---- --- --------- --<br>------ - ---- -- --- ----------- ------- ---- ----- -----<br>--- -------- - ------ ---- -- ----- ---- --- --- -----------<br>-- -------,205464.8999999985,205464,204934.287,204937,204950.959,205467.705,,3,the
screen,html.Screen,0_4_1_0_1_4,2021-11-04T11:59:00.026Z,,,,,,,,,,,,,,,,2,,,,,,,,,,,,,,484.2950000000128,,response,,,1,F,,,,,Space,keypress(Space),,,,instrumental,--- ---- ------ --- British ---------- ------- ----------<br>--- --------- --- ----------- ------- ----- ------- ---<br>--------- ---- -- --- ---- -- --------- -- ---- -------<br>-- --------- ------ --- ----- ------ ---- --- --------- --<br>------ - ---- -- --- ----------- ------- ---- ----- -----<br>--- -------- - ------ ---- -- ----- ---- --- --- -----------<br>-- -------,205952.69999999925,205952,205451.034,205465.09999999963,205467.705,205967.857,,4,British
screen,html.Screen,0_4_1_0_1_5,2021-11-04T11:59:00.602Z,,,,,,,,,,,,,,,,2,,,,,,,,,,,,,,560.1430000000109,,response,,,1,F,,,,,Space,keypress(Space),,,,instrumental,--- ---- ------ --- ------- astronomer ------- ----------<br>--- --------- --- ----------- ------- ----- ------- ---<br>--------- ---- -- --- ---- -- --------- -- ---- -------<br>-- --------- ------ --- ----- ------ ---- --- --------- --<br>------ - ---- -- --- ----------- ------- ---- ----- -----<br>--- -------- - ------ ---- -- ----- ---- --- --- -----------<br>-- -------,206528.79999999888,206528,205951.186,205953,205967.857,206534.496,,5,astronomer
screen,html.Screen,0_4_1_0_1_6,2021-11-04T11:59:01.138Z,,,,,,,,,,,,,,,,2,,,,,,,,,,,,,,529.5039999999863,,response,,,1,F,,,,,Space,keypress(Space),,,,instrumental,--- ---- ------ --- ------- ---------- Richard ----------<br>--- --------- --- ----------- ------- ----- ------- ---<br>--------- ---- -- --- ---- -- --------- -- ---- -------<br>-- --------- ------ --- ----- ------ ---- --- --------- --<br>------ - ---- -- --- ----------- ------- ---- ----- -----<br>--- -------- - ------ ---- -- ----- ---- --- --- -----------<br>-- -------,207064.79999999888,207064,206517.827,206529.09999999963,206534.496,207068.209,,6,Richard
screen,html.Screen,0_4_1_0_1_7,2021-11-04T11:59:01.762Z,,,,,,,,,,,,,,,,2,,,,,,,,,,,,,,619.7909999999974,,response,,,1,F,,,,,Space,keypress(Space),,,,instrumental,--- ---- ------ --- ------- ---------- ------- Carrington<br>--- --------- --- ----------- ------- ----- ------- ---<br>--------- ---- -- --- ---- -- --------- -- ---- -------<br>-- --------- ------ --- ----- ------ ---- --- --------- --<br>------ - ---- -- --- ----------- ------- ---- ----- -----<br>--- -------- - ------ ---- -- ----- ---- --- --- -----------<br>-- -------,207688.69999999925,207688,207051.537,207065,207068.209,207701.635,,7,Carrington
screen,html.Screen,0_4_1_0_1_8,2021-11-04T11:59:02.234Z,,,,,,,,,,,,,,,,2,,,,,,,,,,,,,,458.26499999850057,,response,,,1,F,,,,,Space,keypress(Space),,,,instrumental,--- ---- ------ --- ------- ---------- ------- ----------<br>was --------- --- ----------- ------- ----- ------- ---<br>--------- ---- -- --- ---- -- --------- -- ---- -------<br>-- --------- ------ --- ----- ------ ---- --- --------- --<br>------ - ---- -- --- ----------- ------- ---- ----- -----<br>--- -------- - ------ ---- -- ----- ---- --- --- -----------<br>-- -------,208160.69999999925,208159.8999999985,207684.964,207688.8999999985,207701.635,208168.277,,8,was
screen,html.Screen,0_4_1_0_1_9,2021-11-04T11:59:02.682Z,,,,,,,,,,,,,,,,2,,,,,,,,,,,,,,439.72299999999814,,response,,,1,F,,,,,Space,keypress(Space),,,,instrumental,--- ---- ------ --- ------- ---------- ------- ----------<br>--- observing --- ----------- ------- ----- ------- ---<br>--------- ---- -- --- ---- -- --------- -- ---- -------<br>-- --------- ------ --- ----- ------ ---- --- --------- --<br>------ - ---- -- --- ----------- ------- ---- ----- -----<br>--- -------- - ------ ---- -- ----- ---- --- --- -----------<br>-- -------,208608.59999999963,208608,208151.608,208160.8999999985,208168.277,208618.612,,9,observing
screen,html.Screen,0_4_1_0_1_10,2021-11-04T11:59:03.098Z,,,,,,,,,,,,,,,,2,,,,,,,,,,,,,,405.28799999851617,,response,,,1,F,,,,,Space,keypress(Space),,,,instrumental,--- ---- ------ --- ------- ---------- ------- ----------<br>--- --------- the ----------- ------- ----- ------- ---<br>--------- ---- -- --- ---- -- --------- -- ---- -------<br>-- --------- ------ --- ----- ------ ---- --- --------- --<br>------ - ---- -- --- ----------- ------- ---- ----- -----<br>--- -------- - ------ ---- -- ----- ---- --- --- -----------<br>-- -------,209024.69999999925,209023.8999999985,208601.94,208608.79999999888,208618.612,209035.193,,10,the
screen,html.Screen,0_4_1_0_1_11,2021-11-04T11:59:03.610Z,,,,,,,,,,,,,,,,2,,,,,,,,,,,,,,500.7069999985106,,response,,,1,F,,,,,Space,keypress(Space),,,,instrumental,--- ---- ------ --- ------- ---------- ------- ----------<br>--- --------- --- interesting ------- ----- ------- ---<br>--------- ---- -- --- ---- -- --------- -- ---- -------<br>-- --------- ------ --- ----- ------ ---- --- --------- --<br>------ - ---- -- --- ----------- ------- ---- ----- -----<br>--- -------- - ------ ---- -- ----- ---- --- --- -----------<br>-- -------,209536.69999999925,209535.8999999985,209018.524,209025,209035.193,209552.199,,11,interesting
screen,html.Screen,0_4_1_0_1_12,2021-11-04T11:59:04.082Z,,,,,,,,,,,,,,,,2,,,,,,,,,,,,,,455.70099999851664,,response,,,1,F,,,,,Space,keypress(Space),,,,instrumental,--- ---- ------ --- ------- ---------- ------- ----------<br>--- --------- --- ----------- sunspot ----- ------- ---<br>--------- ---- -- --- ---- -- --------- -- ---- -------<br>-- --------- ------ --- ----- ------ ---- --- --------- --<br>------ - ---- -- --- ----------- ------- ---- ----- -----<br>--- -------- - ------ ---- -- ----- ---- --- --- -----------<br>-- -------,210008.69999999925,210007.8999999985,209535.527,209536.8999999985,209552.199,210018.942,,12,sunspot
screen,html.Screen,0_4_1_0_1_13,2021-11-04T11:59:04.898Z,,,,,,,,,,,,,,,,2,,,,,,,,,,,,,,804.8579999988724,,response,,,1,F,,,,,Space,keypress(Space),,,,instrumental,--- ---- ------ --- ------- ---------- ------- ----------<br>--- --------- --- ----------- ------- group ------- ---<br>--------- ---- -- --- ---- -- --------- -- ---- -------<br>-- --------- ------ --- ----- ------ ---- --- --------- --<br>------ - ---- -- --- ----------- ------- ---- ----- -----<br>--- -------- - ------ ---- -- ----- ---- --- --- -----------<br>-- -------,210824.69999999925,210823.79999999888,210002.271,210008.8999999985,210018.942,210835.816,,13,group
screen,html.Screen,0_4_1_0_1_14,2021-11-04T11:59:05.450Z,,,,,,,,,,,,,,,,2,,,,,,,,,,,,,,539.9839999988908,,response,,,1,F,,,,,Space,keypress(Space),,,,instrumental,--- ---- ------ --- ------- ---------- ------- ----------<br>--- --------- --- ----------- ------- ----- through ---<br>--------- ---- -- --- ---- -- --------- -- ---- -------<br>-- --------- ------ --- ----- ------ ---- --- --------- --<br>------ - ---- -- --- ----------- ------- ---- ----- -----<br>--- -------- - ------ ---- -- ----- ---- --- --- -----------<br>-- -------,211376.5,211375.79999999888,210819.145,210824.8999999985,210835.816,211385.885,,14,through
screen,html.Screen,0_4_1_0_1_15,2021-11-04T11:59:05.922Z,,,,,,,,,,,,,,,,2,,,,,,,,,,,,,,461.9149999988731,,response,,,1,F,,,,,Space,keypress(Space),,,,instrumental,--- ---- ------ --- ------- ---------- ------- ----------<br>--- --------- --- ----------- ------- ----- ------- his<br>--------- ---- -- --- ---- -- --------- -- ---- -------<br>-- --------- ------ --- ----- ------ ---- --- --------- --<br>------ - ---- -- --- ----------- ------- ---- ----- -----<br>--- -------- - ------ ---- -- ----- ---- --- --- -----------<br>-- -------,211848.5,211847.79999999888,211369.215,211376.79999999888,211385.885,211852.684,,15,his
screen,html.Screen,0_4_1_0_1_16,2021-11-04T11:59:06.754Z,,,,,,,,,,,,,,,,2,,,,,,,,,,,,,,827.0159999992466,,response,,,1,F,,,,,Space,keypress(Space),,,,instrumental,--- ---- ------ --- ------- ---------- ------- ----------<br>--- --------- --- ----------- ------- ----- ------- ---<br>telescope ---- -- --- ---- -- --------- -- ---- -------<br>-- --------- ------ --- ----- ------ ---- --- --------- --<br>------ - ---- -- --- ----------- ------- ---- ----- -----<br>--- -------- - ------ ---- -- ----- ---- --- --- -----------<br>-- -------,212680.5,212679.69999999925,211836.014,211848.79999999888,211852.684,212686.395,,16,telescope
screen,html.Screen,0_4_1_0_1_17,2021-11-04T11:59:07.218Z,,,,,,,,,,,,,,,,2,,,,,,,,,,,,,,457.4049999988929,,response,,,1,F,,,,,Space,keypress(Space),,,,instrumental,--- ---- ------ --- ------- ---------- ------- ----------<br>--- --------- --- ----------- ------- ----- ------- ---<br>--------- when -- --- ---- -- --------- -- ---- -------<br>-- --------- ------ --- ----- ------ ---- --- --------- --<br>------ - ---- -- --- ----------- ------- ---- ----- -----<br>--- -------- - ------ ---- -- ----- ---- --- --- -----------<br>-- -------,213144.5,213143.79999999888,212669.723,212680.69999999925,212686.395,213153.105,,17,when
screen,html.Screen,0_4_1_0_1_18,2021-11-04T11:59:07.594Z,,,,,,,,,,,,,,,,2,,,,,,,,,,,,,,366.59499999924446,,response,,,1,F,,,,,Space,keypress(Space),,,,instrumental,--- ---- ------ --- ------- ---------- ------- ----------<br>--- --------- --- ----------- ------- ----- ------- ---<br>--------- ---- he --- ---- -- --------- -- ---- -------<br>-- --------- ------ --- ----- ------ ---- --- --------- --<br>------ - ---- -- --- ----------- ------- ---- ----- -----<br>--- -------- - ------ ---- -- ----- ---- --- --- -----------<br>-- -------,213520.3999999985,213519.69999999925,213136.434,213144.69999999925,213153.105,213536.542,,18,he
screen,html.Screen,0_4_1_0_1_19,2021-11-04T11:59:07.970Z,,,,,,,,,,,,,,,,2,,,,,,,,,,,,,,359.1579999992682,,response,,,1,F,,,,,Space,keypress(Space),,,,instrumental,--- ---- ------ --- ------- ---------- ------- ----------<br>--- --------- --- ----------- ------- ----- ------- ---<br>--------- ---- -- saw ---- -- --------- -- ---- -------<br>-- --------- ------ --- ----- ------ ---- --- --------- --<br>------ - ---- -- --- ----------- ------- ---- ----- -----<br>--- -------- - ------ ---- -- ----- ---- --- --- -----------<br>-- -------,213896.5,213895.69999999925,213519.871,213520.69999999925,213536.542,213903.205,,19,saw
screen,html.Screen,0_4_1_0_1_20,2021-11-04T11:59:08.338Z,,,,,,,,,,,,,,,,2,,,,,,,,,,,,,,360.8949999996403,,response,,,1,F,,,,,Space,keypress(Space),,,,instrumental,--- ---- ------ --- ------- ---------- ------- ----------<br>--- --------- --- ----------- ------- ----- ------- ---<br>--------- ---- -- --- what -- --------- -- ---- -------<br>-- --------- ------ --- ----- ------ ---- --- --------- --<br>------ - ---- -- --- ----------- ------- ---- ----- -----<br>--- -------- - ------ ---- -- ----- ---- --- --- -----------<br>-- -------,214264.8999999985,214264.09999999963,213886.536,213896.69999999925,213903.205,214270.125,,20,what
screen,html.Screen,0_4_1_0_1_21,2021-11-04T11:59:08.770Z,,,,,,,,,,,,,,,,2,,,,,,,,,,,,,,425.57499999925494,,response,,,1,F,,,,,Space,keypress(Space),,,,instrumental,--- ---- ------ --- ------- ---------- ------- ----------<br>--- --------- --- ----------- ------- ----- ------- ---<br>--------- ---- -- --- ---- he --------- -- ---- -------<br>-- --------- ------ --- ----- ------ ---- --- --------- --<br>------ - ---- -- --- ----------- ------- ---- ----- -----<br>--- -------- - ------ ---- -- ----- ---- --- --- -----------<br>-- -------,214696.3999999985,214695.69999999925,214253.453,214265.19999999925,214270.125,214703.536,,21,he
screen,html.Screen,0_4_1_0_1_22,2021-11-04T11:59:09.778Z,,,,,,,,,,,,,,,,2,,,,,,,,,,,,,,1000.1639999992622,,response,,,1,F,,,,,Space,keypress(Space),,,,instrumental,--- ---- ------ --- ------- ---------- ------- ----------<br>--- --------- --- ----------- ------- ----- ------- ---<br>--------- ---- -- --- ---- -- described -- ---- -------<br>-- --------- ------ --- ----- ------ ---- --- --------- --<br>------ - ---- -- --- ----------- ------- ---- ----- -----<br>--- -------- - ------ ---- -- ----- ---- --- --- -----------<br>-- -------,215704.5,215703.69999999925,214686.865,214696.69999999925,214703.536,215720.36,,22,described
screen,html.Screen,0_4_1_0_1_23,2021-11-04T11:59:10.506Z,,,,,,,,,,,,,,,,2,,,,,,,,,,,,,,711.2399999996414,,response,,,1,F,,,,,Space,keypress(Space),,,,instrumental,--- ---- ------ --- ------- ---------- ------- ----------<br>--- --------- --- ----------- ------- ----- ------- ---<br>--------- ---- -- --- ---- -- --------- as ---- -------<br>-- --------- ------ --- ----- ------ ---- --- --------- --<br>------ - ---- -- --- ----------- ------- ---- ----- -----<br>--- -------- - ------ ---- -- ----- ---- --- --- -----------<br>-- -------,216432.19999999925,216431.59999999963,215703.69,215704.79999999888,215720.36,216437.373,,23,as
screen,html.Screen,0_4_1_0_1_24,2021-11-04T11:59:11.050Z,,,,,,,,,,,,,,,,2,,,,,,,,,,,,,,538.2269999996352,,response,,,1,F,,,,,Space,keypress(Space),,,,instrumental,"--- ---- ------ --- ------- ---------- ------- ----------<br>--- --------- --- ----------- ------- ----- ------- ---<br>--------- ---- -- --- ---- -- --------- -- ""two -------<br>-- --------- ------ --- ----- ------ ---- --- --------- --<br>------ - ---- -- --- ----------- ------- ---- ----- -----<br>--- -------- - ------ ---- -- ----- ---- --- --- -----------<br>-- -------",216976.29999999888,216975.59999999963,216420.702,216432.5,216437.373,216987.41,,24,"""two"
screen,html.Screen,0_4_1_0_1_25,2021-11-04T11:59:11.626Z,,,,,,,,,,,,,,,,2,,,,,,,,,,,,,,564.0899999999965,,response,,,1,F,,,,,Space,keypress(Space),,,,instrumental,--- ---- ------ --- ------- ---------- ------- ----------<br>--- --------- --- ----------- ------- ----- ------- ---<br>--------- ---- -- --- ---- -- --------- -- ---- patches<br>-- --------- ------ --- ----- ------ ---- --- --------- --<br>------ - ---- -- --- ----------- ------- ---- ----- -----<br>--- -------- - ------ ---- -- ----- ---- --- --- -----------<br>-- -------,217552.19999999925,217551.5,216970.74,216976.59999999963,216987.41,217554.18,,25,patches
screen,html.Screen,0_4_1_0_1_26,2021-11-04T11:59:12.058Z,,,,,,,,,,,,,,,,2,,,,,,,,,,,,,,429.320000000007,,response,,,1,F,,,,,Space,keypress(Space),,,,instrumental,--- ---- ------ --- ------- ---------- ------- ----------<br>--- --------- --- ----------- ------- ----- ------- ---<br>--------- ---- -- --- ---- -- --------- -- ---- -------<br>of --------- ------ --- ----- ------ ---- --- --------- --<br>------ - ---- -- --- ----------- ------- ---- ----- -----<br>--- -------- - ------ ---- -- ----- ---- --- --- -----------<br>-- -------,217984.29999999888,217983.5,217537.51,217552.5,217554.18,217987.803,,26,of
screen,html.Screen,0_4_1_0_1_27,2021-11-04T11:59:13.218Z,,,,,,,,,,,,,,,,2,,,,,,,,,,,,,,1155.6969999999856,,response,,,1,F,,,,,Space,keypress(Space),,,,instrumental,--- ---- ------ --- ------- ---------- ------- ----------<br>--- --------- --- ----------- ------- ----- ------- ---<br>--------- ---- -- --- ---- -- --------- -- ---- -------<br>-- intensely ------ --- ----- ------ ---- --- --------- --<br>------ - ---- -- --- ----------- ------- ---- ----- -----<br>--- -------- - ------ ---- -- ----- ---- --- --- -----------<br>-- -------,219144.29999999888,219143.5,217971.131,217984.59999999963,217987.803,219154.631,,27,intensely
screen,html.Screen,0_4_1_0_1_28,2021-11-04T11:59:13.730Z,,,,,,,,,,,,,,,,2,,,,,,,,,,,,,,500.86900000000605,,response,,,1,F,,,,,Space,keypress(Space),,,,instrumental,--- ---- ------ --- ------- ---------- ------- ----------<br>--- --------- --- ----------- ------- ----- ------- ---<br>--------- ---- -- --- ---- -- --------- -- ---- -------<br>-- --------- bright --- ----- ------ ---- --- --------- --<br>------ - ---- -- --- ----------- ------- ---- ----- -----<br>--- -------- - ------ ---- -- ----- ---- --- --- -----------<br>-- -------,219656.29999999888,219655.5,219137.961,219144.5,219154.631,219671.292,,28,bright
screen,html.Screen,0_4_1_0_1_29,2021-11-04T11:59:14.290Z,,,,,,,,,,,,,,,,2,,,,,,,,,,,,,,544.1079999985232,,response,,,1,F,,,,,Space,keypress(Space),,,,instrumental,--- ---- ------ --- ------- ---------- ------- ----------<br>--- --------- --- ----------- ------- ----- ------- ---<br>--------- ---- -- --- ---- -- --------- -- ---- -------<br>-- --------- ------ and ----- ------ ---- --- --------- --<br>------ - ---- -- --- ----------- ------- ---- ----- -----<br>--- -------- - ------ ---- -- ----- ---- --- --- -----------<br>-- -------,220216.19999999925,220215.3999999985,219654.623,219656.3999999985,219671.292,220221.625,,29,and
screen,html.Screen,0_4_1_0_1_30,2021-11-04T11:59:14.834Z,,,,,,,,,,,,,,,,2,,,,,,,,,,,,,,537.7749999985099,,response,,,1,F,,,,,Space,keypress(Space),,,,instrumental,--- ---- ------ --- ------- ---------- ------- ----------<br>--- --------- --- ----------- ------- ----- ------- ---<br>--------- ---- -- --- ---- -- --------- -- ---- -------<br>-- --------- ------ --- white ------ ---- --- --------- --<br>------ - ---- -- --- ----------- ------- ---- ----- -----<br>--- -------- - ------ ---- -- ----- ---- --- --- -----------<br>-- -------,220760.19999999925,220759.3999999985,220204.954,220216.3999999985,220221.625,220771.793,,30,white
screen,html.Screen,0_4_1_0_1_31,2021-11-04T11:59:16.641Z,,,,,,,,,,,,,,,,2,,,,,,,,,,,,,,1795.5069999988773,,response,,,1,F,,,,,Space,keypress(Space),,,,instrumental,"--- ---- ------ --- ------- ---------- ------- ----------<br>--- --------- --- ----------- ------- ----- ------- ---<br>--------- ---- -- --- ---- -- --------- -- ---- -------<br>-- --------- ------ --- ----- light"" ---- --- --------- --<br>------ - ---- -- --- ----------- ------- ---- ----- -----<br>--- -------- - ------ ---- -- ----- ---- --- --- -----------<br>-- -------",222568.09999999963,222567.29999999888,220755.122,220760.3999999985,220771.793,222572.313,,31,"light"""
screen,html.Screen,0_4_1_0_1_32,2021-11-04T11:59:17.202Z,,,,,,,,,,,,,,,,2,,,,,,,,,,,,,,554.9869999988878,,response,,,1,F,,,,,Space,keypress(Space),,,,instrumental,--- ---- ------ --- ------- ---------- ------- ----------<br>--- --------- --- ----------- ------- ----- ------- ---<br>--------- ---- -- --- ---- -- --------- -- ---- -------<br>-- --------- ------ --- ----- ------ over --- --------- --<br>------ - ---- -- --- ----------- ------- ---- ----- -----<br>--- -------- - ------ ---- -- ----- ---- --- --- -----------<br>-- -------,223128.09999999963,223127.29999999888,222555.642,222568.29999999888,222572.313,223139.11,,32,over
screen,html.Screen,0_4_1_0_1_33,2021-11-04T11:59:17.665Z,,,,,,,,,,,,,,,,2,,,,,,,,,,,,,,452.0899999992689,,response,,,1,F,,,,,Space,keypress(Space),,,,instrumental,--- ---- ------ --- ------- ---------- ------- ----------<br>--- --------- --- ----------- ------- ----- ------- ---<br>--------- ---- -- --- ---- -- --------- -- ---- -------<br>-- --------- ------ --- ----- ------ ---- the --------- --<br>------ - ---- -- --- ----------- ------- ---- ----- -----<br>--- -------- - ------ ---- -- ----- ---- --- --- -----------<br>-- -------,223592,223591.19999999925,223122.439,223128.29999999888,223139.11,223605.909,,33,the
screen,html.Screen,0_4_1_0_1_34,2021-11-04T11:59:18.466Z,,,,,,,,,,,,,,,,2,,,,,,,,,,,,,,785.5909999999858,,response,,,1,F,,,,,Space,keypress(Space),,,,instrumental,--- ---- ------ --- ------- ---------- ------- ----------<br>--- --------- --- ----------- ------- ----- ------- ---<br>--------- ---- -- --- ---- -- --------- -- ---- -------<br>-- --------- ------ --- ----- ------ ---- --- sunspots. --<br>------ - ---- -- --- ----------- ------- ---- ----- -----<br>--- -------- - ------ ---- -- ----- ---- --- --- -----------<br>-- -------,224392.29999999888,224391.5,223589.238,223592.19999999925,223605.909,224406.138,,34,sunspots.
screen,html.Screen,0_4_1_0_1_35,2021-11-04T11:59:18.985Z,,,,,,,,,,,,,,,,2,,,,,,,,,,,,,,504.9619999996212,,response,,,1,F,,,,,Space,keypress(Space),,,,instrumental,--- ---- ------ --- ------- ---------- ------- ----------<br>--- --------- --- ----------- ------- ----- ------- ---<br>--------- ---- -- --- ---- -- --------- -- ---- -------<br>-- --------- ------ --- ----- ------ ---- --- --------- He<br>------ - ---- -- --- ----------- ------- ---- ----- -----<br>--- -------- - ------ ---- -- ----- ---- --- --- -----------<br>-- -------,224911.8999999985,224911.09999999963,224389.467,224392.59999999963,224406.138,224922.935,,35,He
screen,html.Screen,0_4_1_0_1_36,2021-11-04T11:59:19.929Z,,,,,,,,,,,,,,,,2,,,,,,,,,,,,,,932.2649999992573,,response,,,1,F,,,,,Space,keypress(Space),,,,instrumental,--- ---- ------ --- ------- ---------- ------- ----------<br>--- --------- --- ----------- ------- ----- ------- ---<br>--------- ---- -- --- ---- -- --------- -- ---- -------<br>-- --------- ------ --- ----- ------ ---- --- --------- --<br>jotted - ---- -- --- ----------- ------- ---- ----- -----<br>--- -------- - ------ ---- -- ----- ---- --- --- -----------<br>-- -------,225855.8999999985,225855.19999999925,224906.264,224912.19999999925,224922.935,225873.193,,36,jotted
screen,html.Screen,0_4_1_0_1_37,2021-11-04T11:59:20.353Z,,,,,,,,,,,,,,,,2,,,,,,,,,,,,,,406.00699999925564,,response,,,1,F,,,,,Space,keypress(Space),,,,instrumental,--- ---- ------ --- ------- ---------- ------- ----------<br>--- --------- --- ----------- ------- ----- ------- ---<br>--------- ---- -- --- ---- -- --------- -- ---- -------<br>-- --------- ------ --- ----- ------ ---- --- --------- --<br>------ a ---- -- --- ----------- ------- ---- ----- -----<br>--- -------- - ------ ---- -- ----- ---- --- --- -----------<br>-- -------,226280,226279.19999999925,225856.522,225856.19999999925,225873.193,226289.922,,37,a
screen,html.Screen,0_4_1_0_1_38,2021-11-04T11:59:20.785Z,,,,,,,,,,,,,,,,2,,,,,,,,,,,,,,421.1779999996361,,response,,,1,F,,,,,Space,keypress(Space),,,,instrumental,--- ---- ------ --- ------- ---------- ------- ----------<br>--- --------- --- ----------- ------- ----- ------- ---<br>--------- ---- -- --- ---- -- --------- -- ---- -------<br>-- --------- ------ --- ----- ------ ---- --- --------- --<br>------ - note -- --- ----------- ------- ---- ----- -----<br>--- -------- - ------ ---- -- ----- ---- --- --- -----------<br>-- -------,226711.8999999985,226711.09999999963,226273.252,226280.19999999925,226289.922,226723.345,,38,note
screen,html.Screen,0_4_1_0_1_39,2021-11-04T11:59:21.169Z,,,,,,,,,,,,,,,,2,,,,,,,,,,,,,,371.8549999992538,,response,,,1,F,,,,,Space,keypress(Space),,,,instrumental,--- ---- ------ --- ------- ---------- ------- ----------<br>--- --------- --- ----------- ------- ----- ------- ---<br>--------- ---- -- --- ---- -- --------- -- ---- -------<br>-- --------- ------ --- ----- ------ ---- --- --------- --<br>------ - ---- in --- ----------- ------- ---- ----- -----<br>--- -------- - ------ ---- -- ----- ---- --- --- -----------<br>-- -------,227095.8999999985,227095.19999999925,226706.675,226712.09999999963,226723.345,227106.917,,39,in
screen,html.Screen,0_4_1_0_1_40,2021-11-04T11:59:21.537Z,,,,,,,,,,,,,,,,2,,,,,,,,,,,,,,356.18299999964074,,response,,,1,F,,,,,Space,keypress(Space),,,,instrumental,--- ---- ------ --- ------- ---------- ------- ----------<br>--- --------- --- ----------- ------- ----- ------- ---<br>--------- ---- -- --- ---- -- --------- -- ---- -------<br>-- --------- ------ --- ----- ------ ---- --- --------- --<br>------ - ---- -- his ----------- ------- ---- ----- -----<br>--- -------- - ------ ---- -- ----- ---- --- --- -----------<br>-- -------,227463.8999999985,227463.09999999963,227090.245,227096.09999999963,227106.917,227473.492,,40,his
screen,html.Screen,0_4_1_0_1_41,2021-11-04T11:59:22.809Z,,,,,,,,,,,,,,,,2,,,,,,,,,,,,,,1261.607999999629,,response,,,1,F,,,,,Space,keypress(Space),,,,instrumental,--- ---- ------ --- ------- ---------- ------- ----------<br>--- --------- --- ----------- ------- ----- ------- ---<br>--------- ---- -- --- ---- -- --------- -- ---- -------<br>-- --------- ------ --- ----- ------ ---- --- --------- --<br>------ - ---- -- --- painstaking ------- ---- ----- -----<br>--- -------- - ------ ---- -- ----- ---- --- --- -----------<br>-- -------,228735.79999999888,228735.09999999963,227456.823,227464.09999999963,227473.492,228740.818,,41,painstaking
screen,html.Screen,0_4_1_0_1_42,2021-11-04T11:59:23.425Z,,,,,,,,,,,,,,,,2,,,,,,,,,,,,,,610.1820000000007,,response,,,1,F,,,,,Space,keypress(Space),,,,instrumental,--- ---- ------ --- ------- ---------- ------- ----------<br>--- --------- --- ----------- ------- ----- ------- ---<br>--------- ---- -- --- ---- -- --------- -- ---- -------<br>-- --------- ------ --- ----- ------ ---- --- --------- --<br>------ - ---- -- --- ----------- record. ---- ----- -----<br>--- -------- - ------ ---- -- ----- ---- --- --- -----------<br>-- -------,229351.69999999925,229351,228724.145,228736.09999999963,228740.818,229357.144,,42,record.
screen,html.Screen,0_4_1_0_1_43,2021-11-04T11:59:24.017Z,,,,,,,,,,,,,,,,2,,,,,,,,,,,,,,585.8559999999998,,response,,,1,F,,,,,Space,keypress(Space),,,,instrumental,--- ---- ------ --- ------- ---------- ------- ----------<br>--- --------- --- ----------- ------- ----- ------- ---<br>--------- ---- -- --- ---- -- --------- -- ---- -------<br>-- --------- ------ --- ----- ------ ---- --- --------- --<br>------ - ---- -- --- ----------- ------- That ----- -----<br>--- -------- - ------ ---- -- ----- ---- --- --- -----------<br>-- -------,229943.79999999888,229943,229340.476,229352,229357.144,229957.639,,43,That
screen,html.Screen,0_4_1_0_1_44,2021-11-04T11:59:24.529Z,,,,,,,,,,,,,,,,2,,,,,,,,,,,,,,497.3610000000044,,response,,,1,F,,,,,Space,keypress(Space),,,,instrumental,--- ---- ------ --- ------- ---------- ------- ----------<br>--- --------- --- ----------- ------- ----- ------- ---<br>--------- ---- -- --- ---- -- --------- -- ---- -------<br>-- --------- ------ --- ----- ------ ---- --- --------- --<br>------ - ---- -- --- ----------- ------- ---- night -----<br>--- -------- - ------ ---- -- ----- ---- --- --- -----------<br>-- -------,230455.79999999888,230455,229940.968,229944.09999999963,229957.639,230457.659,,44,night
screen,html.Screen,0_4_1_0_1_45,2021-11-04T11:59:25.009Z,,,,,,,,,,,,,,,,2,,,,,,,,,,,,,,477.2409999984957,,response,,,1,F,,,,,Space,keypress(Space),,,,instrumental,--- ---- ------ --- ------- ---------- ------- ----------<br>--- --------- --- ----------- ------- ----- ------- ---<br>--------- ---- -- --- ---- -- --------- -- ---- -------<br>-- --------- ------ --- ----- ------ ---- --- --------- --<br>------ - ---- -- --- ----------- ------- ---- ----- there<br>--- -------- - ------ ---- -- ----- ---- --- --- -----------<br>-- -------,230935.69999999925,230934.8999999985,230440.989,230456.09999999963,230457.659,230941.286,,45,there
screen,html.Screen,0_4_1_0_1_46,2021-11-04T11:59:25.433Z,,,,,,,,,,,,,,,,2,,,,,,,,,,,,,,417.51399999888963,,response,,,1,F,,,,,Space,keypress(Space),,,,instrumental,--- ---- ------ --- ------- ---------- ------- ----------<br>--- --------- --- ----------- ------- ----- ------- ---<br>--------- ---- -- --- ---- -- --------- -- ---- -------<br>-- --------- ------ --- ----- ------ ---- --- --------- --<br>------ - ---- -- --- ----------- ------- ---- ----- -----<br>was -------- - ------ ---- -- ----- ---- --- --- -----------<br>-- -------,231359.59999999963,231358.79999999888,230924.614,230935.8999999985,230941.286,231374.676,,46,was
screen,html.Screen,0_4_1_0_1_47,2021-11-04T11:59:26.465Z,,,,,,,,,,,,,,,,2,,,,,,,,,,,,,,1016.1239999988757,,response,,,1,F,,,,,Space,keypress(Space),,,,instrumental,--- ---- ------ --- ------- ---------- ------- ----------<br>--- --------- --- ----------- ------- ----- ------- ---<br>--------- ---- -- --- ---- -- --------- -- ---- -------<br>-- --------- ------ --- ----- ------ ---- --- --------- --<br>------ - ---- -- --- ----------- ------- ---- ----- -----<br>--- scarcely - ------ ---- -- ----- ---- --- --- -----------<br>-- -------,232391.59999999963,232390.79999999888,231358.005,231359.8999999985,231374.676,232408.286,,47,scarcely
screen,html.Screen,0_4_1_0_1_48,2021-11-04T11:59:26.905Z,,,,,,,,,,,,,,,,2,,,,,,,,,,,,,,422.51399999888963,,response,,,1,F,,,,,Space,keypress(Space),,,,instrumental,--- ---- ------ --- ------- ---------- ------- ----------<br>--- --------- --- ----------- ------- ----- ------- ---<br>--------- ---- -- --- ---- -- --------- -- ---- -------<br>-- --------- ------ --- ----- ------ ---- --- --------- --<br>------ - ---- -- --- ----------- ------- ---- ----- -----<br>--- -------- a ------ ---- -- ----- ---- --- --- -----------<br>-- -------,232831.59999999963,232830.79999999888,232391.615,232391.8999999985,232408.286,232841.586,,48,a
