sender,sender_type,sender_id,timestamp,meta,,Blues,Classical,Country,Dance,Electronic,Folk,Gospel,Hip-Hop,Jazz,Latin,Musical/Film,New-age,Pop,Provo_ID,R&B,Rap,Reggae,Religious,Rock,Soul,Swing,Traditional,age,artist_name,correct,correctResponse,distraction,duration,education,ended_on,familiarity,gender,item,list,music_frequency,offensiveness,pleasantness,preference,response,response_action,snippet_file,song_name,song_rating,sound,text,time_commit,time_end,time_render,time_run,time_show,time_switch,url,word,word_ID
Instructions,html.Page,0_0,2021-11-05T12:26:21.188Z,"{""labjs_version"":""20.2.3"",""labjs_build"":{""flavor"":""production"",""commit"":""7ea907d66ca8aeef8054924ca5d82ffbe11e34e5""},""location"":""https://run.pavlovia.org/mvasilev/lab_music_b/"",""userAgent"":""Mozilla/5.0 (Windows NT 6.1; Win64; x64) AppleWebKit/537.36 (KHTML, like Gecko) Chrome/95.0.4638.69 Safari/537.36"",""platform"":""Win32"",""language"":""en-US"",""locale"":""en-US"",""timeZone"":""Europe/London"",""timezoneOffset"":0,""screen_width"":1920,""screen_height"":1080,""scroll_width"":1920,""scroll_height"":959,""window_innerWidth"":1920,""window_innerHeight"":1007,""devicePixelRatio"":1}",,,,,,,,,,,,,,,,,,,,,,,,,,,,,19444.65599999106,,form submission,,,,,,,,,,,,,,,,36054.20000000298,36052.89999999106,16591.577,16598.89999999106,16608.244,36047.055,{},,
Headphones,html.Page,0_1,2021-11-05T12:26:23.941Z,,,,,,,,,,,,,,,,,,,,,,,,,,,,,,2760.14500000298,,form submission,,,,,,,,,,,,,,,,38807.70000000298,38807.20000000298,36030.383,36054.89999999106,36047.055,38814.377,,,
Holding screen,html.Screen,0_2_0_0,2021-11-05T12:26:33.940Z,,,,,,,,,,,,,,,,,,,,,,,,,,,,,,10002.421999999999,,timeout,,,,,,,,,,,,,,,,48806.20000000298,48800.129,38797.707,38808.20000000298,38814.377,48816.799,,,
screen,html.Screen,0_2_0_1_0,2021-11-05T12:26:34.565Z,,,,,,,,,,,,,,,,53,,,,,,,,,,,,,,613.0009999970207,,response,,,99,,,,,,Space,keypress(Space),,,,,When -- ----- -- ------ - ------- --- ----------<br>------------- ------ ------ ---- ---- ------- ----- -- ----<br>-------- ------- -- ---------- --- - --- ----- ----- ----<br>---- --- --- ----- --- ---- ---- ------- ----- ---- -------<br>--- --- -- ----- -- --- ---- -- --- ---- -- ------ ------<br>--- ----- -- ----,49431.09999999404,49429.79999999702,48800.129,48806.59999999404,48816.799,49433.759,,0,When
screen,html.Screen,0_2_0_1_1,2021-11-05T12:26:34.996Z,,,,,,,,,,,,,,,,53,,,,,,,,,,,,,,427.5409999970216,,response,,,99,,,,,,Space,keypress(Space),,,,,---- it ----- -- ------ - ------- --- ----------<br>------------- ------ ------ ---- ---- ------- ----- -- ----<br>-------- ------- -- ---------- --- - --- ----- ----- ----<br>---- --- --- ----- --- ---- ---- ------- ----- ---- -------<br>--- --- -- ----- -- --- ---- -- --- ---- -- ------ ------<br>--- ----- -- ----,49862.20000000298,49861.29999999702,49417.088,49431.5,49433.759,49867.146,,1,it
screen,html.Screen,0_2_0_1_2,2021-11-05T12:26:35.476Z,,,,,,,,,,,,,,,,53,,,,,,,,,,,,,,474.0540000029796,,response,,,99,,,,,,Space,keypress(Space),,,,,---- -- comes -- ------ - ------- --- ----------<br>------------- ------ ------ ---- ---- ------- ----- -- ----<br>-------- ------- -- ---------- --- - --- ----- ----- ----<br>---- --- --- ----- --- ---- ---- ------- ----- ---- -------<br>--- --- -- ----- -- --- ---- -- --- ---- -- ------ ------<br>--- ----- -- ----,50342.09999999404,50341.20000000298,49850.476,49862.59999999404,49867.146,50350.658,,2,comes
screen,html.Screen,0_2_0_1_3,2021-11-05T12:26:35.924Z,,,,,,,,,,,,,,,,53,,,,,,,,,,,,,,438.6419999970167,,response,,,99,,,,,,Space,keypress(Space),,,,,---- -- ----- to ------ - ------- --- ----------<br>------------- ------ ------ ---- ---- ------- ----- -- ----<br>-------- ------- -- ---------- --- - --- ----- ----- ----<br>---- --- --- ----- --- ---- ---- ------- ----- ---- -------<br>--- --- -- ----- -- --- ---- -- --- ---- -- ------ ------<br>--- ----- -- ----,50790.29999999702,50789.29999999702,50333.987,50342.39999999106,50350.658,50800.577,,3,to
screen,html.Screen,0_2_0_1_4,2021-11-05T12:26:36.444Z,,,,,,,,,,,,,,,,53,,,,,,,,,,,,,,508.72299999702227,,response,,,99,,,,,,Space,keypress(Space),,,,,---- -- ----- -- having - ------- --- ----------<br>------------- ------ ------ ---- ---- ------- ----- -- ----<br>-------- ------- -- ---------- --- - --- ----- ----- ----<br>---- --- --- ----- --- ---- ---- ------- ----- ---- -------<br>--- --- -- ----- -- --- ---- -- --- ---- -- ------ ------<br>--- ----- -- ----,51310.5,51309.29999999702,50783.909,50790.70000000298,50800.577,51317.617,,4,having
screen,html.Screen,0_2_0_1_5,2021-11-05T12:26:36.916Z,,,,,,,,,,,,,,,,53,,,,,,,,,,,,,,463.48299999404117,,response,,,99,,,,,,Space,keypress(Space),,,,,---- -- ----- -- ------ a ------- --- ----------<br>------------- ------ ------ ---- ---- ------- ----- -- ----<br>-------- ------- -- ---------- --- - --- ----- ----- ----<br>---- --- --- ----- --- ---- ---- ------- ----- ---- -------<br>--- --- -- ----- -- --- ---- -- --- ---- -- ------ ------<br>--- ----- -- ----,51782,51781.09999999404,51300.945,51310.79999999702,51317.617,51784.348,,5,a
screen,html.Screen,0_2_0_1_6,2021-11-05T12:26:37.428Z,,,,,,,,,,,,,,,,53,,,,,,,,,,,,,,508.8520000029821,,response,,,99,,,,,,Space,keypress(Space),,,,,---- -- ----- -- ------ - lasting --- ----------<br>------------- ------ ------ ---- ---- ------- ----- -- ----<br>-------- ------- -- ---------- --- - --- ----- ----- ----<br>---- --- --- ----- --- ---- ---- ------- ----- ---- -------<br>--- --- -- ----- -- --- ---- -- --- ---- -- ------ ------<br>--- ----- -- ----,52294.20000000298,52293.20000000298,51767.677,51782.5,51784.348,52301.104,,6,lasting
screen,html.Screen,0_2_0_1_7,2021-11-05T12:26:37.900Z,,,,,,,,,,,,,,,,53,,,,,,,,,,,,,,464.0960000029809,,response,,,99,,,,,,Space,keypress(Space),,,,,---- -- ----- -- ------ - ------- and ----------<br>------------- ------ ------ ---- ---- ------- ----- -- ----<br>-------- ------- -- ---------- --- - --- ----- ----- ----<br>---- --- --- ----- --- ---- ---- ------- ----- ---- -------<br>--- --- -- ----- -- --- ---- -- --- ---- -- ------ ------<br>--- ----- -- ----,52766.09999999404,52765.20000000298,52284.434,52294.5,52301.104,52767.93,,7,and
screen,html.Screen,0_2_0_1_8,2021-11-05T12:26:38.548Z,,,,,,,,,,,,,,,,53,,,,,,,,,,,,,,645.1699999940392,,response,,,99,,,,,,Space,keypress(Space),,,,,---- -- ----- -- ------ - ------- --- fulfilling<br>------------- ------ ------ ---- ---- ------- ----- -- ----<br>-------- ------- -- ---------- --- - --- ----- ----- ----<br>---- --- --- ----- --- ---- ---- ------- ----- ---- -------<br>--- --- -- ----- -- --- ---- -- --- ---- -- ------ ------<br>--- ----- -- ----,53414.20000000298,53413.09999999404,52751.259,52766.39999999106,52767.93,53417.94,,8,fulfilling
screen,html.Screen,0_2_0_1_9,2021-11-05T12:26:39.044Z,,,,,,,,,,,,,,,,53,,,,,,,,,,,,,,491.1599999940372,,response,,,99,,,,,,Space,keypress(Space),,,,,"---- -- ----- -- ------ - ------- --- ----------<br>relationship, ------ ------ ---- ---- ------- ----- -- ----<br>-------- ------- -- ---------- --- - --- ----- ----- ----<br>---- --- --- ----- --- ---- ---- ------- ----- ---- -------<br>--- --- -- ----- -- --- ---- -- --- ---- -- ------ ------<br>--- ----- -- ----",53910,53909.09999999404,53401.271,53414.5,53417.94,53918.246,,9,"relationship,"
screen,html.Screen,0_2_0_1_10,2021-11-05T12:26:40.059Z,,,,,,,,,,,,,,,,53,,,,,,,,,,,,,,1006.7540000000008,,response,,,99,,,,,,Space,keypress(Space),,,,,---- -- ----- -- ------ - ------- --- ----------<br>------------- common ------ ---- ---- ------- ----- -- ----<br>-------- ------- -- ---------- --- - --- ----- ----- ----<br>---- --- --- ----- --- ---- ---- ------- ----- ---- -------<br>--- --- -- ----- -- --- ---- -- --- ---- -- ------ ------<br>--- ----- -- ----,54926,54925,53901.575,53910.20000000298,53918.246,54935.066,,10,common
screen,html.Screen,0_2_0_1_11,2021-11-05T12:26:40.803Z,,,,,,,,,,,,,,,,53,,,,,,,,,,,,,,734.0339999940406,,response,,,99,,,,,,Space,keypress(Space),,,,,---- -- ----- -- ------ - ------- --- ----------<br>------------- ------ wisdom ---- ---- ------- ----- -- ----<br>-------- ------- -- ---------- --- - --- ----- ----- ----<br>---- --- --- ----- --- ---- ---- ------- ----- ---- -------<br>--- --- -- ----- -- --- ---- -- --- ---- -- ------ ------<br>--- ----- -- ----,55669.89999999106,55669.09999999404,54918.396,54926.20000000298,54935.066,55685.215,,11,wisdom
screen,html.Screen,0_2_0_1_12,2021-11-05T12:26:41.347Z,,,,,,,,,,,,,,,,53,,,,,,,,,,,,,,527.7850000000035,,response,,,99,,,,,,Space,keypress(Space),,,,,---- -- ----- -- ------ - ------- --- ----------<br>------------- ------ ------ says ---- ------- ----- -- ----<br>-------- ------- -- ---------- --- - --- ----- ----- ----<br>---- --- --- ----- --- ---- ---- ------- ----- ---- -------<br>--- --- -- ----- -- --- ---- -- --- ---- -- ------ ------<br>--- ----- -- ----,56213.79999999702,56213,55668.545,55670.20000000298,55685.215,56218.698,,12,says
screen,html.Screen,0_2_0_1_13,2021-11-05T12:26:42.139Z,,,,,,,,,,,,,,,,53,,,,,,,,,,,,,,786.3020000000033,,response,,,99,,,,,,Space,keypress(Space),,,,,---- -- ----- -- ------ - ------- --- ----------<br>------------- ------ ------ ---- that ------- ----- -- ----<br>-------- ------- -- ---------- --- - --- ----- ----- ----<br>---- --- --- ----- --- ---- ---- ------- ----- ---- -------<br>--- --- -- ----- -- --- ---- -- --- ---- -- ------ ------<br>--- ----- -- ----,57005.79999999702,57005,56202.028,56214.09999999404,56218.698,57018.99,,13,that
screen,html.Screen,0_2_0_1_14,2021-11-05T12:26:42.683Z,,,,,,,,,,,,,,,,53,,,,,,,,,,,,,,529.9099999910613,,response,,,99,,,,,,Space,keypress(Space),,,,,---- -- ----- -- ------ - ------- --- ----------<br>------------- ------ ------ ---- ---- feeling ----- -- ----<br>-------- ------- -- ---------- --- - --- ----- ----- ----<br>---- --- --- ----- --- ---- ---- ------- ----- ---- -------<br>--- --- -- ----- -- --- ---- -- --- ---- -- ------ ------<br>--- ----- -- ----,57549.70000000298,57548.89999999106,57002.319,57006,57018.99,57552.458,,14,feeling
screen,html.Screen,0_2_0_1_15,2021-11-05T12:26:43.211Z,,,,,,,,,,,,,,,,53,,,,,,,,,,,,,,524.4419999910606,,response,,,99,,,,,,Space,keypress(Space),,,,,---- -- ----- -- ------ - ------- --- ----------<br>------------- ------ ------ ---- ---- ------- close -- ----<br>-------- ------- -- ---------- --- - --- ----- ----- ----<br>---- --- --- ----- --- ---- ---- ------- ----- ---- -------<br>--- --- -- ----- -- --- ---- -- --- ---- -- ------ ------<br>--- ----- -- ----,58077.70000000298,58076.89999999106,57535.787,57550,57552.458,58085.862,,15,close
screen,html.Screen,0_2_0_1_16,2021-11-05T12:26:43.683Z,,,,,,,,,,,,,,,,53,,,,,,,,,,,,,,462.9379999970188,,response,,,99,,,,,,Space,keypress(Space),,,,,---- -- ----- -- ------ - ------- --- ----------<br>------------- ------ ------ ---- ---- ------- ----- to ----<br>-------- ------- -- ---------- --- - --- ----- ----- ----<br>---- --- --- ----- --- ---- ---- ------- ----- ---- -------<br>--- --- -- ----- -- --- ---- -- --- ---- -- ------ ------<br>--- ----- -- ----,58549.59999999404,58548.79999999702,58069.192,58077.89999999106,58085.862,58552.654,,16,to
screen,html.Screen,0_2_0_1_17,2021-11-05T12:26:44.179Z,,,,,,,,,,,,,,,,53,,,,,,,,,,,,,,492.1459999970175,,response,,,99,,,,,,Space,keypress(Space),,,,,---- -- ----- -- ------ - ------- --- ----------<br>------------- ------ ------ ---- ---- ------- ----- -- your<br>-------- ------- -- ---------- --- - --- ----- ----- ----<br>---- --- --- ----- --- ---- ---- ------- ----- ---- -------<br>--- --- -- ----- -- --- ---- -- --- ---- -- ------ ------<br>--- ----- -- ----,59045.5,59044.79999999702,58535.984,58549.89999999106,58552.654,59052.78,,17,your
screen,html.Screen,0_2_0_1_18,2021-11-05T12:26:44.563Z,,,,,,,,,,,,,,,,53,,,,,,,,,,,,,,375.9200000029814,,response,,,99,,,,,,Space,keypress(Space),,,,,---- -- ----- -- ------ - ------- --- ----------<br>------------- ------ ------ ---- ---- ------- ----- -- ----<br>romantic ------- -- ---------- --- - --- ----- ----- ----<br>---- --- --- ----- --- ---- ---- ------- ----- ---- -------<br>--- --- -- ----- -- --- ---- -- --- ---- -- ------ ------<br>--- ----- -- ----,59429.5,59428.70000000298,59036.11,59045.89999999106,59052.78,59436.22,,18,romantic
screen,html.Screen,0_2_0_1_19,2021-11-05T12:26:44.955Z,,,,,,,,,,,,,,,,53,,,,,,,,,,,,,,384.77999999999884,,response,,,99,,,,,,Space,keypress(Space),,,,,---- -- ----- -- ------ - ------- --- ----------<br>------------- ------ ------ ---- ---- ------- ----- -- ----<br>-------- partner -- ---------- --- - --- ----- ----- ----<br>---- --- --- ----- --- ---- ---- ------- ----- ---- -------<br>--- --- -- ----- -- --- ---- -- --- ---- -- ------ ------<br>--- ----- -- ----,59821.79999999702,59821,59419.55,59429.79999999702,59436.22,59836.318,,19,partner
screen,html.Screen,0_2_0_1_20,2021-11-05T12:26:45.375Z,,,,,,,,,,,,,,,,53,,,,,,,,,,,,,,400.38200000298093,,response,,,99,,,,,,Space,keypress(Space),,,,,---- -- ----- -- ------ - ------- --- ----------<br>------------- ------ ------ ---- ---- ------- ----- -- ----<br>-------- ------- is ---------- --- - --- ----- ----- ----<br>---- --- --- ----- --- ---- ---- ------- ----- ---- -------<br>--- --- -- ----- -- --- ---- -- --- ---- -- ------ ------<br>--- ----- -- ----,60237.5,60236.70000000298,59819.648,59822.09999999404,59836.318,60253.074,,20,is
screen,html.Screen,0_2_0_1_21,2021-11-05T12:26:45.767Z,,,,,,,,,,,,,,,,53,,,,,,,,,,,,,,375.525999994039,,response,,,99,,,,,,Space,keypress(Space),,,,,---- -- ----- -- ------ - ------- --- ----------<br>------------- ------ ------ ---- ---- ------- ----- -- ----<br>-------- ------- -- paramount. --- - --- ----- ----- ----<br>---- --- --- ----- --- ---- ---- ------- ----- ---- -------<br>--- --- -- ----- -- --- ---- -- --- ---- -- ------ ------<br>--- ----- -- ----,60629.5,60628.59999999404,60236.404,60237.79999999702,60253.074,60636.382,,21,paramount.
screen,html.Screen,0_2_0_1_22,2021-11-05T12:26:46.567Z,,,,,,,,,,,,,,,,53,,,,,,,,,,,,,,792.3180000029824,,response,,,99,,,,,,Space,keypress(Space),,,,,---- -- ----- -- ------ - ------- --- ----------<br>------------- ------ ------ ---- ---- ------- ----- -- ----<br>-------- ------- -- ---------- But - --- ----- ----- ----<br>---- --- --- ----- --- ---- ---- ------- ----- ---- -------<br>--- --- -- ----- -- --- ---- -- --- ---- -- ------ ------<br>--- ----- -- ----,61429.5,61428.70000000298,60619.714,60630,60636.382,61436.841,,22,But
screen,html.Screen,0_2_0_1_23,2021-11-05T12:26:47.351Z,,,,,,,,,,,,,,,,53,,,,,,,,,,,,,,775.7589999940392,,response,,,99,,,,,,Space,keypress(Space),,,,,---- -- ----- -- ------ - ------- --- ----------<br>------------- ------ ------ ---- ---- ------- ----- -- ----<br>-------- ------- -- ---------- --- a --- ----- ----- ----<br>---- --- --- ----- --- ---- ---- ------- ----- ---- -------<br>--- --- -- ----- -- --- ---- -- --- ---- -- ------ ------<br>--- ----- -- ----,62213.39999999106,62212.59999999404,61420.169,61429.70000000298,61436.841,62220.189,,23,a
screen,html.Screen,0_2_0_1_24,2021-11-05T12:26:47.767Z,,,,,,,,,,,,,,,,53,,,,,,,,,,,,,,408.41099999404105,,response,,,99,,,,,,Space,keypress(Space),,,,,---- -- ----- -- ------ - ------- --- ----------<br>------------- ------ ------ ---- ---- ------- ----- -- ----<br>-------- ------- -- ---------- --- - new ----- ----- ----<br>---- --- --- ----- --- ---- ---- ------- ----- ---- -------<br>--- --- -- ----- -- --- ---- -- --- ---- -- ------ ------<br>--- ----- -- ----,62629.39999999106,62628.59999999404,62203.519,62213.59999999404,62220.189,62637.005,,24,new
screen,html.Screen,0_2_0_1_25,2021-11-05T12:26:48.679Z,,,,,,,,,,,,,,,,53,,,,,,,,,,,,,,903.3949999910619,,response,,,99,,,,,,Space,keypress(Space),,,,,---- -- ----- -- ------ - ------- --- ----------<br>------------- ------ ------ ---- ---- ------- ----- -- ----<br>-------- ------- -- ---------- --- - --- study ----- ----<br>---- --- --- ----- --- ---- ---- ------- ----- ---- -------<br>--- --- -- ----- -- --- ---- -- --- ---- -- ------ ------<br>--- ----- -- ----,63541.39999999106,63540.39999999106,62620.335,62629.59999999404,62637.005,63553.879,,25,study
screen,html.Screen,0_2_0_1_26,2021-11-05T12:26:49.479Z,,,,,,,,,,,,,,,,53,,,,,,,,,,,,,,786.5209999910585,,response,,,99,,,,,,Space,keypress(Space),,,,,---- -- ----- -- ------ - ------- --- ----------<br>------------- ------ ------ ---- ---- ------- ----- -- ----<br>-------- ------- -- ---------- --- - --- ----- finds ----<br>---- --- --- ----- --- ---- ---- ------- ----- ---- -------<br>--- --- -- ----- -- --- ---- -- --- ---- -- ------ ------<br>--- ----- -- ----,64341.29999999702,64340.39999999106,63537.209,63541.59999999404,63553.879,64353.922,,26,finds
screen,html.Screen,0_2_0_1_27,2021-11-05T12:26:50.023Z,,,,,,,,,,,,,,,,53,,,,,,,,,,,,,,530.4779999910606,,response,,,99,,,,,,Space,keypress(Space),,,,,---- -- ----- -- ------ - ------- --- ----------<br>------------- ------ ------ ---- ---- ------- ----- -- ----<br>-------- ------- -- ---------- --- - --- ----- ----- that<br>---- --- --- ----- --- ---- ---- ------- ----- ---- -------<br>--- --- -- ----- -- --- ---- -- --- ---- -- ------ ------<br>--- ----- -- ----,64885.20000000298,64884.39999999106,64337.253,64341.59999999404,64353.922,64887.622,,27,that
screen,html.Screen,0_2_0_1_28,2021-11-05T12:26:50.495Z,,,,,,,,,,,,,,,,53,,,,,,,,,,,,,,468.9779999940365,,response,,,99,,,,,,Space,keypress(Space),,,,,---- -- ----- -- ------ - ------- --- ----------<br>------------- ------ ------ ---- ---- ------- ----- -- ----<br>-------- ------- -- ---------- --- - --- ----- ----- ----<br>it's --- --- ----- --- ---- ---- ------- ----- ---- -------<br>--- --- -- ----- -- --- ---- -- --- ---- -- ------ ------<br>--- ----- -- ----,65357.29999999702,65356.59999999404,64870.951,64885.5,64887.622,65371.018,,28,it's
screen,html.Screen,0_2_0_1_29,2021-11-05T12:26:50.895Z,,,,,,,,,,,,,,,,53,,,,,,,,,,,,,,385.3819999910629,,response,,,99,,,,,,Space,keypress(Space),,,,,---- -- ----- -- ------ - ------- --- ----------<br>------------- ------ ------ ---- ---- ------- ----- -- ----<br>-------- ------- -- ---------- --- - --- ----- ----- ----<br>---- not --- ----- --- ---- ---- ------- ----- ---- -------<br>--- --- -- ----- -- --- ---- -- --- ---- -- ------ ------<br>--- ----- -- ----,65757.20000000298,65756.39999999106,65354.348,65357.70000000298,65371.018,65771.121,,29,not
screen,html.Screen,0_2_0_1_30,2021-11-05T12:26:51.367Z,,,,,,,,,,,,,,,,53,,,,,,,,,,,,,,457.1789999970206,,response,,,99,,,,,,Space,keypress(Space),,,,,---- -- ----- -- ------ - ------- --- ----------<br>------------- ------ ------ ---- ---- ------- ----- -- ----<br>-------- ------- -- ---------- --- - --- ----- ----- ----<br>---- --- how ----- --- ---- ---- ------- ----- ---- -------<br>--- --- -- ----- -- --- ---- -- --- ---- -- ------ ------<br>--- ----- -- ----,66229.09999999404,66228.29999999702,65754.451,65757.39999999106,65771.121,66237.947,,30,how
screen,html.Screen,0_2_0_1_31,2021-11-05T12:26:51.871Z,,,,,,,,,,,,,,,,53,,,,,,,,,,,,,,494.35299999701965,,response,,,99,,,,,,Space,keypress(Space),,,,,---- -- ----- -- ------ - ------- --- ----------<br>------------- ------ ------ ---- ---- ------- ----- -- ----<br>-------- ------- -- ---------- --- - --- ----- ----- ----<br>---- --- --- close --- ---- ---- ------- ----- ---- -------<br>--- --- -- ----- -- --- ---- -- --- ---- -- ------ ------<br>--- ----- -- ----,66733.09999999404,66732.29999999702,66221.276,66229.39999999106,66237.947,66738.018,,31,close
screen,html.Screen,0_2_0_1_32,2021-11-05T12:26:52.335Z,,,,,,,,,,,,,,,,53,,,,,,,,,,,,,,458.18200000298384,,response,,,99,,,,,,Space,keypress(Space),,,,,---- -- ----- -- ------ - ------- --- ----------<br>------------- ------ ------ ---- ---- ------- ----- -- ----<br>-------- ------- -- ---------- --- - --- ----- ----- ----<br>---- --- --- ----- you ---- ---- ------- ----- ---- -------<br>--- --- -- ----- -- --- ---- -- --- ---- -- ------ ------<br>--- ----- -- ----,67197,67196.20000000298,66721.348,66733.29999999702,66738.018,67204.798,,32,you
screen,html.Screen,0_2_0_1_33,2021-11-05T12:26:53.041Z,,,,,,,,,,,,,,,,53,,,,,,,,,,,,,,695.402000002985,,response,,,99,,,,,,Space,keypress(Space),,,,,---- -- ----- -- ------ - ------- --- ----------<br>------------- ------ ------ ---- ---- ------- ----- -- ----<br>-------- ------- -- ---------- --- - --- ----- ----- ----<br>---- --- --- ----- --- feel ---- ------- ----- ---- -------<br>--- --- -- ----- -- --- ---- -- --- ---- -- ------ ------<br>--- ----- -- ----,67903.29999999702,67900.20000000298,67188.128,67197.29999999702,67204.798,67905.029,,33,feel
screen,html.Screen,0_2_0_1_34,2021-11-05T12:26:53.615Z,,,,,,,,,,,,,,,,53,,,,,,,,,,,,,,571.1710000029852,,response,,,99,,,,,,Space,keypress(Space),,,,,---- -- ----- -- ------ - ------- --- ----------<br>------------- ------ ------ ---- ---- ------- ----- -- ----<br>-------- ------- -- ---------- --- - --- ----- ----- ----<br>---- --- --- ----- --- ---- that ------- ----- ---- -------<br>--- --- -- ----- -- --- ---- -- --- ---- -- ------ ------<br>--- ----- -- ----,68477.20000000298,68476.20000000298,67888.358,67903.5,67905.029,68488.445,,34,that
screen,html.Screen,0_2_0_1_35,2021-11-05T12:26:54.119Z,,,,,,,,,,,,,,,,53,,,,,,,,,,,,,,491.65499999403255,,response,,,99,,,,,,Space,keypress(Space),,,,,---- -- ----- -- ------ - ------- --- ----------<br>------------- ------ ------ ---- ---- ------- ----- -- ----<br>-------- ------- -- ---------- --- - --- ----- ----- ----<br>---- --- --- ----- --- ---- ---- matters ----- ---- -------<br>--- --- -- ----- -- --- ---- -- --- ---- -- ------ ------<br>--- ----- -- ----,68980.89999999106,68980.09999999404,68471.775,68477.5,68488.445,68988.634,,35,matters
screen,html.Screen,0_2_0_1_36,2021-11-05T12:26:54.663Z,,,,,,,,,,,,,,,,53,,,,,,,,,,,,,,535.4659999940341,,response,,,99,,,,,,Space,keypress(Space),,,,,"---- -- ----- -- ------ - ------- --- ----------<br>------------- ------ ------ ---- ---- ------- ----- -- ----<br>-------- ------- -- ---------- --- - --- ----- ----- ----<br>---- --- --- ----- --- ---- ---- ------- most, ---- -------<br>--- --- -- ----- -- --- ---- -- --- ---- -- ------ ------<br>--- ----- -- ----",69525.20000000298,69524.09999999404,68971.963,68981.20000000298,68988.634,69538.709,,36,"most,"
screen,html.Screen,0_2_0_1_37,2021-11-05T12:26:55.135Z,,,,,,,,,,,,,,,,53,,,,,,,,,,,,,,457.69099999105674,,response,,,99,,,,,,Space,keypress(Space),,,,,---- -- ----- -- ------ - ------- --- ----------<br>------------- ------ ------ ---- ---- ------- ----- -- ----<br>-------- ------- -- ---------- --- - --- ----- ----- ----<br>---- --- --- ----- --- ---- ---- ------- ----- it's -------<br>--- --- -- ----- -- --- ---- -- --- ---- -- ------ ------<br>--- ----- -- ----,69997.20000000298,69996.39999999106,69522.039,69525.39999999106,69538.709,70005.401,,37,it's
screen,html.Screen,0_2_0_1_38,2021-11-05T12:26:55.919Z,,,,,,,,,,,,,,,,53,,,,,,,,,,,,,,774.599000000002,,response,,,99,,,,,,Space,keypress(Space),,,,,---- -- ----- -- ------ - ------- --- ----------<br>------------- ------ ------ ---- ---- ------- ----- -- ----<br>-------- ------- -- ---------- --- - --- ----- ----- ----<br>---- --- --- ----- --- ---- ---- ------- ----- ---- whether<br>--- --- -- ----- -- --- ---- -- --- ---- -- ------ ------<br>--- ----- -- ----,70780.79999999702,70780,69988.732,69997.39999999106,70005.401,70789.134,,38,whether
screen,html.Screen,0_2_0_1_39,2021-11-05T12:26:56.583Z,,,,,,,,,,,,,,,,53,,,,,,,,,,,,,,654.8659999999945,,response,,,99,,,,,,Space,keypress(Space),,,,,---- -- ----- -- ------ - ------- --- ----------<br>------------- ------ ------ ---- ---- ------- ----- -- ----<br>-------- ------- -- ---------- --- - --- ----- ----- ----<br>---- --- --- ----- --- ---- ---- ------- ----- ---- -------<br>you --- -- ----- -- --- ---- -- --- ---- -- ------ ------<br>--- ----- -- ----,71444.79999999702,71444,70772.462,70781,70789.134,71455.862,,39,you
screen,html.Screen,0_2_0_1_40,2021-11-05T12:26:57.119Z,,,,,,,,,,,,,,,,53,,,,,,,,,,,,,,524.0379999910656,,response,,,99,,,,,,Space,keypress(Space),,,,,---- -- ----- -- ------ - ------- --- ----------<br>------------- ------ ------ ---- ---- ------- ----- -- ----<br>-------- ------- -- ---------- --- - --- ----- ----- ----<br>---- --- --- ----- --- ---- ---- ------- ----- ---- -------<br>--- are -- ----- -- --- ---- -- --- ---- -- ------ ------<br>--- ----- -- ----,71980.70000000298,71979.89999999106,71439.192,71445,71455.862,71989.316,,40,are
screen,html.Screen,0_2_0_1_41,2021-11-05T12:26:58.031Z,,,,,,,,,,,,,,,,53,,,,,,,,,,,,,,902.4839999970136,,response,,,99,,,,,,Space,keypress(Space),,,,,---- -- ----- -- ------ - ------- --- ----------<br>------------- ------ ------ ---- ---- ------- ----- -- ----<br>-------- ------- -- ---------- --- - --- ----- ----- ----<br>---- --- --- ----- --- ---- ---- ------- ----- ---- -------<br>--- --- as ----- -- --- ---- -- --- ---- -- ------ ------<br>--- ----- -- ----,72892.70000000298,72891.79999999702,71972.646,71981.09999999404,71989.316,72906.205,,41,as
screen,html.Screen,0_2_0_1_42,2021-11-05T12:26:58.735Z,,,,,,,,,,,,,,,,53,,,,,,,,,,,,,,689.594999997018,,response,,,99,,,,,,Space,keypress(Space),,,,,---- -- ----- -- ------ - ------- --- ----------<br>------------- ------ ------ ---- ---- ------- ----- -- ----<br>-------- ------- -- ---------- --- - --- ----- ----- ----<br>---- --- --- ----- --- ---- ---- ------- ----- ---- -------<br>--- --- -- close -- --- ---- -- --- ---- -- ------ ------<br>--- ----- -- ----,73596.70000000298,73595.79999999702,72889.535,72892.89999999106,72906.205,73606.363,,42,close
screen,html.Screen,0_2_0_1_43,2021-11-05T12:26:59.166Z,,,,,,,,,,,,,,,,53,,,,,,,,,,,,,,421.4369999970222,,response,,,99,,,,,,Space,keypress(Space),,,,,---- -- ----- -- ------ - ------- --- ----------<br>------------- ------ ------ ---- ---- ------- ----- -- ----<br>-------- ------- -- ---------- --- - --- ----- ----- ----<br>---- --- --- ----- --- ---- ---- ------- ----- ---- -------<br>--- --- -- ----- as --- ---- -- --- ---- -- ------ ------<br>--- ----- -- ----,74028.5,74027.79999999702,73589.693,73596.89999999106,73606.363,74039.807,,43,as
screen,html.Screen,0_2_0_1_44,2021-11-05T12:27:00.142Z,,,,,,,,,,,,,,,,53,,,,,,,,,,,,,,963.8930000029795,,response,,,99,,,,,,Space,keypress(Space),,,,,---- -- ----- -- ------ - ------- --- ----------<br>------------- ------ ------ ---- ---- ------- ----- -- ----<br>-------- ------- -- ---------- --- - --- ----- ----- ----<br>---- --- --- ----- --- ---- ---- ------- ----- ---- -------<br>--- --- -- ----- -- you ---- -- --- ---- -- ------ ------<br>--- ----- -- ----,75004.5,75003.70000000298,74023.137,74028.79999999702,74039.807,75006.669,,44,you
screen,html.Screen,0_2_0_1_45,2021-11-05T12:27:01.070Z,,,,,,,,,,,,,,,,53,,,,,,,,,,,,,,925.0310000029858,,response,,,99,,,,,,Space,keypress(Space),,,,,---- -- ----- -- ------ - ------- --- ----------<br>------------- ------ ------ ---- ---- ------- ----- -- ----<br>-------- ------- -- ---------- --- - --- ----- ----- ----<br>---- --- --- ----- --- ---- ---- ------- ----- ---- -------<br>--- --- -- ----- -- --- want -- --- ---- -- ------ ------<br>--- ----- -- ----,75932.39999999106,75931.70000000298,74989.999,75004.70000000298,75006.669,75940.461,,45,want
screen,html.Screen,0_2_0_1_46,2021-11-05T12:27:01.846Z,,,,,,,,,,,,,,,,53,,,,,,,,,,,,,,767.2390000029845,,response,,,99,,,,,,Space,keypress(Space),,,,,---- -- ----- -- ------ - ------- --- ----------<br>------------- ------ ------ ---- ---- ------- ----- -- ----<br>-------- ------- -- ---------- --- - --- ----- ----- ----<br>---- --- --- ----- --- ---- ---- ------- ----- ---- -------<br>--- --- -- ----- -- --- ---- to --- ---- -- ------ ------<br>--- ----- -- ----,76708.5,76707.70000000298,75923.789,75932.59999999404,75940.461,76723.762,,46,to
screen,html.Screen,0_2_0_1_47,2021-11-05T12:27:02.358Z,,,,,,,,,,,,,,,,53,,,,,,,,,,,,,,495.8379999940371,,response,,,99,,,,,,Space,keypress(Space),,,,,"---- -- ----- -- ------ - ------- --- ----------<br>------------- ------ ------ ---- ---- ------- ----- -- ----<br>-------- ------- -- ---------- --- - --- ----- ----- ----<br>---- --- --- ----- --- ---- ---- ------- ----- ---- -------<br>--- --- -- ----- -- --- ---- -- be, ---- -- ------ ------<br>--- ----- -- ----",77220.39999999106,77219.59999999404,76707.092,76708.70000000298,76723.762,77224.024,,47,"be,"
screen,html.Screen,0_2_0_1_48,2021-11-05T12:27:03.206Z,,,,,,,,,,,,,,,,53,,,,,,,,,,,,,,843.5759999940346,,response,,,99,,,,,,Space,keypress(Space),,,,,---- -- ----- -- ------ - ------- --- ----------<br>------------- ------ ------ ---- ---- ------- ----- -- ----<br>-------- ------- -- ---------- --- - --- ----- ----- ----<br>---- --- --- ----- --- ---- ---- ------- ----- ---- -------<br>--- --- -- ----- -- --- ---- -- --- even -- ------ ------<br>--- ----- -- ----,78068.39999999106,78067.59999999404,77207.353,77220.59999999404,77224.024,78074.163,,48,even
screen,html.Screen,0_2_0_1_49,2021-11-05T12:27:03.670Z,,,,,,,,,,,,,,,,53,,,,,,,,,,,,,,457.33699999999953,,response,,,99,,,,,,Space,keypress(Space),,,,,---- -- ----- -- ------ - ------- --- ----------<br>------------- ------ ------ ---- ---- ------- ----- -- ----<br>-------- ------- -- ---------- --- - --- ----- ----- ----<br>---- --- --- ----- --- ---- ---- ------- ----- ---- -------<br>--- --- -- ----- -- --- ---- -- --- ---- if ------ ------<br>--- ----- -- ----,78532.29999999702,78531.5,78057.493,78068.59999999404,78074.163,78540.961,,49,if
screen,html.Screen,0_2_0_1_50,2021-11-05T12:27:04.262Z,,,,,,,,,,,,,,,,53,,,,,,,,,,,,,,582.5390000000043,,response,,,99,,,,,,Space,keypress(Space),,,,,---- -- ----- -- ------ - ------- --- ----------<br>------------- ------ ------ ---- ---- ------- ----- -- ----<br>-------- ------- -- ---------- --- - --- ----- ----- ----<br>---- --- --- ----- --- ---- ---- ------- ----- ---- -------<br>--- --- -- ----- -- --- ---- -- --- ---- -- that's ------<br>--- ----- -- ----,79124.29999999702,79123.5,78524.291,78532.5,78540.961,79141.108,,50,that's
screen,html.Screen,0_2_0_1_51,2021-11-05T12:27:04.782Z,,,,,,,,,,,,,,,,53,,,,,,,,,,,,,,502.3920000000071,,response,,,99,,,,,,Space,keypress(Space),,,,,---- -- ----- -- ------ - ------- --- ----------<br>------------- ------ ------ ---- ---- ------- ----- -- ----<br>-------- ------- -- ---------- --- - --- ----- ----- ----<br>---- --- --- ----- --- ---- ---- ------- ----- ---- -------<br>--- --- -- ----- -- --- ---- -- --- ---- -- ------ really<br>--- ----- -- ----,79644.29999999702,79643.5,79124.438,79124.5,79141.108,79657.738,,51,really
screen,html.Screen,0_2_0_1_52,2021-11-05T12:27:05.198Z,,,,,,,,,,,,,,,,53,,,,,,,,,,,,,,401.9620000029827,,response,,,99,,,,,,Space,keypress(Space),,,,,---- -- ----- -- ------ - ------- --- ----------<br>------------- ------ ------ ---- ---- ------- ----- -- ----<br>-------- ------- -- ---------- --- - --- ----- ----- ----<br>---- --- --- ----- --- ---- ---- ------- ----- ---- -------<br>--- --- -- ----- -- --- ---- -- --- ---- -- ------ ------<br>not ----- -- ----,80060.5,80059.70000000298,79641.07,79644.59999999404,79657.738,80074.786,,52,not
screen,html.Screen,0_2_0_1_53,2021-11-05T12:27:05.566Z,,,,,,,,,,,,,,,,53,,,,,,,,,,,,,,352.7140000000072,,response,,,99,,,,,,Space,keypress(Space),,,,,---- -- ----- -- ------ - ------- --- ----------<br>------------- ------ ------ ---- ---- ------- ----- -- ----<br>-------- ------- -- ---------- --- - --- ----- ----- ----<br>---- --- --- ----- --- ---- ---- ------- ----- ---- -------<br>--- --- -- ----- -- --- ---- -- --- ---- -- ------ ------<br>--- close -- ----,80428.20000000298,80427.5,80058.114,80060.70000000298,80074.786,80441.437,,53,close
screen,html.Screen,0_2_0_1_54,2021-11-05T12:27:05.974Z,,,,,,,,,,,,,,,,53,,,,,,,,,,,,,,393.8629999970144,,response,,,99,,,,,,Space,keypress(Space),,,,,---- -- ----- -- ------ - ------- --- ----------<br>------------- ------ ------ ---- ---- ------- ----- -- ----<br>-------- ------- -- ---------- --- - --- ----- ----- ----<br>---- --- --- ----- --- ---- ---- ------- ----- ---- -------<br>--- --- -- ----- -- --- ---- -- --- ---- -- ------ ------<br>--- ----- at ----,80836.09999999404,80835.29999999702,80424.767,80428.39999999106,80441.437,80841.528,,54,at
screen,html.Screen,0_2_0_1_55,2021-11-05T12:27:06.398Z,,,,,,,,,,,,,,,,53,,,,,,,,,,,,,,417.77199999701406,,response,,,99,,,,,,Space,keypress(Space),,,,,---- -- ----- -- ------ - ------- --- ----------<br>------------- ------ ------ ---- ---- ------- ----- -- ----<br>-------- ------- -- ---------- --- - --- ----- ----- ----<br>---- --- --- ----- --- ---- ---- ------- ----- ---- -------<br>--- --- -- ----- -- --- ---- -- --- ---- -- ------ ------<br>--- ----- -- all.,81260.29999999702,81259.29999999702,80824.858,80836.39999999106,80841.528,81274.951,,55,all.
Item 99,flow.Loop,0_2_0_1,2021-11-05T12:27:06.404Z,,,,,,,,,,,,,,,,,,,,,,,,,,,,,,32442.50099999702,,completion,,,,B,,,,,,,,,,silence,,81265.70000000298,81259.29999999702,48800.129,48806.59999999404,48816.799,81274.951,,,
Question 1,html.Screen,0_2_0_2,2021-11-05T12:27:11.062Z,,,,,,,,,,,,,,,,,,,,,,,,,,,true,FALSE,,4647.848999997019,,response,,,99,B,,,,,FALSE,click #choice-2,,,,silence,,85924.20000000298,85922.79999999702,81258.281,81266,81274.951,85925.803,,,
Question 2,html.Screen,0_2_0_3,2021-11-05T12:27:17.494Z,,,,,,,,,,,,,,,,,,,,,,,,,,,true,TRUE,,6428.89700000298,,response,,,99,B,,,,,TRUE,click #choice-1,,,,silence,,92356,92354.70000000298,85909.14,85924.5,85925.803,92361.151,,,
Item 99,flow.Sequence,0_2_0,2021-11-05T12:27:17.494Z,,,,,,,,,,,,,,,,,,,,,,,,,,,,,,53540.32300000298,,completion,,,,,,,,,,,,,,,,92356.5,92354.70000000298,38797.707,38808.09999999404,38814.377,92361.151,,,
Holding screen,html.Screen,0_2_1_0,2021-11-05T12:27:27.486Z,,,,,,,,,,,,,,,,,,,,,,,,,,,,,,10002.324000000008,,timeout,,,,,,,,,,,,,,,,102347.79999999702,102346.805,92344.476,92357,92361.151,102363.475,,,
screen,html.Screen,0_2_1_1_0,2021-11-05T12:27:28.325Z,,,,,,,,,,,,,,,,54,,,,,,,,,,,,,,822.9249999910535,,response,,,100,,,,,,Space,keypress(Space),,,,,At --- ---- --- ------ ----- ------- ---- -- --- ------- --<br>------- ---------- ------ -- ----- -- ----- -- ---- ------<br>--- ----- --- --- ------ -------- ----- --- ------ ----- --<br>----- ----- ---------- --- --- ------ ------ ---- -- ------<br>------- --- ------ ----- --- ---- ------- -- ---- --- --<br>------- ------,103187.39999999106,103186.39999999106,102346.805,102348.29999999702,102363.475,103197.183,,0,At
screen,html.Screen,0_2_1_1_1,2021-11-05T12:27:28.845Z,,,,,,,,,,,,,,,,54,,,,,,,,,,,,,,508.81699999999546,,response,,,100,,,,,,Space,keypress(Space),,,,,-- the ---- --- ------ ----- ------- ---- -- --- ------- --<br>------- ---------- ------ -- ----- -- ----- -- ---- ------<br>--- ----- --- --- ------ -------- ----- --- ------ ----- --<br>----- ----- ---------- --- --- ------ ------ ---- -- ------<br>------- --- ------ ----- --- ---- ------- -- ---- --- --<br>------- ------,103706.70000000298,103706,103180.512,103187.70000000298,103197.183,103713.773,,1,the
screen,html.Screen,0_2_1_1_2,2021-11-05T12:27:29.269Z,,,,,,,,,,,,,,,,54,,,,,,,,,,,,,,416.12699999105826,,response,,,100,,,,,,Space,keypress(Space),,,,,-- --- time --- ------ ----- ------- ---- -- --- ------- --<br>------- ---------- ------ -- ----- -- ----- -- ---- ------<br>--- ----- --- --- ------ -------- ----- --- ------ ----- --<br>----- ----- ---------- --- --- ------ ------ ---- -- ------<br>------- --- ------ ----- --- ---- ------- -- ---- --- --<br>------- ------,104130.70000000298,104129.89999999106,103697.104,103706.89999999106,103713.773,104147.396,,2,time
screen,html.Screen,0_2_1_1_3,2021-11-05T12:27:29.693Z,,,,,,,,,,,,,,,,54,,,,,,,,,,,,,,406.50399999106594,,response,,,100,,,,,,Space,keypress(Space),,,,,-- --- ---- the ------ ----- ------- ---- -- --- ------- --<br>------- ---------- ------ -- ----- -- ----- -- ---- ------<br>--- ----- --- --- ------ -------- ----- --- ------ ----- --<br>----- ----- ---------- --- --- ------ ------ ---- -- ------<br>------- --- ------ ----- --- ---- ------- -- ---- --- --<br>------- ------,104554.59999999404,104553.89999999106,104130.725,104131,104147.396,104564.098,,3,the
screen,html.Screen,0_2_1_1_4,2021-11-05T12:27:30.125Z,,,,,,,,,,,,,,,,54,,,,,,,,,,,,,,421.70199999702163,,response,,,100,,,,,,Space,keypress(Space),,,,,-- --- ---- --- French ----- ------- ---- -- --- ------- --<br>------- ---------- ------ -- ----- -- ----- -- ---- ------<br>--- ----- --- --- ------ -------- ----- --- ------ ----- --<br>----- ----- ---------- --- --- ------ ------ ---- -- ------<br>------- --- ------ ----- --- ---- ------- -- ---- --- --<br>------- ------,104986.59999999404,104985.79999999702,104547.428,104554.89999999106,104564.098,104997.544,,4,French
screen,html.Screen,0_2_1_1_5,2021-11-05T12:27:30.660Z,,,,,,,,,,,,,,,,54,,,,,,,,,,,,,,524.2559999970254,,response,,,100,,,,,,Space,keypress(Space),,,,,-- --- ---- --- ------ crown ------- ---- -- --- ------- --<br>------- ---------- ------ -- ----- -- ----- -- ---- ------<br>--- ----- --- --- ------ -------- ----- --- ------ ----- --<br>----- ----- ---------- --- --- ------ ------ ---- -- ------<br>------- --- ------ ----- --- ---- ------- -- ---- --- --<br>------- ------,105522.5,105521.79999999702,104980.874,104986.89999999106,104997.544,105531.051,,5,crown
screen,html.Screen,0_2_1_1_6,2021-11-05T12:27:31.484Z,,,,,,,,,,,,,,,,54,,,,,,,,,,,,,,814.748999997013,,response,,,100,,,,,,Space,keypress(Space),,,,,-- --- ---- --- ------ ----- secured ---- -- --- ------- --<br>------- ---------- ------ -- ----- -- ----- -- ---- ------<br>--- ----- --- --- ------ -------- ----- --- ------ ----- --<br>----- ----- ---------- --- --- ------ ------ ---- -- ------<br>------- --- ------ ----- --- ---- ------- -- ---- --- --<br>------- ------,106346.5,106345.79999999702,105514.38,105522.79999999702,105531.051,106347.871,,6,secured
screen,html.Screen,0_2_1_1_7,2021-11-05T12:27:31.948Z,,,,,,,,,,,,,,,,54,,,,,,,,,,,,,,461.82900000298105,,response,,,100,,,,,,Space,keypress(Space),,,,,-- --- ---- --- ------ ----- ------- much -- --- ------- --<br>------- ---------- ------ -- ----- -- ----- -- ---- ------<br>--- ----- --- --- ------ -------- ----- --- ------ ----- --<br>----- ----- ---------- --- --- ------ ------ ---- -- ------<br>------- --- ------ ----- --- ---- ------- -- ---- --- --<br>------- ------,106810.5,106809.70000000298,106331.201,106346.79999999702,106347.871,106814.668,,7,much
screen,html.Screen,0_2_1_1_8,2021-11-05T12:27:32.444Z,,,,,,,,,,,,,,,,54,,,,,,,,,,,,,,491.0320000029751,,response,,,100,,,,,,Space,keypress(Space),,,,,-- --- ---- --- ------ ----- ------- ---- of --- ------- --<br>------- ---------- ------ -- ----- -- ----- -- ---- ------<br>--- ----- --- --- ------ -------- ----- --- ------ ----- --<br>----- ----- ---------- --- --- ------ ------ ---- -- ------<br>------- --- ------ ----- --- ---- ------- -- ---- --- --<br>------- ------,107306.5,107305.70000000298,106797.998,106810.79999999702,106814.668,107314.791,,8,of
screen,html.Screen,0_2_1_1_9,2021-11-05T12:27:32.868Z,,,,,,,,,,,,,,,,54,,,,,,,,,,,,,,414.9090000029828,,response,,,100,,,,,,Space,keypress(Space),,,,,-- --- ---- --- ------ ----- ------- ---- -- its ------- --<br>------- ---------- ------ -- ----- -- ----- -- ---- ------<br>--- ----- --- --- ------ -------- ----- --- ------ ----- --<br>----- ----- ---------- --- --- ------ ------ ---- -- ------<br>------- --- ------ ----- --- ---- ------- -- ---- --- --<br>------- ------,107730.5,107729.70000000298,107298.121,107306.79999999702,107314.791,107748.233,,9,its
screen,html.Screen,0_2_1_1_10,2021-11-05T12:27:33.461Z,,,,,,,,,,,,,,,,54,,,,,,,,,,,,,,573.8669999940466,,response,,,100,,,,,,Space,keypress(Space),,,,,-- --- ---- --- ------ ----- ------- ---- -- --- revenue --<br>------- ---------- ------ -- ----- -- ----- -- ---- ------<br>--- ----- --- --- ------ -------- ----- --- ------ ----- --<br>----- ----- ---------- --- --- ------ ------ ---- -- ------<br>------- --- ------ ----- --- ---- ------- -- ---- --- --<br>------- ------,108322.79999999702,108322.09999999404,107731.563,107730.70000000298,107748.233,108331.707,,10,revenue
screen,html.Screen,0_2_1_1_11,2021-11-05T12:27:34.124Z,,,,,,,,,,,,,,,,54,,,,,,,,,,,,,,653.8929999940447,,response,,,100,,,,,,Space,keypress(Space),,,,,-- --- ---- --- ------ ----- ------- ---- -- --- ------- by<br>------- ---------- ------ -- ----- -- ----- -- ---- ------<br>--- ----- --- --- ------ -------- ----- --- ------ ----- --<br>----- ----- ---------- --- --- ------ ------ ---- -- ------<br>------- --- ------ ----- --- ---- ------- -- ---- --- --<br>------- ------,108986.39999999106,108985.59999999404,108315.037,108323,108331.707,108998.518,,11,by
screen,html.Screen,0_2_1_1_12,2021-11-05T12:27:34.596Z,,,,,,,,,,,,,,,,54,,,,,,,,,,,,,,459.08199999404314,,response,,,100,,,,,,Space,keypress(Space),,,,,-- --- ---- --- ------ ----- ------- ---- -- --- ------- --<br>issuing ---------- ------ -- ----- -- ----- -- ---- ------<br>--- ----- --- --- ------ -------- ----- --- ------ ----- --<br>----- ----- ---------- --- --- ------ ------ ---- -- ------<br>------- --- ------ ----- --- ---- ------- -- ---- --- --<br>------- ------,109458.5,109457.59999999404,108981.848,108986.59999999404,108998.518,109465.356,,12,issuing
screen,html.Screen,0_2_1_1_13,2021-11-05T12:27:35.020Z,,,,,,,,,,,,,,,,54,,,,,,,,,,,,,,416.14400000000023,,response,,,100,,,,,,Space,keypress(Space),,,,,-- --- ---- --- ------ ----- ------- ---- -- --- ------- --<br>------- government ------ -- ----- -- ----- -- ---- ------<br>--- ----- --- --- ------ -------- ----- --- ------ ----- --<br>----- ----- ---------- --- --- ------ ------ ---- -- ------<br>------- --- ------ ----- --- ---- ------- -- ---- --- --<br>------- ------,109882.29999999702,109881.5,109448.685,109458.79999999702,109465.356,109898.658,,13,government
screen,html.Screen,0_2_1_1_14,2021-11-05T12:27:35.556Z,,,,,,,,,,,,,,,,54,,,,,,,,,,,,,,518.8420000000042,,response,,,100,,,,,,Space,keypress(Space),,,,,-- --- ---- --- ------ ----- ------- ---- -- --- ------- --<br>------- ---------- bonds. -- ----- -- ----- -- ---- ------<br>--- ----- --- --- ------ -------- ----- --- ------ ----- --<br>----- ----- ---------- --- --- ------ ------ ---- -- ------<br>------- --- ------ ----- --- ---- ------- -- ---- --- --<br>------- ------,110418.29999999702,110417.5,109881.989,109882.59999999404,109898.658,110432.33,,14,bonds.
screen,html.Screen,0_2_1_1_15,2021-11-05T12:27:36.212Z,,,,,,,,,,,,,,,,54,,,,,,,,,,,,,,641.1699999999983,,response,,,100,,,,,,Space,keypress(Space),,,,,-- --- ---- --- ------ ----- ------- ---- -- --- ------- --<br>------- ---------- ------ In ----- -- ----- -- ---- ------<br>--- ----- --- --- ------ -------- ----- --- ------ ----- --<br>----- ----- ---------- --- --- ------ ------ ---- -- ------<br>------- --- ------ ----- --- ---- ------- -- ---- --- --<br>------- ------,111074.20000000298,111073.5,110415.658,110418.5,110432.33,111082.209,,15,In
screen,html.Screen,0_2_1_1_16,2021-11-05T12:27:38.364Z,,,,,,,,,,,,,,,,54,,,,,,,,,,,,,,2143.390999994037,,response,,,100,,,,,,Space,keypress(Space),,,,,"-- --- ---- --- ------ ----- ------- ---- -- --- ------- --<br>------- ---------- ------ -- 1727, -- ----- -- ---- ------<br>--- ----- --- --- ------ -------- ----- --- ------ ----- --<br>----- ----- ---------- --- --- ------ ------ ---- -- ------<br>------- --- ------ ----- --- ---- ------- -- ---- --- --<br>------- ------",113226.39999999106,113225.59999999404,111065.541,111074.5,111082.209,113233.166,,16,"1727,"
screen,html.Screen,0_2_1_1_17,2021-11-05T12:27:39.108Z,,,,,,,,,,,,,,,,54,,,,,,,,,,,,,,736.0340000029828,,response,,,100,,,,,,Space,keypress(Space),,,,,-- --- ---- --- ------ ----- ------- ---- -- --- ------- --<br>------- ---------- ------ -- ----- in ----- -- ---- ------<br>--- ----- --- --- ------ -------- ----- --- ------ ----- --<br>----- ----- ---------- --- --- ------ ------ ---- -- ------<br>------- --- ------ ----- --- ---- ------- -- ---- --- --<br>------- ------,113970.09999999404,113969.20000000298,113216.494,113226.59999999404,113233.166,113983.058,,17,in
screen,html.Screen,0_2_1_1_18,2021-11-05T12:27:39.668Z,,,,,,,,,,,,,,,,54,,,,,,,,,,,,,,546.1420000029757,,response,,,100,,,,,,Space,keypress(Space),,,,,-- --- ---- --- ------ ----- ------- ---- -- --- ------- --<br>------- ---------- ------ -- ----- -- order -- ---- ------<br>--- ----- --- --- ------ -------- ----- --- ------ ----- --<br>----- ----- ---------- --- --- ------ ------ ---- -- ------<br>------- --- ------ ----- --- ---- ------- -- ---- --- --<br>------- ------,114530,114529.20000000298,113966.388,113970.39999999106,113983.058,114533.172,,18,order
screen,html.Screen,0_2_1_1_19,2021-11-05T12:27:40.060Z,,,,,,,,,,,,,,,,54,,,,,,,,,,,,,,387.9279999940336,,response,,,100,,,,,,Space,keypress(Space),,,,,-- --- ---- --- ------ ----- ------- ---- -- --- ------- --<br>------- ---------- ------ -- ----- -- ----- to ---- ------<br>--- ----- --- --- ------ -------- ----- --- ------ ----- --<br>----- ----- ---------- --- --- ------ ------ ---- -- ------<br>------- --- ------ ----- --- ---- ------- -- ---- --- --<br>------- ------,114921.79999999702,114921.09999999404,114516.502,114530.39999999106,114533.172,114933.414,,19,to
screen,html.Screen,0_2_1_1_20,2021-11-05T12:27:40.564Z,,,,,,,,,,,,,,,,54,,,,,,,,,,,,,,491.7860000029759,,response,,,100,,,,,,Space,keypress(Space),,,,,-- --- ---- --- ------ ----- ------- ---- -- --- ------- --<br>------- ---------- ------ -- ----- -- ----- -- save ------<br>--- ----- --- --- ------ -------- ----- --- ------ ----- --<br>----- ----- ---------- --- --- ------ ------ ---- -- ------<br>------- --- ------ ----- --- ---- ------- -- ---- --- --<br>------- ------,115426,115425.20000000298,114916.743,114922.20000000298,114933.414,115433.475,,20,save
screen,html.Screen,0_2_1_1_21,2021-11-05T12:27:41.012Z,,,,,,,,,,,,,,,,54,,,,,,,,,,,,,,439.6249999940337,,response,,,100,,,,,,Space,keypress(Space),,,,,"-- --- ---- --- ------ ----- ------- ---- -- --- ------- --<br>------- ---------- ------ -- ----- -- ----- -- ---- money,<br>--- ----- --- --- ------ -------- ----- --- ------ ----- --<br>----- ----- ---------- --- --- ------ ------ ---- -- ------<br>------- --- ------ ----- --- ---- ------- -- ---- --- --<br>------- ------",115874,115873.09999999404,115416.805,115426.29999999702,115433.475,115883.63,,21,"money,"
screen,html.Screen,0_2_1_1_22,2021-11-05T12:27:41.516Z,,,,,,,,,,,,,,,,54,,,,,,,,,,,,,,493.4699999940349,,response,,,100,,,,,,Space,keypress(Space),,,,,-- --- ---- --- ------ ----- ------- ---- -- --- ------- --<br>------- ---------- ------ -- ----- -- ----- -- ---- ------<br>the ----- --- --- ------ -------- ----- --- ------ ----- --<br>----- ----- ---------- --- --- ------ ------ ---- -- ------<br>------- --- ------ ----- --- ---- ------- -- ---- --- --<br>------- ------,116377.89999999106,116377.09999999404,115866.959,115874.29999999702,115883.63,116383.717,,22,the
screen,html.Screen,0_2_1_1_23,2021-11-05T12:27:42.804Z,,,,,,,,,,,,,,,,54,,,,,,,,,,,,,,1281.2829999999958,,response,,,100,,,,,,Space,keypress(Space),,,,,-- --- ---- --- ------ ----- ------- ---- -- --- ------- --<br>------- ---------- ------ -- ----- -- ----- -- ---- ------<br>--- state --- --- ------ -------- ----- --- ------ ----- --<br>----- ----- ---------- --- --- ------ ------ ---- -- ------<br>------- --- ------ ----- --- ---- ------- -- ---- --- --<br>------- ------,117665.89999999106,117665,116367.047,116378.29999999702,116383.717,117667.423,,23,state
screen,html.Screen,0_2_1_1_24,2021-11-05T12:27:43.348Z,,,,,,,,,,,,,,,,54,,,,,,,,,,,,,,541.4769999910641,,response,,,100,,,,,,Space,keypress(Space),,,,,-- --- ---- --- ------ ----- ------- ---- -- --- ------- --<br>------- ---------- ------ -- ----- -- ----- -- ---- ------<br>--- ----- cut --- ------ -------- ----- --- ------ ----- --<br>----- ----- ---------- --- --- ------ ------ ---- -- ------<br>------- --- ------ ----- --- ---- ------- -- ---- --- --<br>------- ------,118209.70000000298,118208.89999999106,117650.752,117666.20000000298,117667.423,118217.477,,24,cut
screen,html.Screen,0_2_1_1_25,2021-11-05T12:27:43.804Z,,,,,,,,,,,,,,,,54,,,,,,,,,,,,,,447.42299999106035,,response,,,100,,,,,,Space,keypress(Space),,,,,-- --- ---- --- ------ ----- ------- ---- -- --- ------- --<br>------- ---------- ------ -- ----- -- ----- -- ---- ------<br>--- ----- --- the ------ -------- ----- --- ------ ----- --<br>----- ----- ---------- --- --- ------ ------ ---- -- ------<br>------- --- ------ ----- --- ---- ------- -- ---- --- --<br>------- ------,118665.70000000298,118664.89999999106,118200.807,118210.09999999404,118217.477,118667.602,,25,the
screen,html.Screen,0_2_1_1_26,2021-11-05T12:27:44.252Z,,,,,,,,,,,,,,,,54,,,,,,,,,,,,,,445.39800000000105,,response,,,100,,,,,,Space,keypress(Space),,,,,-- --- ---- --- ------ ----- ------- ---- -- --- ------- --<br>------- ---------- ------ -- ----- -- ----- -- ---- ------<br>--- ----- --- --- bonds' -------- ----- --- ------ ----- --<br>----- ----- ---------- --- --- ------ ------ ---- -- ------<br>------- --- ------ ----- --- ---- ------- -- ---- --- --<br>------- ------,119113.70000000298,119113,118650.932,118665.89999999106,118667.602,119117.728,,26,bonds'
screen,html.Screen,0_2_1_1_27,2021-11-05T12:27:45.028Z,,,,,,,,,,,,,,,,54,,,,,,,,,,,,,,771.1719999910565,,response,,,100,,,,,,Space,keypress(Space),,,,,-- --- ---- --- ------ ----- ------- ---- -- --- ------- --<br>------- ---------- ------ -- ----- -- ----- -- ---- ------<br>--- ----- --- --- ------ interest ----- --- ------ ----- --<br>----- ----- ---------- --- --- ------ ------ ---- -- ------<br>------- --- ------ ----- --- ---- ------- -- ---- --- --<br>------- ------,119889.70000000298,119888.89999999106,119101.058,119114,119117.728,119901.299,,27,interest
screen,html.Screen,0_2_1_1_28,2021-11-05T12:27:46.527Z,,,,,,,,,,,,,,,,54,,,,,,,,,,,,,,1483.5009999970207,,response,,,100,,,,,,Space,keypress(Space),,,,,-- --- ---- --- ------ ----- ------- ---- -- --- ------- --<br>------- ---------- ------ -- ----- -- ----- -- ---- ------<br>--- ----- --- --- ------ -------- rate. --- ------ ----- --<br>----- ----- ---------- --- --- ------ ------ ---- -- ------<br>------- --- ------ ----- --- ---- ------- -- ---- --- --<br>------- ------,121385.59999999404,121384.79999999702,119884.628,119889.89999999106,119901.299,121401.564,,28,rate.
screen,html.Screen,0_2_1_1_29,2021-11-05T12:27:47.559Z,,,,,,,,,,,,,,,,54,,,,,,,,,,,,,,1015.1360000029817,,response,,,100,,,,,,Space,keypress(Space),,,,,-- --- ---- --- ------ ----- ------- ---- -- --- ------- --<br>------- ---------- ------ -- ----- -- ----- -- ---- ------<br>--- ----- --- --- ------ -------- ----- The ------ ----- --<br>----- ----- ---------- --- --- ------ ------ ---- -- ------<br>------- --- ------ ----- --- ---- ------- -- ---- --- --<br>------- ------,122417.59999999404,122416.70000000298,121384.894,121385.79999999702,121401.564,122418.509,,29,The
screen,html.Screen,0_2_1_1_30,2021-11-05T12:27:48.103Z,,,,,,,,,,,,,,,,54,,,,,,,,,,,,,,542.0909999940341,,response,,,100,,,,,,Space,keypress(Space),,,,,-- --- ---- --- ------ ----- ------- ---- -- --- ------- --<br>------- ---------- ------ -- ----- -- ----- -- ---- ------<br>--- ----- --- --- ------ -------- ----- --- market ----- --<br>----- ----- ---------- --- --- ------ ------ ---- -- ------<br>------- --- ------ ----- --- ---- ------- -- ---- --- --<br>------- ------,122961.5,122960.59999999404,122401.839,122417.79999999702,122418.509,122968.591,,30,market
screen,html.Screen,0_2_1_1_31,2021-11-05T12:27:48.496Z,,,,,,,,,,,,,,,,54,,,,,,,,,,,,,,384.40899999999965,,response,,,100,,,,,,Space,keypress(Space),,,,,-- --- ---- --- ------ ----- ------- ---- -- --- ------- --<br>------- ---------- ------ -- ----- -- ----- -- ---- ------<br>--- ----- --- --- ------ -------- ----- --- ------ value --<br>----- ----- ---------- --- --- ------ ------ ---- -- ------<br>------- --- ------ ----- --- ---- ------- -- ---- --- --<br>------- ------,123353.79999999702,123353,122951.921,122961.70000000298,122968.591,123368.838,,31,value
screen,html.Screen,0_2_1_1_32,2021-11-05T12:27:48.983Z,,,,,,,,,,,,,,,,54,,,,,,,,,,,,,,471.86200000297686,,response,,,100,,,,,,Space,keypress(Space),,,,,-- --- ---- --- ------ ----- ------- ---- -- --- ------- --<br>------- ---------- ------ -- ----- -- ----- -- ---- ------<br>--- ----- --- --- ------ -------- ----- --- ------ ----- of<br>----- ----- ---------- --- --- ------ ------ ---- -- ------<br>------- --- ------ ----- --- ---- ------- -- ---- --- --<br>------- ------,123841.39999999106,123840.70000000298,123352.167,123354.09999999404,123368.838,123852.282,,32,of
screen,html.Screen,0_2_1_1_33,2021-11-05T12:27:49.463Z,,,,,,,,,,,,,,,,54,,,,,,,,,,,,,,468.317999994033,,response,,,100,,,,,,Space,keypress(Space),,,,,-- --- ---- --- ------ ----- ------- ---- -- --- ------- --<br>------- ---------- ------ -- ----- -- ----- -- ---- ------<br>--- ----- --- --- ------ -------- ----- --- ------ ----- --<br>these ----- ---------- --- --- ------ ------ ---- -- ------<br>------- --- ------ ----- --- ---- ------- -- ---- --- --<br>------- ------,124321.39999999106,124320.59999999404,123835.611,123841.70000000298,123852.282,124335.613,,33,these
screen,html.Screen,0_2_1_1_34,2021-11-05T12:27:49.911Z,,,,,,,,,,,,,,,,54,,,,,,,,,,,,,,432.986999994042,,response,,,100,,,,,,Space,keypress(Space),,,,,-- --- ---- --- ------ ----- ------- ---- -- --- ------- --<br>------- ---------- ------ -- ----- -- ----- -- ---- ------<br>--- ----- --- --- ------ -------- ----- --- ------ ----- --<br>----- bonds ---------- --- --- ------ ------ ---- -- ------<br>------- --- ------ ----- --- ---- ------- -- ---- --- --<br>------- ------,124769.5,124768.59999999404,124318.944,124321.79999999702,124335.613,124785.847,,34,bonds
screen,html.Screen,0_2_1_1_35,2021-11-05T12:27:50.423Z,,,,,,,,,,,,,,,,54,,,,,,,,,,,,,,494.75299999404524,,response,,,100,,,,,,Space,keypress(Space),,,,,"-- --- ---- --- ------ ----- ------- ---- -- --- ------- --<br>------- ---------- ------ -- ----- -- ----- -- ---- ------<br>--- ----- --- --- ------ -------- ----- --- ------ ----- --<br>----- ----- plummeted, --- --- ------ ------ ---- -- ------<br>------- --- ------ ----- --- ---- ------- -- ---- --- --<br>------- ------",125281.39999999106,125280.59999999404,124769.176,124769.79999999702,124785.847,125285.815,,35,"plummeted,"
screen,html.Screen,0_2_1_1_36,2021-11-05T12:27:51.111Z,,,,,,,,,,,,,,,,54,,,,,,,,,,,,,,682.6849999999977,,response,,,100,,,,,,Space,keypress(Space),,,,,-- --- ---- --- ------ ----- ------- ---- -- --- ------- --<br>------- ---------- ------ -- ----- -- ----- -- ---- ------<br>--- ----- --- --- ------ -------- ----- --- ------ ----- --<br>----- ----- ---------- and --- ------ ------ ---- -- ------<br>------- --- ------ ----- --- ---- ------- -- ---- --- --<br>------- ------,125969.29999999702,125968.5,125269.146,125281.70000000298,125285.815,125986.228,,36,and
screen,html.Screen,0_2_1_1_37,2021-11-05T12:27:51.583Z,,,,,,,,,,,,,,,,54,,,,,,,,,,,,,,454.2719999999972,,response,,,100,,,,,,Space,keypress(Space),,,,,-- --- ---- --- ------ ----- ------- ---- -- --- ------- --<br>------- ---------- ------ -- ----- -- ----- -- ---- ------<br>--- ----- --- --- ------ -------- ----- --- ------ ----- --<br>----- ----- ---------- --- the ------ ------ ---- -- ------<br>------- --- ------ ----- --- ---- ------- -- ---- --- --<br>------- ------,126441.29999999702,126440.5,125969.556,125969.59999999404,125986.228,126452.851,,37,the
screen,html.Screen,0_2_1_1_38,2021-11-05T12:27:52.095Z,,,,,,,,,,,,,,,,54,,,,,,,,,,,,,,499.6490000000049,,response,,,100,,,,,,Space,keypress(Space),,,,,-- --- ---- --- ------ ----- ------- ---- -- --- ------- --<br>------- ---------- ------ -- ----- -- ----- -- ---- ------<br>--- ----- --- --- ------ -------- ----- --- ------ ----- --<br>----- ----- ---------- --- --- market ------ ---- -- ------<br>------- --- ------ ----- --- ---- ------- -- ---- --- --<br>------- ------,126953.29999999702,126952.5,126436.181,126441.59999999404,126452.851,126969.716,,38,market
screen,html.Screen,0_2_1_1_39,2021-11-05T12:27:52.463Z,,,,,,,,,,,,,,,,54,,,,,,,,,,,,,,350.68399999105895,,response,,,100,,,,,,Space,keypress(Space),,,,,-- --- ---- --- ------ ----- ------- ---- -- --- ------- --<br>------- ---------- ------ -- ----- -- ----- -- ---- ------<br>--- ----- --- --- ------ -------- ----- --- ------ ----- --<br>----- ----- ---------- --- --- ------ became ---- -- ------<br>------- --- ------ ----- --- ---- ------- -- ---- --- --<br>------- ------,127321.29999999702,127320.39999999106,126953.045,126953.5,126969.716,127336.444,,39,became
screen,html.Screen,0_2_1_1_40,2021-11-05T12:27:52.871Z,,,,,,,,,,,,,,,,54,,,,,,,,,,,,,,391.95599999105616,,response,,,100,,,,,,Space,keypress(Space),,,,,-- --- ---- --- ------ ----- ------- ---- -- --- ------- --<br>------- ---------- ------ -- ----- -- ----- -- ---- ------<br>--- ----- --- --- ------ -------- ----- --- ------ ----- --<br>----- ----- ---------- --- --- ------ ------ wary -- ------<br>------- --- ------ ----- --- ---- ------- -- ---- --- --<br>------- ------,127729.20000000298,127728.39999999106,127319.774,127321.5,127336.444,127736.444,,40,wary
screen,html.Screen,0_2_1_1_41,2021-11-05T12:27:53.327Z,,,,,,,,,,,,,,,,54,,,,,,,,,,,,,,447.95599999105616,,response,,,100,,,,,,Space,keypress(Space),,,,,-- --- ---- --- ------ ----- ------- ---- -- --- ------- --<br>------- ---------- ------ -- ----- -- ----- -- ---- ------<br>--- ----- --- --- ------ -------- ----- --- ------ ----- --<br>----- ----- ---------- --- --- ------ ------ ---- of ------<br>------- --- ------ ----- --- ---- ------- -- ---- --- --<br>------- ------,128185.20000000298,128184.39999999106,127719.775,127729.39999999106,127736.444,128186.753,,41,of
screen,html.Screen,0_2_1_1_42,2021-11-05T12:27:54.023Z,,,,,,,,,,,,,,,,54,,,,,,,,,,,,,,693.6469999910623,,response,,,100,,,,,,Space,keypress(Space),,,,,-- --- ---- --- ------ ----- ------- ---- -- --- ------- --<br>------- ---------- ------ -- ----- -- ----- -- ---- ------<br>--- ----- --- --- ------ -------- ----- --- ------ ----- --<br>----- ----- ---------- --- --- ------ ------ ---- -- French<br>------- --- ------ ----- --- ---- ------- -- ---- --- --<br>------- ------,128881.09999999404,128880.39999999106,128170.081,128185.39999999106,128186.753,128886.804,,42,French
screen,html.Screen,0_2_1_1_43,2021-11-05T12:27:54.431Z,,,,,,,,,,,,,,,,54,,,,,,,,,,,,,,401.49599999701604,,response,,,100,,,,,,Space,keypress(Space),,,,,-- --- ---- --- ------ ----- ------- ---- -- --- ------- --<br>------- ---------- ------ -- ----- -- ----- -- ---- ------<br>--- ----- --- --- ------ -------- ----- --- ------ ----- --<br>----- ----- ---------- --- --- ------ ------ ---- -- ------<br>credit. --- ------ ----- --- ---- ------- -- ---- --- --<br>------- ------,129289,129288.29999999702,128870.134,128881.29999999702,128886.804,129303.643,,43,credit.
screen,html.Screen,0_2_1_1_44,2021-11-05T12:27:55.191Z,,,,,,,,,,,,,,,,54,,,,,,,,,,,,,,744.5570000029838,,response,,,100,,,,,,Space,keypress(Space),,,,,-- --- ---- --- ------ ----- ------- ---- -- --- ------- --<br>------- ---------- ------ -- ----- -- ----- -- ---- ------<br>--- ----- --- --- ------ -------- ----- --- ------ ----- --<br>----- ----- ---------- --- --- ------ ------ ---- -- ------<br>------- The ------ ----- --- ---- ------- -- ---- --- --<br>------- ------,130049,130048.20000000298,129286.972,129289.29999999702,129303.643,130053.778,,44,The
screen,html.Screen,0_2_1_1_45,2021-11-05T12:27:55.695Z,,,,,,,,,,,,,,,,54,,,,,,,,,,,,,,498.32199999403383,,response,,,100,,,,,,Space,keypress(Space),,,,,-- --- ---- --- ------ ----- ------- ---- -- --- ------- --<br>------- ---------- ------ -- ----- -- ----- -- ---- ------<br>--- ----- --- --- ------ -------- ----- --- ------ ----- --<br>----- ----- ---------- --- --- ------ ------ ---- -- ------<br>------- --- French ----- --- ---- ------- -- ---- --- --<br>------- ------,130552.89999999106,130552.09999999404,130037.108,130049.29999999702,130053.778,130553.697,,45,French
screen,html.Screen,0_2_1_1_46,2021-11-05T12:27:56.111Z,,,,,,,,,,,,,,,,54,,,,,,,,,,,,,,414.5030000029801,,response,,,100,,,,,,Space,keypress(Space),,,,,-- --- ---- --- ------ ----- ------- ---- -- --- ------- --<br>------- ---------- ------ -- ----- -- ----- -- ---- ------<br>--- ----- --- --- ------ -------- ----- --- ------ ----- --<br>----- ----- ---------- --- --- ------ ------ ---- -- ------<br>------- --- ------ state --- ---- ------- -- ---- --- --<br>------- ------,130969,130968.20000000298,130537.029,130553.09999999404,130553.697,130970.725,,46,state
screen,html.Screen,0_2_1_1_47,2021-11-05T12:27:57.079Z,,,,,,,,,,,,,,,,54,,,,,,,,,,,,,,965.4750000029744,,response,,,100,,,,,,Space,keypress(Space),,,,,-- --- ---- --- ------ ----- ------- ---- -- --- ------- --<br>------- ---------- ------ -- ----- -- ----- -- ---- ------<br>--- ----- --- --- ------ -------- ----- --- ------ ----- --<br>----- ----- ---------- --- --- ------ ------ ---- -- ------<br>------- --- ------ ----- was ---- ------- -- ---- --- --<br>------- ------,131937,131936.20000000298,130954.054,130969.20000000298,130970.725,131954.194,,47,was
screen,html.Screen,0_2_1_1_48,2021-11-05T12:27:57.607Z,,,,,,,,,,,,,,,,54,,,,,,,,,,,,,,509.90599999405094,,response,,,100,,,,,,Space,keypress(Space),,,,,-- --- ---- --- ------ ----- ------- ---- -- --- ------- --<br>------- ---------- ------ -- ----- -- ----- -- ---- ------<br>--- ----- --- --- ------ -------- ----- --- ------ ----- --<br>----- ----- ---------- --- --- ------ ------ ---- -- ------<br>------- --- ------ ----- --- left ------- -- ---- --- --<br>------- ------,132464.89999999106,132464.09999999404,131937.524,131937.20000000298,131954.194,132471.123,,48,left
screen,html.Screen,0_2_1_1_49,2021-11-05T12:27:58.071Z,,,,,,,,,,,,,,,,54,,,,,,,,,,,,,,456.8770000000077,,response,,,100,,,,,,Space,keypress(Space),,,,,-- --- ---- --- ------ ----- ------- ---- -- --- ------- --<br>------- ---------- ------ -- ----- -- ----- -- ---- ------<br>--- ----- --- --- ------ -------- ----- --- ------ ----- --<br>----- ----- ---------- --- --- ------ ------ ---- -- ------<br>------- --- ------ ----- --- ---- without -- ---- --- --<br>------- ------,132928.79999999702,132928,132454.452,132465.09999999404,132471.123,132937.835,,49,without
screen,html.Screen,0_2_1_1_50,2021-11-05T12:27:58.591Z,,,,,,,,,,,,,,,,54,,,,,,,,,,,,,,510.56499999106745,,response,,,100,,,,,,Space,keypress(Space),,,,,-- --- ---- --- ------ ----- ------- ---- -- --- ------- --<br>------- ---------- ------ -- ----- -- ----- -- ---- ------<br>--- ----- --- --- ------ -------- ----- --- ------ ----- --<br>----- ----- ---------- --- --- ------ ------ ---- -- ------<br>------- --- ------ ----- --- ---- ------- an ---- --- --<br>------- ------,133449.09999999404,133448.39999999106,132921.165,132929.09999999404,132937.835,133454.612,,50,an
screen,html.Screen,0_2_1_1_51,2021-11-05T12:27:59.047Z,,,,,,,,,,,,,,,,54,,,,,,,,,,,,,,449.3880000000063,,response,,,100,,,,,,Space,keypress(Space),,,,,-- --- ---- --- ------ ----- ------- ---- -- --- ------- --<br>------- ---------- ------ -- ----- -- ----- -- ---- ------<br>--- ----- --- --- ------ -------- ----- --- ------ ----- --<br>----- ----- ---------- --- --- ------ ------ ---- -- ------<br>------- --- ------ ----- --- ---- ------- -- easy --- --<br>------- ------,133904.89999999106,133904,133437.942,133449.39999999106,133454.612,133921.447,,51,easy
screen,html.Screen,0_2_1_1_52,2021-11-05T12:27:59.534Z,,,,,,,,,,,,,,,,54,,,,,,,,,,,,,,470.45299999107374,,response,,,100,,,,,,Space,keypress(Space),,,,,-- --- ---- --- ------ ----- ------- ---- -- --- ------- --<br>------- ---------- ------ -- ----- -- ----- -- ---- ------<br>--- ----- --- --- ------ -------- ----- --- ------ ----- --<br>----- ----- ---------- --- --- ------ ------ ---- -- ------<br>------- --- ------ ----- --- ---- ------- -- ---- way --<br>------- ------,134392.70000000298,134391.89999999106,133904.776,133906.29999999702,133921.447,134404.909,,52,way
screen,html.Screen,0_2_1_1_53,2021-11-05T12:28:00.406Z,,,,,,,,,,,,,,,,54,,,,,,,,,,,,,,858.8909999970056,,response,,,100,,,,,,Space,keypress(Space),,,,,-- --- ---- --- ------ ----- ------- ---- -- --- ------- --<br>------- ---------- ------ -- ----- -- ----- -- ---- ------<br>--- ----- --- --- ------ -------- ----- --- ------ ----- --<br>----- ----- ---------- --- --- ------ ------ ---- -- ------<br>------- --- ------ ----- --- ---- ------- -- ---- --- of<br>------- ------,135264.70000000298,135263.79999999702,134388.238,134393,134404.909,135271.737,,53,of
screen,html.Screen,0_2_1_1_54,2021-11-05T12:28:00.838Z,,,,,,,,,,,,,,,,54,,,,,,,,,,,,,,424.06299999702605,,response,,,100,,,,,,Space,keypress(Space),,,,,-- --- ---- --- ------ ----- ------- ---- -- --- ------- --<br>------- ---------- ------ -- ----- -- ----- -- ---- ------<br>--- ----- --- --- ------ -------- ----- --- ------ ----- --<br>----- ----- ---------- --- --- ------ ------ ---- -- ------<br>------- --- ------ ----- --- ---- ------- -- ---- --- --<br>raising ------,135696.70000000298,135695.79999999702,135255.067,135265,135271.737,135705.172,,54,raising
screen,html.Screen,0_2_1_1_55,2021-11-05T12:28:01.854Z,,,,,,,,,,,,,,,,54,,,,,,,,,,,,,,1006.6279999970284,,response,,,100,,,,,,Space,keypress(Space),,,,,-- --- ---- --- ------ ----- ------- ---- -- --- ------- --<br>------- ---------- ------ -- ----- -- ----- -- ---- ------<br>--- ----- --- --- ------ -------- ----- --- ------ ----- --<br>----- ----- ---------- --- --- ------ ------ ---- -- ------<br>------- --- ------ ----- --- ---- ------- -- ---- --- --<br>------- money.,136712.70000000298,136711.79999999702,135688.502,135697,135705.172,136722.09,,55,money.
Item 100,flow.Loop,0_2_1_1,2021-11-05T12:28:01.855Z,,,,,,,,,,,,,,,,,,,,,,,,,,,,,,34348.324999997014,,completion,,,,B,,,,,,,,,,silence,,136713.20000000298,136711.79999999702,102346.805,102348.09999999404,102363.475,136722.09,,,
Question 1,html.Screen,0_2_1_2,2021-11-05T12:28:05.670Z,,,,,,,,,,,,,,,,,,,,,,,,,,,true,TRUE,,3805.2099999970233,,response,,,100,B,,,,,TRUE,click #choice-1,,,,silence,,140528.79999999702,140527.29999999702,136705.42,136713.39999999106,136722.09,140539.717,,,
Question 2,html.Screen,0_2_1_3,2021-11-05T12:28:08.534Z,,,,,,,,,,,,,,,,,,,,,,,,,,,true,FALSE,,2851.483000002976,,response,,,100,B,,,,,FALSE,click #choice-2,,,,silence,,143392.39999999106,143391.20000000298,140523.047,140528.89999999106,140539.717,143407.108,,,
Item 100,flow.Sequence,0_2_1,2021-11-05T12:28:08.535Z,,,,,,,,,,,,,,,,,,,,,,,,,,,,,,51030.04900000298,,completion,,,,,,,,,,,,,,,,143392.79999999702,143391.20000000298,92344.476,92356.89999999106,92361.151,143407.108,,,
End of Practice,html.Page,0_2_2,2021-11-05T12:28:17.198Z,,,,,,,,,,,,,,,,,,,,,,,,,,,,,,8648.991999994032,,form submission,,,,,,,,,,,,,,,,152056.70000000298,152056.09999999404,143390.438,143393,143407.108,152059.225,,,
Practice,flow.Sequence,0_2,2021-11-05T12:28:17.199Z,,,,,,,,,,,,,,,,,,,,,,,,,,,,,,113241.72299999403,,completion,,,,,,,,,,,,,,,,152057.20000000298,152056.09999999404,38797.707,38808,38814.377,152059.225,,,
Trap_instruction,html.Page,0_3_0,2021-11-05T12:28:21.078Z,,,,,,,,,,,,,,,,,,,,,,,,,,,,,,3876.574999997014,,form submission,,,,,,,,,,,,,,,,155936.29999999702,155935.79999999702,152042.554,152057.5,152059.225,155959.989,,,
trap_trial,html.Screen,0_3_1,2021-11-05T12:28:24.013Z,,,,,,,,,,,,,,,,,,,,,,,,,,,true,1,,2910.110999994038,,response,,,,,,,,,1,click #choice-1,,,,,,158871.5,158870.09999999404,155926.649,155936.5,155959.989,158886.403,,,
end of trap trial,html.Page,0_3_2,2021-11-05T12:28:26.782Z,,,,,,,,,,,,,,,,,,,,,,,,,,,,,,2753.297000002989,,form submission,,,,,,,,,,,,,,,,161640.29999999702,161639.70000000298,158869.68,158871.79999999702,158886.403,161644.98,,,
Trap 1,flow.Sequence,0_3,2021-11-05T12:28:26.782Z,,,,,,,,,,,,,,,,,,,,,,,,,,,,,,9580.475000002974,,completion,,,,,,,,,,,,,,,,161640.70000000298,161639.70000000298,152042.554,152057.39999999106,152059.225,161644.98,,,
Standby,html.Page,0_4_0,2021-11-05T12:28:34.772Z,,,,,,,,,,,,,,,,,,,,,,,,,,,,,,8001.020999999979,,timeout,,,,,,,,,,,,,,,,169630.5,169629.332,161628.309,161641,161644.98,169646.001,,,
Holding screen,html.Screen,0_4_1_0_0,2021-11-05T12:28:41.775Z,,,,,,,,,,,,,,,,,,,,,,,,,,,,,,7002.677000000025,,timeout,,,,,,,,,,,,,,,,176633.09999999404,176632.008,169629.332,169630.89999999106,169646.001,176648.678,,,
screen,html.Screen,0_4_1_0_1_0,2021-11-05T12:28:42.700Z,,,,,,,,,,,,,,,,15,,,,,,,,,,,,,,908.9219999940251,,response,,,7,B,,,,,Space,keypress(Space),,,,lyrical,Greg --------- ---------- - --- ------- -- --- ------------<br>----- -- -------- ------- ---- ------ - -------- ---- -----<br>--- ------- ---- -- --- -------- --- - ----- ------ ---- --<br>-------- --- -------- -------- --- -------- ---- -- ----- -<br>-------- ---- --- ---------- --------- -- ------- ------ -<br>--------- ----- -----,177558.70000000298,177557.59999999404,176632.008,176633.5,176648.678,177565.578,,0,Greg
screen,html.Screen,0_4_1_0_1_1,2021-11-05T12:28:43.164Z,,,,,,,,,,,,,,,,15,,,,,,,,,,,,,,455.6220000029716,,response,,,7,B,,,,,Space,keypress(Space),,,,lyrical,"---- Anderson, ---------- - --- ------- -- --- ------------<br>----- -- -------- ------- ---- ------ - -------- ---- -----<br>--- ------- ---- -- --- -------- --- - ----- ------ ---- --<br>-------- --- -------- -------- --- -------- ---- -- ----- -<br>-------- ---- --- ---------- --------- -- ------- ------ -<br>--------- ----- -----",178022.09999999404,178021.20000000298,177548.908,177559.09999999404,177565.578,178032.359,,1,"Anderson,"
screen,html.Screen,0_4_1_0_1_2,2021-11-05T12:28:43.652Z,,,,,,,,,,,,,,,,15,,,,,,,,,,,,,,476.64100000000326,,response,,,7,B,,,,,Space,keypress(Space),,,,lyrical,---- --------- considered - --- ------- -- --- ------------<br>----- -- -------- ------- ---- ------ - -------- ---- -----<br>--- ------- ---- -- --- -------- --- - ----- ------ ---- --<br>-------- --- -------- -------- --- -------- ---- -- ----- -<br>-------- ---- --- ---------- --------- -- ------- ------ -<br>--------- ----- -----,178509.89999999106,178509,178015.689,178022.29999999702,178032.359,178515.779,,2,considered
screen,html.Screen,0_4_1_0_1_3,2021-11-05T12:28:44.052Z,,,,,,,,,,,,,,,,15,,,,,,,,,,,,,,393.22099999999045,,response,,,7,B,,,,,Space,keypress(Space),,,,lyrical,---- --------- ---------- a --- ------- -- --- ------------<br>----- -- -------- ------- ---- ------ - -------- ---- -----<br>--- ------- ---- -- --- -------- --- - ----- ------ ---- --<br>-------- --- -------- -------- --- -------- ---- -- ----- -<br>-------- ---- --- ---------- --------- -- ------- ------ -<br>--------- ----- -----,178909.79999999702,178909,178499.109,178510.20000000298,178515.779,178915.897,,3,a
screen,html.Screen,0_4_1_0_1_4,2021-11-05T12:28:44.692Z,,,,,,,,,,,,,,,,15,,,,,,,,,,,,,,633.1030000000028,,response,,,7,B,,,,,Space,keypress(Space),,,,lyrical,---- --------- ---------- - key ------- -- --- ------------<br>----- -- -------- ------- ---- ------ - -------- ---- -----<br>--- ------- ---- -- --- -------- --- - ----- ------ ---- --<br>-------- --- -------- -------- --- -------- ---- -- ----- -<br>-------- ---- --- ---------- --------- -- ------- ------ -<br>--------- ----- -----,179549.79999999702,179549,178899.227,178910,178915.897,179566.134,,4,key
screen,html.Screen,0_4_1_0_1_5,2021-11-05T12:28:45.276Z,,,,,,,,,,,,,,,,15,,,,,,,,,,,,,,567.0660000029893,,response,,,7,B,,,,,Space,keypress(Space),,,,lyrical,---- --------- ---------- - --- witness -- --- ------------<br>----- -- -------- ------- ---- ------ - -------- ---- -----<br>--- ------- ---- -- --- -------- --- - ----- ------ ---- --<br>-------- --- -------- -------- --- -------- ---- -- ----- -<br>-------- ---- --- ---------- --------- -- ------- ------ -<br>--------- ----- -----,180133.89999999106,180133.20000000298,179549.463,179550.09999999404,179566.134,180149.63,,5,witness
screen,html.Screen,0_4_1_0_1_6,2021-11-05T12:28:45.724Z,,,,,,,,,,,,,,,,15,,,,,,,,,,,,,,431.36999999999534,,response,,,7,B,,,,,Space,keypress(Space),,,,lyrical,---- --------- ---------- - --- ------- by --- ------------<br>----- -- -------- ------- ---- ------ - -------- ---- -----<br>--- ------- ---- -- --- -------- --- - ----- ------ ---- --<br>-------- --- -------- -------- --- -------- ---- -- ----- -<br>-------- ---- --- ---------- --------- -- ------- ------ -<br>--------- ----- -----,180581.79999999702,180581,180132.959,180134.20000000298,180149.63,180583.026,,6,by
screen,html.Screen,0_4_1_0_1_7,2021-11-05T12:28:46.687Z,,,,,,,,,,,,,,,,15,,,,,,,,,,,,,,957.9739999999874,,response,,,7,B,,,,,Space,keypress(Space),,,,lyrical,---- --------- ---------- - --- ------- -- the ------------<br>----- -- -------- ------- ---- ------ - -------- ---- -----<br>--- ------- ---- -- --- -------- --- - ----- ------ ---- --<br>-------- --- -------- -------- --- -------- ---- -- ----- -<br>-------- ---- --- ---------- --------- -- ------- ------ -<br>--------- ----- -----,181541.79999999702,181541,180566.356,180582.09999999404,180583.026,181549.765,,7,the
screen,html.Screen,0_4_1_0_1_8,2021-11-05T12:28:47.583Z,,,,,,,,,,,,,,,,15,,,,,,,,,,,,,,887.1349999910453,,response,,,7,B,,,,,Space,keypress(Space),,,,lyrical,"---- --------- ---------- - --- ------- -- --- prosecution,<br>----- -- -------- ------- ---- ------ - -------- ---- -----<br>--- ------- ---- -- --- -------- --- - ----- ------ ---- --<br>-------- --- -------- -------- --- -------- ---- -- ----- -<br>-------- ---- --- ---------- --------- -- ------- ------ -<br>--------- ----- -----",182437.70000000298,182436.89999999106,181533.096,181541.89999999106,181549.765,182450.315,,8,"prosecution,"
screen,html.Screen,0_4_1_0_1_9,2021-11-05T12:28:48.799Z,,,,,,,,,,,,,,,,15,,,,,,,,,,,,,,1202.584999991057,,response,,,7,B,,,,,Space,keypress(Space),,,,lyrical,---- --------- ---------- - --- ------- -- --- ------------<br>vowed -- -------- ------- ---- ------ - -------- ---- -----<br>--- ------- ---- -- --- -------- --- - ----- ------ ---- --<br>-------- --- -------- -------- --- -------- ---- -- ----- -<br>-------- ---- --- ---------- --------- -- ------- ------ -<br>--------- ----- -----,183653.59999999404,183652.89999999106,182433.643,182437.89999999106,182450.315,183667.081,,9,vowed
screen,html.Screen,0_4_1_0_1_10,2021-11-05T12:28:49.375Z,,,,,,,,,,,,,,,,15,,,,,,,,,,,,,,561.518999994034,,response,,,7,B,,,,,Space,keypress(Space),,,,lyrical,---- --------- ---------- - --- ------- -- --- ------------<br>----- he -------- ------- ---- ------ - -------- ---- -----<br>--- ------- ---- -- --- -------- --- - ----- ------ ---- --<br>-------- --- -------- -------- --- -------- ---- -- ----- -<br>-------- ---- --- ---------- --------- -- ------- ------ -<br>--------- ----- -----,184229.5,184228.59999999404,183650.411,183653.89999999106,183667.081,184233.924,,10,he
screen,html.Screen,0_4_1_0_1_11,2021-11-05T12:28:50.047Z,,,,,,,,,,,,,,,,15,,,,,,,,,,,,,,666.8759999970207,,response,,,7,B,,,,,Space,keypress(Space),,,,lyrical,---- --------- ---------- - --- ------- -- --- ------------<br>----- -- wouldn't ------- ---- ------ - -------- ---- -----<br>--- ------- ---- -- --- -------- --- - ----- ------ ---- --<br>-------- --- -------- -------- --- -------- ---- -- ----- -<br>-------- ---- --- ---------- --------- -- ------- ------ -<br>--------- ----- -----,184901.59999999404,184900.79999999702,184217.254,184229.79999999702,184233.924,184917.402,,11,wouldn't
screen,html.Screen,0_4_1_0_1_12,2021-11-05T12:28:50.479Z,,,,,,,,,,,,,,,,15,,,,,,,,,,,,,,415.29800000297837,,response,,,7,B,,,,,Space,keypress(Space),,,,lyrical,---- --------- ---------- - --- ------- -- --- ------------<br>----- -- -------- testify ---- ------ - -------- ---- -----<br>--- ------- ---- -- --- -------- --- - ----- ------ ---- --<br>-------- --- -------- -------- --- -------- ---- -- ----- -<br>-------- ---- --- ---------- --------- -- ------- ------ -<br>--------- ----- -----,185333.5,185332.70000000298,184900.732,184901.79999999702,184917.402,185350.77,,12,testify
screen,html.Screen,0_4_1_0_1_13,2021-11-05T12:28:51.255Z,,,,,,,,,,,,,,,,15,,,,,,,,,,,,,,757.9300000029907,,response,,,7,B,,,,,Space,keypress(Space),,,,lyrical,---- --------- ---------- - --- ------- -- --- ------------<br>----- -- -------- ------- when ------ - -------- ---- -----<br>--- ------- ---- -- --- -------- --- - ----- ------ ---- --<br>-------- --- -------- -------- --- -------- ---- -- ----- -<br>-------- ---- --- ---------- --------- -- ------- ------ -<br>--------- ----- -----,186109.5,186108.70000000298,185334.101,185333.79999999702,185350.77,186117.793,,13,when
screen,html.Screen,0_4_1_0_1_14,2021-11-05T12:28:52.359Z,,,,,,,,,,,,,,,,15,,,,,,,,,,,,,,1094.8069999940344,,response,,,7,B,,,,,Space,keypress(Space),,,,lyrical,---- --------- ---------- - --- ------- -- --- ------------<br>----- -- -------- ------- ---- served - -------- ---- -----<br>--- ------- ---- -- --- -------- --- - ----- ------ ---- --<br>-------- --- -------- -------- --- -------- ---- -- ----- -<br>-------- ---- --- ---------- --------- -- ------- ------ -<br>--------- ----- -----,187213.39999999106,187212.59999999404,186101.122,186109.70000000298,186117.793,187217.717,,14,served
screen,html.Screen,0_4_1_0_1_15,2021-11-05T12:28:53.111Z,,,,,,,,,,,,,,,,15,,,,,,,,,,,,,,747.1829999910551,,response,,,7,B,,,,,Space,keypress(Space),,,,lyrical,---- --------- ---------- - --- ------- -- --- ------------<br>----- -- -------- ------- ---- ------ a -------- ---- -----<br>--- ------- ---- -- --- -------- --- - ----- ------ ---- --<br>-------- --- -------- -------- --- -------- ---- -- ----- -<br>-------- ---- --- ---------- --------- -- ------- ------ -<br>--------- ----- -----,187965.70000000298,187964.89999999106,187201.049,187213.59999999404,187217.717,187968.266,,15,a
screen,html.Screen,0_4_1_0_1_16,2021-11-05T12:28:55.015Z,,,,,,,,,,,,,,,,15,,,,,,,,,,,,,,1900.133999991056,,response,,,7,B,,,,,Space,keypress(Space),,,,lyrical,---- --------- ---------- - --- ------- -- --- ------------<br>----- -- -------- ------- ---- ------ - subpoena ---- -----<br>--- ------- ---- -- --- -------- --- - ----- ------ ---- --<br>-------- --- -------- -------- --- -------- ---- -- ----- -<br>-------- ---- --- ---------- --------- -- ------- ------ -<br>--------- ----- -----,189869.20000000298,189868.39999999106,187951.595,187965.89999999106,187968.266,189885.264,,16,subpoena
screen,html.Screen,0_4_1_0_1_17,2021-11-05T12:28:55.783Z,,,,,,,,,,,,,,,,15,,,,,,,,,,,,,,751.0359999970242,,response,,,7,B,,,,,Space,keypress(Space),,,,lyrical,---- --------- ---------- - --- ------- -- --- ------------<br>----- -- -------- ------- ---- ------ - -------- last -----<br>--- ------- ---- -- --- -------- --- - ----- ------ ---- --<br>-------- --- -------- -------- --- -------- ---- -- ----- -<br>-------- ---- --- ---------- --------- -- ------- ------ -<br>--------- ----- -----,190637.09999999404,190636.29999999702,189868.594,189869.39999999106,189885.264,190652.124,,17,last
screen,html.Screen,0_4_1_0_1_18,2021-11-05T12:28:56.287Z,,,,,,,,,,,,,,,,15,,,,,,,,,,,,,,488.17599999700906,,response,,,7,B,,,,,Space,keypress(Space),,,,lyrical,---- --------- ---------- - --- ------- -- --- ------------<br>----- -- -------- ------- ---- ------ - -------- ---- week.<br>--- ------- ---- -- --- -------- --- - ----- ------ ---- --<br>-------- --- -------- -------- --- -------- ---- -- ----- -<br>-------- ---- --- ---------- --------- -- ------- ------ -<br>--------- ----- -----,191141.09999999404,191140.29999999702,190635.454,190637.39999999106,190652.124,191152.319,,18,week.
screen,html.Screen,0_4_1_0_1_19,2021-11-05T12:28:57.087Z,,,,,,,,,,,,,,,,15,,,,,,,,,,,,,,787.9809999970312,,response,,,7,B,,,,,Space,keypress(Space),,,,lyrical,---- --------- ---------- - --- ------- -- --- ------------<br>----- -- -------- ------- ---- ------ - -------- ---- -----<br>His ------- ---- -- --- -------- --- - ----- ------ ---- --<br>-------- --- -------- -------- --- -------- ---- -- ----- -<br>-------- ---- --- ---------- --------- -- ------- ------ -<br>--------- ----- -----,191941.20000000298,191940.29999999702,191135.649,191141.39999999106,191152.319,191952.491,,19,His
screen,html.Screen,0_4_1_0_1_20,2021-11-05T12:28:57.879Z,,,,,,,,,,,,,,,,15,,,,,,,,,,,,,,779.7090000029712,,response,,,7,B,,,,,Space,keypress(Space),,,,lyrical,---- --------- ---------- - --- ------- -- --- ------------<br>----- -- -------- ------- ---- ------ - -------- ---- -----<br>--- lawyers ---- -- --- -------- --- - ----- ------ ---- --<br>-------- --- -------- -------- --- -------- ---- -- ----- -<br>-------- ---- --- ---------- --------- -- ------- ------ -<br>--------- ----- -----,192733.09999999404,192732.20000000298,191935.821,191941.39999999106,191952.491,192736.031,,20,lawyers
screen,html.Screen,0_4_1_0_1_21,2021-11-05T12:28:58.615Z,,,,,,,,,,,,,,,,15,,,,,,,,,,,,,,732.2689999970316,,response,,,7,B,,,,,Space,keypress(Space),,,,lyrical,---- --------- ---------- - --- ------- -- --- ------------<br>----- -- -------- ------- ---- ------ - -------- ---- -----<br>--- ------- said -- --- -------- --- - ----- ------ ---- --<br>-------- --- -------- -------- --- -------- ---- -- ----- -<br>-------- ---- --- ---------- --------- -- ------- ------ -<br>--------- ----- -----,193469.09999999404,193468.29999999702,192719.361,192733.29999999702,192736.031,193486.216,,21,said
screen,html.Screen,0_4_1_0_1_22,2021-11-05T12:28:59.454Z,,,,,,,,,,,,,,,,15,,,,,,,,,,,,,,821.8839999940537,,response,,,7,B,,,,,Space,keypress(Space),,,,lyrical,---- --------- ---------- - --- ------- -- --- ------------<br>----- -- -------- ------- ---- ------ - -------- ---- -----<br>--- ------- ---- he --- -------- --- - ----- ------ ---- --<br>-------- --- -------- -------- --- -------- ---- -- ----- -<br>-------- ---- --- ---------- --------- -- ------- ------ -<br>--------- ----- -----,194308.79999999702,194308.09999999404,193469.546,193469.29999999702,193486.216,194319.733,,22,he
screen,html.Screen,0_4_1_0_1_23,2021-11-05T12:29:00.030Z,,,,,,,,,,,,,,,,15,,,,,,,,,,,,,,564.3669999940321,,response,,,7,B,,,,,Space,keypress(Space),,,,lyrical,---- --------- ---------- - --- ------- -- --- ------------<br>----- -- -------- ------- ---- ------ - -------- ---- -----<br>--- ------- ---- -- was -------- --- - ----- ------ ---- --<br>-------- --- -------- -------- --- -------- ---- -- ----- -<br>-------- ---- --- ---------- --------- -- ------- ------ -<br>--------- ----- -----,194884.89999999106,194884.09999999404,194303.063,194309.09999999404,194319.733,194886.623,,23,was
screen,html.Screen,0_4_1_0_1_24,2021-11-05T12:29:00.878Z,,,,,,,,,,,,,,,,15,,,,,,,,,,,,,,845.4769999940472,,response,,,7,B,,,,,Space,keypress(Space),,,,lyrical,---- --------- ---------- - --- ------- -- --- ------------<br>----- -- -------- ------- ---- ------ - -------- ---- -----<br>--- ------- ---- -- --- prepared --- - ----- ------ ---- --<br>-------- --- -------- -------- --- -------- ---- -- ----- -<br>-------- ---- --- ---------- --------- -- ------- ------ -<br>--------- ----- -----,195732.79999999702,195732.09999999404,194869.952,194885.09999999404,194886.623,195736.725,,24,prepared
screen,html.Screen,0_4_1_0_1_25,2021-11-05T12:29:01.350Z,,,,,,,,,,,,,,,,15,,,,,,,,,,,,,,467.3749999940337,,response,,,7,B,,,,,Space,keypress(Space),,,,lyrical,---- --------- ---------- - --- ------- -- --- ------------<br>----- -- -------- ------- ---- ------ - -------- ---- -----<br>--- ------- ---- -- --- -------- for - ----- ------ ---- --<br>-------- --- -------- -------- --- -------- ---- -- ----- -<br>-------- ---- --- ---------- --------- -- ------- ------ -<br>--------- ----- -----,196204.89999999106,196204.09999999404,195720.055,195733.09999999404,195736.725,196220.29,,25,for
screen,html.Screen,0_4_1_0_1_26,2021-11-05T12:29:02.086Z,,,,,,,,,,,,,,,,15,,,,,,,,,,,,,,719.7099999999919,,response,,,7,B,,,,,Space,keypress(Space),,,,lyrical,---- --------- ---------- - --- ------- -- --- ------------<br>----- -- -------- ------- ---- ------ - -------- ---- -----<br>--- ------- ---- -- --- -------- --- a ----- ------ ---- --<br>-------- --- -------- -------- --- -------- ---- -- ----- -<br>-------- ---- --- ---------- --------- -- ------- ------ -<br>--------- ----- -----,196940.79999999702,196940,196203.619,196205.09999999404,196220.29,196953.706,,26,a
screen,html.Screen,0_4_1_0_1_27,2021-11-05T12:29:02.766Z,,,,,,,,,,,,,,,,15,,,,,,,,,,,,,,666.2939999999944,,response,,,7,B,,,,,Space,keypress(Space),,,,lyrical,---- --------- ---------- - --- ------- -- --- ------------<br>----- -- -------- ------- ---- ------ - -------- ---- -----<br>--- ------- ---- -- --- -------- --- - third ------ ---- --<br>-------- --- -------- -------- --- -------- ---- -- ----- -<br>-------- ---- --- ---------- --------- -- ------- ------ -<br>--------- ----- -----,197620.89999999106,197620,196937.036,196941,196953.706,197637.182,,27,third
screen,html.Screen,0_4_1_0_1_28,2021-11-05T12:29:03.551Z,,,,,,,,,,,,,,,,15,,,,,,,,,,,,,,767.1179999970191,,response,,,7,B,,,,,Space,keypress(Space),,,,lyrical,---- --------- ---------- - --- ------- -- --- ------------<br>----- -- -------- ------- ---- ------ - -------- ---- -----<br>--- ------- ---- -- --- -------- --- - ----- prison ---- --<br>-------- --- -------- -------- --- -------- ---- -- ----- -<br>-------- ---- --- ---------- --------- -- ------- ------ -<br>--------- ----- -----,198405.09999999404,198404.29999999702,197620.512,197621.09999999404,197637.182,198420.853,,28,prison
screen,html.Screen,0_4_1_0_1_29,2021-11-05T12:29:04.550Z,,,,,,,,,,,,,,,,15,,,,,,,,,,,,,,982.946999997017,,response,,,7,B,,,,,Space,keypress(Space),,,,lyrical,---- --------- ---------- - --- ------- -- --- ------------<br>----- -- -------- ------- ---- ------ - -------- ---- -----<br>--- ------- ---- -- --- -------- --- - ----- ------ stay --<br>-------- --- -------- -------- --- -------- ---- -- ----- -<br>-------- ---- --- ---------- --------- -- ------- ------ -<br>--------- ----- -----,199404.59999999404,199403.79999999702,198404.182,198405.29999999702,198420.853,199421.015,,29,stay
screen,html.Screen,0_4_1_0_1_30,2021-11-05T12:29:05.774Z,,,,,,,,,,,,,,,,15,,,,,,,,,,,,,,1206.6850000029663,,response,,,7,B,,,,,Space,keypress(Space),,,,lyrical,---- --------- ---------- - --- ------- -- --- ------------<br>----- -- -------- ------- ---- ------ - -------- ---- -----<br>--- ------- ---- -- --- -------- --- - ----- ------ ---- to<br>-------- --- -------- -------- --- -------- ---- -- ----- -<br>-------- ---- --- ---------- --------- -- ------- ------ -<br>--------- ----- -----,200628.5,200627.70000000298,199404.345,199405,199421.015,200637.801,,30,to
screen,html.Screen,0_4_1_0_1_31,2021-11-05T12:29:06.534Z,,,,,,,,,,,,,,,,15,,,,,,,,,,,,,,749.7989999940328,,response,,,7,B,,,,,Space,keypress(Space),,,,lyrical,---- --------- ---------- - --- ------- -- --- ------------<br>----- -- -------- ------- ---- ------ - -------- ---- -----<br>--- ------- ---- -- --- -------- --- - ----- ------ ---- --<br>maintain --- -------- -------- --- -------- ---- -- ----- -<br>-------- ---- --- ---------- --------- -- ------- ------ -<br>--------- ----- -----,201388.39999999106,201387.59999999404,200621.132,200628.70000000298,200637.801,201404.929,,31,maintain
screen,html.Screen,0_4_1_0_1_32,2021-11-05T12:29:07.070Z,,,,,,,,,,,,,,,,15,,,,,,,,,,,,,,518.7710000029765,,response,,,7,B,,,,,Space,keypress(Space),,,,lyrical,---- --------- ---------- - --- ------- -- --- ------------<br>----- -- -------- ------- ---- ------ - -------- ---- -----<br>--- ------- ---- -- --- -------- --- - ----- ------ ---- --<br>-------- his -------- -------- --- -------- ---- -- ----- -<br>-------- ---- --- ---------- --------- -- ------- ------ -<br>--------- ----- -----,201924.5,201923.70000000298,201388.258,201388.70000000298,201404.929,201938.384,,32,his
screen,html.Screen,0_4_1_0_1_33,2021-11-05T12:29:07.694Z,,,,,,,,,,,,,,,,15,,,,,,,,,,,,,,609.1160000000091,,response,,,7,B,,,,,Space,keypress(Space),,,,lyrical,---- --------- ---------- - --- ------- -- --- ------------<br>----- -- -------- ------- ---- ------ - -------- ---- -----<br>--- ------- ---- -- --- -------- --- - ----- ------ ---- --<br>-------- --- silence. -------- --- -------- ---- -- ----- -<br>-------- ---- --- ---------- --------- -- ------- ------ -<br>--------- ----- -----,202548.20000000298,202547.5,201921.713,201924.70000000298,201938.384,202555.156,,33,silence.
screen,html.Screen,0_4_1_0_1_34,2021-11-05T12:29:08.366Z,,,,,,,,,,,,,,,,15,,,,,,,,,,,,,,664.4439999940514,,response,,,7,B,,,,,Space,keypress(Space),,,,lyrical,---- --------- ---------- - --- ------- -- --- ------------<br>----- -- -------- ------- ---- ------ - -------- ---- -----<br>--- ------- ---- -- --- -------- --- - ----- ------ ---- --<br>-------- --- -------- Anderson --- -------- ---- -- ----- -<br>-------- ---- --- ---------- --------- -- ------- ------ -<br>--------- ----- -----,203220.39999999106,203219.59999999404,202538.486,202548.59999999404,202555.156,203221.788,,34,Anderson
screen,html.Screen,0_4_1_0_1_35,2021-11-05T12:29:08.918Z,,,,,,,,,,,,,,,,15,,,,,,,,,,,,,,549.8119999940391,,response,,,7,B,,,,,Space,keypress(Space),,,,lyrical,---- --------- ---------- - --- ------- -- --- ------------<br>----- -- -------- ------- ---- ------ - -------- ---- -----<br>--- ------- ---- -- --- -------- --- - ----- ------ ---- --<br>-------- --- -------- -------- was -------- ---- -- ----- -<br>-------- ---- --- ---------- --------- -- ------- ------ -<br>--------- ----- -----,203772.5,203771.59999999404,203205.12,203220.59999999404,203221.788,203788.851,,35,was
screen,html.Screen,0_4_1_0_1_36,2021-11-05T12:29:09.534Z,,,,,,,,,,,,,,,,15,,,,,,,,,,,,,,598.5489999910642,,response,,,7,B,,,,,Space,keypress(Space),,,,lyrical,---- --------- ---------- - --- ------- -- --- ------------<br>----- -- -------- ------- ---- ------ - -------- ---- -----<br>--- ------- ---- -- --- -------- --- - ----- ------ ---- --<br>-------- --- -------- -------- --- released ---- -- ----- -<br>-------- ---- --- ---------- --------- -- ------- ------ -<br>--------- ----- -----,204388.20000000298,204387.39999999106,203772.18,203772.70000000298,203788.851,204405.583,,36,released
screen,html.Screen,0_4_1_0_1_37,2021-11-05T12:29:10.390Z,,,,,,,,,,,,,,,,15,,,,,,,,,,,,,,837.9169999999867,,response,,,7,B,,,,,Space,keypress(Space),,,,lyrical,---- --------- ---------- - --- ------- -- --- ------------<br>----- -- -------- ------- ---- ------ - -------- ---- -----<br>--- ------- ---- -- --- -------- --- - ----- ------ ---- --<br>-------- --- -------- -------- --- -------- July -- ----- -<br>-------- ---- --- ---------- --------- -- ------- ------ -<br>--------- ----- -----,205244.20000000298,205243.5,204388.913,204388.5,204405.583,205255.778,,37,July
screen,html.Screen,0_4_1_0_1_38,2021-11-05T12:29:10.846Z,,,,,,,,,,,,,,,,15,,,,,,,,,,,,,,443.72200000000885,,response,,,7,B,,,,,Space,keypress(Space),,,,lyrical,---- --------- ---------- - --- ------- -- --- ------------<br>----- -- -------- ------- ---- ------ - -------- ---- -----<br>--- ------- ---- -- --- -------- --- - ----- ------ ---- --<br>-------- --- -------- -------- --- -------- ---- 20 ----- -<br>-------- ---- --- ---------- --------- -- ------- ------ -<br>--------- ----- -----,205700.20000000298,205699.5,205239.108,205244.5,205255.778,205705.993,,38,20
screen,html.Screen,0_4_1_0_1_39,2021-11-05T12:29:11.702Z,,,,,,,,,,,,,,,,15,,,,,,,,,,,,,,849.4069999910716,,response,,,7,B,,,,,Space,keypress(Space),,,,lyrical,---- --------- ---------- - --- ------- -- --- ------------<br>----- -- -------- ------- ---- ------ - -------- ---- -----<br>--- ------- ---- -- --- -------- --- - ----- ------ ---- --<br>-------- --- -------- -------- --- -------- ---- -- after -<br>-------- ---- --- ---------- --------- -- ------- ------ -<br>--------- ----- -----,206556.20000000298,206555.39999999106,205689.322,205700.5,205705.993,206572.797,,39,after
screen,html.Screen,0_4_1_0_1_40,2021-11-05T12:29:12.566Z,,,,,,,,,,,,,,,,15,,,,,,,,,,,,,,846.6029999910679,,response,,,7,B,,,,,Space,keypress(Space),,,,lyrical,---- --------- ---------- - --- ------- -- --- ------------<br>----- -- -------- ------- ---- ------ - -------- ---- -----<br>--- ------- ---- -- --- -------- --- - ----- ------ ---- --<br>-------- --- -------- -------- --- -------- ---- -- ----- a<br>-------- ---- --- ---------- --------- -- ------- ------ -<br>--------- ----- -----,207420.09999999404,207419.39999999106,206556.127,206556.5,206572.797,207423.081,,40,a
screen,html.Screen,0_4_1_0_1_41,2021-11-05T12:29:13.302Z,,,,,,,,,,,,,,,,15,,,,,,,,,,,,,,732.2189999970142,,response,,,7,B,,,,,Space,keypress(Space),,,,lyrical,---- --------- ---------- - --- ------- -- --- ------------<br>----- -- -------- ------- ---- ------ - -------- ---- -----<br>--- ------- ---- -- --- -------- --- - ----- ------ ---- --<br>-------- --- -------- -------- --- -------- ---- -- ----- -<br>two-week ---- --- ---------- --------- -- ------- ------ -<br>--------- ----- -----,208156.09999999404,208155.29999999702,207406.41,207420.29999999702,207423.081,208173.155,,41,two-week
screen,html.Screen,0_4_1_0_1_42,2021-11-05T12:29:13.798Z,,,,,,,,,,,,,,,,15,,,,,,,,,,,,,,478.4449999940407,,response,,,7,B,,,,,Space,keypress(Space),,,,lyrical,---- --------- ---------- - --- ------- -- --- ------------<br>----- -- -------- ------- ---- ------ - -------- ---- -----<br>--- ------- ---- -- --- -------- --- - ----- ------ ---- --<br>-------- --- -------- -------- --- -------- ---- -- ----- -<br>-------- stay --- ---------- --------- -- ------- ------ -<br>--------- ----- -----,208652.5,208651.59999999404,208156.485,208156.39999999106,208173.155,208656.62,,42,stay
screen,html.Screen,0_4_1_0_1_43,2021-11-05T12:29:14.518Z,,,,,,,,,,,,,,,,15,,,,,,,,,,,,,,714.5800000029849,,response,,,7,B,,,,,Space,keypress(Space),,,,lyrical,---- --------- ---------- - --- ------- -- --- ------------<br>----- -- -------- ------- ---- ------ - -------- ---- -----<br>--- ------- ---- -- --- -------- --- - ----- ------ ---- --<br>-------- --- -------- -------- --- -------- ---- -- ----- -<br>-------- ---- for ---------- --------- -- ------- ------ -<br>--------- ----- -----,209372,209371.20000000298,208639.95,208652.59999999404,208656.62,209373.573,,43,for
screen,html.Screen,0_4_1_0_1_44,2021-11-05T12:29:15.102Z,,,,,,,,,,,,,,,,15,,,,,,,,,,,,,,581.6270000029763,,response,,,7,B,,,,,Space,keypress(Space),,,,lyrical,---- --------- ---------- - --- ------- -- --- ------------<br>----- -- -------- ------- ---- ------ - -------- ---- -----<br>--- ------- ---- -- --- -------- --- - ----- ------ ---- --<br>-------- --- -------- -------- --- -------- ---- -- ----- -<br>-------- ---- --- previously --------- -- ------- ------ -<br>--------- ----- -----,209956,209955.20000000298,209356.902,209372.20000000298,209373.573,209973.643,,44,previously
screen,html.Screen,0_4_1_0_1_45,2021-11-05T12:29:15.702Z,,,,,,,,,,,,,,,,15,,,,,,,,,,,,,,581.4569999940286,,response,,,7,B,,,,,Space,keypress(Space),,,,lyrical,---- --------- ---------- - --- ------- -- --- ------------<br>----- -- -------- ------- ---- ------ - -------- ---- -----<br>--- ------- ---- -- --- -------- --- - ----- ------ ---- --<br>-------- --- -------- -------- --- -------- ---- -- ----- -<br>-------- ---- --- ---------- declining -- ------- ------ -<br>--------- ----- -----,210555.89999999106,210555.09999999404,209956.973,209956.29999999702,209973.643,210557.029,,45,declining
screen,html.Screen,0_4_1_0_1_46,2021-11-05T12:29:16.237Z,,,,,,,,,,,,,,,,15,,,,,,,,,,,,,,533.9709999999905,,response,,,7,B,,,,,Space,keypress(Space),,,,lyrical,---- --------- ---------- - --- ------- -- --- ------------<br>----- -- -------- ------- ---- ------ - -------- ---- -----<br>--- ------- ---- -- --- -------- --- - ----- ------ ---- --<br>-------- --- -------- -------- --- -------- ---- -- ----- -<br>-------- ---- --- ---------- --------- to ------- ------ -<br>--------- ----- -----,211091.79999999702,211091,210540.36,210556.20000000298,210557.029,211107.331,,46,to
screen,html.Screen,0_4_1_0_1_47,2021-11-05T12:29:16.733Z,,,,,,,,,,,,,,,,15,,,,,,,,,,,,,,479.6689999999944,,response,,,7,B,,,,,Space,keypress(Space),,,,lyrical,---- --------- ---------- - --- ------- -- --- ------------<br>----- -- -------- ------- ---- ------ - -------- ---- -----<br>--- ------- ---- -- --- -------- --- - ----- ------ ---- --<br>-------- --- -------- -------- --- -------- ---- -- ----- -<br>-------- ---- --- ---------- --------- -- testify ------ -<br>--------- ----- -----,211587.79999999702,211587,211090.66,211092.20000000298,211107.331,211590.729,,47,testify
screen,html.Screen,0_4_1_0_1_48,2021-11-05T12:29:17.205Z,,,,,,,,,,,,,,,,15,,,,,,,,,,,,,,468.37099999404745,,response,,,7,B,,,,,Space,keypress(Space),,,,lyrical,---- --------- ---------- - --- ------- -- --- ------------<br>----- -- -------- ------- ---- ------ - -------- ---- -----<br>--- ------- ---- -- --- -------- --- - ----- ------ ---- --<br>-------- --- -------- -------- --- -------- ---- -- ----- -<br>-------- ---- --- ---------- --------- -- ------- before -<br>--------- ----- -----,212059.79999999702,212059.09999999404,211574.059,211588,211590.729,212074.231,,48,before
screen,html.Screen,0_4_1_0_1_49,2021-11-05T12:29:17.781Z,,,,,,,,,,,,,,,,15,,,,,,,,,,,,,,560.7690000000002,,response,,,7,B,,,,,Space,keypress(Space),,,,lyrical,---- --------- ---------- - --- ------- -- --- ------------<br>----- -- -------- ------- ---- ------ - -------- ---- -----<br>--- ------- ---- -- --- -------- --- - ----- ------ ---- --<br>-------- --- -------- -------- --- -------- ---- -- ----- -<br>-------- ---- --- ---------- --------- -- ------- ------ a<br>--------- ----- -----,212635.89999999106,212635,212057.56,212060.09999999404,212074.231,212641.047,,49,a
screen,html.Screen,0_4_1_0_1_50,2021-11-05T12:29:18.405Z,,,,,,,,,,,,,,,,15,,,,,,,,,,,,,,617.8529999910679,,response,,,7,B,,,,,Space,keypress(Space),,,,lyrical,---- --------- ---------- - --- ------- -- --- ------------<br>----- -- -------- ------- ---- ------ - -------- ---- -----<br>--- ------- ---- -- --- -------- --- - ----- ------ ---- --<br>-------- --- -------- -------- --- -------- ---- -- ----- -<br>-------- ---- --- ---------- --------- -- ------- ------ -<br>different ----- -----,213259.70000000298,213258.89999999106,212624.376,212636.09999999404,212641.047,213274.477,,50,different
screen,html.Screen,0_4_1_0_1_51,2021-11-05T12:29:18.885Z,,,,,,,,,,,,,,,,15,,,,,,,,,,,,,,464.4229999910458,,response,,,7,B,,,,,Space,keypress(Space),,,,lyrical,---- --------- ---------- - --- ------- -- --- ------------<br>----- -- -------- ------- ---- ------ - -------- ---- -----<br>--- ------- ---- -- --- -------- --- - ----- ------ ---- --<br>-------- --- -------- -------- --- -------- ---- -- ----- -<br>-------- ---- --- ---------- --------- -- ------- ------ -<br>--------- grand -----,213739.70000000298,213738.89999999106,213257.807,213260,213274.477,213741.254,,51,grand
screen,html.Screen,0_4_1_0_1_52,2021-11-05T12:29:19.421Z,,,,,,,,,,,,,,,,15,,,,,,,,,,,,,,533.7460000000137,,response,,,7,B,,,,,Space,keypress(Space),,,,lyrical,---- --------- ---------- - --- ------- -- --- ------------<br>----- -- -------- ------- ---- ------ - -------- ---- -----<br>--- ------- ---- -- --- -------- --- - ----- ------ ---- --<br>-------- --- -------- -------- --- -------- ---- -- ----- -<br>-------- ---- --- ---------- --------- -- ------- ------ -<br>--------- ----- jury.,214275.79999999702,214275,213724.584,213740,213741.254,214291.38,,52,jury.
Item 7,flow.Loop,0_4_1_0_1,2021-11-05T12:29:19.422Z,,,,,,,,,,,,,,,,,,,,,,,,,,,,,,37626.321999999986,,completion,,,,,,,,,,,,,,,,214276.09999999404,214275,176632.008,176633.39999999106,176648.678,214291.38,,,
