sender,sender_type,sender_id,timestamp,meta,,Blues,Classical,Country,Dance,Electronic,Folk,Gospel,Hip-Hop,Jazz,Latin,Musical/Film,New-age,Pop,Provo_ID,R&B,Rap,Reggae,Religious,Rock,Soul,Swing,Traditional,age,artist_name,correct,correctResponse,distraction,duration,education,ended_on,familiarity,gender,item,list,music_frequency,offensiveness,pleasantness,preference,response,response_action,snippet_file,song_name,song_rating,sound,text,time_commit,time_end,time_render,time_run,time_show,time_switch,url,word,word_ID
Instructions,html.Page,0_0,2021-10-22T11:42:07.980Z,"{""labjs_version"":""20.2.3"",""labjs_build"":{""flavor"":""production"",""commit"":""7ea907d66ca8aeef8054924ca5d82ffbe11e34e5""},""location"":""https://run.pavlovia.org/mvasilev/lab_music_e/"",""userAgent"":""Mozilla/5.0 (Windows NT 6.1; Win64; x64) AppleWebKit/537.36 (KHTML, like Gecko) Chrome/94.0.4606.71 Safari/537.36"",""platform"":""Win32"",""language"":""en-US"",""locale"":""en-US"",""timeZone"":""Europe/London"",""timezoneOffset"":-60,""screen_width"":1920,""screen_height"":1080,""scroll_width"":1920,""scroll_height"":959,""window_innerWidth"":1920,""window_innerHeight"":1007,""devicePixelRatio"":1}",,,,,,,,,,,,,,,,,,,,,,,,,,,,,16264.279999988079,,form submission,,,,,,,,,,,,,,,,24681,24679.69999998808,8382.08,8397.299999982119,8415.42,24686.879,{},,
Headphones,html.Page,0_1,2021-10-22T11:42:15.053Z,,,,,,,,,,,,,,,,,,,,,,,,,,,,,,7066.820999988078,,form submission,,,,,,,,,,,,,,,,31754.09999999404,31753.69999998808,24670.2,24681.69999998808,24686.879,31754.404,,,
Holding screen,html.Screen,0_2_0_0,2021-10-22T11:42:25.045Z,,,,,,,,,,,,,,,,,,,,,,,,,,,,,,10002.778999999999,,timeout,,,,,,,,,,,,,,,,41746.19999998808,41740.513,31737.734,31754.59999999404,31754.404,41757.183,,,
screen,html.Screen,0_2_0_1_0,2021-10-22T11:42:27.380Z,,,,,,,,,,,,,,,,53,,,,,,,,,,,,,,2322.717000005963,,response,,,99,,,,,,Space,keypress(Space),,,,,When -- ----- -- ------ - ------- --- ----------<br>------------- ------ ------ ---- ---- ------- ----- -- ----<br>-------- ------- -- ---------- --- - --- ----- ----- ----<br>---- --- --- ----- --- ---- ---- ------- ----- ---- -------<br>--- --- -- ----- -- --- ---- -- --- ---- -- ------ ------<br>--- ----- -- ----,44081.29999998212,44079.90000000596,41740.513,41746.69999998808,41757.183,44091.285,,0,When
screen,html.Screen,0_2_0_1_1,2021-10-22T11:42:28.492Z,,,,,,,,,,,,,,,,53,,,,,,,,,,,,,,1101.0149999821151,,response,,,99,,,,,,Space,keypress(Space),,,,,---- it ----- -- ------ - ------- --- ----------<br>------------- ------ ------ ---- ---- ------- ----- -- ----<br>-------- ------- -- ---------- --- - --- ----- ----- ----<br>---- --- --- ----- --- ---- ---- ------- ----- ---- -------<br>--- --- -- ----- -- --- ---- -- --- ---- -- ------ ------<br>--- ----- -- ----,45193.19999998808,45192.29999998212,44074.614,44081.69999998808,44091.285,45208.04,,1,it
screen,html.Screen,0_2_0_1_2,2021-10-22T11:42:29.220Z,,,,,,,,,,,,,,,,53,,,,,,,,,,,,,,711.7599999821177,,response,,,99,,,,,,Space,keypress(Space),,,,,---- -- comes -- ------ - ------- --- ----------<br>------------- ------ ------ ---- ---- ------- ----- -- ----<br>-------- ------- -- ---------- --- - --- ----- ----- ----<br>---- --- --- ----- --- ---- ---- ------- ----- ---- -------<br>--- --- -- ----- -- --- ---- -- --- ---- -- ------ ------<br>--- ----- -- ----,45920.69999998808,45919.79999998212,45191.37,45193.59999999404,45208.04,45924.884,,2,comes
screen,html.Screen,0_2_0_1_3,2021-10-22T11:42:29.868Z,,,,,,,,,,,,,,,,53,,,,,,,,,,,,,,642.8159999880809,,response,,,99,,,,,,Space,keypress(Space),,,,,---- -- ----- to ------ - ------- --- ----------<br>------------- ------ ------ ---- ---- ------- ----- -- ----<br>-------- ------- -- ---------- --- - --- ----- ----- ----<br>---- --- --- ----- --- ---- ---- ------- ----- ---- -------<br>--- --- -- ----- -- --- ---- -- --- ---- -- ------ ------<br>--- ----- -- ----,46568.79999998212,46567.69999998808,45908.214,45921.19999998808,45924.884,46575.198,,3,to
screen,html.Screen,0_2_0_1_4,2021-10-22T11:42:30.596Z,,,,,,,,,,,,,,,,53,,,,,,,,,,,,,,720.5019999880824,,response,,,99,,,,,,Space,keypress(Space),,,,,---- -- ----- -- having - ------- --- ----------<br>------------- ------ ------ ---- ---- ------- ----- -- ----<br>-------- ------- -- ---------- --- - --- ----- ----- ----<br>---- --- --- ----- --- ---- ---- ------- ----- ---- -------<br>--- --- -- ----- -- --- ---- -- --- ---- -- ------ ------<br>--- ----- -- ----,47296.90000000596,47295.69999998808,46558.527,46569.40000000596,46575.198,47308.699,,4,having
screen,html.Screen,0_2_0_1_5,2021-10-22T11:42:31.100Z,,,,,,,,,,,,,,,,53,,,,,,,,,,,,,,490.900999994039,,response,,,99,,,,,,Space,keypress(Space),,,,,---- -- ----- -- ------ a ------- --- ----------<br>------------- ------ ------ ---- ---- ------- ----- -- ----<br>-------- ------- -- ---------- --- - --- ----- ----- ----<br>---- --- --- ----- --- ---- ---- ------- ----- ---- -------<br>--- --- -- ----- -- --- ---- -- --- ---- -- ------ ------<br>--- ----- -- ----,47800.69999998808,47799.59999999404,47292.028,47297.29999998212,47308.699,47808.763,,5,a
screen,html.Screen,0_2_0_1_6,2021-10-22T11:42:31.659Z,,,,,,,,,,,,,,,,53,,,,,,,,,,,,,,550.737000000001,,response,,,99,,,,,,Space,keypress(Space),,,,,---- -- ----- -- ------ - lasting --- ----------<br>------------- ------ ------ ---- ---- ------- ----- -- ----<br>-------- ------- -- ---------- --- - --- ----- ----- ----<br>---- --- --- ----- --- ---- ---- ------- ----- ---- -------<br>--- --- -- ----- -- --- ---- -- --- ---- -- ------ ------<br>--- ----- -- ----,48360.59999999404,48359.5,47792.093,47801.19999998808,47808.763,48375.58,,6,lasting
screen,html.Screen,0_2_0_1_7,2021-10-22T11:42:32.243Z,,,,,,,,,,,,,,,,53,,,,,,,,,,,,,,568.0199999940378,,response,,,99,,,,,,Space,keypress(Space),,,,,---- -- ----- -- ------ - ------- and ----------<br>------------- ------ ------ ---- ---- ------- ----- -- ----<br>-------- ------- -- ---------- --- - --- ----- ----- ----<br>---- --- --- ----- --- ---- ---- ------- ----- ---- -------<br>--- --- -- ----- -- --- ---- -- --- ---- -- ------ ------<br>--- ----- -- ----,48944.40000000596,48943.59999999404,48358.91,48360.90000000596,48375.58,48959.055,,7,and
screen,html.Screen,0_2_0_1_8,2021-10-22T11:42:32.812Z,,,,,,,,,,,,,,,,53,,,,,,,,,,,,,,552.5449999940392,,response,,,99,,,,,,Space,keypress(Space),,,,,---- -- ----- -- ------ - ------- --- fulfilling<br>------------- ------ ------ ---- ---- ------- ----- -- ----<br>-------- ------- -- ---------- --- - --- ----- ----- ----<br>---- --- --- ----- --- ---- ---- ------- ----- ---- -------<br>--- --- -- ----- -- --- ---- -- --- ---- -- ------ ------<br>--- ----- -- ----,49512.69999998808,49511.59999999404,48942.385,48944.79999998212,48959.055,49525.865,,8,fulfilling
screen,html.Screen,0_2_0_1_9,2021-10-22T11:42:33.539Z,,,,,,,,,,,,,,,,53,,,,,,,,,,,,,,713.635000000002,,response,,,99,,,,,,Space,keypress(Space),,,,,"---- -- ----- -- ------ - ------- --- ----------<br>relationship, ------ ------ ---- ---- ------- ----- -- ----<br>-------- ------- -- ---------- --- - --- ----- ----- ----<br>---- --- --- ----- --- ---- ---- ------- ----- ---- -------<br>--- --- -- ----- -- --- ---- -- --- ---- -- ------ ------<br>--- ----- -- ----",50240.40000000596,50239.5,49509.195,49513.09999999404,49525.865,50242.701,,9,"relationship,"
screen,html.Screen,0_2_0_1_10,2021-10-22T11:42:34.083Z,,,,,,,,,,,,,,,,53,,,,,,,,,,,,,,540.6990000059595,,response,,,99,,,,,,Space,keypress(Space),,,,,---- -- ----- -- ------ - ------- --- ----------<br>------------- common ------ ---- ---- ------- ----- -- ----<br>-------- ------- -- ---------- --- - --- ----- ----- ----<br>---- --- --- ----- --- ---- ---- ------- ----- ---- -------<br>--- --- -- ----- -- --- ---- -- --- ---- -- ------ ------<br>--- ----- -- ----,50784.29999998212,50783.40000000596,50226.031,50240.69999998808,50242.701,50792.744,,10,common
screen,html.Screen,0_2_0_1_11,2021-10-22T11:42:34.667Z,,,,,,,,,,,,,,,,53,,,,,,,,,,,,,,574.7560000000012,,response,,,99,,,,,,Space,keypress(Space),,,,,---- -- ----- -- ------ - ------- --- ----------<br>------------- ------ wisdom ---- ---- ------- ----- -- ----<br>-------- ------- -- ---------- --- - --- ----- ----- ----<br>---- --- --- ----- --- ---- ---- ------- ----- ---- -------<br>--- --- -- ----- -- --- ---- -- --- ---- -- ------ ------<br>--- ----- -- ----,51368.40000000596,51367.5,50776.075,50784.59999999404,50792.744,51376.389,,11,wisdom
screen,html.Screen,0_2_0_1_12,2021-10-22T11:42:35.227Z,,,,,,,,,,,,,,,,53,,,,,,,,,,,,,,550.9109999821158,,response,,,99,,,,,,Space,keypress(Space),,,,,---- -- ----- -- ------ - ------- --- ----------<br>------------- ------ ------ says ---- ------- ----- -- ----<br>-------- ------- -- ---------- --- - --- ----- ----- ----<br>---- --- --- ----- --- ---- ---- ------- ----- ---- -------<br>--- --- -- ----- -- --- ---- -- --- ---- -- ------ ------<br>--- ----- -- ----,51928.19999998808,51927.29999998212,51359.718,51368.59999999404,51376.389,51943.134,,12,says
screen,html.Screen,0_2_0_1_13,2021-10-22T11:42:35.875Z,,,,,,,,,,,,,,,,53,,,,,,,,,,,,,,632.2660000059623,,response,,,99,,,,,,Space,keypress(Space),,,,,---- -- ----- -- ------ - ------- --- ----------<br>------------- ------ ------ ---- that ------- ----- -- ----<br>-------- ------- -- ---------- --- - --- ----- ----- ----<br>---- --- --- ----- --- ---- ---- ------- ----- ---- -------<br>--- --- -- ----- -- --- ---- -- --- ---- -- ------ ------<br>--- ----- -- ----,52576.19999998808,52575.40000000596,51926.464,51928.5,51943.134,52593.275,,13,that
screen,html.Screen,0_2_0_1_14,2021-10-22T11:42:36.731Z,,,,,,,,,,,,,,,,53,,,,,,,,,,,,,,838.0249999821172,,response,,,99,,,,,,Space,keypress(Space),,,,,---- -- ----- -- ------ - ------- --- ----------<br>------------- ------ ------ ---- ---- feeling ----- -- ----<br>-------- ------- -- ---------- --- - --- ----- ----- ----<br>---- --- --- ----- --- ---- ---- ------- ----- ---- -------<br>--- --- -- ----- -- --- ---- -- --- ---- -- ------ ------<br>--- ----- -- ----,53432.09999999404,53431.29999998212,52576.605,52576.5,52593.275,53443.559,,14,feeling
screen,html.Screen,0_2_0_1_15,2021-10-22T11:42:37.267Z,,,,,,,,,,,,,,,,53,,,,,,,,,,,,,,523.7409999821175,,response,,,99,,,,,,Space,keypress(Space),,,,,---- -- ----- -- ------ - ------- --- ----------<br>------------- ------ ------ ---- ---- ------- close -- ----<br>-------- ------- -- ---------- --- - --- ----- ----- ----<br>---- --- --- ----- --- ---- ---- ------- ----- ---- -------<br>--- --- -- ----- -- --- ---- -- --- ---- -- ------ ------<br>--- ----- -- ----,53968.09999999404,53967.29999998212,53426.888,53432.40000000596,53443.559,53976.957,,15,close
screen,html.Screen,0_2_0_1_16,2021-10-22T11:42:37.835Z,,,,,,,,,,,,,,,,53,,,,,,,,,,,,,,558.2429999880769,,response,,,99,,,,,,Space,keypress(Space),,,,,---- -- ----- -- ------ - ------- --- ----------<br>------------- ------ ------ ---- ---- ------- ----- to ----<br>-------- ------- -- ---------- --- - --- ----- ----- ----<br>---- --- --- ----- --- ---- ---- ------- ----- ---- -------<br>--- --- -- ----- -- --- ---- -- --- ---- -- ------ ------<br>--- ----- -- ----,54536,54535.19999998808,53960.287,53968.29999998212,53976.957,54543.781,,16,to
screen,html.Screen,0_2_0_1_17,2021-10-22T11:42:38.355Z,,,,,,,,,,,,,,,,53,,,,,,,,,,,,,,511.31899999403686,,response,,,99,,,,,,Space,keypress(Space),,,,,---- -- ----- -- ------ - ------- --- ----------<br>------------- ------ ------ ---- ---- ------- ----- -- your<br>-------- ------- -- ---------- --- - --- ----- ----- ----<br>---- --- --- ----- --- ---- ---- ------- ----- ---- -------<br>--- --- -- ----- -- --- ---- -- --- ---- -- ------ ------<br>--- ----- -- ----,55055.90000000596,55055.09999999404,54527.111,54536.29999998212,54543.781,55060.562,,17,your
screen,html.Screen,0_2_0_1_18,2021-10-22T11:42:38.971Z,,,,,,,,,,,,,,,,53,,,,,,,,,,,,,,611.0379999940415,,response,,,99,,,,,,Space,keypress(Space),,,,,---- -- ----- -- ------ - ------- --- ----------<br>------------- ------ ------ ---- ---- ------- ----- -- ----<br>romantic ------- -- ---------- --- - --- ----- ----- ----<br>---- --- --- ----- --- ---- ---- ------- ----- ---- -------<br>--- --- -- ----- -- --- ---- -- --- ---- -- ------ ------<br>--- ----- -- ----,55672.29999998212,55671.59999999404,55043.892,55056.19999998808,55060.562,55677.446,,18,romantic
screen,html.Screen,0_2_0_1_19,2021-10-22T11:42:39.635Z,,,,,,,,,,,,,,,,53,,,,,,,,,,,,,,657.653999994036,,response,,,99,,,,,,Space,keypress(Space),,,,,---- -- ----- -- ------ - ------- --- ----------<br>------------- ------ ------ ---- ---- ------- ----- -- ----<br>-------- partner -- ---------- --- - --- ----- ----- ----<br>---- --- --- ----- --- ---- ---- ------- ----- ---- -------<br>--- --- -- ----- -- --- ---- -- --- ---- -- ------ ------<br>--- ----- -- ----,56335.79999998212,56335.09999999404,55660.775,55672.59999999404,55677.446,56344.215,,19,partner
screen,html.Screen,0_2_0_1_20,2021-10-22T11:42:40.107Z,,,,,,,,,,,,,,,,53,,,,,,,,,,,,,,462.884999994043,,response,,,99,,,,,,Space,keypress(Space),,,,,---- -- ----- -- ------ - ------- --- ----------<br>------------- ------ ------ ---- ---- ------- ----- -- ----<br>-------- ------- is ---------- --- - --- ----- ----- ----<br>---- --- --- ----- --- ---- ---- ------- ----- ---- -------<br>--- --- -- ----- -- --- ---- -- --- ---- -- ------ ------<br>--- ----- -- ----,56807.90000000596,56807.09999999404,56327.545,56336.09999999404,56344.215,56811.021,,20,is
screen,html.Screen,0_2_0_1_21,2021-10-22T11:42:41.043Z,,,,,,,,,,,,,,,,53,,,,,,,,,,,,,,932.0789999940389,,response,,,99,,,,,,Space,keypress(Space),,,,,---- -- ----- -- ------ - ------- --- ----------<br>------------- ------ ------ ---- ---- ------- ----- -- ----<br>-------- ------- -- paramount. --- - --- ----- ----- ----<br>---- --- --- ----- --- ---- ---- ------- ----- ---- -------<br>--- --- -- ----- -- --- ---- -- --- ---- -- ------ ------<br>--- ----- -- ----,57743.90000000596,57743.09999999404,56794.351,56808.19999998808,56811.021,57761.215,,21,paramount.
screen,html.Screen,0_2_0_1_22,2021-10-22T11:42:41.667Z,,,,,,,,,,,,,,,,53,,,,,,,,,,,,,,605.7850000000035,,response,,,99,,,,,,Space,keypress(Space),,,,,---- -- ----- -- ------ - ------- --- ----------<br>------------- ------ ------ ---- ---- ------- ----- -- ----<br>-------- ------- -- ---------- But - --- ----- ----- ----<br>---- --- --- ----- --- ---- ---- ------- ----- ---- -------<br>--- --- -- ----- -- --- ---- -- --- ---- -- ------ ------<br>--- ----- -- ----,58367.79999998212,58367,57744.545,57744.40000000596,57761.215,58378.12,,22,But
screen,html.Screen,0_2_0_1_23,2021-10-22T11:42:42.227Z,,,,,,,,,,,,,,,,53,,,,,,,,,,,,,,548.7800000059578,,response,,,99,,,,,,Space,keypress(Space),,,,,---- -- ----- -- ------ - ------- --- ----------<br>------------- ------ ------ ---- ---- ------- ----- -- ----<br>-------- ------- -- ---------- --- a --- ----- ----- ----<br>---- --- --- ----- --- ---- ---- ------- ----- ---- -------<br>--- --- -- ----- -- --- ---- -- --- ---- -- ------ ------<br>--- ----- -- ----,58927.69999998808,58926.90000000596,58361.449,58368,58378.12,58944.878,,23,a
screen,html.Screen,0_2_0_1_24,2021-10-22T11:42:42.763Z,,,,,,,,,,,,,,,,53,,,,,,,,,,,,,,518.0220000059635,,response,,,99,,,,,,Space,keypress(Space),,,,,---- -- ----- -- ------ - ------- --- ----------<br>------------- ------ ------ ---- ---- ------- ----- -- ----<br>-------- ------- -- ---------- --- - new ----- ----- ----<br>---- --- --- ----- --- ---- ---- ------- ----- ---- -------<br>--- --- -- ----- -- --- ---- -- --- ---- -- ------ ------<br>--- ----- -- ----,59463.69999998808,59462.90000000596,58928.208,58928,58944.878,59478.344,,24,new
screen,html.Screen,0_2_0_1_25,2021-10-22T11:42:43.307Z,,,,,,,,,,,,,,,,53,,,,,,,,,,,,,,528.5560000059631,,response,,,99,,,,,,Space,keypress(Space),,,,,---- -- ----- -- ------ - ------- --- ----------<br>------------- ------ ------ ---- ---- ------- ----- -- ----<br>-------- ------- -- ---------- --- - --- study ----- ----<br>---- --- --- ----- --- ---- ---- ------- ----- ---- -------<br>--- --- -- ----- -- --- ---- -- --- ---- -- ------ ------<br>--- ----- -- ----,60007.69999998808,60006.90000000596,59461.674,59463.90000000596,59478.344,60011.791,,25,study
screen,html.Screen,0_2_0_1_26,2021-10-22T11:42:43.839Z,,,,,,,,,,,,,,,,53,,,,,,,,,,,,,,523.109000005963,,response,,,99,,,,,,Space,keypress(Space),,,,,---- -- ----- -- ------ - ------- --- ----------<br>------------- ------ ------ ---- ---- ------- ----- -- ----<br>-------- ------- -- ---------- --- - --- ----- finds ----<br>---- --- --- ----- --- ---- ---- ------- ----- ---- -------<br>--- --- -- ----- -- --- ---- -- --- ---- -- ------ ------<br>--- ----- -- ----,60535.59999999404,60534.90000000596,59995.121,60008.09999999404,60011.791,60545.321,,26,finds
screen,html.Screen,0_2_0_1_27,2021-10-22T11:42:44.343Z,,,,,,,,,,,,,,,,53,,,,,,,,,,,,,,493.5790000059569,,response,,,99,,,,,,Space,keypress(Space),,,,,---- -- ----- -- ------ - ------- --- ----------<br>------------- ------ ------ ---- ---- ------- ----- -- ----<br>-------- ------- -- ---------- --- - --- ----- ----- that<br>---- --- --- ----- --- ---- ---- ------- ----- ---- -------<br>--- --- -- ----- -- --- ---- -- --- ---- -- ------ ------<br>--- ----- -- ----,61039.69999998808,61038.90000000596,60528.65,60535.79999998212,60545.321,61045.406,,27,that
screen,html.Screen,0_2_0_1_28,2021-10-22T11:42:44.871Z,,,,,,,,,,,,,,,,53,,,,,,,,,,,,,,521.3939999821159,,response,,,99,,,,,,Space,keypress(Space),,,,,---- -- ----- -- ------ - ------- --- ----------<br>------------- ------ ------ ---- ---- ------- ----- -- ----<br>-------- ------- -- ---------- --- - --- ----- ----- ----<br>it's --- --- ----- --- ---- ---- ------- ----- ---- -------<br>--- --- -- ----- -- --- ---- -- --- ---- -- ------ ------<br>--- ----- -- ----,61567.59999999404,61566.79999998212,61028.736,61039.90000000596,61045.406,61578.855,,28,it's
screen,html.Screen,0_2_0_1_29,2021-10-22T11:42:45.343Z,,,,,,,,,,,,,,,,53,,,,,,,,,,,,,,459.84499998807587,,response,,,99,,,,,,Space,keypress(Space),,,,,---- -- ----- -- ------ - ------- --- ----------<br>------------- ------ ------ ---- ---- ------- ----- -- ----<br>-------- ------- -- ---------- --- - --- ----- ----- ----<br>---- not --- ----- --- ---- ---- ------- ----- ---- -------<br>--- --- -- ----- -- --- ---- -- --- ---- -- ------ ------<br>--- ----- -- ----,62039.59999999404,62038.69999998808,61562.185,61567.79999998212,61578.855,62045.651,,29,not
screen,html.Screen,0_2_0_1_30,2021-10-22T11:42:45.895Z,,,,,,,,,,,,,,,,53,,,,,,,,,,,,,,545.048999988081,,response,,,99,,,,,,Space,keypress(Space),,,,,---- -- ----- -- ------ - ------- --- ----------<br>------------- ------ ------ ---- ---- ------- ----- -- ----<br>-------- ------- -- ---------- --- - --- ----- ----- ----<br>---- --- how ----- --- ---- ---- ------- ----- ---- -------<br>--- --- -- ----- -- --- ---- -- --- ---- -- ------ ------<br>--- ----- -- ----,62591.40000000596,62590.69999998808,62028.981,62039.79999998212,62045.651,62595.77,,30,how
screen,html.Screen,0_2_0_1_31,2021-10-22T11:42:46.511Z,,,,,,,,,,,,,,,,53,,,,,,,,,,,,,,610.9299999880823,,response,,,99,,,,,,Space,keypress(Space),,,,,---- -- ----- -- ------ - ------- --- ----------<br>------------- ------ ------ ---- ---- ------- ----- -- ----<br>-------- ------- -- ---------- --- - --- ----- ----- ----<br>---- --- --- close --- ---- ---- ------- ----- ---- -------<br>--- --- -- ----- -- --- ---- -- --- ---- -- ------ ------<br>--- ----- -- ----,63207.59999999404,63206.69999998808,62579.1,62591.69999998808,62595.77,63212.595,,31,close
screen,html.Screen,0_2_0_1_32,2021-10-22T11:42:47.007Z,,,,,,,,,,,,,,,,53,,,,,,,,,,,,,,489.90499999999884,,response,,,99,,,,,,Space,keypress(Space),,,,,---- -- ----- -- ------ - ------- --- ----------<br>------------- ------ ------ ---- ---- ------- ----- -- ----<br>-------- ------- -- ---------- --- - --- ----- ----- ----<br>---- --- --- ----- you ---- ---- ------- ----- ---- -------<br>--- --- -- ----- -- --- ---- -- --- ---- -- ------ ------<br>--- ----- -- ----,63703.40000000596,63702.5,63195.925,63207.79999998212,63212.595,63712.778,,32,you
screen,html.Screen,0_2_0_1_33,2021-10-22T11:42:47.511Z,,,,,,,,,,,,,,,,53,,,,,,,,,,,,,,493.8219999940411,,response,,,99,,,,,,Space,keypress(Space),,,,,---- -- ----- -- ------ - ------- --- ----------<br>------------- ------ ------ ---- ---- ------- ----- -- ----<br>-------- ------- -- ---------- --- - --- ----- ----- ----<br>---- --- --- ----- --- feel ---- ------- ----- ---- -------<br>--- --- -- ----- -- --- ---- -- --- ---- -- ------ ------<br>--- ----- -- ----,64207.40000000596,64206.59999999404,63696.107,63703.69999998808,63712.778,64212.843,,33,feel
screen,html.Screen,0_2_0_1_34,2021-10-22T11:42:48.039Z,,,,,,,,,,,,,,,,53,,,,,,,,,,,,,,521.7569999940388,,response,,,99,,,,,,Space,keypress(Space),,,,,---- -- ----- -- ------ - ------- --- ----------<br>------------- ------ ------ ---- ---- ------- ----- -- ----<br>-------- ------- -- ---------- --- - --- ----- ----- ----<br>---- --- --- ----- --- ---- that ------- ----- ---- -------<br>--- --- -- ----- -- --- ---- -- --- ---- -- ------ ------<br>--- ----- -- ----,64735.29999998212,64734.59999999404,64196.173,64207.69999998808,64212.843,64746.286,,34,that
screen,html.Screen,0_2_0_1_35,2021-10-22T11:42:48.519Z,,,,,,,,,,,,,,,,53,,,,,,,,,,,,,,468.3139999940395,,response,,,99,,,,,,Space,keypress(Space),,,,,---- -- ----- -- ------ - ------- --- ----------<br>------------- ------ ------ ---- ---- ------- ----- -- ----<br>-------- ------- -- ---------- --- - --- ----- ----- ----<br>---- --- --- ----- --- ---- ---- matters ----- ---- -------<br>--- --- -- ----- -- --- ---- -- --- ---- -- ------ ------<br>--- ----- -- ----,65215.5,65214.59999999404,64729.616,64735.59999999404,64746.286,65229.822,,35,matters
screen,html.Screen,0_2_0_1_36,2021-10-22T11:42:49.183Z,,,,,,,,,,,,,,,,53,,,,,,,,,,,,,,649.1779999999999,,response,,,99,,,,,,Space,keypress(Space),,,,,"---- -- ----- -- ------ - ------- --- ----------<br>------------- ------ ------ ---- ---- ------- ----- -- ----<br>-------- ------- -- ---------- --- - --- ----- ----- ----<br>---- --- --- ----- --- ---- ---- ------- most, ---- -------<br>--- --- -- ----- -- --- ---- -- --- ---- -- ------ ------<br>--- ----- -- ----",65879.79999998212,65879,65213.151,65215.79999998212,65229.822,65896.597,,36,"most,"
screen,html.Screen,0_2_0_1_37,2021-10-22T11:42:49.742Z,,,,,,,,,,,,,,,,53,,,,,,,,,,,,,,541.8030000059662,,response,,,99,,,,,,Space,keypress(Space),,,,,---- -- ----- -- ------ - ------- --- ----------<br>------------- ------ ------ ---- ---- ------- ----- -- ----<br>-------- ------- -- ---------- --- - --- ----- ----- ----<br>---- --- --- ----- --- ---- ---- ------- ----- it's -------<br>--- --- -- ----- -- --- ---- -- --- ---- -- ------ ------<br>--- ----- -- ----,66439.19999998808,66438.40000000596,65879.927,65880.09999999404,65896.597,66446.606,,37,it's
screen,html.Screen,0_2_0_1_38,2021-10-22T11:42:50.166Z,,,,,,,,,,,,,,,,53,,,,,,,,,,,,,,415.89400000000023,,response,,,99,,,,,,Space,keypress(Space),,,,,---- -- ----- -- ------ - ------- --- ----------<br>------------- ------ ------ ---- ---- ------- ----- -- ----<br>-------- ------- -- ---------- --- - --- ----- ----- ----<br>---- --- --- ----- --- ---- ---- ------- ----- ---- whether<br>--- --- -- ----- -- --- ---- -- --- ---- -- ------ ------<br>--- ----- -- ----,66863.19999998808,66862.5,66429.937,66439.5,66446.606,66880.255,,38,whether
screen,html.Screen,0_2_0_1_39,2021-10-22T11:42:50.606Z,,,,,,,,,,,,,,,,53,,,,,,,,,,,,,,422.1450000059558,,response,,,99,,,,,,Space,keypress(Space),,,,,---- -- ----- -- ------ - ------- --- ----------<br>------------- ------ ------ ---- ---- ------- ----- -- ----<br>-------- ------- -- ---------- --- - --- ----- ----- ----<br>---- --- --- ----- --- ---- ---- ------- ----- ---- -------<br>you --- -- ----- -- --- ---- -- --- ---- -- ------ ------<br>--- ----- -- ----,67303.19999998808,67302.40000000596,66863.584,66863.40000000596,66880.255,67313.639,,39,you
screen,html.Screen,0_2_0_1_40,2021-10-22T11:42:51.078Z,,,,,,,,,,,,,,,,53,,,,,,,,,,,,,,460.7610000059649,,response,,,99,,,,,,Space,keypress(Space),,,,,---- -- ----- -- ------ - ------- --- ----------<br>------------- ------ ------ ---- ---- ------- ----- -- ----<br>-------- ------- -- ---------- --- - --- ----- ----- ----<br>---- --- --- ----- --- ---- ---- ------- ----- ---- -------<br>--- are -- ----- -- --- ---- -- --- ---- -- ------ ------<br>--- ----- -- ----,67775.09999999404,67774.40000000596,67296.969,67303.40000000596,67313.639,67780.394,,40,are
screen,html.Screen,0_2_0_1_41,2021-10-22T11:42:51.622Z,,,,,,,,,,,,,,,,53,,,,,,,,,,,,,,537.9059999821184,,response,,,99,,,,,,Space,keypress(Space),,,,,---- -- ----- -- ------ - ------- --- ----------<br>------------- ------ ------ ---- ---- ------- ----- -- ----<br>-------- ------- -- ---------- --- - --- ----- ----- ----<br>---- --- --- ----- --- ---- ---- ------- ----- ---- -------<br>--- --- as ----- -- --- ---- -- --- ---- -- ------ ------<br>--- ----- -- ----,68319.09999999404,68318.29999998212,67763.724,67775.40000000596,67780.394,68330.607,,41,as
screen,html.Screen,0_2_0_1_42,2021-10-22T11:42:52.102Z,,,,,,,,,,,,,,,,53,,,,,,,,,,,,,,467.692999982115,,response,,,99,,,,,,Space,keypress(Space),,,,,---- -- ----- -- ------ - ------- --- ----------<br>------------- ------ ------ ---- ---- ------- ----- -- ----<br>-------- ------- -- ---------- --- - --- ----- ----- ----<br>---- --- --- ----- --- ---- ---- ------- ----- ---- -------<br>--- --- -- close -- --- ---- -- --- ---- -- ------ ------<br>--- ----- -- ----,68799.09999999404,68798.29999998212,68313.936,68319.29999998212,68330.607,68813.982,,42,close
screen,html.Screen,0_2_0_1_43,2021-10-22T11:42:52.566Z,,,,,,,,,,,,,,,,53,,,,,,,,,,,,,,448.317999982115,,response,,,99,,,,,,Space,keypress(Space),,,,,---- -- ----- -- ------ - ------- --- ----------<br>------------- ------ ------ ---- ---- ------- ----- -- ----<br>-------- ------- -- ---------- --- - --- ----- ----- ----<br>---- --- --- ----- --- ---- ---- ------- ----- ---- -------<br>--- --- -- ----- as --- ---- -- --- ---- -- ------ ------<br>--- ----- -- ----,69263,69262.29999998212,68797.312,68799.29999998212,68813.982,69264.112,,43,as
screen,html.Screen,0_2_0_1_44,2021-10-22T11:42:53.014Z,,,,,,,,,,,,,,,,53,,,,,,,,,,,,,,446.08799998808536,,response,,,99,,,,,,Space,keypress(Space),,,,,---- -- ----- -- ------ - ------- --- ----------<br>------------- ------ ------ ---- ---- ------- ----- -- ----<br>-------- ------- -- ---------- --- - --- ----- ----- ----<br>---- --- --- ----- --- ---- ---- ------- ----- ---- -------<br>--- --- -- ----- -- you ---- -- --- ---- -- ------ ------<br>--- ----- -- ----,69711,69710.19999998808,69247.442,69263.19999998808,69264.112,69714.266,,44,you
screen,html.Screen,0_2_0_1_45,2021-10-22T11:42:53.478Z,,,,,,,,,,,,,,,,53,,,,,,,,,,,,,,460.03399998211535,,response,,,99,,,,,,Space,keypress(Space),,,,,---- -- ----- -- ------ - ------- --- ----------<br>------------- ------ ------ ---- ---- ------- ----- -- ----<br>-------- ------- -- ---------- --- - --- ----- ----- ----<br>---- --- --- ----- --- ---- ---- ------- ----- ---- -------<br>--- --- -- ----- -- --- want -- --- ---- -- ------ ------<br>--- ----- -- ----,70175,70174.29999998212,69697.595,69711.29999998212,69714.266,70180.943,,45,want
screen,html.Screen,0_2_0_1_46,2021-10-22T11:42:53.910Z,,,,,,,,,,,,,,,,53,,,,,,,,,,,,,,425.25699998807977,,response,,,99,,,,,,Space,keypress(Space),,,,,---- -- ----- -- ------ - ------- --- ----------<br>------------- ------ ------ ---- ---- ------- ----- -- ----<br>-------- ------- -- ---------- --- - --- ----- ----- ----<br>---- --- --- ----- --- ---- ---- ------- ----- ---- -------<br>--- --- -- ----- -- --- ---- to --- ---- -- ------ ------<br>--- ----- -- ----,70607,70606.19999998808,70164.274,70175.29999998212,70180.943,70614.481,,46,to
screen,html.Screen,0_2_0_1_47,2021-10-22T11:42:54.366Z,,,,,,,,,,,,,,,,53,,,,,,,,,,,,,,447.7189999880793,,response,,,99,,,,,,Space,keypress(Space),,,,,"---- -- ----- -- ------ - ------- --- ----------<br>------------- ------ ------ ---- ---- ------- ----- -- ----<br>-------- ------- -- ---------- --- - --- ----- ----- ----<br>---- --- --- ----- --- ---- ---- ------- ----- ---- -------<br>--- --- -- ----- -- --- ---- -- be, ---- -- ------ ------<br>--- ----- -- ----",71063,71062.19999998808,70597.81,70607.19999998808,70614.481,71064.53,,47,"be,"
screen,html.Screen,0_2_0_1_48,2021-10-22T11:42:54.806Z,,,,,,,,,,,,,,,,53,,,,,,,,,,,,,,437.5699999940407,,response,,,99,,,,,,Space,keypress(Space),,,,,---- -- ----- -- ------ - ------- --- ----------<br>------------- ------ ------ ---- ---- ------- ----- -- ----<br>-------- ------- -- ---------- --- - --- ----- ----- ----<br>---- --- --- ----- --- ---- ---- ------- ----- ---- -------<br>--- --- -- ----- -- --- ---- -- --- even -- ------ ------<br>--- ----- -- ----,71502.90000000596,71502.09999999404,71047.86,71063.19999998808,71064.53,71514.728,,48,even
screen,html.Screen,0_2_0_1_49,2021-10-22T11:42:55.254Z,,,,,,,,,,,,,,,,53,,,,,,,,,,,,,,435.37199999403674,,response,,,99,,,,,,Space,keypress(Space),,,,,---- -- ----- -- ------ - ------- --- ----------<br>------------- ------ ------ ---- ---- ------- ----- -- ----<br>-------- ------- -- ---------- --- - --- ----- ----- ----<br>---- --- --- ----- --- ---- ---- ------- ----- ---- -------<br>--- --- -- ----- -- --- ---- -- --- ---- if ------ ------<br>--- ----- -- ----,71950.79999998212,71950.09999999404,71498.057,71503.09999999404,71514.728,71964.778,,49,if
screen,html.Screen,0_2_0_1_50,2021-10-22T11:42:55.694Z,,,,,,,,,,,,,,,,53,,,,,,,,,,,,,,425.32199999403383,,response,,,99,,,,,,Space,keypress(Space),,,,,---- -- ----- -- ------ - ------- --- ----------<br>------------- ------ ------ ---- ---- ------- ----- -- ----<br>-------- ------- -- ---------- --- - --- ----- ----- ----<br>---- --- --- ----- --- ---- ---- ------- ----- ---- -------<br>--- --- -- ----- -- --- ---- -- --- ---- -- that's ------<br>--- ----- -- ----,72391.19999998808,72390.09999999404,71948.108,71951.09999999404,71964.778,72398.156,,50,that's
screen,html.Screen,0_2_0_1_51,2021-10-22T11:42:56.150Z,,,,,,,,,,,,,,,,53,,,,,,,,,,,,,,447.8439999999973,,response,,,99,,,,,,Space,keypress(Space),,,,,---- -- ----- -- ------ - ------- --- ----------<br>------------- ------ ------ ---- ---- ------- ----- -- ----<br>-------- ------- -- ---------- --- - --- ----- ----- ----<br>---- --- --- ----- --- ---- ---- ------- ----- ---- -------<br>--- --- -- ----- -- --- ---- -- --- ---- -- ------ really<br>--- ----- -- ----,72846.69999998808,72846,72381.487,72391.40000000596,72398.156,72848.232,,51,really
screen,html.Screen,0_2_0_1_52,2021-10-22T11:42:56.598Z,,,,,,,,,,,,,,,,53,,,,,,,,,,,,,,445.7679999999964,,response,,,99,,,,,,Space,keypress(Space),,,,,---- -- ----- -- ------ - ------- --- ----------<br>------------- ------ ------ ---- ---- ------- ----- -- ----<br>-------- ------- -- ---------- --- - --- ----- ----- ----<br>---- --- --- ----- --- ---- ---- ------- ----- ---- -------<br>--- --- -- ----- -- --- ---- -- --- ---- -- ------ ------<br>not ----- -- ----,73294.69999998808,73294,72831.563,72847,72848.232,73298.547,,52,not
screen,html.Screen,0_2_0_1_53,2021-10-22T11:42:57.038Z,,,,,,,,,,,,,,,,53,,,,,,,,,,,,,,435.45299999999406,,response,,,99,,,,,,Space,keypress(Space),,,,,---- -- ----- -- ------ - ------- --- ----------<br>------------- ------ ------ ---- ---- ------- ----- -- ----<br>-------- ------- -- ---------- --- - --- ----- ----- ----<br>---- --- --- ----- --- ---- ---- ------- ----- ---- -------<br>--- --- -- ----- -- --- ---- -- --- ---- -- ------ ------<br>--- close -- ----,73734.59999999404,73734,73281.875,73295,73298.547,73748.566,,53,close
screen,html.Screen,0_2_0_1_54,2021-10-22T11:42:57.534Z,,,,,,,,,,,,,,,,53,,,,,,,,,,,,,,481.3340000059543,,response,,,99,,,,,,Space,keypress(Space),,,,,---- -- ----- -- ------ - ------- --- ----------<br>------------- ------ ------ ---- ---- ------- ----- -- ----<br>-------- ------- -- ---------- --- - --- ----- ----- ----<br>---- --- --- ----- --- ---- ---- ------- ----- ---- -------<br>--- --- -- ----- -- --- ---- -- --- ---- -- ------ ------<br>--- ----- at ----,74230.69999998808,74229.90000000596,73731.896,73734.90000000596,73748.566,74232.021,,54,at
screen,html.Screen,0_2_0_1_55,2021-10-22T11:42:58.718Z,,,,,,,,,,,,,,,,53,,,,,,,,,,,,,,1181.879000005967,,response,,,99,,,,,,Space,keypress(Space),,,,,---- -- ----- -- ------ - ------- --- ----------<br>------------- ------ ------ ---- ---- ------- ----- -- ----<br>-------- ------- -- ---------- --- - --- ----- ----- ----<br>---- --- --- ----- --- ---- ---- ------- ----- ---- -------<br>--- --- -- ----- -- --- ---- -- --- ---- -- ------ ------<br>--- ----- -- all.,75414.69999998808,75413.90000000596,74215.351,74230.90000000596,74232.021,75432.287,,55,all.
Item 99,flow.Loop,0_2_0_1,2021-10-22T11:42:58.722Z,,,,,,,,,,,,,,,,,,,,,,,,,,,,,,33656.71700000596,,completion,,,,E,,,,,,,,,,silence,,75419.19999998808,75413.90000000596,41740.513,41746.59999999404,41757.183,75432.287,,,
Question 1,html.Screen,0_2_0_2,2021-10-22T11:43:05.702Z,,,,,,,,,,,,,,,,,,,,,,,,,,,true,FALSE,,6965.012999982122,,response,,,99,E,,,,,FALSE,click #choice-2,,,,silence,,82398.69999998808,82397.29999998212,75415.617,75419.40000000596,75432.287,82400.815,,,
Question 2,html.Screen,0_2_0_3,2021-10-22T11:43:10.053Z,,,,,,,,,,,,,,,,,,,,,,,,,,,true,TRUE,,4348.184999999998,,response,,,99,E,,,,,TRUE,click #choice-1,,,,silence,,86750.09999999404,86749,82384.143,82398.90000000596,82400.815,86751.802,,,
Item 99,flow.Sequence,0_2_0,2021-10-22T11:43:10.054Z,,,,,,,,,,,,,,,,,,,,,,,,,,,,,,54994.596000000005,,completion,,,,,,,,,,,,,,,,86750.5,86749,31737.734,31754.59999999404,31754.404,86751.802,,,
Holding screen,html.Screen,0_2_1_0,2021-10-22T11:43:20.042Z,,,,,,,,,,,,,,,,,,,,,,,,,,,,,,10002.396999999997,,timeout,,,,,,,,,,,,,,,,96738.59999999404,96737.529,86735.132,86750.79999998212,86751.802,96754.199,,,
screen,html.Screen,0_2_1_1_0,2021-10-22T11:43:21.069Z,,,,,,,,,,,,,,,,54,,,,,,,,,,,,,,1010.7010000059672,,response,,,100,,,,,,Space,keypress(Space),,,,,At --- ---- --- ------ ----- ------- ---- -- --- ------- --<br>------- ---------- ------ -- ----- -- ----- -- ---- ------<br>--- ----- --- --- ------ -------- ----- --- ------ ----- --<br>----- ----- ---------- --- --- ------ ------ ---- -- ------<br>------- --- ------ ----- --- ---- ------- -- ---- --- --<br>------- ------,97765.69999998808,97764.90000000596,96737.529,96738.90000000596,96754.199,97771.314,,0,At
screen,html.Screen,0_2_1_1_1,2021-10-22T11:43:21.548Z,,,,,,,,,,,,,,,,54,,,,,,,,,,,,,,472.9859999821201,,response,,,100,,,,,,Space,keypress(Space),,,,,-- the ---- --- ------ ----- ------- ---- -- --- ------- --<br>------- ---------- ------ -- ----- -- ----- -- ---- ------<br>--- ----- --- --- ------ -------- ----- --- ------ ----- --<br>----- ----- ---------- --- --- ------ ------ ---- -- ------<br>------- --- ------ ----- --- ---- ------- -- ---- --- --<br>------- ------,98245.19999998808,98244.29999998212,97754.643,97766,97771.314,98254.662,,1,the
screen,html.Screen,0_2_1_1_2,2021-10-22T11:43:22.012Z,,,,,,,,,,,,,,,,54,,,,,,,,,,,,,,453.637999982122,,response,,,100,,,,,,Space,keypress(Space),,,,,-- --- time --- ------ ----- ------- ---- -- --- ------- --<br>------- ---------- ------ -- ----- -- ----- -- ---- ------<br>--- ----- --- --- ------ -------- ----- --- ------ ----- --<br>----- ----- ---------- --- --- ------ ------ ---- -- ------<br>------- --- ------ ----- --- ---- ------- -- ---- --- --<br>------- ------,98709.19999998808,98708.29999998212,98237.992,98245.40000000596,98254.662,98721.433,,2,time
screen,html.Screen,0_2_1_1_3,2021-10-22T11:43:22.510Z,,,,,,,,,,,,,,,,54,,,,,,,,,,,,,,482.9670000059559,,response,,,100,,,,,,Space,keypress(Space),,,,,-- --- ---- the ------ ----- ------- ---- -- --- ------- --<br>------- ---------- ------ -- ----- -- ----- -- ---- ------<br>--- ----- --- --- ------ -------- ----- --- ------ ----- --<br>----- ----- ---------- --- --- ------ ------ ---- -- ------<br>------- --- ------ ----- --- ---- ------- -- ---- --- --<br>------- ------,99206.29999998212,99204.40000000596,98704.763,98709.40000000596,98721.433,99221.568,,3,the
screen,html.Screen,0_2_1_1_4,2021-10-22T11:43:23.004Z,,,,,,,,,,,,,,,,54,,,,,,,,,,,,,,478.9320000000007,,response,,,100,,,,,,Space,keypress(Space),,,,,-- --- ---- --- French ----- ------- ---- -- --- ------- --<br>------- ---------- ------ -- ----- -- ----- -- ---- ------<br>--- ----- --- --- ------ -------- ----- --- ------ ----- --<br>----- ----- ---------- --- --- ------ ------ ---- -- ------<br>------- --- ------ ----- --- ---- ------- -- ---- --- --<br>------- ------,99701.29999998212,99700.5,99204.898,99206.59999999404,99221.568,99705.023,,4,French
screen,html.Screen,0_2_1_1_5,2021-10-22T11:43:23.509Z,,,,,,,,,,,,,,,,54,,,,,,,,,,,,,,499.27699998211756,,response,,,100,,,,,,Space,keypress(Space),,,,,-- --- ---- --- ------ crown ------- ---- -- --- ------- --<br>------- ---------- ------ -- ----- -- ----- -- ---- ------<br>--- ----- --- --- ------ -------- ----- --- ------ ----- --<br>----- ----- ---------- --- --- ------ ------ ---- -- ------<br>------- --- ------ ----- --- ---- ------- -- ---- --- --<br>------- ------,100205.40000000596,100204.29999998212,99688.353,99701.40000000596,99705.023,100221.802,,5,crown
screen,html.Screen,0_2_1_1_6,2021-10-22T11:43:23.988Z,,,,,,,,,,,,,,,,54,,,,,,,,,,,,,,462.49799998212256,,response,,,100,,,,,,Space,keypress(Space),,,,,-- --- ---- --- ------ ----- secured ---- -- --- ------- --<br>------- ---------- ------ -- ----- -- ----- -- ---- ------<br>--- ----- --- --- ------ -------- ----- --- ------ ----- --<br>----- ----- ---------- --- --- ------ ------ ---- -- ------<br>------- --- ------ ----- --- ---- ------- -- ---- --- --<br>------- ------,100685.09999999404,100684.29999998212,100205.132,100205.59999999404,100221.802,100688.597,,6,secured
screen,html.Screen,0_2_1_1_7,2021-10-22T11:43:24.580Z,,,,,,,,,,,,,,,,54,,,,,,,,,,,,,,587.6029999880848,,response,,,100,,,,,,Space,keypress(Space),,,,,-- --- ---- --- ------ ----- ------- much -- --- ------- --<br>------- ---------- ------ -- ----- -- ----- -- ---- ------<br>--- ----- --- --- ------ -------- ----- --- ------ ----- --<br>----- ----- ---------- --- --- ------ ------ ---- -- ------<br>------- --- ------ ----- --- ---- ------- -- ---- --- --<br>------- ------,101277,101276.19999998808,100671.927,100685.19999998808,100688.597,101288.791,,7,much
screen,html.Screen,0_2_1_1_8,2021-10-22T11:43:25.108Z,,,,,,,,,,,,,,,,54,,,,,,,,,,,,,,515.4089999880816,,response,,,100,,,,,,Space,keypress(Space),,,,,-- --- ---- --- ------ ----- ------- ---- of --- ------- --<br>------- ---------- ------ -- ----- -- ----- -- ---- ------<br>--- ----- --- --- ------ -------- ----- --- ------ ----- --<br>----- ----- ---------- --- --- ------ ------ ---- -- ------<br>------- --- ------ ----- --- ---- ------- -- ---- --- --<br>------- ------,101805,101804.19999998808,101272.12,101277.19999998808,101288.791,101822.197,,8,of
screen,html.Screen,0_2_1_1_9,2021-10-22T11:43:25.668Z,,,,,,,,,,,,,,,,54,,,,,,,,,,,,,,541.9029999940394,,response,,,100,,,,,,Space,keypress(Space),,,,,-- --- ---- --- ------ ----- ------- ---- -- its ------- --<br>------- ---------- ------ -- ----- -- ----- -- ---- ------<br>--- ----- --- --- ------ -------- ----- --- ------ ----- --<br>----- ----- ---------- --- --- ------ ------ ---- -- ------<br>------- --- ------ ----- --- ---- ------- -- ---- --- --<br>------- ------,102364.90000000596,102364.09999999404,101805.527,101805.19999998808,101822.197,102372.398,,9,its
screen,html.Screen,0_2_1_1_10,2021-10-22T11:43:26.140Z,,,,,,,,,,,,,,,,54,,,,,,,,,,,,,,463.7019999940385,,response,,,100,,,,,,Space,keypress(Space),,,,,-- --- ---- --- ------ ----- ------- ---- -- --- revenue --<br>------- ---------- ------ -- ----- -- ----- -- ---- ------<br>--- ----- --- --- ------ -------- ----- --- ------ ----- --<br>----- ----- ---------- --- --- ------ ------ ---- -- ------<br>------- --- ------ ----- --- ---- ------- -- ---- --- --<br>------- ------,102837,102836.09999999404,102355.727,102365.09999999404,102372.398,102839.108,,10,revenue
screen,html.Screen,0_2_1_1_11,2021-10-22T11:43:26.612Z,,,,,,,,,,,,,,,,54,,,,,,,,,,,,,,469.29200000596757,,response,,,100,,,,,,Space,keypress(Space),,,,,-- --- ---- --- ------ ----- ------- ---- -- --- ------- by<br>------- ---------- ------ -- ----- -- ----- -- ---- ------<br>--- ----- --- --- ------ -------- ----- --- ------ ----- --<br>----- ----- ---------- --- --- ------ ------ ---- -- ------<br>------- --- ------ ----- --- ---- ------- -- ---- --- --<br>------- ------,103309.19999998808,103308.40000000596,102822.438,102837.19999998808,102839.108,103322.627,,11,by
screen,html.Screen,0_2_1_1_12,2021-10-22T11:43:27.116Z,,,,,,,,,,,,,,,,54,,,,,,,,,,,,,,489.4729999940464,,response,,,100,,,,,,Space,keypress(Space),,,,,-- --- ---- --- ------ ----- ------- ---- -- --- ------- --<br>issuing ---------- ------ -- ----- -- ----- -- ---- ------<br>--- ----- --- --- ------ -------- ----- --- ------ ----- --<br>----- ----- ---------- --- --- ------ ------ ---- -- ------<br>------- --- ------ ----- --- ---- ------- -- ---- --- --<br>------- ------,103812.79999998212,103812.09999999404,103305.956,103309.40000000596,103322.627,103822.71,,12,issuing
screen,html.Screen,0_2_1_1_13,2021-10-22T11:43:27.620Z,,,,,,,,,,,,,,,,54,,,,,,,,,,,,,,493.38999999403313,,response,,,100,,,,,,Space,keypress(Space),,,,,-- --- ---- --- ------ ----- ------- ---- -- --- ------- --<br>------- government ------ -- ----- -- ----- -- ---- ------<br>--- ----- --- --- ------ -------- ----- --- ------ ----- --<br>----- ----- ---------- --- --- ------ ------ ---- -- ------<br>------- --- ------ ----- --- ---- ------- -- ---- --- --<br>------- ------,104316.79999998212,104316.09999999404,103806.04,103813,103822.71,104322.834,,13,government
screen,html.Screen,0_2_1_1_14,2021-10-22T11:43:28.588Z,,,,,,,,,,,,,,,,54,,,,,,,,,,,,,,961.1659999999974,,response,,,100,,,,,,Space,keypress(Space),,,,,-- --- ---- --- ------ ----- ------- ---- -- --- ------- --<br>------- ---------- bonds. -- ----- -- ----- -- ---- ------<br>--- ----- --- --- ------ -------- ----- --- ------ ----- --<br>----- ----- ---------- --- --- ------ ------ ---- -- ------<br>------- --- ------ ----- --- ---- ------- -- ---- --- --<br>------- ------,105284.90000000596,105284,104306.164,104317.09999999404,104322.834,105289.716,,14,bonds.
screen,html.Screen,0_2_1_1_15,2021-10-22T11:43:29.084Z,,,,,,,,,,,,,,,,54,,,,,,,,,,,,,,490.28399999999965,,response,,,100,,,,,,Space,keypress(Space),,,,,-- --- ---- --- ------ ----- ------- ---- -- --- ------- --<br>------- ---------- ------ In ----- -- ----- -- ---- ------<br>--- ----- --- --- ------ -------- ----- --- ------ ----- --<br>----- ----- ---------- --- --- ------ ------ ---- -- ------<br>------- --- ------ ----- --- ---- ------- -- ---- --- --<br>------- ------,105780.79999998212,105780,105273.046,105285.09999999404,105289.716,105789.915,,15,In
screen,html.Screen,0_2_1_1_16,2021-10-22T11:43:30.868Z,,,,,,,,,,,,,,,,54,,,,,,,,,,,,,,1773.884999982125,,response,,,100,,,,,,Space,keypress(Space),,,,,"-- --- ---- --- ------ ----- ------- ---- -- --- ------- --<br>------- ---------- ------ -- 1727, -- ----- -- ---- ------<br>--- ----- --- --- ------ -------- ----- --- ------ ----- --<br>----- ----- ---------- --- --- ------ ------ ---- -- ------<br>------- --- ------ ----- --- ---- ------- -- ---- --- --<br>------- ------",107564.59999999404,107563.79999998212,105773.244,105781,105789.915,107573.586,,16,"1727,"
screen,html.Screen,0_2_1_1_17,2021-10-22T11:43:31.588Z,,,,,,,,,,,,,,,,54,,,,,,,,,,,,,,710.7139999821229,,response,,,100,,,,,,Space,keypress(Space),,,,,-- --- ---- --- ------ ----- ------- ---- -- --- ------- --<br>------- ---------- ------ -- ----- in ----- -- ---- ------<br>--- ----- --- --- ------ -------- ----- --- ------ ----- --<br>----- ----- ---------- --- --- ------ ------ ---- -- ------<br>------- --- ------ ----- --- ---- ------- -- ---- --- --<br>------- ------,108285.19999998808,108284.29999998212,107556.916,107564.79999998212,107573.586,108290.437,,17,in
screen,html.Screen,0_2_1_1_18,2021-10-22T11:43:32.196Z,,,,,,,,,,,,,,,,54,,,,,,,,,,,,,,601.3629999821133,,response,,,100,,,,,,Space,keypress(Space),,,,,-- --- ---- --- ------ ----- ------- ---- -- --- ------- --<br>------- ---------- ------ -- ----- -- order -- ---- ------<br>--- ----- --- --- ------ -------- ----- --- ------ ----- --<br>----- ----- ---------- --- --- ------ ------ ---- -- ------<br>------- --- ------ ----- --- ---- ------- -- ---- --- --<br>------- ------,108892.5,108891.79999998212,108273.767,108285.40000000596,108290.437,108907.309,,18,order
screen,html.Screen,0_2_1_1_19,2021-10-22T11:43:32.660Z,,,,,,,,,,,,,,,,54,,,,,,,,,,,,,,448.39099998808524,,response,,,100,,,,,,Space,keypress(Space),,,,,-- --- ---- --- ------ ----- ------- ---- -- --- ------- --<br>------- ---------- ------ -- ----- -- ----- to ---- ------<br>--- ----- --- --- ------ -------- ----- --- ------ ----- --<br>----- ----- ---------- --- --- ------ ------ ---- -- ------<br>------- --- ------ ----- --- ---- ------- -- ---- --- --<br>------- ------,109356.5,109355.69999998808,108890.639,108892.79999998212,108907.309,109357.427,,19,to
screen,html.Screen,0_2_1_1_20,2021-10-22T11:43:33.252Z,,,,,,,,,,,,,,,,54,,,,,,,,,,,,,,590.272999988083,,response,,,100,,,,,,Space,keypress(Space),,,,,-- --- ---- --- ------ ----- ------- ---- -- --- ------- --<br>------- ---------- ------ -- ----- -- ----- -- save ------<br>--- ----- --- --- ------ -------- ----- --- ------ ----- --<br>----- ----- ---------- --- --- ------ ------ ---- -- ------<br>------- --- ------ ----- --- ---- ------- -- ---- --- --<br>------- ------,109948.5,109947.69999998808,109340.757,109356.79999998212,109357.427,109957.571,,20,save
screen,html.Screen,0_2_1_1_21,2021-10-22T11:43:33.732Z,,,,,,,,,,,,,,,,54,,,,,,,,,,,,,,470.1289999880828,,response,,,100,,,,,,Space,keypress(Space),,,,,"-- --- ---- --- ------ ----- ------- ---- -- --- ------- --<br>------- ---------- ------ -- ----- -- ----- -- ---- money,<br>--- ----- --- --- ------ -------- ----- --- ------ ----- --<br>----- ----- ---------- --- --- ------ ------ ---- -- ------<br>------- --- ------ ----- --- ---- ------- -- ---- --- --<br>------- ------",110428.40000000596,110427.69999998808,109940.901,109948.69999998808,109957.571,110440.948,,21,"money,"
screen,html.Screen,0_2_1_1_22,2021-10-22T11:43:34.164Z,,,,,,,,,,,,,,,,54,,,,,,,,,,,,,,418.6519999940356,,response,,,100,,,,,,Space,keypress(Space),,,,,-- --- ---- --- ------ ----- ------- ---- -- --- ------- --<br>------- ---------- ------ -- ----- -- ----- -- ---- ------<br>the ----- --- --- ------ -------- ----- --- ------ ----- --<br>----- ----- ---------- --- --- ------ ------ ---- -- ------<br>------- --- ------ ----- --- ---- ------- -- ---- --- --<br>------- ------,110860.5,110859.59999999404,110424.279,110428.59999999404,110440.948,110874.518,,22,the
screen,html.Screen,0_2_1_1_23,2021-10-22T11:43:34.612Z,,,,,,,,,,,,,,,,54,,,,,,,,,,,,,,433.08199999404314,,response,,,100,,,,,,Space,keypress(Space),,,,,-- --- ---- --- ------ ----- ------- ---- -- --- ------- --<br>------- ---------- ------ -- ----- -- ----- -- ---- ------<br>--- state --- --- ------ -------- ----- --- ------ ----- --<br>----- ----- ---------- --- --- ------ ------ ---- -- ------<br>------- --- ------ ----- --- ---- ------- -- ---- --- --<br>------- ------,111308.5,111307.59999999404,110857.847,110860.69999998808,110874.518,111324.481,,23,state
screen,html.Screen,0_2_1_1_24,2021-10-22T11:43:35.003Z,,,,,,,,,,,,,,,,54,,,,,,,,,,,,,,375.01900000000023,,response,,,100,,,,,,Space,keypress(Space),,,,,-- --- ---- --- ------ ----- ------- ---- -- --- ------- --<br>------- ---------- ------ -- ----- -- ----- -- ---- ------<br>--- ----- cut --- ------ -------- ----- --- ------ ----- --<br>----- ----- ---------- --- --- ------ ------ ---- -- ------<br>------- --- ------ ----- --- ---- ------- -- ---- --- --<br>------- ------,111700.29999998212,111699.5,111307.812,111308.59999999404,111324.481,111708.061,,24,cut
screen,html.Screen,0_2_1_1_25,2021-10-22T11:43:35.444Z,,,,,,,,,,,,,,,,54,,,,,,,,,,,,,,431.538999994038,,response,,,100,,,,,,Space,keypress(Space),,,,,-- --- ---- --- ------ ----- ------- ---- -- --- ------- --<br>------- ---------- ------ -- ----- -- ----- -- ---- ------<br>--- ----- --- the ------ -------- ----- --- ------ ----- --<br>----- ----- ---------- --- --- ------ ------ ---- -- ------<br>------- --- ------ ----- --- ---- ------- -- ---- --- --<br>------- ------,112140.40000000596,112139.59999999404,111691.39,111700.5,111708.061,112141.499,,25,the
screen,html.Screen,0_2_1_1_26,2021-10-22T11:43:36.275Z,,,,,,,,,,,,,,,,54,,,,,,,,,,,,,,830.0010000000038,,response,,,100,,,,,,Space,keypress(Space),,,,,-- --- ---- --- ------ ----- ------- ---- -- --- ------- --<br>------- ---------- ------ -- ----- -- ----- -- ---- ------<br>--- ----- --- --- bonds' -------- ----- --- ------ ----- --<br>----- ----- ---------- --- --- ------ ------ ---- -- ------<br>------- --- ------ ----- --- ---- ------- -- ---- --- --<br>------- ------,112972.19999998808,112971.5,112124.828,112140.59999999404,112141.499,112974.956,,26,bonds'
screen,html.Screen,0_2_1_1_27,2021-10-22T11:43:36.883Z,,,,,,,,,,,,,,,,54,,,,,,,,,,,,,,604.5439999999944,,response,,,100,,,,,,Space,keypress(Space),,,,,-- --- ---- --- ------ ----- ------- ---- -- --- ------- --<br>------- ---------- ------ -- ----- -- ----- -- ---- ------<br>--- ----- --- --- ------ interest ----- --- ------ ----- --<br>----- ----- ---------- --- --- ------ ------ ---- -- ------<br>------- --- ------ ----- --- ---- ------- -- ---- --- --<br>------- ------,113580.29999998212,113579.5,112958.286,112972.5,112974.956,113591.78,,27,interest
screen,html.Screen,0_2_1_1_28,2021-10-22T11:43:37.363Z,,,,,,,,,,,,,,,,54,,,,,,,,,,,,,,467.62000000596163,,response,,,100,,,,,,Space,keypress(Space),,,,,-- --- ---- --- ------ ----- ------- ---- -- --- ------- --<br>------- ---------- ------ -- ----- -- ----- -- ---- ------<br>--- ----- --- --- ------ -------- rate. --- ------ ----- --<br>----- ----- ---------- --- --- ------ ------ ---- -- ------<br>------- --- ------ ----- --- ---- ------- -- ---- --- --<br>------- ------,114060.09999999404,114059.40000000596,113575.11,113580.5,113591.78,114075.26,,28,rate.
screen,html.Screen,0_2_1_1_29,2021-10-22T11:43:37.779Z,,,,,,,,,,,,,,,,54,,,,,,,,,,,,,,400.1400000059657,,response,,,100,,,,,,Space,keypress(Space),,,,,-- --- ---- --- ------ ----- ------- ---- -- --- ------- --<br>------- ---------- ------ -- ----- -- ----- -- ---- ------<br>--- ----- --- --- ------ -------- ----- The ------ ----- --<br>----- ----- ---------- --- --- ------ ------ ---- -- ------<br>------- --- ------ ----- --- ---- ------- -- ---- --- --<br>------- ------,114476.09999999404,114475.40000000596,114058.59,114060.40000000596,114075.26,114492.039,,29,The
screen,html.Screen,0_2_1_1_30,2021-10-22T11:43:38.155Z,,,,,,,,,,,,,,,,54,,,,,,,,,,,,,,359.36100000595616,,response,,,100,,,,,,Space,keypress(Space),,,,,-- --- ---- --- ------ ----- ------- ---- -- --- ------- --<br>------- ---------- ------ -- ----- -- ----- -- ---- ------<br>--- ----- --- --- ------ -------- ----- --- market ----- --<br>----- ----- ---------- --- --- ------ ------ ---- -- ------<br>------- --- ------ ----- --- ---- ------- -- ---- --- --<br>------- ------,114852.09999999404,114851.40000000596,114475.369,114476.40000000596,114492.039,114858.8,,30,market
screen,html.Screen,0_2_1_1_31,2021-10-22T11:43:38.795Z,,,,,,,,,,,,,,,,54,,,,,,,,,,,,,,632.4999999821157,,response,,,100,,,,,,Space,keypress(Space),,,,,-- --- ---- --- ------ ----- ------- ---- -- --- ------- --<br>------- ---------- ------ -- ----- -- ----- -- ---- ------<br>--- ----- --- --- ------ -------- ----- --- ------ value --<br>----- ----- ---------- --- --- ------ ------ ---- -- ------<br>------- --- ------ ----- --- ---- ------- -- ---- --- --<br>------- ------,115492.09999999404,115491.29999998212,114842.13,114852.29999998212,114858.8,115508.842,,31,value
screen,html.Screen,0_2_1_1_32,2021-10-22T11:43:39.435Z,,,,,,,,,,,,,,,,54,,,,,,,,,,,,,,622.3579999880749,,response,,,100,,,,,,Space,keypress(Space),,,,,-- --- ---- --- ------ ----- ------- ---- -- --- ------- --<br>------- ---------- ------ -- ----- -- ----- -- ---- ------<br>--- ----- --- --- ------ -------- ----- --- ------ ----- of<br>----- ----- ---------- --- --- ------ ------ ---- -- ------<br>------- --- ------ ----- --- ---- ------- -- ---- --- --<br>------- ------,116132,116131.19999998808,115492.173,115492.40000000596,115508.842,116142.563,,32,of
screen,html.Screen,0_2_1_1_33,2021-10-22T11:43:40.115Z,,,,,,,,,,,,,,,,54,,,,,,,,,,,,,,668.6369999880844,,response,,,100,,,,,,Space,keypress(Space),,,,,-- --- ---- --- ------ ----- ------- ---- -- --- ------- --<br>------- ---------- ------ -- ----- -- ----- -- ---- ------<br>--- ----- --- --- ------ -------- ----- --- ------ ----- --<br>these ----- ---------- --- --- ------ ------ ---- -- ------<br>------- --- ------ ----- --- ---- ------- -- ---- --- --<br>------- ------,116812,116811.19999998808,116125.891,116132.19999998808,116142.563,116825.887,,33,these
screen,html.Screen,0_2_1_1_34,2021-10-22T11:43:40.811Z,,,,,,,,,,,,,,,,54,,,,,,,,,,,,,,681.3129999880766,,response,,,100,,,,,,Space,keypress(Space),,,,,-- --- ---- --- ------ ----- ------- ---- -- --- ------- --<br>------- ---------- ------ -- ----- -- ----- -- ---- ------<br>--- ----- --- --- ------ -------- ----- --- ------ ----- --<br>----- bonds ---------- --- --- ------ ------ ---- -- ------<br>------- --- ------ ----- --- ---- ------- -- ---- --- --<br>------- ------,117508,117507.19999998808,116809.217,116812.19999998808,116825.887,117509.519,,34,bonds
screen,html.Screen,0_2_1_1_35,2021-10-22T11:43:41.964Z,,,,,,,,,,,,,,,,54,,,,,,,,,,,,,,1149.9809999999998,,response,,,100,,,,,,Space,keypress(Space),,,,,"-- --- ---- --- ------ ----- ------- ---- -- --- ------- --<br>------- ---------- ------ -- ----- -- ----- -- ---- ------<br>--- ----- --- --- ------ -------- ----- --- ------ ----- --<br>----- ----- plummeted, --- --- ------ ------ ---- -- ------<br>------- --- ------ ----- --- ---- ------- -- ---- --- --<br>------- ------",118660.40000000596,118659.5,117492.848,117508.19999998808,117509.519,118676.33,,35,"plummeted,"
screen,html.Screen,0_2_1_1_36,2021-10-22T11:43:42.459Z,,,,,,,,,,,,,,,,54,,,,,,,,,,,,,,478.8699999880773,,response,,,100,,,,,,Space,keypress(Space),,,,,-- --- ---- --- ------ ----- ------- ---- -- --- ------- --<br>------- ---------- ------ -- ----- -- ----- -- ---- ------<br>--- ----- --- --- ------ -------- ----- --- ------ ----- --<br>----- ----- ---------- and --- ------ ------ ---- -- ------<br>------- --- ------ ----- --- ---- ------- -- ---- --- --<br>------- ------,119155.90000000596,119155.19999998808,118659.66,118660.59999999404,118676.33,119159.772,,36,and
screen,html.Screen,0_2_1_1_37,2021-10-22T11:43:42.963Z,,,,,,,,,,,,,,,,54,,,,,,,,,,,,,,499.32799999404233,,response,,,100,,,,,,Space,keypress(Space),,,,,-- --- ---- --- ------ ----- ------- ---- -- --- ------- --<br>------- ---------- ------ -- ----- -- ----- -- ---- ------<br>--- ----- --- --- ------ -------- ----- --- ------ ----- --<br>----- ----- ---------- --- the ------ ------ ---- -- ------<br>------- --- ------ ----- --- ---- ------- -- ---- --- --<br>------- ------,119659.90000000596,119659.09999999404,119143.102,119156.09999999404,119159.772,119676.611,,37,the
screen,html.Screen,0_2_1_1_38,2021-10-22T11:43:43.459Z,,,,,,,,,,,,,,,,54,,,,,,,,,,,,,,478.4889999940351,,response,,,100,,,,,,Space,keypress(Space),,,,,-- --- ---- --- ------ ----- ------- ---- -- --- ------- --<br>------- ---------- ------ -- ----- -- ----- -- ---- ------<br>--- ----- --- --- ------ -------- ----- --- ------ ----- --<br>----- ----- ---------- --- --- market ------ ---- -- ------<br>------- --- ------ ----- --- ---- ------- -- ---- --- --<br>------- ------,120155.79999998212,120155.09999999404,119659.941,119660.19999998808,119676.611,120160.226,,38,market
screen,html.Screen,0_2_1_1_39,2021-10-22T11:43:44.007Z,,,,,,,,,,,,,,,,54,,,,,,,,,,,,,,538.7740000000049,,response,,,100,,,,,,Space,keypress(Space),,,,,-- --- ---- --- ------ ----- ------- ---- -- --- ------- --<br>------- ---------- ------ -- ----- -- ----- -- ---- ------<br>--- ----- --- --- ------ -------- ----- --- ------ ----- --<br>----- ----- ---------- --- --- ------ became ---- -- ------<br>------- --- ------ ----- --- ---- ------- -- ---- --- --<br>------- ------,120699.79999998212,120699,120143.554,120156,120160.226,120710.137,,39,became
screen,html.Screen,0_2_1_1_40,2021-10-22T11:43:44.543Z,,,,,,,,,,,,,,,,54,,,,,,,,,,,,,,524.8629999999976,,response,,,100,,,,,,Space,keypress(Space),,,,,-- --- ---- --- ------ ----- ------- ---- -- --- ------- --<br>------- ---------- ------ -- ----- -- ----- -- ---- ------<br>--- ----- --- --- ------ -------- ----- --- ------ ----- --<br>----- ----- ---------- --- --- ------ ------ wary -- ------<br>------- --- ------ ----- --- ---- ------- -- ---- --- --<br>------- ------,121235.79999998212,121235,120693.468,120700.09999999404,120710.137,121243.769,,40,wary
screen,html.Screen,0_2_1_1_41,2021-10-22T11:43:44.999Z,,,,,,,,,,,,,,,,54,,,,,,,,,,,,,,447.23099999999977,,response,,,100,,,,,,Space,keypress(Space),,,,,-- --- ---- --- ------ ----- ------- ---- -- --- ------- --<br>------- ---------- ------ -- ----- -- ----- -- ---- ------<br>--- ----- --- --- ------ -------- ----- --- ------ ----- --<br>----- ----- ---------- --- --- ------ ------ ---- of ------<br>------- --- ------ ----- --- ---- ------- -- ---- --- --<br>------- ------,121691.69999998808,121691,121227.098,121236.09999999404,121243.769,121693.871,,41,of
screen,html.Screen,0_2_1_1_42,2021-10-22T11:43:45.479Z,,,,,,,,,,,,,,,,54,,,,,,,,,,,,,,477.0290000059613,,response,,,100,,,,,,Space,keypress(Space),,,,,-- --- ---- --- ------ ----- ------- ---- -- --- ------- --<br>------- ---------- ------ -- ----- -- ----- -- ---- ------<br>--- ----- --- --- ------ -------- ----- --- ------ ----- --<br>----- ----- ---------- --- --- ------ ------ ---- -- French<br>------- --- ------ ----- --- ---- ------- -- ---- --- --<br>------- ------,122171.59999999404,122170.90000000596,121677.2,121692,121693.871,122177.287,,42,French
screen,html.Screen,0_2_1_1_43,2021-10-22T11:43:46.055Z,,,,,,,,,,,,,,,,54,,,,,,,,,,,,,,569.6130000059638,,response,,,100,,,,,,Space,keypress(Space),,,,,-- --- ---- --- ------ ----- ------- ---- -- --- ------- --<br>------- ---------- ------ -- ----- -- ----- -- ---- ------<br>--- ----- --- --- ------ -------- ----- --- ------ ----- --<br>----- ----- ---------- --- --- ------ ------ ---- -- ------<br>credit. --- ------ ----- --- ---- ------- -- ---- --- --<br>------- ------,122747.69999998808,122746.90000000596,122160.617,122171.90000000596,122177.287,122760.742,,43,credit.
screen,html.Screen,0_2_1_1_44,2021-10-22T11:43:46.607Z,,,,,,,,,,,,,,,,54,,,,,,,,,,,,,,538.1580000059621,,response,,,100,,,,,,Space,keypress(Space),,,,,-- --- ---- --- ------ ----- ------- ---- -- --- ------- --<br>------- ---------- ------ -- ----- -- ----- -- ---- ------<br>--- ----- --- --- ------ -------- ----- --- ------ ----- --<br>----- ----- ---------- --- --- ------ ------ ---- -- ------<br>------- The ------ ----- --- ---- ------- -- ---- --- --<br>------- ------,123299.59999999404,123298.90000000596,122744.072,122748,122760.742,123310.786,,44,The
screen,html.Screen,0_2_1_1_45,2021-10-22T11:43:47.207Z,,,,,,,,,,,,,,,,54,,,,,,,,,,,,,,588.1140000059677,,response,,,100,,,,,,Space,keypress(Space),,,,,-- --- ---- --- ------ ----- ------- ---- -- --- ------- --<br>------- ---------- ------ -- ----- -- ----- -- ---- ------<br>--- ----- --- --- ------ -------- ----- --- ------ ----- --<br>----- ----- ---------- --- --- ------ ------ ---- -- ------<br>------- --- French ----- --- ---- ------- -- ---- --- --<br>------- ------,123899.59999999404,123898.90000000596,123294.117,123299.90000000596,123310.786,123911.104,,45,French
screen,html.Screen,0_2_1_1_46,2021-10-22T11:43:47.831Z,,,,,,,,,,,,,,,,54,,,,,,,,,,,,,,611.695999982112,,response,,,100,,,,,,Space,keypress(Space),,,,,-- --- ---- --- ------ ----- ------- ---- -- --- ------- --<br>------- ---------- ------ -- ----- -- ----- -- ---- ------<br>--- ----- --- --- ------ -------- ----- --- ------ ----- --<br>----- ----- ---------- --- --- ------ ------ ---- -- ------<br>------- --- ------ state --- ---- ------- -- ---- --- --<br>------- ------,124523.59999999404,124522.79999998212,123894.433,123899.79999998212,123911.104,124527.761,,46,state
screen,html.Screen,0_2_1_1_47,2021-10-22T11:43:48.447Z,,,,,,,,,,,,,,,,54,,,,,,,,,,,,,,610.9389999880805,,response,,,100,,,,,,Space,keypress(Space),,,,,-- --- ---- --- ------ ----- ------- ---- -- --- ------- --<br>------- ---------- ------ -- ----- -- ----- -- ---- ------<br>--- ----- --- --- ------ -------- ----- --- ------ ----- --<br>----- ----- ---------- --- --- ------ ------ ---- -- ------<br>------- --- ------ ----- was ---- ------- -- ---- --- --<br>------- ------,125139.5,125138.69999998808,124511.092,124523.79999998212,124527.761,125144.73,,47,was
screen,html.Screen,0_2_1_1_48,2021-10-22T11:43:48.974Z,,,,,,,,,,,,,,,,54,,,,,,,,,,,,,,521.9699999880831,,response,,,100,,,,,,Space,keypress(Space),,,,,-- --- ---- --- ------ ----- ------- ---- -- --- ------- --<br>------- ---------- ------ -- ----- -- ----- -- ---- ------<br>--- ----- --- --- ------ -------- ----- --- ------ ----- --<br>----- ----- ---------- --- --- ------ ------ ---- -- ------<br>------- --- ------ ----- --- left ------- -- ---- --- --<br>------- ------,125667.40000000596,125666.69999998808,125128.059,125139.69999998808,125144.73,125678.194,,48,left
screen,html.Screen,0_2_1_1_49,2021-10-22T11:43:49.518Z,,,,,,,,,,,,,,,,54,,,,,,,,,,,,,,532.5059999880759,,response,,,100,,,,,,Space,keypress(Space),,,,,-- --- ---- --- ------ ----- ------- ---- -- --- ------- --<br>------- ---------- ------ -- ----- -- ----- -- ---- ------<br>--- ----- --- --- ------ -------- ----- --- ------ ----- --<br>----- ----- ---------- --- --- ------ ------ ---- -- ------<br>------- --- ------ ----- --- ---- without -- ---- --- --<br>------- ------,126211.5,126210.69999998808,125661.523,125667.69999998808,125678.194,126228.269,,49,without
screen,html.Screen,0_2_1_1_50,2021-10-22T11:43:50.126Z,,,,,,,,,,,,,,,,54,,,,,,,,,,,,,,590.4309999880788,,response,,,100,,,,,,Space,keypress(Space),,,,,-- --- ---- --- ------ ----- ------- ---- -- --- ------- --<br>------- ---------- ------ -- ----- -- ----- -- ---- ------<br>--- ----- --- --- ------ -------- ----- --- ------ ----- --<br>----- ----- ---------- --- --- ------ ------ ---- -- ------<br>------- --- ------ ----- --- ---- ------- an ---- --- --<br>------- ------,126819.40000000596,126818.69999998808,126211.599,126211.69999998808,126228.269,126828.3,,50,an
screen,html.Screen,0_2_1_1_51,2021-10-22T11:43:50.686Z,,,,,,,,,,,,,,,,54,,,,,,,,,,,,,,550.1999999999971,,response,,,100,,,,,,Space,keypress(Space),,,,,-- --- ---- --- ------ ----- ------- ---- -- --- ------- --<br>------- ---------- ------ -- ----- -- ----- -- ---- ------<br>--- ----- --- --- ------ -------- ----- --- ------ ----- --<br>----- ----- ---------- --- --- ------ ------ ---- -- ------<br>------- --- ------ ----- --- ---- ------- -- easy --- --<br>------- ------,127379.29999998212,127378.5,126811.631,126819.69999998808,126828.3,127395.358,,51,easy
screen,html.Screen,0_2_1_1_52,2021-10-22T11:43:51.262Z,,,,,,,,,,,,,,,,54,,,,,,,,,,,,,,559.2419999940466,,response,,,100,,,,,,Space,keypress(Space),,,,,-- --- ---- --- ------ ----- ------- ---- -- --- ------- --<br>------- ---------- ------ -- ----- -- ----- -- ---- ------<br>--- ----- --- --- ------ -------- ----- --- ------ ----- --<br>----- ----- ---------- --- --- ------ ------ ---- -- ------<br>------- --- ------ ----- --- ---- ------- -- ---- way --<br>------- ------,127955.29999998212,127954.59999999404,127378.686,127379.5,127395.358,127962.032,,52,way
screen,html.Screen,0_2_1_1_53,2021-10-22T11:43:51.710Z,,,,,,,,,,,,,,,,54,,,,,,,,,,,,,,440.567999994033,,response,,,100,,,,,,Space,keypress(Space),,,,,-- --- ---- --- ------ ----- ------- ---- -- --- ------- --<br>------- ---------- ------ -- ----- -- ----- -- ---- ------<br>--- ----- --- --- ------ -------- ----- --- ------ ----- --<br>----- ----- ---------- --- --- ------ ------ ---- -- ------<br>------- --- ------ ----- --- ---- ------- -- ---- --- of<br>------- ------,128403.19999998808,128402.59999999404,127945.362,127955.5,127962.032,128412.054,,53,of
screen,html.Screen,0_2_1_1_54,2021-10-22T11:43:52.383Z,,,,,,,,,,,,,,,,54,,,,,,,,,,,,,,662.7459999821149,,response,,,100,,,,,,Space,keypress(Space),,,,,-- --- ---- --- ------ ----- ------- ---- -- --- ------- --<br>------- ---------- ------ -- ----- -- ----- -- ---- ------<br>--- ----- --- --- ------ -------- ----- --- ------ ----- --<br>----- ----- ---------- --- --- ------ ------ ---- -- ------<br>------- --- ------ ----- --- ---- ------- -- ---- --- --<br>raising ------,129075.59999999404,129074.79999998212,128395.385,128403.5,128412.054,129079.057,,54,raising
screen,html.Screen,0_2_1_1_55,2021-10-22T11:43:53.062Z,,,,,,,,,,,,,,,,54,,,,,,,,,,,,,,675.4429999999993,,response,,,100,,,,,,Space,keypress(Space),,,,,-- --- ---- --- ------ ----- ------- ---- -- --- ------- --<br>------- ---------- ------ -- ----- -- ----- -- ---- ------<br>--- ----- --- --- ------ -------- ----- --- ------ ----- --<br>----- ----- ---------- --- --- ------ ------ ---- -- ------<br>------- --- ------ ----- --- ---- ------- -- ---- --- --<br>------- money.,129755.29999998212,129754.5,129062.386,129075.79999998212,129079.057,129762.493,,55,money.
Item 100,flow.Loop,0_2_1_1,2021-10-22T11:43:53.063Z,,,,,,,,,,,,,,,,,,,,,,,,,,,,,,33000.30100000001,,completion,,,,E,,,,,,,,,,silence,,129755.69999998808,129754.5,96737.529,96738.90000000596,96754.199,129762.493,,,
Question 1,html.Screen,0_2_1_2,2021-10-22T11:43:56.150Z,,,,,,,,,,,,,,,,,,,,,,,,,,,true,TRUE,,3079.506999999998,,response,,,100,E,,,,,TRUE,click #choice-1,,,,silence,,132843.09999999404,132842,129745.823,129755.79999998212,129762.493,132846.618,,,
Question 2,html.Screen,0_2_1_3,2021-10-22T11:43:59.958Z,,,,,,,,,,,,,,,,,,,,,,,,,,,true,FALSE,,3803.282000005973,,response,,,100,E,,,,,FALSE,click #choice-2,,,,silence,,136651.09999999404,136649.90000000596,132829.948,132843.29999998212,132846.618,136664.065,,,
Item 100,flow.Sequence,0_2_1,2021-10-22T11:43:59.959Z,,,,,,,,,,,,,,,,,,,,,,,,,,,,,,49898.098000005964,,completion,,,,,,,,,,,,,,,,136651.5,136649.90000000596,86735.132,86750.69999998808,86751.802,136664.065,,,
End of Practice,html.Page,0_2_2,2021-10-22T11:44:02.711Z,,,,,,,,,,,,,,,,,,,,,,,,,,,,,,2739.1349999880767,,form submission,,,,,,,,,,,,,,,,139403.69999998808,139403.19999998808,136647.396,136651.69999998808,136664.065,139414.846,,,
Practice,flow.Sequence,0_2,2021-10-22T11:44:02.711Z,,,,,,,,,,,,,,,,,,,,,,,,,,,,,,107648.79599998808,,completion,,,,,,,,,,,,,,,,139404.09999999404,139403.19999998808,31737.734,31754.5,31754.404,139414.846,,,
Trap_instruction,html.Page,0_3_0,2021-10-22T11:44:06.606Z,,,,,,,,,,,,,,,,,,,,,,,,,,,,,,3883.8539999880886,,form submission,,,,,,,,,,,,,,,,143299.40000000596,143298.69999998808,139398.176,139404.29999998212,139414.846,143332.475,,,
trap_trial,html.Screen,0_3_1,2021-10-22T11:44:10.141Z,,,,,,,,,,,,,,,,,,,,,,,,,,,true,1,,3500.6249999940337,,response,,,,,,,,,1,click #choice-1,,,,,,146834.40000000596,146833.09999999404,143282.465,143299.5,143332.475,146849.882,,,
end of trap trial,html.Page,0_3_2,2021-10-22T11:44:12.206Z,,,,,,,,,,,,,,,,,,,,,,,,,,,,,,2048.717999994027,,form submission,,,,,,,,,,,,,,,,148899.09999999404,148898.59999999404,146833.212,146834.69999998808,146849.882,148900.516,,,
Trap 1,flow.Sequence,0_3,2021-10-22T11:44:12.207Z,,,,,,,,,,,,,,,,,,,,,,,,,,,,,,9483.753999994049,,completion,,,,,,,,,,,,,,,,148899.5,148898.59999999404,139398.176,139404.29999998212,139414.846,148900.516,,,
Standby,html.Page,0_4_0,2021-10-22T11:44:20.195Z,,,,,,,,,,,,,,,,,,,,,,,,,,,,,,8002.146000000008,,timeout,,,,,,,,,,,,,,,,156887.90000000596,156885.991,148883.846,148899.69999998808,148900.516,156902.662,,,
Holding screen,html.Screen,0_4_1_0_0,2021-10-22T11:44:27.196Z,,,,,,,,,,,,,,,,,,,,,,,,,,,,,,7001.614999999991,,timeout,,,,,,,,,,,,,,,,163889.29999998212,163887.607,156885.991,156888.19999998808,156902.662,163904.277,,,
screen,html.Screen,0_4_1_0_1_0,2021-10-22T11:44:28.893Z,,,,,,,,,,,,,,,,11,,,,,,,,,,,,,,1680.4229999880772,,response,,,4,E,,,,,Space,keypress(Space),,,,lyrical,Known -- ---- --- -- --- -------- ------------ ---------- --<br>- ------- ------ --------- -- ------------ -- --- ---- -----<br>------ ---- ---- ------ ------ ------- --- ----- ---------<br>---- --- -------- -------- --- --- -- ------- --- --- -----<br>-- --- ------ ------- --- --- -------- ---- --------- --<br>---------- -- -------- ----------------,165585.59999999404,165584.69999998808,163887.607,163889.69999998808,163904.277,165587.783,,0,Known
screen,html.Screen,0_4_1_0_1_1,2021-10-22T11:44:29.436Z,,,,,,,,,,,,,,,,11,,,,,,,,,,,,,,540.2170000000042,,response,,,4,E,,,,,Space,keypress(Space),,,,lyrical,----- as ---- --- -- --- -------- ------------ ---------- --<br>- ------- ------ --------- -- ------------ -- --- ---- -----<br>------ ---- ---- ------ ------ ------- --- ----- ---------<br>---- --- -------- -------- --- --- -- ------- --- --- -----<br>-- --- ------ ------- --- --- -------- ---- --------- --<br>---------- -- -------- ----------------,166128.79999998212,166128,165571.114,165585.79999998212,165587.783,166138.319,,1,as
screen,html.Screen,0_4_1_0_1_2,2021-10-22T11:44:30.164Z,,,,,,,,,,,,,,,,11,,,,,,,,,,,,,,717.6810000000114,,response,,,4,E,,,,,Space,keypress(Space),,,,lyrical,----- -- Rapa --- -- --- -------- ------------ ---------- --<br>- ------- ------ --------- -- ------------ -- --- ---- -----<br>------ ---- ---- ------ ------ ------- --- ----- ---------<br>---- --- -------- -------- --- --- -- ------- --- --- -----<br>-- --- ------ ------- --- --- -------- ---- --------- --<br>---------- -- -------- ----------------,166857,166856,166121.648,166129,166138.319,166871.709,,2,Rapa
screen,html.Screen,0_4_1_0_1_3,2021-10-22T11:44:30.884Z,,,,,,,,,,,,,,,,11,,,,,,,,,,,,,,704.390999994037,,response,,,4,E,,,,,Space,keypress(Space),,,,lyrical,----- -- ---- Nui -- --- -------- ------------ ---------- --<br>- ------- ------ --------- -- ------------ -- --- ---- -----<br>------ ---- ---- ------ ------ ------- --- ----- ---------<br>---- --- -------- -------- --- --- -- ------- --- --- -----<br>-- --- ------ ------- --- --- -------- ---- --------- --<br>---------- -- -------- ----------------,167576.79999998212,167576.09999999404,166855.039,166857.19999998808,166871.709,167588.638,,3,Nui
screen,html.Screen,0_4_1_0_1_4,2021-10-22T11:44:31.476Z,,,,,,,,,,,,,,,,11,,,,,,,,,,,,,,579.2620000059542,,response,,,4,E,,,,,Space,keypress(Space),,,,lyrical,----- -- ---- --- to --- -------- ------------ ---------- --<br>- ------- ------ --------- -- ------------ -- --- ---- -----<br>------ ---- ---- ------ ------ ------- --- ----- ---------<br>---- --- -------- -------- --- --- -- ------- --- --- -----<br>-- --- ------ ------- --- --- -------- ---- --------- --<br>---------- -- -------- ----------------,168168.69999998808,168167.90000000596,167571.967,167577.09999999404,167588.638,168171.92,,4,to
screen,html.Screen,0_4_1_0_1_5,2021-10-22T11:44:32.196Z,,,,,,,,,,,,,,,,11,,,,,,,,,,,,,,715.8799999821058,,response,,,4,E,,,,,Space,keypress(Space),,,,lyrical,----- -- ---- --- -- the -------- ------------ ---------- --<br>- ------- ------ --------- -- ------------ -- --- ---- -----<br>------ ---- ---- ------ ------ ------- --- ----- ---------<br>---- --- -------- -------- --- --- -- ------- --- --- -----<br>-- --- ------ ------- --- --- -------- ---- --------- --<br>---------- -- -------- ----------------,168888.59999999404,168887.79999998212,168155.251,168169,168171.92,168905.683,,5,the
screen,html.Screen,0_4_1_0_1_6,2021-10-22T11:44:32.836Z,,,,,,,,,,,,,,,,11,,,,,,,,,,,,,,622.1169999821286,,response,,,4,E,,,,,Space,keypress(Space),,,,lyrical,----- -- ---- --- -- --- island's ------------ ---------- --<br>- ------- ------ --------- -- ------------ -- --- ---- -----<br>------ ---- ---- ------ ------ ------- --- ----- ---------<br>---- --- -------- -------- --- --- -- ------- --- --- -----<br>-- --- ------ ------- --- --- -------- ---- --------- --<br>---------- -- -------- ----------------,169528.69999998808,169527.79999998212,168889.011,168888.90000000596,168905.683,169538.916,,6,island's
screen,html.Screen,0_4_1_0_1_7,2021-10-22T11:44:33.732Z,,,,,,,,,,,,,,,,11,,,,,,,,,,,,,,884.8839999821212,,response,,,4,E,,,,,Space,keypress(Space),,,,lyrical,"----- -- ---- --- -- --- -------- inhabitants, ---------- --<br>- ------- ------ --------- -- ------------ -- --- ---- -----<br>------ ---- ---- ------ ------ ------- --- ----- ---------<br>---- --- -------- -------- --- --- -- ------- --- --- -----<br>-- --- ------ ------- --- --- -------- ---- --------- --<br>---------- -- -------- ----------------",170424.69999998808,170423.79999998212,169522.247,169528.90000000596,169538.916,170439.227,,7,"inhabitants,"
screen,html.Screen,0_4_1_0_1_8,2021-10-22T11:44:34.676Z,,,,,,,,,,,,,,,,11,,,,,,,,,,,,,,928.4729999880656,,response,,,4,E,,,,,Space,keypress(Space),,,,lyrical,----- -- ---- --- -- --- -------- ------------ Rongorongo --<br>- ------- ------ --------- -- ------------ -- --- ---- -----<br>------ ---- ---- ------ ------ ------- --- ----- ---------<br>---- --- -------- -------- --- --- -- ------- --- --- -----<br>-- --- ------ ------- --- --- -------- ---- --------- --<br>---------- -- -------- ----------------,171368.59999999404,171367.69999998808,170422.557,170424.90000000596,170439.227,171372.955,,8,Rongorongo
screen,html.Screen,0_4_1_0_1_9,2021-10-22T11:44:35.412Z,,,,,,,,,,,,,,,,11,,,,,,,,,,,,,,730.8449999821314,,response,,,4,E,,,,,Space,keypress(Space),,,,lyrical,----- -- ---- --- -- --- -------- ------------ ---------- is<br>- ------- ------ --------- -- ------------ -- --- ---- -----<br>------ ---- ---- ------ ------ ------- --- ----- ---------<br>---- --- -------- -------- --- --- -- ------- --- --- -----<br>-- --- ------ ------- --- --- -------- ---- --------- --<br>---------- -- -------- ----------------,172104.5,172103.79999998212,171356.284,171368.79999998212,171372.955,172106.365,,9,is
screen,html.Screen,0_4_1_0_1_10,2021-10-22T11:44:35.964Z,,,,,,,,,,,,,,,,11,,,,,,,,,,,,,,549.3349999880884,,response,,,4,E,,,,,Space,keypress(Space),,,,lyrical,----- -- ---- --- -- --- -------- ------------ ---------- --<br>a ------- ------ --------- -- ------------ -- --- ---- -----<br>------ ---- ---- ------ ------ ------- --- ----- ---------<br>---- --- -------- -------- --- --- -- ------- --- --- -----<br>-- --- ------ ------- --- --- -------- ---- --------- --<br>---------- -- -------- ----------------,172656.5,172655.69999998808,172089.695,172104.69999998808,172106.365,172673.149,,10,a
screen,html.Screen,0_4_1_0_1_11,2021-10-22T11:44:36.484Z,,,,,,,,,,,,,,,,11,,,,,,,,,,,,,,502.5509999880742,,response,,,4,E,,,,,Space,keypress(Space),,,,lyrical,----- -- ---- --- -- --- -------- ------------ ---------- --<br>- writing ------ --------- -- ------------ -- --- ---- -----<br>------ ---- ---- ------ ------ ------- --- ----- ---------<br>---- --- -------- -------- --- --- -- ------- --- --- -----<br>-- --- ------ ------- --- --- -------- ---- --------- --<br>---------- -- -------- ----------------,173176.59999999404,173175.69999998808,172656.479,172656.79999998212,172673.149,173189.967,,11,writing
screen,html.Screen,0_4_1_0_1_12,2021-10-22T11:44:37.091Z,,,,,,,,,,,,,,,,11,,,,,,,,,,,,,,593.6329999940353,,response,,,4,E,,,,,Space,keypress(Space),,,,lyrical,----- -- ---- --- -- --- -------- ------------ ---------- --<br>- ------- system --------- -- ------------ -- --- ---- -----<br>------ ---- ---- ------ ------ ------- --- ----- ---------<br>---- --- -------- -------- --- --- -- ------- --- --- -----<br>-- --- ------ ------- --- --- -------- ---- --------- --<br>---------- -- -------- ----------------,173784.5,173783.59999999404,173173.297,173176.79999998212,173189.967,173789.99,,12,system
screen,html.Screen,0_4_1_0_1_13,2021-10-22T11:44:37.715Z,,,,,,,,,,,,,,,,11,,,,,,,,,,,,,,617.5100000000093,,response,,,4,E,,,,,Space,keypress(Space),,,,lyrical,----- -- ---- --- -- --- -------- ------------ ---------- --<br>- ------- ------ comprised -- ------------ -- --- ---- -----<br>------ ---- ---- ------ ------ ------- --- ----- ---------<br>---- --- -------- -------- --- --- -- ------- --- --- -----<br>-- --- ------ ------- --- --- -------- ---- --------- --<br>---------- -- -------- ----------------,174408.29999998212,174407.5,173773.321,173784.59999999404,173789.99,174423.557,,13,comprised
screen,html.Screen,0_4_1_0_1_14,2021-10-22T11:44:38.171Z,,,,,,,,,,,,,,,,11,,,,,,,,,,,,,,439.9429999999993,,response,,,4,E,,,,,Space,keypress(Space),,,,lyrical,----- -- ---- --- -- --- -------- ------------ ---------- --<br>- ------- ------ --------- of ------------ -- --- ---- -----<br>------ ---- ---- ------ ------ ------- --- ----- ---------<br>---- --- -------- -------- --- --- -- ------- --- --- -----<br>-- --- ------ ------- --- --- -------- ---- --------- --<br>---------- -- -------- ----------------,174864.40000000596,174863.5,174406.887,174408.5,174423.557,174873.789,,14,of
screen,html.Screen,0_4_1_0_1_15,2021-10-22T11:44:39.260Z,,,,,,,,,,,,,,,,11,,,,,,,,,,,,,,1078.1110000059707,,response,,,4,E,,,,,Space,keypress(Space),,,,lyrical,----- -- ---- --- -- --- -------- ------------ ---------- --<br>- ------- ------ --------- -- pictographs. -- --- ---- -----<br>------ ---- ---- ------ ------ ------- --- ----- ---------<br>---- --- -------- -------- --- --- -- ------- --- --- -----<br>-- --- ------ ------- --- --- -------- ---- --------- --<br>---------- -- -------- ----------------,175952.69999998808,175951.90000000596,174857.118,174864.59999999404,174873.789,175957.374,,15,pictographs.
screen,html.Screen,0_4_1_0_1_16,2021-10-22T11:44:39.811Z,,,,,,,,,,,,,,,,11,,,,,,,,,,,,,,546.1259999999893,,response,,,4,E,,,,,Space,keypress(Space),,,,lyrical,----- -- ---- --- -- --- -------- ------------ ---------- --<br>- ------- ------ --------- -- ------------ It --- ---- -----<br>------ ---- ---- ------ ------ ------- --- ----- ---------<br>---- --- -------- -------- --- --- -- ------- --- --- -----<br>-- --- ------ ------- --- --- -------- ---- --------- --<br>---------- -- -------- ----------------,176504.19999998808,176503.5,175940.703,175953,175957.374,176507.463,,16,It
screen,html.Screen,0_4_1_0_1_17,2021-10-22T11:44:40.355Z,,,,,,,,,,,,,,,,11,,,,,,,,,,,,,,539.8369999821298,,response,,,4,E,,,,,Space,keypress(Space),,,,lyrical,----- -- ---- --- -- --- -------- ------------ ---------- --<br>- ------- ------ --------- -- ------------ -- has ---- -----<br>------ ---- ---- ------ ------ ------- --- ----- ---------<br>---- --- -------- -------- --- --- -- ------- --- --- -----<br>-- --- ------ ------- --- --- -------- ---- --------- --<br>---------- -- -------- ----------------,177048.09999999404,177047.29999998212,176490.793,176504.5,176507.463,177057.603,,17,has
screen,html.Screen,0_4_1_0_1_18,2021-10-22T11:44:40.803Z,,,,,,,,,,,,,,,,11,,,,,,,,,,,,,,437.8969999999972,,response,,,4,E,,,,,Space,keypress(Space),,,,lyrical,----- -- ---- --- -- --- -------- ------------ ---------- --<br>- ------- ------ --------- -- ------------ -- --- been -----<br>------ ---- ---- ------ ------ ------- --- ----- ---------<br>---- --- -------- -------- --- --- -- ------- --- --- -----<br>-- --- ------ ------- --- --- -------- ---- --------- --<br>---------- -- -------- ----------------,177496.09999999404,177495.5,177040.933,177048.40000000596,177057.603,177507.621,,18,been
screen,html.Screen,0_4_1_0_1_19,2021-10-22T11:44:41.339Z,,,,,,,,,,,,,,,,11,,,,,,,,,,,,,,523.7790000059467,,response,,,4,E,,,,,Space,keypress(Space),,,,lyrical,----- -- ---- --- -- --- -------- ------------ ---------- --<br>- ------- ------ --------- -- ------------ -- --- ---- found<br>------ ---- ---- ------ ------ ------- --- ----- ---------<br>---- --- -------- -------- --- --- -- ------- --- --- -----<br>-- --- ------ ------- --- --- -------- ---- --------- --<br>---------- -- -------- ----------------,178032.09999999404,178031.40000000596,177490.952,177496.40000000596,177507.621,178041.218,,19,found
screen,html.Screen,0_4_1_0_1_20,2021-10-22T11:44:42.003Z,,,,,,,,,,,,,,,,11,,,,,,,,,,,,,,654.0819999821251,,response,,,4,E,,,,,Space,keypress(Space),,,,lyrical,----- -- ---- --- -- --- -------- ------------ ---------- --<br>- ------- ------ --------- -- ------------ -- --- ---- -----<br>carved ---- ---- ------ ------ ------- --- ----- ---------<br>---- --- -------- -------- --- --- -- ------- --- --- -----<br>-- --- ------ ------- --- --- -------- ---- --------- --<br>---------- -- -------- ----------------,178696,178695.29999998212,178024.547,178032.40000000596,178041.218,178708,,20,carved
screen,html.Screen,0_4_1_0_1_21,2021-10-22T11:44:42.891Z,,,,,,,,,,,,,,,,11,,,,,,,,,,,,,,875.2999999821186,,response,,,4,E,,,,,Space,keypress(Space),,,,lyrical,----- -- ---- --- -- --- -------- ------------ ---------- --<br>- ------- ------ --------- -- ------------ -- --- ---- -----<br>------ into ---- ------ ------ ------- --- ----- ---------<br>---- --- -------- -------- --- --- -- ------- --- --- -----<br>-- --- ------ ------- --- --- -------- ---- --------- --<br>---------- -- -------- ----------------,179584.09999999404,179583.29999998212,178691.33,178696.29999998212,178708,179591.387,,21,into
screen,html.Screen,0_4_1_0_1_22,2021-10-22T11:44:43.787Z,,,,,,,,,,,,,,,,11,,,,,,,,,,,,,,887.8129999880912,,response,,,4,E,,,,,Space,keypress(Space),,,,lyrical,----- -- ---- --- -- --- -------- ------------ ---------- --<br>- ------- ------ --------- -- ------------ -- --- ---- -----<br>------ ---- many ------ ------ ------- --- ----- ---------<br>---- --- -------- -------- --- --- -- ------- --- --- -----<br>-- --- ------ ------- --- --- -------- ---- --------- --<br>---------- -- -------- ----------------,180480.09999999404,180479.19999998808,179574.718,179584.29999998212,179591.387,180491.827,,22,many
screen,html.Screen,0_4_1_0_1_23,2021-10-22T11:44:44.746Z,,,,,,,,,,,,,,,,11,,,,,,,,,,,,,,947.3729999880888,,response,,,4,E,,,,,Space,keypress(Space),,,,lyrical,----- -- ---- --- -- --- -------- ------------ ---------- --<br>- ------- ------ --------- -- ------------ -- --- ---- -----<br>------ ---- ---- oblong ------ ------- --- ----- ---------<br>---- --- -------- -------- --- --- -- ------- --- --- -----<br>-- --- ------ ------- --- --- -------- ---- --------- --<br>---------- -- -------- ----------------,181440,181439.19999998808,180475.156,180480.29999998212,180491.827,181442.066,,23,oblong
screen,html.Screen,0_4_1_0_1_24,2021-10-22T11:44:45.873Z,,,,,,,,,,,,,,,,11,,,,,,,,,,,,,,1124.9340000000084,,response,,,4,E,,,,,Space,keypress(Space),,,,lyrical,----- -- ---- --- -- --- -------- ------------ ---------- --<br>- ------- ------ --------- -- ------------ -- --- ---- -----<br>------ ---- ---- ------ wooden ------- --- ----- ---------<br>---- --- -------- -------- --- --- -- ------- --- --- -----<br>-- --- ------ ------- --- --- -------- ---- --------- --<br>---------- -- -------- ----------------,182567.79999998212,182567,181425.395,181440.19999998808,181442.066,182575.699,,24,wooden
screen,html.Screen,0_4_1_0_1_25,2021-10-22T11:44:46.370Z,,,,,,,,,,,,,,,,11,,,,,,,,,,,,,,487.30100000000675,,response,,,4,E,,,,,Space,keypress(Space),,,,lyrical,----- -- ---- --- -- --- -------- ------------ ---------- --<br>- ------- ------ --------- -- ------------ -- --- ---- -----<br>------ ---- ---- ------ ------ tablets --- ----- ---------<br>---- --- -------- -------- --- --- -- ------- --- --- -----<br>-- --- ------ ------- --- --- -------- ---- --------- --<br>---------- -- -------- ----------------,183063.79999998212,183063,182559.028,182568,182575.699,183075.74,,25,tablets
screen,html.Screen,0_4_1_0_1_26,2021-10-22T11:44:46.882Z,,,,,,,,,,,,,,,,11,,,,,,,,,,,,,,499.35999999404885,,response,,,4,E,,,,,Space,keypress(Space),,,,lyrical,----- -- ---- --- -- --- -------- ------------ ---------- --<br>- ------- ------ --------- -- ------------ -- --- ---- -----<br>------ ---- ---- ------ ------ ------- and ----- ---------<br>---- --- -------- -------- --- --- -- ------- --- --- -----<br>-- --- ------ ------- --- --- -------- ---- --------- --<br>---------- -- -------- ----------------,183575.79999998212,183575.09999999404,183059.07,183064,183075.74,183592.552,,26,and
screen,html.Screen,0_4_1_0_1_27,2021-10-22T11:44:47.313Z,,,,,,,,,,,,,,,,11,,,,,,,,,,,,,,414.3480000059644,,response,,,4,E,,,,,Space,keypress(Space),,,,lyrical,----- -- ---- --- -- --- -------- ------------ ---------- --<br>- ------- ------ --------- -- ------------ -- --- ---- -----<br>------ ---- ---- ------ ------ ------- --- other ---------<br>---- --- -------- -------- --- --- -- ------- --- --- -----<br>-- --- ------ ------- --- --- -------- ---- --------- --<br>---------- -- -------- ----------------,184007.69999998808,184006.90000000596,183575.882,183576.09999999404,183592.552,184009.234,,27,other
screen,html.Screen,0_4_1_0_1_28,2021-10-22T11:44:47.881Z,,,,,,,,,,,,,,,,11,,,,,,,,,,,,,,565.7660000000033,,response,,,4,E,,,,,Space,keypress(Space),,,,lyrical,----- -- ---- --- -- --- -------- ------------ ---------- --<br>- ------- ------ --------- -- ------------ -- --- ---- -----<br>------ ---- ---- ------ ------ ------- --- ----- artifacts<br>---- --- -------- -------- --- --- -- ------- --- --- -----<br>-- --- ------ ------- --- --- -------- ---- --------- --<br>---------- -- -------- ----------------,184575.79999998212,184575,183992.565,184008,184009.234,184592.867,,28,artifacts
screen,html.Screen,0_4_1_0_1_29,2021-10-22T11:44:48.642Z,,,,,,,,,,,,,,,,11,,,,,,,,,,,,,,742.0330000059621,,response,,,4,E,,,,,Space,keypress(Space),,,,lyrical,----- -- ---- --- -- --- -------- ------------ ---------- --<br>- ------- ------ --------- -- ------------ -- --- ---- -----<br>------ ---- ---- ------ ------ ------- --- ----- ---------<br>from --- -------- -------- --- --- -- ------- --- --- -----<br>-- --- ------ ------- --- --- -------- ---- --------- --<br>---------- -- -------- ----------------,185335.79999998212,185334.90000000596,184576.196,184576,184592.867,185342.981,,29,from
screen,html.Screen,0_4_1_0_1_30,2021-10-22T11:44:49.137Z,,,,,,,,,,,,,,,,11,,,,,,,,,,,,,,487.9190000059607,,response,,,4,E,,,,,Space,keypress(Space),,,,lyrical,----- -- ---- --- -- --- -------- ------------ ---------- --<br>- ------- ------ --------- -- ------------ -- --- ---- -----<br>------ ---- ---- ------ ------ ------- --- ----- ---------<br>---- the -------- -------- --- --- -- ------- --- --- -----<br>-- --- ------ ------- --- --- -------- ---- --------- --<br>---------- -- -------- ----------------,185831.59999999404,185830.90000000596,185326.311,185336.09999999404,185342.981,185843.098,,30,the
screen,html.Screen,0_4_1_0_1_31,2021-10-22T11:44:49.810Z,,,,,,,,,,,,,,,,11,,,,,,,,,,,,,,660.2019999821205,,response,,,4,E,,,,,Space,keypress(Space),,,,lyrical,----- -- ---- --- -- --- -------- ------------ ---------- --<br>- ------- ------ --------- -- ------------ -- --- ---- -----<br>------ ---- ---- ------ ------ ------- --- ----- ---------<br>---- --- island's -------- --- --- -- ------- --- --- -----<br>-- --- ------ ------- --- --- -------- ---- --------- --<br>---------- -- -------- ----------------,186504.09999999404,186503.29999998212,185826.428,185831.90000000596,185843.098,186509.832,,31,island's
screen,html.Screen,0_4_1_0_1_32,2021-10-22T11:44:50.353Z,,,,,,,,,,,,,,,,11,,,,,,,,,,,,,,536.8679999880842,,response,,,4,E,,,,,Space,keypress(Space),,,,lyrical,----- -- ---- --- -- --- -------- ------------ ---------- --<br>- ------- ------ --------- -- ------------ -- --- ---- -----<br>------ ---- ---- ------ ------ ------- --- ----- ---------<br>---- --- -------- history. --- --- -- ------- --- --- -----<br>-- --- ------ ------- --- --- -------- ---- --------- --<br>---------- -- -------- ----------------,187047.5,187046.69999998808,186493.163,186504.29999998212,186509.832,187060.19,,32,history.
screen,html.Screen,0_4_1_0_1_33,2021-10-22T11:44:50.849Z,,,,,,,,,,,,,,,,11,,,,,,,,,,,,,,482.50999998807674,,response,,,4,E,,,,,Space,keypress(Space),,,,lyrical,----- -- ---- --- -- --- -------- ------------ ---------- --<br>- ------- ------ --------- -- ------------ -- --- ---- -----<br>------ ---- ---- ------ ------ ------- --- ----- ---------<br>---- --- -------- -------- The --- -- ------- --- --- -----<br>-- --- ------ ------- --- --- -------- ---- --------- --<br>---------- -- -------- ----------------,187543.5,187542.69999998808,187043.518,187047.79999998212,187060.19,187560.117,,33,The
screen,html.Screen,0_4_1_0_1_34,2021-10-22T11:44:51.345Z,,,,,,,,,,,,,,,,11,,,,,,,,,,,,,,478.5829999880807,,response,,,4,E,,,,,Space,keypress(Space),,,,lyrical,----- -- ---- --- -- --- -------- ------------ ---------- --<br>- ------- ------ --------- -- ------------ -- --- ---- -----<br>------ ---- ---- ------ ------ ------- --- ----- ---------<br>---- --- -------- -------- --- art -- ------- --- --- -----<br>-- --- ------ ------- --- --- -------- ---- --------- --<br>---------- -- -------- ----------------,188039.5,188038.69999998808,187543.448,187543.69999998808,187560.117,188043.613,,34,art
screen,html.Screen,0_4_1_0_1_35,2021-10-22T11:44:51.833Z,,,,,,,,,,,,,,,,11,,,,,,,,,,,,,,482.9869999940274,,response,,,4,E,,,,,Space,keypress(Space),,,,lyrical,----- -- ---- --- -- --- -------- ------------ ---------- --<br>- ------- ------ --------- -- ------------ -- --- ---- -----<br>------ ---- ---- ------ ------ ------- --- ----- ---------<br>---- --- -------- -------- --- --- of ------- --- --- -----<br>-- --- ------ ------- --- --- -------- ---- --------- --<br>---------- -- -------- ----------------,188527.40000000596,188526.59999999404,188026.943,188039.69999998808,188043.613,188543.745,,35,of
screen,html.Screen,0_4_1_0_1_36,2021-10-22T11:44:52.321Z,,,,,,,,,,,,,,,,11,,,,,,,,,,,,,,470.9549999880837,,response,,,4,E,,,,,Space,keypress(Space),,,,lyrical,----- -- ---- --- -- --- -------- ------------ ---------- --<br>- ------- ------ --------- -- ------------ -- --- ---- -----<br>------ ---- ---- ------ ------ ------- --- ----- ---------<br>---- --- -------- -------- --- --- -- writing --- --- -----<br>-- --- ------ ------- --- --- -------- ---- --------- --<br>---------- -- -------- ----------------,189015.5,189014.69999998808,188527.075,188527.59999999404,188543.745,189027.356,,36,writing
screen,html.Screen,0_4_1_0_1_37,2021-10-22T11:44:52.873Z,,,,,,,,,,,,,,,,11,,,,,,,,,,,,,,539.1440000000002,,response,,,4,E,,,,,Space,keypress(Space),,,,lyrical,----- -- ---- --- -- --- -------- ------------ ---------- --<br>- ------- ------ --------- -- ------------ -- --- ---- -----<br>------ ---- ---- ------ ------ ------- --- ----- ---------<br>---- --- -------- -------- --- --- -- ------- was --- -----<br>-- --- ------ ------- --- --- -------- ---- --------- --<br>---------- -- -------- ----------------,189567.40000000596,189566.5,189010.684,189015.69999998808,189027.356,189577.366,,37,was
screen,html.Screen,0_4_1_0_1_38,2021-10-22T11:44:53.417Z,,,,,,,,,,,,,,,,11,,,,,,,,,,,,,,533.33399998807,,response,,,4,E,,,,,Space,keypress(Space),,,,lyrical,----- -- ---- --- -- --- -------- ------------ ---------- --<br>- ------- ------ --------- -- ------------ -- --- ---- -----<br>------ ---- ---- ------ ------ ------- --- ----- ---------<br>---- --- -------- -------- --- --- -- ------- --- not -----<br>-- --- ------ ------- --- --- -------- ---- --------- --<br>---------- -- -------- ----------------,190111.59999999404,190110.69999998808,189560.696,189567.5,189577.366,190127.562,,38,not
screen,html.Screen,0_4_1_0_1_39,2021-10-22T11:44:53.969Z,,,,,,,,,,,,,,,,11,,,,,,,,,,,,,,535.0379999940342,,response,,,4,E,,,,,Space,keypress(Space),,,,lyrical,----- -- ---- --- -- --- -------- ------------ ---------- --<br>- ------- ------ --------- -- ------------ -- --- ---- -----<br>------ ---- ---- ------ ------ ------- --- ----- ---------<br>---- --- -------- -------- --- --- -- ------- --- --- known<br>-- --- ------ ------- --- --- -------- ---- --------- --<br>---------- -- -------- ----------------,190663.40000000596,190662.59999999404,190110.891,190111.79999998212,190127.562,190677.527,,39,known
screen,html.Screen,0_4_1_0_1_40,2021-10-22T11:44:54.561Z,,,,,,,,,,,,,,,,11,,,,,,,,,,,,,,576.9729999999981,,response,,,4,E,,,,,Space,keypress(Space),,,,lyrical,----- -- ---- --- -- --- -------- ------------ ---------- --<br>- ------- ------ --------- -- ------------ -- --- ---- -----<br>------ ---- ---- ------ ------ ------- --- ----- ---------<br>---- --- -------- -------- --- --- -- ------- --- --- -----<br>in --- ------ ------- --- --- -------- ---- --------- --<br>---------- -- -------- ----------------,191255.29999998212,191254.5,190660.858,190663.59999999404,190677.527,191261.083,,40,in
screen,html.Screen,0_4_1_0_1_41,2021-10-22T11:44:55.713Z,,,,,,,,,,,,,,,,11,,,,,,,,,,,,,,1145.3170000059472,,response,,,4,E,,,,,Space,keypress(Space),,,,lyrical,----- -- ---- --- -- --- -------- ------------ ---------- --<br>- ------- ------ --------- -- ------------ -- --- ---- -----<br>------ ---- ---- ------ ------ ------- --- ----- ---------<br>---- --- -------- -------- --- --- -- ------- --- --- -----<br>-- any ------ ------- --- --- -------- ---- --------- --<br>---------- -- -------- ----------------,192407.19999998808,192406.40000000596,191244.413,191255.5,191261.083,192411.492,,41,any
screen,html.Screen,0_4_1_0_1_42,2021-10-22T11:44:57.905Z,,,,,,,,,,,,,,,,11,,,,,,,,,,,,,,2186.908000005962,,response,,,4,E,,,,,Space,keypress(Space),,,,lyrical,----- -- ---- --- -- --- -------- ------------ ---------- --<br>- ------- ------ --------- -- ------------ -- --- ---- -----<br>------ ---- ---- ------ ------ ------- --- ----- ---------<br>---- --- -------- -------- --- --- -- ------- --- --- -----<br>-- --- nearby ------- --- --- -------- ---- --------- --<br>---------- -- -------- ----------------,194599.09999999404,194598.40000000596,192394.821,192407.29999998212,192411.492,194612.033,,42,nearby
screen,html.Screen,0_4_1_0_1_43,2021-10-22T11:44:58.433Z,,,,,,,,,,,,,,,,11,,,,,,,,,,,,,,514.1669999880833,,response,,,4,E,,,,,Space,keypress(Space),,,,lyrical,----- -- ---- --- -- --- -------- ------------ ---------- --<br>- ------- ------ --------- -- ------------ -- --- ---- -----<br>------ ---- ---- ------ ------ ------- --- ----- ---------<br>---- --- -------- -------- --- --- -- ------- --- --- -----<br>-- --- ------ islands --- --- -------- ---- --------- --<br>---------- -- -------- ----------------,195127,195126.19999998808,194595.362,194599.29999998212,194612.033,195128.759,,43,islands
screen,html.Screen,0_4_1_0_1_44,2021-10-22T11:44:58.873Z,,,,,,,,,,,,,,,,11,,,,,,,,,,,,,,437.44099998808815,,response,,,4,E,,,,,Space,keypress(Space),,,,lyrical,----- -- ---- --- -- --- -------- ------------ ---------- --<br>- ------- ------ --------- -- ------------ -- --- ---- -----<br>------ ---- ---- ------ ------ ------- --- ----- ---------<br>---- --- -------- -------- --- --- -- ------- --- --- -----<br>-- --- ------ ------- and --- -------- ---- --------- --<br>---------- -- -------- ----------------,195567,195566.19999998808,195112.089,195127.19999998808,195128.759,195578.886,,44,and
screen,html.Screen,0_4_1_0_1_45,2021-10-22T11:44:59.369Z,,,,,,,,,,,,,,,,11,,,,,,,,,,,,,,483.31399998808047,,response,,,4,E,,,,,Space,keypress(Space),,,,lyrical,----- -- ---- --- -- --- -------- ------------ ---------- --<br>- ------- ------ --------- -- ------------ -- --- ---- -----<br>------ ---- ---- ------ ------ ------- --- ----- ---------<br>---- --- -------- -------- --- --- -- ------- --- --- -----<br>-- --- ------ ------- --- the -------- ---- --------- --<br>---------- -- -------- ----------------,196063,196062.19999998808,195562.216,195567.19999998808,195578.886,196079.005,,45,the
screen,html.Screen,0_4_1_0_1_46,2021-10-22T11:45:00.425Z,,,,,,,,,,,,,,,,11,,,,,,,,,,,,,,1039.5949999940349,,response,,,4,E,,,,,Space,keypress(Space),,,,lyrical,----- -- ---- --- -- --- -------- ------------ ---------- --<br>- ------- ------ --------- -- ------------ -- --- ---- -----<br>------ ---- ---- ------ ------ ------- --- ----- ---------<br>---- --- -------- -------- --- --- -- ------- --- --- -----<br>-- --- ------ ------- --- --- script's ---- --------- --<br>---------- -- -------- ----------------,197119.40000000596,197118.59999999404,196062.335,196063.29999998212,196079.005,197129.002,,46,script's
screen,html.Screen,0_4_1_0_1_47,2021-10-22T11:45:01.201Z,,,,,,,,,,,,,,,,11,,,,,,,,,,,,,,765.0979999940319,,response,,,4,E,,,,,Space,keypress(Space),,,,lyrical,----- -- ---- --- -- --- -------- ------------ ---------- --<br>- ------- ------ --------- -- ------------ -- --- ---- -----<br>------ ---- ---- ------ ------ ------- --- ----- ---------<br>---- --- -------- -------- --- --- -- ------- --- --- -----<br>-- --- ------ ------- --- --- -------- mere --------- --<br>---------- -- -------- ----------------,197894.90000000596,197894.09999999404,197112.334,197119.59999999404,197129.002,197896.055,,47,mere
screen,html.Screen,0_4_1_0_1_48,2021-10-22T11:45:01.665Z,,,,,,,,,,,,,,,,11,,,,,,,,,,,,,,461.84500000596745,,response,,,4,E,,,,,Space,keypress(Space),,,,lyrical,----- -- ---- --- -- --- -------- ------------ ---------- --<br>- ------- ------ --------- -- ------------ -- --- ---- -----<br>------ ---- ---- ------ ------ ------- --- ----- ---------<br>---- --- -------- -------- --- --- -- ------- --- --- -----<br>-- --- ------ ------- --- --- -------- ---- existence --<br>---------- -- -------- ----------------,198358.79999998212,198357.90000000596,197879.385,197895.19999998808,197896.055,198362.855,,48,existence
screen,html.Screen,0_4_1_0_1_49,2021-10-22T11:45:02.153Z,,,,,,,,,,,,,,,,11,,,,,,,,,,,,,,483.1449999999895,,response,,,4,E,,,,,Space,keypress(Space),,,,lyrical,----- -- ---- --- -- --- -------- ------------ ---------- --<br>- ------- ------ --------- -- ------------ -- --- ---- -----<br>------ ---- ---- ------ ------ ------- --- ----- ---------<br>---- --- -------- -------- --- --- -- ------- --- --- -----<br>-- --- ------ ------- --- --- -------- ---- --------- is<br>---------- -- -------- ----------------,198846.79999998212,198846,198346.185,198359.09999999404,198362.855,198863.095,,49,is
screen,html.Screen,0_4_1_0_1_50,2021-10-22T11:45:02.825Z,,,,,,,,,,,,,,,,11,,,,,,,,,,,,,,654.9049999999988,,response,,,4,E,,,,,Space,keypress(Space),,,,lyrical,----- -- ---- --- -- --- -------- ------------ ---------- --<br>- ------- ------ --------- -- ------------ -- --- ---- -----<br>------ ---- ---- ------ ------ ------- --- ----- ---------<br>---- --- -------- -------- --- --- -- ------- --- --- -----<br>-- --- ------ ------- --- --- -------- ---- --------- --<br>sufficient -- -------- ----------------,199518.79999998212,199518,198846.424,198847.09999999404,198863.095,199529.845,,50,sufficient
screen,html.Screen,0_4_1_0_1_51,2021-10-22T11:45:03.344Z,,,,,,,,,,,,,,,,11,,,,,,,,,,,,,,508.0550000059593,,response,,,4,E,,,,,Space,keypress(Space),,,,lyrical,----- -- ---- --- -- --- -------- ------------ ---------- --<br>- ------- ------ --------- -- ------------ -- --- ---- -----<br>------ ---- ---- ------ ------ ------- --- ----- ---------<br>---- --- -------- -------- --- --- -- ------- --- --- -----<br>-- --- ------ ------- --- --- -------- ---- --------- --<br>---------- to -------- ----------------,200038.79999998212,200037.90000000596,199513.175,199519.09999999404,199529.845,200046.639,,51,to
