sender,sender_type,sender_id,timestamp,meta,,Blues,Classical,Country,Dance,Electronic,Folk,Gospel,Hip-Hop,Jazz,Latin,Musical/Film,New-age,Pop,Provo_ID,R&B,Rap,Reggae,Religious,Rock,Soul,Swing,Traditional,age,artist_name,correct,correctResponse,distraction,duration,education,ended_on,familiarity,gender,item,list,music_frequency,offensiveness,pleasantness,preference,response,response_action,snippet_file,song_name,song_rating,sound,text,time_commit,time_end,time_render,time_run,time_show,time_switch,url,word,word_ID
Instructions,html.Page,0_0,2021-12-03T10:02:11.893Z,"{""labjs_version"":""20.2.3"",""labjs_build"":{""flavor"":""production"",""commit"":""7ea907d66ca8aeef8054924ca5d82ffbe11e34e5""},""location"":""https://run.pavlovia.org/mvasilev/lab_music_d/"",""userAgent"":""Mozilla/5.0 (Windows NT 6.1; Win64; x64) AppleWebKit/537.36 (KHTML, like Gecko) Chrome/96.0.4664.45 Safari/537.36"",""platform"":""Win32"",""language"":""en-US"",""locale"":""en-US"",""timeZone"":""Europe/London"",""timezoneOffset"":0,""screen_width"":1920,""screen_height"":1080,""scroll_width"":1920,""scroll_height"":959,""window_innerWidth"":1920,""window_innerHeight"":1007,""devicePixelRatio"":1}",,,,,,,,,,,,,,,,,,,,,,,,,,,,,33324.30800000298,,form submission,,,,,,,,,,,,,,,,46092.39999999106,46091.20000000298,12733.552,12752.79999999702,12766.892,46092.126,{},,
Headphones,html.Page,0_1,2021-12-03T10:02:18.103Z,,,,,,,,,,,,,,,,,,,,,,,,,,,,,,6209.574000002984,,form submission,,,,,,,,,,,,,,,,52302.20000000298,52301.70000000298,46075.456,46092.89999999106,46092.126,52311.98,,,
Holding screen,html.Screen,0_2_0_0,2021-12-03T10:02:28.106Z,,,,,,,,,,,,,,,,,,,,,,,,,,,,,,10001.708999999995,,timeout,,,,,,,,,,,,,,,,62303.20000000298,62297.02,52295.271,52302.59999999404,52311.98,62313.689,,,
screen,html.Screen,0_2_0_1_0,2021-12-03T10:02:29.256Z,,,,,,,,,,,,,,,,53,,,,,,,,,,,,,,1138.3110000000015,,response,,,99,,,,,,Space,keypress(Space),,,,,When -- ----- -- ------ - ------- --- ----------<br>------------- ------ ------ ---- ---- ------- ----- -- ----<br>-------- ------- -- ---------- --- - --- ----- ----- ----<br>---- --- --- ----- --- ---- ---- ------- ----- ---- -------<br>--- --- -- ----- -- --- ---- -- --- ---- -- ------ ------<br>--- ----- -- ----,63453.5,63452,62297.02,62303.59999999404,62313.689,63464.329,,0,When
screen,html.Screen,0_2_0_1_1,2021-12-03T10:02:29.824Z,,,,,,,,,,,,,,,,53,,,,,,,,,,,,,,555.6710000000021,,response,,,99,,,,,,Space,keypress(Space),,,,,---- it ----- -- ------ - ------- --- ----------<br>------------- ------ ------ ---- ---- ------- ----- -- ----<br>-------- ------- -- ---------- --- - --- ----- ----- ----<br>---- --- --- ----- --- ---- ---- ------- ----- ---- -------<br>--- --- -- ----- -- --- ---- -- --- ---- -- ------ ------<br>--- ----- -- ----,64020.89999999106,64020,63447.657,63453.79999999702,63464.329,64030.971,,1,it
screen,html.Screen,0_2_0_1_2,2021-12-03T10:02:30.480Z,,,,,,,,,,,,,,,,53,,,,,,,,,,,,,,645.0290000000023,,response,,,99,,,,,,Space,keypress(Space),,,,,---- -- comes -- ------ - ------- --- ----------<br>------------- ------ ------ ---- ---- ------- ----- -- ----<br>-------- ------- -- ---------- --- - --- ----- ----- ----<br>---- --- --- ----- --- ---- ---- ------- ----- ---- -------<br>--- --- -- ----- -- --- ---- -- --- ---- -- ------ ------<br>--- ----- -- ----,64676.89999999106,64676,64014.301,64021.20000000298,64030.971,64681.291,,2,comes
screen,html.Screen,0_2_0_1_3,2021-12-03T10:02:30.952Z,,,,,,,,,,,,,,,,53,,,,,,,,,,,,,,466.70900000000256,,response,,,99,,,,,,Space,keypress(Space),,,,,---- -- ----- to ------ - ------- --- ----------<br>------------- ------ ------ ---- ---- ------- ----- -- ----<br>-------- ------- -- ---------- --- - --- ----- ----- ----<br>---- --- --- ----- --- ---- ---- ------- ----- ---- -------<br>--- --- -- ----- -- --- ---- -- --- ---- -- ------ ------<br>--- ----- -- ----,65148.89999999106,65148,64664.62,64677.09999999404,64681.291,65164.709,,3,to
screen,html.Screen,0_2_0_1_4,2021-12-03T10:02:31.496Z,,,,,,,,,,,,,,,,53,,,,,,,,,,,,,,527.2909999999974,,response,,,99,,,,,,Space,keypress(Space),,,,,---- -- ----- -- having - ------- --- ----------<br>------------- ------ ------ ---- ---- ------- ----- -- ----<br>-------- ------- -- ---------- --- - --- ----- ----- ----<br>---- --- --- ----- --- ---- ---- ------- ----- ---- -------<br>--- --- -- ----- -- --- ---- -- --- ---- -- ------ ------<br>--- ----- -- ----,65693,65692,65148.039,65149.39999999106,65164.709,65698.24,,4,having
screen,html.Screen,0_2_0_1_5,2021-12-03T10:02:31.864Z,,,,,,,,,,,,,,,,53,,,,,,,,,,,,,,361.65999999105406,,response,,,99,,,,,,Space,keypress(Space),,,,,---- -- ----- -- ------ a ------- --- ----------<br>------------- ------ ------ ---- ---- ------- ----- -- ----<br>-------- ------- -- ---------- --- - --- ----- ----- ----<br>---- --- --- ----- --- ---- ---- ------- ----- ---- -------<br>--- --- -- ----- -- --- ---- -- --- ---- -- ------ ------<br>--- ----- -- ----,66060.79999999702,66059.89999999106,65681.569,65693.29999999702,65698.24,66064.976,,5,a
screen,html.Screen,0_2_0_1_6,2021-12-03T10:02:32.344Z,,,,,,,,,,,,,,,,53,,,,,,,,,,,,,,474.9239999910642,,response,,,99,,,,,,Space,keypress(Space),,,,,---- -- ----- -- ------ - lasting --- ----------<br>------------- ------ ------ ---- ---- ------- ----- -- ----<br>-------- ------- -- ---------- --- - --- ----- ----- ----<br>---- --- --- ----- --- ---- ---- ------- ----- ---- -------<br>--- --- -- ----- -- --- ---- -- --- ---- -- ------ ------<br>--- ----- -- ----,66540.79999999702,66539.89999999106,66048.306,66061.29999999702,66064.976,66548.417,,6,lasting
screen,html.Screen,0_2_0_1_7,2021-12-03T10:02:32.768Z,,,,,,,,,,,,,,,,53,,,,,,,,,,,,,,415.3829999970185,,response,,,99,,,,,,Space,keypress(Space),,,,,---- -- ----- -- ------ - ------- and ----------<br>------------- ------ ------ ---- ---- ------- ----- -- ----<br>-------- ------- -- ---------- --- - --- ----- ----- ----<br>---- --- --- ----- --- ---- ---- ------- ----- ---- -------<br>--- --- -- ----- -- --- ---- -- --- ---- -- ------ ------<br>--- ----- -- ----,66964.79999999702,66963.79999999702,66531.747,66541.20000000298,66548.417,66981.914,,7,and
screen,html.Screen,0_2_0_1_8,2021-12-03T10:02:33.312Z,,,,,,,,,,,,,,,,53,,,,,,,,,,,,,,525.8859999970155,,response,,,99,,,,,,Space,keypress(Space),,,,,---- -- ----- -- ------ - ------- --- fulfilling<br>------------- ------ ------ ---- ---- ------- ----- -- ----<br>-------- ------- -- ---------- --- - --- ----- ----- ----<br>---- --- --- ----- --- ---- ---- ------- ----- ---- -------<br>--- --- -- ----- -- --- ---- -- --- ---- -- ------ ------<br>--- ----- -- ----,67508.89999999106,67507.79999999702,66965.243,66965.09999999404,66981.914,67515.349,,8,fulfilling
screen,html.Screen,0_2_0_1_9,2021-12-03T10:02:33.728Z,,,,,,,,,,,,,,,,53,,,,,,,,,,,,,,408.4509999970178,,response,,,99,,,,,,Space,keypress(Space),,,,,"---- -- ----- -- ------ - ------- --- ----------<br>relationship, ------ ------ ---- ---- ------- ----- -- ----<br>-------- ------- -- ---------- --- - --- ----- ----- ----<br>---- --- --- ----- --- ---- ---- ------- ----- ---- -------<br>--- --- -- ----- -- --- ---- -- --- ---- -- ------ ------<br>--- ----- -- ----",67924.70000000298,67923.79999999702,67498.679,67509.20000000298,67515.349,67932.119,,9,"relationship,"
screen,html.Screen,0_2_0_1_10,2021-12-03T10:02:34.088Z,,,,,,,,,,,,,,,,53,,,,,,,,,,,,,,351.78099999105325,,response,,,99,,,,,,Space,keypress(Space),,,,,---- -- ----- -- ------ - ------- --- ----------<br>------------- common ------ ---- ---- ------- ----- -- ----<br>-------- ------- -- ---------- --- - --- ----- ----- ----<br>---- --- --- ----- --- ---- ---- ------- ----- ---- -------<br>--- --- -- ----- -- --- ---- -- --- ---- -- ------ ------<br>--- ----- -- ----,68285,68283.89999999106,67915.449,67925,67932.119,68298.896,,10,common
screen,html.Screen,0_2_0_1_11,2021-12-03T10:02:34.520Z,,,,,,,,,,,,,,,,53,,,,,,,,,,,,,,416.9039999970264,,response,,,99,,,,,,Space,keypress(Space),,,,,---- -- ----- -- ------ - ------- --- ----------<br>------------- ------ wisdom ---- ---- ------- ----- -- ----<br>-------- ------- -- ---------- --- - --- ----- ----- ----<br>---- --- --- ----- --- ---- ---- ------- ----- ---- -------<br>--- --- -- ----- -- --- ---- -- --- ---- -- ------ ------<br>--- ----- -- ----,68716.70000000298,68715.79999999702,68282.226,68285.20000000298,68298.896,68732.34,,11,wisdom
screen,html.Screen,0_2_0_1_12,2021-12-03T10:02:35.143Z,,,,,,,,,,,,,,,,53,,,,,,,,,,,,,,607.4599999970233,,response,,,99,,,,,,Space,keypress(Space),,,,,---- -- ----- -- ------ - ------- --- ----------<br>------------- ------ ------ says ---- ------- ----- -- ----<br>-------- ------- -- ---------- --- - --- ----- ----- ----<br>---- --- --- ----- --- ---- ---- ------- ----- ---- -------<br>--- --- -- ----- -- --- ---- -- --- ---- -- ------ ------<br>--- ----- -- ----,69340.70000000298,69339.79999999702,68715.67,68717,68732.34,69349.212,,12,says
screen,html.Screen,0_2_0_1_13,2021-12-03T10:02:35.575Z,,,,,,,,,,,,,,,,53,,,,,,,,,,,,,,422.58799999702023,,response,,,99,,,,,,Space,keypress(Space),,,,,---- -- ----- -- ------ - ------- --- ----------<br>------------- ------ ------ ---- that ------- ----- -- ----<br>-------- ------- -- ---------- --- - --- ----- ----- ----<br>---- --- --- ----- --- ---- ---- ------- ----- ---- -------<br>--- --- -- ----- -- --- ---- -- --- ---- -- ------ ------<br>--- ----- -- ----,69772.59999999404,69771.79999999702,69332.541,69340.89999999106,69349.212,69782.595,,13,that
screen,html.Screen,0_2_0_1_14,2021-12-03T10:02:36.007Z,,,,,,,,,,,,,,,,53,,,,,,,,,,,,,,421.2049999970186,,response,,,99,,,,,,Space,keypress(Space),,,,,---- -- ----- -- ------ - ------- --- ----------<br>------------- ------ ------ ---- ---- feeling ----- -- ----<br>-------- ------- -- ---------- --- - --- ----- ----- ----<br>---- --- --- ----- --- ---- ---- ------- ----- ---- -------<br>--- --- -- ----- -- --- ---- -- --- ---- -- ------ ------<br>--- ----- -- ----,70204.59999999404,70203.79999999702,69765.925,69772.79999999702,69782.595,70216.061,,14,feeling
screen,html.Screen,0_2_0_1_15,2021-12-03T10:02:36.392Z,,,,,,,,,,,,,,,,53,,,,,,,,,,,,,,372.038999994038,,response,,,99,,,,,,Space,keypress(Space),,,,,---- -- ----- -- ------ - ------- --- ----------<br>------------- ------ ------ ---- ---- ------- close -- ----<br>-------- ------- -- ---------- --- - --- ----- ----- ----<br>---- --- --- ----- --- ---- ---- ------- ----- ---- -------<br>--- --- -- ----- -- --- ---- -- --- ---- -- ------ ------<br>--- ----- -- ----,70589,70588.09999999404,70199.391,70204.79999999702,70216.061,70599.482,,15,close
screen,html.Screen,0_2_0_1_16,2021-12-03T10:02:36.743Z,,,,,,,,,,,,,,,,53,,,,,,,,,,,,,,340.2180000029766,,response,,,99,,,,,,Space,keypress(Space),,,,,---- -- ----- -- ------ - ------- --- ----------<br>------------- ------ ------ ---- ---- ------- ----- to ----<br>-------- ------- -- ---------- --- - --- ----- ----- ----<br>---- --- --- ----- --- ---- ---- ------- ----- ---- -------<br>--- --- -- ----- -- --- ---- -- --- ---- -- ------ ------<br>--- ----- -- ----,70940.59999999404,70939.70000000298,70582.812,70589.20000000298,70599.482,70949.654,,16,to
screen,html.Screen,0_2_0_1_17,2021-12-03T10:02:37.152Z,,,,,,,,,,,,,,,,53,,,,,,,,,,,,,,398.44599999404454,,response,,,99,,,,,,Space,keypress(Space),,,,,---- -- ----- -- ------ - ------- --- ----------<br>------------- ------ ------ ---- ---- ------- ----- -- your<br>-------- ------- -- ---------- --- - --- ----- ----- ----<br>---- --- --- ----- --- ---- ---- ------- ----- ---- -------<br>--- --- -- ----- -- --- ---- -- --- ---- -- ------ ------<br>--- ----- -- ----,71348.89999999106,71348.09999999404,70932.983,70940.70000000298,70949.654,71366.375,,17,your
screen,html.Screen,0_2_0_1_18,2021-12-03T10:02:37.567Z,,,,,,,,,,,,,,,,53,,,,,,,,,,,,,,397.32500000298023,,response,,,99,,,,,,Space,keypress(Space),,,,,---- -- ----- -- ------ - ------- --- ----------<br>------------- ------ ------ ---- ---- ------- ----- -- ----<br>romantic ------- -- ---------- --- - --- ----- ----- ----<br>---- --- --- ----- --- ---- ---- ------- ----- ---- -------<br>--- --- -- ----- -- --- ---- -- --- ---- -- ------ ------<br>--- ----- -- ----,71764.5,71763.70000000298,71349.705,71349.20000000298,71366.375,71766.337,,18,romantic
screen,html.Screen,0_2_0_1_19,2021-12-03T10:02:37.975Z,,,,,,,,,,,,,,,,53,,,,,,,,,,,,,,405.26299999404,,response,,,99,,,,,,Space,keypress(Space),,,,,---- -- ----- -- ------ - ------- --- ----------<br>------------- ------ ------ ---- ---- ------- ----- -- ----<br>-------- partner -- ---------- --- - --- ----- ----- ----<br>---- --- --- ----- --- ---- ---- ------- ----- ---- -------<br>--- --- -- ----- -- --- ---- -- --- ---- -- ------ ------<br>--- ----- -- ----,72172.5,72171.59999999404,71749.669,71764.70000000298,71766.337,72183.357,,19,partner
screen,html.Screen,0_2_0_1_20,2021-12-03T10:02:38.479Z,,,,,,,,,,,,,,,,53,,,,,,,,,,,,,,492.3430000029766,,response,,,99,,,,,,Space,keypress(Space),,,,,---- -- ----- -- ------ - ------- --- ----------<br>------------- ------ ------ ---- ---- ------- ----- -- ----<br>-------- ------- is ---------- --- - --- ----- ----- ----<br>---- --- --- ----- --- ---- ---- ------- ----- ---- -------<br>--- --- -- ----- -- --- ---- -- --- ---- -- ------ ------<br>--- ----- -- ----,72676.5,72675.70000000298,72166.685,72172.79999999702,72183.357,72683.393,,20,is
screen,html.Screen,0_2_0_1_21,2021-12-03T10:02:39.367Z,,,,,,,,,,,,,,,,53,,,,,,,,,,,,,,880.2069999940431,,response,,,99,,,,,,Space,keypress(Space),,,,,---- -- ----- -- ------ - ------- --- ----------<br>------------- ------ ------ ---- ---- ------- ----- -- ----<br>-------- ------- -- paramount. --- - --- ----- ----- ----<br>---- --- --- ----- --- ---- ---- ------- ----- ---- -------<br>--- --- -- ----- -- --- ---- -- --- ---- -- ------ ------<br>--- ----- -- ----,73564.39999999106,73563.59999999404,72666.723,72676.70000000298,72683.393,73566.724,,21,paramount.
screen,html.Screen,0_2_0_1_22,2021-12-03T10:02:40.151Z,,,,,,,,,,,,,,,,53,,,,,,,,,,,,,,780.775999999998,,response,,,99,,,,,,Space,keypress(Space),,,,,---- -- ----- -- ------ - ------- --- ----------<br>------------- ------ ------ ---- ---- ------- ----- -- ----<br>-------- ------- -- ---------- But - --- ----- ----- ----<br>---- --- --- ----- --- ---- ---- ------- ----- ---- -------<br>--- --- -- ----- -- --- ---- -- --- ---- -- ------ ------<br>--- ----- -- ----,74348.39999999106,74347.5,73550.056,73564.89999999106,73566.724,74350.653,,22,But
screen,html.Screen,0_2_0_1_23,2021-12-03T10:02:40.615Z,,,,,,,,,,,,,,,,53,,,,,,,,,,,,,,460.8469999999943,,response,,,99,,,,,,Space,keypress(Space),,,,,---- -- ----- -- ------ - ------- --- ----------<br>------------- ------ ------ ---- ---- ------- ----- -- ----<br>-------- ------- -- ---------- --- a --- ----- ----- ----<br>---- --- --- ----- --- ---- ---- ------- ----- ---- -------<br>--- --- -- ----- -- --- ---- -- --- ---- -- ------ ------<br>--- ----- -- ----,74812.29999999702,74811.5,74333.981,74348.59999999404,74350.653,74817.206,,23,a
screen,html.Screen,0_2_0_1_24,2021-12-03T10:02:41.088Z,,,,,,,,,,,,,,,,53,,,,,,,,,,,,,,466.6939999910537,,response,,,99,,,,,,Space,keypress(Space),,,,,---- -- ----- -- ------ - ------- --- ----------<br>------------- ------ ------ ---- ---- ------- ----- -- ----<br>-------- ------- -- ---------- --- - new ----- ----- ----<br>---- --- --- ----- --- ---- ---- ------- ----- ---- -------<br>--- --- -- ----- -- --- ---- -- --- ---- -- ------ ------<br>--- ----- -- ----,75284.70000000298,75283.89999999106,74800.536,74812.5,74817.206,75300.809,,24,new
screen,html.Screen,0_2_0_1_25,2021-12-03T10:02:41.495Z,,,,,,,,,,,,,,,,53,,,,,,,,,,,,,,390.5909999910655,,response,,,99,,,,,,Space,keypress(Space),,,,,---- -- ----- -- ------ - ------- --- ----------<br>------------- ------ ------ ---- ---- ------- ----- -- ----<br>-------- ------- -- ---------- --- - --- study ----- ----<br>---- --- --- ----- --- ---- ---- ------- ----- ---- -------<br>--- --- -- ----- -- --- ---- -- --- ---- -- ------ ------<br>--- ----- -- ----,75692.20000000298,75691.39999999106,75284.138,75285,75300.809,75700.867,,25,study
screen,html.Screen,0_2_0_1_26,2021-12-03T10:02:41.887Z,,,,,,,,,,,,,,,,53,,,,,,,,,,,,,,382.63300000000163,,response,,,99,,,,,,Space,keypress(Space),,,,,---- -- ----- -- ------ - ------- --- ----------<br>------------- ------ ------ ---- ---- ------- ----- -- ----<br>-------- ------- -- ---------- --- - --- ----- finds ----<br>---- --- --- ----- --- ---- ---- ------- ----- ---- -------<br>--- --- -- ----- -- --- ---- -- --- ---- -- ------ ------<br>--- ----- -- ----,76084.20000000298,76083.5,75684.197,75692.5,75700.867,76100.942,,26,finds
screen,html.Screen,0_2_0_1_27,2021-12-03T10:02:42.415Z,,,,,,,,,,,,,,,,53,,,,,,,,,,,,,,510.55800000000454,,response,,,99,,,,,,Space,keypress(Space),,,,,---- -- ----- -- ------ - ------- --- ----------<br>------------- ------ ------ ---- ---- ------- ----- -- ----<br>-------- ------- -- ---------- --- - --- ----- ----- that<br>---- --- --- ----- --- ---- ---- ------- ----- ---- -------<br>--- --- -- ----- -- --- ---- -- --- ---- -- ------ ------<br>--- ----- -- ----,76612.20000000298,76611.5,76084.272,76084.5,76100.942,76617.817,,27,that
screen,html.Screen,0_2_0_1_28,2021-12-03T10:02:42.855Z,,,,,,,,,,,,,,,,53,,,,,,,,,,,,,,433.58299999106384,,response,,,99,,,,,,Space,keypress(Space),,,,,---- -- ----- -- ------ - ------- --- ----------<br>------------- ------ ------ ---- ---- ------- ----- -- ----<br>-------- ------- -- ---------- --- - --- ----- ----- ----<br>it's --- --- ----- --- ---- ---- ------- ----- ---- -------<br>--- --- -- ----- -- --- ---- -- --- ---- -- ------ ------<br>--- ----- -- ----,77052.20000000298,77051.39999999106,76601.146,76612.5,76617.817,77067.87,,28,it's
screen,html.Screen,0_2_0_1_29,2021-12-03T10:02:43.279Z,,,,,,,,,,,,,,,,53,,,,,,,,,,,,,,407.63000000000466,,response,,,99,,,,,,Space,keypress(Space),,,,,---- -- ----- -- ------ - ------- --- ----------<br>------------- ------ ------ ---- ---- ------- ----- -- ----<br>-------- ------- -- ---------- --- - --- ----- ----- ----<br>---- not --- ----- --- ---- ---- ------- ----- ---- -------<br>--- --- -- ----- -- --- ---- -- --- ---- -- ------ ------<br>--- ----- -- ----,77476.20000000298,77475.5,77051.2,77052.5,77067.87,77484.671,,29,not
screen,html.Screen,0_2_0_1_30,2021-12-03T10:02:43.743Z,,,,,,,,,,,,,,,,53,,,,,,,,,,,,,,454.7289999910572,,response,,,99,,,,,,Space,keypress(Space),,,,,---- -- ----- -- ------ - ------- --- ----------<br>------------- ------ ------ ---- ---- ------- ----- -- ----<br>-------- ------- -- ---------- --- - --- ----- ----- ----<br>---- --- how ----- --- ---- ---- ------- ----- ---- -------<br>--- --- -- ----- -- --- ---- -- --- ---- -- ------ ------<br>--- ----- -- ----,77940.20000000298,77939.39999999106,77468.001,77476.5,77484.671,77951.431,,30,how
screen,html.Screen,0_2_0_1_31,2021-12-03T10:02:44.199Z,,,,,,,,,,,,,,,,53,,,,,,,,,,,,,,443.96899999106245,,response,,,99,,,,,,Space,keypress(Space),,,,,---- -- ----- -- ------ - ------- --- ----------<br>------------- ------ ------ ---- ---- ------- ----- -- ----<br>-------- ------- -- ---------- --- - --- ----- ----- ----<br>---- --- --- close --- ---- ---- ------- ----- ---- -------<br>--- --- -- ----- -- --- ---- -- --- ---- -- ------ ------<br>--- ----- -- ----,78396.20000000298,78395.39999999106,77934.761,77940.39999999106,77951.431,78401.622,,31,close
screen,html.Screen,0_2_0_1_32,2021-12-03T10:02:44.615Z,,,,,,,,,,,,,,,,53,,,,,,,,,,,,,,409.7779999910563,,response,,,99,,,,,,Space,keypress(Space),,,,,---- -- ----- -- ------ - ------- --- ----------<br>------------- ------ ------ ---- ---- ------- ----- -- ----<br>-------- ------- -- ---------- --- - --- ----- ----- ----<br>---- --- --- ----- you ---- ---- ------- ----- ---- -------<br>--- --- -- ----- -- --- ---- -- --- ---- -- ------ ------<br>--- ----- -- ----,78812.09999999404,78811.39999999106,78384.951,78396.39999999106,78401.622,78818.351,,32,you
screen,html.Screen,0_2_0_1_33,2021-12-03T10:02:45.007Z,,,,,,,,,,,,,,,,53,,,,,,,,,,,,,,385.0489999910642,,response,,,99,,,,,,Space,keypress(Space),,,,,---- -- ----- -- ------ - ------- --- ----------<br>------------- ------ ------ ---- ---- ------- ----- -- ----<br>-------- ------- -- ---------- --- - --- ----- ----- ----<br>---- --- --- ----- --- feel ---- ------- ----- ---- -------<br>--- --- -- ----- -- --- ---- -- --- ---- -- ------ ------<br>--- ----- -- ----,79204.20000000298,79203.39999999106,78801.681,78812.39999999106,78818.351,79218.464,,33,feel
screen,html.Screen,0_2_0_1_34,2021-12-03T10:02:45.351Z,,,,,,,,,,,,,,,,53,,,,,,,,,,,,,,328.83599999701255,,response,,,99,,,,,,Space,keypress(Space),,,,,---- -- ----- -- ------ - ------- --- ----------<br>------------- ------ ------ ---- ---- ------- ----- -- ----<br>-------- ------- -- ---------- --- - --- ----- ----- ----<br>---- --- --- ----- --- ---- that ------- ----- ---- -------<br>--- --- -- ----- -- --- ---- -- --- ---- -- ------ ------<br>--- ----- -- ----,79548,79547.29999999702,79201.794,79204.39999999106,79218.464,79551.89,,34,that
screen,html.Screen,0_2_0_1_35,2021-12-03T10:02:45.783Z,,,,,,,,,,,,,,,,53,,,,,,,,,,,,,,427.3100000029808,,response,,,99,,,,,,Space,keypress(Space),,,,,---- -- ----- -- ------ - ------- --- ----------<br>------------- ------ ------ ---- ---- ------- ----- -- ----<br>-------- ------- -- ---------- --- - --- ----- ----- ----<br>---- --- --- ----- --- ---- ---- matters ----- ---- -------<br>--- --- -- ----- -- --- ---- -- --- ---- -- ------ ------<br>--- ----- -- ----,79980,79979.20000000298,79535.22,79548.29999999702,79551.89,79985.37,,35,matters
screen,html.Screen,0_2_0_1_36,2021-12-03T10:02:46.215Z,,,,,,,,,,,,,,,,53,,,,,,,,,,,,,,425.9299999970244,,response,,,99,,,,,,Space,keypress(Space),,,,,"---- -- ----- -- ------ - ------- --- ----------<br>------------- ------ ------ ---- ---- ------- ----- -- ----<br>-------- ------- -- ---------- --- - --- ----- ----- ----<br>---- --- --- ----- --- ---- ---- ------- most, ---- -------<br>--- --- -- ----- -- --- ---- -- --- ---- -- ------ ------<br>--- ----- -- ----",80412.20000000298,80411.29999999702,79968.699,79980.29999999702,79985.37,80418.828,,36,"most,"
screen,html.Screen,0_2_0_1_37,2021-12-03T10:02:46.631Z,,,,,,,,,,,,,,,,53,,,,,,,,,,,,,,408.7719999940455,,response,,,99,,,,,,Space,keypress(Space),,,,,---- -- ----- -- ------ - ------- --- ----------<br>------------- ------ ------ ---- ---- ------- ----- -- ----<br>-------- ------- -- ---------- --- - --- ----- ----- ----<br>---- --- --- ----- --- ---- ---- ------- ----- it's -------<br>--- --- -- ----- -- --- ---- -- --- ---- -- ------ ------<br>--- ----- -- ----,80828.5,80827.59999999404,80402.157,80412.39999999106,80418.828,80835.544,,37,it's
screen,html.Screen,0_2_0_1_38,2021-12-03T10:02:47.087Z,,,,,,,,,,,,,,,,53,,,,,,,,,,,,,,447.6560000029858,,response,,,99,,,,,,Space,keypress(Space),,,,,---- -- ----- -- ------ - ------- --- ----------<br>------------- ------ ------ ---- ---- ------- ----- -- ----<br>-------- ------- -- ---------- --- - --- ----- ----- ----<br>---- --- --- ----- --- ---- ---- ------- ----- ---- whether<br>--- --- -- ----- -- --- ---- -- --- ---- -- ------ ------<br>--- ----- -- ----,81284,81283.20000000298,80818.874,80828.79999999702,80835.544,81285.713,,38,whether
screen,html.Screen,0_2_0_1_39,2021-12-03T10:02:47.519Z,,,,,,,,,,,,,,,,53,,,,,,,,,,,,,,429.48700000297686,,response,,,99,,,,,,Space,keypress(Space),,,,,---- -- ----- -- ------ - ------- --- ----------<br>------------- ------ ------ ---- ---- ------- ----- -- ----<br>-------- ------- -- ---------- --- - --- ----- ----- ----<br>---- --- --- ----- --- ---- ---- ------- ----- ---- -------<br>you --- -- ----- -- --- ---- -- --- ---- -- ------ ------<br>--- ----- -- ----,81716,81715.20000000298,81269.042,81284.20000000298,81285.713,81719.135,,39,you
screen,html.Screen,0_2_0_1_40,2021-12-03T10:02:47.927Z,,,,,,,,,,,,,,,,53,,,,,,,,,,,,,,404.06500000298547,,response,,,99,,,,,,Space,keypress(Space),,,,,---- -- ----- -- ------ - ------- --- ----------<br>------------- ------ ------ ---- ---- ------- ----- -- ----<br>-------- ------- -- ---------- --- - --- ----- ----- ----<br>---- --- --- ----- --- ---- ---- ------- ----- ---- -------<br>--- are -- ----- -- --- ---- -- --- ---- -- ------ ------<br>--- ----- -- ----,82123.89999999106,82123.20000000298,81702.465,81716.29999999702,81719.135,82135.911,,40,are
screen,html.Screen,0_2_0_1_41,2021-12-03T10:02:48.687Z,,,,,,,,,,,,,,,,53,,,,,,,,,,,,,,747.0890000000072,,response,,,99,,,,,,Space,keypress(Space),,,,,---- -- ----- -- ------ - ------- --- ----------<br>------------- ------ ------ ---- ---- ------- ----- -- ----<br>-------- ------- -- ---------- --- - --- ----- ----- ----<br>---- --- --- ----- --- ---- ---- ------- ----- ---- -------<br>--- --- as ----- -- --- ---- -- --- ---- -- ------ ------<br>--- ----- -- ----,82883.79999999702,82883,82119.241,82124.09999999404,82135.911,82886.071,,41,as
screen,html.Screen,0_2_0_1_42,2021-12-03T10:02:49.111Z,,,,,,,,,,,,,,,,53,,,,,,,,,,,,,,421.02899999404326,,response,,,99,,,,,,Space,keypress(Space),,,,,---- -- ----- -- ------ - ------- --- ----------<br>------------- ------ ------ ---- ---- ------- ----- -- ----<br>-------- ------- -- ---------- --- - --- ----- ----- ----<br>---- --- --- ----- --- ---- ---- ------- ----- ---- -------<br>--- --- -- close -- --- ---- -- --- ---- -- ------ ------<br>--- ----- -- ----,83308,83307.09999999404,82869.401,82884.09999999404,82886.071,83319.592,,42,close
screen,html.Screen,0_2_0_1_43,2021-12-03T10:02:49.615Z,,,,,,,,,,,,,,,,53,,,,,,,,,,,,,,491.60800000297604,,response,,,99,,,,,,Space,keypress(Space),,,,,---- -- ----- -- ------ - ------- --- ----------<br>------------- ------ ------ ---- ---- ------- ----- -- ----<br>-------- ------- -- ---------- --- - --- ----- ----- ----<br>---- --- --- ----- --- ---- ---- ------- ----- ---- -------<br>--- --- -- ----- as --- ---- -- --- ---- -- ------ ------<br>--- ----- -- ----,83811.89999999106,83811.20000000298,83302.921,83308.29999999702,83319.592,83819.661,,43,as
screen,html.Screen,0_2_0_1_44,2021-12-03T10:02:50.111Z,,,,,,,,,,,,,,,,53,,,,,,,,,,,,,,487.3390000000072,,response,,,99,,,,,,Space,keypress(Space),,,,,---- -- ----- -- ------ - ------- --- ----------<br>------------- ------ ------ ---- ---- ------- ----- -- ----<br>-------- ------- -- ---------- --- - --- ----- ----- ----<br>---- --- --- ----- --- ---- ---- ------- ----- ---- -------<br>--- --- -- ----- -- you ---- -- --- ---- -- ------ ------<br>--- ----- -- ----,84307.79999999702,84307,83802.991,83812.20000000298,83819.661,84319.841,,44,you
screen,html.Screen,0_2_0_1_45,2021-12-03T10:02:50.543Z,,,,,,,,,,,,,,,,53,,,,,,,,,,,,,,419.15899999999965,,response,,,99,,,,,,Space,keypress(Space),,,,,---- -- ----- -- ------ - ------- --- ----------<br>------------- ------ ------ ---- ---- ------- ----- -- ----<br>-------- ------- -- ---------- --- - --- ----- ----- ----<br>---- --- --- ----- --- ---- ---- ------- ----- ---- -------<br>--- --- -- ----- -- --- want -- --- ---- -- ------ ------<br>--- ----- -- ----,84739.79999999702,84739,84303.17,84308,84319.841,84753.264,,45,want
screen,html.Screen,0_2_0_1_46,2021-12-03T10:02:51.039Z,,,,,,,,,,,,,,,,53,,,,,,,,,,,,,,481.7360000000044,,response,,,99,,,,,,Space,keypress(Space),,,,,---- -- ----- -- ------ - ------- --- ----------<br>------------- ------ ------ ---- ---- ------- ----- -- ----<br>-------- ------- -- ---------- --- - --- ----- ----- ----<br>---- --- --- ----- --- ---- ---- ------- ----- ---- -------<br>--- --- -- ----- -- --- ---- to --- ---- -- ------ ------<br>--- ----- -- ----,85235.79999999702,85235,84736.594,84740,84753.264,85236.721,,46,to
screen,html.Screen,0_2_0_1_47,2021-12-03T10:02:51.471Z,,,,,,,,,,,,,,,,53,,,,,,,,,,,,,,430.1789999910543,,response,,,99,,,,,,Space,keypress(Space),,,,,"---- -- ----- -- ------ - ------- --- ----------<br>------------- ------ ------ ---- ---- ------- ----- -- ----<br>-------- ------- -- ---------- --- - --- ----- ----- ----<br>---- --- --- ----- --- ---- ---- ------- ----- ---- -------<br>--- --- -- ----- -- --- ---- -- be, ---- -- ------ ------<br>--- ----- -- ----",85667.70000000298,85666.89999999106,85220.051,85236,85236.721,85670.213,,47,"be,"
screen,html.Screen,0_2_0_1_48,2021-12-03T10:02:51.919Z,,,,,,,,,,,,,,,,53,,,,,,,,,,,,,,444.7869999999966,,response,,,99,,,,,,Space,keypress(Space),,,,,---- -- ----- -- ------ - ------- --- ----------<br>------------- ------ ------ ---- ---- ------- ----- -- ----<br>-------- ------- -- ---------- --- - --- ----- ----- ----<br>---- --- --- ----- --- ---- ---- ------- ----- ---- -------<br>--- --- -- ----- -- --- ---- -- --- even -- ------ ------<br>--- ----- -- ----,86115.70000000298,86115,85653.542,85667.89999999106,85670.213,86120.299,,48,even
screen,html.Screen,0_2_0_1_49,2021-12-03T10:02:52.375Z,,,,,,,,,,,,,,,,53,,,,,,,,,,,,,,450.70100000000093,,response,,,99,,,,,,Space,keypress(Space),,,,,---- -- ----- -- ------ - ------- --- ----------<br>------------- ------ ------ ---- ---- ------- ----- -- ----<br>-------- ------- -- ---------- --- - --- ----- ----- ----<br>---- --- --- ----- --- ---- ---- ------- ----- ---- -------<br>--- --- -- ----- -- --- ---- -- --- ---- if ------ ------<br>--- ----- -- ----,86571.70000000298,86571,86103.629,86115.89999999106,86120.299,86587.075,,49,if
screen,html.Screen,0_2_0_1_50,2021-12-03T10:02:52.935Z,,,,,,,,,,,,,,,,53,,,,,,,,,,,,,,543.8249999910622,,response,,,99,,,,,,Space,keypress(Space),,,,,---- -- ----- -- ------ - ------- --- ----------<br>------------- ------ ------ ---- ---- ------- ----- -- ----<br>-------- ------- -- ---------- --- - --- ----- ----- ----<br>---- --- --- ----- --- ---- ---- ------- ----- ---- -------<br>--- --- -- ----- -- --- ---- -- --- ---- -- that's ------<br>--- ----- -- ----,87131.70000000298,87130.89999999106,86570.405,86572,86587.075,87137.227,,50,that's
screen,html.Screen,0_2_0_1_51,2021-12-03T10:02:53.591Z,,,,,,,,,,,,,,,,53,,,,,,,,,,,,,,649.6729999910604,,response,,,99,,,,,,Space,keypress(Space),,,,,---- -- ----- -- ------ - ------- --- ----------<br>------------- ------ ------ ---- ---- ------- ----- -- ----<br>-------- ------- -- ---------- --- - --- ----- ----- ----<br>---- --- --- ----- --- ---- ---- ------- ----- ---- -------<br>--- --- -- ----- -- --- ---- -- --- ---- -- ------ really<br>--- ----- -- ----,87787.70000000298,87786.89999999106,87120.557,87132,87137.227,87804.117,,51,really
screen,html.Screen,0_2_0_1_52,2021-12-03T10:02:54.094Z,,,,,,,,,,,,,,,,53,,,,,,,,,,,,,,486.78299999106093,,response,,,99,,,,,,Space,keypress(Space),,,,,---- -- ----- -- ------ - ------- --- ----------<br>------------- ------ ------ ---- ---- ------- ----- -- ----<br>-------- ------- -- ---------- --- - --- ----- ----- ----<br>---- --- --- ----- --- ---- ---- ------- ----- ---- -------<br>--- --- -- ----- -- --- ---- -- --- ---- -- ------ ------<br>not ----- -- ----,88291.70000000298,88290.89999999106,87787.446,87788,87804.117,88304.077,,52,not
screen,html.Screen,0_2_0_1_53,2021-12-03T10:02:54.654Z,,,,,,,,,,,,,,,,53,,,,,,,,,,,,,,546.8229999910545,,response,,,99,,,,,,Space,keypress(Space),,,,,---- -- ----- -- ------ - ------- --- ----------<br>------------- ------ ------ ---- ---- ------- ----- -- ----<br>-------- ------- -- ---------- --- - --- ----- ----- ----<br>---- --- --- ----- --- ---- ---- ------- ----- ---- -------<br>--- --- -- ----- -- --- ---- -- --- ---- -- ------ ------<br>--- close -- ----,88851.59999999404,88850.89999999106,88287.408,88291.89999999106,88304.077,88854.405,,53,close
screen,html.Screen,0_2_0_1_54,2021-12-03T10:02:55.071Z,,,,,,,,,,,,,,,,53,,,,,,,,,,,,,,412.59500000000116,,response,,,99,,,,,,Space,keypress(Space),,,,,---- -- ----- -- ------ - ------- --- ----------<br>------------- ------ ------ ---- ---- ------- ----- -- ----<br>-------- ------- -- ---------- --- - --- ----- ----- ----<br>---- --- --- ----- --- ---- ---- ------- ----- ---- -------<br>--- --- -- ----- -- --- ---- -- --- ---- -- ------ ------<br>--- ----- at ----,89267.70000000298,89267,88837.734,88851.79999999702,88854.405,89271.134,,54,at
screen,html.Screen,0_2_0_1_55,2021-12-03T10:02:55.686Z,,,,,,,,,,,,,,,,53,,,,,,,,,,,,,,611.6659999970143,,response,,,99,,,,,,Space,keypress(Space),,,,,---- -- ----- -- ------ - ------- --- ----------<br>------------- ------ ------ ---- ---- ------- ----- -- ----<br>-------- ------- -- ---------- --- - --- ----- ----- ----<br>---- --- --- ----- --- ---- ---- ------- ----- ---- -------<br>--- --- -- ----- -- --- ---- -- --- ---- -- ------ ------<br>--- ----- -- all.,89883.59999999404,89882.79999999702,89254.464,89268,89271.134,89904.626,,55,all.
Item 99,flow.Loop,0_2_0_1,2021-12-03T10:02:55.691Z,,,,,,,,,,,,,,,,,,,,,,,,,,,,,,27569.11099999702,,completion,,,,D,,,,,,,,,,silence,,89888.20000000298,89882.79999999702,62297.02,62303.5,62313.689,89904.626,,,
Question 1,html.Screen,0_2_0_2,2021-12-03T10:03:02.335Z,,,,,,,,,,,,,,,,,,,,,,,,,,,false,FALSE,,6625.7739999910555,,response,,,99,D,,,,,TRUE,click #choice-1,,,,silence,,96531.70000000298,96530.39999999106,89887.956,89888.39999999106,89904.626,96539.673,,,
Question 2,html.Screen,0_2_0_3,2021-12-03T10:03:07.166Z,,,,,,,,,,,,,,,,,,,,,,,,,,,true,TRUE,,4822.426999994044,,response,,,99,D,,,,,TRUE,click #choice-1,,,,silence,,101363.29999999702,101362.09999999404,96523.003,96532,96539.673,101374.399,,,
Item 99,flow.Sequence,0_2_0,2021-12-03T10:03:07.166Z,,,,,,,,,,,,,,,,,,,,,,,,,,,,,,49050.119999994036,,completion,,,,,,,,,,,,,,,,101363.59999999404,101362.09999999404,52295.271,52302.59999999404,52311.98,101374.399,,,
Holding screen,html.Screen,0_2_1_0,2021-12-03T10:03:17.164Z,,,,,,,,,,,,,,,,,,,,,,,,,,,,,,10002.453999999998,,timeout,,,,,,,,,,,,,,,,111361.39999999106,111360.183,101357.727,101364,101374.399,111376.853,,,
screen,html.Screen,0_2_1_1_0,2021-12-03T10:03:19.486Z,,,,,,,,,,,,,,,,54,,,,,,,,,,,,,,2305.3470000029774,,response,,,100,,,,,,Space,keypress(Space),,,,,At --- ---- --- ------ ----- ------- ---- -- --- ------- --<br>------- ---------- ------ -- ----- -- ----- -- ---- ------<br>--- ----- --- --- ------ -------- ----- --- ------ ----- --<br>----- ----- ---------- --- --- ------ ------ ---- -- ------<br>------- --- ------ ----- --- ---- ------- -- ---- --- --<br>------- ------,113683.20000000298,113682.20000000298,111360.183,111361.89999999106,111376.853,113694.52,,0,At
screen,html.Screen,0_2_1_1_1,2021-12-03T10:03:20.021Z,,,,,,,,,,,,,,,,54,,,,,,,,,,,,,,523.1800000029762,,response,,,100,,,,,,Space,keypress(Space),,,,,-- the ---- --- ------ ----- ------- ---- -- --- ------- --<br>------- ---------- ------ -- ----- -- ----- -- ---- ------<br>--- ----- --- --- ------ -------- ----- --- ------ ----- --<br>----- ----- ---------- --- --- ------ ------ ---- -- ------<br>------- --- ------ ----- --- ---- ------- -- ---- --- --<br>------- ------,114218.5,114217.70000000298,113677.848,113683.39999999106,113694.52,114227.612,,1,the
screen,html.Screen,0_2_1_1_2,2021-12-03T10:03:20.445Z,,,,,,,,,,,,,,,,54,,,,,,,,,,,,,,414.0880000029865,,response,,,100,,,,,,Space,keypress(Space),,,,,-- --- time --- ------ ----- ------- ---- -- --- ------- --<br>------- ---------- ------ -- ----- -- ----- -- ---- ------<br>--- ----- --- --- ------ -------- ----- --- ------ ----- --<br>----- ----- ---------- --- --- ------ ------ ---- -- ------<br>------- --- ------ ----- --- ---- ------- -- ---- --- --<br>------- ------,114642.5,114641.70000000298,114210.942,114219,114227.612,114644.467,,2,time
screen,html.Screen,0_2_1_1_3,2021-12-03T10:03:20.869Z,,,,,,,,,,,,,,,,54,,,,,,,,,,,,,,421.13299999403534,,response,,,100,,,,,,Space,keypress(Space),,,,,-- --- ---- the ------ ----- ------- ---- -- --- ------- --<br>------- ---------- ------ -- ----- -- ----- -- ---- ------<br>--- ----- --- --- ------ -------- ----- --- ------ ----- --<br>----- ----- ---------- --- --- ------ ------ ---- -- ------<br>------- --- ------ ----- --- ---- ------- -- ---- --- --<br>------- ------,115066.29999999702,115065.59999999404,114627.797,114642.79999999702,114644.467,115078.084,,3,the
screen,html.Screen,0_2_1_1_4,2021-12-03T10:03:21.365Z,,,,,,,,,,,,,,,,54,,,,,,,,,,,,,,483.515999994037,,response,,,100,,,,,,Space,keypress(Space),,,,,-- --- ---- --- French ----- ------- ---- -- --- ------- --<br>------- ---------- ------ -- ----- -- ----- -- ---- ------<br>--- ----- --- --- ------ -------- ----- --- ------ ----- --<br>----- ----- ---------- --- --- ------ ------ ---- -- ------<br>------- --- ------ ----- --- ---- ------- -- ---- --- --<br>------- ------,115562.39999999106,115561.59999999404,115061.412,115066.70000000298,115078.084,115578.165,,4,French
screen,html.Screen,0_2_1_1_5,2021-12-03T10:03:21.821Z,,,,,,,,,,,,,,,,54,,,,,,,,,,,,,,439.43499999404594,,response,,,100,,,,,,Space,keypress(Space),,,,,-- --- ---- --- ------ crown ------- ---- -- --- ------- --<br>------- ---------- ------ -- ----- -- ----- -- ---- ------<br>--- ----- --- --- ------ -------- ----- --- ------ ----- --<br>----- ----- ---------- --- --- ------ ------ ---- -- ------<br>------- --- ------ ----- --- ---- ------- -- ---- --- --<br>------- ------,116018.5,116017.59999999404,115561.494,115562.70000000298,115578.165,116028.144,,5,crown
screen,html.Screen,0_2_1_1_6,2021-12-03T10:03:22.357Z,,,,,,,,,,,,,,,,54,,,,,,,,,,,,,,525.4559999940393,,response,,,100,,,,,,Space,keypress(Space),,,,,-- --- ---- --- ------ ----- secured ---- -- --- ------- --<br>------- ---------- ------ -- ----- -- ----- -- ---- ------<br>--- ----- --- --- ------ -------- ----- --- ------ ----- --<br>----- ----- ---------- --- --- ------ ------ ---- -- ------<br>------- --- ------ ----- --- ---- ------- -- ---- --- --<br>------- ------,116554.5,116553.59999999404,116011.475,116018.70000000298,116028.144,116561.651,,6,secured
screen,html.Screen,0_2_1_1_7,2021-12-03T10:03:22.789Z,,,,,,,,,,,,,,,,54,,,,,,,,,,,,,,423.849000000002,,response,,,100,,,,,,Space,keypress(Space),,,,,-- --- ---- --- ------ ----- ------- much -- --- ------- --<br>------- ---------- ------ -- ----- -- ----- -- ---- ------<br>--- ----- --- --- ------ -------- ----- --- ------ ----- --<br>----- ----- ---------- --- --- ------ ------ ---- -- ------<br>------- --- ------ ----- --- ---- ------- -- ---- --- --<br>------- ------,116986.5,116985.5,116544.981,116554.70000000298,116561.651,116995.25,,7,much
screen,html.Screen,0_2_1_1_8,2021-12-03T10:03:23.365Z,,,,,,,,,,,,,,,,54,,,,,,,,,,,,,,566.1499999910593,,response,,,100,,,,,,Space,keypress(Space),,,,,-- --- ---- --- ------ ----- ------- ---- of --- ------- --<br>------- ---------- ------ -- ----- -- ----- -- ---- ------<br>--- ----- --- --- ------ -------- ----- --- ------ ----- --<br>----- ----- ---------- --- --- ------ ------ ---- -- ------<br>------- --- ------ ----- --- ---- ------- -- ---- --- --<br>------- ------,117562.20000000298,117561.39999999106,116978.578,116986.70000000298,116995.25,117578.691,,8,of
screen,html.Screen,0_2_1_1_9,2021-12-03T10:03:23.749Z,,,,,,,,,,,,,,,,54,,,,,,,,,,,,,,366.80899999999383,,response,,,100,,,,,,Space,keypress(Space),,,,,-- --- ---- --- ------ ----- ------- ---- -- its ------- --<br>------- ---------- ------ -- ----- -- ----- -- ---- ------<br>--- ----- --- --- ------ -------- ----- --- ------ ----- --<br>----- ----- ---------- --- --- ------ ------ ---- -- ------<br>------- --- ------ ----- --- ---- ------- -- ---- --- --<br>------- ------,117946.29999999702,117945.5,117562.02,117562.39999999106,117578.691,117962.107,,9,its
screen,html.Screen,0_2_1_1_10,2021-12-03T10:03:24.213Z,,,,,,,,,,,,,,,,54,,,,,,,,,,,,,,447.3929999999964,,response,,,100,,,,,,Space,keypress(Space),,,,,-- --- ---- --- ------ ----- ------- ---- -- --- revenue --<br>------- ---------- ------ -- ----- -- ----- -- ---- ------<br>--- ----- --- --- ------ -------- ----- --- ------ ----- --<br>----- ----- ---------- --- --- ------ ------ ---- -- ------<br>------- --- ------ ----- --- ---- ------- -- ---- --- --<br>------- ------,118410.29999999702,118409.5,117945.437,117946.59999999404,117962.107,118412.226,,10,revenue
screen,html.Screen,0_2_1_1_11,2021-12-03T10:03:24.637Z,,,,,,,,,,,,,,,,54,,,,,,,,,,,,,,421.07399999702466,,response,,,100,,,,,,Space,keypress(Space),,,,,-- --- ---- --- ------ ----- ------- ---- -- --- ------- by<br>------- ---------- ------ -- ----- -- ----- -- ---- ------<br>--- ----- --- --- ------ -------- ----- --- ------ ----- --<br>----- ----- ---------- --- --- ------ ------ ---- -- ------<br>------- --- ------ ----- --- ---- ------- -- ---- --- --<br>------- ------,118833.70000000298,118833.29999999702,118395.556,118410.5,118412.226,118845.593,,11,by
screen,html.Screen,0_2_1_1_12,2021-12-03T10:03:25.037Z,,,,,,,,,,,,,,,,54,,,,,,,,,,,,,,387.8069999910658,,response,,,100,,,,,,Space,keypress(Space),,,,,-- --- ---- --- ------ ----- ------- ---- -- --- ------- --<br>issuing ---------- ------ -- ----- -- ----- -- ---- ------<br>--- ----- --- --- ------ -------- ----- --- ------ ----- --<br>----- ----- ---------- --- --- ------ ------ ---- -- ------<br>------- --- ------ ----- --- ---- ------- -- ---- --- --<br>------- ------,119234.20000000298,119233.39999999106,118828.924,118833.89999999106,118845.593,119245.826,,12,issuing
screen,html.Screen,0_2_1_1_13,2021-12-03T10:03:25.413Z,,,,,,,,,,,,,,,,54,,,,,,,,,,,,,,363.5739999910584,,response,,,100,,,,,,Space,keypress(Space),,,,,-- --- ---- --- ------ ----- ------- ---- -- --- ------- --<br>------- government ------ -- ----- -- ----- -- ---- ------<br>--- ----- --- --- ------ -------- ----- --- ------ ----- --<br>----- ----- ---------- --- --- ------ ------ ---- -- ------<br>------- --- ------ ----- --- ---- ------- -- ---- --- --<br>------- ------,119610.20000000298,119609.39999999106,119229.155,119234.5,119245.826,119612.548,,13,government
screen,html.Screen,0_2_1_1_14,2021-12-03T10:03:25.941Z,,,,,,,,,,,,,,,,54,,,,,,,,,,,,,,524.8519999910641,,response,,,100,,,,,,Space,keypress(Space),,,,,-- --- ---- --- ------ ----- ------- ---- -- --- ------- --<br>------- ---------- bonds. -- ----- -- ----- -- ---- ------<br>--- ----- --- --- ------ -------- ----- --- ------ ----- --<br>----- ----- ---------- --- --- ------ ------ ---- -- ------<br>------- --- ------ ----- --- ---- ------- -- ---- --- --<br>------- ------,120138.20000000298,120137.39999999106,119595.878,119610.39999999106,119612.548,120145.843,,14,bonds.
screen,html.Screen,0_2_1_1_15,2021-12-03T10:03:26.408Z,,,,,,,,,,,,,,,,54,,,,,,,,,,,,,,455.4569999970263,,response,,,100,,,,,,Space,keypress(Space),,,,,-- --- ---- --- ------ ----- ------- ---- -- --- ------- --<br>------- ---------- ------ In ----- -- ----- -- ---- ------<br>--- ----- --- --- ------ -------- ----- --- ------ ----- --<br>----- ----- ---------- --- --- ------ ------ ---- -- ------<br>------- --- ------ ----- --- ---- ------- -- ---- --- --<br>------- ------,120602.09999999404,120601.29999999702,120129.175,120138.5,120145.843,120612.879,,15,In
screen,html.Screen,0_2_1_1_16,2021-12-03T10:03:27.888Z,,,,,,,,,,,,,,,,54,,,,,,,,,,,,,,1468.420999997019,,response,,,100,,,,,,Space,keypress(Space),,,,,"-- --- ---- --- ------ ----- ------- ---- -- --- ------- --<br>------- ---------- ------ -- 1727, -- ----- -- ---- ------<br>--- ----- --- --- ------ -------- ----- --- ------ ----- --<br>----- ----- ---------- --- --- ------ ------ ---- -- ------<br>------- --- ------ ----- --- ---- ------- -- ---- --- --<br>------- ------",122082.09999999404,122081.29999999702,120596.207,120602.29999999702,120612.879,122096.56,,16,"1727,"
screen,html.Screen,0_2_1_1_17,2021-12-03T10:03:30.648Z,,,,,,,,,,,,,,,,54,,,,,,,,,,,,,,2745.1400000029826,,response,,,100,,,,,,Space,keypress(Space),,,,,-- --- ---- --- ------ ----- ------- ---- -- --- ------- --<br>------- ---------- ------ -- ----- in ----- -- ---- ------<br>--- ----- --- --- ------ -------- ----- --- ------ ----- --<br>----- ----- ---------- --- --- ------ ------ ---- -- ------<br>------- --- ------ ----- --- ---- ------- -- ---- --- --<br>------- ------,124842.39999999106,124841.70000000298,122079.889,122082.29999999702,122096.56,124847.107,,17,in
screen,html.Screen,0_2_1_1_18,2021-12-03T10:03:31.464Z,,,,,,,,,,,,,,,,54,,,,,,,,,,,,,,810.0930000029766,,response,,,100,,,,,,Space,keypress(Space),,,,,-- --- ---- --- ------ ----- ------- ---- -- --- ------- --<br>------- ---------- ------ -- ----- -- order -- ---- ------<br>--- ----- --- --- ------ -------- ----- --- ------ ----- --<br>----- ----- ---------- --- --- ------ ------ ---- -- ------<br>------- --- ------ ----- --- ---- ------- -- ---- --- --<br>------- ------,125658,125657.20000000298,124830.437,124842.70000000298,124847.107,125664.055,,18,order
screen,html.Screen,0_2_1_1_19,2021-12-03T10:03:31.984Z,,,,,,,,,,,,,,,,54,,,,,,,,,,,,,,513.0449999940465,,response,,,100,,,,,,Space,keypress(Space),,,,,-- --- ---- --- ------ ----- ------- ---- -- --- ------- --<br>------- ---------- ------ -- ----- -- ----- to ---- ------<br>--- ----- --- --- ------ -------- ----- --- ------ ----- --<br>----- ----- ---------- --- --- ------ ------ ---- -- ------<br>------- --- ------ ----- --- ---- ------- -- ---- --- --<br>------- ------,126177.89999999106,126177.09999999404,125647.385,125658.20000000298,125664.055,126180.842,,19,to
screen,html.Screen,0_2_1_1_20,2021-12-03T10:03:32.568Z,,,,,,,,,,,,,,,,54,,,,,,,,,,,,,,580.2579999940353,,response,,,100,,,,,,Space,keypress(Space),,,,,-- --- ---- --- ------ ----- ------- ---- -- --- ------- --<br>------- ---------- ------ -- ----- -- ----- -- save ------<br>--- ----- --- --- ------ -------- ----- --- ------ ----- --<br>----- ----- ---------- --- --- ------ ------ ---- -- ------<br>------- --- ------ ----- --- ---- ------- -- ---- --- --<br>------- ------,126761.89999999106,126761.09999999404,126164.172,126178.20000000298,126180.842,126764.535,,20,save
screen,html.Screen,0_2_1_1_21,2021-12-03T10:03:33.000Z,,,,,,,,,,,,,,,,54,,,,,,,,,,,,,,428.56499999403604,,response,,,100,,,,,,Space,keypress(Space),,,,,"-- --- ---- --- ------ ----- ------- ---- -- --- ------- --<br>------- ---------- ------ -- ----- -- ----- -- ---- money,<br>--- ----- --- --- ------ -------- ----- --- ------ ----- --<br>----- ----- ---------- --- --- ------ ------ ---- -- ------<br>------- --- ------ ----- --- ---- ------- -- ---- --- --<br>------- ------",127194,127193.09999999404,126747.863,126762.09999999404,126764.535,127197.892,,21,"money,"
screen,html.Screen,0_2_1_1_22,2021-12-03T10:03:33.432Z,,,,,,,,,,,,,,,,54,,,,,,,,,,,,,,427.20799999403243,,response,,,100,,,,,,Space,keypress(Space),,,,,-- --- ---- --- ------ ----- ------- ---- -- --- ------- --<br>------- ---------- ------ -- ----- -- ----- -- ---- ------<br>the ----- --- --- ------ -------- ----- --- ------ ----- --<br>----- ----- ---------- --- --- ------ ------ ---- -- ------<br>------- --- ------ ----- --- ---- ------- -- ---- --- --<br>------- ------,127625.79999999702,127625.09999999404,127181.222,127194.20000000298,127197.892,127631.289,,22,the
screen,html.Screen,0_2_1_1_23,2021-12-03T10:03:33.800Z,,,,,,,,,,,,,,,,54,,,,,,,,,,,,,,361.8109999940352,,response,,,100,,,,,,Space,keypress(Space),,,,,-- --- ---- --- ------ ----- ------- ---- -- --- ------- --<br>------- ---------- ------ -- ----- -- ----- -- ---- ------<br>--- state --- --- ------ -------- ----- --- ------ ----- --<br>----- ----- ---------- --- --- ------ ------ ---- -- ------<br>------- --- ------ ----- --- ---- ------- -- ---- --- --<br>------- ------,127993.79999999702,127993.09999999404,127614.619,127626.09999999404,127631.289,127998.134,,23,state
screen,html.Screen,0_2_1_1_24,2021-12-03T10:03:34.248Z,,,,,,,,,,,,,,,,54,,,,,,,,,,,,,,442.86599999999453,,response,,,100,,,,,,Space,keypress(Space),,,,,-- --- ---- --- ------ ----- ------- ---- -- --- ------- --<br>------- ---------- ------ -- ----- -- ----- -- ---- ------<br>--- ----- cut --- ------ -------- ----- --- ------ ----- --<br>----- ----- ---------- --- --- ------ ------ ---- -- ------<br>------- --- ------ ----- --- ---- ------- -- ---- --- --<br>------- ------,128441.89999999106,128441,127981.463,127994.09999999404,127998.134,128448.266,,24,cut
screen,html.Screen,0_2_1_1_25,2021-12-03T10:03:34.623Z,,,,,,,,,,,,,,,,54,,,,,,,,,,,,,,368.73399999999674,,response,,,100,,,,,,Space,keypress(Space),,,,,-- --- ---- --- ------ ----- ------- ---- -- --- ------- --<br>------- ---------- ------ -- ----- -- ----- -- ---- ------<br>--- ----- --- the ------ -------- ----- --- ------ ----- --<br>----- ----- ---------- --- --- ------ ------ ---- -- ------<br>------- --- ------ ----- --- ---- ------- -- ---- --- --<br>------- ------,128817.79999999702,128817,128431.595,128442.20000000298,128448.266,128831.629,,25,the
screen,html.Screen,0_2_1_1_26,2021-12-03T10:03:35.015Z,,,,,,,,,,,,,,,,54,,,,,,,,,,,,,,377.3709999999992,,response,,,100,,,,,,Space,keypress(Space),,,,,-- --- ---- --- ------ ----- ------- ---- -- --- ------- --<br>------- ---------- ------ -- ----- -- ----- -- ---- ------<br>--- ----- --- --- bonds' -------- ----- --- ------ ----- --<br>----- ----- ---------- --- --- ------ ------ ---- -- ------<br>------- --- ------ ----- --- ---- ------- -- ---- --- --<br>------- ------,129209.79999999702,129209,128814.959,128818,128831.629,129215.121,,26,bonds'
screen,html.Screen,0_2_1_1_27,2021-12-03T10:03:35.551Z,,,,,,,,,,,,,,,,54,,,,,,,,,,,,,,529.7789999910601,,response,,,100,,,,,,Space,keypress(Space),,,,,-- --- ---- --- ------ ----- ------- ---- -- --- ------- --<br>------- ---------- ------ -- ----- -- ----- -- ---- ------<br>--- ----- --- --- ------ interest ----- --- ------ ----- --<br>----- ----- ---------- --- --- ------ ------ ---- -- ------<br>------- --- ------ ----- --- ---- ------- -- ---- --- --<br>------- ------,129745.79999999702,129744.89999999106,129198.45,129210,129215.121,129748.561,,27,interest
screen,html.Screen,0_2_1_1_28,2021-12-03T10:03:35.959Z,,,,,,,,,,,,,,,,54,,,,,,,,,,,,,,404.4389999999985,,response,,,100,,,,,,Space,keypress(Space),,,,,-- --- ---- --- ------ ----- ------- ---- -- --- ------- --<br>------- ---------- ------ -- ----- -- ----- -- ---- ------<br>--- ----- --- --- ------ -------- rate. --- ------ ----- --<br>----- ----- ---------- --- --- ------ ------ ---- -- ------<br>------- --- ------ ----- --- ---- ------- -- ---- --- --<br>------- ------,130153.70000000298,130153,129731.891,129746,129748.561,130165.328,,28,rate.
screen,html.Screen,0_2_1_1_29,2021-12-03T10:03:36.319Z,,,,,,,,,,,,,,,,54,,,,,,,,,,,,,,347.67200000000594,,response,,,100,,,,,,Space,keypress(Space),,,,,-- --- ---- --- ------ ----- ------- ---- -- --- ------- --<br>------- ---------- ------ -- ----- -- ----- -- ---- ------<br>--- ----- --- --- ------ -------- ----- The ------ ----- --<br>----- ----- ---------- --- --- ------ ------ ---- -- ------<br>------- --- ------ ----- --- ---- ------- -- ---- --- --<br>------- ------,130513.70000000298,130513,130148.658,130154,130165.328,130515.416,,29,The
screen,html.Screen,0_2_1_1_30,2021-12-03T10:03:36.839Z,,,,,,,,,,,,,,,,54,,,,,,,,,,,,,,517.4839999910619,,response,,,100,,,,,,Space,keypress(Space),,,,,-- --- ---- --- ------ ----- ------- ---- -- --- ------- --<br>------- ---------- ------ -- ----- -- ----- -- ---- ------<br>--- ----- --- --- ------ -------- ----- --- market ----- --<br>----- ----- ---------- --- --- ------ ------ ---- -- ------<br>------- --- ------ ----- --- ---- ------- -- ---- --- --<br>------- ------,131033.70000000298,131032.89999999106,130498.746,130513.89999999106,130515.416,131048.958,,30,market
screen,html.Screen,0_2_1_1_31,2021-12-03T10:03:37.295Z,,,,,,,,,,,,,,,,54,,,,,,,,,,,,,,439.9419999910606,,response,,,100,,,,,,Space,keypress(Space),,,,,-- --- ---- --- ------ ----- ------- ---- -- --- ------- --<br>------- ---------- ------ -- ----- -- ----- -- ---- ------<br>--- ----- --- --- ------ -------- ----- --- ------ value --<br>----- ----- ---------- --- --- ------ ------ ---- -- ------<br>------- --- ------ ----- --- ---- ------- -- ---- --- --<br>------- ------,131489.79999999702,131488.89999999106,131032.287,131034.09999999404,131048.958,131499.019,,31,value
screen,html.Screen,0_2_1_1_32,2021-12-03T10:03:37.735Z,,,,,,,,,,,,,,,,54,,,,,,,,,,,,,,429.88099999105907,,response,,,100,,,,,,Space,keypress(Space),,,,,-- --- ---- --- ------ ----- ------- ---- -- --- ------- --<br>------- ---------- ------ -- ----- -- ----- -- ---- ------<br>--- ----- --- --- ------ -------- ----- --- ------ ----- of<br>----- ----- ---------- --- --- ------ ------ ---- -- ------<br>------- --- ------ ----- --- ---- ------- -- ---- --- --<br>------- ------,131929.70000000298,131928.89999999106,131482.349,131490,131499.019,131932.455,,32,of
screen,html.Screen,0_2_1_1_33,2021-12-03T10:03:38.191Z,,,,,,,,,,,,,,,,54,,,,,,,,,,,,,,452.3449999970326,,response,,,100,,,,,,Space,keypress(Space),,,,,-- --- ---- --- ------ ----- ------- ---- -- --- ------- --<br>------- ---------- ------ -- ----- -- ----- -- ---- ------<br>--- ----- --- --- ------ -------- ----- --- ------ ----- --<br>these ----- ---------- --- --- ------ ------ ---- -- ------<br>------- --- ------ ----- --- ---- ------- -- ---- --- --<br>------- ------,132385.79999999702,132384.79999999702,131915.785,131930,131932.455,132399.258,,33,these
screen,html.Screen,0_2_1_1_34,2021-12-03T10:03:38.575Z,,,,,,,,,,,,,,,,54,,,,,,,,,,,,,,369.54199999701814,,response,,,100,,,,,,Space,keypress(Space),,,,,-- --- ---- --- ------ ----- ------- ---- -- --- ------- --<br>------- ---------- ------ -- ----- -- ----- -- ---- ------<br>--- ----- --- --- ------ -------- ----- --- ------ ----- --<br>----- bonds ---------- --- --- ------ ------ ---- -- ------<br>------- --- ------ ----- --- ---- ------- -- ---- --- --<br>------- ------,132769.70000000298,132768.79999999702,132382.588,132386.20000000298,132399.258,132782.622,,34,bonds
screen,html.Screen,0_2_1_1_35,2021-12-03T10:03:39.000Z,,,,,,,,,,,,,,,,54,,,,,,,,,,,,,,410.17799999701674,,response,,,100,,,,,,Space,keypress(Space),,,,,"-- --- ---- --- ------ ----- ------- ---- -- --- ------- --<br>------- ---------- ------ -- ----- -- ----- -- ---- ------<br>--- ----- --- --- ------ -------- ----- --- ------ ----- --<br>----- ----- plummeted, --- --- ------ ------ ---- -- ------<br>------- --- ------ ----- --- ---- ------- -- ---- --- --<br>------- ------",133193.79999999702,133192.79999999702,132765.953,132769.89999999106,132782.622,133199.508,,35,"plummeted,"
screen,html.Screen,0_2_1_1_36,2021-12-03T10:03:39.463Z,,,,,,,,,,,,,,,,54,,,,,,,,,,,,,,457.29199999701814,,response,,,100,,,,,,Space,keypress(Space),,,,,-- --- ---- --- ------ ----- ------- ---- -- --- ------- --<br>------- ---------- ------ -- ----- -- ----- -- ---- ------<br>--- ----- --- --- ------ -------- ----- --- ------ ----- --<br>----- ----- ---------- and --- ------ ------ ---- -- ------<br>------- --- ------ ----- --- ---- ------- -- ---- --- --<br>------- ------,133657.59999999404,133656.79999999702,133182.837,133194.20000000298,133199.508,133666.326,,36,and
screen,html.Screen,0_2_1_1_37,2021-12-03T10:03:39.863Z,,,,,,,,,,,,,,,,54,,,,,,,,,,,,,,390.47399999701884,,response,,,100,,,,,,Space,keypress(Space),,,,,-- --- ---- --- ------ ----- ------- ---- -- --- ------- --<br>------- ---------- ------ -- ----- -- ----- -- ---- ------<br>--- ----- --- --- ------ -------- ----- --- ------ ----- --<br>----- ----- ---------- --- the ------ ------ ---- -- ------<br>------- --- ------ ----- --- ---- ------- -- ---- --- --<br>------- ------,134057.5,134056.79999999702,133649.655,133657.89999999106,133666.326,134066.34,,37,the
screen,html.Screen,0_2_1_1_38,2021-12-03T10:03:40.231Z,,,,,,,,,,,,,,,,54,,,,,,,,,,,,,,358.3600000029837,,response,,,100,,,,,,Space,keypress(Space),,,,,-- --- ---- --- ------ ----- ------- ---- -- --- ------- --<br>------- ---------- ------ -- ----- -- ----- -- ---- ------<br>--- ----- --- --- ------ -------- ----- --- ------ ----- --<br>----- ----- ---------- --- --- market ------ ---- -- ------<br>------- --- ------ ----- --- ---- ------- -- ---- --- --<br>------- ------,134425.70000000298,134424.70000000298,134049.67,134057.79999999702,134066.34,134433.177,,38,market
screen,html.Screen,0_2_1_1_39,2021-12-03T10:03:40.688Z,,,,,,,,,,,,,,,,54,,,,,,,,,,,,,,447.82300000000396,,response,,,100,,,,,,Space,keypress(Space),,,,,-- --- ---- --- ------ ----- ------- ---- -- --- ------- --<br>------- ---------- ------ -- ----- -- ----- -- ---- ------<br>--- ----- --- --- ------ -------- ----- --- ------ ----- --<br>----- ----- ---------- --- --- ------ became ---- -- ------<br>------- --- ------ ----- --- ---- ------- -- ---- --- --<br>------- ------,134881.89999999106,134881,134416.506,134425.89999999106,134433.177,134883.303,,39,became
screen,html.Screen,0_2_1_1_40,2021-12-03T10:03:41.039Z,,,,,,,,,,,,,,,,54,,,,,,,,,,,,,,349.3970000029658,,response,,,100,,,,,,Space,keypress(Space),,,,,-- --- ---- --- ------ ----- ------- ---- -- --- ------- --<br>------- ---------- ------ -- ----- -- ----- -- ---- ------<br>--- ----- --- --- ------ -------- ----- --- ------ ----- --<br>----- ----- ---------- --- --- ------ ------ wary -- ------<br>------- --- ------ ----- --- ---- ------- -- ---- --- --<br>------- ------,135233.5,135232.70000000298,134866.632,134882.09999999404,134883.303,135250.017,,40,wary
screen,html.Screen,0_2_1_1_41,2021-12-03T10:03:41.527Z,,,,,,,,,,,,,,,,54,,,,,,,,,,,,,,470.582999994047,,response,,,100,,,,,,Space,keypress(Space),,,,,-- --- ---- --- ------ ----- ------- ---- -- --- ------- --<br>------- ---------- ------ -- ----- -- ----- -- ---- ------<br>--- ----- --- --- ------ -------- ----- --- ------ ----- --<br>----- ----- ---------- --- --- ------ ------ ---- of ------<br>------- --- ------ ----- --- ---- ------- -- ---- --- --<br>------- ------,135721.39999999106,135720.59999999404,135233.347,135233.70000000298,135250.017,135733.476,,41,of
screen,html.Screen,0_2_1_1_42,2021-12-03T10:03:41.991Z,,,,,,,,,,,,,,,,54,,,,,,,,,,,,,,451.2240000029851,,response,,,100,,,,,,Space,keypress(Space),,,,,-- --- ---- --- ------ ----- ------- ---- -- --- ------- --<br>------- ---------- ------ -- ----- -- ----- -- ---- ------<br>--- ----- --- --- ------ -------- ----- --- ------ ----- --<br>----- ----- ---------- --- --- ------ ------ ---- -- French<br>------- --- ------ ----- --- ---- ------- -- ---- --- --<br>------- ------,136185.39999999106,136184.70000000298,135716.806,135721.59999999404,135733.476,136200.274,,42,French
screen,html.Screen,0_2_1_1_43,2021-12-03T10:03:42.471Z,,,,,,,,,,,,,,,,54,,,,,,,,,,,,,,464.32599999403465,,response,,,100,,,,,,Space,keypress(Space),,,,,-- --- ---- --- ------ ----- ------- ---- -- --- ------- --<br>------- ---------- ------ -- ----- -- ----- -- ---- ------<br>--- ----- --- --- ------ -------- ----- --- ------ ----- --<br>----- ----- ---------- --- --- ------ ------ ---- -- ------<br>credit. --- ------ ----- --- ---- ------- -- ---- --- --<br>------- ------,136665.39999999106,136664.59999999404,136183.604,136185.70000000298,136200.274,136667.053,,43,credit.
screen,html.Screen,0_2_1_1_44,2021-12-03T10:03:42.887Z,,,,,,,,,,,,,,,,54,,,,,,,,,,,,,,413.44699999998556,,response,,,100,,,,,,Space,keypress(Space),,,,,-- --- ---- --- ------ ----- ------- ---- -- --- ------- --<br>------- ---------- ------ -- ----- -- ----- -- ---- ------<br>--- ----- --- --- ------ -------- ----- --- ------ ----- --<br>----- ----- ---------- --- --- ------ ------ ---- -- ------<br>------- The ------ ----- --- ---- ------- -- ---- --- --<br>------- ------,137081.29999999702,137080.5,136650.383,136665.59999999404,136667.053,137083.829,,44,The
screen,html.Screen,0_2_1_1_45,2021-12-03T10:03:43.367Z,,,,,,,,,,,,,,,,54,,,,,,,,,,,,,,476.6710000000021,,response,,,100,,,,,,Space,keypress(Space),,,,,-- --- ---- --- ------ ----- ------- ---- -- --- ------- --<br>------- ---------- ------ -- ----- -- ----- -- ---- ------<br>--- ----- --- --- ------ -------- ----- --- ------ ----- --<br>----- ----- ---------- --- --- ------ ------ ---- -- ------<br>------- --- French ----- --- ---- ------- -- ---- --- --<br>------- ------,137561.29999999702,137560.5,137067.159,137081.5,137083.829,137567.337,,45,French
screen,html.Screen,0_2_1_1_46,2021-12-03T10:03:43.879Z,,,,,,,,,,,,,,,,54,,,,,,,,,,,,,,505.16300000000047,,response,,,100,,,,,,Space,keypress(Space),,,,,-- --- ---- --- ------ ----- ------- ---- -- --- ------- --<br>------- ---------- ------ -- ----- -- ----- -- ---- ------<br>--- ----- --- --- ------ -------- ----- --- ------ ----- --<br>----- ----- ---------- --- --- ------ ------ ---- -- ------<br>------- --- ------ state --- ---- ------- -- ---- --- --<br>------- ------,138073.39999999106,138072.5,137550.666,137561.70000000298,137567.337,138084.15,,46,state
screen,html.Screen,0_2_1_1_47,2021-12-03T10:03:44.271Z,,,,,,,,,,,,,,,,54,,,,,,,,,,,,,,380.3500000000058,,response,,,100,,,,,,Space,keypress(Space),,,,,-- --- ---- --- ------ ----- ------- ---- -- --- ------- --<br>------- ---------- ------ -- ----- -- ----- -- ---- ------<br>--- ----- --- --- ------ -------- ----- --- ------ ----- --<br>----- ----- ---------- --- --- ------ ------ ---- -- ------<br>------- --- ------ ----- was ---- ------- -- ---- --- --<br>------- ------,138465.39999999106,138464.5,138067.479,138073.59999999404,138084.15,138467.541,,47,was
screen,html.Screen,0_2_1_1_48,2021-12-03T10:03:44.679Z,,,,,,,,,,,,,,,,54,,,,,,,,,,,,,,404.95900000000256,,response,,,100,,,,,,Space,keypress(Space),,,,,-- --- ---- --- ------ ----- ------- ---- -- --- ------- --<br>------- ---------- ------ -- ----- -- ----- -- ---- ------<br>--- ----- --- --- ------ -------- ----- --- ------ ----- --<br>----- ----- ---------- --- --- ------ ------ ---- -- ------<br>------- --- ------ ----- --- left ------- -- ---- --- --<br>------- ------,138873.29999999702,138872.5,138450.871,138465.59999999404,138467.541,138884.364,,48,left
screen,html.Screen,0_2_1_1_49,2021-12-03T10:03:45.071Z,,,,,,,,,,,,,,,,54,,,,,,,,,,,,,,380.1359999999986,,response,,,100,,,,,,Space,keypress(Space),,,,,-- --- ---- --- ------ ----- ------- ---- -- --- ------- --<br>------- ---------- ------ -- ----- -- ----- -- ---- ------<br>--- ----- --- --- ------ -------- ----- --- ------ ----- --<br>----- ----- ---------- --- --- ------ ------ ---- -- ------<br>------- --- ------ ----- --- ---- without -- ---- --- --<br>------- ------,139265.39999999106,139264.5,138867.693,138873.5,138884.364,139267.633,,49,without
screen,html.Screen,0_2_1_1_50,2021-12-03T10:03:45.463Z,,,,,,,,,,,,,,,,54,,,,,,,,,,,,,,388.86699999999837,,response,,,100,,,,,,Space,keypress(Space),,,,,-- --- ---- --- ------ ----- ------- ---- -- --- ------- --<br>------- ---------- ------ -- ----- -- ----- -- ---- ------<br>--- ----- --- --- ------ -------- ----- --- ------ ----- --<br>----- ----- ---------- --- --- ------ ------ ---- -- ------<br>------- --- ------ ----- --- ---- ------- an ---- --- --<br>------- ------,139657.29999999702,139656.5,139250.965,139265.79999999702,139267.633,139667.933,,50,an
screen,html.Screen,0_2_1_1_51,2021-12-03T10:03:45.918Z,,,,,,,,,,,,,,,,54,,,,,,,,,,,,,,444.16699999404955,,response,,,100,,,,,,Space,keypress(Space),,,,,-- --- ---- --- ------ ----- ------- ---- -- --- ------- --<br>------- ---------- ------ -- ----- -- ----- -- ---- ------<br>--- ----- --- --- ------ -------- ----- --- ------ ----- --<br>----- ----- ---------- --- --- ------ ------ ---- -- ------<br>------- --- ------ ----- --- ---- ------- -- easy --- --<br>------- ------,140112.39999999106,140112.09999999404,139651.261,139657.5,139667.933,140117.98,,51,easy
screen,html.Screen,0_2_1_1_52,2021-12-03T10:03:46.263Z,,,,,,,,,,,,,,,,54,,,,,,,,,,,,,,338.5199999999895,,response,,,100,,,,,,Space,keypress(Space),,,,,-- --- ---- --- ------ ----- ------- ---- -- --- ------- --<br>------- ---------- ------ -- ----- -- ----- -- ---- ------<br>--- ----- --- --- ------ -------- ----- --- ------ ----- --<br>----- ----- ---------- --- --- ------ ------ ---- -- ------<br>------- --- ------ ----- --- ---- ------- -- ---- way --<br>------- ------,140457.29999999702,140456.5,140101.31,140112.5,140117.98,140468.054,,52,way
screen,html.Screen,0_2_1_1_53,2021-12-03T10:03:46.631Z,,,,,,,,,,,,,,,,54,,,,,,,,,,,,,,356.4459999999963,,response,,,100,,,,,,Space,keypress(Space),,,,,-- --- ---- --- ------ ----- ------- ---- -- --- ------- --<br>------- ---------- ------ -- ----- -- ----- -- ---- ------<br>--- ----- --- --- ------ -------- ----- --- ------ ----- --<br>----- ----- ---------- --- --- ------ ------ ---- -- ------<br>------- --- ------ ----- --- ---- ------- -- ---- --- of<br>------- ------,140825.29999999702,140824.5,140451.384,140457.59999999404,140468.054,140834.688,,53,of
screen,html.Screen,0_2_1_1_54,2021-12-03T10:03:47.063Z,,,,,,,,,,,,,,,,54,,,,,,,,,,,,,,421.71199999106466,,response,,,100,,,,,,Space,keypress(Space),,,,,-- --- ---- --- ------ ----- ------- ---- -- --- ------- --<br>------- ---------- ------ -- ----- -- ----- -- ---- ------<br>--- ----- --- --- ------ -------- ----- --- ------ ----- --<br>----- ----- ---------- --- --- ------ ------ ---- -- ------<br>------- --- ------ ----- --- ---- ------- -- ---- --- --<br>raising ------,141257.29999999702,141256.39999999106,140818.02,140825.5,140834.688,141268.444,,54,raising
screen,html.Screen,0_2_1_1_55,2021-12-03T10:03:47.703Z,,,,,,,,,,,,,,,,54,,,,,,,,,,,,,,627.8559999970312,,response,,,100,,,,,,Space,keypress(Space),,,,,-- --- ---- --- ------ ----- ------- ---- -- --- ------- --<br>------- ---------- ------ -- ----- -- ----- -- ---- ------<br>--- ----- --- --- ------ -------- ----- --- ------ ----- --<br>----- ----- ---------- --- --- ------ ------ ---- -- ------<br>------- --- ------ ----- --- ---- ------- -- ---- --- --<br>------- money.,141897.09999999404,141896.29999999702,141251.77,141257.5,141268.444,141901.785,,55,money.
Item 100,flow.Loop,0_2_1_1,2021-12-03T10:03:47.703Z,,,,,,,,,,,,,,,,,,,,,,,,,,,,,,30519.446999997017,,completion,,,,D,,,,,,,,,,silence,,141897.59999999404,141896.29999999702,111360.183,111361.70000000298,111376.853,141901.785,,,
Question 1,html.Screen,0_2_1_2,2021-12-03T10:03:50.679Z,,,,,,,,,,,,,,,,,,,,,,,,,,,true,TRUE,,2970.314999994036,,response,,,100,D,,,,,TRUE,click #choice-1,,,,silence,,144873.39999999106,144872.09999999404,141885.115,141897.70000000298,141901.785,144885.954,,,
Question 2,html.Screen,0_2_1_3,2021-12-03T10:03:54.063Z,,,,,,,,,,,,,,,,,,,,,,,,,,,true,FALSE,,3370.046000000002,,response,,,100,D,,,,,FALSE,click #choice-2,,,,silence,,148257.09999999404,148256,144869.283,144873.70000000298,144885.954,148270.222,,,
Item 100,flow.Sequence,0_2_1,2021-12-03T10:03:54.063Z,,,,,,,,,,,,,,,,,,,,,,,,,,,,,,46881.600999999995,,completion,,,,,,,,,,,,,,,,148257.39999999106,148256,101357.727,101363.89999999106,101374.399,148270.222,,,
End of Practice,html.Page,0_2_2,2021-12-03T10:03:56.399Z,,,,,,,,,,,,,,,,,,,,,,,,,,,,,,2322.9780000029714,,form submission,,,,,,,,,,,,,,,,150593.70000000298,150593.20000000298,148253.55,148257.70000000298,148270.222,150604.243,,,
Practice,flow.Sequence,0_2,2021-12-03T10:03:56.400Z,,,,,,,,,,,,,,,,,,,,,,,,,,,,,,98281.22000000297,,completion,,,,,,,,,,,,,,,,150594.20000000298,150593.20000000298,52295.271,52302.5,52311.98,150604.243,,,
Trap_instruction,html.Page,0_3_0,2021-12-03T10:04:01.031Z,,,,,,,,,,,,,,,,,,,,,,,,,,,,,,4620.556999997032,,form submission,,,,,,,,,,,,,,,,155225.29999999702,155224.79999999702,150587.571,150594.5,150604.243,155238.321,,,
trap_trial,html.Screen,0_3_1,2021-12-03T10:04:03.814Z,,,,,,,,,,,,,,,,,,,,,,,,,,,true,1,,2769.1790000000037,,response,,,,,,,,,1,click #choice-1,,,,,,158008.79999999702,158007.5,155221.651,155225.5,155238.321,158022.544,,,
end of trap trial,html.Page,0_3_2,2021-12-03T10:04:07.855Z,,,,,,,,,,,,,,,,,,,,,,,,,,,,,,4026.055999994045,,form submission,,,,,,,,,,,,,,,,162049.09999999404,162048.59999999404,158005.874,158009.09999999404,158022.544,162059.452,,,
Trap 1,flow.Sequence,0_3,2021-12-03T10:04:07.855Z,,,,,,,,,,,,,,,,,,,,,,,,,,,,,,11444.356999994052,,completion,,,,,,,,,,,,,,,,162049.39999999106,162048.59999999404,150587.571,150594.39999999106,150604.243,162059.452,,,
Standby,html.Page,0_4_0,2021-12-03T10:04:15.850Z,,,,,,,,,,,,,,,,,,,,,,,,,,,,,,7999.815000000002,,timeout,,,,,,,,,,,,,,,,170044,170042.596,162042.766,162049.70000000298,162059.452,170059.267,,,
Holding screen,html.Screen,0_4_1_0_0,2021-12-03T10:04:22.852Z,,,,,,,,,,,,,,,,,,,,,,,,,,,,,,7001.736999999994,,timeout,,,,,,,,,,,,,,,,177046,177044.334,170042.596,170044.5,170059.267,177061.004,,,
screen,html.Screen,0_4_1_0_1_0,2021-12-03T10:04:24.598Z,,,,,,,,,,,,,,,,48,,,,,,,,,,,,,,1730.196000002994,,response,,,10,D,,,,,Space,keypress(Space),,,,silence,As -- --- ------ ------- --------- ----------- --------<br>--------- -------- --- ------- -- ------- ---- -- ------<br>-- --- -------- -------- ---------- ---- ---- ---- ------<br>-- --------- -- ---- -- --- -- --- ------- -- - -----<br>---------- -- -- -- ---- ----- -- ------ -- --- ------<br>-------,178792.20000000298,178791.20000000298,177044.334,177046.39999999106,177061.004,178794.95,,0,As
screen,html.Screen,0_4_1_0_1_1,2021-12-03T10:04:25.101Z,,,,,,,,,,,,,,,,48,,,,,,,,,,,,,,499.6499999940279,,response,,,10,D,,,,,Space,keypress(Space),,,,silence,-- in --- ------ ------- --------- ----------- --------<br>--------- -------- --- ------- -- ------- ---- -- ------<br>-- --- -------- -------- ---------- ---- ---- ---- ------<br>-- --------- -- ---- -- --- -- --- ------- -- - -----<br>---------- -- -- -- ---- ----- -- ------ -- --- ------<br>-------,179295.5,179294.59999999404,178778.279,178792.5,178794.95,179311.683,,1,in
screen,html.Screen,0_4_1_0_1_2,2021-12-03T10:04:25.517Z,,,,,,,,,,,,,,,,48,,,,,,,,,,,,,,398.91699999404955,,response,,,10,D,,,,,Space,keypress(Space),,,,silence,-- -- the ------ ------- --------- ----------- --------<br>--------- -------- --- ------- -- ------- ---- -- ------<br>-- --- -------- -------- ---------- ---- ---- ---- ------<br>-- --------- -- ---- -- --- -- --- ------- -- - -----<br>---------- -- -- -- ---- ----- -- ------ -- --- ------<br>-------,179711.29999999702,179710.59999999404,179295.013,179295.70000000298,179311.683,179728.513,,2,the
screen,html.Screen,0_4_1_0_1_3,2021-12-03T10:04:26.157Z,,,,,,,,,,,,,,,,48,,,,,,,,,,,,,,621.9869999999937,,response,,,10,D,,,,,Space,keypress(Space),,,,silence,-- -- --- United ------- --------- ----------- --------<br>--------- -------- --- ------- -- ------- ---- -- ------<br>-- --- -------- -------- ---------- ---- ---- ---- ------<br>-- --------- -- ---- -- --- -- --- ------- -- - -----<br>---------- -- -- -- ---- ----- -- ------ -- --- ------<br>-------,180351.29999999702,180350.5,179711.843,179711.59999999404,179728.513,180362.053,,3,United
screen,html.Screen,0_4_1_0_1_4,2021-12-03T10:04:26.704Z,,,,,,,,,,,,,,,,48,,,,,,,,,,,,,,532.4469999999856,,response,,,10,D,,,,,Space,keypress(Space),,,,silence,"-- -- --- ------ States, --------- ----------- --------<br>--------- -------- --- ------- -- ------- ---- -- ------<br>-- --- -------- -------- ---------- ---- ---- ---- ------<br>-- --------- -- ---- -- --- -- --- ------- -- - -----<br>---------- -- -- -- ---- ----- -- ------ -- --- ------<br>-------",180895.39999999106,180894.5,180345.382,180351.5,180362.053,180912.157,,4,"States,"
screen,html.Screen,0_4_1_0_1_5,2021-12-03T10:04:27.384Z,,,,,,,,,,,,,,,,48,,,,,,,,,,,,,,662.3429999999935,,response,,,10,D,,,,,Space,keypress(Space),,,,silence,-- -- --- ------ ------- Colombian ----------- --------<br>--------- -------- --- ------- -- ------- ---- -- ------<br>-- --- -------- -------- ---------- ---- ---- ---- ------<br>-- --------- -- ---- -- --- -- --- ------- -- - -----<br>---------- -- -- -- ---- ----- -- ------ -- --- ------<br>-------,181575.29999999702,181574.5,180895.487,180895.79999999702,180912.157,181578.994,,5,Colombian
screen,html.Screen,0_4_1_0_1_6,2021-12-03T10:04:28.168Z,,,,,,,,,,,,,,,,48,,,,,,,,,,,,,,779.505999999994,,response,,,10,D,,,,,Space,keypress(Space),,,,silence,-- -- --- ------ ------- --------- legislation --------<br>--------- -------- --- ------- -- ------- ---- -- ------<br>-- --- -------- -------- ---------- ---- ---- ---- ------<br>-- --------- -- ---- -- --- -- --- ------- -- - -----<br>---------- -- -- -- ---- ----- -- ------ -- --- ------<br>-------,182359.20000000298,182358.5,181562.324,181575.5,181578.994,182362.531,,6,legislation
screen,html.Screen,0_4_1_0_1_7,2021-12-03T10:04:28.784Z,,,,,,,,,,,,,,,,48,,,,,,,,,,,,,,611.9690000000119,,response,,,10,D,,,,,Space,keypress(Space),,,,silence,-- -- --- ------ ------- --------- ----------- requires<br>--------- -------- --- ------- -- ------- ---- -- ------<br>-- --- -------- -------- ---------- ---- ---- ---- ------<br>-- --------- -- ---- -- --- -- --- ------- -- - -----<br>---------- -- -- -- ---- ----- -- ------ -- --- ------<br>-------,182975.39999999106,182974.5,182345.861,182359.59999999404,182362.531,182979.371,,7,requires
screen,html.Screen,0_4_1_0_1_8,2021-12-03T10:04:29.608Z,,,,,,,,,,,,,,,,48,,,,,,,,,,,,,,819.0289999910456,,response,,,10,D,,,,,Space,keypress(Space),,,,silence,-- -- --- ------ ------- --------- ----------- --------<br>travelers -------- --- ------- -- ------- ---- -- ------<br>-- --- -------- -------- ---------- ---- ---- ---- ------<br>-- --------- -- ---- -- --- -- --- ------- -- - -----<br>---------- -- -- -- ---- ----- -- ------ -- --- ------<br>-------,183799.20000000298,183798.39999999106,182962.701,182975.70000000298,182979.371,183812.894,,8,travelers
screen,html.Screen,0_4_1_0_1_9,2021-12-03T10:04:30.320Z,,,,,,,,,,,,,,,,48,,,,,,,,,,,,,,697.5059999910591,,response,,,10,D,,,,,Space,keypress(Space),,,,silence,-- -- --- ------ ------- --------- ----------- --------<br>--------- entering --- ------- -- ------- ---- -- ------<br>-- --- -------- -------- ---------- ---- ---- ---- ------<br>-- --------- -- ---- -- --- -- --- ------- -- - -----<br>---------- -- -- -- ---- ----- -- ------ -- --- ------<br>-------,184511.29999999702,184510.39999999106,183796.224,183799.5,183812.894,184513.161,,9,entering
screen,html.Screen,0_4_1_0_1_10,2021-12-03T10:04:30.760Z,,,,,,,,,,,,,,,,48,,,,,,,,,,,,,,437.2389999910665,,response,,,10,D,,,,,Space,keypress(Space),,,,silence,-- -- --- ------ ------- --------- ----------- --------<br>--------- -------- the ------- -- ------- ---- -- ------<br>-- --- -------- -------- ---------- ---- ---- ---- ------<br>-- --------- -- ---- -- --- -- --- ------- -- - -----<br>---------- -- -- -- ---- ----- -- ------ -- --- ------<br>-------,184951.20000000298,184950.39999999106,184496.49,184511.59999999404,184513.161,184963.225,,10,the
screen,html.Screen,0_4_1_0_1_11,2021-12-03T10:04:31.296Z,,,,,,,,,,,,,,,,48,,,,,,,,,,,,,,523.1749999910535,,response,,,10,D,,,,,Space,keypress(Space),,,,silence,-- -- --- ------ ------- --------- ----------- --------<br>--------- -------- --- country -- ------- ---- -- ------<br>-- --- -------- -------- ---------- ---- ---- ---- ------<br>-- --------- -- ---- -- --- -- --- ------- -- - -----<br>---------- -- -- -- ---- ----- -- ------ -- --- ------<br>-------,185487.20000000298,185486.39999999106,184946.555,184951.5,184963.225,185496.707,,11,country
screen,html.Screen,0_4_1_0_1_12,2021-12-03T10:04:31.840Z,,,,,,,,,,,,,,,,48,,,,,,,,,,,,,,533.6929999910644,,response,,,10,D,,,,,Space,keypress(Space),,,,silence,-- -- --- ------ ------- --------- ----------- --------<br>--------- -------- --- ------- to ------- ---- -- ------<br>-- --- -------- -------- ---------- ---- ---- ---- ------<br>-- --------- -- ---- -- --- -- --- ------- -- - -----<br>---------- -- -- -- ---- ----- -- ------ -- --- ------<br>-------,186031.20000000298,186030.39999999106,185480.037,185487.59999999404,185496.707,186046.851,,12,to
screen,html.Screen,0_4_1_0_1_13,2021-12-03T10:04:32.368Z,,,,,,,,,,,,,,,,48,,,,,,,,,,,,,,511.5489999910642,,response,,,10,D,,,,,Space,keypress(Space),,,,silence,-- -- --- ------ ------- --------- ----------- --------<br>--------- -------- --- ------- -- declare ---- -- ------<br>-- --- -------- -------- ---------- ---- ---- ---- ------<br>-- --------- -- ---- -- --- -- --- ------- -- - -----<br>---------- -- -- -- ---- ----- -- ------ -- --- ------<br>-------,186559.20000000298,186558.39999999106,186030.181,186031.5,186046.851,186563.657,,13,declare
screen,html.Screen,0_4_1_0_1_14,2021-12-03T10:04:33.039Z,,,,,,,,,,,,,,,,48,,,,,,,,,,,,,,666.6429999970132,,response,,,10,D,,,,,Space,keypress(Space),,,,silence,-- -- --- ------ ------- --------- ----------- --------<br>--------- -------- --- ------- -- ------- cash -- ------<br>-- --- -------- -------- ---------- ---- ---- ---- ------<br>-- --------- -- ---- -- --- -- --- ------- -- - -----<br>---------- -- -- -- ---- ----- -- ------ -- --- ------<br>-------,187231.09999999404,187230.29999999702,186546.987,186559.39999999106,186563.657,187247.166,,14,cash
screen,html.Screen,0_4_1_0_1_15,2021-12-03T10:04:33.559Z,,,,,,,,,,,,,,,,48,,,,,,,,,,,,,,502.73399999106186,,response,,,10,D,,,,,Space,keypress(Space),,,,silence,-- -- --- ------ ------- --------- ----------- --------<br>--------- -------- --- ------- -- ------- ---- in ------<br>-- --- -------- -------- ---------- ---- ---- ---- ------<br>-- --------- -- ---- -- --- -- --- ------- -- - -----<br>---------- -- -- -- ---- ----- -- ------ -- --- ------<br>-------,187750.20000000298,187749.89999999106,187230.496,187231.29999999702,187247.166,187763.865,,15,in
screen,html.Screen,0_4_1_0_1_16,2021-12-03T10:04:34.103Z,,,,,,,,,,,,,,,,48,,,,,,,,,,,,,,529.9349999970291,,response,,,10,D,,,,,Space,keypress(Space),,,,silence,-- -- --- ------ ------- --------- ----------- --------<br>--------- -------- --- ------- -- ------- ---- -- excess<br>-- --- -------- -------- ---------- ---- ---- ---- ------<br>-- --------- -- ---- -- --- -- --- ------- -- - -----<br>---------- -- -- -- ---- ----- -- ------ -- --- ------<br>-------,188294.39999999106,188293.79999999702,187747.196,187750.29999999702,187763.865,188297.502,,16,excess
screen,html.Screen,0_4_1_0_1_17,2021-12-03T10:04:34.591Z,,,,,,,,,,,,,,,,48,,,,,,,,,,,,,,484.7979999970121,,response,,,10,D,,,,,Space,keypress(Space),,,,silence,-- -- --- ------ ------- --------- ----------- --------<br>--------- -------- --- ------- -- ------- ---- -- ------<br>of --- -------- -------- ---------- ---- ---- ---- ------<br>-- --------- -- ---- -- --- -- --- ------- -- - -----<br>---------- -- -- -- ---- ----- -- ------ -- --- ------<br>-------,188783,188782.29999999702,188280.83,188294.5,188297.502,188797.377,,17,of
screen,html.Screen,0_4_1_0_1_18,2021-12-03T10:04:35.264Z,,,,,,,,,,,,,,,,48,,,,,,,,,,,,,,657.5229999910516,,response,,,10,D,,,,,Space,keypress(Space),,,,silence,-- -- --- ------ ------- --------- ----------- --------<br>--------- -------- --- ------- -- ------- ---- -- ------<br>-- ten -------- -------- ---------- ---- ---- ---- ------<br>-- --------- -- ---- -- --- -- --- ------- -- - -----<br>---------- -- -- -- ---- ----- -- ------ -- --- ------<br>-------,189455.59999999404,189454.89999999106,188780.709,188783.20000000298,188797.377,189464.352,,18,ten
screen,html.Screen,0_4_1_0_1_19,2021-12-03T10:04:35.751Z,,,,,,,,,,,,,,,,48,,,,,,,,,,,,,,477.8480000029667,,response,,,10,D,,,,,Space,keypress(Space),,,,silence,-- -- --- ------ ------- --------- ----------- --------<br>--------- -------- --- ------- -- ------- ---- -- ------<br>-- --- thousand -------- ---------- ---- ---- ---- ------<br>-- --------- -- ---- -- --- -- --- ------- -- - -----<br>---------- -- -- -- ---- ----- -- ------ -- --- ------<br>-------,189942.89999999106,189942.20000000298,189447.682,189455.79999999702,189464.352,189948.023,,19,thousand
screen,html.Screen,0_4_1_0_1_20,2021-12-03T10:04:38.399Z,,,,,,,,,,,,,,,,48,,,,,,,,,,,,,,2642.076999994053,,response,,,10,D,,,,,Space,keypress(Space),,,,silence,-- -- --- ------ ------- --------- ----------- --------<br>--------- -------- --- ------- -- ------- ---- -- ------<br>-- --- -------- dollars. ---------- ---- ---- ---- ------<br>-- --------- -- ---- -- --- -- --- ------- -- - -----<br>---------- -- -- -- ---- ----- -- ------ -- --- ------<br>-------,192590.79999999702,192590.09999999404,189931.35,189943.20000000298,189948.023,192598.441,,20,dollars.
screen,html.Screen,0_4_1_0_1_21,2021-12-03T10:04:39.887Z,,,,,,,,,,,,,,,,48,,,,,,,,,,,,,,1479.5590000000084,,response,,,10,D,,,,,Space,keypress(Space),,,,silence,-- -- --- ------ ------- --------- ----------- --------<br>--------- -------- --- ------- -- ------- ---- -- ------<br>-- --- -------- -------- Concealing ---- ---- ---- ------<br>-- --------- -- ---- -- --- -- --- ------- -- - -----<br>---------- -- -- -- ---- ----- -- ------ -- --- ------<br>-------,194078.79999999702,194078,192581.771,192591,192598.441,194082.323,,21,Concealing
screen,html.Screen,0_4_1_0_1_22,2021-12-03T10:04:40.375Z,,,,,,,,,,,,,,,,48,,,,,,,,,,,,,,483.57699999105535,,response,,,10,D,,,,,Space,keypress(Space),,,,silence,-- -- --- ------ ------- --------- ----------- --------<br>--------- -------- --- ------- -- ------- ---- -- ------<br>-- --- -------- -------- ---------- more ---- ---- ------<br>-- --------- -- ---- -- --- -- --- ------- -- - -----<br>---------- -- -- -- ---- ----- -- ------ -- --- ------<br>-------,194566.79999999702,194565.89999999106,194065.652,194079.20000000298,194082.323,194582.376,,22,more
screen,html.Screen,0_4_1_0_1_23,2021-12-03T10:04:41.023Z,,,,,,,,,,,,,,,,48,,,,,,,,,,,,,,631.52399999107,,response,,,10,D,,,,,Space,keypress(Space),,,,silence,-- -- --- ------ ------- --------- ----------- --------<br>--------- -------- --- ------- -- ------- ---- -- ------<br>-- --- -------- -------- ---------- ---- than ---- ------<br>-- --------- -- ---- -- --- -- --- ------- -- - -----<br>---------- -- -- -- ---- ----- -- ------ -- --- ------<br>-------,195214.70000000298,195213.89999999106,194565.706,194567.20000000298,194582.376,195215.895,,23,than
screen,html.Screen,0_4_1_0_1_24,2021-12-03T10:04:41.407Z,,,,,,,,,,,,,,,,48,,,,,,,,,,,,,,382.0049999910698,,response,,,10,D,,,,,Space,keypress(Space),,,,silence,-- -- --- ------ ------- --------- ----------- --------<br>--------- -------- --- ------- -- ------- ---- -- ------<br>-- --- -------- -------- ---------- ---- ---- that ------<br>-- --------- -- ---- -- --- -- --- ------- -- - -----<br>---------- -- -- -- ---- ----- -- ------ -- --- ------<br>-------,195598.70000000298,195597.89999999106,195199.225,195215.09999999404,195215.895,195616.062,,24,that
screen,html.Screen,0_4_1_0_1_25,2021-12-03T10:04:41.887Z,,,,,,,,,,,,,,,,48,,,,,,,,,,,,,,461.83799999105395,,response,,,10,D,,,,,Space,keypress(Space),,,,silence,-- -- --- ------ ------- --------- ----------- --------<br>--------- -------- --- ------- -- ------- ---- -- ------<br>-- --- -------- -------- ---------- ---- ---- ---- amount<br>-- --------- -- ---- -- --- -- --- ------- -- - -----<br>---------- -- -- -- ---- ----- -- ------ -- --- ------<br>-------,196078.79999999702,196077.89999999106,195599.391,195599.09999999404,195616.062,196082.903,,25,amount
screen,html.Screen,0_4_1_0_1_26,2021-12-03T10:04:42.279Z,,,,,,,,,,,,,,,,48,,,,,,,,,,,,,,386.8969999970286,,response,,,10,D,,,,,Space,keypress(Space),,,,silence,-- -- --- ------ ------- --------- ----------- --------<br>--------- -------- --- ------- -- ------- ---- -- ------<br>-- --- -------- -------- ---------- ---- ---- ---- ------<br>to --------- -- ---- -- --- -- --- ------- -- - -----<br>---------- -- -- -- ---- ----- -- ------ -- --- ------<br>-------,196470.70000000298,196469.79999999702,196066.232,196079.09999999404,196082.903,196483.008,,26,to
screen,html.Screen,0_4_1_0_1_27,2021-12-03T10:04:42.743Z,,,,,,,,,,,,,,,,48,,,,,,,,,,,,,,450.79199999701814,,response,,,10,D,,,,,Space,keypress(Space),,,,silence,-- -- --- ------ ------- --------- ----------- --------<br>--------- -------- --- ------- -- ------- ---- -- ------<br>-- --- -------- -------- ---------- ---- ---- ---- ------<br>-- transport -- ---- -- --- -- --- ------- -- - -----<br>---------- -- -- -- ---- ----- -- ------ -- --- ------<br>-------,196934.70000000298,196933.79999999702,196466.337,196471,196483.008,196949.736,,27,transport
screen,html.Screen,0_4_1_0_1_28,2021-12-03T10:04:43.127Z,,,,,,,,,,,,,,,,48,,,,,,,,,,,,,,368.06399999701534,,response,,,10,D,,,,,Space,keypress(Space),,,,silence,-- -- --- ------ ------- --------- ----------- --------<br>--------- -------- --- ------- -- ------- ---- -- ------<br>-- --- -------- -------- ---------- ---- ---- ---- ------<br>-- --------- it ---- -- --- -- --- ------- -- - -----<br>---------- -- -- -- ---- ----- -- ------ -- --- ------<br>-------,197318.70000000298,197317.79999999702,196933.066,196934.89999999106,196949.736,197333.242,,28,it
screen,html.Screen,0_4_1_0_1_29,2021-12-03T10:04:45.079Z,,,,,,,,,,,,,,,,48,,,,,,,,,,,,,,1936.4580000029819,,response,,,10,D,,,,,Space,keypress(Space),,,,silence,-- -- --- ------ ------- --------- ----------- --------<br>--------- -------- --- ------- -- ------- ---- -- ------<br>-- --- -------- -------- ---------- ---- ---- ---- ------<br>-- --------- -- into -- --- -- --- ------- -- - -----<br>---------- -- -- -- ---- ----- -- ------ -- --- ------<br>-------,199270.5,199269.70000000298,197316.571,197319,197333.242,199283.594,,29,into
screen,html.Screen,0_4_1_0_1_30,2021-12-03T10:04:45.527Z,,,,,,,,,,,,,,,,48,,,,,,,,,,,,,,434.50599999402766,,response,,,10,D,,,,,Space,keypress(Space),,,,silence,-- -- --- ------ ------- --------- ----------- --------<br>--------- -------- --- ------- -- ------- ---- -- ------<br>-- --- -------- -------- ---------- ---- ---- ---- ------<br>-- --------- -- ---- or --- -- --- ------- -- - -----<br>---------- -- -- -- ---- ----- -- ------ -- --- ------<br>-------,199718.89999999106,199718.09999999404,199266.924,199270.89999999106,199283.594,199733.924,,30,or
screen,html.Screen,0_4_1_0_1_31,2021-12-03T10:04:46.671Z,,,,,,,,,,,,,,,,48,,,,,,,,,,,,,,1127.7760000029812,,response,,,10,D,,,,,Space,keypress(Space),,,,silence,-- -- --- ------ ------- --------- ----------- --------<br>--------- -------- --- ------- -- ------- ---- -- ------<br>-- --- -------- -------- ---------- ---- ---- ---- ------<br>-- --------- -- ---- -- out -- --- ------- -- - -----<br>---------- -- -- -- ---- ----- -- ------ -- --- ------<br>-------,200862.5,200861.70000000298,199717.253,199719.20000000298,199733.924,200867.406,,31,out
screen,html.Screen,0_4_1_0_1_32,2021-12-03T10:04:47.119Z,,,,,,,,,,,,,,,,48,,,,,,,,,,,,,,442.1939999940514,,response,,,10,D,,,,,Space,keypress(Space),,,,silence,-- -- --- ------ ------- --------- ----------- --------<br>--------- -------- --- ------- -- ------- ---- -- ------<br>-- --- -------- -------- ---------- ---- ---- ---- ------<br>-- --------- -- ---- -- --- of --- ------- -- - -----<br>---------- -- -- -- ---- ----- -- ------ -- --- ------<br>-------,201310.5,201309.59999999404,200850.736,200862.89999999106,200867.406,201317.627,,32,of
screen,html.Screen,0_4_1_0_1_33,2021-12-03T10:04:47.615Z,,,,,,,,,,,,,,,,48,,,,,,,,,,,,,,487.97299999403185,,response,,,10,D,,,,,Space,keypress(Space),,,,silence,-- -- --- ------ ------- --------- ----------- --------<br>--------- -------- --- ------- -- ------- ---- -- ------<br>-- --- -------- -------- ---------- ---- ---- ---- ------<br>-- --------- -- ---- -- --- -- the ------- -- - -----<br>---------- -- -- -- ---- ----- -- ------ -- --- ------<br>-------,201806.39999999106,201805.59999999404,201300.956,201310.70000000298,201317.627,201817.697,,33,the
screen,html.Screen,0_4_1_0_1_34,2021-12-03T10:04:48.087Z,,,,,,,,,,,,,,,,48,,,,,,,,,,,,,,459.90299999405397,,response,,,10,D,,,,,Space,keypress(Space),,,,silence,-- -- --- ------ ------- --------- ----------- --------<br>--------- -------- --- ------- -- ------- ---- -- ------<br>-- --- -------- -------- ---------- ---- ---- ---- ------<br>-- --------- -- ---- -- --- -- --- country -- - -----<br>---------- -- -- -- ---- ----- -- ------ -- --- ------<br>-------,202278.39999999106,202277.59999999404,201801.027,201806.59999999404,201817.697,202284.517,,34,country
screen,html.Screen,0_4_1_0_1_35,2021-12-03T10:04:48.543Z,,,,,,,,,,,,,,,,48,,,,,,,,,,,,,,449.082999994047,,response,,,10,D,,,,,Space,keypress(Space),,,,silence,-- -- --- ------ ------- --------- ----------- --------<br>--------- -------- --- ------- -- ------- ---- -- ------<br>-- --- -------- -------- ---------- ---- ---- ---- ------<br>-- --------- -- ---- -- --- -- --- ------- is - -----<br>---------- -- -- -- ---- ----- -- ------ -- --- ------<br>-------,202734.29999999702,202733.59999999404,202267.847,202278.59999999404,202284.517,202751.291,,35,is
screen,html.Screen,0_4_1_0_1_36,2021-12-03T10:04:48.887Z,,,,,,,,,,,,,,,,48,,,,,,,,,,,,,,326.3089999940421,,response,,,10,D,,,,,Space,keypress(Space),,,,silence,-- -- --- ------ ------- --------- ----------- --------<br>--------- -------- --- ------- -- ------- ---- -- ------<br>-- --- -------- -------- ---------- ---- ---- ---- ------<br>-- --------- -- ---- -- --- -- --- ------- -- a -----<br>---------- -- -- -- ---- ----- -- ------ -- --- ------<br>-------,203078.29999999702,203077.59999999404,202734.621,202734.59999999404,202751.291,203084.716,,36,a
screen,html.Screen,0_4_1_0_1_37,2021-12-03T10:04:49.335Z,,,,,,,,,,,,,,,,48,,,,,,,,,,,,,,440.88399999405374,,response,,,10,D,,,,,Space,keypress(Space),,,,silence,-- -- --- ------ ------- --------- ----------- --------<br>--------- -------- --- ------- -- ------- ---- -- ------<br>-- --- -------- -------- ---------- ---- ---- ---- ------<br>-- --------- -- ---- -- --- -- --- ------- -- - crime<br>---------- -- -- -- ---- ----- -- ------ -- --- ------<br>-------,203526.39999999106,203525.59999999404,203068.046,203078.59999999404,203084.716,203534.888,,37,crime
screen,html.Screen,0_4_1_0_1_38,2021-12-03T10:04:49.967Z,,,,,,,,,,,,,,,,48,,,,,,,,,,,,,,622.6119999999937,,response,,,10,D,,,,,Space,keypress(Space),,,,silence,-- -- --- ------ ------- --------- ----------- --------<br>--------- -------- --- ------- -- ------- ---- -- ------<br>-- --- -------- -------- ---------- ---- ---- ---- ------<br>-- --------- -- ---- -- --- -- --- ------- -- - -----<br>punishable -- -- -- ---- ----- -- ------ -- --- ------<br>-------,204158.29999999702,204157.5,203518.217,203526.5,203534.888,204168.315,,38,punishable
screen,html.Screen,0_4_1_0_1_39,2021-12-03T10:04:50.351Z,,,,,,,,,,,,,,,,48,,,,,,,,,,,,,,373.1849999999977,,response,,,10,D,,,,,Space,keypress(Space),,,,silence,-- -- --- ------ ------- --------- ----------- --------<br>--------- -------- --- ------- -- ------- ---- -- ------<br>-- --- -------- -------- ---------- ---- ---- ---- ------<br>-- --------- -- ---- -- --- -- --- ------- -- - -----<br>---------- by -- -- ---- ----- -- ------ -- --- ------<br>-------,204542.29999999702,204541.5,204151.645,204158.5,204168.315,204551.733,,39,by
screen,html.Screen,0_4_1_0_1_40,2021-12-03T10:04:50.735Z,,,,,,,,,,,,,,,,48,,,,,,,,,,,,,,373.76699999999255,,response,,,10,D,,,,,Space,keypress(Space),,,,silence,-- -- --- ------ ------- --------- ----------- --------<br>--------- -------- --- ------- -- ------- ---- -- ------<br>-- --- -------- -------- ---------- ---- ---- ---- ------<br>-- --------- -- ---- -- --- -- --- ------- -- - -----<br>---------- -- up -- ---- ----- -- ------ -- --- ------<br>-------,204926.29999999702,204925.5,204535.063,204542.59999999404,204551.733,204935.153,,40,up
screen,html.Screen,0_4_1_0_1_41,2021-12-03T10:04:51.071Z,,,,,,,,,,,,,,,,48,,,,,,,,,,,,,,326.24699999106815,,response,,,10,D,,,,,Space,keypress(Space),,,,silence,-- -- --- ------ ------- --------- ----------- --------<br>--------- -------- --- ------- -- ------- ---- -- ------<br>-- --- -------- -------- ---------- ---- ---- ---- ------<br>-- --------- -- ---- -- --- -- --- ------- -- - -----<br>---------- -- -- to ---- ----- -- ------ -- --- ------<br>-------,205262.29999999702,205261.39999999106,204918.483,204926.5,204935.153,205268.753,,41,to
screen,html.Screen,0_4_1_0_1_42,2021-12-03T10:04:51.447Z,,,,,,,,,,,,,,,,48,,,,,,,,,,,,,,368.747000000003,,response,,,10,D,,,,,Space,keypress(Space),,,,silence,-- -- --- ------ ------- --------- ----------- --------<br>--------- -------- --- ------- -- ------- ---- -- ------<br>-- --- -------- -------- ---------- ---- ---- ---- ------<br>-- --------- -- ---- -- --- -- --- ------- -- - -----<br>---------- -- -- -- five ----- -- ------ -- --- ------<br>-------,205638.20000000298,205637.5,205252.08,205262.5,205268.753,205652.066,,42,five
screen,html.Screen,0_4_1_0_1_43,2021-12-03T10:04:51.831Z,,,,,,,,,,,,,,,,48,,,,,,,,,,,,,,369.3339999910677,,response,,,10,D,,,,,Space,keypress(Space),,,,silence,-- -- --- ------ ------- --------- ----------- --------<br>--------- -------- --- ------- -- ------- ---- -- ------<br>-- --- -------- -------- ---------- ---- ---- ---- ------<br>-- --------- -- ---- -- --- -- --- ------- -- - -----<br>---------- -- -- -- ---- years -- ------ -- --- ------<br>-------,206022.20000000298,206021.39999999106,205635.396,205638.39999999106,205652.066,206035.542,,43,years
screen,html.Screen,0_4_1_0_1_44,2021-12-03T10:04:52.183Z,,,,,,,,,,,,,,,,48,,,,,,,,,,,,,,337.95800000001327,,response,,,10,D,,,,,Space,keypress(Space),,,,silence,-- -- --- ------ ------- --------- ----------- --------<br>--------- -------- --- ------- -- ------- ---- -- ------<br>-- --- -------- -------- ---------- ---- ---- ---- ------<br>-- --------- -- ---- -- --- -- --- ------- -- - -----<br>---------- -- -- -- ---- ----- in ------ -- --- ------<br>-------,206374.20000000298,206373.5,206018.871,206022.5,206035.542,206385.607,,44,in
screen,html.Screen,0_4_1_0_1_45,2021-12-03T10:04:52.583Z,,,,,,,,,,,,,,,,48,,,,,,,,,,,,,,387.79299999107025,,response,,,10,D,,,,,Space,keypress(Space),,,,silence,-- -- --- ------ ------- --------- ----------- --------<br>--------- -------- --- ------- -- ------- ---- -- ------<br>-- --- -------- -------- ---------- ---- ---- ---- ------<br>-- --------- -- ---- -- --- -- --- ------- -- - -----<br>---------- -- -- -- ---- ----- -- prison -- --- ------<br>-------,206774.20000000298,206773.39999999106,206368.937,206374.39999999106,206385.607,206785.575,,45,prison
screen,html.Screen,0_4_1_0_1_46,2021-12-03T10:04:52.927Z,,,,,,,,,,,,,,,,48,,,,,,,,,,,,,,331.82499999104766,,response,,,10,D,,,,,Space,keypress(Space),,,,silence,-- -- --- ------ ------- --------- ----------- --------<br>--------- -------- --- ------- -- ------- ---- -- ------<br>-- --- -------- -------- ---------- ---- ---- ---- ------<br>-- --------- -- ---- -- --- -- --- ------- -- - -----<br>---------- -- -- -- ---- ----- -- ------ in --- ------<br>-------,207118.09999999404,207117.39999999106,206768.907,206774.39999999106,206785.575,207119.198,,46,in
screen,html.Screen,0_4_1_0_1_47,2021-12-03T10:04:53.271Z,,,,,,,,,,,,,,,,48,,,,,,,,,,,,,,342.1019999970158,,response,,,10,D,,,,,Space,keypress(Space),,,,silence,-- -- --- ------ ------- --------- ----------- --------<br>--------- -------- --- ------- -- ------- ---- -- ------<br>-- --- -------- -------- ---------- ---- ---- ---- ------<br>-- --------- -- ---- -- --- -- --- ------- -- - -----<br>---------- -- -- -- ---- ----- -- ------ -- the ------<br>-------,207462.20000000298,207461.29999999702,207102.526,207118.39999999106,207119.198,207469.25,,47,the
screen,html.Screen,0_4_1_0_1_48,2021-12-03T10:04:53.679Z,,,,,,,,,,,,,,,,48,,,,,,,,,,,,,,400.04999999701977,,response,,,10,D,,,,,Space,keypress(Space),,,,silence,-- -- --- ------ ------- --------- ----------- --------<br>--------- -------- --- ------- -- ------- ---- -- ------<br>-- --- -------- -------- ---------- ---- ---- ---- ------<br>-- --------- -- ---- -- --- -- --- ------- -- - -----<br>---------- -- -- -- ---- ----- -- ------ -- --- United<br>-------,207870.09999999404,207869.29999999702,207452.579,207462.39999999106,207469.25,207885.98,,48,United
screen,html.Screen,0_4_1_0_1_49,2021-12-03T10:04:54.838Z,,,,,,,,,,,,,,,,48,,,,,,,,,,,,,,1143.3199999970093,,response,,,10,D,,,,,Space,keypress(Space),,,,silence,-- -- --- ------ ------- --------- ----------- --------<br>--------- -------- --- ------- -- ------- ---- -- ------<br>-- --- -------- -------- ---------- ---- ---- ---- ------<br>-- --------- -- ---- -- --- -- --- ------- -- - -----<br>---------- -- -- -- ---- ----- -- ------ -- --- ------<br>States.,209030.09999999404,209029.29999999702,207869.31,207870.39999999106,207885.98,209036.338,,49,States.
Item 10,flow.Loop,0_4_1_0_1,2021-12-03T10:04:54.839Z,,,,,,,,,,,,,,,,,,,,,,,,,,,,,,31968.295999997034,,completion,,,,,,,,,,,,,,,,209030.39999999106,209029.29999999702,177044.334,177046.39999999106,177061.004,209036.338,,,
Question 1,html.Screen,0_4_1_0_2,2021-12-03T10:04:59.750Z,,,,,,,,,,,,,,,,,,,,,,,,,,,true,TRUE,,4904.461999997031,,response,,,10,D,,,,,TRUE,click #choice-1,,,,silence,,213941.89999999106,213940.79999999702,209019.667,209030.70000000298,209036.338,213954.141,,,
Question 2,html.Screen,0_4_1_0_3,2021-12-03T10:05:06.342Z,,,,,,,,,,,,,,,,,,,,,,,,,,,true,TRUE,,6578.458999994036,,response,,,10,D,,,,,TRUE,click #choice-1,,,,silence,,220533.70000000298,220532.59999999404,213937.471,213942.20000000298,213954.141,220539.389,,,
Item 10,flow.Sequence,0_4_1_0,2021-12-03T10:05:06.342Z,,,,,,,,,,,,,,,,,,,,,,,,,,,,,,50473.33299999405,,completion,,,,,,,,,,,,,,,,220534.09999999404,220532.59999999404,170042.596,170044.5,170059.267,220539.389,,,
Holding screen,html.Screen,0_4_1_1_0,2021-12-03T10:05:13.335Z,,,,,,,,,,,,,,,,,,,,,,,,,,,,,,7001.732000000018,,timeout,,,,,,,,,,,,,,,,227526.20000000298,227524.451,220522.718,220534.39999999106,220539.389,227541.121,,,
screen,html.Screen,0_4_1_1_1_0,2021-12-03T10:05:15.022Z,,,,,,,,,,,,,,,,2,,,,,,,,,,,,,,1671.4789999940258,,response,,,1,D,,,,,Space,keypress(Space),,,,silence,Two ---- ------ --- ------- ---------- ------- ----------<br>--- --------- --- ----------- ------- ----- ------- ---<br>--------- ---- -- --- ---- -- --------- -- ---- -------<br>-- --------- ------ --- ----- ------ ---- --- --------- --<br>------ - ---- -- --- ----------- ------- ---- ----- -----<br>--- -------- - ------ ---- -- ----- ---- --- --- -----------<br>-- -------,229213.5,229212.59999999404,227524.451,227526.5,227541.121,229224.686,,0,Two
screen,html.Screen,0_4_1_1_1_1,2021-12-03T10:05:15.613Z,,,,,,,,,,,,,,,,2,,,,,,,,,,,,,,579.5140000029933,,response,,,1,D,,,,,Space,keypress(Space),,,,silence,--- days ------ --- ------- ---------- ------- ----------<br>--- --------- --- ----------- ------- ----- ------- ---<br>--------- ---- -- --- ---- -- --------- -- ---- -------<br>-- --------- ------ --- ----- ------ ---- --- --------- --<br>------ - ---- -- --- ----------- ------- ---- ----- -----<br>--- -------- - ------ ---- -- ----- ---- --- --- -----------<br>-- -------,229805.09999999404,229804.20000000298,229208.017,229213.70000000298,229224.686,229808.311,,1,days
screen,html.Screen,0_4_1_1_1_2,2021-12-03T10:05:16.117Z,,,,,,,,,,,,,,,,2,,,,,,,,,,,,,,499.9889999970328,,response,,,1,D,,,,,Space,keypress(Space),,,,silence,"--- ---- later, --- ------- ---------- ------- ----------<br>--- --------- --- ----------- ------- ----- ------- ---<br>--------- ---- -- --- ---- -- --------- -- ---- -------<br>-- --------- ------ --- ----- ------ ---- --- --------- --<br>------ - ---- -- --- ----------- ------- ---- ----- -----<br>--- -------- - ------ ---- -- ----- ---- --- --- -----------<br>-- -------",230309.09999999404,230308.29999999702,229791.641,229805.29999999702,229808.311,230325.23,,2,"later,"
screen,html.Screen,0_4_1_1_1_3,2021-12-03T10:05:16.621Z,,,,,,,,,,,,,,,,2,,,,,,,,,,,,,,487.0699999970093,,response,,,1,D,,,,,Space,keypress(Space),,,,silence,--- ---- ------ the ------- ---------- ------- ----------<br>--- --------- --- ----------- ------- ----- ------- ---<br>--------- ---- -- --- ---- -- --------- -- ---- -------<br>-- --------- ------ --- ----- ------ ---- --- --------- --<br>------ - ---- -- --- ----------- ------- ---- ----- -----<br>--- -------- - ------ ---- -- ----- ---- --- --- -----------<br>-- -------,230813.09999999404,230812.29999999702,230308.56,230309.29999999702,230325.23,230825.533,,3,the
