sender,sender_type,sender_id,timestamp,meta,,Blues,Classical,Country,Dance,Electronic,Folk,Gospel,Hip-Hop,Jazz,Latin,Musical/Film,New-age,Pop,Provo_ID,R&B,Rap,Reggae,Religious,Rock,Soul,Swing,Traditional,age,artist_name,correct,correctResponse,distraction,duration,education,ended_on,familiarity,gender,item,list,music_frequency,offensiveness,pleasantness,preference,response,response_action,snippet_file,song_name,song_rating,sound,text,time_commit,time_end,time_render,time_run,time_show,time_switch,url,word,word_ID
Instructions,html.Page,0_0,2021-11-25T15:47:01.765Z,"{""labjs_version"":""20.2.3"",""labjs_build"":{""flavor"":""production"",""commit"":""7ea907d66ca8aeef8054924ca5d82ffbe11e34e5""},""location"":""https://run.pavlovia.org/mvasilev/lab_music_f/"",""userAgent"":""Mozilla/5.0 (Windows NT 6.1; Win64; x64) AppleWebKit/537.36 (KHTML, like Gecko) Chrome/96.0.4664.45 Safari/537.36"",""platform"":""Win32"",""language"":""en-US"",""locale"":""en-US"",""timeZone"":""Europe/London"",""timezoneOffset"":0,""screen_width"":1920,""screen_height"":1080,""scroll_width"":1904,""scroll_height"":900,""window_innerWidth"":1904,""window_innerHeight"":948,""devicePixelRatio"":1}",,,,,,,,,,,,,,,,,,,,,,,,,,,,,15980.999999976159,,form submission,,,,,,,,,,,,,,,,23621.5,23620.399999976158,7622.73,7628.199999988079,7639.4,23623.751,{},,
Headphones,html.Page,0_1,2021-11-25T15:47:03.641Z,,,,,,,,,,,,,,,,,,,,,,,,,,,,,,1873.4489999880789,,form submission,,,,,,,,,,,,,,,,25497.69999998808,25497.19999998808,23607.085,23622.19999998808,23623.751,25509.155,,,
Holding screen,html.Screen,0_2_0_0,2021-11-25T15:47:13.646Z,,,,,,,,,,,,,,,,,,,,,,,,,,,,,,10004.166000000005,,timeout,,,,,,,,,,,,,,,,35502.5,35496.651,25492.526,25498.19999998808,25509.155,35513.321,,,
screen,html.Screen,0_2_0_1_0,2021-11-25T15:47:14.366Z,,,,,,,,,,,,,,,,53,,,,,,,,,,,,,,707.778999994036,,response,,,99,,,,,,Space,keypress(Space),,,,,When -- ----- -- ------ - ------- --- ----------<br>------------- ------ ------ ---- ---- ------- ----- -- ----<br>-------- ------- -- ---------- --- - --- ----- ----- ----<br>---- --- --- ----- --- ---- ---- ------- ----- ---- -------<br>--- --- -- ----- -- --- ---- -- --- ---- -- ------ ------<br>--- ----- -- ----,36222.5,36221.09999999404,35496.651,35502.79999998212,35513.321,36230.348,,0,When
screen,html.Screen,0_2_0_1_1,2021-11-25T15:47:14.742Z,,,,,,,,,,,,,,,,53,,,,,,,,,,,,,,366.7519999940414,,response,,,99,,,,,,Space,keypress(Space),,,,,---- it ----- -- ------ - ------- --- ----------<br>------------- ------ ------ ---- ---- ------- ----- -- ----<br>-------- ------- -- ---------- --- - --- ----- ----- ----<br>---- --- --- ----- --- ---- ---- ------- ----- ---- -------<br>--- --- -- ----- -- --- ---- -- --- ---- -- ------ ------<br>--- ----- -- ----,36598,36597.09999999404,36213.677,36222.89999997616,36230.348,36613.645,,1,it
screen,html.Screen,0_2_0_1_2,2021-11-25T15:47:15.326Z,,,,,,,,,,,,,,,,53,,,,,,,,,,,,,,567.4549999940427,,response,,,99,,,,,,Space,keypress(Space),,,,,---- -- comes -- ------ - ------- --- ----------<br>------------- ------ ------ ---- ---- ------- ----- -- ----<br>-------- ------- -- ---------- --- - --- ----- ----- ----<br>---- --- --- ----- --- ---- ---- ------- ----- ---- -------<br>--- --- -- ----- -- --- ---- -- --- ---- -- ------ ------<br>--- ----- -- ----,37181.89999997616,37181.09999999404,36596.975,36598.29999998212,36613.645,37197.127,,2,comes
screen,html.Screen,0_2_0_1_3,2021-11-25T15:47:15.790Z,,,,,,,,,,,,,,,,53,,,,,,,,,,,,,,447.77299997615773,,response,,,99,,,,,,Space,keypress(Space),,,,,---- -- ----- to ------ - ------- --- ----------<br>------------- ------ ------ ---- ---- ------- ----- -- ----<br>-------- ------- -- ---------- --- - --- ----- ----- ----<br>---- --- --- ----- --- ---- ---- ------- ----- ---- -------<br>--- --- -- ----- -- --- ---- -- --- ---- -- ------ ------<br>--- ----- -- ----,37645.79999998212,37644.89999997616,37180.457,37182.19999998808,37197.127,37647.411,,3,to
screen,html.Screen,0_2_0_1_4,2021-11-25T15:47:16.318Z,,,,,,,,,,,,,,,,53,,,,,,,,,,,,,,525.4889999761581,,response,,,99,,,,,,Space,keypress(Space),,,,,---- -- ----- -- having - ------- --- ----------<br>------------- ------ ------ ---- ---- ------- ----- -- ----<br>-------- ------- -- ---------- --- - --- ----- ----- ----<br>---- --- --- ----- --- ---- ---- ------- ----- ---- -------<br>--- --- -- ----- -- --- ---- -- --- ---- -- ------ ------<br>--- ----- -- ----,38174.09999999404,38172.89999997616,37630.739,37646.29999998212,37647.411,38180.66,,4,having
screen,html.Screen,0_2_0_1_5,2021-11-25T15:47:16.702Z,,,,,,,,,,,,,,,,53,,,,,,,,,,,,,,376.3399999999965,,response,,,99,,,,,,Space,keypress(Space),,,,,---- -- ----- -- ------ a ------- --- ----------<br>------------- ------ ------ ---- ---- ------- ----- -- ----<br>-------- ------- -- ---------- --- - --- ----- ----- ----<br>---- --- --- ----- --- ---- ---- ------- ----- ---- -------<br>--- --- -- ----- -- --- ---- -- --- ---- -- ------ ------<br>--- ----- -- ----,38557.79999998212,38557,38163.991,38174.39999997616,38180.66,38564.309,,5,a
screen,html.Screen,0_2_0_1_6,2021-11-25T15:47:17.198Z,,,,,,,,,,,,,,,,53,,,,,,,,,,,,,,488.59099997615704,,response,,,99,,,,,,Space,keypress(Space),,,,,---- -- ----- -- ------ - lasting --- ----------<br>------------- ------ ------ ---- ---- ------- ----- -- ----<br>-------- ------- -- ---------- --- - --- ----- ----- ----<br>---- --- --- ----- --- ---- ---- ------- ----- ---- -------<br>--- --- -- ----- -- --- ---- -- --- ---- -- ------ ------<br>--- ----- -- ----,39053.89999997616,39052.89999997616,38547.637,38558.29999998212,38564.309,39064.318,,6,lasting
screen,html.Screen,0_2_0_1_7,2021-11-25T15:47:17.766Z,,,,,,,,,,,,,,,,53,,,,,,,,,,,,,,556.5819999761588,,response,,,99,,,,,,Space,keypress(Space),,,,,---- -- ----- -- ------ - ------- and ----------<br>------------- ------ ------ ---- ---- ------- ----- -- ----<br>-------- ------- -- ---------- --- - --- ----- ----- ----<br>---- --- --- ----- --- ---- ---- ------- ----- ---- -------<br>--- --- -- ----- -- --- ---- -- --- ---- -- ------ ------<br>--- ----- -- ----,39621.79999998212,39620.89999997616,39047.648,39054.09999999404,39064.318,39631.194,,7,and
screen,html.Screen,0_2_0_1_8,2021-11-25T15:47:18.286Z,,,,,,,,,,,,,,,,53,,,,,,,,,,,,,,509.705999976155,,response,,,99,,,,,,Space,keypress(Space),,,,,---- -- ----- -- ------ - ------- --- fulfilling<br>------------- ------ ------ ---- ---- ------- ----- -- ----<br>-------- ------- -- ---------- --- - --- ----- ----- ----<br>---- --- --- ----- --- ---- ---- ------- ----- ---- -------<br>--- --- -- ----- -- --- ---- -- --- ---- -- ------ ------<br>--- ----- -- ----,40141.89999997616,40140.89999997616,39614.523,39622.09999999404,39631.194,40147.862,,8,fulfilling
screen,html.Screen,0_2_0_1_9,2021-11-25T15:47:18.838Z,,,,,,,,,,,,,,,,53,,,,,,,,,,,,,,545.0379999761572,,response,,,99,,,,,,Space,keypress(Space),,,,,"---- -- ----- -- ------ - ------- --- ----------<br>relationship, ------ ------ ---- ---- ------- ----- -- ----<br>-------- ------- -- ---------- --- - --- ----- ----- ----<br>---- --- --- ----- --- ---- ---- ------- ----- ---- -------<br>--- --- -- ----- -- --- ---- -- --- ---- -- ------ ------<br>--- ----- -- ----",40693.79999998212,40692.89999997616,40131.193,40142.19999998808,40147.862,40698.155,,9,"relationship,"
screen,html.Screen,0_2_0_1_10,2021-11-25T15:47:19.454Z,,,,,,,,,,,,,,,,53,,,,,,,,,,,,,,610.7449999761593,,response,,,99,,,,,,Space,keypress(Space),,,,,---- -- ----- -- ------ - ------- --- ----------<br>------------- common ------ ---- ---- ------- ----- -- ----<br>-------- ------- -- ---------- --- - --- ----- ----- ----<br>---- --- --- ----- --- ---- ---- ------- ----- ---- -------<br>--- --- -- ----- -- --- ---- -- --- ---- -- ------ ------<br>--- ----- -- ----,41309.79999998212,41308.89999997616,40681.484,40694,40698.155,41314.878,,10,common
screen,html.Screen,0_2_0_1_11,2021-11-25T15:47:19.942Z,,,,,,,,,,,,,,,,53,,,,,,,,,,,,,,481.92199998212163,,response,,,99,,,,,,Space,keypress(Space),,,,,---- -- ----- -- ------ - ------- --- ----------<br>------------- ------ wisdom ---- ---- ------- ----- -- ----<br>-------- ------- -- ---------- --- - --- ----- ----- ----<br>---- --- --- ----- --- ---- ---- ------- ----- ---- -------<br>--- --- -- ----- -- --- ---- -- --- ---- -- ------ ------<br>--- ----- -- ----,41797.69999998808,41796.79999998212,41298.208,41310,41314.878,41815.032,,11,wisdom
screen,html.Screen,0_2_0_1_12,2021-11-25T15:47:20.637Z,,,,,,,,,,,,,,,,53,,,,,,,,,,,,,,677.6679999880798,,response,,,99,,,,,,Space,keypress(Space),,,,,---- -- ----- -- ------ - ------- --- ----------<br>------------- ------ ------ says ---- ------- ----- -- ----<br>-------- ------- -- ---------- --- - --- ----- ----- ----<br>---- --- --- ----- --- ---- ---- ------- ----- ---- -------<br>--- --- -- ----- -- --- ---- -- --- ---- -- ------ ------<br>--- ----- -- ----,42493.59999999404,42492.69999998808,41798.362,41798,41815.032,42498.587,,12,says
screen,html.Screen,0_2_0_1_13,2021-11-25T15:47:21.013Z,,,,,,,,,,,,,,,,53,,,,,,,,,,,,,,370.11299998807954,,response,,,99,,,,,,Space,keypress(Space),,,,,---- -- ----- -- ------ - ------- --- ----------<br>------------- ------ ------ ---- that ------- ----- -- ----<br>-------- ------- -- ---------- --- - --- ----- ----- ----<br>---- --- --- ----- --- ---- ---- ------- ----- ---- -------<br>--- --- -- ----- -- --- ---- -- --- ---- -- ------ ------<br>--- ----- -- ----,42869.59999999404,42868.69999998808,42481.916,42493.79999998212,42498.587,42881.985,,13,that
screen,html.Screen,0_2_0_1_14,2021-11-25T15:47:21.462Z,,,,,,,,,,,,,,,,53,,,,,,,,,,,,,,435.2149999880785,,response,,,99,,,,,,Space,keypress(Space),,,,,---- -- ----- -- ------ - ------- --- ----------<br>------------- ------ ------ ---- ---- feeling ----- -- ----<br>-------- ------- -- ---------- --- - --- ----- ----- ----<br>---- --- --- ----- --- ---- ---- ------- ----- ---- -------<br>--- --- -- ----- -- --- ---- -- --- ---- -- ------ ------<br>--- ----- -- ----,43318,43317.19999998808,42865.315,42869.79999998212,42881.985,43332.102,,14,feeling
screen,html.Screen,0_2_0_1_15,2021-11-25T15:47:21.885Z,,,,,,,,,,,,,,,,53,,,,,,,,,,,,,,408.4979999940406,,response,,,99,,,,,,Space,keypress(Space),,,,,---- -- ----- -- ------ - ------- --- ----------<br>------------- ------ ------ ---- ---- ------- close -- ----<br>-------- ------- -- ---------- --- - --- ----- ----- ----<br>---- --- --- ----- --- ---- ---- ------- ----- ---- -------<br>--- --- -- ----- -- --- ---- -- --- ---- -- ------ ------<br>--- ----- -- ----,43741.39999997616,43740.59999999404,43315.432,43318.19999998808,43332.102,43748.876,,15,close
screen,html.Screen,0_2_0_1_16,2021-11-25T15:47:22.245Z,,,,,,,,,,,,,,,,53,,,,,,,,,,,,,,351.8239999880825,,response,,,99,,,,,,Space,keypress(Space),,,,,---- -- ----- -- ------ - ------- --- ----------<br>------------- ------ ------ ---- ---- ------- ----- to ----<br>-------- ------- -- ---------- --- - --- ----- ----- ----<br>---- --- --- ----- --- ---- ---- ------- ----- ---- -------<br>--- --- -- ----- -- --- ---- -- --- ---- -- ------ ------<br>--- ----- -- ----,44101.39999997616,44100.69999998808,43732.206,43741.69999998808,43748.876,44115.64,,16,to
screen,html.Screen,0_2_0_1_17,2021-11-25T15:47:22.605Z,,,,,,,,,,,,,,,,53,,,,,,,,,,,,,,344.9599999940401,,response,,,99,,,,,,Space,keypress(Space),,,,,---- -- ----- -- ------ - ------- --- ----------<br>------------- ------ ------ ---- ---- ------- ----- -- your<br>-------- ------- -- ---------- --- - --- ----- ----- ----<br>---- --- --- ----- --- ---- ---- ------- ----- ---- -------<br>--- --- -- ----- -- --- ---- -- --- ---- -- ------ ------<br>--- ----- -- ----,44461.39999997616,44460.59999999404,44098.97,44101.69999998808,44115.64,44465.73,,17,your
screen,html.Screen,0_2_0_1_18,2021-11-25T15:47:23.061Z,,,,,,,,,,,,,,,,53,,,,,,,,,,,,,,450.86999999403633,,response,,,99,,,,,,Space,keypress(Space),,,,,---- -- ----- -- ------ - ------- --- ----------<br>------------- ------ ------ ---- ---- ------- ----- -- ----<br>romantic ------- -- ---------- --- - --- ----- ----- ----<br>---- --- --- ----- --- ---- ---- ------- ----- ---- -------<br>--- --- -- ----- -- --- ---- -- --- ---- -- ------ ------<br>--- ----- -- ----,44917.29999998212,44916.59999999404,44449.06,44461.69999998808,44465.73,44932.514,,18,romantic
screen,html.Screen,0_2_0_1_19,2021-11-25T15:47:23.437Z,,,,,,,,,,,,,,,,53,,,,,,,,,,,,,,360.0859999940367,,response,,,99,,,,,,Space,keypress(Space),,,,,---- -- ----- -- ------ - ------- --- ----------<br>------------- ------ ------ ---- ---- ------- ----- -- ----<br>-------- partner -- ---------- --- - --- ----- ----- ----<br>---- --- --- ----- --- ---- ---- ------- ----- ---- -------<br>--- --- -- ----- -- --- ---- -- --- ---- -- ------ ------<br>--- ----- -- ----,45293.29999998212,45292.59999999404,44915.844,44917.59999999404,44932.514,45299.252,,19,partner
screen,html.Screen,0_2_0_1_20,2021-11-25T15:47:23.805Z,,,,,,,,,,,,,,,,53,,,,,,,,,,,,,,361.3479999940391,,response,,,99,,,,,,Space,keypress(Space),,,,,---- -- ----- -- ------ - ------- --- ----------<br>------------- ------ ------ ---- ---- ------- ----- -- ----<br>-------- ------- is ---------- --- - --- ----- ----- ----<br>---- --- --- ----- --- ---- ---- ------- ----- ---- -------<br>--- --- -- ----- -- --- ---- -- --- ---- -- ------ ------<br>--- ----- -- ----,45661.29999998212,45660.59999999404,45282.582,45293.59999999404,45299.252,45666.063,,20,is
screen,html.Screen,0_2_0_1_21,2021-11-25T15:47:24.221Z,,,,,,,,,,,,,,,,53,,,,,,,,,,,,,,410.5369999940376,,response,,,99,,,,,,Space,keypress(Space),,,,,---- -- ----- -- ------ - ------- --- ----------<br>------------- ------ ------ ---- ---- ------- ----- -- ----<br>-------- ------- -- paramount. --- - --- ----- ----- ----<br>---- --- --- ----- --- ---- ---- ------- ----- ---- -------<br>--- --- -- ----- -- --- ---- -- --- ---- -- ------ ------<br>--- ----- -- ----,46077.39999997616,46076.59999999404,45649.392,45661.59999999404,45666.063,46082.806,,21,paramount.
screen,html.Screen,0_2_0_1_22,2021-11-25T15:47:24.805Z,,,,,,,,,,,,,,,,53,,,,,,,,,,,,,,577.6940000000031,,response,,,99,,,,,,Space,keypress(Space),,,,,---- -- ----- -- ------ - ------- --- ----------<br>------------- ------ ------ ---- ---- ------- ----- -- ----<br>-------- ------- -- ---------- But - --- ----- ----- ----<br>---- --- --- ----- --- ---- ---- ------- ----- ---- -------<br>--- --- -- ----- -- --- ---- -- --- ---- -- ------ ------<br>--- ----- -- ----,46661.29999998212,46660.5,46066.136,46077.79999998212,46082.806,46666.283,,22,But
screen,html.Screen,0_2_0_1_23,2021-11-25T15:47:25.205Z,,,,,,,,,,,,,,,,53,,,,,,,,,,,,,,394.2169999999969,,response,,,99,,,,,,Space,keypress(Space),,,,,---- -- ----- -- ------ - ------- --- ----------<br>------------- ------ ------ ---- ---- ------- ----- -- ----<br>-------- ------- -- ---------- --- a --- ----- ----- ----<br>---- --- --- ----- --- ---- ---- ------- ----- ---- -------<br>--- --- -- ----- -- --- ---- -- --- ---- -- ------ ------<br>--- ----- -- ----,47061.29999998212,47060.5,46649.613,46661.5,46666.283,47066.378,,23,a
screen,html.Screen,0_2_0_1_24,2021-11-25T15:47:25.629Z,,,,,,,,,,,,,,,,53,,,,,,,,,,,,,,418.122000000003,,response,,,99,,,,,,Space,keypress(Space),,,,,---- -- ----- -- ------ - ------- --- ----------<br>------------- ------ ------ ---- ---- ------- ----- -- ----<br>-------- ------- -- ---------- --- - new ----- ----- ----<br>---- --- --- ----- --- ---- ---- ------- ----- ---- -------<br>--- --- -- ----- -- --- ---- -- --- ---- -- ------ ------<br>--- ----- -- ----,47485.29999998212,47484.5,47049.708,47061.5,47066.378,47499.873,,24,new
screen,html.Screen,0_2_0_1_25,2021-11-25T15:47:26.029Z,,,,,,,,,,,,,,,,53,,,,,,,,,,,,,,384.6270000000004,,response,,,99,,,,,,Space,keypress(Space),,,,,---- -- ----- -- ------ - ------- --- ----------<br>------------- ------ ------ ---- ---- ------- ----- -- ----<br>-------- ------- -- ---------- --- - --- study ----- ----<br>---- --- --- ----- --- ---- ---- ------- ----- ---- -------<br>--- --- -- ----- -- --- ---- -- --- ---- -- ------ ------<br>--- ----- -- ----,47885.29999998212,47884.5,47483.202,47485.59999999404,47499.873,47899.946,,25,study
screen,html.Screen,0_2_0_1_26,2021-11-25T15:47:26.365Z,,,,,,,,,,,,,,,,53,,,,,,,,,,,,,,320.4539999761546,,response,,,99,,,,,,Space,keypress(Space),,,,,---- -- ----- -- ------ - ------- --- ----------<br>------------- ------ ------ ---- ---- ------- ----- -- ----<br>-------- ------- -- ---------- --- - --- ----- finds ----<br>---- --- --- ----- --- ---- ---- ------- ----- ---- -------<br>--- --- -- ----- -- --- ---- -- --- ---- -- ------ ------<br>--- ----- -- ----,48221.19999998808,48220.39999997616,47883.276,47885.5,47899.946,48233.371,,26,finds
screen,html.Screen,0_2_0_1_27,2021-11-25T15:47:26.717Z,,,,,,,,,,,,,,,,53,,,,,,,,,,,,,,339.1290000000008,,response,,,99,,,,,,Space,keypress(Space),,,,,---- -- ----- -- ------ - ------- --- ----------<br>------------- ------ ------ ---- ---- ------- ----- -- ----<br>-------- ------- -- ---------- --- - --- ----- ----- that<br>---- --- --- ----- --- ---- ---- ------- ----- ---- -------<br>--- --- -- ----- -- --- ---- -- --- ---- -- ------ ------<br>--- ----- -- ----,48573.19999998808,48572.5,48216.701,48221.5,48233.371,48583.459,,27,that
screen,html.Screen,0_2_0_1_28,2021-11-25T15:47:27.165Z,,,,,,,,,,,,,,,,53,,,,,,,,,,,,,,436.9409999761556,,response,,,99,,,,,,Space,keypress(Space),,,,,---- -- ----- -- ------ - ------- --- ----------<br>------------- ------ ------ ---- ---- ------- ----- -- ----<br>-------- ------- -- ---------- --- - --- ----- ----- ----<br>it's --- --- ----- --- ---- ---- ------- ----- ---- -------<br>--- --- -- ----- -- --- ---- -- --- ---- -- ------ ------<br>--- ----- -- ----,49021.19999998808,49020.39999997616,48566.789,48573.39999997616,48583.459,49033.51,,28,it's
screen,html.Screen,0_2_0_1_29,2021-11-25T15:47:27.581Z,,,,,,,,,,,,,,,,53,,,,,,,,,,,,,,402.68999998807703,,response,,,99,,,,,,Space,keypress(Space),,,,,---- -- ----- -- ------ - ------- --- ----------<br>------------- ------ ------ ---- ---- ------- ----- -- ----<br>-------- ------- -- ---------- --- - --- ----- ----- ----<br>---- not --- ----- --- ---- ---- ------- ----- ---- -------<br>--- --- -- ----- -- --- ---- -- --- ---- -- ------ ------<br>--- ----- -- ----,49437.09999999404,49436.19999998808,49016.841,49021.39999997616,49033.51,49450.368,,29,not
screen,html.Screen,0_2_0_1_30,2021-11-25T15:47:27.957Z,,,,,,,,,,,,,,,,53,,,,,,,,,,,,,,362.03199997615593,,response,,,99,,,,,,Space,keypress(Space),,,,,---- -- ----- -- ------ - ------- --- ----------<br>------------- ------ ------ ---- ---- ------- ----- -- ----<br>-------- ------- -- ---------- --- - --- ----- ----- ----<br>---- --- how ----- --- ---- ---- ------- ----- ---- -------<br>--- --- -- ----- -- --- ---- -- --- ---- -- ------ ------<br>--- ----- -- ----,49813.09999999404,49812.39999997616,49433.697,49437.39999997616,49450.368,49817.097,,30,how
screen,html.Screen,0_2_0_1_31,2021-11-25T15:47:28.349Z,,,,,,,,,,,,,,,,53,,,,,,,,,,,,,,387.30299997615657,,response,,,99,,,,,,Space,keypress(Space),,,,,---- -- ----- -- ------ - ------- --- ----------<br>------------- ------ ------ ---- ---- ------- ----- -- ----<br>-------- ------- -- ---------- --- - --- ----- ----- ----<br>---- --- --- close --- ---- ---- ------- ----- ---- -------<br>--- --- -- ----- -- --- ---- -- --- ---- -- ------ ------<br>--- ----- -- ----,50205.39999997616,50204.39999997616,49800.427,49813.39999997616,49817.097,50217.106,,31,close
screen,html.Screen,0_2_0_1_32,2021-11-25T15:47:28.749Z,,,,,,,,,,,,,,,,53,,,,,,,,,,,,,,387.19399998211884,,response,,,99,,,,,,Space,keypress(Space),,,,,---- -- ----- -- ------ - ------- --- ----------<br>------------- ------ ------ ---- ---- ------- ----- -- ----<br>-------- ------- -- ---------- --- - --- ----- ----- ----<br>---- --- --- ----- you ---- ---- ------- ----- ---- -------<br>--- --- -- ----- -- --- ---- -- --- ---- -- ------ ------<br>--- ----- -- ----,50605.19999998808,50604.29999998212,50200.437,50205.69999998808,50217.106,50617.359,,32,you
screen,html.Screen,0_2_0_1_33,2021-11-25T15:47:29.053Z,,,,,,,,,,,,,,,,53,,,,,,,,,,,,,,290.94099998212187,,response,,,99,,,,,,Space,keypress(Space),,,,,---- -- ----- -- ------ - ------- --- ----------<br>------------- ------ ------ ---- ---- ------- ----- -- ----<br>-------- ------- -- ---------- --- - --- ----- ----- ----<br>---- --- --- ----- --- feel ---- ------- ----- ---- -------<br>--- --- -- ----- -- --- ---- -- --- ---- -- ------ ------<br>--- ----- -- ----,50909.09999999404,50908.29999998212,50600.687,50605.39999997616,50617.359,50917.315,,33,feel
screen,html.Screen,0_2_0_1_34,2021-11-25T15:47:29.381Z,,,,,,,,,,,,,,,,53,,,,,,,,,,,,,,318.9849999821163,,response,,,99,,,,,,Space,keypress(Space),,,,,---- -- ----- -- ------ - ------- --- ----------<br>------------- ------ ------ ---- ---- ------- ----- -- ----<br>-------- ------- -- ---------- --- - --- ----- ----- ----<br>---- --- --- ----- --- ---- that ------- ----- ---- -------<br>--- --- -- ----- -- --- ---- -- --- ---- -- ------ ------<br>--- ----- -- ----,51237.09999999404,51236.29999998212,50900.646,50909.39999997616,50917.315,51250.753,,34,that
screen,html.Screen,0_2_0_1_35,2021-11-25T15:47:29.749Z,,,,,,,,,,,,,,,,53,,,,,,,,,,,,,,353.54699998212163,,response,,,99,,,,,,Space,keypress(Space),,,,,---- -- ----- -- ------ - ------- --- ----------<br>------------- ------ ------ ---- ---- ------- ----- -- ----<br>-------- ------- -- ---------- --- - --- ----- ----- ----<br>---- --- --- ----- --- ---- ---- matters ----- ---- -------<br>--- --- -- ----- -- --- ---- -- --- ---- -- ------ ------<br>--- ----- -- ----,51605,51604.29999998212,51234.083,51237.29999998212,51250.753,51617.643,,35,matters
screen,html.Screen,0_2_0_1_36,2021-11-25T15:47:30.077Z,,,,,,,,,,,,,,,,53,,,,,,,,,,,,,,314.5569999880827,,response,,,99,,,,,,Space,keypress(Space),,,,,"---- -- ----- -- ------ - ------- --- ----------<br>------------- ------ ------ ---- ---- ------- ----- -- ----<br>-------- ------- -- ---------- --- - --- ----- ----- ----<br>---- --- --- ----- --- ---- ---- ------- most, ---- -------<br>--- --- -- ----- -- --- ---- -- --- ---- -- ------ ------<br>--- ----- -- ----",51933.29999998212,51932.19999998808,51600.971,51605.29999998212,51617.643,51934.354,,36,"most,"
screen,html.Screen,0_2_0_1_37,2021-11-25T15:47:30.509Z,,,,,,,,,,,,,,,,53,,,,,,,,,,,,,,429.8459999880797,,response,,,99,,,,,,Space,keypress(Space),,,,,---- -- ----- -- ------ - ------- --- ----------<br>------------- ------ ------ ---- ---- ------- ----- -- ----<br>-------- ------- -- ---------- --- - --- ----- ----- ----<br>---- --- --- ----- --- ---- ---- ------- ----- it's -------<br>--- --- -- ----- -- --- ---- -- --- ---- -- ------ ------<br>--- ----- -- ----,52365,52364.19999998808,51917.683,51933.5,51934.354,52367.615,,37,it's
screen,html.Screen,0_2_0_1_38,2021-11-25T15:47:30.805Z,,,,,,,,,,,,,,,,53,,,,,,,,,,,,,,292.5849999880811,,response,,,99,,,,,,Space,keypress(Space),,,,,---- -- ----- -- ------ - ------- --- ----------<br>------------- ------ ------ ---- ---- ------- ----- -- ----<br>-------- ------- -- ---------- --- - --- ----- ----- ----<br>---- --- --- ----- --- ---- ---- ------- ----- ---- whether<br>--- --- -- ----- -- --- ---- -- --- ---- -- ------ ------<br>--- ----- -- ----,52660.89999997616,52660.19999998808,52350.947,52365.29999998212,52367.615,52667.972,,38,whether
screen,html.Screen,0_2_0_1_39,2021-11-25T15:47:31.269Z,,,,,,,,,,,,,,,,53,,,,,,,,,,,,,,456.2279999880775,,response,,,99,,,,,,Space,keypress(Space),,,,,---- -- ----- -- ------ - ------- --- ----------<br>------------- ------ ------ ---- ---- ------- ----- -- ----<br>-------- ------- -- ---------- --- - --- ----- ----- ----<br>---- --- --- ----- --- ---- ---- ------- ----- ---- -------<br>you --- -- ----- -- --- ---- -- --- ---- -- ------ ------<br>--- ----- -- ----,53125,53124.19999998808,52651.299,52661.19999998808,52667.972,53134.603,,39,you
screen,html.Screen,0_2_0_1_40,2021-11-25T15:47:31.661Z,,,,,,,,,,,,,,,,53,,,,,,,,,,,,,,381.8969999999972,,response,,,99,,,,,,Space,keypress(Space),,,,,---- -- ----- -- ------ - ------- --- ----------<br>------------- ------ ------ ---- ---- ------- ----- -- ----<br>-------- ------- -- ---------- --- - --- ----- ----- ----<br>---- --- --- ----- --- ---- ---- ------- ----- ---- -------<br>--- are -- ----- -- --- ---- -- --- ---- -- ------ ------<br>--- ----- -- ----,53517.29999998212,53516.5,53117.933,53125.29999998212,53134.603,53534.758,,40,are
screen,html.Screen,0_2_0_1_41,2021-11-25T15:47:31.981Z,,,,,,,,,,,,,,,,53,,,,,,,,,,,,,,301.3419999940379,,response,,,99,,,,,,Space,keypress(Space),,,,,---- -- ----- -- ------ - ------- --- ----------<br>------------- ------ ------ ---- ---- ------- ----- -- ----<br>-------- ------- -- ---------- --- - --- ----- ----- ----<br>---- --- --- ----- --- ---- ---- ------- ----- ---- -------<br>--- --- as ----- -- --- ---- -- --- ---- -- ------ ------<br>--- ----- -- ----,53836.89999997616,53836.09999999404,53518.087,53517.59999999404,53534.758,53851.483,,41,as
screen,html.Screen,0_2_0_1_42,2021-11-25T15:47:32.317Z,,,,,,,,,,,,,,,,53,,,,,,,,,,,,,,320.61699999403936,,response,,,99,,,,,,Space,keypress(Space),,,,,---- -- ----- -- ------ - ------- --- ----------<br>------------- ------ ------ ---- ---- ------- ----- -- ----<br>-------- ------- -- ---------- --- - --- ----- ----- ----<br>---- --- --- ----- --- ---- ---- ------- ----- ---- -------<br>--- --- -- close -- --- ---- -- --- ---- -- ------ ------<br>--- ----- -- ----,54172.89999997616,54172.09999999404,53834.813,53837.19999998808,53851.483,54184.9,,42,close
screen,html.Screen,0_2_0_1_43,2021-11-25T15:47:32.621Z,,,,,,,,,,,,,,,,53,,,,,,,,,,,,,,291.1999999940381,,response,,,99,,,,,,Space,keypress(Space),,,,,---- -- ----- -- ------ - ------- --- ----------<br>------------- ------ ------ ---- ---- ------- ----- -- ----<br>-------- ------- -- ---------- --- - --- ----- ----- ----<br>---- --- --- ----- --- ---- ---- ------- ----- ---- -------<br>--- --- -- ----- as --- ---- -- --- ---- -- ------ ------<br>--- ----- -- ----,54476.89999997616,54476.09999999404,54168.23,54173.19999998808,54184.9,54484.958,,43,as
screen,html.Screen,0_2_0_1_44,2021-11-25T15:47:32.941Z,,,,,,,,,,,,,,,,53,,,,,,,,,,,,,,311.1419999940408,,response,,,99,,,,,,Space,keypress(Space),,,,,---- -- ----- -- ------ - ------- --- ----------<br>------------- ------ ------ ---- ---- ------- ----- -- ----<br>-------- ------- -- ---------- --- - --- ----- ----- ----<br>---- --- --- ----- --- ---- ---- ------- ----- ---- -------<br>--- --- -- ----- -- you ---- -- --- ---- -- ------ ------<br>--- ----- -- ----,54796.89999997616,54796.09999999404,54468.288,54477.09999999404,54484.958,54801.758,,44,you
screen,html.Screen,0_2_0_1_45,2021-11-25T15:47:33.285Z,,,,,,,,,,,,,,,,53,,,,,,,,,,,,,,338.3419999940379,,response,,,99,,,,,,Space,keypress(Space),,,,,---- -- ----- -- ------ - ------- --- ----------<br>------------- ------ ------ ---- ---- ------- ----- -- ----<br>-------- ------- -- ---------- --- - --- ----- ----- ----<br>---- --- --- ----- --- ---- ---- ------- ----- ---- -------<br>--- --- -- ----- -- --- want -- --- ---- -- ------ ------<br>--- ----- -- ----,55140.79999998212,55140.09999999404,54785.087,54797.09999999404,54801.758,55151.799,,45,want
screen,html.Screen,0_2_0_1_46,2021-11-25T15:47:33.653Z,,,,,,,,,,,,,,,,53,,,,,,,,,,,,,,356.20100000000093,,response,,,99,,,,,,Space,keypress(Space),,,,,---- -- ----- -- ------ - ------- --- ----------<br>------------- ------ ------ ---- ---- ------- ----- -- ----<br>-------- ------- -- ---------- --- - --- ----- ----- ----<br>---- --- --- ----- --- ---- ---- ------- ----- ---- -------<br>--- --- -- ----- -- --- ---- to --- ---- -- ------ ------<br>--- ----- -- ----,55508.79999998212,55508,55135.129,55141.09999999404,55151.799,55518.503,,46,to
screen,html.Screen,0_2_0_1_47,2021-11-25T15:47:33.933Z,,,,,,,,,,,,,,,,53,,,,,,,,,,,,,,269.497000000003,,response,,,99,,,,,,Space,keypress(Space),,,,,"---- -- ----- -- ------ - ------- --- ----------<br>------------- ------ ------ ---- ---- ------- ----- -- ----<br>-------- ------- -- ---------- --- - --- ----- ----- ----<br>---- --- --- ----- --- ---- ---- ------- ----- ---- -------<br>--- --- -- ----- -- --- ---- -- be, ---- -- ------ ------<br>--- ----- -- ----",55788.69999998808,55788,55501.834,55509.09999999404,55518.503,55802.041,,47,"be,"
screen,html.Screen,0_2_0_1_48,2021-11-25T15:47:34.205Z,,,,,,,,,,,,,,,,53,,,,,,,,,,,,,,257.95900000000256,,response,,,99,,,,,,Space,keypress(Space),,,,,---- -- ----- -- ------ - ------- --- ----------<br>------------- ------ ------ ---- ---- ------- ----- -- ----<br>-------- ------- -- ---------- --- - --- ----- ----- ----<br>---- --- --- ----- --- ---- ---- ------- ----- ---- -------<br>--- --- -- ----- -- --- ---- -- --- even -- ------ ------<br>--- ----- -- ----,56060.79999998212,56060,55785.369,55789,55802.041,56068.707,,48,even
screen,html.Screen,0_2_0_1_49,2021-11-25T15:47:34.549Z,,,,,,,,,,,,,,,,53,,,,,,,,,,,,,,335.192999976156,,response,,,99,,,,,,Space,keypress(Space),,,,,---- -- ----- -- ------ - ------- --- ----------<br>------------- ------ ------ ---- ---- ------- ----- -- ----<br>-------- ------- -- ---------- --- - --- ----- ----- ----<br>---- --- --- ----- --- ---- ---- ------- ----- ---- -------<br>--- --- -- ----- -- --- ---- -- --- ---- if ------ ------<br>--- ----- -- ----,56404.69999998808,56403.89999997616,56052.037,56061,56068.707,56418.837,,49,if
screen,html.Screen,0_2_0_1_50,2021-11-25T15:47:34.957Z,,,,,,,,,,,,,,,,53,,,,,,,,,,,,,,393.0629999761586,,response,,,99,,,,,,Space,keypress(Space),,,,,---- -- ----- -- ------ - ------- --- ----------<br>------------- ------ ------ ---- ---- ------- ----- -- ----<br>-------- ------- -- ---------- --- - --- ----- ----- ----<br>---- --- --- ----- --- ---- ---- ------- ----- ---- -------<br>--- --- -- ----- -- --- ---- -- --- ---- -- that's ------<br>--- ----- -- ----,56812.79999998212,56811.89999997616,56402.166,56405,56418.837,56818.853,,50,that's
screen,html.Screen,0_2_0_1_51,2021-11-25T15:47:35.285Z,,,,,,,,,,,,,,,,53,,,,,,,,,,,,,,321.1469999999972,,response,,,99,,,,,,Space,keypress(Space),,,,,---- -- ----- -- ------ - ------- --- ----------<br>------------- ------ ------ ---- ---- ------- ----- -- ----<br>-------- ------- -- ---------- --- - --- ----- ----- ----<br>---- --- --- ----- --- ---- ---- ------- ----- ---- -------<br>--- --- -- ----- -- --- ---- -- --- ---- -- ------ really<br>--- ----- -- ----,57140.69999998808,57140,56802.184,56813,56818.853,57152.363,,51,really
screen,html.Screen,0_2_0_1_52,2021-11-25T15:47:35.612Z,,,,,,,,,,,,,,,,53,,,,,,,,,,,,,,315.5369999761606,,response,,,99,,,,,,Space,keypress(Space),,,,,---- -- ----- -- ------ - ------- --- ----------<br>------------- ------ ------ ---- ---- ------- ----- -- ----<br>-------- ------- -- ---------- --- - --- ----- ----- ----<br>---- --- --- ----- --- ---- ---- ------- ----- ---- -------<br>--- --- -- ----- -- --- ---- -- --- ---- -- ------ ------<br>not ----- -- ----,57468.69999998808,57467.89999997616,57135.692,57141,57152.363,57485.75,,52,not
screen,html.Screen,0_2_0_1_53,2021-11-25T15:47:35.908Z,,,,,,,,,,,,,,,,53,,,,,,,,,,,,,,278.14999997615814,,response,,,99,,,,,,Space,keypress(Space),,,,,---- -- ----- -- ------ - ------- --- ----------<br>------------- ------ ------ ---- ---- ------- ----- -- ----<br>-------- ------- -- ---------- --- - --- ----- ----- ----<br>---- --- --- ----- --- ---- ---- ------- ----- ---- -------<br>--- --- -- ----- -- --- ---- -- --- ---- -- ------ ------<br>--- close -- ----,57764.69999998808,57763.89999997616,57469.08,57468.89999997616,57485.75,57769.027,,53,close
screen,html.Screen,0_2_0_1_54,2021-11-25T15:47:36.236Z,,,,,,,,,,,,,,,,53,,,,,,,,,,,,,,322.77299998211674,,response,,,99,,,,,,Space,keypress(Space),,,,,---- -- ----- -- ------ - ------- --- ----------<br>------------- ------ ------ ---- ---- ------- ----- -- ----<br>-------- ------- -- ---------- --- - --- ----- ----- ----<br>---- --- --- ----- --- ---- ---- ------- ----- ---- -------<br>--- --- -- ----- -- --- ---- -- --- ---- -- ------ ------<br>--- ----- at ----,58092.69999998808,58091.79999998212,57752.359,57764.89999997616,57769.027,58102.673,,54,at
screen,html.Screen,0_2_0_1_55,2021-11-25T15:47:36.588Z,,,,,,,,,,,,,,,,53,,,,,,,,,,,,,,341.22699997615564,,response,,,99,,,,,,Space,keypress(Space),,,,,---- -- ----- -- ------ - ------- --- ----------<br>------------- ------ ------ ---- ---- ------- ----- -- ----<br>-------- ------- -- ---------- --- - --- ----- ----- ----<br>---- --- --- ----- --- ---- ---- ------- ----- ---- -------<br>--- --- -- ----- -- --- ---- -- --- ---- -- ------ ------<br>--- ----- -- all.,58444.59999999404,58443.89999997616,58086,58092.89999997616,58102.673,58452.662,,55,all.
Item 99,flow.Loop,0_2_0_1,2021-11-25T15:47:36.593Z,,,,,,,,,,,,,,,,,,,,,,,,,,,,,,22930.578999976155,,completion,,,,F,,,,,,,,,,silence,,58449,58443.89999997616,35496.651,35502.79999998212,35513.321,58452.662,,,
Question 1,html.Screen,0_2_0_2,2021-11-25T15:47:41.704Z,,,,,,,,,,,,,,,,,,,,,,,,,,,false,FALSE,,5102.7379999761615,,response,,,99,F,,,,,TRUE,click #choice-1,,,,silence,,63556.79999998212,63555.39999997616,58435.992,58449.19999998808,58452.662,63570.625,,,
Question 2,html.Screen,0_2_0_3,2021-11-25T15:47:47.647Z,,,,,,,,,,,,,,,,,,,,,,,,,,,true,TRUE,,5928.4749999940395,,response,,,99,F,,,,,TRUE,click #choice-1,,,,silence,,69500.29999998212,69499.09999999404,63553.957,63557.09999999404,63570.625,69505.507,,,
Item 99,flow.Sequence,0_2_0,2021-11-25T15:47:47.648Z,,,,,,,,,,,,,,,,,,,,,,,,,,,,,,43989.94499999404,,completion,,,,,,,,,,,,,,,,69500.79999998212,69499.09999999404,25492.526,25498,25509.155,69505.507,,,
Holding screen,html.Screen,0_2_1_0,2021-11-25T15:47:57.640Z,,,,,,,,,,,,,,,,,,,,,,,,,,,,,,10002.464999999997,,timeout,,,,,,,,,,,,,,,,79492.79999998212,79491.302,69488.837,69501.09999999404,69505.507,79507.972,,,
screen,html.Screen,0_2_1_1_0,2021-11-25T15:47:58.327Z,,,,,,,,,,,,,,,,54,,,,,,,,,,,,,,671.0280000000057,,response,,,100,,,,,,Space,keypress(Space),,,,,At --- ---- --- ------ ----- ------- ---- -- --- ------- --<br>------- ---------- ------ -- ----- -- ----- -- ---- ------<br>--- ----- --- --- ------ -------- ----- --- ------ ----- --<br>----- ----- ---------- --- --- ------ ------ ---- -- ------<br>------- --- ------ ----- --- ---- ------- -- ---- --- --<br>------- ------,80180,80179,79491.302,79493.19999998808,79507.972,80191.606,,0,At
screen,html.Screen,0_2_1_1_1,2021-11-25T15:47:58.750Z,,,,,,,,,,,,,,,,54,,,,,,,,,,,,,,410.99399999403977,,response,,,100,,,,,,Space,keypress(Space),,,,,-- the ---- --- ------ ----- ------- ---- -- --- ------- --<br>------- ---------- ------ -- ----- -- ----- -- ---- ------<br>--- ----- --- --- ------ -------- ----- --- ------ ----- --<br>----- ----- ---------- --- --- ------ ------ ---- -- ------<br>------- --- ------ ----- --- ---- ------- -- ---- --- --<br>------- ------,80603.39999997616,80602.59999999404,80174.935,80180.19999998808,80191.606,80608.411,,1,the
screen,html.Screen,0_2_1_1_2,2021-11-25T15:47:59.250Z,,,,,,,,,,,,,,,,54,,,,,,,,,,,,,,494.0890000000072,,response,,,100,,,,,,Space,keypress(Space),,,,,-- --- time --- ------ ----- ------- ---- -- --- ------- --<br>------- ---------- ------ -- ----- -- ----- -- ---- ------<br>--- ----- --- --- ------ -------- ----- --- ------ ----- --<br>----- ----- ---------- --- --- ------ ------ ---- -- ------<br>------- --- ------ ----- --- ---- ------- -- ---- --- --<br>------- ------,81103.29999998212,81102.5,80591.74,80603.59999999404,80608.411,81108.469,,2,time
screen,html.Screen,0_2_1_1_3,2021-11-25T15:47:59.283Z,,,,,,,,,,,,,,,,54,,,,,,,,,,,,,,27.031000000002678,,response,,,100,,,,,,Space,keypress(Space),,,,,-- --- ---- the ------ ----- ------- ---- -- --- ------- --<br>------- ---------- ------ -- ----- -- ----- -- ---- ------<br>--- ----- --- --- ------ -------- ----- --- ------ ----- --<br>----- ----- ---------- --- --- ------ ------ ---- -- ------<br>------- --- ------ ----- --- ---- ------- -- ---- --- --<br>------- ------,81136.29999998212,81135.5,81091.799,81103.59999999404,81108.469,81141.809,,3,the
screen,html.Screen,0_2_1_1_4,2021-11-25T15:47:59.317Z,,,,,,,,,,,,,,,,54,,,,,,,,,,,,,,26.69100000000617,,response,,,100,,,,,,Space,keypress(Space),,,,,-- --- ---- --- French ----- ------- ---- -- --- ------- --<br>------- ---------- ------ -- ----- -- ----- -- ---- ------<br>--- ----- --- --- ------ -------- ----- --- ------ ----- --<br>----- ----- ---------- --- --- ------ ------ ---- -- ------<br>------- --- ------ ----- --- ---- ------- -- ---- --- --<br>------- ------,81170.5,81168.5,81125.139,81136.5,81141.809,81175.201,,4,French
screen,html.Screen,0_2_1_1_5,2021-11-25T15:48:00.534Z,,,,,,,,,,,,,,,,54,,,,,,,,,,,,,,1211.3989999940386,,response,,,100,,,,,,Space,keypress(Space),,,,,-- --- ---- --- ------ crown ------- ---- -- --- ------- --<br>------- ---------- ------ -- ----- -- ----- -- ---- ------<br>--- ----- --- --- ------ -------- ----- --- ------ ----- --<br>----- ----- ---------- --- --- ------ ------ ---- -- ------<br>------- --- ------ ----- --- ---- ------- -- ---- --- --<br>------- ------,82387.39999997616,82386.59999999404,81158.53,81170.89999997616,81175.201,82392.135,,5,crown
screen,html.Screen,0_2_1_1_6,2021-11-25T15:48:01.046Z,,,,,,,,,,,,,,,,54,,,,,,,,,,,,,,506.4649999940448,,response,,,100,,,,,,Space,keypress(Space),,,,,-- --- ---- --- ------ ----- secured ---- -- --- ------- --<br>------- ---------- ------ -- ----- -- ----- -- ---- ------<br>--- ----- --- --- ------ -------- ----- --- ------ ----- --<br>----- ----- ---------- --- --- ------ ------ ---- -- ------<br>------- --- ------ ----- --- ---- ------- -- ---- --- --<br>------- ------,82899.29999998212,82898.59999999404,82375.464,82387.59999999404,82392.135,82909.792,,6,secured
screen,html.Screen,0_2_1_1_7,2021-11-25T15:48:01.686Z,,,,,,,,,,,,,,,,54,,,,,,,,,,,,,,628.7079999999987,,response,,,100,,,,,,Space,keypress(Space),,,,,-- --- ---- --- ------ ----- ------- much -- --- ------- --<br>------- ---------- ------ -- ----- -- ----- -- ---- ------<br>--- ----- --- --- ------ -------- ----- --- ------ ----- --<br>----- ----- ---------- --- --- ------ ------ ---- -- ------<br>------- --- ------ ----- --- ---- ------- -- ---- --- --<br>------- ------,83539.29999998212,83538.5,82893.097,82899.59999999404,82909.792,83542.418,,7,much
screen,html.Screen,0_2_1_1_8,2021-11-25T15:48:02.134Z,,,,,,,,,,,,,,,,54,,,,,,,,,,,,,,444.0819999999949,,response,,,100,,,,,,Space,keypress(Space),,,,,-- --- ---- --- ------ ----- ------- ---- of --- ------- --<br>------- ---------- ------ -- ----- -- ----- -- ---- ------<br>--- ----- --- --- ------ -------- ----- --- ------ ----- --<br>----- ----- ---------- --- --- ------ ------ ---- -- ------<br>------- --- ------ ----- --- ---- ------- -- ---- --- --<br>------- ------,83987.19999998808,83986.5,83525.748,83539.5,83542.418,83992.554,,8,of
screen,html.Screen,0_2_1_1_9,2021-11-25T15:48:02.582Z,,,,,,,,,,,,,,,,54,,,,,,,,,,,,,,441.9459999999963,,response,,,100,,,,,,Space,keypress(Space),,,,,-- --- ---- --- ------ ----- ------- ---- -- its ------- --<br>------- ---------- ------ -- ----- -- ----- -- ---- ------<br>--- ----- --- --- ------ -------- ----- --- ------ ----- --<br>----- ----- ---------- --- --- ------ ------ ---- -- ------<br>------- --- ------ ----- --- ---- ------- -- ---- --- --<br>------- ------,84435.19999998808,84434.5,83975.884,83987.5,83992.554,84442.714,,9,its
screen,html.Screen,0_2_1_1_10,2021-11-25T15:48:02.950Z,,,,,,,,,,,,,,,,54,,,,,,,,,,,,,,359.6859999761509,,response,,,100,,,,,,Space,keypress(Space),,,,,-- --- ---- --- ------ ----- ------- ---- -- --- revenue --<br>------- ---------- ------ -- ----- -- ----- -- ---- ------<br>--- ----- --- --- ------ -------- ----- --- ------ ----- --<br>----- ----- ---------- --- --- ------ ------ ---- -- ------<br>------- --- ------ ----- --- ---- ------- -- ---- --- --<br>------- ------,84803.19999998808,84802.39999997616,84426.043,84435.5,84442.714,84809.447,,10,revenue
screen,html.Screen,0_2_1_1_11,2021-11-25T15:48:03.398Z,,,,,,,,,,,,,,,,54,,,,,,,,,,,,,,440.952999976158,,response,,,100,,,,,,Space,keypress(Space),,,,,-- --- ---- --- ------ ----- ------- ---- -- --- ------- by<br>------- ---------- ------ -- ----- -- ----- -- ---- ------<br>--- ----- --- --- ------ -------- ----- --- ------ ----- --<br>----- ----- ---------- --- --- ------ ------ ---- -- ------<br>------- --- ------ ----- --- ---- ------- -- ---- --- --<br>------- ------,85251.19999998808,85250.39999997616,84792.777,84803.39999997616,84809.447,85259.446,,11,by
screen,html.Screen,0_2_1_1_12,2021-11-25T15:48:03.806Z,,,,,,,,,,,,,,,,54,,,,,,,,,,,,,,398.95399997616187,,response,,,100,,,,,,Space,keypress(Space),,,,,-- --- ---- --- ------ ----- ------- ---- -- --- ------- --<br>issuing ---------- ------ -- ----- -- ----- -- ---- ------<br>--- ----- --- --- ------ -------- ----- --- ------ ----- --<br>----- ----- ---------- --- --- ------ ------ ---- -- ------<br>------- --- ------ ----- --- ---- ------- -- ---- --- --<br>------- ------,85659.19999998808,85658.39999997616,85242.777,85251.39999997616,85259.446,85676.47,,12,issuing
screen,html.Screen,0_2_1_1_13,2021-11-25T15:48:04.126Z,,,,,,,,,,,,,,,,54,,,,,,,,,,,,,,301.82999998211744,,response,,,100,,,,,,Space,keypress(Space),,,,,-- --- ---- --- ------ ----- ------- ---- -- --- ------- --<br>------- government ------ -- ----- -- ----- -- ---- ------<br>--- ----- --- --- ------ -------- ----- --- ------ ----- --<br>----- ----- ---------- --- --- ------ ------ ---- -- ------<br>------- --- ------ ----- --- ---- ------- -- ---- --- --<br>------- ------,85979.09999999404,85978.29999998212,85659.797,85659.39999997616,85676.47,85993.062,,13,government
screen,html.Screen,0_2_1_1_14,2021-11-25T15:48:04.494Z,,,,,,,,,,,,,,,,54,,,,,,,,,,,,,,353.23799998211325,,response,,,100,,,,,,Space,keypress(Space),,,,,-- --- ---- --- ------ ----- ------- ---- -- --- ------- --<br>------- ---------- bonds. -- ----- -- ----- -- ---- ------<br>--- ----- --- --- ------ -------- ----- --- ------ ----- --<br>----- ----- ---------- --- --- ------ ------ ---- -- ------<br>------- --- ------ ----- --- ---- ------- -- ---- --- --<br>------- ------,86347.09999999404,86346.29999998212,85976.392,85979.39999997616,85993.062,86359.748,,14,bonds.
screen,html.Screen,0_2_1_1_15,2021-11-25T15:48:05.006Z,,,,,,,,,,,,,,,,54,,,,,,,,,,,,,,498.55199998211174,,response,,,100,,,,,,Space,keypress(Space),,,,,-- --- ---- --- ------ ----- ------- ---- -- --- ------- --<br>------- ---------- ------ In ----- -- ----- -- ---- ------<br>--- ----- --- --- ------ -------- ----- --- ------ ----- --<br>----- ----- ---------- --- --- ------ ------ ---- -- ------<br>------- --- ------ ----- --- ---- ------- -- ---- --- --<br>------- ------,86859.09999999404,86858.29999998212,86343.079,86347.39999997616,86359.748,86860.062,,15,In
screen,html.Screen,0_2_1_1_16,2021-11-25T15:48:05.374Z,,,,,,,,,,,,,,,,54,,,,,,,,,,,,,,366.1379999880737,,response,,,100,,,,,,Space,keypress(Space),,,,,"-- --- ---- --- ------ ----- ------- ---- -- --- ------- --<br>------- ---------- ------ -- 1727, -- ----- -- ---- ------<br>--- ----- --- --- ------ -------- ----- --- ------ ----- --<br>----- ----- ---------- --- --- ------ ------ ---- -- ------<br>------- --- ------ ----- --- ---- ------- -- ---- --- --<br>------- ------",87227,87226.19999998808,86843.39,86859.29999998212,86860.062,87243.395,,16,"1727,"
screen,html.Screen,0_2_1_1_17,2021-11-25T15:48:06.374Z,,,,,,,,,,,,,,,,54,,,,,,,,,,,,,,982.9049999821145,,response,,,100,,,,,,Space,keypress(Space),,,,,-- --- ---- --- ------ ----- ------- ---- -- --- ------- --<br>------- ---------- ------ -- ----- in ----- -- ---- ------<br>--- ----- --- --- ------ -------- ----- --- ------ ----- --<br>----- ----- ---------- --- --- ------ ------ ---- -- ------<br>------- --- ------ ----- --- ---- ------- -- ---- --- --<br>------- ------,88227.19999998808,88226.29999998212,87226.725,87227.29999998212,87243.395,88243.692,,17,in
screen,html.Screen,0_2_1_1_18,2021-11-25T15:48:06.822Z,,,,,,,,,,,,,,,,54,,,,,,,,,,,,,,430.5079999880836,,response,,,100,,,,,,Space,keypress(Space),,,,,-- --- ---- --- ------ ----- ------- ---- -- --- ------- --<br>------- ---------- ------ -- ----- -- order -- ---- ------<br>--- ----- --- --- ------ -------- ----- --- ------ ----- --<br>----- ----- ---------- --- --- ------ ------ ---- -- ------<br>------- --- ------ ----- --- ---- ------- -- ---- --- --<br>------- ------,88675,88674.19999998808,88227.021,88227.5,88243.692,88676.933,,18,order
screen,html.Screen,0_2_1_1_19,2021-11-25T15:48:07.190Z,,,,,,,,,,,,,,,,54,,,,,,,,,,,,,,365.166999994035,,response,,,100,,,,,,Space,keypress(Space),,,,,-- --- ---- --- ------ ----- ------- ---- -- --- ------- --<br>------- ---------- ------ -- ----- -- ----- to ---- ------<br>--- ----- --- --- ------ -------- ----- --- ------ ----- --<br>----- ----- ---------- --- --- ------ ------ ---- -- ------<br>------- --- ------ ----- --- ---- ------- -- ---- --- --<br>------- ------,89042.89999997616,89042.09999999404,88660.264,88675.19999998808,88676.933,89043.901,,19,to
screen,html.Screen,0_2_1_1_20,2021-11-25T15:48:07.630Z,,,,,,,,,,,,,,,,54,,,,,,,,,,,,,,438.29899998808105,,response,,,100,,,,,,Space,keypress(Space),,,,,-- --- ---- --- ------ ----- ------- ---- -- --- ------- --<br>------- ---------- ------ -- ----- -- ----- -- save ------<br>--- ----- --- --- ------ -------- ----- --- ------ ----- --<br>----- ----- ---------- --- --- ------ ------ ---- -- ------<br>------- --- ------ ----- --- ---- ------- -- ---- --- --<br>------- ------,89482.89999997616,89482.19999998808,89027.23,89043.19999998808,89043.901,89493.974,,20,save
screen,html.Screen,0_2_1_1_21,2021-11-25T15:48:08.022Z,,,,,,,,,,,,,,,,54,,,,,,,,,,,,,,380.2259999880771,,response,,,100,,,,,,Space,keypress(Space),,,,,"-- --- ---- --- ------ ----- ------- ---- -- --- ------- --<br>------- ---------- ------ -- ----- -- ----- -- ---- money,<br>--- ----- --- --- ------ -------- ----- --- ------ ----- --<br>----- ----- ---------- --- --- ------ ------ ---- -- ------<br>------- --- ------ ----- --- ---- ------- -- ---- --- --<br>------- ------",89875,89874.19999998808,89477.304,89483.09999999404,89493.974,89877.397,,21,"money,"
screen,html.Screen,0_2_1_1_22,2021-11-25T15:48:08.494Z,,,,,,,,,,,,,,,,54,,,,,,,,,,,,,,469.1030000000028,,response,,,100,,,,,,Space,keypress(Space),,,,,-- --- ---- --- ------ ----- ------- ---- -- --- ------- --<br>------- ---------- ------ -- ----- -- ----- -- ---- ------<br>the ----- --- --- ------ -------- ----- --- ------ ----- --<br>----- ----- ---------- --- --- ------ ------ ---- -- ------<br>------- --- ------ ----- --- ---- ------- -- ---- --- --<br>------- ------,90347.29999998212,90346.5,89860.727,89875.19999998808,89877.397,90360.86,,22,the
screen,html.Screen,0_2_1_1_23,2021-11-25T15:48:08.878Z,,,,,,,,,,,,,,,,54,,,,,,,,,,,,,,369.23999999403895,,response,,,100,,,,,,Space,keypress(Space),,,,,-- --- ---- --- ------ ----- ------- ---- -- --- ------- --<br>------- ---------- ------ -- ----- -- ----- -- ---- ------<br>--- state --- --- ------ -------- ----- --- ------ ----- --<br>----- ----- ---------- --- --- ------ ------ ---- -- ------<br>------- --- ------ ----- --- ---- ------- -- ---- --- --<br>------- ------,90730.89999997616,90730.09999999404,90344.19,90347.59999999404,90360.86,90744.184,,23,state
screen,html.Screen,0_2_1_1_24,2021-11-25T15:48:09.270Z,,,,,,,,,,,,,,,,54,,,,,,,,,,,,,,377.9159999940457,,response,,,100,,,,,,Space,keypress(Space),,,,,-- --- ---- --- ------ ----- ------- ---- -- --- ------- --<br>------- ---------- ------ -- ----- -- ----- -- ---- ------<br>--- ----- cut --- ------ -------- ----- --- ------ ----- --<br>----- ----- ---------- --- --- ------ ------ ---- -- ------<br>------- --- ------ ----- --- ---- ------- -- ---- --- --<br>------- ------,91122.89999997616,91122.09999999404,90727.515,90731.09999999404,90744.184,91127.819,,24,cut
screen,html.Screen,0_2_1_1_25,2021-11-25T15:48:09.734Z,,,,,,,,,,,,,,,,54,,,,,,,,,,,,,,458.18099999999686,,response,,,100,,,,,,Space,keypress(Space),,,,,-- --- ---- --- ------ ----- ------- ---- -- --- ------- --<br>------- ---------- ------ -- ----- -- ----- -- ---- ------<br>--- ----- --- the ------ -------- ----- --- ------ ----- --<br>----- ----- ---------- --- --- ------ ------ ---- -- ------<br>------- --- ------ ----- --- ---- ------- -- ---- --- --<br>------- ------,91586.79999998212,91586,91111.147,91123.19999998808,91127.819,91594.492,,25,the
screen,html.Screen,0_2_1_1_26,2021-11-25T15:48:10.118Z,,,,,,,,,,,,,,,,54,,,,,,,,,,,,,,375.50800000000163,,response,,,100,,,,,,Space,keypress(Space),,,,,-- --- ---- --- ------ ----- ------- ---- -- --- ------- --<br>------- ---------- ------ -- ----- -- ----- -- ---- ------<br>--- ----- --- --- bonds' -------- ----- --- ------ ----- --<br>----- ----- ---------- --- --- ------ ------ ---- -- ------<br>------- --- ------ ----- --- ---- ------- -- ---- --- --<br>------- ------,91970.79999998212,91970,91577.822,91587.09999999404,91594.492,91977.926,,26,bonds'
screen,html.Screen,0_2_1_1_27,2021-11-25T15:48:10.542Z,,,,,,,,,,,,,,,,54,,,,,,,,,,,,,,416.07399999999325,,response,,,100,,,,,,Space,keypress(Space),,,,,-- --- ---- --- ------ ----- ------- ---- -- --- ------- --<br>------- ---------- ------ -- ----- -- ----- -- ---- ------<br>--- ----- --- --- ------ interest ----- --- ------ ----- --<br>----- ----- ---------- --- --- ------ ------ ---- -- ------<br>------- --- ------ ----- --- ---- ------- -- ---- --- --<br>------- ------,92394.79999998212,92394,91961.256,91971,91977.926,92411.306,,27,interest
screen,html.Screen,0_2_1_1_28,2021-11-25T15:48:10.894Z,,,,,,,,,,,,,,,,54,,,,,,,,,,,,,,334.5939999761613,,response,,,100,,,,,,Space,keypress(Space),,,,,-- --- ---- --- ------ ----- ------- ---- -- --- ------- --<br>------- ---------- ------ -- ----- -- ----- -- ---- ------<br>--- ----- --- --- ------ -------- rate. --- ------ ----- --<br>----- ----- ---------- --- --- ------ ------ ---- -- ------<br>------- --- ------ ----- --- ---- ------- -- ---- --- --<br>------- ------,92746.79999998212,92745.89999997616,92394.637,92395.09999999404,92411.306,92761.584,,28,rate.
screen,html.Screen,0_2_1_1_29,2021-11-25T15:48:11.333Z,,,,,,,,,,,,,,,,54,,,,,,,,,,,,,,424.3159999761556,,response,,,100,,,,,,Space,keypress(Space),,,,,-- --- ---- --- ------ ----- ------- ---- -- --- ------- --<br>------- ---------- ------ -- ----- -- ----- -- ---- ------<br>--- ----- --- --- ------ -------- ----- The ------ ----- --<br>----- ----- ---------- --- --- ------ ------ ---- -- ------<br>------- --- ------ ----- --- ---- ------- -- ---- --- --<br>------- ------,93186.69999998808,93185.89999997616,92744.912,92747,92761.584,93194.83,,29,The
screen,html.Screen,0_2_1_1_30,2021-11-25T15:48:11.758Z,,,,,,,,,,,,,,,,54,,,,,,,,,,,,,,415.0699999761564,,response,,,100,,,,,,Space,keypress(Space),,,,,-- --- ---- --- ------ ----- ------- ---- -- --- ------- --<br>------- ---------- ------ -- ----- -- ----- -- ---- ------<br>--- ----- --- --- ------ -------- ----- --- market ----- --<br>----- ----- ---------- --- --- ------ ------ ---- -- ------<br>------- --- ------ ----- --- ---- ------- -- ---- --- --<br>------- ------,93610.79999998212,93609.89999997616,93178.161,93187,93194.83,93611.799,,30,market
screen,html.Screen,0_2_1_1_31,2021-11-25T15:48:12.102Z,,,,,,,,,,,,,,,,54,,,,,,,,,,,,,,342.1009999761591,,response,,,100,,,,,,Space,keypress(Space),,,,,-- --- ---- --- ------ ----- ------- ---- -- --- ------- --<br>------- ---------- ------ -- ----- -- ----- -- ---- ------<br>--- ----- --- --- ------ -------- ----- --- ------ value --<br>----- ----- ---------- --- --- ------ ------ ---- -- ------<br>------- --- ------ ----- --- ---- ------- -- ---- --- --<br>------- ------,93954.69999998808,93953.89999997616,93595.127,93611,93611.799,93961.788,,31,value
screen,html.Screen,0_2_1_1_32,2021-11-25T15:48:12.485Z,,,,,,,,,,,,,,,,54,,,,,,,,,,,,,,376.1119999761577,,response,,,100,,,,,,Space,keypress(Space),,,,,-- --- ---- --- ------ ----- ------- ---- -- --- ------- --<br>------- ---------- ------ -- ----- -- ----- -- ---- ------<br>--- ----- --- --- ------ -------- ----- --- ------ ----- of<br>----- ----- ---------- --- --- ------ ------ ---- -- ------<br>------- --- ------ ----- --- ---- ------- -- ---- --- --<br>------- ------,94338.69999998808,94337.89999997616,93945.118,93954.89999997616,93961.788,94345.199,,32,of
screen,html.Screen,0_2_1_1_33,2021-11-25T15:48:12.837Z,,,,,,,,,,,,,,,,54,,,,,,,,,,,,,,344.7009999761649,,response,,,100,,,,,,Space,keypress(Space),,,,,-- --- ---- --- ------ ----- ------- ---- -- --- ------- --<br>------- ---------- ------ -- ----- -- ----- -- ---- ------<br>--- ----- --- --- ------ -------- ----- --- ------ ----- --<br>these ----- ---------- --- --- ------ ------ ---- -- ------<br>------- --- ------ ----- --- ---- ------- -- ---- --- --<br>------- ------,94690.59999999404,94689.89999997616,94328.529,94338.89999997616,94345.199,94695.229,,33,these
screen,html.Screen,0_2_1_1_34,2021-11-25T15:48:13.221Z,,,,,,,,,,,,,,,,54,,,,,,,,,,,,,,378.57099998211197,,response,,,100,,,,,,Space,keypress(Space),,,,,-- --- ---- --- ------ ----- ------- ---- -- --- ------- --<br>------- ---------- ------ -- ----- -- ----- -- ---- ------<br>--- ----- --- --- ------ -------- ----- --- ------ ----- --<br>----- bonds ---------- --- --- ------ ------ ---- -- ------<br>------- --- ------ ----- --- ---- ------- -- ---- --- --<br>------- ------,95074.59999999404,95073.79999998212,94678.56,94691,94695.229,95078.836,,34,bonds
screen,html.Screen,0_2_1_1_35,2021-11-25T15:48:13.533Z,,,,,,,,,,,,,,,,54,,,,,,,,,,,,,,306.9639999821229,,response,,,100,,,,,,Space,keypress(Space),,,,,"-- --- ---- --- ------ ----- ------- ---- -- --- ------- --<br>------- ---------- ------ -- ----- -- ----- -- ---- ------<br>--- ----- --- --- ------ -------- ----- --- ------ ----- --<br>----- ----- plummeted, --- --- ------ ------ ---- -- ------<br>------- --- ------ ----- --- ---- ------- -- ---- --- --<br>------- ------",95386.5,95385.79999998212,95062.164,95074.89999997616,95078.836,95395.535,,35,"plummeted,"
screen,html.Screen,0_2_1_1_36,2021-11-25T15:48:13.941Z,,,,,,,,,,,,,,,,54,,,,,,,,,,,,,,398.2649999821151,,response,,,100,,,,,,Space,keypress(Space),,,,,-- --- ---- --- ------ ----- ------- ---- -- --- ------- --<br>------- ---------- ------ -- ----- -- ----- -- ---- ------<br>--- ----- --- --- ------ -------- ----- --- ------ ----- --<br>----- ----- ---------- and --- ------ ------ ---- -- ------<br>------- --- ------ ----- --- ---- ------- -- ---- --- --<br>------- ------,95794.5,95793.79999998212,95378.864,95386.79999998212,95395.535,95795.539,,36,and
screen,html.Screen,0_2_1_1_37,2021-11-25T15:48:14.301Z,,,,,,,,,,,,,,,,54,,,,,,,,,,,,,,358.2609999821143,,response,,,100,,,,,,Space,keypress(Space),,,,,-- --- ---- --- ------ ----- ------- ---- -- --- ------- --<br>------- ---------- ------ -- ----- -- ----- -- ---- ------<br>--- ----- --- --- ------ -------- ----- --- ------ ----- --<br>----- ----- ---------- --- the ------ ------ ---- -- ------<br>------- --- ------ ----- --- ---- ------- -- ---- --- --<br>------- ------,96154.59999999404,96153.79999998212,95778.87,95794.79999998212,95795.539,96162.382,,37,the
screen,html.Screen,0_2_1_1_38,2021-11-25T15:48:14.637Z,,,,,,,,,,,,,,,,54,,,,,,,,,,,,,,327.3179999880813,,response,,,100,,,,,,Space,keypress(Space),,,,,-- --- ---- --- ------ ----- ------- ---- -- --- ------- --<br>------- ---------- ------ -- ----- -- ----- -- ---- ------<br>--- ----- --- --- ------ -------- ----- --- ------ ----- --<br>----- ----- ---------- --- --- market ------ ---- -- ------<br>------- --- ------ ----- --- ---- ------- -- ---- --- --<br>------- ------,96490.5,96489.69999998808,96145.711,96154.79999998212,96162.382,96495.811,,38,market
screen,html.Screen,0_2_1_1_39,2021-11-25T15:48:15.037Z,,,,,,,,,,,,,,,,54,,,,,,,,,,,,,,393.88899998807756,,response,,,100,,,,,,Space,keypress(Space),,,,,-- --- ---- --- ------ ----- ------- ---- -- --- ------- --<br>------- ---------- ------ -- ----- -- ----- -- ---- ------<br>--- ----- --- --- ------ -------- ----- --- ------ ----- --<br>----- ----- ---------- --- --- ------ became ---- -- ------<br>------- --- ------ ----- --- ---- ------- -- ---- --- --<br>------- ------,96890.5,96889.69999998808,96479.14,96490.79999998212,96495.811,96895.873,,39,became
screen,html.Screen,0_2_1_1_40,2021-11-25T15:48:15.421Z,,,,,,,,,,,,,,,,54,,,,,,,,,,,,,,377.72699999403267,,response,,,100,,,,,,Space,keypress(Space),,,,,-- --- ---- --- ------ ----- ------- ---- -- --- ------- --<br>------- ---------- ------ -- ----- -- ----- -- ---- ------<br>--- ----- --- --- ------ -------- ----- --- ------ ----- --<br>----- ----- ---------- --- --- ------ ------ wary -- ------<br>------- --- ------ ----- --- ---- ------- -- ---- --- --<br>------- ------,97274.39999997616,97273.59999999404,96879.203,96890.69999998808,96895.873,97279.299,,40,wary
screen,html.Screen,0_2_1_1_41,2021-11-25T15:48:15.797Z,,,,,,,,,,,,,,,,54,,,,,,,,,,,,,,370.40099998808,,response,,,100,,,,,,Space,keypress(Space),,,,,-- --- ---- --- ------ ----- ------- ---- -- --- ------- --<br>------- ---------- ------ -- ----- -- ----- -- ---- ------<br>--- ----- --- --- ------ -------- ----- --- ------ ----- --<br>----- ----- ---------- --- --- ------ ------ ---- of ------<br>------- --- ------ ----- --- ---- ------- -- ---- --- --<br>------- ------,97650.5,97649.69999998808,97262.629,97274.59999999404,97279.299,97662.771,,41,of
screen,html.Screen,0_2_1_1_42,2021-11-25T15:48:16.149Z,,,,,,,,,,,,,,,,54,,,,,,,,,,,,,,338.82899999404617,,response,,,100,,,,,,Space,keypress(Space),,,,,-- --- ---- --- ------ ----- ------- ---- -- --- ------- --<br>------- ---------- ------ -- ----- -- ----- -- ---- ------<br>--- ----- --- --- ------ -------- ----- --- ------ ----- --<br>----- ----- ---------- --- --- ------ ------ ---- -- French<br>------- --- ------ ----- --- ---- ------- -- ---- --- --<br>------- ------,98002.39999997616,98001.59999999404,97646.1,97650.69999998808,97662.771,98012.834,,42,French
screen,html.Screen,0_2_1_1_43,2021-11-25T15:48:16.501Z,,,,,,,,,,,,,,,,54,,,,,,,,,,,,,,340.8659999880765,,response,,,100,,,,,,Space,keypress(Space),,,,,-- --- ---- --- ------ ----- ------- ---- -- --- ------- --<br>------- ---------- ------ -- ----- -- ----- -- ---- ------<br>--- ----- --- --- ------ -------- ----- --- ------ ----- --<br>----- ----- ---------- --- --- ------ ------ ---- -- ------<br>credit. --- ------ ----- --- ---- ------- -- ---- --- --<br>------- ------,98354.5,98353.69999998808,97996.164,98002.69999998808,98012.834,98362.924,,43,credit.
screen,html.Screen,0_2_1_1_44,2021-11-25T15:48:16.933Z,,,,,,,,,,,,,,,,54,,,,,,,,,,,,,,422.77599998808,,response,,,100,,,,,,Space,keypress(Space),,,,,-- --- ---- --- ------ ----- ------- ---- -- --- ------- --<br>------- ---------- ------ -- ----- -- ----- -- ---- ------<br>--- ----- --- --- ------ -------- ----- --- ------ ----- --<br>----- ----- ---------- --- --- ------ ------ ---- -- ------<br>------- The ------ ----- --- ---- ------- -- ---- --- --<br>------- ------,98786.39999997616,98785.69999998808,98346.254,98354.59999999404,98362.924,98796.366,,44,The
screen,html.Screen,0_2_1_1_45,2021-11-25T15:48:17.293Z,,,,,,,,,,,,,,,,54,,,,,,,,,,,,,,349.233999994045,,response,,,100,,,,,,Space,keypress(Space),,,,,-- --- ---- --- ------ ----- ------- ---- -- --- ------- --<br>------- ---------- ------ -- ----- -- ----- -- ---- ------<br>--- ----- --- --- ------ -------- ----- --- ------ ----- --<br>----- ----- ---------- --- --- ------ ------ ---- -- ------<br>------- --- French ----- --- ---- ------- -- ---- --- --<br>------- ------,99146.39999997616,99145.59999999404,98779.696,98786.69999998808,98796.366,99163.164,,45,French
screen,html.Screen,0_2_1_1_46,2021-11-25T15:48:17.621Z,,,,,,,,,,,,,,,,54,,,,,,,,,,,,,,310.53599998807476,,response,,,100,,,,,,Space,keypress(Space),,,,,-- --- ---- --- ------ ----- ------- ---- -- --- ------- --<br>------- ---------- ------ -- ----- -- ----- -- ---- ------<br>--- ----- --- --- ------ -------- ----- --- ------ ----- --<br>----- ----- ---------- --- --- ------ ------ ---- -- ------<br>------- --- ------ state --- ---- ------- -- ---- --- --<br>------- ------,99474.39999997616,99473.69999998808,99146.493,99146.69999998808,99163.164,99479.798,,46,state
screen,html.Screen,0_2_1_1_47,2021-11-25T15:48:17.981Z,,,,,,,,,,,,,,,,54,,,,,,,,,,,,,,353.8019999940443,,response,,,100,,,,,,Space,keypress(Space),,,,,-- --- ---- --- ------ ----- ------- ---- -- --- ------- --<br>------- ---------- ------ -- ----- -- ----- -- ---- ------<br>--- ----- --- --- ------ -------- ----- --- ------ ----- --<br>----- ----- ---------- --- --- ------ ------ ---- -- ------<br>------- --- ------ ----- was ---- ------- -- ---- --- --<br>------- ------,99834.29999998212,99833.59999999404,99463.129,99474.69999998808,99479.798,99846.724,,47,was
screen,html.Screen,0_2_1_1_48,2021-11-25T15:48:18.341Z,,,,,,,,,,,,,,,,54,,,,,,,,,,,,,,346.87599999403756,,response,,,100,,,,,,Space,keypress(Space),,,,,-- --- ---- --- ------ ----- ------- ---- -- --- ------- --<br>------- ---------- ------ -- ----- -- ----- -- ---- ------<br>--- ----- --- --- ------ -------- ----- --- ------ ----- --<br>----- ----- ---------- --- --- ------ ------ ---- -- ------<br>------- --- ------ ----- --- left ------- -- ---- --- --<br>------- ------,100194.29999998212,100193.59999999404,99830.052,99834.59999999404,99846.724,100196.601,,48,left
screen,html.Screen,0_2_1_1_49,2021-11-25T15:48:18.678Z,,,,,,,,,,,,,,,,54,,,,,,,,,,,,,,333.29899997616303,,response,,,100,,,,,,Space,keypress(Space),,,,,-- --- ---- --- ------ ----- ------- ---- -- --- ------- --<br>------- ---------- ------ -- ----- -- ----- -- ---- ------<br>--- ----- --- --- ------ -------- ----- --- ------ ----- --<br>----- ----- ---------- --- --- ------ ------ ---- -- ------<br>------- --- ------ ----- --- ---- without -- ---- --- --<br>------- ------,100530.79999998212,100529.89999997616,100179.933,100194.59999999404,100196.601,100546.872,,49,without
screen,html.Screen,0_2_1_1_50,2021-11-25T15:48:19.029Z,,,,,,,,,,,,,,,,54,,,,,,,,,,,,,,334.627999999997,,response,,,100,,,,,,Space,keypress(Space),,,,,-- --- ---- --- ------ ----- ------- ---- -- --- ------- --<br>------- ---------- ------ -- ----- -- ----- -- ---- ------<br>--- ----- --- --- ------ -------- ----- --- ------ ----- --<br>----- ----- ---------- --- --- ------ ------ ---- -- ------<br>------- --- ------ ----- --- ---- ------- an ---- --- --<br>------- ------,100882.29999998212,100881.5,100530.2,100531,100546.872,100896.955,,50,an
screen,html.Screen,0_2_1_1_51,2021-11-25T15:48:19.389Z,,,,,,,,,,,,,,,,54,,,,,,,,,,,,,,344.54499999999825,,response,,,100,,,,,,Space,keypress(Space),,,,,-- --- ---- --- ------ ----- ------- ---- -- --- ------- --<br>------- ---------- ------ -- ----- -- ----- -- ---- ------<br>--- ----- --- --- ------ -------- ----- --- ------ ----- --<br>----- ----- ---------- --- --- ------ ------ ---- -- ------<br>------- --- ------ ----- --- ---- ------- -- easy --- --<br>------- ------,101242.29999998212,101241.5,100880.284,100882.5,100896.955,101246.872,,51,easy
screen,html.Screen,0_2_1_1_52,2021-11-25T15:48:19.733Z,,,,,,,,,,,,,,,,54,,,,,,,,,,,,,,338.5279999761551,,response,,,100,,,,,,Space,keypress(Space),,,,,-- --- ---- --- ------ ----- ------- ---- -- --- ------- --<br>------- ---------- ------ -- ----- -- ----- -- ---- ------<br>--- ----- --- --- ------ -------- ----- --- ------ ----- --<br>----- ----- ---------- --- --- ------ ------ ---- -- ------<br>------- --- ------ ----- --- ---- ------- -- ---- way --<br>------- ------,101586.09999999404,101585.39999997616,101230.204,101242.59999999404,101246.872,101597.178,,52,way
screen,html.Screen,0_2_1_1_53,2021-11-25T15:48:20.037Z,,,,,,,,,,,,,,,,54,,,,,,,,,,,,,,292.3220000000001,,response,,,100,,,,,,Space,keypress(Space),,,,,-- --- ---- --- ------ ----- ------- ---- -- --- ------- --<br>------- ---------- ------ -- ----- -- ----- -- ---- ------<br>--- ----- --- --- ------ -------- ----- --- ------ ----- --<br>----- ----- ---------- --- --- ------ ------ ---- -- ------<br>------- --- ------ ----- --- ---- ------- -- ---- --- of<br>------- ------,101890.19999998808,101889.5,101580.506,101586.39999997616,101597.178,101897.162,,53,of
screen,html.Screen,0_2_1_1_54,2021-11-25T15:48:20.453Z,,,,,,,,,,,,,,,,54,,,,,,,,,,,,,,408.3380000000034,,response,,,100,,,,,,Space,keypress(Space),,,,,-- --- ---- --- ------ ----- ------- ---- -- --- ------- --<br>------- ---------- ------ -- ----- -- ----- -- ---- ------<br>--- ----- --- --- ------ -------- ----- --- ------ ----- --<br>----- ----- ---------- --- --- ------ ------ ---- -- ------<br>------- --- ------ ----- --- ---- ------- -- ---- --- --<br>raising ------,102306.19999998808,102305.5,101880.492,101890.59999999404,101897.162,102313.983,,54,raising
screen,html.Screen,0_2_1_1_55,2021-11-25T15:48:20.789Z,,,,,,,,,,,,,,,,54,,,,,,,,,,,,,,327.5170000000071,,response,,,100,,,,,,Space,keypress(Space),,,,,-- --- ---- --- ------ ----- ------- ---- -- --- ------- --<br>------- ---------- ------ -- ----- -- ----- -- ---- ------<br>--- ----- --- --- ------ -------- ----- --- ------ ----- --<br>----- ----- ---------- --- --- ------ ------ ---- -- ------<br>------- --- ------ ----- --- ---- ------- -- ---- --- --<br>------- money.,102642.39999997616,102641.5,102297.312,102306.5,102313.983,102647.36,,55,money.
Item 100,flow.Loop,0_2_1_1,2021-11-25T15:48:20.790Z,,,,,,,,,,,,,,,,,,,,,,,,,,,,,,23133.528000000006,,completion,,,,F,,,,,,,,,,silence,,102642.89999997616,102641.5,79491.302,79493.09999999404,79507.972,102647.36,,,
Question 1,html.Screen,0_2_1_2,2021-11-25T15:48:23.485Z,,,,,,,,,,,,,,,,,,,,,,,,,,,true,TRUE,,2689.739999994039,,response,,,100,F,,,,,TRUE,click #choice-1,,,,silence,,105338.19999998808,105337.09999999404,102630.69,102643,102647.36,105348.041,,,
Question 2,html.Screen,0_2_1_3,2021-11-25T15:48:25.061Z,,,,,,,,,,,,,,,,,,,,,,,,,,,true,FALSE,,1565.058999994042,,response,,,100,F,,,,,FALSE,click #choice-2,,,,silence,,106914.19999998808,106913.09999999404,105331.371,105338.5,105348.041,106931.764,,,
Item 100,flow.Sequence,0_2_1,2021-11-25T15:48:25.061Z,,,,,,,,,,,,,,,,,,,,,,,,,,,,,,37407.59299999404,,completion,,,,,,,,,,,,,,,,106914.5,106913.09999999404,69488.837,69501,69505.507,106931.764,,,
End of Practice,html.Page,0_2_2,2021-11-25T15:48:29.110Z,,,,,,,,,,,,,,,,,,,,,,,,,,,,,,4030.335999994044,,form submission,,,,,,,,,,,,,,,,110962.79999998212,110962.09999999404,106915.095,106914.79999998212,106931.764,110966.324,,,
Practice,flow.Sequence,0_2,2021-11-25T15:48:29.110Z,,,,,,,,,,,,,,,,,,,,,,,,,,,,,,85452.94499999404,,completion,,,,,,,,,,,,,,,,110963.19999998808,110962.09999999404,25492.526,25498,25509.155,110966.324,,,
Trap_instruction,html.Page,0_3_0,2021-11-25T15:48:32.605Z,,,,,,,,,,,,,,,,,,,,,,,,,,,,,,3491.6760000000068,,form submission,,,,,,,,,,,,,,,,114458.59999999404,114458,110949.65,110963.59999999404,110966.324,114499.727,,,
trap_trial,html.Screen,0_3_1,2021-11-25T15:48:35.580Z,,,,,,,,,,,,,,,,,,,,,,,,,,,true,1,,2932.672999976159,,response,,,,,,,,,1,click #choice-1,,,,,,117433.69999998808,117432.39999997616,114449.726,114458.89999997616,114499.727,117434.698,,,
end of trap trial,html.Page,0_3_2,2021-11-25T15:48:37.653Z,,,,,,,,,,,,,,,,,,,,,,,,,,,,,,2071.1019999821146,,form submission,,,,,,,,,,,,,,,,119506.29999998212,119505.79999998212,117418.026,117434,117434.698,119518.317,,,
Trap 1,flow.Sequence,0_3,2021-11-25T15:48:37.653Z,,,,,,,,,,,,,,,,,,,,,,,,,,,,,,8539.475999982125,,completion,,,,,,,,,,,,,,,,119506.59999999404,119505.79999998212,110949.65,110963.5,110966.324,119518.317,,,
Standby,html.Page,0_4_0,2021-11-25T15:48:45.655Z,,,,,,,,,,,,,,,,,,,,,,,,,,,,,,8002.147000000012,,timeout,,,,,,,,,,,,,,,,127504.69999998808,127503.793,119501.647,119506.89999997616,119518.317,127520.464,,,
Holding screen,html.Screen,0_4_1_0_0,2021-11-25T15:48:52.657Z,,,,,,,,,,,,,,,,,,,,,,,,,,,,,,7001.810999999987,,timeout,,,,,,,,,,,,,,,,134507.39999997616,134505.604,127503.793,127505.19999998808,127520.464,134522.275,,,
screen,html.Screen,0_4_1_0_1_0,2021-11-25T15:48:53.711Z,,,,,,,,,,,,,,,,11,,,,,,,,,,,,,,1037.8249999940454,,response,,,4,F,,,,,Space,keypress(Space),,,,instrumental,Known -- ---- --- -- --- -------- ------------ ---------- --<br>- ------- ------ --------- -- ------------ -- --- ---- -----<br>------ ---- ---- ------ ------ ------- --- ----- ---------<br>---- --- -------- -------- --- --- -- ------- --- --- -----<br>-- --- ------ ------- --- --- -------- ---- --------- --<br>---------- -- -------- ----------------,135561.09999999404,135560.09999999404,134505.604,134507.69999998808,134522.275,135572.441,,0,Known
screen,html.Screen,0_4_1_0_1_1,2021-11-25T15:48:54.118Z,,,,,,,,,,,,,,,,11,,,,,,,,,,,,,,395.0590000000084,,response,,,4,F,,,,,Space,keypress(Space),,,,instrumental,----- as ---- --- -- --- -------- ------------ ---------- --<br>- ------- ------ --------- -- ------------ -- --- ---- -----<br>------ ---- ---- ------ ------ ------- --- ----- ---------<br>---- --- -------- -------- --- --- -- ------- --- --- -----<br>-- --- ------ ------- --- --- -------- ---- --------- --<br>---------- -- -------- ----------------,135968.39999997616,135967.5,135555.771,135561.39999997616,135572.441,135972.536,,1,as
screen,html.Screen,0_4_1_0_1_2,2021-11-25T15:48:54.510Z,,,,,,,,,,,,,,,,11,,,,,,,,,,,,,,387.06399999404675,,response,,,4,F,,,,,Space,keypress(Space),,,,instrumental,----- -- Rapa --- -- --- -------- ------------ ---------- --<br>- ------- ------ --------- -- ------------ -- --- ---- -----<br>------ ---- ---- ------ ------ ------- --- ----- ---------<br>---- --- -------- -------- --- --- -- ------- --- --- -----<br>-- --- ------ ------- --- --- -------- ---- --------- --<br>---------- -- -------- ----------------,136360.29999998212,136359.59999999404,135955.866,135968.59999999404,135972.536,136372.739,,2,Rapa
screen,html.Screen,0_4_1_0_1_3,2021-11-25T15:48:54.990Z,,,,,,,,,,,,,,,,11,,,,,,,,,,,,,,466.86099999403814,,response,,,4,F,,,,,Space,keypress(Space),,,,instrumental,----- -- ---- Nui -- --- -------- ------------ ---------- --<br>- ------- ------ --------- -- ------------ -- --- ---- -----<br>------ ---- ---- ------ ------ ------- --- ----- ---------<br>---- --- -------- -------- --- --- -- ------- --- --- -----<br>-- --- ------ ------- --- --- -------- ---- --------- --<br>---------- -- -------- ----------------,136840.39999997616,136839.59999999404,136356.068,136360.59999999404,136372.739,136856.148,,3,Nui
screen,html.Screen,0_4_1_0_1_4,2021-11-25T15:48:55.438Z,,,,,,,,,,,,,,,,11,,,,,,,,,,,,,,431.25199997617165,,response,,,4,F,,,,,Space,keypress(Space),,,,instrumental,----- -- ---- --- to --- -------- ------------ ---------- --<br>- ------- ------ --------- -- ------------ -- --- ---- -----<br>------ ---- ---- ------ ------ ------- --- ----- ---------<br>---- --- -------- -------- --- --- -- ------- --- --- -----<br>-- --- ------ ------- --- --- -------- ---- --------- --<br>---------- -- -------- ----------------,137288.19999998808,137287.39999997616,136839.478,136840.69999998808,136856.148,137289.672,,4,to
screen,html.Screen,0_4_1_0_1_5,2021-11-25T15:48:55.806Z,,,,,,,,,,,,,,,,11,,,,,,,,,,,,,,365.92799999404815,,response,,,4,F,,,,,Space,keypress(Space),,,,instrumental,----- -- ---- --- -- the -------- ------------ ---------- --<br>- ------- ------ --------- -- ------------ -- --- ---- -----<br>------ ---- ---- ------ ------ ------- --- ----- ---------<br>---- --- -------- -------- --- --- -- ------- --- --- -----<br>-- --- ------ ------- --- --- -------- ---- --------- --<br>---------- -- -------- ----------------,137656.39999997616,137655.59999999404,137273.001,137288.5,137289.672,137673.027,,5,the
screen,html.Screen,0_4_1_0_1_6,2021-11-25T15:48:56.150Z,,,,,,,,,,,,,,,,11,,,,,,,,,,,,,,326.47299999999814,,response,,,4,F,,,,,Space,keypress(Space),,,,instrumental,----- -- ---- --- -- --- island's ------------ ---------- --<br>- ------- ------ --------- -- ------------ -- --- ---- -----<br>------ ---- ---- ------ ------ ------- --- ----- ---------<br>---- --- -------- -------- --- --- -- ------- --- --- -----<br>-- --- ------ ------- --- --- -------- ---- --------- --<br>---------- -- -------- ----------------,138000.19999998808,137999.5,137656.357,137656.69999998808,137673.027,138006.497,,6,island's
screen,html.Screen,0_4_1_0_1_7,2021-11-25T15:48:57.118Z,,,,,,,,,,,,,,,,11,,,,,,,,,,,,,,960.9029999761551,,response,,,4,F,,,,,Space,keypress(Space),,,,instrumental,"----- -- ---- --- -- --- -------- inhabitants, ---------- --<br>- ------- ------ --------- -- ------------ -- --- ---- -----<br>------ ---- ---- ------ ------ ------- --- ----- ---------<br>---- --- -------- -------- --- --- -- ------- --- --- -----<br>-- --- ------ ------- --- --- -------- ---- --------- --<br>---------- -- -------- ----------------",138968.29999998212,138967.39999997616,137989.826,138000.5,138006.497,138973.33,,7,"inhabitants,"
screen,html.Screen,0_4_1_0_1_8,2021-11-25T15:48:58.014Z,,,,,,,,,,,,,,,,11,,,,,,,,,,,,,,890.069999976171,,response,,,4,F,,,,,Space,keypress(Space),,,,instrumental,----- -- ---- --- -- --- -------- ------------ Rongorongo --<br>- ------- ------ --------- -- ------------ -- --- ---- -----<br>------ ---- ---- ------ ------ ------- --- ----- ---------<br>---- --- -------- -------- --- --- -- ------- --- --- -----<br>-- --- ------ ------- --- --- -------- ---- --------- --<br>---------- -- -------- ----------------,139864.29999998212,139863.39999997616,138956.66,138968.5,138973.33,139873.573,,8,Rongorongo
screen,html.Screen,0_4_1_0_1_9,2021-11-25T15:48:58.446Z,,,,,,,,,,,,,,,,11,,,,,,,,,,,,,,421.8269999761542,,response,,,4,F,,,,,Space,keypress(Space),,,,instrumental,----- -- ---- --- -- --- -------- ------------ ---------- is<br>- ------- ------ --------- -- ------------ -- --- ---- -----<br>------ ---- ---- ------ ------ ------- --- ----- ---------<br>---- --- -------- -------- --- --- -- ------- --- --- -----<br>-- --- ------ ------- --- --- -------- ---- --------- --<br>---------- -- -------- ----------------,140296.09999999404,140295.39999997616,139856.903,139864.39999997616,139873.573,140306.931,,9,is
screen,html.Screen,0_4_1_0_1_10,2021-11-25T15:48:58.854Z,,,,,,,,,,,,,,,,11,,,,,,,,,,,,,,396.3689999821072,,response,,,4,F,,,,,Space,keypress(Space),,,,instrumental,----- -- ---- --- -- --- -------- ------------ ---------- --<br>a ------- ------ --------- -- ------------ -- --- ---- -----<br>------ ---- ---- ------ ------ ------- --- ----- ---------<br>---- --- -------- -------- --- --- -- ------- --- --- -----<br>-- --- ------ ------- --- --- -------- ---- --------- --<br>---------- -- -------- ----------------,140704.09999999404,140703.29999998212,140290.262,140296.39999997616,140306.931,140707.175,,10,a
screen,html.Screen,0_4_1_0_1_11,2021-11-25T15:48:59.326Z,,,,,,,,,,,,,,,,11,,,,,,,,,,,,,,468.12499998213025,,response,,,4,F,,,,,Space,keypress(Space),,,,instrumental,----- -- ---- --- -- --- -------- ------------ ---------- --<br>- writing ------ --------- -- ------------ -- --- ---- -----<br>------ ---- ---- ------ ------ ------- --- ----- ---------<br>---- --- -------- -------- --- --- -- ------- --- --- -----<br>-- --- ------ ------- --- --- -------- ---- --------- --<br>---------- -- -------- ----------------,141176.19999998808,141175.29999998212,140690.504,140705.79999998212,140707.175,141190.65,,11,writing
screen,html.Screen,0_4_1_0_1_12,2021-11-25T15:49:00.166Z,,,,,,,,,,,,,,,,11,,,,,,,,,,,,,,824.5499999880849,,response,,,4,F,,,,,Space,keypress(Space),,,,instrumental,----- -- ---- --- -- --- -------- ------------ ---------- --<br>- ------- system --------- -- ------------ -- --- ---- -----<br>------ ---- ---- ------ ------ ------- --- ----- ---------<br>---- --- -------- -------- --- --- -- ------- --- --- -----<br>-- --- ------ ------- --- --- -------- ---- --------- --<br>---------- -- -------- ----------------,142016.09999999404,142015.19999998808,141173.979,141176.29999998212,141190.65,142024.137,,12,system
screen,html.Screen,0_4_1_0_1_13,2021-11-25T15:49:00.606Z,,,,,,,,,,,,,,,,11,,,,,,,,,,,,,,431.1629999821307,,response,,,4,F,,,,,Space,keypress(Space),,,,instrumental,----- -- ---- --- -- --- -------- ------------ ---------- --<br>- ------- ------ comprised -- ------------ -- --- ---- -----<br>------ ---- ---- ------ ------ ------- --- ----- ---------<br>---- --- -------- -------- --- --- -- ------- --- --- -----<br>-- --- ------ ------- --- --- -------- ---- --------- --<br>---------- -- -------- ----------------,142456,142455.29999998212,142007.467,142016.29999998212,142024.137,142457.443,,13,comprised
screen,html.Screen,0_4_1_0_1_14,2021-11-25T15:49:01.054Z,,,,,,,,,,,,,,,,11,,,,,,,,,,,,,,445.75699998807977,,response,,,4,F,,,,,Space,keypress(Space),,,,instrumental,----- -- ---- --- -- --- -------- ------------ ---------- --<br>- ------- ------ --------- of ------------ -- --- ---- -----<br>------ ---- ---- ------ ------ ------- --- ----- ---------<br>---- --- -------- -------- --- --- -- ------- --- --- -----<br>-- --- ------ ------- --- --- -------- ---- --------- --<br>---------- -- -------- ----------------,142904.09999999404,142903.19999998808,142440.774,142456.29999998212,142457.443,142907.674,,14,of
screen,html.Screen,0_4_1_0_1_15,2021-11-25T15:49:02.126Z,,,,,,,,,,,,,,,,11,,,,,,,,,,,,,,1067.4259999940405,,response,,,4,F,,,,,Space,keypress(Space),,,,instrumental,----- -- ---- --- -- --- -------- ------------ ---------- --<br>- ------- ------ --------- -- pictographs. -- --- ---- -----<br>------ ---- ---- ------ ------ ------- --- ----- ---------<br>---- --- -------- -------- --- --- -- ------- --- --- -----<br>-- --- ------ ------- --- --- -------- ---- --------- --<br>---------- -- -------- ----------------,143976,143975.09999999404,142891.004,142904.19999998808,142907.674,143991.474,,15,pictographs.
screen,html.Screen,0_4_1_0_1_16,2021-11-25T15:49:02.566Z,,,,,,,,,,,,,,,,11,,,,,,,,,,,,,,423.72599998809164,,response,,,4,F,,,,,Space,keypress(Space),,,,instrumental,----- -- ---- --- -- --- -------- ------------ ---------- --<br>- ------- ------ --------- -- ------------ It --- ---- -----<br>------ ---- ---- ------ ------ ------- --- ----- ---------<br>---- --- -------- -------- --- --- -- ------- --- --- -----<br>-- --- ------ ------- --- --- -------- ---- --------- --<br>---------- -- -------- ----------------,144415.89999997616,144415.19999998808,143974.802,143976.19999998808,143991.474,144424.778,,16,It
screen,html.Screen,0_4_1_0_1_17,2021-11-25T15:49:02.950Z,,,,,,,,,,,,,,,,11,,,,,,,,,,,,,,374.3219999940484,,response,,,4,F,,,,,Space,keypress(Space),,,,instrumental,----- -- ---- --- -- --- -------- ------------ ---------- --<br>- ------- ------ --------- -- ------------ -- has ---- -----<br>------ ---- ---- ------ ------ ------- --- ----- ---------<br>---- --- -------- -------- --- --- -- ------- --- --- -----<br>-- --- ------ ------- --- --- -------- ---- --------- --<br>---------- -- -------- ----------------,144800,144799.09999999404,144408.108,144416.19999998808,144424.778,144808.22,,17,has
screen,html.Screen,0_4_1_0_1_18,2021-11-25T15:49:03.374Z,,,,,,,,,,,,,,,,11,,,,,,,,,,,,,,414.87999999403837,,response,,,4,F,,,,,Space,keypress(Space),,,,instrumental,----- -- ---- --- -- --- -------- ------------ ---------- --<br>- ------- ------ --------- -- ------------ -- --- been -----<br>------ ---- ---- ------ ------ ------- --- ----- ---------<br>---- --- -------- -------- --- --- -- ------- --- --- -----<br>-- --- ------ ------- --- --- -------- ---- --------- --<br>---------- -- -------- ----------------,145223.79999998212,145223.09999999404,144791.55,144800.19999998808,144808.22,145224.965,,18,been
screen,html.Screen,0_4_1_0_1_19,2021-11-25T15:49:03.782Z,,,,,,,,,,,,,,,,11,,,,,,,,,,,,,,406.5350000000035,,response,,,4,F,,,,,Space,keypress(Space),,,,instrumental,----- -- ---- --- -- --- -------- ------------ ---------- --<br>- ------- ------ --------- -- ------------ -- --- ---- found<br>------ ---- ---- ------ ------ ------- --- ----- ---------<br>---- --- -------- -------- --- --- -- ------- --- --- -----<br>-- --- ------ ------- --- --- -------- ---- --------- --<br>---------- -- -------- ----------------,145632.39999997616,145631.5,145208.295,145224.09999999404,145224.965,145641.754,,19,found
screen,html.Screen,0_4_1_0_1_20,2021-11-25T15:49:04.934Z,,,,,,,,,,,,,,,,11,,,,,,,,,,,,,,1141.3459999940533,,response,,,4,F,,,,,Space,keypress(Space),,,,instrumental,----- -- ---- --- -- --- -------- ------------ ---------- --<br>- ------- ------ --------- -- ------------ -- --- ---- -----<br>carved ---- ---- ------ ------ ------- --- ----- ---------<br>---- --- -------- -------- --- --- -- ------- --- --- -----<br>-- --- ------ ------- --- --- -------- ---- --------- --<br>---------- -- -------- ----------------,146783.89999997616,146783.09999999404,145625.084,145632.59999999404,145641.754,146791.857,,20,carved
screen,html.Screen,0_4_1_0_1_21,2021-11-25T15:49:05.270Z,,,,,,,,,,,,,,,,11,,,,,,,,,,,,,,327.14300000001094,,response,,,4,F,,,,,Space,keypress(Space),,,,instrumental,----- -- ---- --- -- --- -------- ------------ ---------- --<br>- ------- ------ --------- -- ------------ -- --- ---- -----<br>------ into ---- ------ ------ ------- --- ----- ---------<br>---- --- -------- -------- --- --- -- ------- --- --- -----<br>-- --- ------ ------- --- --- -------- ---- --------- --<br>---------- -- -------- ----------------,147119.59999999404,147119,146775.188,146784,146791.857,147125.489,,21,into
screen,html.Screen,0_4_1_0_1_22,2021-11-25T15:49:05.606Z,,,,,,,,,,,,,,,,11,,,,,,,,,,,,,,329.41099997615675,,response,,,4,F,,,,,Space,keypress(Space),,,,instrumental,----- -- ---- --- -- --- -------- ------------ ---------- --<br>- ------- ------ --------- -- ------------ -- --- ---- -----<br>------ ---- many ------ ------ ------- --- ----- ---------<br>---- --- -------- -------- --- --- -- ------- --- --- -----<br>-- --- ------ ------- --- --- -------- ---- --------- --<br>---------- -- -------- ----------------,147455.79999998212,147454.89999997616,147108.817,147119.89999997616,147125.489,147458.794,,22,many
screen,html.Screen,0_4_1_0_1_23,2021-11-25T15:49:05.966Z,,,,,,,,,,,,,,,,11,,,,,,,,,,,,,,356.10599997616373,,response,,,4,F,,,,,Space,keypress(Space),,,,instrumental,----- -- ---- --- -- --- -------- ------------ ---------- --<br>- ------- ------ --------- -- ------------ -- --- ---- -----<br>------ ---- ---- oblong ------ ------- --- ----- ---------<br>---- --- -------- -------- --- --- -- ------- --- --- -----<br>-- --- ------ ------- --- --- -------- ---- --------- --<br>---------- -- -------- ----------------,147815.79999998212,147814.89999997616,147442.125,147456.19999998808,147458.794,147825.802,,23,oblong
screen,html.Screen,0_4_1_0_1_24,2021-11-25T15:49:06.422Z,,,,,,,,,,,,,,,,11,,,,,,,,,,,,,,445.0979999761621,,response,,,4,F,,,,,Space,keypress(Space),,,,instrumental,----- -- ---- --- -- --- -------- ------------ ---------- --<br>- ------- ------ --------- -- ------------ -- --- ---- -----<br>------ ---- ---- ------ wooden ------- --- ----- ---------<br>---- --- -------- -------- --- --- -- ------- --- --- -----<br>-- --- ------ ------- --- --- -------- ---- --------- --<br>---------- -- -------- ----------------,148271.79999998212,148270.89999997616,147809.127,147816,147825.802,148275.722,,24,wooden
screen,html.Screen,0_4_1_0_1_25,2021-11-25T15:49:06.822Z,,,,,,,,,,,,,,,,11,,,,,,,,,,,,,,395.27799999999115,,response,,,4,F,,,,,Space,keypress(Space),,,,instrumental,----- -- ---- --- -- --- -------- ------------ ---------- --<br>- ------- ------ --------- -- ------------ -- --- ---- -----<br>------ ---- ---- ------ ------ tablets --- ----- ---------<br>---- --- -------- -------- --- --- -- ------- --- --- -----<br>-- --- ------ ------- --- --- -------- ---- --------- --<br>---------- -- -------- ----------------,148671.89999997616,148671,148259.053,148272,148275.722,148675.912,,25,tablets
screen,html.Screen,0_4_1_0_1_26,2021-11-25T15:49:07.238Z,,,,,,,,,,,,,,,,11,,,,,,,,,,,,,,410.88799998210743,,response,,,4,F,,,,,Space,keypress(Space),,,,instrumental,----- -- ---- --- -- --- -------- ------------ ---------- --<br>- ------- ------ --------- -- ------------ -- --- ---- -----<br>------ ---- ---- ------ ------ ------- and ----- ---------<br>---- --- -------- -------- --- --- -- ------- --- --- -----<br>-- --- ------ ------- --- --- -------- ---- --------- --<br>---------- -- -------- ----------------,149087.69999998808,149086.79999998212,148659.241,148672.09999999404,148675.912,149092.64,,26,and
screen,html.Screen,0_4_1_0_1_27,2021-11-25T15:49:07.598Z,,,,,,,,,,,,,,,,11,,,,,,,,,,,,,,354.15999998210464,,response,,,4,F,,,,,Space,keypress(Space),,,,instrumental,----- -- ---- --- -- --- -------- ------------ ---------- --<br>- ------- ------ --------- -- ------------ -- --- ---- -----<br>------ ---- ---- ------ ------ ------- --- other ---------<br>---- --- -------- -------- --- --- -- ------- --- --- -----<br>-- --- ------ ------- --- --- -------- ---- --------- --<br>---------- -- -------- ----------------,149447.59999999404,149446.79999998212,149075.97,149088,149092.64,149459.443,,27,other
screen,html.Screen,0_4_1_0_1_28,2021-11-25T15:49:08.022Z,,,,,,,,,,,,,,,,11,,,,,,,,,,,,,,411.45699997615884,,response,,,4,F,,,,,Space,keypress(Space),,,,instrumental,----- -- ---- --- -- --- -------- ------------ ---------- --<br>- ------- ------ --------- -- ------------ -- --- ---- -----<br>------ ---- ---- ------ ------ ------- --- ----- artifacts<br>---- --- -------- -------- --- --- -- ------- --- --- -----<br>-- --- ------ ------- --- --- -------- ---- --------- --<br>---------- -- -------- ----------------,149871.59999999404,149870.89999997616,149442.772,149447.89999997616,149459.443,149876.044,,28,artifacts
screen,html.Screen,0_4_1_0_1_29,2021-11-25T15:49:08.517Z,,,,,,,,,,,,,,,,11,,,,,,,,,,,,,,490.7559999821242,,response,,,4,F,,,,,Space,keypress(Space),,,,instrumental,----- -- ---- --- -- --- -------- ------------ ---------- --<br>- ------- ------ --------- -- ------------ -- --- ---- -----<br>------ ---- ---- ------ ------ ------- --- ----- ---------<br>from --- -------- -------- --- --- -- ------- --- --- -----<br>-- --- ------ ------- --- --- -------- ---- --------- --<br>---------- -- -------- ----------------,150367.5,150366.79999998212,149859.376,149871.79999998212,149876.044,150376.259,,29,from
screen,html.Screen,0_4_1_0_1_30,2021-11-25T15:49:08.853Z,,,,,,,,,,,,,,,,11,,,,,,,,,,,,,,326.5409999821277,,response,,,4,F,,,,,Space,keypress(Space),,,,instrumental,----- -- ---- --- -- --- -------- ------------ ---------- --<br>- ------- ------ --------- -- ------------ -- --- ---- -----<br>------ ---- ---- ------ ------ ------- --- ----- ---------<br>---- the -------- -------- --- --- -- ------- --- --- -----<br>-- --- ------ ------- --- --- -------- ---- --------- --<br>---------- -- -------- ----------------,150703.5,150702.79999998212,150359.589,150367.79999998212,150376.259,150709.824,,30,the
screen,html.Screen,0_4_1_0_1_31,2021-11-25T15:49:09.190Z,,,,,,,,,,,,,,,,11,,,,,,,,,,,,,,328.97599998212536,,response,,,4,F,,,,,Space,keypress(Space),,,,instrumental,----- -- ---- --- -- --- -------- ------------ ---------- --<br>- ------- ------ --------- -- ------------ -- --- ---- -----<br>------ ---- ---- ------ ------ ------- --- ----- ---------<br>---- --- island's -------- --- --- -- ------- --- --- -----<br>-- --- ------ ------- --- --- -------- ---- --------- --<br>---------- -- -------- ----------------,151039.69999998808,151038.79999998212,150693.152,150703.89999997616,150709.824,151043.054,,31,island's
screen,html.Screen,0_4_1_0_1_32,2021-11-25T15:49:09.837Z,,,,,,,,,,,,,,,,11,,,,,,,,,,,,,,643.6459999880753,,response,,,4,F,,,,,Space,keypress(Space),,,,instrumental,----- -- ---- --- -- --- -------- ------------ ---------- --<br>- ------- ------ --------- -- ------------ -- --- ---- -----<br>------ ---- ---- ------ ------ ------- --- ----- ---------<br>---- --- -------- history. --- --- -- ------- --- --- -----<br>-- --- ------ ------- --- --- -------- ---- --------- --<br>---------- -- -------- ----------------,151687.39999997616,151686.69999998808,151026.385,151040,151043.054,151693.414,,32,history.
screen,html.Screen,0_4_1_0_1_33,2021-11-25T15:49:10.317Z,,,,,,,,,,,,,,,,11,,,,,,,,,,,,,,473.1859999940498,,response,,,4,F,,,,,Space,keypress(Space),,,,instrumental,----- -- ---- --- -- --- -------- ------------ ---------- --<br>- ------- ------ --------- -- ------------ -- --- ---- -----<br>------ ---- ---- ------ ------ ------- --- ----- ---------<br>---- --- -------- -------- The --- -- ------- --- --- -----<br>-- --- ------ ------- --- --- -------- ---- --------- --<br>---------- -- -------- ----------------,152167.5,152166.59999999404,151676.742,151687.69999998808,151693.414,152176.587,,33,The
screen,html.Screen,0_4_1_0_1_34,2021-11-25T15:49:10.733Z,,,,,,,,,,,,,,,,11,,,,,,,,,,,,,,406.01299999404,,response,,,4,F,,,,,Space,keypress(Space),,,,instrumental,----- -- ---- --- -- --- -------- ------------ ---------- --<br>- ------- ------ --------- -- ------------ -- --- ---- -----<br>------ ---- ---- ------ ------ ------- --- ----- ---------<br>---- --- -------- -------- --- art -- ------- --- --- -----<br>-- --- ------ ------- --- --- -------- ---- --------- --<br>---------- -- -------- ----------------,152583.39999997616,152582.59999999404,152159.919,152167.69999998808,152176.587,152593.581,,34,art
screen,html.Screen,0_4_1_0_1_35,2021-11-25T15:49:11.093Z,,,,,,,,,,,,,,,,11,,,,,,,,,,,,,,349.01899999403395,,response,,,4,F,,,,,Space,keypress(Space),,,,instrumental,----- -- ---- --- -- --- -------- ------------ ---------- --<br>- ------- ------ --------- -- ------------ -- --- ---- -----<br>------ ---- ---- ------ ------ ------- --- ----- ---------<br>---- --- -------- -------- --- --- of ------- --- --- -----<br>-- --- ------ ------- --- --- -------- ---- --------- --<br>---------- -- -------- ----------------,152943.5,152942.59999999404,152576.91,152583.69999998808,152593.581,152960.214,,35,of
screen,html.Screen,0_4_1_0_1_36,2021-11-25T15:49:11.621Z,,,,,,,,,,,,,,,,11,,,,,,,,,,,,,,510.48599998807185,,response,,,4,F,,,,,Space,keypress(Space),,,,instrumental,----- -- ---- --- -- --- -------- ------------ ---------- --<br>- ------- ------ --------- -- ------------ -- --- ---- -----<br>------ ---- ---- ------ ------ ------- --- ----- ---------<br>---- --- -------- -------- --- --- -- writing --- --- -----<br>-- --- ------ ------- --- --- -------- ---- --------- --<br>---------- -- -------- ----------------,153471.39999997616,153470.69999998808,152943.545,152943.69999998808,152960.214,153477.213,,36,writing
screen,html.Screen,0_4_1_0_1_37,2021-11-25T15:49:12.101Z,,,,,,,,,,,,,,,,11,,,,,,,,,,,,,,473.3869999940507,,response,,,4,F,,,,,Space,keypress(Space),,,,instrumental,----- -- ---- --- -- --- -------- ------------ ---------- --<br>- ------- ------ --------- -- ------------ -- --- ---- -----<br>------ ---- ---- ------ ------ ------- --- ----- ---------<br>---- --- -------- -------- --- --- -- ------- was --- -----<br>-- --- ------ ------- --- --- -------- ---- --------- --<br>---------- -- -------- ----------------,153951.29999998212,153950.59999999404,153460.541,153471.59999999404,153477.213,153960.387,,37,was
screen,html.Screen,0_4_1_0_1_38,2021-11-25T15:49:12.533Z,,,,,,,,,,,,,,,,11,,,,,,,,,,,,,,422.21299999405164,,response,,,4,F,,,,,Space,keypress(Space),,,,instrumental,----- -- ---- --- -- --- -------- ------------ ---------- --<br>- ------- ------ --------- -- ------------ -- --- ---- -----<br>------ ---- ---- ------ ------ ------- --- ----- ---------<br>---- --- -------- -------- --- --- -- ------- --- not -----<br>-- --- ------ ------- --- --- -------- ---- --------- --<br>---------- -- -------- ----------------,154383.29999998212,154382.59999999404,153943.719,153951.59999999404,153960.387,154394.105,,38,not
screen,html.Screen,0_4_1_0_1_39,2021-11-25T15:49:12.965Z,,,,,,,,,,,,,,,,11,,,,,,,,,,,,,,420.49499999402906,,response,,,4,F,,,,,Space,keypress(Space),,,,instrumental,----- -- ---- --- -- --- -------- ------------ ---------- --<br>- ------- ------ --------- -- ------------ -- --- ---- -----<br>------ ---- ---- ------ ------ ------- --- ----- ---------<br>---- --- -------- -------- --- --- -- ------- --- --- known<br>-- --- ------ ------- --- --- -------- ---- --------- --<br>---------- -- -------- ----------------,154815.39999997616,154814.59999999404,154377.433,154383.59999999404,154394.105,154827.432,,39,known
screen,html.Screen,0_4_1_0_1_40,2021-11-25T15:49:13.309Z,,,,,,,,,,,,,,,,11,,,,,,,,,,,,,,331.0679999999993,,response,,,4,F,,,,,Space,keypress(Space),,,,instrumental,----- -- ---- --- -- --- -------- ------------ ---------- --<br>- ------- ------ --------- -- ------------ -- --- ---- -----<br>------ ---- ---- ------ ------ ------- --- ----- ---------<br>---- --- -------- -------- --- --- -- ------- --- --- -----<br>in --- ------ ------- --- --- -------- ---- --------- --<br>---------- -- -------- ----------------,155159.39999997616,155158.5,154810.762,154815.59999999404,154827.432,155160.858,,40,in
screen,html.Screen,0_4_1_0_1_41,2021-11-25T15:49:13.661Z,,,,,,,,,,,,,,,,11,,,,,,,,,,,,,,349.64199999999255,,response,,,4,F,,,,,Space,keypress(Space),,,,instrumental,----- -- ---- --- -- --- -------- ------------ ---------- --<br>- ------- ------ --------- -- ------------ -- --- ---- -----<br>------ ---- ---- ------ ------ ------- --- ----- ---------<br>---- --- -------- -------- --- --- -- ------- --- --- -----<br>-- any ------ ------- --- --- -------- ---- --------- --<br>---------- -- -------- ----------------,155511.29999998212,155510.5,155144.188,155159.59999999404,155160.858,155527.661,,41,any
screen,html.Screen,0_4_1_0_1_42,2021-11-25T15:49:14.038Z,,,,,,,,,,,,,,,,11,,,,,,,,,,,,,,359.23899997616536,,response,,,4,F,,,,,Space,keypress(Space),,,,instrumental,----- -- ---- --- -- --- -------- ------------ ---------- --<br>- ------- ------ --------- -- ------------ -- --- ---- -----<br>------ ---- ---- ------ ------ ------- --- ----- ---------<br>---- --- -------- -------- --- --- -- ------- --- --- -----<br>-- --- nearby ------- --- --- -------- ---- --------- --<br>---------- -- -------- ----------------,155887.69999998808,155886.89999997616,155510.99,155511.59999999404,155527.661,155894.429,,42,nearby
screen,html.Screen,0_4_1_0_1_43,2021-11-25T15:49:14.517Z,,,,,,,,,,,,,,,,11,,,,,,,,,,,,,,471.9709999761544,,response,,,4,F,,,,,Space,keypress(Space),,,,instrumental,----- -- ---- --- -- --- -------- ------------ ---------- --<br>- ------- ------ --------- -- ------------ -- --- ---- -----<br>------ ---- ---- ------ ------ ------- --- ----- ---------<br>---- --- -------- -------- --- --- -- ------- --- --- -----<br>-- --- ------ islands --- --- -------- ---- --------- --<br>---------- -- -------- ----------------,156367.29999998212,156366.39999997616,155877.758,155887.79999998212,155894.429,156377.851,,43,islands
screen,html.Screen,0_4_1_0_1_44,2021-11-25T15:49:15.021Z,,,,,,,,,,,,,,,,11,,,,,,,,,,,,,,492.6490000000049,,response,,,4,F,,,,,Space,keypress(Space),,,,instrumental,----- -- ---- --- -- --- -------- ------------ ---------- --<br>- ------- ------ --------- -- ------------ -- --- ---- -----<br>------ ---- ---- ------ ------ ------- --- ----- ---------<br>---- --- -------- -------- --- --- -- ------- --- --- -----<br>-- --- ------ ------- and --- -------- ---- --------- --<br>---------- -- -------- ----------------,156871.19999998808,156870.5,156361.181,156367.5,156377.851,156877.966,,44,and
screen,html.Screen,0_4_1_0_1_45,2021-11-25T15:49:15.437Z,,,,,,,,,,,,,,,,11,,,,,,,,,,,,,,408.43399997617234,,response,,,4,F,,,,,Space,keypress(Space),,,,instrumental,----- -- ---- --- -- --- -------- ------------ ---------- --<br>- ------- ------ --------- -- ------------ -- --- ---- -----<br>------ ---- ---- ------ ------ ------- --- ----- ---------<br>---- --- -------- -------- --- --- -- ------- --- --- -----<br>-- --- ------ ------- --- the -------- ---- --------- --<br>---------- -- -------- ----------------,157287.09999999404,157286.39999997616,156861.296,156871.5,156877.966,157294.72,,45,the
screen,html.Screen,0_4_1_0_1_46,2021-11-25T15:49:15.885Z,,,,,,,,,,,,,,,,11,,,,,,,,,,,,,,439.77999999999884,,response,,,4,F,,,,,Space,keypress(Space),,,,instrumental,----- -- ---- --- -- --- -------- ------------ ---------- --<br>- ------- ------ --------- -- ------------ -- --- ---- -----<br>------ ---- ---- ------ ------ ------- --- ----- ---------<br>---- --- -------- -------- --- --- -- ------- --- --- -----<br>-- --- ------ ------- --- --- script's ---- --------- --<br>---------- -- -------- ----------------,157735.19999998808,157734.5,157278.05,157287.29999998212,157294.72,157744.926,,46,script's
screen,html.Screen,0_4_1_0_1_47,2021-11-25T15:49:16.229Z,,,,,,,,,,,,,,,,11,,,,,,,,,,,,,,333.4739999761514,,response,,,4,F,,,,,Space,keypress(Space),,,,instrumental,----- -- ---- --- -- --- -------- ------------ ---------- --<br>- ------- ------ --------- -- ------------ -- --- ---- -----<br>------ ---- ---- ------ ------ ------- --- ----- ---------<br>---- --- -------- -------- --- --- -- ------- --- --- -----<br>-- --- ------ ------- --- --- -------- mere --------- --<br>---------- -- -------- ----------------,158079.19999998808,158078.39999997616,157728.255,157735.39999997616,157744.926,158094.958,,47,mere
screen,html.Screen,0_4_1_0_1_48,2021-11-25T15:49:16.733Z,,,,,,,,,,,,,,,,11,,,,,,,,,,,,,,487.44199997614487,,response,,,4,F,,,,,Space,keypress(Space),,,,instrumental,----- -- ---- --- -- --- -------- ------------ ---------- --<br>- ------- ------ --------- -- ------------ -- --- ---- -----<br>------ ---- ---- ------ ------ ------- --- ----- ---------<br>---- --- -------- -------- --- --- -- ------- --- --- -----<br>-- --- ------ ------- --- --- -------- ---- existence --<br>---------- -- -------- ----------------,158583.09999999404,158582.39999997616,158078.288,158079.39999997616,158094.958,158595.073,,48,existence
screen,html.Screen,0_4_1_0_1_49,2021-11-25T15:49:17.157Z,,,,,,,,,,,,,,,,11,,,,,,,,,,,,,,411.1269999880751,,response,,,4,F,,,,,Space,keypress(Space),,,,instrumental,----- -- ---- --- -- --- -------- ------------ ---------- --<br>- ------- ------ --------- -- ------------ -- --- ---- -----<br>------ ---- ---- ------ ------ ------- --- ----- ---------<br>---- --- -------- -------- --- --- -- ------- --- --- -----<br>-- --- ------ ------- --- --- -------- ---- --------- is<br>---------- -- -------- ----------------,159007,159006.19999998808,158578.403,158583.39999997616,158595.073,159011.857,,49,is
screen,html.Screen,0_4_1_0_1_50,2021-11-25T15:49:17.629Z,,,,,,,,,,,,,,,,11,,,,,,,,,,,,,,466.44299998212955,,response,,,4,F,,,,,Space,keypress(Space),,,,instrumental,----- -- ---- --- -- --- -------- ------------ ---------- --<br>- ------- ------ --------- -- ------------ -- --- ---- -----<br>------ ---- ---- ------ ------ ------- --- ----- ---------<br>---- --- -------- -------- --- --- -- ------- --- --- -----<br>-- --- ------ ------- --- --- -------- ---- --------- --<br>sufficient -- -------- ----------------,159479.09999999404,159478.29999998212,158995.187,159007.19999998808,159011.857,159495.36,,50,sufficient
screen,html.Screen,0_4_1_0_1_51,2021-11-25T15:49:18.005Z,,,,,,,,,,,,,,,,11,,,,,,,,,,,,,,358.9399999821326,,response,,,4,F,,,,,Space,keypress(Space),,,,instrumental,----- -- ---- --- -- --- -------- ------------ ---------- --<br>- ------- ------ --------- -- ------------ -- --- ---- -----<br>------ ---- ---- ------ ------ ------- --- ----- ---------<br>---- --- -------- -------- --- --- -- ------- --- --- -----<br>-- --- ------ ------- --- --- -------- ---- --------- --<br>---------- to -------- ----------------,159855.09999999404,159854.29999998212,159478.689,159479.29999998212,159495.36,159861.94,,51,to
