sender,sender_type,sender_id,timestamp,meta,,Blues,Classical,Country,Dance,Electronic,Folk,Gospel,Hip-Hop,Jazz,Latin,Musical/Film,New-age,Pop,Provo_ID,R&B,Rap,Reggae,Religious,Rock,Soul,Swing,Traditional,age,artist_name,correct,correctResponse,distraction,duration,education,ended_on,familiarity,gender,item,list,music_frequency,offensiveness,pleasantness,preference,response,response_action,snippet_file,song_name,song_rating,sound,text,time_commit,time_end,time_render,time_run,time_show,time_switch,url,word,word_ID
Instructions,html.Page,0_0,2021-11-04T12:42:44.075Z,"{""labjs_version"":""20.2.3"",""labjs_build"":{""flavor"":""production"",""commit"":""7ea907d66ca8aeef8054924ca5d82ffbe11e34e5""},""location"":""https://run.pavlovia.org/mvasilev/lab_music_c/"",""userAgent"":""Mozilla/5.0 (Windows NT 6.1; Win64; x64) AppleWebKit/537.36 (KHTML, like Gecko) Chrome/95.0.4638.69 Safari/537.36"",""platform"":""Win32"",""language"":""en-US"",""locale"":""en-US"",""timeZone"":""Europe/London"",""timezoneOffset"":0,""screen_width"":1920,""screen_height"":1080,""scroll_width"":1920,""scroll_height"":959,""window_innerWidth"":1920,""window_innerHeight"":1007,""devicePixelRatio"":1}",,,,,,,,,,,,,,,,,,,,,,,,,,,,,19838.447000000746,,form submission,,,,,,,,,,,,,,,,33336.70000000112,33335.800000000745,13464.023,13484.099999999627,13497.353,33344.859,{},,
Headphones,html.Page,0_1,2021-11-04T12:42:47.119Z,,,,,,,,,,,,,,,,,,,,,,,,,,,,,,3035.4410000007483,,form submission,,,,,,,,,,,,,,,,36380.59999999963,36380.300000000745,33328.178,33337.20000000112,33344.859,36396.308,,,
Holding screen,html.Screen,0_2_0_0,2021-11-04T12:42:57.121Z,,,,,,,,,,,,,,,,,,,,,,,,,,,,,,9999.529000000002,,timeout,,,,,,,,,,,,,,,,46382.90000000037,46379.172,36379.643,36381.09999999963,36396.308,46395.837,,,
screen,html.Screen,0_2_0_1_0,2021-11-04T12:42:58.081Z,,,,,,,,,,,,,,,,53,,,,,,,,,,,,,,946.063000000373,,response,,,99,,,,,,Space,keypress(Space),,,,,When -- ----- -- ------ - ------- --- ----------<br>------------- ------ ------ ---- ---- ------- ----- -- ----<br>-------- ------- -- ---------- --- - --- ----- ----- ----<br>---- --- --- ----- --- ---- ---- ------- ----- ---- -------<br>--- --- -- ----- -- --- ---- -- --- ---- -- ------ ------<br>--- ----- -- ----,47343,47341.90000000037,46379.172,46383.20000000112,46395.837,47345.802,,0,When
screen,html.Screen,0_2_0_1_1,2021-11-04T12:42:58.696Z,,,,,,,,,,,,,,,,53,,,,,,,,,,,,,,611.9980000007417,,response,,,99,,,,,,Space,keypress(Space),,,,,---- it ----- -- ------ - ------- --- ----------<br>------------- ------ ------ ---- ---- ------- ----- -- ----<br>-------- ------- -- ---------- --- - --- ----- ----- ----<br>---- --- --- ----- --- ---- ---- ------- ----- ---- -------<br>--- --- -- ----- -- --- ---- -- --- ---- -- ------ ------<br>--- ----- -- ----,47958.59999999963,47957.800000000745,47329.137,47343.20000000112,47345.802,47962.453,,1,it
screen,html.Screen,0_2_0_1_2,2021-11-04T12:42:59.160Z,,,,,,,,,,,,,,,,53,,,,,,,,,,,,,,459.3470000007437,,response,,,99,,,,,,Space,keypress(Space),,,,,---- -- comes -- ------ - ------- --- ----------<br>------------- ------ ------ ---- ---- ------- ----- -- ----<br>-------- ------- -- ---------- --- - --- ----- ----- ----<br>---- --- --- ----- --- ---- ---- ------- ----- ---- -------<br>--- --- -- ----- -- --- ---- -- --- ---- -- ------ ------<br>--- ----- -- ----,48422.5,48421.800000000745,47945.788,47958.70000000112,47962.453,48429.106,,2,comes
screen,html.Screen,0_2_0_1_3,2021-11-04T12:42:59.616Z,,,,,,,,,,,,,,,,53,,,,,,,,,,,,,,448.79400000037276,,response,,,99,,,,,,Space,keypress(Space),,,,,---- -- ----- to ------ - ------- --- ----------<br>------------- ------ ------ ---- ---- ------- ----- -- ----<br>-------- ------- -- ---------- --- - --- ----- ----- ----<br>---- --- --- ----- --- ---- ---- ------- ----- ---- -------<br>--- --- -- ----- -- --- ---- -- --- ---- -- ------ ------<br>--- ----- -- ----,48878.59999999963,48877.90000000037,48412.441,48422.70000000112,48429.106,48895.759,,3,to
screen,html.Screen,0_2_0_1_4,2021-11-04T12:43:00.368Z,,,,,,,,,,,,,,,,53,,,,,,,,,,,,,,734.0410000007469,,response,,,99,,,,,,Space,keypress(Space),,,,,---- -- ----- -- having - ------- --- ----------<br>------------- ------ ------ ---- ---- ------- ----- -- ----<br>-------- ------- -- ---------- --- - --- ----- ----- ----<br>---- --- --- ----- --- ---- ---- ------- ----- ---- -------<br>--- --- -- ----- -- --- ---- -- --- ---- -- ------ ------<br>--- ----- -- ----,49630.70000000112,49629.800000000745,48879.094,48879,48895.759,49645.791,,4,having
screen,html.Screen,0_2_0_1_5,2021-11-04T12:43:00.760Z,,,,,,,,,,,,,,,,53,,,,,,,,,,,,,,376.0090000007476,,response,,,99,,,,,,Space,keypress(Space),,,,,---- -- ----- -- ------ a ------- --- ----------<br>------------- ------ ------ ---- ---- ------- ----- -- ----<br>-------- ------- -- ---------- --- - --- ----- ----- ----<br>---- --- --- ----- --- ---- ---- ------- ----- ---- -------<br>--- --- -- ----- -- --- ---- -- --- ---- -- ------ ------<br>--- ----- -- ----,50022.40000000037,50021.800000000745,49629.125,49630.800000000745,49645.791,50029.025,,5,a
screen,html.Screen,0_2_0_1_6,2021-11-04T12:43:01.232Z,,,,,,,,,,,,,,,,53,,,,,,,,,,,,,,464.7750000007436,,response,,,99,,,,,,Space,keypress(Space),,,,,---- -- ----- -- ------ - lasting --- ----------<br>------------- ------ ------ ---- ---- ------- ----- -- ----<br>-------- ------- -- ---------- --- - --- ----- ----- ----<br>---- --- --- ----- --- ---- ---- ------- ----- ---- -------<br>--- --- -- ----- -- --- ---- -- --- ---- -- ------ ------<br>--- ----- -- ----,50494.59999999963,50493.800000000745,50012.36,50022.800000000745,50029.025,50495.691,,6,lasting
screen,html.Screen,0_2_0_1_7,2021-11-04T12:43:01.648Z,,,,,,,,,,,,,,,,53,,,,,,,,,,,,,,414.0090000011187,,response,,,99,,,,,,Space,keypress(Space),,,,,---- -- ----- -- ------ - ------- and ----------<br>------------- ------ ------ ---- ---- ------- ----- -- ----<br>-------- ------- -- ---------- --- - --- ----- ----- ----<br>---- --- --- ----- --- ---- ---- ------- ----- ---- -------<br>--- --- -- ----- -- --- ---- -- --- ---- -- ------ ------<br>--- ----- -- ----,50910.40000000037,50909.70000000112,50479.026,50494.800000000745,50495.691,50912.344,,7,and
screen,html.Screen,0_2_0_1_8,2021-11-04T12:43:02.312Z,,,,,,,,,,,,,,,,53,,,,,,,,,,,,,,661.2559999996301,,response,,,99,,,,,,Space,keypress(Space),,,,,---- -- ----- -- ------ - ------- --- fulfilling<br>------------- ------ ------ ---- ---- ------- ----- -- ----<br>-------- ------- -- ---------- --- - --- ----- ----- ----<br>---- --- --- ----- --- ---- ---- ------- ----- ---- -------<br>--- --- -- ----- -- --- ---- -- --- ---- -- ------ ------<br>--- ----- -- ----,51574.5,51573.59999999963,50895.679,50910.70000000112,50912.344,51578.949,,8,fulfilling
screen,html.Screen,0_2_0_1_9,2021-11-04T12:43:02.952Z,,,,,,,,,,,,,,,,53,,,,,,,,,,,,,,634.650999999627,,response,,,99,,,,,,Space,keypress(Space),,,,,"---- -- ----- -- ------ - ------- --- ----------<br>relationship, ------ ------ ---- ---- ------- ----- -- ----<br>-------- ------- -- ---------- --- - --- ----- ----- ----<br>---- --- --- ----- --- ---- ---- ------- ----- ---- -------<br>--- --- -- ----- -- --- ---- -- --- ---- -- ------ ------<br>--- ----- -- ----",52214.300000000745,52213.59999999963,51562.284,51574.70000000112,51578.949,52228.694,,9,"relationship,"
screen,html.Screen,0_2_0_1_10,2021-11-04T12:43:03.640Z,,,,,,,,,,,,,,,,53,,,,,,,,,,,,,,672.9059999996243,,response,,,99,,,,,,Space,keypress(Space),,,,,---- -- ----- -- ------ - ------- --- ----------<br>------------- common ------ ---- ---- ------- ----- -- ----<br>-------- ------- -- ---------- --- - --- ----- ----- ----<br>---- --- --- ----- --- ---- ---- ------- ----- ---- -------<br>--- --- -- ----- -- --- ---- -- --- ---- -- ------ ------<br>--- ----- -- ----,52902.300000000745,52901.59999999963,52212.031,52214.59999999963,52228.694,52912.259,,10,common
screen,html.Screen,0_2_0_1_11,2021-11-04T12:43:04.200Z,,,,,,,,,,,,,,,,53,,,,,,,,,,,,,,549.3409999996293,,response,,,99,,,,,,Space,keypress(Space),,,,,---- -- ----- -- ------ - ------- --- ----------<br>------------- ------ wisdom ---- ---- ------- ----- -- ----<br>-------- ------- -- ---------- --- - --- ----- ----- ----<br>---- --- --- ----- --- ---- ---- ------- ----- ---- -------<br>--- --- -- ----- -- --- ---- -- --- ---- -- ------ ------<br>--- ----- -- ----,53462.20000000112,53461.59999999963,52895.593,52902.5,52912.259,53478.789,,11,wisdom
screen,html.Screen,0_2_0_1_12,2021-11-04T12:43:04.688Z,,,,,,,,,,,,,,,,53,,,,,,,,,,,,,,470.81099999963044,,response,,,99,,,,,,Space,keypress(Space),,,,,---- -- ----- -- ------ - ------- --- ----------<br>------------- ------ ------ says ---- ------- ----- -- ----<br>-------- ------- -- ---------- --- - --- ----- ----- ----<br>---- --- --- ----- --- ---- ---- ------- ----- ---- -------<br>--- --- -- ----- -- --- ---- -- --- ---- -- ------ ------<br>--- ----- -- ----,53950.09999999963,53949.59999999963,53462.124,53462.40000000037,53478.789,53962.183,,12,says
screen,html.Screen,0_2_0_1_13,2021-11-04T12:43:05.280Z,,,,,,,,,,,,,,,,53,,,,,,,,,,,,,,579.5170000011203,,response,,,99,,,,,,Space,keypress(Space),,,,,---- -- ----- -- ------ - ------- --- ----------<br>------------- ------ ------ ---- that ------- ----- -- ----<br>-------- ------- -- ---------- --- - --- ----- ----- ----<br>---- --- --- ----- --- ---- ---- ------- ----- ---- -------<br>--- --- -- ----- -- --- ---- -- --- ---- -- ------ ------<br>--- ----- -- ----,54542.300000000745,54541.70000000112,53945.517,53950.40000000037,53962.183,54545.432,,13,that
screen,html.Screen,0_2_0_1_14,2021-11-04T12:43:05.888Z,,,,,,,,,,,,,,,,53,,,,,,,,,,,,,,604.0679999999993,,response,,,99,,,,,,Space,keypress(Space),,,,,---- -- ----- -- ------ - ------- --- ----------<br>------------- ------ ------ ---- ---- feeling ----- -- ----<br>-------- ------- -- ---------- --- - --- ----- ----- ----<br>---- --- --- ----- --- ---- ---- ------- ----- ---- -------<br>--- --- -- ----- -- --- ---- -- --- ---- -- ------ ------<br>--- ----- -- ----,55150.09999999963,55149.5,54528.767,54542.5,54545.432,55162.061,,14,feeling
screen,html.Screen,0_2_0_1_15,2021-11-04T12:43:06.344Z,,,,,,,,,,,,,,,,53,,,,,,,,,,,,,,443.339000000371,,response,,,99,,,,,,Space,keypress(Space),,,,,---- -- ----- -- ------ - ------- --- ----------<br>------------- ------ ------ ---- ---- ------- close -- ----<br>-------- ------- -- ---------- --- - --- ----- ----- ----<br>---- --- --- ----- --- ---- ---- ------- ----- ---- -------<br>--- --- -- ----- -- --- ---- -- --- ---- -- ------ ------<br>--- ----- -- ----,55606.09999999963,55605.40000000037,55145.396,55150.300000000745,55162.061,55612.113,,15,close
screen,html.Screen,0_2_0_1_16,2021-11-04T12:43:06.784Z,,,,,,,,,,,,,,,,53,,,,,,,,,,,,,,433.38700000000244,,response,,,99,,,,,,Space,keypress(Space),,,,,---- -- ----- -- ------ - ------- --- ----------<br>------------- ------ ------ ---- ---- ------- ----- to ----<br>-------- ------- -- ---------- --- - --- ----- ----- ----<br>---- --- --- ----- --- ---- ---- ------- ----- ---- -------<br>--- --- -- ----- -- --- ---- -- --- ---- -- ------ ------<br>--- ----- -- ----,56046,56045.5,55595.447,55606.300000000745,55612.113,56062.017,,16,to
screen,html.Screen,0_2_0_1_17,2021-11-04T12:43:07.328Z,,,,,,,,,,,,,,,,53,,,,,,,,,,,,,,527.3830000003727,,response,,,99,,,,,,Space,keypress(Space),,,,,---- -- ----- -- ------ - ------- --- ----------<br>------------- ------ ------ ---- ---- ------- ----- -- your<br>-------- ------- -- ---------- --- - --- ----- ----- ----<br>---- --- --- ----- --- ---- ---- ------- ----- ---- -------<br>--- --- -- ----- -- --- ---- -- --- ---- -- ------ ------<br>--- ----- -- ----,56590,56589.40000000037,56045.352,56046.300000000745,56062.017,56595.322,,17,your
screen,html.Screen,0_2_0_1_18,2021-11-04T12:43:07.896Z,,,,,,,,,,,,,,,,53,,,,,,,,,,,,,,561.9780000007449,,response,,,99,,,,,,Space,keypress(Space),,,,,---- -- ----- -- ------ - ------- --- ----------<br>------------- ------ ------ ---- ---- ------- ----- -- ----<br>romantic ------- -- ---------- --- - --- ----- ----- ----<br>---- --- --- ----- --- ---- ---- ------- ----- ---- -------<br>--- --- -- ----- -- --- ---- -- --- ---- -- ------ ------<br>--- ----- -- ----,57158,57157.300000000745,56578.657,56590.20000000112,56595.322,57161.954,,18,romantic
screen,html.Screen,0_2_0_1_19,2021-11-04T12:43:08.328Z,,,,,,,,,,,,,,,,53,,,,,,,,,,,,,,427.34600000074715,,response,,,99,,,,,,Space,keypress(Space),,,,,---- -- ----- -- ------ - ------- --- ----------<br>------------- ------ ------ ---- ---- ------- ----- -- ----<br>-------- partner -- ---------- --- - --- ----- ----- ----<br>---- --- --- ----- --- ---- ---- ------- ----- ---- -------<br>--- --- -- ----- -- --- ---- -- --- ---- -- ------ ------<br>--- ----- -- ----,57589.90000000037,57589.300000000745,57145.289,57158.20000000112,57161.954,57595.196,,19,partner
screen,html.Screen,0_2_0_1_20,2021-11-04T12:43:08.840Z,,,,,,,,,,,,,,,,53,,,,,,,,,,,,,,506.1040000007415,,response,,,99,,,,,,Space,keypress(Space),,,,,---- -- ----- -- ------ - ------- --- ----------<br>------------- ------ ------ ---- ---- ------- ----- -- ----<br>-------- ------- is ---------- --- - --- ----- ----- ----<br>---- --- --- ----- --- ---- ---- ------- ----- ---- -------<br>--- --- -- ----- -- --- ---- -- --- ---- -- ------ ------<br>--- ----- -- ----,58101.90000000037,58101.300000000745,57578.532,57590,57595.196,58111.959,,20,is
screen,html.Screen,0_2_0_1_21,2021-11-04T12:43:09.336Z,,,,,,,,,,,,,,,,53,,,,,,,,,,,,,,485.3410000007425,,response,,,99,,,,,,Space,keypress(Space),,,,,---- -- ----- -- ------ - ------- --- ----------<br>------------- ------ ------ ---- ---- ------- ----- -- ----<br>-------- ------- -- paramount. --- - --- ----- ----- ----<br>---- --- --- ----- --- ---- ---- ------- ----- ---- -------<br>--- --- -- ----- -- --- ---- -- --- ---- -- ------ ------<br>--- ----- -- ----,58597.800000000745,58597.300000000745,58095.293,58102.09999999963,58111.959,58611.959,,21,paramount.
screen,html.Screen,0_2_0_1_22,2021-11-04T12:43:09.944Z,,,,,,,,,,,,,,,,53,,,,,,,,,,,,,,593.241000001115,,response,,,99,,,,,,Space,keypress(Space),,,,,---- -- ----- -- ------ - ------- --- ----------<br>------------- ------ ------ ---- ---- ------- ----- -- ----<br>-------- ------- -- ---------- But - --- ----- ----- ----<br>---- --- --- ----- --- ---- ---- ------- ----- ---- -------<br>--- --- -- ----- -- --- ---- -- --- ---- -- ------ ------<br>--- ----- -- ----,59205.90000000037,59205.20000000112,58595.293,58598.20000000112,58611.959,59211.786,,22,But
screen,html.Screen,0_2_0_1_23,2021-11-04T12:43:10.456Z,,,,,,,,,,,,,,,,53,,,,,,,,,,,,,,505.3139999996274,,response,,,99,,,,,,Space,keypress(Space),,,,,---- -- ----- -- ------ - ------- --- ----------<br>------------- ------ ------ ---- ---- ------- ----- -- ----<br>-------- ------- -- ---------- --- a --- ----- ----- ----<br>---- --- --- ----- --- ---- ---- ------- ----- ---- -------<br>--- --- -- ----- -- --- ---- -- --- ---- -- ------ ------<br>--- ----- -- ----,59717.70000000112,59717.09999999963,59195.122,59206.09999999963,59211.786,59728.48,,23,a
screen,html.Screen,0_2_0_1_24,2021-11-04T12:43:11.051Z,,,,,,,,,,,,,,,,53,,,,,,,,,,,,,,580.7200000011144,,response,,,99,,,,,,Space,keypress(Space),,,,,---- -- ----- -- ------ - ------- --- ----------<br>------------- ------ ------ ---- ---- ------- ----- -- ----<br>-------- ------- -- ---------- --- - new ----- ----- ----<br>---- --- --- ----- --- ---- ---- ------- ----- ---- -------<br>--- --- -- ----- -- --- ---- -- --- ---- -- ------ ------<br>--- ----- -- ----,60309.800000000745,60309.20000000112,59711.815,59717.90000000037,59728.48,60311.771,,24,new
screen,html.Screen,0_2_0_1_25,2021-11-04T12:43:11.587Z,,,,,,,,,,,,,,,,53,,,,,,,,,,,,,,533.3289999996268,,response,,,99,,,,,,Space,keypress(Space),,,,,---- -- ----- -- ------ - ------- --- ----------<br>------------- ------ ------ ---- ---- ------- ----- -- ----<br>-------- ------- -- ---------- --- - --- study ----- ----<br>---- --- --- ----- --- ---- ---- ------- ----- ---- -------<br>--- --- -- ----- -- --- ---- -- --- ---- -- ------ ------<br>--- ----- -- ----,60845.70000000112,60845.09999999963,60295.106,60310,60311.771,60861.839,,25,study
screen,html.Screen,0_2_0_1_26,2021-11-04T12:43:12.042Z,,,,,,,,,,,,,,,,53,,,,,,,,,,,,,,439.26099999962753,,response,,,99,,,,,,Space,keypress(Space),,,,,---- -- ----- -- ------ - ------- --- ----------<br>------------- ------ ------ ---- ---- ------- ----- -- ----<br>-------- ------- -- ---------- --- - --- ----- finds ----<br>---- --- --- ----- --- ---- ---- ------- ----- ---- -------<br>--- --- -- ----- -- --- ---- -- --- ---- -- ------ ------<br>--- ----- -- ----,61301.70000000112,61301.09999999963,60845.173,60845.90000000037,60861.839,61311.687,,26,finds
screen,html.Screen,0_2_0_1_27,2021-11-04T12:43:12.530Z,,,,,,,,,,,,,,,,53,,,,,,,,,,,,,,477.4129999996294,,response,,,99,,,,,,Space,keypress(Space),,,,,---- -- ----- -- ------ - ------- --- ----------<br>------------- ------ ------ ---- ---- ------- ----- -- ----<br>-------- ------- -- ---------- --- - --- ----- ----- that<br>---- --- --- ----- --- ---- ---- ------- ----- ---- -------<br>--- --- -- ----- -- --- ---- -- --- ---- -- ------ ------<br>--- ----- -- ----,61789.70000000112,61789.09999999963,61295.023,61301.90000000037,61311.687,61795.04,,27,that
screen,html.Screen,0_2_0_1_28,2021-11-04T12:43:13.115Z,,,,,,,,,,,,,,,,53,,,,,,,,,,,,,,578.0599999996266,,response,,,99,,,,,,Space,keypress(Space),,,,,---- -- ----- -- ------ - ------- --- ----------<br>------------- ------ ------ ---- ---- ------- ----- -- ----<br>-------- ------- -- ---------- --- - --- ----- ----- ----<br>it's --- --- ----- --- ---- ---- ------- ----- ---- -------<br>--- --- -- ----- -- --- ---- -- --- ---- -- ------ ------<br>--- ----- -- ----,62373.70000000112,62373.09999999963,61778.375,61789.90000000037,61795.04,62378.333,,28,it's
screen,html.Screen,0_2_0_1_29,2021-11-04T12:43:13.570Z,,,,,,,,,,,,,,,,53,,,,,,,,,,,,,,450.76699999962875,,response,,,99,,,,,,Space,keypress(Space),,,,,---- -- ----- -- ------ - ------- --- ----------<br>------------- ------ ------ ---- ---- ------- ----- -- ----<br>-------- ------- -- ---------- --- - --- ----- ----- ----<br>---- not --- ----- --- ---- ---- ------- ----- ---- -------<br>--- --- -- ----- -- --- ---- -- --- ---- -- ------ ------<br>--- ----- -- ----,62829.70000000112,62829.09999999963,62361.668,62373.90000000037,62378.333,62845.044,,29,not
screen,html.Screen,0_2_0_1_30,2021-11-04T12:43:14.066Z,,,,,,,,,,,,,,,,53,,,,,,,,,,,,,,479.9559999999983,,response,,,99,,,,,,Space,keypress(Space),,,,,---- -- ----- -- ------ - ------- --- ----------<br>------------- ------ ------ ---- ---- ------- ----- -- ----<br>-------- ------- -- ---------- --- - --- ----- ----- ----<br>---- --- how ----- --- ---- ---- ------- ----- ---- -------<br>--- --- -- ----- -- --- ---- -- --- ---- -- ------ ------<br>--- ----- -- ----,63325.59999999963,63325,62828.378,62829.800000000745,62845.044,63328.32,,30,how
screen,html.Screen,0_2_0_1_31,2021-11-04T12:43:14.498Z,,,,,,,,,,,,,,,,53,,,,,,,,,,,,,,428.6800000000003,,response,,,99,,,,,,Space,keypress(Space),,,,,---- -- ----- -- ------ - ------- --- ----------<br>------------- ------ ------ ---- ---- ------- ----- -- ----<br>-------- ------- -- ---------- --- - --- ----- ----- ----<br>---- --- --- close --- ---- ---- ------- ----- ---- -------<br>--- --- -- ----- -- --- ---- -- --- ---- -- ------ ------<br>--- ----- -- ----,63757.5,63757,63311.655,63325.70000000112,63328.32,63761.619,,31,close
screen,html.Screen,0_2_0_1_32,2021-11-04T12:43:14.938Z,,,,,,,,,,,,,,,,53,,,,,,,,,,,,,,435.28100000037375,,response,,,99,,,,,,Space,keypress(Space),,,,,---- -- ----- -- ------ - ------- --- ----------<br>------------- ------ ------ ---- ---- ------- ----- -- ----<br>-------- ------- -- ---------- --- - --- ----- ----- ----<br>---- --- --- ----- you ---- ---- ------- ----- ---- -------<br>--- --- -- ----- -- --- ---- -- --- ---- -- ------ ------<br>--- ----- -- ----,64197.5,64196.90000000037,63744.954,63757.800000000745,63761.619,64211.61,,32,you
screen,html.Screen,0_2_0_1_33,2021-11-04T12:43:15.403Z,,,,,,,,,,,,,,,,53,,,,,,,,,,,,,,449.4899999996269,,response,,,99,,,,,,Space,keypress(Space),,,,,---- -- ----- -- ------ - ------- --- ----------<br>------------- ------ ------ ---- ---- ------- ----- -- ----<br>-------- ------- -- ---------- --- - --- ----- ----- ----<br>---- --- --- ----- --- feel ---- ------- ----- ---- -------<br>--- --- -- ----- -- --- ---- -- --- ---- -- ------ ------<br>--- ----- -- ----,64661.70000000112,64661.09999999963,64194.945,64197.70000000112,64211.61,64678.16,,33,feel
screen,html.Screen,0_2_0_1_34,2021-11-04T12:43:15.954Z,,,,,,,,,,,,,,,,53,,,,,,,,,,,,,,534.6400000007416,,response,,,99,,,,,,Space,keypress(Space),,,,,---- -- ----- -- ------ - ------- --- ----------<br>------------- ------ ------ ---- ---- ------- ----- -- ----<br>-------- ------- -- ---------- --- - --- ----- ----- ----<br>---- --- --- ----- --- ---- that ------- ----- ---- -------<br>--- --- -- ----- -- --- ---- -- --- ---- -- ------ ------<br>--- ----- -- ----,65213.5,65212.800000000745,64661.496,64661.90000000037,64678.16,65228.177,,34,that
screen,html.Screen,0_2_0_1_35,2021-11-04T12:43:16.514Z,,,,,,,,,,,,,,,,53,,,,,,,,,,,,,,544.7230000003692,,response,,,99,,,,,,Space,keypress(Space),,,,,---- -- ----- -- ------ - ------- --- ----------<br>------------- ------ ------ ---- ---- ------- ----- -- ----<br>-------- ------- -- ---------- --- - --- ----- ----- ----<br>---- --- --- ----- --- ---- ---- matters ----- ---- -------<br>--- --- -- ----- -- --- ---- -- --- ---- -- ------ ------<br>--- ----- -- ----,65773.59999999963,65772.90000000037,65211.512,65213.70000000112,65228.177,65778.146,,35,matters
screen,html.Screen,0_2_0_1_36,2021-11-04T12:43:17.034Z,,,,,,,,,,,,,,,,53,,,,,,,,,,,,,,514.6540000007517,,response,,,99,,,,,,Space,keypress(Space),,,,,"---- -- ----- -- ------ - ------- --- ----------<br>------------- ------ ------ ---- ---- ------- ----- -- ----<br>-------- ------- -- ---------- --- - --- ----- ----- ----<br>---- --- --- ----- --- ---- ---- ------- most, ---- -------<br>--- --- -- ----- -- --- ---- -- --- ---- -- ------ ------<br>--- ----- -- ----",66293.40000000037,66292.80000000075,65761.481,65773.80000000075,65778.146,66294.693,,36,"most,"
screen,html.Screen,0_2_0_1_37,2021-11-04T12:43:17.658Z,,,,,,,,,,,,,,,,53,,,,,,,,,,,,,,622.1070000007458,,response,,,99,,,,,,Space,keypress(Space),,,,,---- -- ----- -- ------ - ------- --- ----------<br>------------- ------ ------ ---- ---- ------- ----- -- ----<br>-------- ------- -- ---------- --- - --- ----- ----- ----<br>---- --- --- ----- --- ---- ---- ------- ----- it's -------<br>--- --- -- ----- -- --- ---- -- --- ---- -- ------ ------<br>--- ----- -- ----,66917.40000000037,66916.80000000075,66278.029,66293.59999999963,66294.693,66928.224,,37,it's
screen,html.Screen,0_2_0_1_38,2021-11-04T12:43:18.306Z,,,,,,,,,,,,,,,,53,,,,,,,,,,,,,,636.5760000007431,,response,,,99,,,,,,Space,keypress(Space),,,,,---- -- ----- -- ------ - ------- --- ----------<br>------------- ------ ------ ---- ---- ------- ----- -- ----<br>-------- ------- -- ---------- --- - --- ----- ----- ----<br>---- --- --- ----- --- ---- ---- ------- ----- ---- whether<br>--- --- -- ----- -- --- ---- -- --- ---- -- ------ ------<br>--- ----- -- ----,67565.5,67564.80000000075,66911.557,66917.59999999963,66928.224,67578.048,,38,whether
screen,html.Screen,0_2_0_1_39,2021-11-04T12:43:18.826Z,,,,,,,,,,,,,,,,53,,,,,,,,,,,,,,506.65200000112236,,response,,,99,,,,,,Space,keypress(Space),,,,,---- -- ----- -- ------ - ------- --- ----------<br>------------- ------ ------ ---- ---- ------- ----- -- ----<br>-------- ------- -- ---------- --- - --- ----- ----- ----<br>---- --- --- ----- --- ---- ---- ------- ----- ---- -------<br>you --- -- ----- -- --- ---- -- --- ---- -- ------ ------<br>--- ----- -- ----,68085.40000000037,68084.70000000112,67561.383,67565.59999999963,67578.048,68094.723,,39,you
screen,html.Screen,0_2_0_1_40,2021-11-04T12:43:19.338Z,,,,,,,,,,,,,,,,53,,,,,,,,,,,,,,501.97700000111945,,response,,,99,,,,,,Space,keypress(Space),,,,,---- -- ----- -- ------ - ------- --- ----------<br>------------- ------ ------ ---- ---- ------- ----- -- ----<br>-------- ------- -- ---------- --- - --- ----- ----- ----<br>---- --- --- ----- --- ---- ---- ------- ----- ---- -------<br>--- are -- ----- -- --- ---- -- --- ---- -- ------ ------<br>--- ----- -- ----,68597.30000000075,68596.70000000112,68078.058,68085.5,68094.723,68611.277,,40,are
screen,html.Screen,0_2_0_1_41,2021-11-04T12:43:19.754Z,,,,,,,,,,,,,,,,53,,,,,,,,,,,,,,401.4230000011157,,response,,,99,,,,,,Space,keypress(Space),,,,,---- -- ----- -- ------ - ------- --- ----------<br>------------- ------ ------ ---- ---- ------- ----- -- ----<br>-------- ------- -- ---------- --- - --- ----- ----- ----<br>---- --- --- ----- --- ---- ---- ------- ----- ---- -------<br>--- --- as ----- -- --- ---- -- --- ---- -- ------ ------<br>--- ----- -- ----,69013.30000000075,69012.70000000112,68594.613,68597.40000000037,68611.277,69028.025,,41,as
screen,html.Screen,0_2_0_1_42,2021-11-04T12:43:20.242Z,,,,,,,,,,,,,,,,53,,,,,,,,,,,,,,472.6750000011234,,response,,,99,,,,,,Space,keypress(Space),,,,,---- -- ----- -- ------ - ------- --- ----------<br>------------- ------ ------ ---- ---- ------- ----- -- ----<br>-------- ------- -- ---------- --- - --- ----- ----- ----<br>---- --- --- ----- --- ---- ---- ------- ----- ---- -------<br>--- --- -- close -- --- ---- -- --- ---- -- ------ ------<br>--- ----- -- ----,69501.20000000112,69500.70000000112,69011.359,69013.5,69028.025,69511.234,,42,close
screen,html.Screen,0_2_0_1_43,2021-11-04T12:43:20.666Z,,,,,,,,,,,,,,,,53,,,,,,,,,,,,,,413.36599999963073,,response,,,99,,,,,,Space,keypress(Space),,,,,---- -- ----- -- ------ - ------- --- ----------<br>------------- ------ ------ ---- ---- ------- ----- -- ----<br>-------- ------- -- ---------- --- - --- ----- ----- ----<br>---- --- --- ----- --- ---- ---- ------- ----- ---- -------<br>--- --- -- ----- as --- ---- -- --- ---- -- ------ ------<br>--- ----- -- ----,69925.20000000112,69924.59999999963,69494.57,69501.40000000037,69511.234,69927.934,,43,as
screen,html.Screen,0_2_0_1_44,2021-11-04T12:43:21.122Z,,,,,,,,,,,,,,,,53,,,,,,,,,,,,,,452.66599999963364,,response,,,99,,,,,,Space,keypress(Space),,,,,---- -- ----- -- ------ - ------- --- ----------<br>------------- ------ ------ ---- ---- ------- ----- -- ----<br>-------- ------- -- ---------- --- - --- ----- ----- ----<br>---- --- --- ----- --- ---- ---- ------- ----- ---- -------<br>--- --- -- ----- -- you ---- -- --- ---- -- ------ ------<br>--- ----- -- ----,70381.30000000075,70380.59999999963,69911.269,69925.30000000075,69927.934,70394.563,,44,you
screen,html.Screen,0_2_0_1_45,2021-11-04T12:43:21.602Z,,,,,,,,,,,,,,,,53,,,,,,,,,,,,,,466.0369999996328,,response,,,99,,,,,,Space,keypress(Space),,,,,---- -- ----- -- ------ - ------- --- ----------<br>------------- ------ ------ ---- ---- ------- ----- -- ----<br>-------- ------- -- ---------- --- - --- ----- ----- ----<br>---- --- --- ----- --- ---- ---- ------- ----- ---- -------<br>--- --- -- ----- -- --- want -- --- ---- -- ------ ------<br>--- ----- -- ----,70861.20000000112,70860.59999999963,70377.898,70381.5,70394.563,70877.883,,45,want
screen,html.Screen,0_2_0_1_46,2021-11-04T12:43:22.114Z,,,,,,,,,,,,,,,,53,,,,,,,,,,,,,,494.71699999962584,,response,,,99,,,,,,Space,keypress(Space),,,,,---- -- ----- -- ------ - ------- --- ----------<br>------------- ------ ------ ---- ---- ------- ----- -- ----<br>-------- ------- -- ---------- --- - --- ----- ----- ----<br>---- --- --- ----- --- ---- ---- ------- ----- ---- -------<br>--- --- -- ----- -- --- ---- to --- ---- -- ------ ------<br>--- ----- -- ----,71373.30000000075,71372.59999999963,70861.218,70861.40000000037,70877.883,71377.856,,46,to
screen,html.Screen,0_2_0_1_47,2021-11-04T12:43:22.538Z,,,,,,,,,,,,,,,,53,,,,,,,,,,,,,,418.64400000000023,,response,,,99,,,,,,Space,keypress(Space),,,,,"---- -- ----- -- ------ - ------- --- ----------<br>------------- ------ ------ ---- ---- ------- ----- -- ----<br>-------- ------- -- ---------- --- - --- ----- ----- ----<br>---- --- --- ----- --- ---- ---- ------- ----- ---- -------<br>--- --- -- ----- -- --- ---- -- be, ---- -- ------ ------<br>--- ----- -- ----",71797.09999999963,71796.5,71361.191,71373.40000000037,71377.856,71811.156,,47,"be,"
screen,html.Screen,0_2_0_1_48,2021-11-04T12:43:23.090Z,,,,,,,,,,,,,,,,53,,,,,,,,,,,,,,537.2440000003699,,response,,,99,,,,,,Space,keypress(Space),,,,,---- -- ----- -- ------ - ------- --- ----------<br>------------- ------ ------ ---- ---- ------- ----- -- ----<br>-------- ------- -- ---------- --- - --- ----- ----- ----<br>---- --- --- ----- --- ---- ---- ------- ----- ---- -------<br>--- --- -- ----- -- --- ---- -- --- even -- ------ ------<br>--- ----- -- ----,72349,72348.40000000037,71794.491,71797.30000000075,71811.156,72361.113,,48,even
screen,html.Screen,0_2_0_1_49,2021-11-04T12:43:23.554Z,,,,,,,,,,,,,,,,53,,,,,,,,,,,,,,451.287000000375,,response,,,99,,,,,,Space,keypress(Space),,,,,---- -- ----- -- ------ - ------- --- ----------<br>------------- ------ ------ ---- ---- ------- ----- -- ----<br>-------- ------- -- ---------- --- - --- ----- ----- ----<br>---- --- --- ----- --- ---- ---- ------- ----- ---- -------<br>--- --- -- ----- -- --- ---- -- --- ---- if ------ ------<br>--- ----- -- ----,72813.09999999963,72812.40000000037,72344.448,72349.30000000075,72361.113,72827.773,,49,if
screen,html.Screen,0_2_0_1_50,2021-11-04T12:43:24.010Z,,,,,,,,,,,,,,,,53,,,,,,,,,,,,,,440.6270000003715,,response,,,99,,,,,,Space,keypress(Space),,,,,---- -- ----- -- ------ - ------- --- ----------<br>------------- ------ ------ ---- ---- ------- ----- -- ----<br>-------- ------- -- ---------- --- - --- ----- ----- ----<br>---- --- --- ----- --- ---- ---- ------- ----- ---- -------<br>--- --- -- ----- -- --- ---- -- --- ---- -- that's ------<br>--- ----- -- ----,73269.09999999963,73268.40000000037,72811.108,72813.30000000075,72827.773,73277.739,,50,that's
screen,html.Screen,0_2_0_1_51,2021-11-04T12:43:24.418Z,,,,,,,,,,,,,,,,53,,,,,,,,,,,,,,398.66100000037113,,response,,,99,,,,,,Space,keypress(Space),,,,,---- -- ----- -- ------ - ------- --- ----------<br>------------- ------ ------ ---- ---- ------- ----- -- ----<br>-------- ------- -- ---------- --- - --- ----- ----- ----<br>---- --- --- ----- --- ---- ---- ------- ----- ---- -------<br>--- --- -- ----- -- --- ---- -- --- ---- -- ------ really<br>--- ----- -- ----,73677,73676.40000000037,73261.074,73269.30000000075,73277.739,73677.729,,51,really
screen,html.Screen,0_2_0_1_52,2021-11-04T12:43:24.826Z,,,,,,,,,,,,,,,,53,,,,,,,,,,,,,,406.5710000007384,,response,,,99,,,,,,Space,keypress(Space),,,,,---- -- ----- -- ------ - ------- --- ----------<br>------------- ------ ------ ---- ---- ------- ----- -- ----<br>-------- ------- -- ---------- --- - --- ----- ----- ----<br>---- --- --- ----- --- ---- ---- ------- ----- ---- -------<br>--- --- -- ----- -- --- ---- -- --- ---- -- ------ ------<br>not ----- -- ----,74085.09999999963,74084.30000000075,73661.064,73677.30000000075,73677.729,74094.365,,52,not
screen,html.Screen,0_2_0_1_53,2021-11-04T12:43:25.266Z,,,,,,,,,,,,,,,,53,,,,,,,,,,,,,,430.0350000003673,,response,,,99,,,,,,Space,keypress(Space),,,,,---- -- ----- -- ------ - ------- --- ----------<br>------------- ------ ------ ---- ---- ------- ----- -- ----<br>-------- ------- -- ---------- --- - --- ----- ----- ----<br>---- --- --- ----- --- ---- ---- ------- ----- ---- -------<br>--- --- -- ----- -- --- ---- -- --- ---- -- ------ ------<br>--- close -- ----,74525,74524.40000000037,74077.7,74085.30000000075,74094.365,74527.672,,53,close
screen,html.Screen,0_2_0_1_54,2021-11-04T12:43:25.730Z,,,,,,,,,,,,,,,,53,,,,,,,,,,,,,,460.92799999962153,,response,,,99,,,,,,Space,keypress(Space),,,,,---- -- ----- -- ------ - ------- --- ----------<br>------------- ------ ------ ---- ---- ------- ----- -- ----<br>-------- ------- -- ---------- --- - --- ----- ----- ----<br>---- --- --- ----- --- ---- ---- ------- ----- ---- -------<br>--- --- -- ----- -- --- ---- -- --- ---- -- ------ ------<br>--- ----- at ----,74989.20000000112,74988.59999999963,74511.007,74525.20000000112,74527.672,74994.384,,54,at
screen,html.Screen,0_2_0_1_55,2021-11-04T12:43:27.202Z,,,,,,,,,,,,,,,,53,,,,,,,,,,,,,,1465.8160000011121,,response,,,99,,,,,,Space,keypress(Space),,,,,---- -- ----- -- ------ - ------- --- ----------<br>------------- ------ ------ ---- ---- ------- ----- -- ----<br>-------- ------- -- ---------- --- - --- ----- ----- ----<br>---- --- --- ----- --- ---- ---- ------- ----- ---- -------<br>--- --- -- ----- -- --- ---- -- --- ---- -- ------ ------<br>--- ----- -- all.,76460.90000000037,76460.20000000112,74977.718,74989.40000000037,74994.384,76477.537,,55,all.
Item 99,flow.Loop,0_2_0_1,2021-11-04T12:43:27.205Z,,,,,,,,,,,,,,,,,,,,,,,,,,,,,,30064.363000001118,,completion,,,,C,,,,,,,,,,silence,,76463.90000000037,76460.20000000112,46379.172,46383.09999999963,46395.837,76477.537,,,
Question 1,html.Screen,0_2_0_2,2021-11-04T12:43:36.433Z,,,,,,,,,,,,,,,,,,,,,,,,,,,true,FALSE,,9213.763000000748,,response,,,99,C,,,,,FALSE,click #choice-2,,,,silence,,85692.20000000112,85691.30000000075,76460.872,76464.09999999963,76477.537,85693.654,,,
Question 2,html.Screen,0_2_0_3,2021-11-04T12:43:42.970Z,,,,,,,,,,,,,,,,,,,,,,,,,,,true,TRUE,,6534.9459999996325,,response,,,99,C,,,,,TRUE,click #choice-1,,,,silence,,92229.40000000037,92228.59999999963,85676.991,85692.40000000037,85693.654,92242.524,,,
Item 99,flow.Sequence,0_2_0,2021-11-04T12:43:42.971Z,,,,,,,,,,,,,,,,,,,,,,,,,,,,,,55832.29199999963,,completion,,,,,,,,,,,,,,,,92229.70000000112,92228.59999999963,36379.643,36380.90000000037,36396.308,92242.524,,,
Holding screen,html.Screen,0_2_1_0,2021-11-04T12:43:52.969Z,,,,,,,,,,,,,,,,,,,,,,,,,,,,,,10000.260999999999,,timeout,,,,,,,,,,,,,,,,102227.70000000112,102226.12,92225.871,92229.90000000037,92242.524,102242.785,,,
screen,html.Screen,0_2_1_1_0,2021-11-04T12:43:54.169Z,,,,,,,,,,,,,,,,54,,,,,,,,,,,,,,1184.314999999624,,response,,,100,,,,,,Space,keypress(Space),,,,,At --- ---- --- ------ ----- ------- ---- -- --- ------- --<br>------- ---------- ------ -- ----- -- ----- -- ---- ------<br>--- ----- --- --- ------ -------- ----- --- ------ ----- --<br>----- ----- ---------- --- --- ------ ------ ---- -- ------<br>------- --- ------ ----- --- ---- ------- -- ---- --- --<br>------- ------,103427.80000000075,103427.09999999963,102226.12,102227.90000000037,102242.785,103442.679,,0,At
screen,html.Screen,0_2_1_1_1,2021-11-04T12:43:54.648Z,,,,,,,,,,,,,,,,54,,,,,,,,,,,,,,464.12100000074133,,response,,,100,,,,,,Space,keypress(Space),,,,,-- the ---- --- ------ ----- ------- ---- -- --- ------- --<br>------- ---------- ------ -- ----- -- ----- -- ---- ------<br>--- ----- --- --- ------ -------- ----- --- ------ ----- --<br>----- ----- ---------- --- --- ------ ------ ---- -- ------<br>------- --- ------ ----- --- ---- ------- -- ---- --- --<br>------- ------,103907.40000000037,103906.80000000075,103426.014,103428,103442.679,103909.349,,1,the
screen,html.Screen,0_2_1_1_2,2021-11-04T12:43:55.120Z,,,,,,,,,,,,,,,,54,,,,,,,,,,,,,,469.3510000011156,,response,,,100,,,,,,Space,keypress(Space),,,,,-- --- time --- ------ ----- ------- ---- -- --- ------- --<br>------- ---------- ------ -- ----- -- ----- -- ---- ------<br>--- ----- --- --- ------ -------- ----- --- ------ ----- --<br>----- ----- ---------- --- --- ------ ------ ---- -- ------<br>------- --- ------ ----- --- ---- ------- -- ---- --- --<br>------- ------,104379.20000000112,104378.70000000112,103892.684,103907.5,103909.349,104392.694,,2,time
screen,html.Screen,0_2_1_1_3,2021-11-04T12:43:55.536Z,,,,,,,,,,,,,,,,54,,,,,,,,,,,,,,402.1060000007419,,response,,,100,,,,,,Space,keypress(Space),,,,,-- --- ---- the ------ ----- ------- ---- -- --- ------- --<br>------- ---------- ------ -- ----- -- ----- -- ---- ------<br>--- ----- --- --- ------ -------- ----- --- ------ ----- --<br>----- ----- ---------- --- --- ------ ------ ---- -- ------<br>------- --- ------ ----- --- ---- ------- -- ---- --- --<br>------- ------,104795.40000000037,104794.80000000075,104376.029,104379.5,104392.694,104809.345,,3,the
screen,html.Screen,0_2_1_1_4,2021-11-04T12:43:56.184Z,,,,,,,,,,,,,,,,54,,,,,,,,,,,,,,633.3550000011164,,response,,,100,,,,,,Space,keypress(Space),,,,,-- --- ---- --- French ----- ------- ---- -- --- ------- --<br>------- ---------- ------ -- ----- -- ----- -- ---- ------<br>--- ----- --- --- ------ -------- ----- --- ------ ----- --<br>----- ----- ---------- --- --- ------ ------ ---- -- ------<br>------- --- ------ ----- --- ---- ------- -- ---- --- --<br>------- ------,105443.30000000075,105442.70000000112,104792.68,104795.59999999963,104809.345,105459.36,,4,French
screen,html.Screen,0_2_1_1_5,2021-11-04T12:43:56.592Z,,,,,,,,,,,,,,,,54,,,,,,,,,,,,,,391.2399999996269,,response,,,100,,,,,,Space,keypress(Space),,,,,-- --- ---- --- ------ crown ------- ---- -- --- ------- --<br>------- ---------- ------ -- ----- -- ----- -- ---- ------<br>--- ----- --- --- ------ -------- ----- --- ------ ----- --<br>----- ----- ---------- --- --- ------ ------ ---- -- ------<br>------- --- ------ ----- --- ---- ------- -- ---- --- --<br>------- ------,105851.30000000075,105850.59999999963,105442.694,105443.59999999963,105459.36,105859.228,,5,crown
screen,html.Screen,0_2_1_1_6,2021-11-04T12:43:57.104Z,,,,,,,,,,,,,,,,54,,,,,,,,,,,,,,503.4720000011148,,response,,,100,,,,,,Space,keypress(Space),,,,,-- --- ---- --- ------ ----- secured ---- -- --- ------- --<br>------- ---------- ------ -- ----- -- ----- -- ---- ------<br>--- ----- --- --- ------ -------- ----- --- ------ ----- --<br>----- ----- ---------- --- --- ------ ------ ---- -- ------<br>------- --- ------ ----- --- ---- ------- -- ---- --- --<br>------- ------,106363.20000000112,106362.70000000112,105842.564,105851.40000000037,105859.228,106375.911,,6,secured
screen,html.Screen,0_2_1_1_7,2021-11-04T12:43:57.624Z,,,,,,,,,,,,,,,,54,,,,,,,,,,,,,,506.6889999996347,,response,,,100,,,,,,Space,keypress(Space),,,,,-- --- ---- --- ------ ----- ------- much -- --- ------- --<br>------- ---------- ------ -- ----- -- ----- -- ---- ------<br>--- ----- --- --- ------ -------- ----- --- ------ ----- --<br>----- ----- ---------- --- --- ------ ------ ---- -- ------<br>------- --- ------ ----- --- ---- ------- -- ---- --- --<br>------- ------,106883.09999999963,106882.59999999963,106359.246,106363.40000000037,106375.911,106892.559,,7,much
screen,html.Screen,0_2_1_1_8,2021-11-04T12:43:58.496Z,,,,,,,,,,,,,,,,54,,,,,,,,,,,,,,862.0409999996336,,response,,,100,,,,,,Space,keypress(Space),,,,,-- --- ---- --- ------ ----- ------- ---- of --- ------- --<br>------- ---------- ------ -- ----- -- ----- -- ---- ------<br>--- ----- --- --- ------ -------- ----- --- ------ ----- --<br>----- ----- ---------- --- --- ------ ------ ---- -- ------<br>------- --- ------ ----- --- ---- ------- -- ---- --- --<br>------- ------,107755.20000000112,107754.59999999963,106875.894,106883.30000000075,106892.559,107759.166,,8,of
screen,html.Screen,0_2_1_1_9,2021-11-04T12:43:59.120Z,,,,,,,,,,,,,,,,54,,,,,,,,,,,,,,619.3340000000026,,response,,,100,,,,,,Space,keypress(Space),,,,,-- --- ---- --- ------ ----- ------- ---- -- its ------- --<br>------- ---------- ------ -- ----- -- ----- -- ---- ------<br>--- ----- --- --- ------ -------- ----- --- ------ ----- --<br>----- ----- ---------- --- --- ------ ------ ---- -- ------<br>------- --- ------ ----- --- ---- ------- -- ---- --- --<br>------- ------,108379.09999999963,108378.5,107742.501,107755.40000000037,107759.166,108392.544,,9,its
screen,html.Screen,0_2_1_1_10,2021-11-04T12:43:59.800Z,,,,,,,,,,,,,,,,54,,,,,,,,,,,,,,665.9560000000056,,response,,,100,,,,,,Space,keypress(Space),,,,,-- --- ---- --- ------ ----- ------- ---- -- --- revenue --<br>------- ---------- ------ -- ----- -- ----- -- ---- ------<br>--- ----- --- --- ------ -------- ----- --- ------ ----- --<br>----- ----- ---------- --- --- ------ ------ ---- -- ------<br>------- --- ------ ----- --- ---- ------- -- ---- --- --<br>------- ------,109059.20000000112,109058.5,108375.878,108379.30000000075,108392.544,109075.741,,10,revenue
screen,html.Screen,0_2_1_1_11,2021-11-04T12:44:00.312Z,,,,,,,,,,,,,,,,54,,,,,,,,,,,,,,494.659000000378,,response,,,100,,,,,,Space,keypress(Space),,,,,-- --- ---- --- ------ ----- ------- ---- -- --- ------- by<br>------- ---------- ------ -- ----- -- ----- -- ---- ------<br>--- ----- --- --- ------ -------- ----- --- ------ ----- --<br>----- ----- ---------- --- --- ------ ------ ---- -- ------<br>------- --- ------ ----- --- ---- ------- -- ---- --- --<br>------- ------,109571,109570.40000000037,109059.076,109059.30000000075,109075.741,109575.803,,11,by
screen,html.Screen,0_2_1_1_12,2021-11-04T12:44:00.872Z,,,,,,,,,,,,,,,,54,,,,,,,,,,,,,,554.6970000000001,,response,,,100,,,,,,Space,keypress(Space),,,,,-- --- ---- --- ------ ----- ------- ---- -- --- ------- --<br>issuing ---------- ------ -- ----- -- ----- -- ---- ------<br>--- ----- --- --- ------ -------- ----- --- ------ ----- --<br>----- ----- ---------- --- --- ------ ------ ---- -- ------<br>------- --- ------ ----- --- ---- ------- -- ---- --- --<br>------- ------,110131.09999999963,110130.5,109559.137,109571.20000000112,109575.803,110142.356,,12,issuing
screen,html.Screen,0_2_1_1_13,2021-11-04T12:44:01.648Z,,,,,,,,,,,,,,,,54,,,,,,,,,,,,,,764.0440000003728,,response,,,100,,,,,,Space,keypress(Space),,,,,-- --- ---- --- ------ ----- ------- ---- -- --- ------- --<br>------- government ------ -- ----- -- ----- -- ---- ------<br>--- ----- --- --- ------ -------- ----- --- ------ ----- --<br>----- ----- ---------- --- --- ------ ------ ---- -- ------<br>------- --- ------ ----- --- ---- ------- -- ---- --- --<br>------- ------,110907,110906.40000000037,110125.691,110131.30000000075,110142.356,110909.085,,13,government
screen,html.Screen,0_2_1_1_14,2021-11-04T12:44:02.608Z,,,,,,,,,,,,,,,,54,,,,,,,,,,,,,,957.2150000007387,,response,,,100,,,,,,Space,keypress(Space),,,,,-- --- ---- --- ------ ----- ------- ---- -- --- ------- --<br>------- ---------- bonds. -- ----- -- ----- -- ---- ------<br>--- ----- --- --- ------ -------- ----- --- ------ ----- --<br>----- ----- ---------- --- --- ------ ------ ---- -- ------<br>------- --- ------ ----- --- ---- ------- -- ---- --- --<br>------- ------,111867,111866.30000000075,110892.419,110907.09999999963,110909.085,111875.602,,14,bonds.
screen,html.Screen,0_2_1_1_15,2021-11-04T12:44:03.192Z,,,,,,,,,,,,,,,,54,,,,,,,,,,,,,,574.6980000007461,,response,,,100,,,,,,Space,keypress(Space),,,,,-- --- ---- --- ------ ----- ------- ---- -- --- ------- --<br>------- ---------- ------ In ----- -- ----- -- ---- ------<br>--- ----- --- --- ------ -------- ----- --- ------ ----- --<br>----- ----- ---------- --- --- ------ ------ ---- -- ------<br>------- --- ------ ----- --- ---- ------- -- ---- --- --<br>------- ------,112450.80000000075,112450.30000000075,111858.937,111867.09999999963,111875.602,112458.881,,15,In
screen,html.Screen,0_2_1_1_16,2021-11-04T12:44:04.784Z,,,,,,,,,,,,,,,,54,,,,,,,,,,,,,,1583.7189999996335,,response,,,100,,,,,,Space,keypress(Space),,,,,"-- --- ---- --- ------ ----- ------- ---- -- --- ------- --<br>------- ---------- ------ -- 1727, -- ----- -- ---- ------<br>--- ----- --- --- ------ -------- ----- --- ------ ----- --<br>----- ----- ---------- --- --- ------ ------ ---- -- ------<br>------- --- ------ ----- --- ---- ------- -- ---- --- --<br>------- ------",114043.09999999963,114042.59999999963,112442.216,112451,112458.881,114058.912,,16,"1727,"
screen,html.Screen,0_2_1_1_17,2021-11-04T12:44:05.256Z,,,,,,,,,,,,,,,,54,,,,,,,,,,,,,,455.28800000112096,,response,,,100,,,,,,Space,keypress(Space),,,,,-- --- ---- --- ------ ----- ------- ---- -- --- ------- --<br>------- ---------- ------ -- ----- in ----- -- ---- ------<br>--- ----- --- --- ------ -------- ----- --- ------ ----- --<br>----- ----- ---------- --- --- ------ ------ ---- -- ------<br>------- --- ------ ----- --- ---- ------- -- ---- --- --<br>------- ------,114514.90000000037,114514.20000000112,114042.246,114043.30000000075,114058.912,114525.323,,17,in
screen,html.Screen,0_2_1_1_18,2021-11-04T12:44:05.832Z,,,,,,,,,,,,,,,,54,,,,,,,,,,,,,,564.8770000011136,,response,,,100,,,,,,Space,keypress(Space),,,,,-- --- ---- --- ------ ----- ------- ---- -- --- ------- --<br>------- ---------- ------ -- ----- -- order -- ---- ------<br>--- ----- --- --- ------ -------- ----- --- ------ ----- --<br>----- ----- ---------- --- --- ------ ------ ---- -- ------<br>------- --- ------ ----- --- ---- ------- -- ---- --- --<br>------- ------,115090.80000000075,115090.20000000112,114508.659,114515,114525.323,115092.108,,18,order
screen,html.Screen,0_2_1_1_19,2021-11-04T12:44:06.280Z,,,,,,,,,,,,,,,,54,,,,,,,,,,,,,,445.9919999996346,,response,,,100,,,,,,Space,keypress(Space),,,,,-- --- ---- --- ------ ----- ------- ---- -- --- ------- --<br>------- ---------- ------ -- ----- -- ----- to ---- ------<br>--- ----- --- --- ------ -------- ----- --- ------ ----- --<br>----- ----- ---------- --- --- ------ ------ ---- -- ------<br>------- --- ------ ----- --- ---- ------- -- ---- --- --<br>------- ------,115538.80000000075,115538.09999999963,115075.443,115091,115092.108,115542.074,,19,to
screen,html.Screen,0_2_1_1_20,2021-11-04T12:44:06.655Z,,,,,,,,,,,,,,,,54,,,,,,,,,,,,,,372.0259999996342,,response,,,100,,,,,,Space,keypress(Space),,,,,-- --- ---- --- ------ ----- ------- ---- -- --- ------- --<br>------- ---------- ------ -- ----- -- ----- -- save ------<br>--- ----- --- --- ------ -------- ----- --- ------ ----- --<br>----- ----- ---------- --- --- ------ ------ ---- -- ------<br>------- --- ------ ----- --- ---- ------- -- ---- --- --<br>------- ------,115914.59999999963,115914.09999999963,115525.409,115539.09999999963,115542.074,115925.389,,20,save
screen,html.Screen,0_2_1_1_21,2021-11-04T12:44:07.056Z,,,,,,,,,,,,,,,,54,,,,,,,,,,,,,,388.7109999996319,,response,,,100,,,,,,Space,keypress(Space),,,,,"-- --- ---- --- ------ ----- ------- ---- -- --- ------- --<br>------- ---------- ------ -- ----- -- ----- -- ---- money,<br>--- ----- --- --- ------ -------- ----- --- ------ ----- --<br>----- ----- ---------- --- --- ------ ------ ---- -- ------<br>------- --- ------ ----- --- ---- ------- -- ---- --- --<br>------- ------",116314.70000000112,116314.09999999963,115908.724,115914.90000000037,115925.389,116325.43,,21,"money,"
screen,html.Screen,0_2_1_1_22,2021-11-04T12:44:07.487Z,,,,,,,,,,,,,,,,54,,,,,,,,,,,,,,420.570000000007,,response,,,100,,,,,,Space,keypress(Space),,,,,-- --- ---- --- ------ ----- ------- ---- -- --- ------- --<br>------- ---------- ------ -- ----- -- ----- -- ---- ------<br>the ----- --- --- ------ -------- ----- --- ------ ----- --<br>----- ----- ---------- --- --- ------ ------ ---- -- ------<br>------- --- ------ ----- --- ---- ------- -- ---- --- --<br>------- ------,116746.59999999963,116746,116308.764,116315,116325.43,116758.638,,22,the
screen,html.Screen,0_2_1_1_23,2021-11-04T12:44:07.879Z,,,,,,,,,,,,,,,,54,,,,,,,,,,,,,,379.3619999999937,,response,,,100,,,,,,Space,keypress(Space),,,,,-- --- ---- --- ------ ----- ------- ---- -- --- ------- --<br>------- ---------- ------ -- ----- -- ----- -- ---- ------<br>--- state --- --- ------ -------- ----- --- ------ ----- --<br>----- ----- ---------- --- --- ------ ------ ---- -- ------<br>------- --- ------ ----- --- ---- ------- -- ---- --- --<br>------- ------,117138.59999999963,117138,116741.974,116746.80000000075,116758.638,117141.972,,23,state
screen,html.Screen,0_2_1_1_24,2021-11-04T12:44:08.351Z,,,,,,,,,,,,,,,,54,,,,,,,,,,,,,,468.0280000000057,,response,,,100,,,,,,Space,keypress(Space),,,,,-- --- ---- --- ------ ----- ------- ---- -- --- ------- --<br>------- ---------- ------ -- ----- -- ----- -- ---- ------<br>--- ----- cut --- ------ -------- ----- --- ------ ----- --<br>----- ----- ---------- --- --- ------ ------ ---- -- ------<br>------- --- ------ ----- --- ---- ------- -- ---- --- --<br>------- ------,117610.59999999963,117610,117125.307,117138.90000000037,117141.972,117625.337,,24,cut
screen,html.Screen,0_2_1_1_25,2021-11-04T12:44:08.863Z,,,,,,,,,,,,,,,,54,,,,,,,,,,,,,,496.66300000000047,,response,,,100,,,,,,Space,keypress(Space),,,,,-- --- ---- --- ------ ----- ------- ---- -- --- ------- --<br>------- ---------- ------ -- ----- -- ----- -- ---- ------<br>--- ----- --- the ------ -------- ----- --- ------ ----- --<br>----- ----- ---------- --- --- ------ ------ ---- -- ------<br>------- --- ------ ----- --- ---- ------- -- ---- --- --<br>------- ------,118122.5,118122,117608.671,117610.80000000075,117625.337,118125.321,,25,the
screen,html.Screen,0_2_1_1_26,2021-11-04T12:44:09.463Z,,,,,,,,,,,,,,,,54,,,,,,,,,,,,,,596.5790000003763,,response,,,100,,,,,,Space,keypress(Space),,,,,-- --- ---- --- ------ ----- ------- ---- -- --- ------- --<br>------- ---------- ------ -- ----- -- ----- -- ---- ------<br>--- ----- --- --- bonds' -------- ----- --- ------ ----- --<br>----- ----- ---------- --- --- ------ ------ ---- -- ------<br>------- --- ------ ----- --- ---- ------- -- ---- --- --<br>------- ------,118722.59999999963,118721.90000000037,118108.655,118122.70000000112,118125.321,118725.217,,26,bonds'
screen,html.Screen,0_2_1_1_27,2021-11-04T12:44:10.367Z,,,,,,,,,,,,,,,,54,,,,,,,,,,,,,,900.6830000003683,,response,,,100,,,,,,Space,keypress(Space),,,,,-- --- ---- --- ------ ----- ------- ---- -- --- ------- --<br>------- ---------- ------ -- ----- -- ----- -- ---- ------<br>--- ----- --- --- ------ interest ----- --- ------ ----- --<br>----- ----- ---------- --- --- ------ ------ ---- -- ------<br>------- --- ------ ----- --- ---- ------- -- ---- --- --<br>------- ------,119626.59999999963,119625.90000000037,118708.552,118722.80000000075,118725.217,119641.827,,27,interest
screen,html.Screen,0_2_1_1_28,2021-11-04T12:44:11.186Z,,,,,,,,,,,,,,,,54,,,,,,,,,,,,,,800.0730000003678,,response,,,100,,,,,,Space,keypress(Space),,,,,-- --- ---- --- ------ ----- ------- ---- -- --- ------- --<br>------- ---------- ------ -- ----- -- ----- -- ---- ------<br>--- ----- --- --- ------ -------- rate. --- ------ ----- --<br>----- ----- ---------- --- --- ------ ------ ---- -- ------<br>------- --- ------ ----- --- ---- ------- -- ---- --- --<br>------- ------,120442.5,120441.90000000037,119625.162,119626.90000000037,119641.827,120458.441,,28,rate.
screen,html.Screen,0_2_1_1_29,2021-11-04T12:44:11.834Z,,,,,,,,,,,,,,,,54,,,,,,,,,,,,,,631.3590000007389,,response,,,100,,,,,,Space,keypress(Space),,,,,-- --- ---- --- ------ ----- ------- ---- -- --- ------- --<br>------- ---------- ------ -- ----- -- ----- -- ---- ------<br>--- ----- --- --- ------ -------- ----- The ------ ----- --<br>----- ----- ---------- --- --- ------ ------ ---- -- ------<br>------- --- ------ ----- --- ---- ------- -- ---- --- --<br>------- ------,121090.40000000037,121089.80000000075,120441.776,120442.70000000112,120458.441,121091.833,,29,The
screen,html.Screen,0_2_1_1_30,2021-11-04T12:44:12.498Z,,,,,,,,,,,,,,,,54,,,,,,,,,,,,,,661.9670000007463,,response,,,100,,,,,,Space,keypress(Space),,,,,-- --- ---- --- ------ ----- ------- ---- -- --- ------- --<br>------- ---------- ------ -- ----- -- ----- -- ---- ------<br>--- ----- --- --- ------ -------- ----- --- market ----- --<br>----- ----- ---------- --- --- ------ ------ ---- -- ------<br>------- --- ------ ----- --- ---- ------- -- ---- --- --<br>------- ------,121754.40000000037,121753.80000000075,121075.167,121090.70000000112,121091.833,121758.374,,30,market
screen,html.Screen,0_2_1_1_31,2021-11-04T12:44:12.914Z,,,,,,,,,,,,,,,,54,,,,,,,,,,,,,,411.32600000112143,,response,,,100,,,,,,Space,keypress(Space),,,,,-- --- ---- --- ------ ----- ------- ---- -- --- ------- --<br>------- ---------- ------ -- ----- -- ----- -- ---- ------<br>--- ----- --- --- ------ -------- ----- --- ------ value --<br>----- ----- ---------- --- --- ------ ------ ---- -- ------<br>------- --- ------ ----- --- ---- ------- -- ---- --- --<br>------- ------,122170.30000000075,122169.70000000112,121741.709,121754.5,121758.374,122175.106,,31,value
screen,html.Screen,0_2_1_1_32,2021-11-04T12:44:13.538Z,,,,,,,,,,,,,,,,54,,,,,,,,,,,,,,618.5940000011178,,response,,,100,,,,,,Space,keypress(Space),,,,,-- --- ---- --- ------ ----- ------- ---- -- --- ------- --<br>------- ---------- ------ -- ----- -- ----- -- ---- ------<br>--- ----- --- --- ------ -------- ----- --- ------ ----- of<br>----- ----- ---------- --- --- ------ ------ ---- -- ------<br>------- --- ------ ----- --- ---- ------- -- ---- --- --<br>------- ------,122794.30000000075,122793.70000000112,122158.44,122170.5,122175.106,122808.325,,32,of
screen,html.Screen,0_2_1_1_33,2021-11-04T12:44:14.138Z,,,,,,,,,,,,,,,,54,,,,,,,,,,,,,,585.3750000011205,,response,,,100,,,,,,Space,keypress(Space),,,,,-- --- ---- --- ------ ----- ------- ---- -- --- ------- --<br>------- ---------- ------ -- ----- -- ----- -- ---- ------<br>--- ----- --- --- ------ -------- ----- --- ------ ----- --<br>these ----- ---------- --- --- ------ ------ ---- -- ------<br>------- --- ------ ----- --- ---- ------- -- ---- --- --<br>------- ------,123394.30000000075,123393.70000000112,122791.66,122794.5,122808.325,123408.31,,33,these
screen,html.Screen,0_2_1_1_34,2021-11-04T12:44:14.754Z,,,,,,,,,,,,,,,,54,,,,,,,,,,,,,,601.2899999996298,,response,,,100,,,,,,Space,keypress(Space),,,,,-- --- ---- --- ------ ----- ------- ---- -- --- ------- --<br>------- ---------- ------ -- ----- -- ----- -- ---- ------<br>--- ----- --- --- ------ -------- ----- --- ------ ----- --<br>----- bonds ---------- --- --- ------ ------ ---- -- ------<br>------- --- ------ ----- --- ---- ------- -- ---- --- --<br>------- ------,124010.20000000112,124009.59999999963,123391.645,123394.5,123408.31,124024.932,,34,bonds
screen,html.Screen,0_2_1_1_35,2021-11-04T12:44:15.386Z,,,,,,,,,,,,,,,,54,,,,,,,,,,,,,,616.9680000003718,,response,,,100,,,,,,Space,keypress(Space),,,,,"-- --- ---- --- ------ ----- ------- ---- -- --- ------- --<br>------- ---------- ------ -- ----- -- ----- -- ---- ------<br>--- ----- --- --- ------ -------- ----- --- ------ ----- --<br>----- ----- plummeted, --- --- ------ ------ ---- -- ------<br>------- --- ------ ----- --- ---- ------- -- ---- --- --<br>------- ------",124642.5,124641.90000000037,124008.267,124010.40000000037,124024.932,124658.227,,35,"plummeted,"
screen,html.Screen,0_2_1_1_36,2021-11-04T12:44:15.874Z,,,,,,,,,,,,,,,,54,,,,,,,,,,,,,,471.3729999996285,,response,,,100,,,,,,Space,keypress(Space),,,,,-- --- ---- --- ------ ----- ------- ---- -- --- ------- --<br>------- ---------- ------ -- ----- -- ----- -- ---- ------<br>--- ----- --- --- ------ -------- ----- --- ------ ----- --<br>----- ----- ---------- and --- ------ ------ ---- -- ------<br>------- --- ------ ----- --- ---- ------- -- ---- --- --<br>------- ------,125130.20000000112,125129.59999999963,124641.562,124642.59999999963,124658.227,125141.534,,36,and
screen,html.Screen,0_2_1_1_37,2021-11-04T12:44:16.442Z,,,,,,,,,,,,,,,,54,,,,,,,,,,,,,,555.9660000000003,,response,,,100,,,,,,Space,keypress(Space),,,,,-- --- ---- --- ------ ----- ------- ---- -- --- ------- --<br>------- ---------- ------ -- ----- -- ----- -- ---- ------<br>--- ----- --- --- ------ -------- ----- --- ------ ----- --<br>----- ----- ---------- --- the ------ ------ ---- -- ------<br>------- --- ------ ----- --- ---- ------- -- ---- --- --<br>------- ------,125698.20000000112,125697.5,125124.869,125130.40000000037,125141.534,125708.183,,37,the
screen,html.Screen,0_2_1_1_38,2021-11-04T12:44:16.922Z,,,,,,,,,,,,,,,,54,,,,,,,,,,,,,,469.31699999999546,,response,,,100,,,,,,Space,keypress(Space),,,,,-- --- ---- --- ------ ----- ------- ---- -- --- ------- --<br>------- ---------- ------ -- ----- -- ----- -- ---- ------<br>--- ----- --- --- ------ -------- ----- --- ------ ----- --<br>----- ----- ---------- --- --- market ------ ---- -- ------<br>------- --- ------ ----- --- ---- ------- -- ---- --- --<br>------- ------,126178.09999999963,126177.5,125691.518,125698.30000000075,125708.183,126191.564,,38,market
screen,html.Screen,0_2_1_1_39,2021-11-04T12:44:17.362Z,,,,,,,,,,,,,,,,54,,,,,,,,,,,,,,425.9360000000015,,response,,,100,,,,,,Space,keypress(Space),,,,,-- --- ---- --- ------ ----- ------- ---- -- --- ------- --<br>------- ---------- ------ -- ----- -- ----- -- ---- ------<br>--- ----- --- --- ------ -------- ----- --- ------ ----- --<br>----- ----- ---------- --- --- ------ became ---- -- ------<br>------- --- ------ ----- --- ---- ------- -- ---- --- --<br>------- ------,126618.20000000112,126617.5,126174.898,126178.30000000075,126191.564,126624.754,,39,became
screen,html.Screen,0_2_1_1_40,2021-11-04T12:44:17.850Z,,,,,,,,,,,,,,,,54,,,,,,,,,,,,,,480.6460000003717,,response,,,100,,,,,,Space,keypress(Space),,,,,-- --- ---- --- ------ ----- ------- ---- -- --- ------- --<br>------- ---------- ------ -- ----- -- ----- -- ---- ------<br>--- ----- --- --- ------ -------- ----- --- ------ ----- --<br>----- ----- ---------- --- --- ------ ------ wary -- ------<br>------- --- ------ ----- --- ---- ------- -- ---- --- --<br>------- ------,127106.09999999963,127105.40000000037,126608.09,126618.40000000037,126624.754,127108.176,,40,wary
screen,html.Screen,0_2_1_1_41,2021-11-04T12:44:18.234Z,,,,,,,,,,,,,,,,54,,,,,,,,,,,,,,381.2240000003658,,response,,,100,,,,,,Space,keypress(Space),,,,,-- --- ---- --- ------ ----- ------- ---- -- --- ------- --<br>------- ---------- ------ -- ----- -- ----- -- ---- ------<br>--- ----- --- --- ------ -------- ----- --- ------ ----- --<br>----- ----- ---------- --- --- ------ ------ ---- of ------<br>------- --- ------ ----- --- ---- ------- -- ---- --- --<br>------- ------,127490,127489.40000000037,127091.51,127107,127108.176,127491.454,,41,of
screen,html.Screen,0_2_1_1_42,2021-11-04T12:44:18.858Z,,,,,,,,,,,,,,,,54,,,,,,,,,,,,,,622.0460000000021,,response,,,100,,,,,,Space,keypress(Space),,,,,-- --- ---- --- ------ ----- ------- ---- -- --- ------- --<br>------- ---------- ------ -- ----- -- ----- -- ---- ------<br>--- ----- --- --- ------ -------- ----- --- ------ ----- --<br>----- ----- ---------- --- --- ------ ------ ---- -- French<br>------- --- ------ ----- --- ---- ------- -- ---- --- --<br>------- ------,128114.09999999963,128113.5,127474.789,127490.20000000112,127491.454,128124.648,,42,French
screen,html.Screen,0_2_1_1_43,2021-11-04T12:44:19.410Z,,,,,,,,,,,,,,,,54,,,,,,,,,,,,,,540.7520000003715,,response,,,100,,,,,,Space,keypress(Space),,,,,-- --- ---- --- ------ ----- ------- ---- -- --- ------- --<br>------- ---------- ------ -- ----- -- ----- -- ---- ------<br>--- ----- --- --- ------ -------- ----- --- ------ ----- --<br>----- ----- ---------- --- --- ------ ------ ---- -- ------<br>credit. --- ------ ----- --- ---- ------- -- ---- --- --<br>------- ------,128666,128665.40000000037,128107.984,128114.20000000112,128124.648,128674.764,,43,credit.
screen,html.Screen,0_2_1_1_44,2021-11-04T12:44:20.081Z,,,,,,,,,,,,,,,,54,,,,,,,,,,,,,,662.636000000377,,response,,,100,,,,,,Space,keypress(Space),,,,,-- --- ---- --- ------ ----- ------- ---- -- --- ------- --<br>------- ---------- ------ -- ----- -- ----- -- ---- ------<br>--- ----- --- --- ------ -------- ----- --- ------ ----- --<br>----- ----- ---------- --- --- ------ ------ ---- -- ------<br>------- The ------ ----- --- ---- ------- -- ---- --- --<br>------- ------,129338,129337.40000000037,128658.098,128666.20000000112,128674.764,129341.339,,44,The
screen,html.Screen,0_2_1_1_45,2021-11-04T12:44:20.554Z,,,,,,,,,,,,,,,,54,,,,,,,,,,,,,,468.0610000003653,,response,,,100,,,,,,Space,keypress(Space),,,,,-- --- ---- --- ------ ----- ------- ---- -- --- ------- --<br>------- ---------- ------ -- ----- -- ----- -- ---- ------<br>--- ----- --- --- ------ -------- ----- --- ------ ----- --<br>----- ----- ---------- --- --- ------ ------ ---- -- ------<br>------- --- French ----- --- ---- ------- -- ---- --- --<br>------- ------,129810,129809.40000000037,129324.674,129338.20000000112,129341.339,129824.642,,45,French
screen,html.Screen,0_2_1_1_46,2021-11-04T12:44:21.313Z,,,,,,,,,,,,,,,,54,,,,,,,,,,,,,,744.658000000738,,response,,,100,,,,,,Space,keypress(Space),,,,,-- --- ---- --- ------ ----- ------- ---- -- --- ------- --<br>------- ---------- ------ -- ----- -- ----- -- ---- ------<br>--- ----- --- --- ------ -------- ----- --- ------ ----- --<br>----- ----- ---------- --- --- ------ ------ ---- -- ------<br>------- --- ------ state --- ---- ------- -- ---- --- --<br>------- ------,130570,130569.30000000075,129807.977,129810.20000000112,129824.642,130574.571,,46,state
screen,html.Screen,0_2_1_1_47,2021-11-04T12:44:22.017Z,,,,,,,,,,,,,,,,54,,,,,,,,,,,,,,698.7290000007488,,response,,,100,,,,,,Space,keypress(Space),,,,,-- --- ---- --- ------ ----- ------- ---- -- --- ------- --<br>------- ---------- ------ -- ----- -- ----- -- ---- ------<br>--- ----- --- --- ------ -------- ----- --- ------ ----- --<br>----- ----- ---------- --- --- ------ ------ ---- -- ------<br>------- --- ------ ----- was ---- ------- -- ---- --- --<br>------- ------,131273.90000000037,131273.30000000075,130557.906,130570.09999999963,130574.571,131291.176,,47,was
screen,html.Screen,0_2_1_1_48,2021-11-04T12:44:22.561Z,,,,,,,,,,,,,,,,54,,,,,,,,,,,,,,526.0240000011108,,response,,,100,,,,,,Space,keypress(Space),,,,,-- --- ---- --- ------ ----- ------- ---- -- --- ------- --<br>------- ---------- ------ -- ----- -- ----- -- ---- ------<br>--- ----- --- --- ------ -------- ----- --- ------ ----- --<br>----- ----- ---------- --- --- ------ ------ ---- -- ------<br>------- --- ------ ----- --- left ------- -- ---- --- --<br>------- ------,131817.90000000037,131817.20000000112,131274.511,131274.09999999963,131291.176,131824.504,,48,left
screen,html.Screen,0_2_1_1_49,2021-11-04T12:44:23.033Z,,,,,,,,,,,,,,,,54,,,,,,,,,,,,,,464.5959999996412,,response,,,100,,,,,,Space,keypress(Space),,,,,-- --- ---- --- ------ ----- ------- ---- -- --- ------- --<br>------- ---------- ------ -- ----- -- ----- -- ---- ------<br>--- ----- --- --- ------ -------- ----- --- ------ ----- --<br>----- ----- ---------- --- --- ------ ------ ---- -- ------<br>------- --- ------ ----- --- ---- without -- ---- --- --<br>------- ------,132289.70000000112,132289.09999999963,131807.839,131818.09999999963,131824.504,132291.15,,49,without
screen,html.Screen,0_2_1_1_50,2021-11-04T12:44:23.481Z,,,,,,,,,,,,,,,,54,,,,,,,,,,,,,,445.9499999996333,,response,,,100,,,,,,Space,keypress(Space),,,,,-- --- ---- --- ------ ----- ------- ---- -- --- ------- --<br>------- ---------- ------ -- ----- -- ----- -- ---- ------<br>--- ----- --- --- ------ -------- ----- --- ------ ----- --<br>----- ----- ---------- --- --- ------ ------ ---- -- ------<br>------- --- ------ ----- --- ---- ------- an ---- --- --<br>------- ------,132737.80000000075,132737.09999999963,132274.485,132289.90000000037,132291.15,132741.137,,50,an
screen,html.Screen,0_2_1_1_51,2021-11-04T12:44:23.897Z,,,,,,,,,,,,,,,,54,,,,,,,,,,,,,,412.0630000011297,,response,,,100,,,,,,Space,keypress(Space),,,,,-- --- ---- --- ------ ----- ------- ---- -- --- ------- --<br>------- ---------- ------ -- ----- -- ----- -- ---- ------<br>--- ----- --- --- ------ -------- ----- --- ------ ----- --<br>----- ----- ---------- --- --- ------ ------ ---- -- ------<br>------- --- ------ ----- --- ---- ------- -- easy --- --<br>------- ------,133153.80000000075,133153.20000000112,132724.472,132737.80000000075,132741.137,133157.827,,51,easy
screen,html.Screen,0_2_1_1_52,2021-11-04T12:44:24.297Z,,,,,,,,,,,,,,,,54,,,,,,,,,,,,,,395.27299999963725,,response,,,100,,,,,,Space,keypress(Space),,,,,-- --- ---- --- ------ ----- ------- ---- -- --- ------- --<br>------- ---------- ------ -- ----- -- ----- -- ---- ------<br>--- ----- --- --- ------ -------- ----- --- ------ ----- --<br>----- ----- ---------- --- --- ------ ------ ---- -- ------<br>------- --- ------ ----- --- ---- ------- -- ---- way --<br>------- ------,133553.70000000112,133553.09999999963,133141.161,133153.90000000037,133157.827,133557.633,,52,way
screen,html.Screen,0_2_1_1_53,2021-11-04T12:44:25.602Z,,,,,,,,,,,,,,,,54,,,,,,,,,,,,,,1299.6670000007434,,response,,,100,,,,,,Space,keypress(Space),,,,,-- --- ---- --- ------ ----- ------- ---- -- --- ------- --<br>------- ---------- ------ -- ----- -- ----- -- ---- ------<br>--- ----- --- --- ------ -------- ----- --- ------ ----- --<br>----- ----- ---------- --- --- ------ ------ ---- -- ------<br>------- --- ------ ----- --- ---- ------- -- ---- --- of<br>------- ------,134858.09999999963,134857.30000000075,133540.97,133553.90000000037,133557.633,134874.49,,53,of
screen,html.Screen,0_2_1_1_54,2021-11-04T12:44:26.385Z,,,,,,,,,,,,,,,,54,,,,,,,,,,,,,,766.6099999996368,,response,,,100,,,,,,Space,keypress(Space),,,,,-- --- ---- --- ------ ----- ------- ---- -- --- ------- --<br>------- ---------- ------ -- ----- -- ----- -- ---- ------<br>--- ----- --- --- ------ -------- ----- --- ------ ----- --<br>----- ----- ---------- --- --- ------ ------ ---- -- ------<br>------- --- ------ ----- --- ---- ------- -- ---- --- --<br>raising ------,135641.70000000112,135641.09999999963,134857.823,134858.20000000112,134874.49,135657.603,,54,raising
screen,html.Screen,0_2_1_1_55,2021-11-04T12:44:26.937Z,,,,,,,,,,,,,,,,54,,,,,,,,,,,,,,535.3969999999972,,response,,,100,,,,,,Space,keypress(Space),,,,,-- --- ---- --- ------ ----- ------- ---- -- --- ------- --<br>------- ---------- ------ -- ----- -- ----- -- ---- ------<br>--- ----- --- --- ------ -------- ----- --- ------ ----- --<br>----- ----- ---------- --- --- ------ ------ ---- -- ------<br>------- --- ------ ----- --- ---- ------- -- ---- --- --<br>------- money.,136193.5,136193,135640.938,135641.90000000037,135657.603,136207.592,,55,money.
Item 100,flow.Loop,0_2_1_1,2021-11-04T12:44:26.937Z,,,,,,,,,,,,,,,,,,,,,,,,,,,,,,33950.215,,completion,,,,C,,,,,,,,,,silence,,136193.90000000037,136193,102226.12,102227.90000000037,102242.785,136207.592,,,
Question 1,html.Screen,0_2_1_2,2021-11-04T12:44:29.580Z,,,,,,,,,,,,,,,,,,,,,,,,,,,true,TRUE,,2628.208000000741,,response,,,100,C,,,,,TRUE,click #choice-1,,,,silence,,138836.70000000112,138835.80000000075,136190.927,136194.20000000112,136207.592,138840.818,,,
Question 2,html.Screen,0_2_1_3,2021-11-04T12:44:31.986Z,,,,,,,,,,,,,,,,,,,,,,,,,,,true,FALSE,,2400.3820000011183,,response,,,100,C,,,,,FALSE,click #choice-2,,,,silence,,141242,141241.20000000112,138824.153,138836.90000000037,138840.818,141258.283,,,
Item 100,flow.Sequence,0_2_1,2021-11-04T12:44:31.986Z,,,,,,,,,,,,,,,,,,,,,,,,,,,,,,48998.67600000111,,completion,,,,,,,,,,,,,,,,141242.30000000075,141241.20000000112,92225.871,92229.80000000075,92242.524,141258.283,,,
End of Practice,html.Page,0_2_2,2021-11-04T12:44:39.481Z,,,,,,,,,,,,,,,,,,,,,,,,,,,,,,7478.717000000004,,form submission,,,,,,,,,,,,,,,,148737.5,148737,141241.581,141242.40000000037,141258.283,148739.859,,,
Practice,flow.Sequence,0_2,2021-11-04T12:44:39.481Z,,,,,,,,,,,,,,,,,,,,,,,,,,,,,,112340.69200000001,,completion,,,,,,,,,,,,,,,,148737.90000000037,148737,36379.643,36380.90000000037,36396.308,148739.859,,,
Trap_instruction,html.Page,0_3_0,2021-11-04T12:44:46.010Z,,,,,,,,,,,,,,,,,,,,,,,,,,,,,,6525.941000000748,,form submission,,,,,,,,,,,,,,,,155266.20000000112,155265.80000000075,148723.195,148738.09999999963,148739.859,155272.929,,,
trap_trial,html.Screen,0_3_1,2021-11-04T12:44:48.584Z,,,,,,,,,,,,,,,,,,,,,,,,,,,true,1,,2566.5709999999963,,response,,,,,,,,,1,click #choice-1,,,,,,157840.40000000037,157839.5,155256.264,155266.30000000075,155272.929,157854.243,,,
end of trap trial,html.Page,0_3_2,2021-11-04T12:44:50.704Z,,,,,,,,,,,,,,,,,,,,,,,,,,,,,,2105.657000000385,,form submission,,,,,,,,,,,,,,,,159960.20000000112,159959.90000000037,157837.592,157840.70000000112,157854.243,159972.912,,,
Trap 1,flow.Sequence,0_3,2021-11-04T12:44:50.704Z,,,,,,,,,,,,,,,,,,,,,,,,,,,,,,11220.041000000376,,completion,,,,,,,,,,,,,,,,159960.40000000037,159959.90000000037,148723.195,148738,148739.859,159972.912,,,
Standby,html.Page,0_4_0,2021-11-04T12:44:58.701Z,,,,,,,,,,,,,,,,,,,,,,,,,,,,,,8000.263999999996,,timeout,,,,,,,,,,,,,,,,167957.30000000075,167956.509,159956.248,159960.70000000112,159972.912,167973.176,,,
Holding screen,html.Screen,0_4_1_0_0,2021-11-04T12:45:05.700Z,,,,,,,,,,,,,,,,,,,,,,,,,,,,,,6998.904999999999,,timeout,,,,,,,,,,,,,,,,174956.20000000112,174955.416,167956.509,167957.5,167973.176,174972.081,,,
screen,html.Screen,0_4_1_0_1_0,2021-11-04T12:45:07.399Z,,,,,,,,,,,,,,,,51,,,,,,,,,,,,,,1682.7190000007395,,response,,,13,C,,,,,Space,keypress(Space),,,,instrumental,American -------- --- --- ---- --- --- ------ -- --------<br>---- --------- --- ------- ------------ ---------- ---------<br>--- ---------- ------- ---------- ------- -- -------- ----<br>---- --- ------ ----- ------ -- ---- --- ----- -- - -------<br>-------- -- --- --- -- ----- ----------- ----- -----------<br>---- --- ---------- --- ---- --- -- ----------,176655.40000000037,176654.80000000075,174955.416,174956.30000000075,174972.081,176655.257,,0,American
screen,html.Screen,0_4_1_0_1_1,2021-11-04T12:45:07.991Z,,,,,,,,,,,,,,,,51,,,,,,,,,,,,,,591.3429999996151,,response,,,13,C,,,,,Space,keypress(Space),,,,instrumental,-------- industry --- --- ---- --- --- ------ -- --------<br>---- --------- --- ------- ------------ ---------- ---------<br>--- ---------- ------- ---------- ------- -- -------- ----<br>---- --- ------ ----- ------ -- ---- --- ----- -- - -------<br>-------- -- --- --- -- ----- ----------- ----- -----------<br>---- --- ---------- --- ---- --- -- ----------,177247.09999999963,177246.59999999963,176638.592,176655.59999999963,176655.257,177255.329,,1,industry
screen,html.Screen,0_4_1_0_1_2,2021-11-04T12:45:08.599Z,,,,,,,,,,,,,,,,51,,,,,,,,,,,,,,599.2709999996296,,response,,,13,C,,,,,Space,keypress(Space),,,,instrumental,-------- -------- may --- ---- --- --- ------ -- --------<br>---- --------- --- ------- ------------ ---------- ---------<br>--- ---------- ------- ---------- ------- -- -------- ----<br>---- --- ------ ----- ------ -- ---- --- ----- -- - -------<br>-------- -- --- --- -- ----- ----------- ----- -----------<br>---- --- ---------- --- ---- --- -- ----------,177855,177854.59999999963,177238.664,177247.20000000112,177255.329,177871.928,,2,may
screen,html.Screen,0_4_1_0_1_3,2021-11-04T12:45:09.271Z,,,,,,,,,,,,,,,,51,,,,,,,,,,,,,,654.5719999999856,,response,,,13,C,,,,,Space,keypress(Space),,,,instrumental,-------- -------- --- not ---- --- --- ------ -- --------<br>---- --------- --- ------- ------------ ---------- ---------<br>--- ---------- ------- ---------- ------- -- -------- ----<br>---- --- ------ ----- ------ -- ---- --- ----- -- - -------<br>-------- -- --- --- -- ----- ----------- ----- -----------<br>---- --- ---------- --- ---- --- -- ----------,178527.09999999963,178526.5,177855.263,177855,177871.928,178538.555,,3,not
screen,html.Screen,0_4_1_0_1_4,2021-11-04T12:45:09.943Z,,,,,,,,,,,,,,,,51,,,,,,,,,,,,,,660.1450000011246,,response,,,13,C,,,,,Space,keypress(Space),,,,instrumental,-------- -------- --- --- know --- --- ------ -- --------<br>---- --------- --- ------- ------------ ---------- ---------<br>--- ---------- ------- ---------- ------- -- -------- ----<br>---- --- ------ ----- ------ -- ---- --- ----- -- - -------<br>-------- -- --- --- -- ----- ----------- ----- -----------<br>---- --- ---------- --- ---- --- -- ----------,179199.30000000075,179198.70000000112,178521.89,178527.30000000075,178538.555,179205.266,,4,know
screen,html.Screen,0_4_1_0_1_5,2021-11-04T12:45:10.551Z,,,,,,,,,,,,,,,,51,,,,,,,,,,,,,,601.1340000003693,,response,,,13,C,,,,,Space,keypress(Space),,,,instrumental,"-------- -------- --- --- ---- it, --- ------ -- --------<br>---- --------- --- ------- ------------ ---------- ---------<br>--- ---------- ------- ---------- ------- -- -------- ----<br>---- --- ------ ----- ------ -- ---- --- ----- -- - -------<br>-------- -- --- --- -- ----- ----------- ----- -----------<br>---- --- ---------- --- ---- --- -- ----------",179807,179806.40000000037,179188.6,179199.59999999963,179205.266,179821.837,,5,"it,"
screen,html.Screen,0_4_1_0_1_6,2021-11-04T12:45:11.070Z,,,,,,,,,,,,,,,,51,,,,,,,,,,,,,,504.66300000000047,,response,,,13,C,,,,,Space,keypress(Space),,,,instrumental,-------- -------- --- --- ---- --- but ------ -- --------<br>---- --------- --- ------- ------------ ---------- ---------<br>--- ---------- ------- ---------- ------- -- -------- ----<br>---- --- ------ ----- ------ -- ---- --- ----- -- - -------<br>-------- -- --- --- -- ----- ----------- ----- -----------<br>---- --- ---------- --- ---- --- -- ----------,180326.90000000037,180326.5,179805.172,179807.09999999963,179821.837,180338.459,,6,but
screen,html.Screen,0_4_1_0_1_7,2021-11-04T12:45:11.658Z,,,,,,,,,,,,,,,,51,,,,,,,,,,,,,,571.94100000037,,response,,,13,C,,,,,Space,keypress(Space),,,,instrumental,-------- -------- --- --- ---- --- --- debate -- --------<br>---- --------- --- ------- ------------ ---------- ---------<br>--- ---------- ------- ---------- ------- -- -------- ----<br>---- --- ------ ----- ------ -- ---- --- ----- -- - -------<br>-------- -- --- --- -- ----- ----------- ----- -----------<br>---- --- ---------- --- ---- --- -- ----------,180911,180910.40000000037,180321.794,180327.09999999963,180338.459,180921.761,,7,debate
screen,html.Screen,0_4_1_0_1_8,2021-11-04T12:45:12.137Z,,,,,,,,,,,,,,,,51,,,,,,,,,,,,,,468.53900000074646,,response,,,13,C,,,,,Space,keypress(Space),,,,instrumental,-------- -------- --- --- ---- --- --- ------ in --------<br>---- --------- --- ------- ------------ ---------- ---------<br>--- ---------- ------- ---------- ------- -- -------- ----<br>---- --- ------ ----- ------ -- ---- --- ----- -- - -------<br>-------- -- --- --- -- ----- ----------- ----- -----------<br>---- --- ---------- --- ---- --- -- ----------,181390.59999999963,181390.30000000075,180905.096,180911.09999999963,180921.761,181405.162,,8,in
screen,html.Screen,0_4_1_0_1_9,2021-11-04T12:45:12.537Z,,,,,,,,,,,,,,,,51,,,,,,,,,,,,,,385.23800000036135,,response,,,13,C,,,,,Space,keypress(Space),,,,instrumental,-------- -------- --- --- ---- --- --- ------ -- Congress<br>---- --------- --- ------- ------------ ---------- ---------<br>--- ---------- ------- ---------- ------- -- -------- ----<br>---- --- ------ ----- ------ -- ---- --- ----- -- - -------<br>-------- -- --- --- -- ----- ----------- ----- -----------<br>---- --- ---------- --- ---- --- -- ----------,181790.80000000075,181790.40000000037,181388.496,181390.80000000075,181405.162,181805.066,,9,Congress
screen,html.Screen,0_4_1_0_1_10,2021-11-04T12:45:13.089Z,,,,,,,,,,,,,,,,51,,,,,,,,,,,,,,537.2340000007534,,response,,,13,C,,,,,Space,keypress(Space),,,,instrumental,-------- -------- --- --- ---- --- --- ------ -- --------<br>over --------- --- ------- ------------ ---------- ---------<br>--- ---------- ------- ---------- ------- -- -------- ----<br>---- --- ------ ----- ------ -- ---- --- ----- -- - -------<br>-------- -- --- --- -- ----- ----------- ----- -----------<br>---- --- ---------- --- ---- --- -- ----------,182342.59999999963,182342.30000000075,181788.401,181790.90000000037,181805.066,182354.973,,10,over
screen,html.Screen,0_4_1_0_1_11,2021-11-04T12:45:15.081Z,,,,,,,,,,,,,,,,51,,,,,,,,,,,,,,1979.327000000747,,response,,,13,C,,,,,Space,keypress(Space),,,,instrumental,-------- -------- --- --- ---- --- --- ------ -- --------<br>---- reforming --- ------- ------------ ---------- ---------<br>--- ---------- ------- ---------- ------- -- -------- ----<br>---- --- ------ ----- ------ -- ---- --- ----- -- - -------<br>-------- -- --- --- -- ----- ----------- ----- -----------<br>---- --- ---------- --- ---- --- -- ----------,184334.70000000112,184334.30000000075,182338.309,182342.70000000112,182354.973,184338.176,,11,reforming
screen,html.Screen,0_4_1_0_1_12,2021-11-04T12:45:15.473Z,,,,,,,,,,,,,,,,51,,,,,,,,,,,,,,388.1240000007383,,response,,,13,C,,,,,Space,keypress(Space),,,,instrumental,-------- -------- --- --- ---- --- --- ------ -- --------<br>---- --------- the ------- ------------ ---------- ---------<br>--- ---------- ------- ---------- ------- -- -------- ----<br>---- --- ------ ----- ------ -- ---- --- ----- -- - -------<br>-------- -- --- --- -- ----- ----------- ----- -----------<br>---- --- ---------- --- ---- --- -- ----------,184726.80000000075,184726.30000000075,184321.511,184334.70000000112,184338.176,184738.201,,12,the
screen,html.Screen,0_4_1_0_1_13,2021-11-04T12:45:15.937Z,,,,,,,,,,,,,,,,51,,,,,,,,,,,,,,451.99900000111666,,response,,,13,C,,,,,Space,keypress(Space),,,,instrumental,-------- -------- --- --- ---- --- --- ------ -- --------<br>---- --------- --- federal ------------ ---------- ---------<br>--- ---------- ------- ---------- ------- -- -------- ----<br>---- --- ------ ----- ------ -- ---- --- ----- -- - -------<br>-------- -- --- --- -- ----- ----------- ----- -----------<br>---- --- ---------- --- ---- --- -- ----------,185190.70000000112,185190.20000000112,184721.536,184726.90000000037,184738.201,185204.866,,13,federal
screen,html.Screen,0_4_1_0_1_14,2021-11-04T12:45:16.401Z,,,,,,,,,,,,,,,,51,,,,,,,,,,,,,,449.2339999996184,,response,,,13,C,,,,,Space,keypress(Space),,,,instrumental,-------- -------- --- --- ---- --- --- ------ -- --------<br>---- --------- --- ------- government's ---------- ---------<br>--- ---------- ------- ---------- ------- -- -------- ----<br>---- --- ------ ----- ------ -- ---- --- ----- -- - -------<br>-------- -- --- --- -- ----- ----------- ----- -----------<br>---- --- ---------- --- ---- --- -- ----------,185654.70000000112,185654.09999999963,185188.201,185190.80000000075,185204.866,185671.575,,14,government's
screen,html.Screen,0_4_1_0_1_15,2021-11-04T12:45:17.025Z,,,,,,,,,,,,,,,,51,,,,,,,,,,,,,,606.5249999996158,,response,,,13,C,,,,,Space,keypress(Space),,,,instrumental,-------- -------- --- --- ---- --- --- ------ -- --------<br>---- --------- --- ------- ------------ regulatory ---------<br>--- ---------- ------- ---------- ------- -- -------- ----<br>---- --- ------ ----- ------ -- ---- --- ----- -- - -------<br>-------- -- --- --- -- ----- ----------- ----- -----------<br>---- --- ---------- --- ---- --- -- ----------,186278.5,186278.09999999963,185654.909,185654.80000000075,185671.575,186288.08,,15,regulatory
screen,html.Screen,0_4_1_0_1_16,2021-11-04T12:45:17.673Z,,,,,,,,,,,,,,,,51,,,,,,,,,,,,,,638.2200000007579,,response,,,13,C,,,,,Space,keypress(Space),,,,instrumental,-------- -------- --- --- ---- --- --- ------ -- --------<br>---- --------- --- ------- ------------ ---------- apparatus<br>--- ---------- ------- ---------- ------- -- -------- ----<br>---- --- ------ ----- ------ -- ---- --- ----- -- - -------<br>-------- -- --- --- -- ----- ----------- ----- -----------<br>---- --- ---------- --- ---- --- -- ----------,186926.80000000075,186926.30000000075,186271.416,186278.59999999963,186288.08,186938.094,,16,apparatus
screen,html.Screen,0_4_1_0_1_17,2021-11-04T12:45:18.225Z,,,,,,,,,,,,,,,,51,,,,,,,,,,,,,,539.9059999999881,,response,,,13,C,,,,,Space,keypress(Space),,,,instrumental,-------- -------- --- --- ---- --- --- ------ -- --------<br>---- --------- --- ------- ------------ ---------- ---------<br>may ---------- ------- ---------- ------- -- -------- ----<br>---- --- ------ ----- ------ -- ---- --- ----- -- - -------<br>-------- -- --- --- -- ----- ----------- ----- -----------<br>---- --- ---------- --- ---- --- -- ----------,187478.5,187478,186921.429,186926.90000000037,186938.094,187488.14,,17,may
screen,html.Screen,0_4_1_0_1_18,2021-11-04T12:45:18.697Z,,,,,,,,,,,,,,,,51,,,,,,,,,,,,,,461.85999999998603,,response,,,13,C,,,,,Space,keypress(Space),,,,instrumental,-------- -------- --- --- ---- --- --- ------ -- --------<br>---- --------- --- ------- ------------ ---------- ---------<br>--- profoundly ------- ---------- ------- -- -------- ----<br>---- --- ------ ----- ------ -- ---- --- ----- -- - -------<br>-------- -- --- --- -- ----- ----------- ----- -----------<br>---- --- ---------- --- ---- --- -- ----------,187950.5,187950,187471.474,187478.59999999963,187488.14,187954.726,,18,profoundly
screen,html.Screen,0_4_1_0_1_19,2021-11-04T12:45:19.361Z,,,,,,,,,,,,,,,,51,,,,,,,,,,,,,,659.2740000000049,,response,,,13,C,,,,,Space,keypress(Space),,,,instrumental,-------- -------- --- --- ---- --- --- ------ -- --------<br>---- --------- --- ------- ------------ ---------- ---------<br>--- ---------- improve ---------- ------- -- -------- ----<br>---- --- ------ ----- ------ -- ---- --- ----- -- - -------<br>-------- -- --- --- -- ----- ----------- ----- -----------<br>---- --- ---------- --- ---- --- -- ----------,188614.59999999963,188614,187938.061,187950.59999999963,187954.726,188621.328,,19,improve
screen,html.Screen,0_4_1_0_1_20,2021-11-04T12:45:19.945Z,,,,,,,,,,,,,,,,51,,,,,,,,,,,,,,576.5720000003639,,response,,,13,C,,,,,Space,keypress(Space),,,,instrumental,-------- -------- --- --- ---- --- --- ------ -- --------<br>---- --------- --- ------- ------------ ---------- ---------<br>--- ---------- ------- companies' ------- -- -------- ----<br>---- --- ------ ----- ------ -- ---- --- ----- -- - -------<br>-------- -- --- --- -- ----- ----------- ----- -----------<br>---- --- ---------- --- ---- --- -- ----------,189198.30000000075,189197.90000000037,188604.663,188614.70000000112,188621.328,189204.66,,20,companies'
screen,html.Screen,0_4_1_0_1_21,2021-11-04T12:45:20.881Z,,,,,,,,,,,,,,,,51,,,,,,,,,,,,,,929.1400000007416,,response,,,13,C,,,,,Space,keypress(Space),,,,instrumental,-------- -------- --- --- ---- --- --- ------ -- --------<br>---- --------- --- ------- ------------ ---------- ---------<br>--- ---------- ------- ---------- ability -- -------- ----<br>---- --- ------ ----- ------ -- ---- --- ----- -- - -------<br>-------- -- --- --- -- ----- ----------- ----- -----------<br>---- --- ---------- --- ---- --- -- ----------,190134.20000000112,190133.80000000075,189187.995,189198.40000000037,189204.66,190137.933,,21,ability
screen,html.Screen,0_4_1_0_1_22,2021-11-04T12:45:21.417Z,,,,,,,,,,,,,,,,51,,,,,,,,,,,,,,531.8670000007551,,response,,,13,C,,,,,Space,keypress(Space),,,,instrumental,-------- -------- --- --- ---- --- --- ------ -- --------<br>---- --------- --- ------- ------------ ---------- ---------<br>--- ---------- ------- ---------- ------- to -------- ----<br>---- --- ------ ----- ------ -- ---- --- ----- -- - -------<br>-------- -- --- --- -- ----- ----------- ----- -----------<br>---- --- ---------- --- ---- --- -- ----------,190670.20000000112,190669.80000000075,190121.268,190134.30000000075,190137.933,190671.206,,22,to
screen,html.Screen,0_4_1_0_1_23,2021-11-04T12:45:21.865Z,,,,,,,,,,,,,,,,51,,,,,,,,,,,,,,446.59400000073947,,response,,,13,C,,,,,Space,keypress(Space),,,,instrumental,-------- -------- --- --- ---- --- --- ------ -- --------<br>---- --------- --- ------- ------------ ---------- ---------<br>--- ---------- ------- ---------- ------- -- survive. ----<br>---- --- ------ ----- ------ -- ---- --- ----- -- - -------<br>-------- -- --- --- -- ----- ----------- ----- -----------<br>---- --- ---------- --- ---- --- -- ----------,191118.09999999963,191117.80000000075,190654.541,190670.30000000075,190671.206,191121.208,,23,survive.
screen,html.Screen,0_4_1_0_1_24,2021-11-04T12:45:22.385Z,,,,,,,,,,,,,,,,51,,,,,,,,,,,,,,516.6920000003593,,response,,,13,C,,,,,Space,keypress(Space),,,,instrumental,-------- -------- --- --- ---- --- --- ------ -- --------<br>---- --------- --- ------- ------------ ---------- ---------<br>--- ---------- ------- ---------- ------- -- -------- This<br>---- --- ------ ----- ------ -- ---- --- ----- -- - -------<br>-------- -- --- --- -- ----- ----------- ----- -----------<br>---- --- ---------- --- ---- --- -- ----------,191638.20000000112,191637.90000000037,191104.543,191118.20000000112,191121.208,191654.508,,24,This
screen,html.Screen,0_4_1_0_1_25,2021-11-04T12:45:22.857Z,,,,,,,,,,,,,,,,51,,,,,,,,,,,,,,455.09199999962584,,response,,,13,C,,,,,Space,keypress(Space),,,,instrumental,-------- -------- --- --- ---- --- --- ------ -- --------<br>---- --------- --- ------- ------------ ---------- ---------<br>--- ---------- ------- ---------- ------- -- -------- ----<br>week --- ------ ----- ------ -- ---- --- ----- -- - -------<br>-------- -- --- --- -- ----- ----------- ----- -----------<br>---- --- ---------- --- ---- --- -- ----------,192110.09999999963,192109.59999999963,191637.843,191638.40000000037,191654.508,192121.151,,25,week
screen,html.Screen,0_4_1_0_1_26,2021-11-04T12:45:23.305Z,,,,,,,,,,,,,,,,51,,,,,,,,,,,,,,436.549000001105,,response,,,13,C,,,,,Space,keypress(Space),,,,instrumental,-------- -------- --- --- ---- --- --- ------ -- --------<br>---- --------- --- ------- ------------ ---------- ---------<br>--- ---------- ------- ---------- ------- -- -------- ----<br>---- the ------ ----- ------ -- ---- --- ----- -- - -------<br>-------- -- --- --- -- ----- ----------- ----- -----------<br>---- --- ---------- --- ---- --- -- ----------,192558.20000000112,192557.70000000112,192104.486,192110.20000000112,192121.151,192571.125,,26,the
screen,html.Screen,0_4_1_0_1_27,2021-11-04T12:45:23.801Z,,,,,,,,,,,,,,,,51,,,,,,,,,,,,,,482.77500000037253,,response,,,13,C,,,,,Space,keypress(Space),,,,instrumental,-------- -------- --- --- ---- --- --- ------ -- --------<br>---- --------- --- ------- ------------ ---------- ---------<br>--- ---------- ------- ---------- ------- -- -------- ----<br>---- --- Senate ----- ------ -- ---- --- ----- -- - -------<br>-------- -- --- --- -- ----- ----------- ----- -----------<br>---- --- ---------- --- ---- --- -- ----------,193054.5,193053.90000000037,192554.46,192558.40000000037,192571.125,193071.105,,27,Senate
screen,html.Screen,0_4_1_0_1_28,2021-11-04T12:45:24.353Z,,,,,,,,,,,,,,,,51,,,,,,,,,,,,,,534.6950000007346,,response,,,13,C,,,,,Space,keypress(Space),,,,instrumental,-------- -------- --- --- ---- --- --- ------ -- --------<br>---- --------- --- ------- ------------ ---------- ---------<br>--- ---------- ------- ---------- ------- -- -------- ----<br>---- --- ------ seems ------ -- ---- --- ----- -- - -------<br>-------- -- --- --- -- ----- ----------- ----- -----------<br>---- --- ---------- --- ---- --- -- ----------,193606.5,193605.80000000075,193054.44,193054.70000000112,193071.105,193621.079,,28,seems
screen,html.Screen,0_4_1_0_1_29,2021-11-04T12:45:24.857Z,,,,,,,,,,,,,,,,51,,,,,,,,,,,,,,488.72100000074715,,response,,,13,C,,,,,Space,keypress(Space),,,,instrumental,-------- -------- --- --- ---- --- --- ------ -- --------<br>---- --------- --- ------- ------------ ---------- ---------<br>--- ---------- ------- ---------- ------- -- -------- ----<br>---- --- ------ ----- poised -- ---- --- ----- -- - -------<br>-------- -- --- --- -- ----- ----------- ----- -----------<br>---- --- ---------- --- ---- --- -- ----------,194110.5,194109.80000000075,193604.414,193606.59999999963,193621.079,194121.129,,29,poised
screen,html.Screen,0_4_1_0_1_30,2021-11-04T12:45:25.409Z,,,,,,,,,,,,,,,,51,,,,,,,,,,,,,,540.6710000007588,,response,,,13,C,,,,,Space,keypress(Space),,,,instrumental,-------- -------- --- --- ---- --- --- ------ -- --------<br>---- --------- --- ------- ------------ ---------- ---------<br>--- ---------- ------- ---------- ------- -- -------- ----<br>---- --- ------ ----- ------ to ---- --- ----- -- - -------<br>-------- -- --- --- -- ----- ----------- ----- -----------<br>---- --- ---------- --- ---- --- -- ----------,194662.5,194661.80000000075,194104.463,194110.59999999963,194121.129,194671.04,,30,to
screen,html.Screen,0_4_1_0_1_31,2021-11-04T12:45:25.953Z,,,,,,,,,,,,,,,,51,,,,,,,,,,,,,,534.7600000007369,,response,,,13,C,,,,,Space,keypress(Space),,,,instrumental,-------- -------- --- --- ---- --- --- ------ -- --------<br>---- --------- --- ------- ------------ ---------- ---------<br>--- ---------- ------- ---------- ------- -- -------- ----<br>---- --- ------ ----- ------ -- join --- ----- -- - -------<br>-------- -- --- --- -- ----- ----------- ----- -----------<br>---- --- ---------- --- ---- --- -- ----------,195206.40000000037,195205.80000000075,194654.375,194662.59999999963,194671.04,195221.009,,31,join
screen,html.Screen,0_4_1_0_1_32,2021-11-04T12:45:26.513Z,,,,,,,,,,,,,,,,51,,,,,,,,,,,,,,544.7910000007541,,response,,,13,C,,,,,Space,keypress(Space),,,,instrumental,-------- -------- --- --- ---- --- --- ------ -- --------<br>---- --------- --- ------- ------------ ---------- ---------<br>--- ---------- ------- ---------- ------- -- -------- ----<br>---- --- ------ ----- ------ -- ---- the ----- -- - -------<br>-------- -- --- --- -- ----- ----------- ----- -----------<br>---- --- ---------- --- ---- --- -- ----------,195766.40000000037,195765.80000000075,195204.344,195206.59999999963,195221.009,195770.977,,32,the
screen,html.Screen,0_4_1_0_1_33,2021-11-04T12:45:27.057Z,,,,,,,,,,,,,,,,51,,,,,,,,,,,,,,538.7230000011041,,response,,,13,C,,,,,Space,keypress(Space),,,,instrumental,-------- -------- --- --- ---- --- --- ------ -- --------<br>---- --------- --- ------- ------------ ---------- ---------<br>--- ---------- ------- ---------- ------- -- -------- ----<br>---- --- ------ ----- ------ -- ---- --- House -- - -------<br>-------- -- --- --- -- ----- ----------- ----- -----------<br>---- --- ---------- --- ---- --- -- ----------,196310.30000000075,196309.70000000112,195754.312,195766.59999999963,195770.977,196320.851,,33,House
screen,html.Screen,0_4_1_0_1_34,2021-11-04T12:45:27.553Z,,,,,,,,,,,,,,,,51,,,,,,,,,,,,,,484.8490000011225,,response,,,13,C,,,,,Space,keypress(Space),,,,instrumental,-------- -------- --- --- ---- --- --- ------ -- --------<br>---- --------- --- ------- ------------ ---------- ---------<br>--- ---------- ------- ---------- ------- -- -------- ----<br>---- --- ------ ----- ------ -- ---- --- ----- in - -------<br>-------- -- --- --- -- ----- ----------- ----- -----------<br>---- --- ---------- --- ---- --- -- ----------,196806.30000000075,196805.70000000112,196304.187,196310.40000000037,196320.851,196820.991,,34,in
screen,html.Screen,0_4_1_0_1_35,2021-11-04T12:45:28.041Z,,,,,,,,,,,,,,,,51,,,,,,,,,,,,,,472.809000000736,,response,,,13,C,,,,,Space,keypress(Space),,,,instrumental,-------- -------- --- --- ---- --- --- ------ -- --------<br>---- --------- --- ------- ------------ ---------- ---------<br>--- ---------- ------- ---------- ------- -- -------- ----<br>---- --- ------ ----- ------ -- ---- --- ----- -- a -------<br>-------- -- --- --- -- ----- ----------- ----- -----------<br>---- --- ---------- --- ---- --- -- ----------,197294.5,197293.80000000075,196804.325,196806.5,196820.991,197304.222,,35,a
screen,html.Screen,0_4_1_0_1_36,2021-11-04T12:45:28.521Z,,,,,,,,,,,,,,,,51,,,,,,,,,,,,,,469.3779999996186,,response,,,13,C,,,,,Space,keypress(Space),,,,instrumental,-------- -------- --- --- ---- --- --- ------ -- --------<br>---- --------- --- ------- ------------ ---------- ---------<br>--- ---------- ------- ---------- ------- -- -------- ----<br>---- --- ------ ----- ------ -- ---- --- ----- -- - massive<br>-------- -- --- --- -- ----- ----------- ----- -----------<br>---- --- ---------- --- ---- --- -- ----------,197774.20000000112,197773.59999999963,197287.557,197294.59999999963,197304.222,197787.547,,36,massive
screen,html.Screen,0_4_1_0_1_37,2021-11-04T12:45:29.017Z,,,,,,,,,,,,,,,,51,,,,,,,,,,,,,,482.0529999996361,,response,,,13,C,,,,,Space,keypress(Space),,,,instrumental,-------- -------- --- --- ---- --- --- ------ -- --------<br>---- --------- --- ------- ------------ ---------- ---------<br>--- ---------- ------- ---------- ------- -- -------- ----<br>---- --- ------ ----- ------ -- ---- --- ----- -- - -------<br>overhaul -- --- --- -- ----- ----------- ----- -----------<br>---- --- ---------- --- ---- --- -- ----------,198270.20000000112,198269.59999999963,197770.882,197774.5,197787.547,198287.507,,37,overhaul
screen,html.Screen,0_4_1_0_1_38,2021-11-04T12:45:29.473Z,,,,,,,,,,,,,,,,51,,,,,,,,,,,,,,437.99299999998766,,response,,,13,C,,,,,Space,keypress(Space),,,,instrumental,-------- -------- --- --- ---- --- --- ------ -- --------<br>---- --------- --- ------- ------------ ---------- ---------<br>--- ---------- ------- ---------- ------- -- -------- ----<br>---- --- ------ ----- ------ -- ---- --- ----- -- - -------<br>-------- of --- --- -- ----- ----------- ----- -----------<br>---- --- ---------- --- ---- --- -- ----------,198726.09999999963,198725.5,198270.842,198270.40000000037,198287.507,198737.496,,38,of
screen,html.Screen,0_4_1_0_1_39,2021-11-04T12:45:29.897Z,,,,,,,,,,,,,,,,51,,,,,,,,,,,,,,412.00399999998626,,response,,,13,C,,,,,Space,keypress(Space),,,,instrumental,-------- -------- --- --- ---- --- --- ------ -- --------<br>---- --------- --- ------- ------------ ---------- ---------<br>--- ---------- ------- ---------- ------- -- -------- ----<br>---- --- ------ ----- ------ -- ---- --- ----- -- - -------<br>-------- -- the --- -- ----- ----------- ----- -----------<br>---- --- ---------- --- ---- --- -- ----------,199150.09999999963,199149.5,198720.831,198726.30000000075,198737.496,199154.115,,39,the
screen,html.Screen,0_4_1_0_1_40,2021-11-04T12:45:30.305Z,,,,,,,,,,,,,,,,51,,,,,,,,,,,,,,403.28500000038184,,response,,,13,C,,,,,Space,keypress(Space),,,,instrumental,-------- -------- --- --- ---- --- --- ------ -- --------<br>---- --------- --- ------- ------------ ---------- ---------<br>--- ---------- ------- ---------- ------- -- -------- ----<br>---- --- ------ ----- ------ -- ---- --- ----- -- - -------<br>-------- -- --- way -- ----- ----------- ----- -----------<br>---- --- ---------- --- ---- --- -- ----------,199558.09999999963,199557.40000000037,199137.45,199150.20000000112,199154.115,199570.817,,40,way
screen,html.Screen,0_4_1_0_1_41,2021-11-04T12:45:30.745Z,,,,,,,,,,,,,,,,51,,,,,,,,,,,,,,426.68299999999,,response,,,13,C,,,,,Space,keypress(Space),,,,instrumental,-------- -------- --- --- ---- --- --- ------ -- --------<br>---- --------- --- ------- ------------ ---------- ---------<br>--- ---------- ------- ---------- ------- -- -------- ----<br>---- --- ------ ----- ------ -- ---- --- ----- -- - -------<br>-------- -- --- --- in ----- ----------- ----- -----------<br>---- --- ---------- --- ---- --- -- ----------,199998.09999999963,199997.5,199554.151,199558.20000000112,199570.817,200004.083,,41,in
screen,html.Screen,0_4_1_0_1_42,2021-11-04T12:45:31.161Z,,,,,,,,,,,,,,,,51,,,,,,,,,,,,,,409.31700000035926,,response,,,13,C,,,,,Space,keypress(Space),,,,instrumental,-------- -------- --- --- ---- --- --- ------ -- --------<br>---- --------- --- ------- ------------ ---------- ---------<br>--- ---------- ------- ---------- ------- -- -------- ----<br>---- --- ------ ----- ------ -- ---- --- ----- -- - -------<br>-------- -- --- --- -- which ----------- ----- -----------<br>---- --- ---------- --- ---- --- -- ----------,200413.90000000037,200413.40000000037,199987.418,199998.20000000112,200004.083,200420.798,,42,which
screen,html.Screen,0_4_1_0_1_43,2021-11-04T12:45:31.897Z,,,,,,,,,,,,,,,,51,,,,,,,,,,,,,,728.6020000003628,,response,,,13,C,,,,,Space,keypress(Space),,,,instrumental,-------- -------- --- --- ---- --- --- ------ -- --------<br>---- --------- --- ------- ------------ ---------- ---------<br>--- ---------- ------- ---------- ------- -- -------- ----<br>---- --- ------ ----- ------ -- ---- --- ----- -- - -------<br>-------- -- --- --- -- ----- bureaucrats ----- -----------<br>---- --- ---------- --- ---- --- -- ----------,201150.09999999963,201149.40000000037,200404.132,200414.20000000112,200420.798,201153.867,,43,bureaucrats
screen,html.Screen,0_4_1_0_1_44,2021-11-04T12:45:32.401Z,,,,,,,,,,,,,,,,51,,,,,,,,,,,,,,499.53300000037416,,response,,,13,C,,,,,Space,keypress(Space),,,,instrumental,-------- -------- --- --- ---- --- --- ------ -- --------<br>---- --------- --- ------- ------------ ---------- ---------<br>--- ---------- ------- ---------- ------- -- -------- ----<br>---- --- ------ ----- ------ -- ---- --- ----- -- - -------<br>-------- -- --- --- -- ----- ----------- enact -----------<br>---- --- ---------- --- ---- --- -- ----------,201654,201653.40000000037,201137.204,201150.20000000112,201153.867,201670.706,,44,enact
screen,html.Screen,0_4_1_0_1_45,2021-11-04T12:45:33.057Z,,,,,,,,,,,,,,,,51,,,,,,,,,,,,,,638.6940000003669,,response,,,13,C,,,,,Space,keypress(Space),,,,instrumental,-------- -------- --- --- ---- --- --- ------ -- --------<br>---- --------- --- ------- ------------ ---------- ---------<br>--- ---------- ------- ---------- ------- -- -------- ----<br>---- --- ------ ----- ------ -- ---- --- ----- -- - -------<br>-------- -- --- --- -- ----- ----------- ----- regulations<br>---- --- ---------- --- ---- --- -- ----------,202310,202309.40000000037,201654.04,201654.20000000112,201670.706,202320.61,,45,regulations
screen,html.Screen,0_4_1_0_1_46,2021-11-04T12:45:33.593Z,,,,,,,,,,,,,,,,51,,,,,,,,,,,,,,524.690000000759,,response,,,13,C,,,,,Space,keypress(Space),,,,instrumental,-------- -------- --- --- ---- --- --- ------ -- --------<br>---- --------- --- ------- ------------ ---------- ---------<br>--- ---------- ------- ---------- ------- -- -------- ----<br>---- --- ------ ----- ------ -- ---- --- ----- -- - -------<br>-------- -- --- --- -- ----- ----------- ----- -----------<br>that --- ---------- --- ---- --- -- ----------,202845.90000000037,202845.30000000075,202303.945,202310.09999999963,202320.61,202853.89,,46,that
screen,html.Screen,0_4_1_0_1_47,2021-11-04T12:45:34.041Z,,,,,,,,,,,,,,,,51,,,,,,,,,,,,,,439.4100000007311,,response,,,13,C,,,,,Space,keypress(Space),,,,instrumental,-------- -------- --- --- ---- --- --- ------ -- --------<br>---- --------- --- ------- ------------ ---------- ---------<br>--- ---------- ------- ---------- ------- -- -------- ----<br>---- --- ------ ----- ------ -- ---- --- ----- -- - -------<br>-------- -- --- --- -- ----- ----------- ----- -----------<br>---- are ---------- --- ---- --- -- ----------,203293.90000000037,203293.30000000075,202837.225,202846.09999999963,202853.89,203303.988,,47,are
screen,html.Screen,0_4_1_0_1_48,2021-11-04T12:45:34.504Z,,,,,,,,,,,,,,,,51,,,,,,,,,,,,,,453.31200000073295,,response,,,13,C,,,,,Space,keypress(Space),,,,instrumental,-------- -------- --- --- ---- --- --- ------ -- --------<br>---- --------- --- ------- ------------ ---------- ---------<br>--- ---------- ------- ---------- ------- -- -------- ----<br>---- --- ------ ----- ------ -- ---- --- ----- -- - -------<br>-------- -- --- --- -- ----- ----------- ----- -----------<br>---- --- strangling --- ---- --- -- ----------,203757.90000000037,203757.30000000075,203287.322,203294.09999999963,203303.988,203770.496,,48,strangling
screen,html.Screen,0_4_1_0_1_49,2021-11-04T12:45:35.001Z,,,,,,,,,,,,,,,,51,,,,,,,,,,,,,,482.70400000110385,,response,,,13,C,,,,,Space,keypress(Space),,,,instrumental,-------- -------- --- --- ---- --- --- ------ -- --------<br>---- --------- --- ------- ------------ ---------- ---------<br>--- ---------- ------- ---------- ------- -- -------- ----<br>---- --- ------ ----- ------ -- ---- --- ----- -- - -------<br>-------- -- --- --- -- ----- ----------- ----- -----------<br>---- --- ---------- the ---- --- -- ----------,204253.90000000037,204253.20000000112,203753.832,203758,203770.496,204270.51,,49,the
