sender,sender_type,sender_id,timestamp,meta,,Blues,Classical,Country,Dance,Electronic,Folk,Gospel,Hip-Hop,Jazz,Latin,Musical/Film,New-age,Pop,Provo_ID,R&B,Rap,Reggae,Religious,Rock,Soul,Swing,Traditional,age,artist_name,correct,correctResponse,distraction,duration,ended_on,familiarity,gender,headphone_check_performance,item,list,offensiveness,pleasantness,position_correct,preference,response,response_action,snippet_file,song_name,song_rating,sound,stimulus_1,stimulus_2,stimulus_3,text,time_commit,time_end,time_render,time_run,time_show,time_switch,url,word,word_ID
Introduction,html.Screen,0_0,2021-03-25T17:05:11.627Z,"{""labjs_version"":""20.2.2"",""labjs_build"":{""flavor"":""production"",""commit"":""a25486e0c714a0ae2ce03ff94b7bb6896854dcfa""},""location"":""https://run.pavlovia.org/mvasilev/music_b/"",""userAgent"":""Mozilla/5.0 (Windows NT 10.0; Win64; x64) AppleWebKit/537.36 (KHTML, like Gecko) Chrome/89.0.4389.90 Safari/537.36"",""platform"":""Win32"",""language"":""en-GB"",""locale"":""en-GB"",""timeZone"":""Europe/London"",""timezoneOffset"":0,""screen_width"":1366,""screen_height"":768,""scroll_width"":1366,""scroll_height"":577,""window_innerWidth"":1366,""window_innerHeight"":625,""devicePixelRatio"":1}",,,,,,,,,,,,,,,,,,,,,,,,,,,,,8030.702999998695,response,,,,,,,,,,continue,click button,,,,,,,,,32971.40999999829,32537.349999998696,20591.884,20599.47499993723,24506.647,33671.45,{},,
Volume calibration,html.Screen,0_1,2021-03-25T17:05:40.154Z,,,,,,,,,,,,,,,,,,,,,,,,,,,,,,27823.974999971877,response,,,,,,,,,,continue,click button,,,,,,,,,61498.870000010356,61495.424999971874,32405.111,32980.214999988675,33671.45,61499.042,,,
Task instructions,html.Screen,0_2,2021-03-25T17:05:57.962Z,,,,,,,,,,,,,,,,,,,,,,,,,,,,,,17806.95299994423,response,,,,,,,,,,continue,click button,,,,,,,,,79307.18999996316,79305.99499994423,61482.538,61499.56000002567,61499.042,79312.124,,,
Sounds,html.Screen,0_3_0_0,2021-03-25T17:06:02.254Z,,,,,,,,,,,,,,,,,,,,,,,,,,,,,,4315.883000000002,timeout,,,,,,,,1,,,,,,,,S,O,I,,83599.00499996729,83544.87,79295.743,79307.52499995288,79312.124,83628.007,,,
Judgement,html.Screen,0_3_0_1,2021-03-25T17:06:03.999Z,,,,,,,,,,,,,,,,,,,,,,,,,,,true,1,,1714.3629999693803,response,,,,,,,,1,,1,click #choice-1,,,,,S,O,I,,85343.43000000808,85342.36999996938,83544.87,83599.50499993283,83628.007,85344.29,,,
Trial,flow.Sequence,0_3_0,2021-03-25T17:06:03.999Z,,,,,,,,,,,,,,,,,,,,,,,,,,,,,,6030.245999969382,completion,,,,,,,,1,,,,,,,,S,O,I,,85343.84500002488,85342.36999996938,79295.743,79307.44999996386,79312.124,85344.29,,,
Sounds,html.Screen,0_3_1_0,2021-03-25T17:06:08.234Z,,,,,,,,,,,,,,,,,,,,,,,,,,,,,,4249.277000000002,timeout,,,,,,,,3,,,,,,,,O,I,S,,89578.93499999773,89577.093,85327.714,85344.04999995604,85344.29,89593.567,,,
Judgement,html.Screen,0_3_1_1,2021-03-25T17:06:09.251Z,,,,,,,,,,,,,,,,,,,,,,,,,,,true,3,,1000.7679999142856,response,,,,,,,,3,,3,click #choice-3,,,,,O,I,S,,90595.33499996178,90594.33499991428,89577.093,89579.33999993838,89593.567,90610.092,,,
Trial,flow.Sequence,0_3_1,2021-03-25T17:06:09.251Z,,,,,,,,,,,,,,,,,,,,,,,,,,,,,,5250.0449999142875,completion,,,,,,,,3,,,,,,,,O,I,S,,90595.61499999836,90594.33499991428,85327.714,85343.98999996483,85344.29,90610.092,,,
Sounds,html.Screen,0_3_2_0,2021-03-25T17:06:13.499Z,,,,,,,,,,,,,,,,,,,,,,,,,,,,,,4249.176999999996,timeout,,,,,,,,1,,,,,,,,S,I,O,,94844.10999994725,94842.696,90593.636,90595.80499993172,90610.092,94859.269,,,
Judgement,html.Screen,0_3_2_1,2021-03-25T17:06:14.707Z,,,,,,,,,,,,,,,,,,,,,,,,,,,true,1,,1192.005999976158,response,,,,,,,,1,,1,click #choice-1,,,,,S,I,O,,96052.26000002585,96051.27499997616,94842.696,94844.43499997724,94859.269,96059.011,,,
Trial,flow.Sequence,0_3_2,2021-03-25T17:06:14.708Z,,,,,,,,,,,,,,,,,,,,,,,,,,,,,,5441.182999976154,completion,,,,,,,,1,,,,,,,,S,I,O,,96052.5749999797,96051.27499997616,90593.636,90595.74999997858,90610.092,96059.011,,,
Sounds,html.Screen,0_3_3_0,2021-03-25T17:06:18.950Z,,,,,,,,,,,,,,,,,,,,,,,,,,,,,,4249.298999999999,timeout,,,,,,,,3,,,,,,,,I,O,S,,100294.29999995045,100291.663,96042.45,96052.76499991305,96059.011,100308.31,,,
Judgement,html.Screen,0_3_3_1,2021-03-25T17:06:19.773Z,,,,,,,,,,,,,,,,,,,,,,,,,,,true,3,,808.5900000227266,response,,,,,,,,3,,3,click #choice-3,,,,,I,O,S,,101118.23499994352,101116.90000002272,100291.663,100294.79499999434,100308.31,101124.72,,,
Trial,flow.Sequence,0_3_3,2021-03-25T17:06:19.774Z,,,,,,,,,,,,,,,,,,,,,,,,,,,,,,5057.889000022726,completion,,,,,,,,3,,,,,,,,I,O,S,,101118.52499993984,101116.90000002272,96042.45,96052.70499992184,96059.011,101124.72,,,
Sounds,html.Screen,0_3_4_0,2021-03-25T17:06:24.015Z,,,,,,,,,,,,,,,,,,,,,,,,,,,,,,4249.198999999993,timeout,,,,,,,,2,,,,,,,,I,S,O,,105360.12999992818,105357.249,101108.2,101118.68999991566,101124.72,105373.919,,,
Judgement,html.Screen,0_3_4_1,2021-03-25T17:06:26.337Z,,,,,,,,,,,,,,,,,,,,,,,,,,,true,2,,2307.045999948634,response,,,,,,,,2,,2,click #choice-2,,,,,I,S,O,,107681.98499991558,107680.96499994863,105357.249,105360.54499994498,105373.919,107690.242,,,
Trial,flow.Sequence,0_3_4,2021-03-25T17:06:26.337Z,,,,,,,,,,,,,,,,,,,,,,,,,,,,,,6556.244999948627,completion,,,,,,,,2,,,,,,,,I,S,O,,107682.22999991849,107680.96499994863,101108.2,101118.6400000006,101124.72,107690.242,,,
Sounds,html.Screen,0_3_5_0,2021-03-25T17:06:30.579Z,,,,,,,,,,,,,,,,,,,,,,,,,,,,,,4249.040000000008,timeout,,,,,,,,2,,,,,,,,O,S,I,,111924.10499998368,111922.769,107673.464,107682.38499993458,107690.242,111939.282,,,
Judgement,html.Screen,0_3_5_1,2021-03-25T17:06:31.442Z,,,,,,,,,,,,,,,,,,,,,,,,,,,true,2,,846.4129999695579,response,,,,,,,,2,,2,click #choice-2,,,,,O,S,I,,112786.75999992993,112785.69499996956,111922.769,111924.4399999734,111939.282,112839.146,,,
Trial,flow.Sequence,0_3_5,2021-03-25T17:06:31.442Z,,,,,,,,,,,,,,,,,,,,,,,,,,,,,,5095.452999969566,completion,,,,,,,,2,,,,,,,,O,S,I,,112787.01999993064,112785.69499996956,107673.464,107682.34499997925,107690.242,112839.146,,,
Task,flow.Loop,0_3,2021-03-25T17:06:31.448Z,,,,,,,,,,,,,,,,,,,,,,,,,,,,,,33473.57099996957,completion,,,1,,,,,,,,,,,,,,,,,112792.68499999307,112785.69499996956,79295.743,79307.38000001293,79312.124,112839.146,,,
Trap,html.Screen,0_4,2021-03-25T17:06:31.485Z,,,,,,,,,,,,,,,,,,,,,,,,,,,,,,NaN,skipped,,,,,,,,,,,,,,,,,,,,112830.25499992073,112785.69499996956,,112829.844999942,,112839.146,,,
Thanks,html.Screen,0_5,2021-03-25T17:06:59.259Z,,,,,,,,,,,,,,,,,,,,,,,,,,,,,,27764.408999921478,response,,,,,,,,,,continue,click button,,,,,,,,,140604.5649999287,140603.55499992147,112772.645,112830.61499998439,112839.146,154031.521,,,
Headphone screening,flow.Sequence,0,2021-03-25T17:06:59.259Z,,,,,,,,,,,,,,,,,,,,,,,,,,,,,,116096.90799992147,completion,,,,,,,,,,,,,,,,,,,,140604.79000001214,140603.55499992147,20591.884,20599.13999994751,24506.647,154031.521,,,
Instructions,html.Page,1_0,2021-03-25T17:07:34.297Z,,,,,,,,,,,,,,,,,,,,,,,,,,,,,,21610.62399993249,form submission,,,,,,,,,,,,,,,,,,,,175642.76999991853,175642.1449999325,153981.407,154029.75500002503,154031.521,175660.682,,,
Holding screen,html.Screen,1_1_0_0,2021-03-25T17:07:41.300Z,,,,,,,,,,,,,,,,,,,,,,,,,,,,,,7398.6020000000135,timeout,,,,,,,,,,,,,,,,,,,,182644.06999992207,182642.847,175560.798,175643.38000002317,175660.682,183059.284,,,
screen,html.Screen,1_1_0_1_0,2021-03-25T17:07:43.414Z,,,,,,,,,,,,,,,,53,,,,,,,,,,,,,,1632.1659999256663,response,,,,99,,,,,,Space,keypress(Space),,,,,,,,When -- ----- -- ------ - ------- --- ----------<br>------------- ------ ------ ---- ---- ------- ----- -- ----<br>-------- ------- -- ---------- --- - --- ----- ----- ----<br>---- --- --- ----- --- ---- ---- ------- ----- ---- -------<br>--- --- -- ----- -- --- ---- -- --- ---- -- ------ ------<br>--- ----- -- ----,184758.11499997508,184691.44999992568,182642.847,182644.66999995057,183059.284,184759.007,,0,When
screen,html.Screen,1_1_0_1_1,2021-03-25T17:07:44.608Z,,,,,,,,,,,,,,,,53,,,,,,,,,,,,,,1191.8379999848257,response,,,,99,,,,,,Space,keypress(Space),,,,,,,,---- it ----- -- ------ - ------- --- ----------<br>------------- ------ ------ ---- ---- ------- ----- -- ----<br>-------- ------- -- ---------- --- - --- ----- ----- ----<br>---- --- --- ----- --- ---- ---- ------- ----- ---- -------<br>--- --- -- ----- -- --- ---- -- --- ---- -- ------ ------<br>--- ----- -- ----,185952.18000002205,185950.84499998484,184675.816,184758.509999956,184759.007,185958.767,,1,it
screen,html.Screen,1_1_0_1_2,2021-03-25T17:07:45.351Z,,,,,,,,,,,,,,,,53,,,,,,,,,,,,,,734.7929999269545,response,,,,99,,,,,,Space,keypress(Space),,,,,,,,---- -- comes -- ------ - ------- --- ----------<br>------------- ------ ------ ---- ---- ------- ----- -- ----<br>-------- ------- -- ---------- --- - --- ----- ----- ----<br>---- --- --- ----- --- ---- ---- ------- ----- ---- -------<br>--- --- -- ----- -- --- ---- -- --- ---- -- ------ ------<br>--- ----- -- ----,186694.9499999173,186693.55999992695,185942.335,185952.51999993343,185958.767,186708.765,,2,comes
screen,html.Screen,1_1_0_1_3,2021-03-25T17:07:46.384Z,,,,,,,,,,,,,,,,53,,,,,,,,,,,,,,1015.7200000133598,response,,,,99,,,,,,Space,keypress(Space),,,,,,,,---- -- ----- to ------ - ------- --- ----------<br>------------- ------ ------ ---- ---- ------- ----- -- ----<br>-------- ------- -- ---------- --- - --- ----- ----- ----<br>---- --- --- ----- --- ---- ---- ------- ----- ---- -------<br>--- --- -- ----- -- --- ---- -- --- ---- -- ------ ------<br>--- ----- -- ----,187728.06999995373,187724.48500001337,186692.146,186695.27000002563,186708.765,187741.857,,3,to
screen,html.Screen,1_1_0_1_4,2021-03-25T17:07:47.134Z,,,,,,,,,,,,,,,,53,,,,,,,,,,,,,,734.9179999882763,response,,,,99,,,,,,Space,keypress(Space),,,,,,,,---- -- ----- -- having - ------- --- ----------<br>------------- ------ ------ ---- ---- ------- ----- -- ----<br>-------- ------- -- ---------- --- - --- ----- ----- ----<br>---- --- --- ----- --- ---- ---- ------- ----- ---- -------<br>--- --- -- ----- -- --- ---- -- --- ---- -- ------ ------<br>--- ----- -- ----,188478.03499992006,188476.77499998827,187725.31,187728.385000024,187741.857,188491.718,,4,having
screen,html.Screen,1_1_0_1_5,2021-03-25T17:07:48.046Z,,,,,,,,,,,,,,,,53,,,,,,,,,,,,,,897.4519999803742,response,,,,99,,,,,,Space,keypress(Space),,,,,,,,---- -- ----- -- ------ a ------- --- ----------<br>------------- ------ ------ ---- ---- ------- ----- -- ----<br>-------- ------- -- ---------- --- - --- ----- ----- ----<br>---- --- --- ----- --- ---- ---- ------- ----- ---- -------<br>--- --- -- ----- -- --- ---- -- --- ---- -- ------ ------<br>--- ----- -- ----,189390.4399999883,189389.16999998037,188475.062,188478.3499999903,188491.718,189424.946,,5,a
screen,html.Screen,1_1_0_1_6,2021-03-25T17:07:48.953Z,,,,,,,,,,,,,,,,53,,,,,,,,,,,,,,871.2989999759011,response,,,,99,,,,,,Space,keypress(Space),,,,,,,,---- -- ----- -- ------ - lasting --- ----------<br>------------- ------ ------ ---- ---- ------- ----- -- ----<br>-------- ------- -- ---------- --- - --- ----- ----- ----<br>---- --- --- ----- --- ---- ---- ------- ----- ---- -------<br>--- --- -- ----- -- --- ---- -- --- ---- -- ------ ------<br>--- ----- -- ----,190297.43499995675,190296.2449999759,189408.258,189390.7650000183,189424.946,190308.331,,6,lasting
screen,html.Screen,1_1_0_1_7,2021-03-25T17:07:50.329Z,,,,,,,,,,,,,,,,53,,,,,,,,,,,,,,1364.453999944264,response,,,,99,,,,,,Space,keypress(Space),,,,,,,,---- -- ----- -- ------ - ------- and ----------<br>------------- ------ ------ ---- ---- ------- ----- -- ----<br>-------- ------- -- ---------- --- - --- ----- ----- ----<br>---- --- --- ----- --- ---- ---- ------- ----- ---- -------<br>--- --- -- ----- -- --- ---- -- --- ---- -- ------ ------<br>--- ----- -- ----,191673.9349999698,191672.78499994427,190291.507,190297.77499998454,190308.331,191691.14,,7,and
screen,html.Screen,1_1_0_1_8,2021-03-25T17:07:50.944Z,,,,,,,,,,,,,,,,53,,,,,,,,,,,,,,595.9799999935785,response,,,,99,,,,,,Space,keypress(Space),,,,,,,,---- -- ----- -- ------ - ------- --- fulfilling<br>------------- ------ ------ ---- ---- ------- ----- -- ----<br>-------- ------- -- ---------- --- - --- ----- ----- ----<br>---- --- --- ----- --- ---- ---- ------- ----- ---- -------<br>--- --- -- ----- -- --- ---- -- --- ---- -- ------ ------<br>--- ----- -- ----,192288.32499997225,192287.1199999936,191674.588,191674.26499992143,191691.14,192290.908,,8,fulfilling
screen,html.Screen,1_1_0_1_9,2021-03-25T17:07:51.809Z,,,,,,,,,,,,,,,,53,,,,,,,,,,,,,,861.2569999776897,response,,,,99,,,,,,Space,keypress(Space),,,,,,,,"---- -- ----- -- ------ - ------- --- ----------<br>relationship, ------ ------ ---- ---- ------- ----- -- ----<br>-------- ------- -- ---------- --- - --- ----- ----- ----<br>---- --- --- ----- --- ---- ---- ------- ----- ---- -------<br>--- --- -- ----- -- --- ---- -- --- ---- -- ------ ------<br>--- ----- -- ----",193153.73499994166,193152.1649999777,192274.531,192288.64499996416,192290.908,193157.447,,9,"relationship,"
screen,html.Screen,1_1_0_1_10,2021-03-25T17:07:52.774Z,,,,,,,,,,,,,,,,53,,,,,,,,,,,,,,959.3479999217088,response,,,,99,,,,,,Space,keypress(Space),,,,,,,,---- -- ----- -- ------ - ------- --- ----------<br>------------- common ------ ---- ---- ------- ----- -- ----<br>-------- ------- -- ---------- --- - --- ----- ----- ----<br>---- --- --- ----- --- ---- ---- ------- ----- ---- -------<br>--- --- -- ----- -- --- ---- -- --- ---- -- ------ ------<br>--- ----- -- ----,194118.00499993842,194116.7949999217,193140.936,193154.07499996945,193157.447,194123.917,,10,common
screen,html.Screen,1_1_0_1_11,2021-03-25T17:07:53.769Z,,,,,,,,,,,,,,,,53,,,,,,,,,,,,,,987.7380000151752,response,,,,99,,,,,,Space,keypress(Space),,,,,,,,---- -- ----- -- ------ - ------- --- ----------<br>------------- ------ wisdom ---- ---- ------- ----- -- ----<br>-------- ------- -- ---------- --- - --- ----- ----- ----<br>---- --- --- ----- --- ---- ---- ------- ----- ---- -------<br>--- --- -- ----- -- --- ---- -- --- ---- -- ------ ------<br>--- ----- -- ----,195112.9550000187,195111.65500001516,194107.473,194118.35000000428,194123.917,195123.678,,11,wisdom
screen,html.Screen,1_1_0_1_12,2021-03-25T17:07:54.934Z,,,,,,,,,,,,,,,,53,,,,,,,,,,,,,,1153.9919999812846,response,,,,99,,,,,,Space,keypress(Space),,,,,,,,---- -- ----- -- ------ - ------- --- ----------<br>------------- ------ ------ says ---- ------- ----- -- ----<br>-------- ------- -- ---------- --- - --- ----- ----- ----<br>---- --- --- ----- --- ---- ---- ------- ----- ---- -------<br>--- --- -- ----- -- --- ---- -- --- ---- -- ------ ------<br>--- ----- -- ----,196278.82999996655,196277.6699999813,195107.262,195113.40499995276,195123.678,196290.151,,12,says
screen,html.Screen,1_1_0_1_13,2021-03-25T17:07:55.752Z,,,,,,,,,,,,,,,,53,,,,,,,,,,,,,,804.5439999779337,response,,,,99,,,,,,Space,keypress(Space),,,,,,,,---- -- ----- -- ------ - ------- --- ----------<br>------------- ------ ------ ---- that ------- ----- -- ----<br>-------- ------- -- ---------- --- - --- ----- ----- ----<br>---- --- --- ----- --- ---- ---- ------- ----- ---- -------<br>--- --- -- ----- -- --- ---- -- --- ---- -- ------ ------<br>--- ----- -- ----,197095.94000002835,197094.69499997795,196273.665,196279.1599999182,196290.151,197106.669,,13,that
screen,html.Screen,1_1_0_1_14,2021-03-25T17:07:56.391Z,,,,,,,,,,,,,,,,53,,,,,,,,,,,,,,627.3459999363404,response,,,,99,,,,,,Space,keypress(Space),,,,,,,,---- -- ----- -- ------ - ------- --- ----------<br>------------- ------ ------ ---- ---- feeling ----- -- ----<br>-------- ------- -- ---------- --- - --- ----- ----- ----<br>---- --- --- ----- --- ---- ---- ------- ----- ---- -------<br>--- --- -- ----- -- --- ---- -- --- ---- -- ------ ------<br>--- ----- -- ----,197735.2650000248,197734.01499993633,197090.17,197096.26999998,197106.669,197739.909,,14,feeling
screen,html.Screen,1_1_0_1_15,2021-03-25T17:07:57.176Z,,,,,,,,,,,,,,,,53,,,,,,,,,,,,,,779.6160000106029,response,,,,99,,,,,,Space,keypress(Space),,,,,,,,---- -- ----- -- ------ - ------- --- ----------<br>------------- ------ ------ ---- ---- ------- close -- ----<br>-------- ------- -- ---------- --- - --- ----- ----- ----<br>---- --- --- ----- --- ---- ---- ------- ----- ---- -------<br>--- --- -- ----- -- --- ---- -- --- ---- -- ------ ------<br>--- ----- -- ----,198520.88999992702,198519.52500001062,197723.414,197735.58500001673,197739.909,198523.108,,15,close
screen,html.Screen,1_1_0_1_16,2021-03-25T17:07:57.705Z,,,,,,,,,,,,,,,,53,,,,,,,,,,,,,,525.2670000130311,response,,,,99,,,,,,Space,keypress(Space),,,,,,,,---- -- ----- -- ------ - ------- --- ----------<br>------------- ------ ------ ---- ---- ------- ----- to ----<br>-------- ------- -- ---------- --- - --- ----- ----- ----<br>---- --- --- ----- --- ---- ---- ------- ----- ---- -------<br>--- --- -- ----- -- --- ---- -- --- ---- -- ------ ------<br>--- ----- -- ----,199049.15999993682,199048.37500001304,198506.606,198521.20999991894,198523.108,199056.28,,16,to
screen,html.Screen,1_1_0_1_17,2021-03-25T17:07:58.255Z,,,,,,,,,,,,,,,,53,,,,,,,,,,,,,,542.004999956378,response,,,,99,,,,,,Space,keypress(Space),,,,,,,,---- -- ----- -- ------ - ------- --- ----------<br>------------- ------ ------ ---- ---- ------- ----- -- your<br>-------- ------- -- ---------- --- - --- ----- ----- ----<br>---- --- --- ----- --- ---- ---- ------- ----- ---- -------<br>--- --- -- ----- -- --- ---- -- --- ---- -- ------ ------<br>--- ----- -- ----,199599.51999993064,199598.28499995638,199039.771,199049.35500002466,199056.28,199606.255,,17,your
screen,html.Screen,1_1_0_1_18,2021-03-25T17:07:58.941Z,,,,,,,,,,,,,,,,53,,,,,,,,,,,,,,677.5249999397201,response,,,,99,,,,,,Space,keypress(Space),,,,,,,,---- -- ----- -- ------ - ------- --- ----------<br>------------- ------ ------ ---- ---- ------- ----- -- ----<br>romantic ------- -- ---------- --- - --- ----- ----- ----<br>---- --- --- ----- --- ---- ---- ------- ----- ---- -------<br>--- --- -- ----- -- --- ---- -- --- ---- -- ------ ------<br>--- ----- -- ----,200285.0600000238,200283.77999993972,199589.66,199599.87499995623,199606.255,200289.451,,18,romantic
screen,html.Screen,1_1_0_1_19,2021-03-25T17:07:59.456Z,,,,,,,,,,,,,,,,53,,,,,,,,,,,,,,509.9239999441197,response,,,,99,,,,,,Space,keypress(Space),,,,,,,,---- -- ----- -- ------ - ------- --- ----------<br>------------- ------ ------ ---- ---- ------- ----- -- ----<br>-------- partner -- ---------- --- - --- ----- ----- ----<br>---- --- --- ----- --- ---- ---- ------- ----- ---- -------<br>--- --- -- ----- -- --- ---- -- --- ---- -- ------ ------<br>--- ----- -- ----,200800.92499998864,200799.37499994412,200272.883,200285.41499993298,200289.451,200806.012,,19,partner
screen,html.Screen,1_1_0_1_20,2021-03-25T17:07:59.797Z,,,,,,,,,,,,,,,,53,,,,,,,,,,,,,,334.4279999883147,response,,,,99,,,,,,Space,keypress(Space),,,,,,,,---- -- ----- -- ------ - ------- --- ----------<br>------------- ------ ------ ---- ---- ------- ----- -- ----<br>-------- ------- is ---------- --- - --- ----- ----- ----<br>---- --- --- ----- --- ---- ---- ------- ----- ---- -------<br>--- --- -- ----- -- --- ---- -- --- ---- -- ------ ------<br>--- ----- -- ----,201141.22999995016,201140.4399999883,200789.463,200801.64499999955,200806.012,201155.88,,20,is
screen,html.Screen,1_1_0_1_21,2021-03-25T17:08:01.710Z,,,,,,,,,,,,,,,,53,,,,,,,,,,,,,,1897.6099999620346,response,,,,99,,,,,,Space,keypress(Space),,,,,,,,---- -- ----- -- ------ - ------- --- ----------<br>------------- ------ ------ ---- ---- ------- ----- -- ----<br>-------- ------- -- paramount. --- - --- ----- ----- ----<br>---- --- --- ----- --- ---- ---- ------- ----- ---- -------<br>--- --- -- ----- -- --- ---- -- --- ---- -- ------ ------<br>--- ----- -- ----,203054.73500001244,203053.48999996204,201139.259,201141.39999996405,201155.88,203072.226,,21,paramount.
screen,html.Screen,1_1_0_1_22,2021-03-25T17:08:02.446Z,,,,,,,,,,,,,,,,53,,,,,,,,,,,,,,717.2739999553014,response,,,,99,,,,,,Space,keypress(Space),,,,,,,,---- -- ----- -- ------ - ------- --- ----------<br>------------- ------ ------ ---- ---- ------- ----- -- ----<br>-------- ------- -- ---------- But - --- ----- ----- ----<br>---- --- --- ----- --- ---- ---- ------- ----- ---- -------<br>--- --- -- ----- -- --- ---- -- --- ---- -- ------ ------<br>--- ----- -- ----,203790.79999995884,203789.4999999553,203055.661,203055.0799999619,203072.226,203805.407,,22,But
screen,html.Screen,1_1_0_1_23,2021-03-25T17:08:02.840Z,,,,,,,,,,,,,,,,53,,,,,,,,,,,,,,378.1529999176273,response,,,,99,,,,,,Space,keypress(Space),,,,,,,,---- -- ----- -- ------ - ------- --- ----------<br>------------- ------ ------ ---- ---- ------- ----- -- ----<br>-------- ------- -- ---------- --- a --- ----- ----- ----<br>---- --- --- ----- --- ---- ---- ------- ----- ---- -------<br>--- --- -- ----- -- --- ---- -- --- ---- -- ------ ------<br>--- ----- -- ----,204184.81499992777,204183.55999991763,203788.871,203791.28499992657,203805.407,204188.689,,23,a
screen,html.Screen,1_1_0_1_24,2021-03-25T17:08:03.258Z,,,,,,,,,,,,,,,,53,,,,,,,,,,,,,,412.5259999150876,response,,,,99,,,,,,Space,keypress(Space),,,,,,,,---- -- ----- -- ------ - ------- --- ----------<br>------------- ------ ------ ---- ---- ------- ----- -- ----<br>-------- ------- -- ---------- --- - new ----- ----- ----<br>---- --- --- ----- --- ---- ---- ------- ----- ---- -------<br>--- --- -- ----- -- --- ---- -- --- ---- -- ------ ------<br>--- ----- -- ----,204602.4749999633,204601.2149999151,204172.194,204185.14499999583,204188.689,204605.266,,24,new
screen,html.Screen,1_1_0_1_25,2021-03-25T17:08:03.609Z,,,,,,,,,,,,,,,,53,,,,,,,,,,,,,,347.2340000139666,response,,,,99,,,,,,Space,keypress(Space),,,,,,,,---- -- ----- -- ------ - ------- --- ----------<br>------------- ------ ------ ---- ---- ------- ----- -- ----<br>-------- ------- -- ---------- --- - --- study ----- ----<br>---- --- --- ----- --- ---- ---- ------- ----- ---- -------<br>--- --- -- ----- -- --- ---- -- --- ---- -- ------ ------<br>--- ----- -- ----,204953.7550000241,204952.50000001397,204588.686,204602.80499991495,204605.266,204986.436,,25,study
screen,html.Screen,1_1_0_1_26,2021-03-25T17:08:04.031Z,,,,,,,,,,,,,,,,53,,,,,,,,,,,,,,387.9990000051912,response,,,,99,,,,,,Space,keypress(Space),,,,,,,,---- -- ----- -- ------ - ------- --- ----------<br>------------- ------ ------ ---- ---- ------- ----- -- ----<br>-------- ------- -- ---------- --- - --- ----- finds ----<br>---- --- --- ----- --- ---- ---- ------- ----- ---- -------<br>--- --- -- ----- -- --- ---- -- --- ---- -- ------ ------<br>--- ----- -- ----,205375.66499994136,205374.43500000518,204938.71,204954.07999993768,204986.436,205388.589,,26,finds
screen,html.Screen,1_1_0_1_27,2021-03-25T17:08:04.583Z,,,,,,,,,,,,,,,,53,,,,,,,,,,,,,,537.9960000083374,response,,,,99,,,,,,Space,keypress(Space),,,,,,,,---- -- ----- -- ------ - ------- --- ----------<br>------------- ------ ------ ---- ---- ------- ----- -- ----<br>-------- ------- -- ---------- --- - --- ----- ----- that<br>---- --- --- ----- --- ---- ---- ------- ----- ---- -------<br>--- --- -- ----- -- --- ---- -- --- ---- -- ------ ------<br>--- ----- -- ----,205927.90999996942,205926.58500000834,205371.982,205376.01000000723,205388.589,205938.325,,27,that
screen,html.Screen,1_1_0_1_28,2021-03-25T17:08:05.138Z,,,,,,,,,,,,,,,,53,,,,,,,,,,,,,,542.6149999212357,response,,,,99,,,,,,Space,keypress(Space),,,,,,,,---- -- ----- -- ------ - ------- --- ----------<br>------------- ------ ------ ---- ---- ------- ----- -- ----<br>-------- ------- -- ---------- --- - --- ----- ----- ----<br>it's --- --- ----- --- ---- ---- ------- ----- ---- -------<br>--- --- -- ----- -- --- ---- -- --- ---- -- ------ ------<br>--- ----- -- ----,206482.16000001412,206480.93999992125,205921.918,205928.25999995694,205938.325,206488.283,,28,it's
screen,html.Screen,1_1_0_1_29,2021-03-25T17:08:05.771Z,,,,,,,,,,,,,,,,53,,,,,,,,,,,,,,625.5720000032452,response,,,,99,,,,,,Space,keypress(Space),,,,,,,,---- -- ----- -- ------ - ------- --- ----------<br>------------- ------ ------ ---- ---- ------- ----- -- ----<br>-------- ------- -- ---------- --- - --- ----- ----- ----<br>---- not --- ----- --- ---- ---- ------- ----- ---- -------<br>--- --- -- ----- -- --- ---- -- --- ---- -- ------ ------<br>--- ----- -- ----,207115.09999993723,207113.85500000324,206471.71,206482.48999996576,206488.283,207121.487,,29,not
screen,html.Screen,1_1_0_1_30,2021-03-25T17:08:06.264Z,,,,,,,,,,,,,,,,53,,,,,,,,,,,,,,484.9680000010121,response,,,,99,,,,,,Space,keypress(Space),,,,,,,,---- -- ----- -- ------ - ------- --- ----------<br>------------- ------ ------ ---- ---- ------- ----- -- ----<br>-------- ------- -- ---------- --- - --- ----- ----- ----<br>---- --- how ----- --- ---- ---- ------- ----- ---- -------<br>--- --- -- ----- -- --- ---- -- --- ---- -- ------ ------<br>--- ----- -- ----,207608.09499991592,207606.455000001,207104.999,207115.42499996722,207121.487,207621.486,,30,how
screen,html.Screen,1_1_0_1_31,2021-03-25T17:08:06.671Z,,,,,,,,,,,,,,,,53,,,,,,,,,,,,,,392.7589999693737,response,,,,99,,,,,,Space,keypress(Space),,,,,,,,---- -- ----- -- ------ - ------- --- ----------<br>------------- ------ ------ ---- ---- ------- ----- -- ----<br>-------- ------- -- ---------- --- - --- ----- ----- ----<br>---- --- --- close --- ---- ---- ------- ----- ---- -------<br>--- --- -- ----- -- --- ---- -- --- ---- -- ------ ------<br>--- ----- -- ----,208015.58999996632,208014.24499996938,207604.9,207608.6199999554,207621.486,208038.127,,31,close
screen,html.Screen,1_1_0_1_32,2021-03-25T17:08:07.242Z,,,,,,,,,,,,,,,,53,,,,,,,,,,,,,,547.2229999502597,response,,,,99,,,,,,Space,keypress(Space),,,,,,,,---- -- ----- -- ------ - ------- --- ----------<br>------------- ------ ------ ---- ---- ------- ----- -- ----<br>-------- ------- -- ---------- --- - --- ----- ----- ----<br>---- --- --- ----- you ---- ---- ------- ----- ---- -------<br>--- --- -- ----- -- --- ---- -- --- ---- -- ------ ------<br>--- ----- -- ----,208586.5899999626,208585.34999995027,208004.65,208015.91999991797,208038.127,208621.352,,32,you
screen,html.Screen,1_1_0_1_33,2021-03-25T17:08:07.765Z,,,,,,,,,,,,,,,,53,,,,,,,,,,,,,,487.00799995468697,response,,,,99,,,,,,Space,keypress(Space),,,,,,,,---- -- ----- -- ------ - ------- --- ----------<br>------------- ------ ------ ---- ---- ------- ----- -- ----<br>-------- ------- -- ---------- --- - --- ----- ----- ----<br>---- --- --- ----- --- feel ---- ------- ----- ---- -------<br>--- --- -- ----- -- --- ---- -- --- ---- -- ------ ------<br>--- ----- -- ----,209109.6050000051,209108.3599999547,208609.269,208586.93500002846,208621.352,209121.233,,33,feel
screen,html.Screen,1_1_0_1_34,2021-03-25T17:08:08.423Z,,,,,,,,,,,,,,,,53,,,,,,,,,,,,,,645.1969999596477,response,,,,99,,,,,,Space,keypress(Space),,,,,,,,---- -- ----- -- ------ - ------- --- ----------<br>------------- ------ ------ ---- ---- ------- ----- -- ----<br>-------- ------- -- ---------- --- - --- ----- ----- ----<br>---- --- --- ----- --- ---- that ------- ----- ---- -------<br>--- --- -- ----- -- --- ---- -- --- ---- -- ------ ------<br>--- ----- -- ----,209767.6649999339,209766.42999995966,209104.48,209110.0650000153,209121.233,209770.984,,34,that
screen,html.Screen,1_1_0_1_35,2021-03-25T17:08:08.851Z,,,,,,,,,,,,,,,,53,,,,,,,,,,,,,,423.5709999363753,response,,,,99,,,,,,Space,keypress(Space),,,,,,,,---- -- ----- -- ------ - ------- --- ----------<br>------------- ------ ------ ---- ---- ------- ----- -- ----<br>-------- ------- -- ---------- --- - --- ----- ----- ----<br>---- --- --- ----- --- ---- ---- matters ----- ---- -------<br>--- --- -- ----- -- --- ---- -- --- ---- -- ------ ------<br>--- ----- -- ----,210195.80500002485,210194.55499993637,209754.413,209768.00999999978,209770.984,210204.433,,35,matters
screen,html.Screen,1_1_0_1_36,2021-03-25T17:08:09.292Z,,,,,,,,,,,,,,,,53,,,,,,,,,,,,,,431.201999955083,response,,,,99,,,,,,Space,keypress(Space),,,,,,,,"---- -- ----- -- ------ - ------- --- ----------<br>------------- ------ ------ ---- ---- ------- ----- -- ----<br>-------- ------- -- ---------- --- - --- ----- ----- ----<br>---- --- --- ----- --- ---- ---- ------- most, ---- -------<br>--- --- -- ----- -- --- ---- -- --- ---- -- ------ ------<br>--- ----- -- ----",210636.86500000767,210635.63499995507,210187.744,210196.1649999721,210204.433,210654.185,,36,"most,"
screen,html.Screen,1_1_0_1_37,2021-03-25T17:08:09.748Z,,,,,,,,,,,,,,,,53,,,,,,,,,,,,,,437.0600000178092,response,,,,99,,,,,,Space,keypress(Space),,,,,,,,---- -- ----- -- ------ - ------- --- ----------<br>------------- ------ ------ ---- ---- ------- ----- -- ----<br>-------- ------- -- ---------- --- - --- ----- ----- ----<br>---- --- --- ----- --- ---- ---- ------- ----- it's -------<br>--- --- -- ----- -- --- ---- -- --- ---- -- ------ ------<br>--- ----- -- ----,211092.46999991592,211091.2450000178,210637.493,210637.20499991905,210654.185,211104.181,,37,it's
screen,html.Screen,1_1_0_1_38,2021-03-25T17:08:10.168Z,,,,,,,,,,,,,,,,53,,,,,,,,,,,,,,406.9089999271964,response,,,,99,,,,,,Space,keypress(Space),,,,,,,,---- -- ----- -- ------ - ------- --- ----------<br>------------- ------ ------ ---- ---- ------- ----- -- ----<br>-------- ------- -- ---------- --- - --- ----- ----- ----<br>---- --- --- ----- --- ---- ---- ------- ----- ---- whether<br>--- --- -- ----- -- --- ---- -- --- ---- -- ------ ------<br>--- ----- -- ----,211512.32500001788,211511.0899999272,211087.436,211092.7949999459,211104.181,211520.656,,38,whether
screen,html.Screen,1_1_0_1_39,2021-03-25T17:08:10.558Z,,,,,,,,,,,,,,,,53,,,,,,,,,,,,,,380.7889999667823,response,,,,99,,,,,,Space,keypress(Space),,,,,,,,---- -- ----- -- ------ - ------- --- ----------<br>------------- ------ ------ ---- ---- ------- ----- -- ----<br>-------- ------- -- ---------- --- - --- ----- ----- ----<br>---- --- --- ----- --- ---- ---- ------- ----- ---- -------<br>you --- -- ----- -- --- ---- -- --- ---- -- ------ ------<br>--- ----- -- ----,211902.69000001717,211901.44499996677,211504.168,211512.65499996953,211520.656,211937.397,,39,you
screen,html.Screen,1_1_0_1_40,2021-03-25T17:08:10.971Z,,,,,,,,,,,,,,,,53,,,,,,,,,,,,,,376.6429999683751,response,,,,99,,,,,,Space,keypress(Space),,,,,,,,---- -- ----- -- ------ - ------- --- ----------<br>------------- ------ ------ ---- ---- ------- ----- -- ----<br>-------- ------- -- ---------- --- - --- ----- ----- ----<br>---- --- --- ----- --- ---- ---- ------- ----- ---- -------<br>--- are -- ----- -- --- ---- -- --- ---- -- ------ ------<br>--- ----- -- ----,212315.27000002097,212314.03999996837,211926.886,211903.0100000091,211937.397,212320.533,,40,are
screen,html.Screen,1_1_0_1_41,2021-03-25T17:08:11.423Z,,,,,,,,,,,,,,,,53,,,,,,,,,,,,,,445.50700001680525,response,,,,99,,,,,,Space,keypress(Space),,,,,,,,---- -- ----- -- ------ - ------- --- ----------<br>------------- ------ ------ ---- ---- ------- ----- -- ----<br>-------- ------- -- ---------- --- - --- ----- ----- ----<br>---- --- --- ----- --- ---- ---- ------- ----- ---- -------<br>--- --- as ----- -- --- ---- -- --- ---- -- ------ ------<br>--- ----- -- ----,212767.3299999442,212766.0400000168,212303.973,212315.6050000107,212320.533,212770.428,,41,as
screen,html.Screen,1_1_0_1_42,2021-03-25T17:08:11.852Z,,,,,,,,,,,,,,,,53,,,,,,,,,,,,,,424.3019999883254,response,,,,99,,,,,,Space,keypress(Space),,,,,,,,---- -- ----- -- ------ - ------- --- ----------<br>------------- ------ ------ ---- ---- ------- ----- -- ----<br>-------- ------- -- ---------- --- - --- ----- ----- ----<br>---- --- --- ----- --- ---- ---- ------- ----- ---- -------<br>--- --- -- close -- --- ---- -- --- ---- -- ------ ------<br>--- ----- -- ----,213195.95500000287,213194.72999998834,212753.761,212767.67999993172,212770.428,213203.829,,42,close
screen,html.Screen,1_1_0_1_43,2021-03-25T17:08:12.266Z,,,,,,,,,,,,,,,,53,,,,,,,,,,,,,,405.4860000087938,response,,,,99,,,,,,Space,keypress(Space),,,,,,,,---- -- ----- -- ------ - ------- --- ----------<br>------------- ------ ------ ---- ---- ------- ----- -- ----<br>-------- ------- -- ---------- --- - --- ----- ----- ----<br>---- --- --- ----- --- ---- ---- ------- ----- ---- -------<br>--- --- -- ----- as --- ---- -- --- ---- -- ------ ------<br>--- ----- -- ----,213610.55500002112,213609.3150000088,213187.175,213196.29499991424,213203.829,213620.237,,43,as
screen,html.Screen,1_1_0_1_44,2021-03-25T17:08:12.667Z,,,,,,,,,,,,,,,,53,,,,,,,,,,,,,,389.48299997273716,response,,,,99,,,,,,Space,keypress(Space),,,,,,,,---- -- ----- -- ------ - ------- --- ----------<br>------------- ------ ------ ---- ---- ------- ----- -- ----<br>-------- ------- -- ---------- --- - --- ----- ----- ----<br>---- --- --- ----- --- ---- ---- ------- ----- ---- -------<br>--- --- -- ----- -- you ---- -- --- ---- -- ------ ------<br>--- ----- -- ----,214011.10000000335,214009.71999997273,213603.778,213610.88499997277,213620.237,214020.124,,44,you
screen,html.Screen,1_1_0_1_45,2021-03-25T17:08:13.089Z,,,,,,,,,,,,,,,,53,,,,,,,,,,,,,,411.5859999170643,response,,,,99,,,,,,Space,keypress(Space),,,,,,,,---- -- ----- -- ------ - ------- --- ----------<br>------------- ------ ------ ---- ---- ------- ----- -- ----<br>-------- ------- -- ---------- --- - --- ----- ----- ----<br>---- --- --- ----- --- ---- ---- ------- ----- ---- -------<br>--- --- -- ----- -- --- want -- --- ---- -- ------ ------<br>--- ----- -- ----,214432.94500000775,214431.70999991708,214003.676,214011.41999999527,214020.124,214436.767,,45,want
screen,html.Screen,1_1_0_1_46,2021-03-25T17:08:13.482Z,,,,,,,,,,,,,,,,53,,,,,,,,,,,,,,388.6080000149086,response,,,,99,,,,,,Space,keypress(Space),,,,,,,,---- -- ----- -- ------ - ------- --- ----------<br>------------- ------ ------ ---- ---- ------- ----- -- ----<br>-------- ------- -- ---------- --- - --- ----- ----- ----<br>---- --- --- ----- --- ---- ---- ------- ----- ---- -------<br>--- --- -- ----- -- --- ---- to --- ---- -- ------ ------<br>--- ----- -- ----,214826.60999998916,214825.3750000149,214420.292,214433.2749999594,214436.767,214836.734,,46,to
screen,html.Screen,1_1_0_1_47,2021-03-25T17:08:14.920Z,,,,,,,,,,,,,,,,53,,,,,,,,,,,,,,1425.4709999190527,response,,,,99,,,,,,Space,keypress(Space),,,,,,,,"---- -- ----- -- ------ - ------- --- ----------<br>------------- ------ ------ ---- ---- ------- ----- -- ----<br>-------- ------- -- ---------- --- - --- ----- ----- ----<br>---- --- --- ----- --- ---- ---- ------- ----- ---- -------<br>--- --- -- ----- -- --- ---- -- be, ---- -- ------ ------<br>--- ----- -- ----",216263.97500000894,216262.20499991905,214820.088,214826.95000001695,214836.734,216269.756,,47,"be,"
screen,html.Screen,1_1_0_1_48,2021-03-25T17:08:15.395Z,,,,,,,,,,,,,,,,53,,,,,,,,,,,,,,468.489000015019,response,,,,99,,,,,,Space,keypress(Space),,,,,,,,---- -- ----- -- ------ - ------- --- ----------<br>------------- ------ ------ ---- ---- ------- ----- -- ----<br>-------- ------- -- ---------- --- - --- ----- ----- ----<br>---- --- --- ----- --- ---- ---- ------- ----- ---- -------<br>--- --- -- ----- -- --- ---- -- --- even -- ------ ------<br>--- ----- -- ----,216739.5049999468,216738.245000015,216253.275,216264.2999999225,216269.756,216753.171,,48,even
screen,html.Screen,1_1_0_1_49,2021-03-25T17:08:15.793Z,,,,,,,,,,,,,,,,53,,,,,,,,,,,,,,382.58399993748753,response,,,,99,,,,,,Space,keypress(Space),,,,,,,,---- -- ----- -- ------ - ------- --- ----------<br>------------- ------ ------ ---- ---- ------- ----- -- ----<br>-------- ------- -- ---------- --- - --- ----- ----- ----<br>---- --- --- ----- --- ---- ---- ------- ----- ---- -------<br>--- --- -- ----- -- --- ---- -- --- ---- if ------ ------<br>--- ----- -- ----,217137.0599999791,217135.7549999375,216736.539,216739.8299999768,216753.171,217153.097,,49,if
screen,html.Screen,1_1_0_1_50,2021-03-25T17:08:16.304Z,,,,,,,,,,,,,,,,53,,,,,,,,,,,,,,494.05800001329044,response,,,,99,,,,,,Space,keypress(Space),,,,,,,,---- -- ----- -- ------ - ------- --- ----------<br>------------- ------ ------ ---- ---- ------- ----- -- ----<br>-------- ------- -- ---------- --- - --- ----- ----- ----<br>---- --- --- ----- --- ---- ---- ------- ----- ---- -------<br>--- --- -- ----- -- --- ---- -- --- ---- -- that's ------<br>--- ----- -- ----,217648.3999999473,217647.1550000133,217136.506,217137.39499996882,217153.097,217652.846,,50,that's
screen,html.Screen,1_1_0_1_51,2021-03-25T17:08:16.835Z,,,,,,,,,,,,,,,,53,,,,,,,,,,,,,,524.898999993602,response,,,,99,,,,,,Space,keypress(Space),,,,,,,,---- -- ----- -- ------ - ------- --- ----------<br>------------- ------ ------ ---- ---- ------- ----- -- ----<br>-------- ------- -- ---------- --- - --- ----- ----- ----<br>---- --- --- ----- --- ---- ---- ------- ----- ---- -------<br>--- --- -- ----- -- --- ---- -- --- ---- -- ------ really<br>--- ----- -- ----,218178.97999996785,218177.7449999936,217636.223,217648.7199999392,217652.846,218252.845,,51,really
screen,html.Screen,1_1_0_1_52,2021-03-25T17:08:17.300Z,,,,,,,,,,,,,,,,53,,,,,,,,,,,,,,390.27500002246234,response,,,,99,,,,,,Space,keypress(Space),,,,,,,,---- -- ----- -- ------ - ------- --- ----------<br>------------- ------ ------ ---- ---- ------- ----- -- ----<br>-------- ------- -- ---------- --- - --- ----- ----- ----<br>---- --- --- ----- --- ---- ---- ------- ----- ---- -------<br>--- --- -- ----- -- --- ---- -- --- ---- -- ------ ------<br>not ----- -- ----,218644.80999996886,218643.12000002246,218236.158,218241.61999998614,218252.845,218652.665,,52,not
screen,html.Screen,1_1_0_1_53,2021-03-25T17:08:17.739Z,,,,,,,,,,,,,,,,53,,,,,,,,,,,,,,429.57999993956764,response,,,,99,,,,,,Space,keypress(Space),,,,,,,,---- -- ----- -- ------ - ------- --- ----------<br>------------- ------ ------ ---- ---- ------- ----- -- ----<br>-------- ------- -- ---------- --- - --- ----- ----- ----<br>---- --- --- ----- --- ---- ---- ------- ----- ---- -------<br>--- --- -- ----- -- --- ---- -- --- ---- -- ------ ------<br>--- close -- ----,219083.47499999218,219082.24499993958,218635.977,218645.14499995857,218652.665,219085.901,,53,close
screen,html.Screen,1_1_0_1_54,2021-03-25T17:08:18.164Z,,,,,,,,,,,,,,,,53,,,,,,,,,,,,,,421.34399998612935,response,,,,99,,,,,,Space,keypress(Space),,,,,,,,---- -- ----- -- ------ - ------- --- ----------<br>------------- ------ ------ ---- ---- ------- ----- -- ----<br>-------- ------- -- ---------- --- - --- ----- ----- ----<br>---- --- --- ----- --- ---- ---- ------- ----- ---- -------<br>--- --- -- ----- -- --- ---- -- --- ---- -- ------ ------<br>--- ----- at ----,219508.47499992233,219507.24499998614,219069.308,219083.80000002217,219085.901,219519.235,,54,at
screen,html.Screen,1_1_0_1_55,2021-03-25T17:08:21.267Z,,,,,,,,,,,,,,,,53,,,,,,,,,,,,,,3090.9799999933457,response,,,,99,,,,,,Space,keypress(Space),,,,,,,,---- -- ----- -- ------ - ------- --- ----------<br>------------- ------ ------ ---- ---- ------- ----- -- ----<br>-------- ------- -- ---------- --- - --- ----- ----- ----<br>---- --- --- ----- --- ---- ---- ------- ----- ---- -------<br>--- --- -- ----- -- --- ---- -- --- ---- -- ------ ------<br>--- ----- -- all.,222611.4499999676,222610.21499999333,219502.64,219508.7899999926,219519.235,222635.242,,55,all.
Item 99,flow.Loop,1_1_0_1,2021-03-25T17:08:21.268Z,,,,,,,,,,,,,,,,,,,,,,,,,,,,,,39550.93099999332,completion,,,,,B,,,,,,,,,,silence,,,,,222612.13000002317,222610.21499999333,182642.847,182644.52500001062,183059.284,222635.242,,,
Question 1,html.Screen,1_1_0_2,2021-03-25T17:08:29.725Z,,,,,,,,,,,,,,,,,,,,,,,,,,,false,FALSE,,8433.73299994375,response,,,,99,B,,,,,TRUE,click #choice-1,,,,silence,,,,,231069.9199999217,231068.97499994375,222602.297,222612.44499997701,222635.242,231083.718,,,
Question 2,html.Screen,1_1_0_3,2021-03-25T17:08:34.823Z,,,,,,,,,,,,,,,,,,,,,,,,,,,false,TRUE,,5083.216999986558,response,,,,99,B,,,,,FALSE,click #choice-2,,,,silence,,,,,236167.9249999579,236166.93499998655,231067.16,231070.0749999378,231083.718,236182.767,,,
Item 99,flow.Sequence,1_1_0,2021-03-25T17:08:34.824Z,,,,,,,,,,,,,,,,,,,,,,,,,,,,,,60506.25299998655,completion,,,,,,,,,,,,,,,,,,,,236168.21499995422,236166.93499998655,175560.798,175643.2849999983,175660.682,236182.767,,,
Holding screen,html.Screen,1_1_1_0,2021-03-25T17:08:41.821Z,,,,,,,,,,,,,,,,,,,,,,,,,,,,,,6998.700000000012,timeout,,,,,,,,,,,,,,,,,,,,243165.92499997932,243164.824,236166.19,236168.3699999703,236182.767,243181.467,,,
screen,html.Screen,1_1_1_1_0,2021-03-25T17:08:44.452Z,,,,,,,,,,,,,,,,54,,,,,,,,,,,,,,2613.7479999327916,response,,,,100,,,,,,Space,keypress(Space),,,,,,,,At --- ---- --- ------ ----- ------- ---- -- --- ------- --<br>------- ---------- ------ -- ----- -- ----- -- ---- ------<br>--- ----- --- --- ------ -------- ----- --- ------ ----- --<br>----- ----- ---------- --- --- ------ ------ ---- -- ------<br>------- --- ------ ----- --- ---- ------- -- ---- --- --<br>------- ------,245796.94000002928,245795.2149999328,243164.824,243166.29999992438,243181.467,245797.592,,0,At
screen,html.Screen,1_1_1_1_1,2021-03-25T17:08:44.998Z,,,,,,,,,,,,,,,,54,,,,,,,,,,,,,,544.1829999789479,response,,,,100,,,,,,Space,keypress(Space),,,,,,,,-- the ---- --- ------ ----- ------- ---- -- --- ------- --<br>------- ---------- ------ -- ----- -- ----- -- ---- ------<br>--- ----- --- --- ------ -------- ----- --- ------ ----- --<br>----- ----- ---------- --- --- ------ ------ ---- -- ------<br>------- --- ------ ----- --- ---- ------- -- ---- --- --<br>------- ------,246342.8449999774,246341.77499997895,245781.118,245797.26999998093,245797.592,246347.453,,1,the
screen,html.Screen,1_1_1_1_2,2021-03-25T17:08:45.364Z,,,,,,,,,,,,,,,,54,,,,,,,,,,,,,,359.8020000157121,response,,,,100,,,,,,Space,keypress(Space),,,,,,,,-- --- time --- ------ ----- ------- ---- -- --- ------- --<br>------- ---------- ------ -- ----- -- ----- -- ---- ------<br>--- ----- --- --- ------ -------- ----- --- ------ ----- --<br>----- ----- ---------- --- --- ------ ------ ---- -- ------<br>------- --- ------ ----- --- ---- ------- -- ---- --- --<br>------- ------,246708.43499992043,246707.25500001572,246330.938,246343.14000001177,246347.453,246714.078,,2,time
screen,html.Screen,1_1_1_1_3,2021-03-25T17:08:45.751Z,,,,,,,,,,,,,,,,54,,,,,,,,,,,,,,380.65699993327144,response,,,,100,,,,,,Space,keypress(Space),,,,,,,,-- --- ---- the ------ ----- ------- ---- -- --- ------- --<br>------- ---------- ------ -- ----- -- ----- -- ---- ------<br>--- ----- --- --- ------ -------- ----- --- ------ ----- --<br>----- ----- ---------- --- --- ------ ------ ---- -- ------<br>------- --- ------ ----- --- ---- ------- -- ---- --- --<br>------- ------,247095.94499995,247094.73499993328,246697.579,246708.70499999728,246714.078,247128.443,,3,the
screen,html.Screen,1_1_1_1_4,2021-03-25T17:08:46.266Z,,,,,,,,,,,,,,,,54,,,,,,,,,,,,,,480.86199993264745,response,,,,100,,,,,,Space,keypress(Space),,,,,,,,-- --- ---- --- French ----- ------- ---- -- --- ------- --<br>------- ---------- ------ -- ----- -- ----- -- ---- ------<br>--- ----- --- --- ------ -------- ----- --- ------ ----- --<br>----- ----- ---------- --- --- ------ ------ ---- -- ------<br>------- --- ------ ----- --- ---- ------- -- ---- --- --<br>------- ------,247610.40000000503,247609.30499993265,247080.839,247096.2049999507,247128.443,247613.92,,4,French
screen,html.Screen,1_1_1_1_5,2021-03-25T17:08:46.783Z,,,,,,,,,,,,,,,,54,,,,,,,,,,,,,,512.2049999515584,response,,,,100,,,,,,Space,keypress(Space),,,,,,,,-- --- ---- --- ------ crown ------- ---- -- --- ------- --<br>------- ---------- ------ -- ----- -- ----- -- ---- ------<br>--- ----- --- --- ------ -------- ----- --- ------ ----- --<br>----- ----- ---------- --- --- ------ ------ ---- -- ------<br>------- --- ------ ----- --- ---- ------- -- ---- --- --<br>------- ------,248127.31000001077,248126.12499995157,247597.368,247610.66000000574,247613.92,248130.491,,5,crown
screen,html.Screen,1_1_1_1_6,2021-03-25T17:08:47.449Z,,,,,,,,,,,,,,,,54,,,,,,,,,,,,,,661.9889999454899,response,,,,100,,,,,,Space,keypress(Space),,,,,,,,-- --- ---- --- ------ ----- secured ---- -- --- ------- --<br>------- ---------- ------ -- ----- -- ----- -- ---- ------<br>--- ----- --- --- ------ -------- ----- --- ------ ----- --<br>----- ----- ---------- --- --- ------ ------ ---- -- ------<br>------- --- ------ ----- --- ---- ------- -- ---- --- --<br>------- ------,248793.68999996223,248792.4799999455,248114.015,248127.594999969,248130.491,248797.039,,6,secured
screen,html.Screen,1_1_1_1_7,2021-03-25T17:08:48.145Z,,,,,,,,,,,,,,,,54,,,,,,,,,,,,,,691.5209999688668,response,,,,100,,,,,,Space,keypress(Space),,,,,,,,-- --- ---- --- ------ ----- ------- much -- --- ------- --<br>------- ---------- ------ -- ----- -- ----- -- ---- ------<br>--- ----- --- --- ------ -------- ----- --- ------ ----- --<br>----- ----- ---------- --- --- ------ ------ ---- -- ------<br>------- --- ------ ----- --- ---- ------- -- ---- --- --<br>------- ------,249489.66500000097,249488.55999996886,248780.433,248793.95999992266,248797.039,249496.902,,7,much
screen,html.Screen,1_1_1_1_8,2021-03-25T17:08:48.732Z,,,,,,,,,,,,,,,,54,,,,,,,,,,,,,,578.3579999541398,response,,,,100,,,,,,Space,keypress(Space),,,,,,,,-- --- ---- --- ------ ----- ------- ---- of --- ------- --<br>------- ---------- ------ -- ----- -- ----- -- ---- ------<br>--- ----- --- --- ------ -------- ----- --- ------ ----- --<br>----- ----- ---------- --- --- ------ ------ ---- -- ------<br>------- --- ------ ----- --- ---- ------- -- ---- --- --<br>------- ------,250076.31499995477,250075.25999995414,249480.326,249489.92500000168,249496.902,250080.126,,8,of
screen,html.Screen,1_1_1_1_9,2021-03-25T17:08:49.121Z,,,,,,,,,,,,,,,,54,,,,,,,,,,,,,,384.1339999206248,response,,,,100,,,,,,Space,keypress(Space),,,,,,,,-- --- ---- --- ------ ----- ------- ---- -- its ------- --<br>------- ---------- ------ -- ----- -- ----- -- ---- ------<br>--- ----- --- --- ------ -------- ----- --- ------ ----- --<br>----- ----- ---------- --- --- ------ ------ ---- -- ------<br>------- --- ------ ----- --- ---- ------- -- ---- --- --<br>------- ------,250465.6449999893,250464.2599999206,250063.627,250076.57499995548,250080.126,250480.041,,9,its
screen,html.Screen,1_1_1_1_10,2021-03-25T17:08:49.511Z,,,,,,,,,,,,,,,,54,,,,,,,,,,,,,,374.34399995507556,response,,,,100,,,,,,Space,keypress(Space),,,,,,,,-- --- ---- --- ------ ----- ------- ---- -- --- revenue --<br>------- ---------- ------ -- ----- -- ----- -- ---- ------<br>--- ----- --- --- ------ -------- ----- --- ------ ----- --<br>----- ----- ---------- --- --- ------ ------ ---- -- ------<br>------- --- ------ ----- --- ---- ------- -- ---- --- --<br>------- ------,250855.51499994472,250854.38499995507,250463.511,250467.85499993712,250480.041,250863.304,,10,revenue
screen,html.Screen,1_1_1_1_11,2021-03-25T17:08:49.988Z,,,,,,,,,,,,,,,,54,,,,,,,,,,,,,,467.7059999653138,response,,,,100,,,,,,Space,keypress(Space),,,,,,,,-- --- ---- --- ------ ----- ------- ---- -- --- ------- by<br>------- ---------- ------ -- ----- -- ----- -- ---- ------<br>--- ----- --- --- ------ -------- ----- --- ------ ----- --<br>----- ----- ---------- --- --- ------ ------ ---- -- ------<br>------- --- ------ ----- --- ---- ------- -- ---- --- --<br>------- ------,251332.07999996375,251331.00999996532,250846.777,250855.77499994542,250863.304,251346.723,,11,by
screen,html.Screen,1_1_1_1_12,2021-03-25T17:08:50.769Z,,,,,,,,,,,,,,,,54,,,,,,,,,,,,,,765.3920000253711,response,,,,100,,,,,,Space,keypress(Space),,,,,,,,-- --- ---- --- ------ ----- ------- ---- -- --- ------- --<br>issuing ---------- ------ -- ----- -- ----- -- ---- ------<br>--- ----- --- --- ------ -------- ----- --- ------ ----- --<br>----- ----- ---------- --- --- ------ ------ ---- -- ------<br>------- --- ------ ----- --- ---- ------- -- ---- --- --<br>------- ------,252113.26999997254,252112.11500002537,251330.071,251332.3349999264,251346.723,252129.906,,12,issuing
screen,html.Screen,1_1_1_1_13,2021-03-25T17:08:51.294Z,,,,,,,,,,,,,,,,54,,,,,,,,,,,,,,507.3539999886125,response,,,,100,,,,,,Space,keypress(Space),,,,,,,,-- --- ---- --- ------ ----- ------- ---- -- --- ------- --<br>------- government ------ -- ----- -- ----- -- ---- ------<br>--- ----- --- --- ------ -------- ----- --- ------ ----- --<br>----- ----- ---------- --- --- ------ ------ ---- -- ------<br>------- --- ------ ----- --- ---- ------- -- ---- --- --<br>------- ------,252638.47999996506,252637.2599999886,252113.283,252113.56500000693,252129.906,252646.399,,13,government
screen,html.Screen,1_1_1_1_14,2021-03-25T17:08:54.013Z,,,,,,,,,,,,,,,,54,,,,,,,,,,,,,,2709.8309999175544,response,,,,100,,,,,,Space,keypress(Space),,,,,,,,-- --- ---- --- ------ ----- ------- ---- -- --- ------- --<br>------- ---------- bonds. -- ----- -- ----- -- ---- ------<br>--- ----- --- --- ------ -------- ----- --- ------ ----- --<br>----- ----- ---------- --- --- ------ ------ ---- -- ------<br>------- --- ------ ----- --- ---- ------- -- ---- --- --<br>------- ------,255357.42999997456,255356.22999991756,252629.786,252638.76999996137,252646.399,255362.474,,14,bonds.
screen,html.Screen,1_1_1_1_15,2021-03-25T17:08:54.398Z,,,,,,,,,,,,,,,,54,,,,,,,,,,,,,,378.66599994007265,response,,,,100,,,,,,Space,keypress(Space),,,,,,,,-- --- ---- --- ------ ----- ------- ---- -- --- ------- --<br>------- ---------- ------ In ----- -- ----- -- ---- ------<br>--- ----- --- --- ------ -------- ----- --- ------ ----- --<br>----- ----- ---------- --- --- ------ ------ ---- -- ------<br>------- --- ------ ----- --- ---- ------- -- ---- --- --<br>------- ------,255742.69500002265,255741.13999994006,255346.153,255357.7149999328,255362.474,255745.744,,15,In
screen,html.Screen,1_1_1_1_16,2021-03-25T17:08:55.303Z,,,,,,,,,,,,,,,,54,,,,,,,,,,,,,,900.7209999979823,response,,,,100,,,,,,Space,keypress(Space),,,,,,,,"-- --- ---- --- ------ ----- ------- ---- -- --- ------- --<br>------- ---------- ------ -- 1727, -- ----- -- ---- ------<br>--- ----- --- --- ------ -------- ----- --- ------ ----- --<br>----- ----- ---------- --- --- ------ ------ ---- -- ------<br>------- --- ------ ----- --- ---- ------- -- ---- --- --<br>------- ------",256647.72499992978,256646.464999998,255729.233,255742.98500001896,255745.744,256662.4,,16,"1727,"
screen,html.Screen,1_1_1_1_17,2021-03-25T17:08:55.786Z,,,,,,,,,,,,,,,,54,,,,,,,,,,,,,,467.16499995198683,response,,,,100,,,,,,Space,keypress(Space),,,,,,,,-- --- ---- --- ------ ----- ------- ---- -- --- ------- --<br>------- ---------- ------ -- ----- in ----- -- ---- ------<br>--- ----- --- --- ------ -------- ----- --- ------ ----- --<br>----- ----- ---------- --- --- ------ ------ ---- -- ------<br>------- --- ------ ----- --- ---- ------- -- ---- --- --<br>------- ------,257130.90999994893,257129.56499995198,256645.777,256647.9999999283,256662.4,257145.655,,17,in
screen,html.Screen,1_1_1_1_18,2021-03-25T17:08:56.306Z,,,,,,,,,,,,,,,,54,,,,,,,,,,,,,,502.9549999165174,response,,,,100,,,,,,Space,keypress(Space),,,,,,,,-- --- ---- --- ------ ----- ------- ---- -- --- ------- --<br>------- ---------- ------ -- ----- -- order -- ---- ------<br>--- ----- --- --- ------ -------- ----- --- ------ ----- --<br>----- ----- ---------- --- --- ------ ------ ---- -- ------<br>------- --- ------ ----- --- ---- ------- -- ---- --- --<br>------- ------,257650.0600000145,257648.60999991652,257128.991,257131.16999994963,257145.655,257662.165,,18,order
screen,html.Screen,1_1_1_1_19,2021-03-25T17:08:56.681Z,,,,,,,,,,,,,,,,54,,,,,,,,,,,,,,361.7399999508925,response,,,,100,,,,,,Space,keypress(Space),,,,,,,,-- --- ---- --- ------ ----- ------- ---- -- --- ------- --<br>------- ---------- ------ -- ----- -- ----- to ---- ------<br>--- ----- --- --- ------ -------- ----- --- ------ ----- --<br>----- ----- ---------- --- --- ------ ------ ---- -- ------<br>------- --- ------ ----- --- ---- ------- -- ---- --- --<br>------- ------,258025.09499993175,258023.9049999509,257645.461,257650.36999993026,257662.165,258028.651,,19,to
screen,html.Screen,1_1_1_1_20,2021-03-25T17:08:57.024Z,,,,,,,,,,,,,,,,54,,,,,,,,,,,,,,338.12899992387975,response,,,,100,,,,,,Space,keypress(Space),,,,,,,,-- --- ---- --- ------ ----- ------- ---- -- --- ------- --<br>------- ---------- ------ -- ----- -- ----- -- save ------<br>--- ----- --- --- ------ -------- ----- --- ------ ----- --<br>----- ----- ---------- --- --- ------ ------ ---- -- ------<br>------- --- ------ ----- --- ---- ------- -- ---- --- --<br>------- ------,258367.97499994282,258366.7799999239,258012.029,258025.3950000042,258028.651,258378.574,,20,save
screen,html.Screen,1_1_1_1_21,2021-03-25T17:08:57.455Z,,,,,,,,,,,,,,,,54,,,,,,,,,,,,,,419.1109999977343,response,,,,100,,,,,,Space,keypress(Space),,,,,,,,"-- --- ---- --- ------ ----- ------- ---- -- --- ------- --<br>------- ---------- ------ -- ----- -- ----- -- ---- money,<br>--- ----- --- --- ------ -------- ----- --- ------ ----- --<br>----- ----- ---------- --- --- ------ ------ ---- -- ------<br>------- --- ------ ----- --- ---- ------- -- ---- --- --<br>------- ------",258799.4849999668,258797.68499999773,258362.062,258368.23000002187,258378.574,258812.002,,21,"money,"
screen,html.Screen,1_1_1_1_22,2021-03-25T17:08:57.954Z,,,,,,,,,,,,,,,,54,,,,,,,,,,,,,,484.8379999663157,response,,,,100,,,,,,Space,keypress(Space),,,,,,,,-- --- ---- --- ------ ----- ------- ---- -- --- ------- --<br>------- ---------- ------ -- ----- -- ----- -- ---- ------<br>the ----- --- --- ------ -------- ----- --- ------ ----- --<br>----- ----- ---------- --- --- ------ ------ ---- -- ------<br>------- --- ------ ----- --- ---- ------- -- ---- --- --<br>------- ------,259298.08999993838,259296.83999996632,258795.336,258799.7800000012,258812.002,259311.907,,22,the
screen,html.Screen,1_1_1_1_23,2021-03-25T17:08:58.319Z,,,,,,,,,,,,,,,,54,,,,,,,,,,,,,,350.1380000045756,response,,,,100,,,,,,Space,keypress(Space),,,,,,,,-- --- ---- --- ------ ----- ------- ---- -- --- ------- --<br>------- ---------- ------ -- ----- -- ----- -- ---- ------<br>--- state --- --- ------ -------- ----- --- ------ ----- --<br>----- ----- ---------- --- --- ------ ------ ---- -- ------<br>------- --- ------ ----- --- ---- ------- -- ---- --- --<br>------- ------,259663.30499993637,259662.04500000458,259295.193,259298.55499998666,259311.907,259678.405,,23,state
screen,html.Screen,1_1_1_1_24,2021-03-25T17:08:58.700Z,,,,,,,,,,,,,,,,54,,,,,,,,,,,,,,364.39000001575914,response,,,,100,,,,,,Space,keypress(Space),,,,,,,,-- --- ---- --- ------ ----- ------- ---- -- --- ------- --<br>------- ---------- ------ -- ----- -- ----- -- ---- ------<br>--- ----- cut --- ------ -------- ----- --- ------ ----- --<br>----- ----- ---------- --- --- ------ ------ ---- -- ------<br>------- --- ------ ----- --- ---- ------- -- ---- --- --<br>------- ------,260043.98999991827,260042.79500001576,259661.938,259663.57999993488,259678.405,260078.434,,24,cut
screen,html.Screen,1_1_1_1_25,2021-03-25T17:08:59.107Z,,,,,,,,,,,,,,,,54,,,,,,,,,,,,,,371.91599994094577,response,,,,100,,,,,,Space,keypress(Space),,,,,,,,-- --- ---- --- ------ ----- ------- ---- -- --- ------- --<br>------- ---------- ------ -- ----- -- ----- -- ---- ------<br>--- ----- --- the ------ -------- ----- --- ------ ----- --<br>----- ----- ---------- --- --- ------ ------ ---- -- ------<br>------- --- ------ ----- --- ---- ------- -- ---- --- --<br>------- ------,260451.62499998696,260450.34999994095,260061.745,260044.28499995265,260078.434,260461.738,,25,the
screen,html.Screen,1_1_1_1_26,2021-03-25T17:08:59.652Z,,,,,,,,,,,,,,,,54,,,,,,,,,,,,,,533.106999979238,response,,,,100,,,,,,Space,keypress(Space),,,,,,,,-- --- ---- --- ------ ----- ------- ---- -- --- ------- --<br>------- ---------- ------ -- ----- -- ----- -- ---- ------<br>--- ----- --- --- bonds' -------- ----- --- ------ ----- --<br>----- ----- ---------- --- --- ------ ------ ---- -- ------<br>------- --- ------ ----- --- ---- ------- -- ---- --- --<br>------- ------,260996.41499994323,260994.84499997925,260445.028,260451.8799999496,260461.738,261011.471,,26,bonds'
screen,html.Screen,1_1_1_1_27,2021-03-25T17:09:00.091Z,,,,,,,,,,,,,,,,54,,,,,,,,,,,,,,423.3289999299741,response,,,,100,,,,,,Space,keypress(Space),,,,,,,,-- --- ---- --- ------ ----- ------- ---- -- --- ------- --<br>------- ---------- ------ -- ----- -- ----- -- ---- ------<br>--- ----- --- --- ------ interest ----- --- ------ ----- --<br>----- ----- ---------- --- --- ------ ------ ---- -- ------<br>------- --- ------ ----- --- ---- ------- -- ---- --- --<br>------- ------,261435.56999997236,261434.79999992996,260994.763,260996.7099999776,261011.471,261444.69,,27,interest
screen,html.Screen,1_1_1_1_28,2021-03-25T17:09:00.678Z,,,,,,,,,,,,,,,,54,,,,,,,,,,,,,,576.4149999343208,response,,,,100,,,,,,Space,keypress(Space),,,,,,,,-- --- ---- --- ------ ----- ------- ---- -- --- ------- --<br>------- ---------- ------ -- ----- -- ----- -- ---- ------<br>--- ----- --- --- ------ -------- rate. --- ------ ----- --<br>----- ----- ---------- --- --- ------ ------ ---- -- ------<br>------- --- ------ ----- --- ---- ------- -- ---- --- --<br>------- ------,262022.3700000206,262021.10499993432,261428.009,261435.73000002652,261444.69,262027.866,,28,rate.
screen,html.Screen,1_1_1_1_29,2021-03-25T17:09:03.243Z,,,,,,,,,,,,,,,,54,,,,,,,,,,,,,,2558.6339999757765,response,,,,100,,,,,,Space,keypress(Space),,,,,,,,-- --- ---- --- ------ ----- ------- ---- -- --- ------- --<br>------- ---------- ------ -- ----- -- ----- -- ---- ------<br>--- ----- --- --- ------ -------- ----- The ------ ----- --<br>----- ----- ---------- --- --- ------ ------ ---- -- ------<br>------- --- ------ ----- --- ---- ------- -- ---- --- --<br>------- ------,264587.3750000028,264586.4999999758,262011.234,262022.6450000191,262027.866,264593.964,,29,The
screen,html.Screen,1_1_1_1_30,2021-03-25T17:09:03.683Z,,,,,,,,,,,,,,,,54,,,,,,,,,,,,,,432.6309999448131,response,,,,100,,,,,,Space,keypress(Space),,,,,,,,-- --- ---- --- ------ ----- ------- ---- -- --- ------- --<br>------- ---------- ------ -- ----- -- ----- -- ---- ------<br>--- ----- --- --- ------ -------- ----- --- market ----- --<br>----- ----- ---------- --- --- ------ ------ ---- -- ------<br>------- --- ------ ----- --- ---- ------- -- ---- --- --<br>------- ------,265027.3649999872,265026.5949999448,264577.723,264587.5399999786,264593.964,265043.904,,30,market
screen,html.Screen,1_1_1_1_31,2021-03-25T17:09:04.153Z,,,,,,,,,,,,,,,,54,,,,,,,,,,,,,,452.90599992417265,response,,,,100,,,,,,Space,keypress(Space),,,,,,,,-- --- ---- --- ------ ----- ------- ---- -- --- ------- --<br>------- ---------- ------ -- ----- -- ----- -- ---- ------<br>--- ----- --- --- ------ -------- ----- --- ------ value --<br>----- ----- ---------- --- --- ------ ------ ---- -- ------<br>------- --- ------ ----- --- ---- ------- -- ---- --- --<br>------- ------,265497.52999993507,265496.80999992415,265027.298,265027.5149999652,265043.904,265510.453,,31,value
screen,html.Screen,1_1_1_1_32,2021-03-25T17:09:04.583Z,,,,,,,,,,,,,,,,54,,,,,,,,,,,,,,415.0069999403786,response,,,,100,,,,,,Space,keypress(Space),,,,,,,,-- --- ---- --- ------ ----- ------- ---- -- --- ------- --<br>------- ---------- ------ -- ----- -- ----- -- ---- ------<br>--- ----- --- --- ------ -------- ----- --- ------ ----- of<br>----- ----- ---------- --- --- ------ ------ ---- -- ------<br>------- --- ------ ----- --- ---- ------- -- ---- --- --<br>------- ------,265927.2999999812,265925.45999994036,265493.93,265497.72999994457,265510.453,265943.78,,32,of
screen,html.Screen,1_1_1_1_33,2021-03-25T17:09:05.027Z,,,,,,,,,,,,,,,,54,,,,,,,,,,,,,,426.23999991477467,response,,,,100,,,,,,Space,keypress(Space),,,,,,,,-- --- ---- --- ------ ----- ------- ---- -- --- ------- --<br>------- ---------- ------ -- ----- -- ----- -- ---- ------<br>--- ----- --- --- ------ -------- ----- --- ------ ----- --<br>these ----- ---------- --- --- ------ ------ ---- -- ------<br>------- --- ------ ----- --- ---- ------- -- ---- --- --<br>------- ------,266371.60999991465,266370.0199999148,265927.059,265927.6250000112,265943.78,266377.031,,33,these
screen,html.Screen,1_1_1_1_34,2021-03-25T17:09:05.457Z,,,,,,,,,,,,,,,,54,,,,,,,,,,,,,,424.2490000142134,response,,,,100,,,,,,Space,keypress(Space),,,,,,,,-- --- ---- --- ------ ----- ------- ---- -- --- ------- --<br>------- ---------- ------ -- ----- -- ----- -- ---- ------<br>--- ----- --- --- ------ -------- ----- --- ------ ----- --<br>----- bonds ---------- --- --- ------ ------ ---- -- ------<br>------- --- ------ ----- --- ---- ------- -- ---- --- --<br>------- ------,266801.93499999586,266801.28000001423,266360.512,266371.9849999761,266377.031,266810.18,,34,bonds
screen,html.Screen,1_1_1_1_35,2021-03-25T17:09:06.075Z,,,,,,,,,,,,,,,,54,,,,,,,,,,,,,,608.0699999878998,response,,,,100,,,,,,Space,keypress(Space),,,,,,,,"-- --- ---- --- ------ ----- ------- ---- -- --- ------- --<br>------- ---------- ------ -- ----- -- ----- -- ---- ------<br>--- ----- --- --- ------ -------- ----- --- ------ ----- --<br>----- ----- plummeted, --- --- ------ ------ ---- -- ------<br>------- --- ------ ----- --- ---- ------- -- ---- --- --<br>------- ------",267419.48499996215,267418.2499999879,266793.646,266802.0799999358,266810.18,267426.83,,35,"plummeted,"
screen,html.Screen,1_1_1_1_36,2021-03-25T17:09:06.968Z,,,,,,,,,,,,,,,,54,,,,,,,,,,,,,,884.3299999246956,response,,,,100,,,,,,Space,keypress(Space),,,,,,,,-- --- ---- --- ------ ----- ------- ---- -- --- ------- --<br>------- ---------- ------ -- ----- -- ----- -- ---- ------<br>--- ----- --- --- ------ -------- ----- --- ------ ----- --<br>----- ----- ---------- and --- ------ ------ ---- -- ------<br>------- --- ------ ----- --- ---- ------- -- ---- --- --<br>------- ------,268312.45999992825,268311.1599999247,267410.133,267419.77999999654,267426.83,268326.808,,36,and
screen,html.Screen,1_1_1_1_37,2021-03-25T17:09:07.318Z,,,,,,,,,,,,,,,,54,,,,,,,,,,,,,,334.0569999834406,response,,,,100,,,,,,Space,keypress(Space),,,,,,,,-- --- ---- --- ------ ----- ------- ---- -- --- ------- --<br>------- ---------- ------ -- ----- -- ----- -- ---- ------<br>--- ----- --- --- ------ -------- ----- --- ------ ----- --<br>----- ----- ---------- --- the ------ ------ ---- -- ------<br>------- --- ------ ----- --- ---- ------- -- ---- --- --<br>------- ------,268662.3599999584,268660.86499998346,268310.123,268312.73999996483,268326.808,268676.647,,37,the
screen,html.Screen,1_1_1_1_38,2021-03-25T17:09:07.721Z,,,,,,,,,,,,,,,,54,,,,,,,,,,,,,,387.5629999822704,response,,,,100,,,,,,Space,keypress(Space),,,,,,,,-- --- ---- --- ------ ----- ------- ---- -- --- ------- --<br>------- ---------- ------ -- ----- -- ----- -- ---- ------<br>--- ----- --- --- ------ -------- ----- --- ------ ----- --<br>----- ----- ---------- --- --- market ------ ---- -- ------<br>------- --- ------ ----- --- ---- ------- -- ---- --- --<br>------- ------,269065.4499999946,269064.20999998227,268660.126,268662.64999995474,268676.647,269076.661,,38,market
screen,html.Screen,1_1_1_1_39,2021-03-25T17:09:08.073Z,,,,,,,,,,,,,,,,54,,,,,,,,,,,,,,340.00899994774954,response,,,,100,,,,,,Space,keypress(Space),,,,,,,,-- --- ---- --- ------ ----- ------- ---- -- --- ------- --<br>------- ---------- ------ -- ----- -- ----- -- ---- ------<br>--- ----- --- --- ------ -------- ----- --- ------ ----- --<br>----- ----- ---------- --- --- ------ became ---- -- ------<br>------- --- ------ ----- --- ---- ------- -- ---- --- --<br>------- ------,269417.9000000004,269416.6699999478,269059.97,269065.745000029,269076.661,269426.654,,39,became
screen,html.Screen,1_1_1_1_40,2021-03-25T17:09:08.485Z,,,,,,,,,,,,,,,,54,,,,,,,,,,,,,,401.1210000124993,response,,,,100,,,,,,Space,keypress(Space),,,,,,,,-- --- ---- --- ------ ----- ------- ---- -- --- ------- --<br>------- ---------- ------ -- ----- -- ----- -- ---- ------<br>--- ----- --- --- ------ -------- ----- --- ------ ----- --<br>----- ----- ---------- --- --- ------ ------ wary -- ------<br>------- --- ------ ----- --- ---- ------- -- ---- --- --<br>------- ------,269828.97999999113,269827.7750000125,269409.96,269418.2049999945,269426.654,269843.197,,40,wary
screen,html.Screen,1_1_1_1_41,2021-03-25T17:09:08.894Z,,,,,,,,,,,,,,,,54,,,,,,,,,,,,,,394.1579999902169,response,,,,100,,,,,,Space,keypress(Space),,,,,,,,-- --- ---- --- ------ ----- ------- ---- -- --- ------- --<br>------- ---------- ------ -- ----- -- ----- -- ---- ------<br>--- ----- --- --- ------ -------- ----- --- ------ ----- --<br>----- ----- ---------- --- --- ------ ------ ---- of ------<br>------- --- ------ ----- --- ---- ------- -- ---- --- --<br>------- ------,270238.59500000253,270237.3549999902,269826.44,269829.2900000233,269843.197,270242.958,,41,of
screen,html.Screen,1_1_1_1_42,2021-03-25T17:09:09.427Z,,,,,,,,,,,,,,,,54,,,,,,,,,,,,,,527.1719999607885,response,,,,100,,,,,,Space,keypress(Space),,,,,,,,-- --- ---- --- ------ ----- ------- ---- -- --- ------- --<br>------- ---------- ------ -- ----- -- ----- -- ---- ------<br>--- ----- --- --- ------ -------- ----- --- ------ ----- --<br>----- ----- ---------- --- --- ------ ------ ---- -- French<br>------- --- ------ ----- --- ---- ------- -- ---- --- --<br>------- ------,270771.4899999555,270770.1299999608,270226.386,270238.89999999665,270242.958,270776.212,,42,French
screen,html.Screen,1_1_1_1_43,2021-03-25T17:09:10.995Z,,,,,,,,,,,,,,,,54,,,,,,,,,,,,,,1562.2979999140953,response,,,,100,,,,,,Space,keypress(Space),,,,,,,,-- --- ---- --- ------ ----- ------- ---- -- --- ------- --<br>------- ---------- ------ -- ----- -- ----- -- ---- ------<br>--- ----- --- --- ------ -------- ----- --- ------ ----- --<br>----- ----- ---------- --- --- ------ ------ ---- -- ------<br>credit. --- ------ ----- --- ---- ------- -- ---- --- --<br>------- ------,272339.7399999667,272338.5099999141,270759.747,270771.77999995183,270776.212,272342.553,,43,credit.
screen,html.Screen,1_1_1_1_44,2021-03-25T17:09:11.454Z,,,,,,,,,,,,,,,,54,,,,,,,,,,,,,,454.191999941424,response,,,,100,,,,,,Space,keypress(Space),,,,,,,,-- --- ---- --- ------ ----- ------- ---- -- --- ------- --<br>------- ---------- ------ -- ----- -- ----- -- ---- ------<br>--- ----- --- --- ------ -------- ----- --- ------ ----- --<br>----- ----- ---------- --- --- ------ ------ ---- -- ------<br>------- The ------ ----- --- ---- ------- -- ---- --- --<br>------- ------,272797.96999995597,272796.74499994144,272326.155,272340.0350000011,272342.553,272809.217,,44,The
screen,html.Screen,1_1_1_1_45,2021-03-25T17:09:11.881Z,,,,,,,,,,,,,,,,54,,,,,,,,,,,,,,414.5679999219137,response,,,,100,,,,,,Space,keypress(Space),,,,,,,,-- --- ---- --- ------ ----- ------- ---- -- --- ------- --<br>------- ---------- ------ -- ----- -- ----- -- ---- ------<br>--- ----- --- --- ------ -------- ----- --- ------ ----- --<br>----- ----- ---------- --- --- ------ ------ ---- -- ------<br>------- --- French ----- --- ---- ------- -- ---- --- --<br>------- ------,273224.9750000192,273223.7849999219,272792.676,272798.2700000284,272809.217,273242.59,,45,French
screen,html.Screen,1_1_1_1_46,2021-03-25T17:09:12.316Z,,,,,,,,,,,,,,,,54,,,,,,,,,,,,,,416.5650000011665,response,,,,100,,,,,,Space,keypress(Space),,,,,,,,-- --- ---- --- ------ ----- ------- ---- -- --- ------- --<br>------- ---------- ------ -- ----- -- ----- -- ---- ------<br>--- ----- --- --- ------ -------- ----- --- ------ ----- --<br>----- ----- ---------- --- --- ------ ------ ---- -- ------<br>------- --- ------ state --- ---- ------- -- ---- --- --<br>------- ------,273660.46499996446,273659.1550000012,273225.746,273225.26999993715,273242.59,273675.819,,46,state
screen,html.Screen,1_1_1_1_47,2021-03-25T17:09:12.682Z,,,,,,,,,,,,,,,,54,,,,,,,,,,,,,,349.1359999134438,response,,,,100,,,,,,Space,keypress(Space),,,,,,,,-- --- ---- --- ------ ----- ------- ---- -- --- ------- --<br>------- ---------- ------ -- ----- -- ----- -- ---- ------<br>--- ----- --- --- ------ -------- ----- --- ------ ----- --<br>----- ----- ---------- --- --- ------ ------ ---- -- ------<br>------- --- ------ ----- was ---- ------- -- ---- --- --<br>------- ------,274026.2399999192,274024.95499991346,273659.133,273660.93999997247,273675.819,274042.317,,47,was
screen,html.Screen,1_1_1_1_48,2021-03-25T17:09:13.028Z,,,,,,,,,,,,,,,,54,,,,,,,,,,,,,,328.87800001428695,response,,,,100,,,,,,Space,keypress(Space),,,,,,,,-- --- ---- --- ------ ----- ------- ---- -- --- ------- --<br>------- ---------- ------ -- ----- -- ----- -- ---- ------<br>--- ----- --- --- ------ -------- ----- --- ------ ----- --<br>----- ----- ---------- --- --- ------ ------ ---- -- ------<br>------- --- ------ ----- --- left ------- -- ---- --- --<br>------- ------,274372.3999999929,274371.19500001427,274025.837,274026.804999914,274042.317,274375.518,,48,left
screen,html.Screen,1_1_1_1_49,2021-03-25T17:09:13.401Z,,,,,,,,,,,,,,,,54,,,,,,,,,,,,,,368.51199994346825,response,,,,100,,,,,,Space,keypress(Space),,,,,,,,-- --- ---- --- ------ ----- ------- ---- -- --- ------- --<br>------- ---------- ------ -- ----- -- ----- -- ---- ------<br>--- ----- --- --- ------ -------- ----- --- ------ ----- --<br>----- ----- ---------- --- --- ------ ------ ---- -- ------<br>------- --- ------ ----- --- ---- without -- ---- --- --<br>------- ------,274745.6349999411,274744.02999994345,274358.904,274372.6799999131,274375.518,274758.824,,49,without
screen,html.Screen,1_1_1_1_50,2021-03-25T17:09:13.758Z,,,,,,,,,,,,,,,,54,,,,,,,,,,,,,,342.4810000183061,response,,,,100,,,,,,Space,keypress(Space),,,,,,,,-- --- ---- --- ------ ----- ------- ---- -- --- ------- --<br>------- ---------- ------ -- ----- -- ----- -- ---- ------<br>--- ----- --- --- ------ -------- ----- --- ------ ----- --<br>----- ----- ---------- --- --- ------ ------ ---- -- ------<br>------- --- ------ ----- --- ---- ------- an ---- --- --<br>------- ------,275102.54499991424,275101.3050000183,274742.318,274745.90500001796,274758.824,275108.722,,50,an
screen,html.Screen,1_1_1_1_51,2021-03-25T17:09:14.136Z,,,,,,,,,,,,,,,,54,,,,,,,,,,,,,,370.5330000129179,response,,,,100,,,,,,Space,keypress(Space),,,,,,,,-- --- ---- --- ------ ----- ------- ---- -- --- ------- --<br>------- ---------- ------ -- ----- -- ----- -- ---- ------<br>--- ----- --- --- ------ -------- ----- --- ------ ----- --<br>----- ----- ---------- --- --- ------ ------ ---- -- ------<br>------- --- ------ ----- --- ---- ------- -- easy --- --<br>------- ------,275480.6150000077,275479.2550000129,275092.145,275102.8249999508,275108.722,275492.105,,51,easy
screen,html.Screen,1_1_1_1_52,2021-03-25T17:09:14.500Z,,,,,,,,,,,,,,,,54,,,,,,,,,,,,,,351.2599999788217,response,,,,100,,,,,,Space,keypress(Space),,,,,,,,-- --- ---- --- ------ ----- ------- ---- -- --- ------- --<br>------- ---------- ------ -- ----- -- ----- -- ---- ------<br>--- ----- --- --- ------ -------- ----- --- ------ ----- --<br>----- ----- ---------- --- --- ------ ------ ---- -- ------<br>------- --- ------ ----- --- ---- ------- -- ---- way --<br>------- ------,275844.58999999333,275843.3649999788,275475.465,275480.8999999659,275492.105,275858.719,,52,way
screen,html.Screen,1_1_1_1_53,2021-03-25T17:09:14.861Z,,,,,,,,,,,,,,,,54,,,,,,,,,,,,,,345.0559999435791,response,,,,100,,,,,,Space,keypress(Space),,,,,,,,-- --- ---- --- ------ ----- ------- ---- -- --- ------- --<br>------- ---------- ------ -- ----- -- ----- -- ---- ------<br>--- ----- --- --- ------ -------- ----- --- ------ ----- --<br>----- ----- ---------- --- --- ------ ------ ---- -- ------<br>------- --- ------ ----- --- ---- ------- -- ---- --- of<br>------- ------,276204.98999999836,276203.77499994356,275842.047,275844.89499998745,275858.719,276208.502,,53,of
screen,html.Screen,1_1_1_1_54,2021-03-25T17:09:15.292Z,,,,,,,,,,,,,,,,54,,,,,,,,,,,,,,426.69800001883414,response,,,,100,,,,,,Space,keypress(Space),,,,,,,,-- --- ---- --- ------ ----- ------- ---- -- --- ------- --<br>------- ---------- ------ -- ----- -- ----- -- ---- ------<br>--- ----- --- --- ------ -------- ----- --- ------ ----- --<br>----- ----- ---------- --- --- ------ ------ ---- -- ------<br>------- --- ------ ----- --- ---- ------- -- ---- --- --<br>raising ------,276636.41999999527,276635.2000000188,276191.947,276205.2699999185,276208.502,276641.766,,54,raising
screen,html.Screen,1_1_1_1_55,2021-03-25T17:09:17.347Z,,,,,,,,,,,,,,,,54,,,,,,,,,,,,,,2048.3439999668044,response,,,,100,,,,,,Space,keypress(Space),,,,,,,,-- --- ---- --- ------ ----- ------- ---- -- --- ------- --<br>------- ---------- ------ -- ----- -- ----- -- ---- ------<br>--- ----- --- --- ------ -------- ----- --- ------ ----- --<br>----- ----- ---------- --- --- ------ ------ ---- -- ------<br>------- --- ------ ----- --- ---- ------- -- ---- --- --<br>------- money.,278691.4150000084,278690.1099999668,276625.255,276636.7249999894,276641.766,278708.04,,55,money.
Item 100,flow.Loop,1_1_1_1,2021-03-25T17:09:17.348Z,,,,,,,,,,,,,,,,,,,,,,,,,,,,,,35508.6429999668,completion,,,,,B,,,,,,,,,,silence,,,,,278692.0049999608,278690.1099999668,243164.824,243166.19999997783,243181.467,278708.04,,,
Question 1,html.Screen,1_1_1_2,2021-03-25T17:09:22.720Z,,,,,,,,,,,,,,,,,,,,,,,,,,,false,TRUE,,5355.184999932593,response,,,,100,B,,,,,FALSE,click #choice-2,,,,silence,,,,,284064.13499999326,284063.2249999326,278691.583,278692.2749999212,278708.04,284073.653,,,
Question 2,html.Screen,1_1_1_3,2021-03-25T17:09:26.388Z,,,,,,,,,,,,,,,,,,,,,,,,,,,true,FALSE,,3636.6869999905466,response,,,,100,B,,,,,FALSE,click #choice-2,,,,silence,,,,,287732.68000001553,287710.33999999054,284057.111,284064.2699999735,284073.653,287739.634,,,
Item 100,flow.Sequence,1_1_1,2021-03-25T17:09:26.389Z,,,,,,,,,,,,,,,,,,,,,,,,,,,,,,51527.572999990545,completion,,,,,,,,,,,,,,,,,,,,287733.0499999225,287710.33999999054,236166.19,236168.33000001498,236182.767,287739.634,,,
End of Practice,html.Page,1_1_2,2021-03-25T17:09:29.867Z,,,,,,,,,,,,,,,,,,,,,,,,,,,,,,3471.4059999655583,form submission,,,,,,,,,,,,,,,,,,,,291211.2849999685,291211.0399999656,287723.192,287733.2249999745,287739.634,291222.335,,,
Practice,flow.Sequence,1_1,2021-03-25T17:09:29.867Z,,,,,,,,,,,,,,,,,,,,,,,,,,,,,,115550.35799996558,completion,,,,,,,,,,,,,,,,,,,,291211.4949999377,291211.0399999656,175560.798,175643.18000001367,175660.682,291222.335,,,
Trap_instruction,html.Page,1_2_0,2021-03-25T17:09:33.964Z,,,,,,,,,,,,,,,,,,,,,,,,,,,,,,4085.684999996738,form submission,,,,,,,,,,,,,,,,,,,,295308.26499999966,295308.01999999676,291205.872,291211.634999956,291222.335,295338.244,,,
trap_trial,html.Screen,1_2_1,2021-03-25T17:09:37.992Z,,,,,,,,,,,,,,,,,,,,,,,,,,,true,1,,3997.3559999912395,response,,,,,,,,,,1,click #choice-1,,,,,,,,,299336.5249999333,299335.59999999125,295305.065,295308.3999999799,295338.244,299337.482,,,
end of trap trial,html.Page,1_2_2,2021-03-25T17:09:40.639Z,,,,,,,,,,,,,,,,,,,,,,,,,,,,,,2645.362999991339,form submission,,,,,,,,,,,,,,,,,,,,301983.27500000596,301982.84499999136,299320.832,299336.67500002775,299337.482,301986.999,,,
Trap 1,flow.Sequence,1_2,2021-03-25T17:09:40.639Z,,,,,,,,,,,,,,,,,,,,,,,,,,,,,,10760.509999991336,completion,,,,,,,,,,,,,,,,,,,,301983.4849999752,301982.84499999136,291205.872,291211.59500000067,291222.335,301986.999,,,
Holding screen,html.Screen,1_3_0_0,2021-03-25T17:09:47.626Z,,,,,,,,,,,,,,,,,,,,,,,,,,,,,,6999.043000000005,timeout,,,,,,,,,,,,,,,,,,,,308970.5949999625,308969.159,301970.399,301983.6549999891,301986.999,308986.042,,,
screen,html.Screen,1_3_0_1_0,2021-03-25T17:09:49.341Z,,,,,,,,,,,,,,,,2,,,,,,,,,,,,,,1698.027999959304,response,,,,1,B,,,,,Space,keypress(Space),,,,lyrical,,,,Two ---- ------ --- ------- ---------- ------- ----------<br>--- --------- --- ----------- ------- ----- ------- ---<br>--------- ---- -- --- ---- -- --------- -- ---- -------<br>-- --------- ------ --- ----- ------ ---- --- --------- --<br>------ - ---- -- --- ----------- ------- ---- ----- -----<br>--- -------- - ------ ---- -- ----- ---- --- --- -----------<br>-- -------,310685.5799999321,310684.0699999593,308969.159,308971.0099999793,308986.042,310702.136,,0,Two
screen,html.Screen,1_3_0_1_1,2021-03-25T17:09:49.924Z,,,,,,,,,,,,,,,,2,,,,,,,,,,,,,,565.3989999917685,response,,,,1,B,,,,,Space,keypress(Space),,,,lyrical,,,,--- days ------ --- ------- ---------- ------- ----------<br>--- --------- --- ----------- ------- ----- ------- ---<br>--------- ---- -- --- ---- -- --------- -- ---- -------<br>-- --------- ------ --- ----- ------ ---- --- --------- --<br>------ - ---- -- --- ----------- ------- ---- ----- -----<br>--- -------- - ------ ---- -- ----- ---- --- --- -----------<br>-- -------,311268.769999966,311267.53499999177,310685.611,310686.29500002135,310702.136,311285.419,,1,days
screen,html.Screen,1_3_0_1_2,2021-03-25T17:09:51.076Z,,,,,,,,,,,,,,,,2,,,,,,,,,,,,,,1134.125999953365,response,,,,1,B,,,,,Space,keypress(Space),,,,lyrical,,,,"--- ---- later, --- ------- ---------- ------- ----------<br>--- --------- --- ----------- ------- ----- ------- ---<br>--------- ---- -- --- ---- -- --------- -- ---- -------<br>-- --------- ------ --- ----- ------ ---- --- --------- --<br>------ - ---- -- --- ----------- ------- ---- ----- -----<br>--- -------- - ------ ---- -- ----- ---- --- --- -----------<br>-- -------",312421.00500001106,312419.54499995336,311268.746,311269.0650000004,311285.419,312435.153,,2,"later,"
screen,html.Screen,1_3_0_1_3,2021-03-25T17:09:51.478Z,,,,,,,,,,,,,,,,2,,,,,,,,,,,,,,386.18199998600176,response,,,,1,B,,,,,Space,keypress(Space),,,,lyrical,,,,--- ---- ------ the ------- ---------- ------- ----------<br>--- --------- --- ----------- ------- ----- ------- ---<br>--------- ---- -- --- ---- -- --------- -- ---- -------<br>-- --------- ------ --- ----- ------ ---- --- --------- --<br>------ - ---- -- --- ----------- ------- ---- ----- -----<br>--- -------- - ------ ---- -- ----- ---- --- --- -----------<br>-- -------,312822.72499997634,312821.334999986,312418.681,312421.325000003,312435.153,312835.159,,3,the
screen,html.Screen,1_3_0_1_4,2021-03-25T17:09:51.983Z,,,,,,,,,,,,,,,,2,,,,,,,,,,,,,,490.7459999760613,response,,,,1,B,,,,,Space,keypress(Space),,,,lyrical,,,,--- ---- ------ --- British ---------- ------- ----------<br>--- --------- --- ----------- ------- ----- ------- ---<br>--------- ---- -- --- ---- -- --------- -- ---- -------<br>-- --------- ------ --- ----- ------ ---- --- --------- --<br>------ - ---- -- --- ----------- ------- ---- ----- -----<br>--- -------- - ------ ---- -- ----- ---- --- --- -----------<br>-- -------,313327.1899999818,313325.90499997605,312818.399,312823.01499997266,312835.159,313334.939,,4,British
screen,html.Screen,1_3_0_1_5,2021-03-25T17:09:52.691Z,,,,,,,,,,,,,,,,2,,,,,,,,,,,,,,699.601000022376,response,,,,1,B,,,,,Space,keypress(Space),,,,lyrical,,,,--- ---- ------ --- ------- astronomer ------- ----------<br>--- --------- --- ----------- ------- ----- ------- ---<br>--------- ---- -- --- ---- -- --------- -- ---- -------<br>-- --------- ------ --- ----- ------ ---- --- --------- --<br>------ - ---- -- --- ----------- ------- ---- ----- -----<br>--- -------- - ------ ---- -- ----- ---- --- --- -----------<br>-- -------,314035.7199999271,314034.5400000224,313318.434,313327.4899999378,313334.939,314051.467,,5,astronomer
screen,html.Screen,1_3_0_1_6,2021-03-25T17:09:53.077Z,,,,,,,,,,,,,,,,2,,,,,,,,,,,,,,368.6729999437812,response,,,,1,B,,,,,Space,keypress(Space),,,,lyrical,,,,--- ---- ------ --- ------- ---------- Richard ----------<br>--- --------- --- ----------- ------- ----- ------- ---<br>--------- ---- -- --- ---- -- --------- -- ---- -------<br>-- --------- ------ --- ----- ------ ---- --- --------- --<br>------ - ---- -- --- ----------- ------- ---- ----- -----<br>--- -------- - ------ ---- -- ----- ---- --- --- -----------<br>-- -------,314421.4299999876,314420.1399999438,314034.895,314036.0099999234,314051.467,314434.88,,6,Richard
screen,html.Screen,1_3_0_1_7,2021-03-25T17:09:54.260Z,,,,,,,,,,,,,,,,2,,,,,,,,,,,,,,1168.1849999156548,response,,,,1,B,,,,,Space,keypress(Space),,,,lyrical,,,,--- ---- ------ --- ------- ---------- ------- Carrington<br>--- --------- --- ----------- ------- ----- ------- ---<br>--------- ---- -- --- ---- -- --------- -- ---- -------<br>-- --------- ------ --- ----- ------ ---- --- --------- --<br>------ - ---- -- --- ----------- ------- ---- ----- -----<br>--- -------- - ------ ---- -- ----- ---- --- --- -----------<br>-- -------,315604.1849999456,315603.06499991566,314418.258,314421.72999994364,314434.88,315618.004,,7,Carrington
screen,html.Screen,1_3_0_1_8,2021-03-25T17:09:54.737Z,,,,,,,,,,,,,,,,2,,,,,,,,,,,,,,462.3309999477933,response,,,,1,B,,,,,Space,keypress(Space),,,,lyrical,,,,--- ---- ------ --- ------- ---------- ------- ----------<br>was --------- --- ----------- ------- ----- ------- ---<br>--------- ---- -- --- ---- -- --------- -- ---- -------<br>-- --------- ------ --- ----- ------ ---- --- --------- --<br>------ - ---- -- --- ----------- ------- ---- ----- -----<br>--- -------- - ------ ---- -- ----- ---- --- --- -----------<br>-- -------,316081.54499996454,316080.3349999478,315601.419,315604.4749999419,315618.004,316084.414,,8,was
screen,html.Screen,1_3_0_1_9,2021-03-25T17:09:55.421Z,,,,,,,,,,,,,,,,2,,,,,,,,,,,,,,679.6109999240143,response,,,,1,B,,,,,Space,keypress(Space),,,,lyrical,,,,--- ---- ------ --- ------- ---------- ------- ----------<br>--- observing --- ----------- ------- ----- ------- ---<br>--------- ---- -- --- ---- -- --------- -- ---- -------<br>-- --------- ------ --- ----- ------ ---- --- --------- --<br>------ - ---- -- --- ----------- ------- ---- ----- -----<br>--- -------- - ------ ---- -- ----- ---- --- --- -----------<br>-- -------,316765.10999992024,316764.024999924,316067.815,316081.8399999989,316084.414,316767.641,,9,observing
screen,html.Screen,1_3_0_1_10,2021-03-25T17:09:55.965Z,,,,,,,,,,,,,,,,2,,,,,,,,,,,,,,540.4489999476937,response,,,,1,B,,,,,Space,keypress(Space),,,,lyrical,,,,--- ---- ------ --- ------- ---------- ------- ----------<br>--- --------- the ----------- ------- ----- ------- ---<br>--------- ---- -- --- ---- -- --------- -- ---- -------<br>-- --------- ------ --- ----- ------ ---- --- --------- --<br>------ - ---- -- --- ----------- ------- ---- ----- -----<br>--- -------- - ------ ---- -- ----- ---- --- --- -----------<br>-- -------,317309.21999993734,317308.0899999477,316751.165,316765.3899999568,316767.641,317317.517,,10,the
screen,html.Screen,1_3_0_1_11,2021-03-25T17:09:56.418Z,,,,,,,,,,,,,,,,2,,,,,,,,,,,,,,443.8679999615997,response,,,,1,B,,,,,Space,keypress(Space),,,,lyrical,,,,--- ---- ------ --- ------- ---------- ------- ----------<br>--- --------- --- interesting ------- ----- ------- ---<br>--------- ---- -- --- ---- -- --------- -- ---- -------<br>-- --------- ------ --- ----- ------ ---- --- --------- --<br>------ - ---- -- --- ----------- ------- ---- ----- -----<br>--- -------- - ------ ---- -- ----- ---- --- --- -----------<br>-- -------,317762.7499999944,317761.3849999616,317300.906,317309.4999999739,317317.517,317767.436,,11,interesting
screen,html.Screen,1_3_0_1_12,2021-03-25T17:09:56.820Z,,,,,,,,,,,,,,,,2,,,,,,,,,,,,,,396.26899995538406,response,,,,1,B,,,,,Space,keypress(Space),,,,lyrical,,,,--- ---- ------ --- ------- ---------- ------- ----------<br>--- --------- --- ----------- sunspot ----- ------- ---<br>--------- ---- -- --- ---- -- --------- -- ---- -------<br>-- --------- ------ --- ----- ------ ---- --- --------- --<br>------ - ---- -- --- ----------- ------- ---- ----- -----<br>--- -------- - ------ ---- -- ----- ---- --- --- -----------<br>-- -------,318164.81500002556,318163.7049999554,317750.933,317763.0450000288,317767.436,318167.369,,12,sunspot
screen,html.Screen,1_3_0_1_13,2021-03-25T17:09:57.283Z,,,,,,,,,,,,,,,,2,,,,,,,,,,,,,,458.63599996914854,response,,,,1,B,,,,,Space,keypress(Space),,,,lyrical,,,,--- ---- ------ --- ------- ---------- ------- ----------<br>--- --------- --- ----------- ------- group ------- ---<br>--------- ---- -- --- ---- -- --------- -- ---- -------<br>-- --------- ------ --- ----- ------ ---- --- --------- --<br>------ - ---- -- --- ----------- ------- ---- ----- -----<br>--- -------- - ------ ---- -- ----- ---- --- --- -----------<br>-- -------,318627.3199999705,318626.00499996915,318150.855,318165.0999999838,318167.369,318633.949,,13,group
screen,html.Screen,1_3_0_1_14,2021-03-25T17:09:57.723Z,,,,,,,,,,,,,,,,2,,,,,,,,,,,,,,432.5259999996051,response,,,,1,B,,,,,Space,keypress(Space),,,,lyrical,,,,--- ---- ------ --- ------- ---------- ------- ----------<br>--- --------- --- ----------- ------- ----- through ---<br>--------- ---- -- --- ---- -- --------- -- ---- -------<br>-- --------- ------ --- ----- ------ ---- --- --------- --<br>------ - ---- -- --- ----------- ------- ---- ----- -----<br>--- -------- - ------ ---- -- ----- ---- --- --- -----------<br>-- -------,319067.7849999629,319066.4749999996,318617.441,318627.6000000071,318633.949,319084.002,,14,through
screen,html.Screen,1_3_0_1_15,2021-03-25T17:09:58.169Z,,,,,,,,,,,,,,,,2,,,,,,,,,,,,,,427.8979999249568,response,,,,1,B,,,,,Space,keypress(Space),,,,lyrical,,,,--- ---- ------ --- ------- ---------- ------- ----------<br>--- --------- --- ----------- ------- ----- ------- his<br>--------- ---- -- --- ---- -- --------- -- ---- -------<br>-- --------- ------ --- ----- ------ ---- --- --------- --<br>------ - ---- -- --- ----------- ------- ---- ----- -----<br>--- -------- - ------ ---- -- ----- ---- --- --- -----------<br>-- -------,319513.46499996725,319511.89999992494,319067.228,319068.06999992114,319084.002,319517.119,,15,his
screen,html.Screen,1_3_0_1_16,2021-03-25T17:09:58.622Z,,,,,,,,,,,,,,,,2,,,,,,,,,,,,,,448.46599999809405,response,,,,1,B,,,,,Space,keypress(Space),,,,lyrical,,,,--- ---- ------ --- ------- ---------- ------- ----------<br>--- --------- --- ----------- ------- ----- ------- ---<br>telescope ---- -- --- ---- -- --------- -- ---- -------<br>-- --------- ------ --- ----- ------ ---- --- --------- --<br>------ - ---- -- --- ----------- ------- ---- ----- -----<br>--- -------- - ------ ---- -- ----- ---- --- --- -----------<br>-- -------,319966.85500000603,319965.5849999981,319500.499,319513.7499999255,319517.119,319983.963,,16,telescope
screen,html.Screen,1_3_0_1_17,2021-03-25T17:09:59.159Z,,,,,,,,,,,,,,,,2,,,,,,,,,,,,,,517.876999924425,response,,,,1,B,,,,,Space,keypress(Space),,,,lyrical,,,,--- ---- ------ --- ------- ---------- ------- ----------<br>--- --------- --- ----------- ------- ----- ------- ---<br>--------- when -- --- ---- -- --------- -- ---- -------<br>-- --------- ------ --- ----- ------ ---- --- --------- --<br>------ - ---- -- --- ----------- ------- ---- ----- -----<br>--- -------- - ------ ---- -- ----- ---- --- --- -----------<br>-- -------,320503.3299999777,320501.8399999244,319967.168,319967.14500000235,319983.963,320516.999,,17,when
screen,html.Screen,1_3_0_1_18,2021-03-25T17:09:59.551Z,,,,,,,,,,,,,,,,2,,,,,,,,,,,,,,377.04099992645206,response,,,,1,B,,,,,Space,keypress(Space),,,,lyrical,,,,--- ---- ------ --- ------- ---------- ------- ----------<br>--- --------- --- ----------- ------- ----- ------- ---<br>--------- ---- he --- ---- -- --------- -- ---- -------<br>-- --------- ------ --- ----- ------ ---- --- --------- --<br>------ - ---- -- --- ----------- ------- ---- ----- -----<br>--- -------- - ------ ---- -- ----- ---- --- --- -----------<br>-- -------,320895.3249999322,320894.03999992646,320500.416,320503.6250000121,320516.999,320900.185,,18,he
screen,html.Screen,1_3_0_1_19,2021-03-25T17:10:00.009Z,,,,,,,,,,,,,,,,2,,,,,,,,,,,,,,451.42999993410194,response,,,,1,B,,,,,Space,keypress(Space),,,,lyrical,,,,--- ---- ------ --- ------- ---------- ------- ----------<br>--- --------- --- ----------- ------- ----- ------- ---<br>--------- ---- -- saw ---- -- --------- -- ---- -------<br>-- --------- ------ --- ----- ------ ---- --- --------- --<br>------ - ---- -- --- ----------- ------- ---- ----- -----<br>--- -------- - ------ ---- -- ----- ---- --- --- -----------<br>-- -------,321353.1700000167,321351.6149999341,320883.589,320895.6049999688,320900.185,321366.803,,19,saw
screen,html.Screen,1_3_0_1_20,2021-03-25T17:10:00.539Z,,,,,,,,,,,,,,,,2,,,,,,,,,,,,,,515.0069999334519,response,,,,1,B,,,,,Space,keypress(Space),,,,lyrical,,,,--- ---- ------ --- ------- ---------- ------- ----------<br>--- --------- --- ----------- ------- ----- ------- ---<br>--------- ---- -- --- what -- --------- -- ---- -------<br>-- --------- ------ --- ----- ------ ---- --- --------- --<br>------ - ---- -- --- ----------- ------- ---- ----- -----<br>--- -------- - ------ ---- -- ----- ---- --- --- -----------<br>-- -------,321883.38000001386,321881.80999993347,321350.213,321353.46999997273,321366.803,321900.185,,20,what
screen,html.Screen,1_3_0_1_21,2021-03-25T17:10:00.916Z,,,,,,,,,,,,,,,,2,,,,,,,,,,,,,,358.6799999815994,response,,,,1,B,,,,,Space,keypress(Space),,,,lyrical,,,,--- ---- ------ --- ------- ---------- ------- ----------<br>--- --------- --- ----------- ------- ----- ------- ---<br>--------- ---- -- --- ---- he --------- -- ---- -------<br>-- --------- ------ --- ----- ------ ---- --- --------- --<br>------ - ---- -- --- ----------- ------- ---- ----- -----<br>--- -------- - ------ ---- -- ----- ---- --- --- -----------<br>-- -------,322260.1400000276,322258.8649999816,321883.354,321883.67000001017,321900.185,322266.634,,21,he
screen,html.Screen,1_3_0_1_22,2021-03-25T17:10:02.777Z,,,,,,,,,,,,,,,,2,,,,,,,,,,,,,,1853.3109999257722,response,,,,1,B,,,,,Space,keypress(Space),,,,lyrical,,,,--- ---- ------ --- ------- ---------- ------- ----------<br>--- --------- --- ----------- ------- ----- ------- ---<br>--------- ---- -- --- ---- -- described -- ---- -------<br>-- --------- ------ --- ----- ------ ---- --- --------- --<br>------ - ---- -- --- ----------- ------- ---- ----- -----<br>--- -------- - ------ ---- -- ----- ---- --- --- -----------<br>-- -------,324121.7249999754,324119.9449999258,322250.002,322260.4349999456,322266.634,324133.118,,22,described
screen,html.Screen,1_3_0_1_23,2021-03-25T17:10:03.164Z,,,,,,,,,,,,,,,,2,,,,,,,,,,,,,,374.4469999780413,response,,,,1,B,,,,,Space,keypress(Space),,,,lyrical,,,,--- ---- ------ --- ------- ---------- ------- ----------<br>--- --------- --- ----------- ------- ----- ------- ---<br>--------- ---- -- --- ---- -- --------- as ---- -------<br>-- --------- ------ --- ----- ------ ---- --- --------- --<br>------ - ---- -- --- ----------- ------- ---- ----- -----<br>--- -------- - ------ ---- -- ----- ---- --- --- -----------<br>-- -------,324508.79499991424,324507.56499997806,324116.551,324122.17999994755,324133.118,324532.868,,23,as
screen,html.Screen,1_3_0_1_24,2021-03-25T17:10:03.532Z,,,,,,,,,,,,,,,,2,,,,,,,,,,,,,,342.61199992964976,response,,,,1,B,,,,,Space,keypress(Space),,,,lyrical,,,,"--- ---- ------ --- ------- ---------- ------- ----------<br>--- --------- --- ----------- ------- ----- ------- ---<br>--------- ---- -- --- ---- -- --------- -- ""two -------<br>-- --------- ------ --- ----- ------ ---- --- --------- --<br>------ - ---- -- --- ----------- ------- ---- ----- -----<br>--- -------- - ------ ---- -- ----- ---- --- --- -----------<br>-- -------",324876.7799999332,324875.47999992967,324499.676,324509.0749999508,324532.868,324882.769,,24,"""two"
screen,html.Screen,1_3_0_1_25,2021-03-25T17:10:03.944Z,,,,,,,,,,,,,,,,2,,,,,,,,,,,,,,404.7159999789437,response,,,,1,B,,,,,Space,keypress(Space),,,,lyrical,,,,--- ---- ------ --- ------- ---------- ------- ----------<br>--- --------- --- ----------- ------- ----- ------- ---<br>--------- ---- -- --- ---- -- --------- -- ---- patches<br>-- --------- ------ --- ----- ------ ---- --- --------- --<br>------ - ---- -- --- ----------- ------- ---- ----- -----<br>--- -------- - ------ ---- -- ----- ---- --- --- -----------<br>-- -------,325288.70999999344,325287.4849999789,324866.194,324877.06500000786,324882.769,325299.497,,25,patches
screen,html.Screen,1_3_0_1_26,2021-03-25T17:10:04.359Z,,,,,,,,,,,,,,,,2,,,,,,,,,,,,,,403.297999931965,response,,,,1,B,,,,,Space,keypress(Space),,,,lyrical,,,,--- ---- ------ --- ------- ---------- ------- ----------<br>--- --------- --- ----------- ------- ----- ------- ---<br>--------- ---- -- --- ---- -- --------- -- ---- -------<br>of --------- ------ --- ----- ------ ---- --- --------- --<br>------ - ---- -- --- ----------- ------- ---- ----- -----<br>--- -------- - ------ ---- -- ----- ---- --- --- -----------<br>-- -------,325704.05499998014,325702.79499993194,325282.875,325288.9949999517,325299.497,325716.081,,26,of
screen,html.Screen,1_3_0_1_27,2021-03-25T17:10:04.805Z,,,,,,,,,,,,,,,,2,,,,,,,,,,,,,,432.213999962667,response,,,,1,B,,,,,Space,keypress(Space),,,,lyrical,,,,--- ---- ------ --- ------- ---------- ------- ----------<br>--- --------- --- ----------- ------- ----- ------- ---<br>--------- ---- -- --- ---- -- --------- -- ---- -------<br>-- intensely ------ --- ----- ------ ---- --- --------- --<br>------ - ---- -- --- ----------- ------- ---- ----- -----<br>--- -------- - ------ ---- -- ----- ---- --- --- -----------<br>-- -------,326149.5850000065,326148.2949999627,325699.402,325704.3399999384,325716.081,326165.935,,27,intensely
screen,html.Screen,1_3_0_1_28,2021-03-25T17:10:05.193Z,,,,,,,,,,,,,,,,2,,,,,,,,,,,,,,370.38499995559687,response,,,,1,B,,,,,Space,keypress(Space),,,,lyrical,,,,--- ---- ------ --- ------- ---------- ------- ----------<br>--- --------- --- ----------- ------- ----- ------- ---<br>--------- ---- -- --- ---- -- --------- -- ---- -------<br>-- --------- bright --- ----- ------ ---- --- --------- --<br>------ - ---- -- --- ----------- ------- ---- ----- -----<br>--- -------- - ------ ---- -- ----- ---- --- --- -----------<br>-- -------,326537.53999993205,326536.3199999556,326149.377,326149.8699999647,326165.935,326549.298,,28,bright
screen,html.Screen,1_3_0_1_29,2021-03-25T17:10:05.587Z,,,,,,,,,,,,,,,,2,,,,,,,,,,,,,,381.33199995890027,response,,,,1,B,,,,,Space,keypress(Space),,,,lyrical,,,,--- ---- ------ --- ------- ---------- ------- ----------<br>--- --------- --- ----------- ------- ----- ------- ---<br>--------- ---- -- --- ---- -- --------- -- ---- -------<br>-- --------- ------ and ----- ------ ---- --- --------- --<br>------ - ---- -- --- ----------- ------- ---- ----- -----<br>--- -------- - ------ ---- -- ----- ---- --- --- -----------<br>-- -------,326932.02499998733,326930.6299999589,326532.57,326537.81999996863,326549.298,326949.237,,29,and
screen,html.Screen,1_3_0_1_30,2021-03-25T17:10:05.982Z,,,,,,,,,,,,,,,,2,,,,,,,,,,,,,,376.4029999372433,response,,,,1,B,,,,,Space,keypress(Space),,,,lyrical,,,,--- ---- ------ --- ------- ---------- ------- ----------<br>--- --------- --- ----------- ------- ----- ------- ---<br>--------- ---- -- --- ---- -- --------- -- ---- -------<br>-- --------- ------ --- white ------ ---- --- --------- --<br>------ - ---- -- --- ----------- ------- ---- ----- -----<br>--- -------- - ------ ---- -- ----- ---- --- --- -----------<br>-- -------,327326.8449999159,327325.63999993727,326932.403,326932.31499998365,326949.237,327332.345,,30,white
screen,html.Screen,1_3_0_1_31,2021-03-25T17:10:06.410Z,,,,,,,,,,,,,,,,2,,,,,,,,,,,,,,421.0599999667611,response,,,,1,B,,,,,Space,keypress(Space),,,,lyrical,,,,"--- ---- ------ --- ------- ---------- ------- ----------<br>--- --------- --- ----------- ------- ----- ------- ---<br>--------- ---- -- --- ---- -- --------- -- ---- -------<br>-- --------- ------ --- ----- light"" ---- --- --------- --<br>------ - ---- -- --- ----------- ------- ---- ----- -----<br>--- -------- - ------ ---- -- ----- ---- --- --- -----------<br>-- -------",327754.59999998566,327753.40499996673,327315.682,327327.11999991443,327332.345,327765.602,,31,"light"""
screen,html.Screen,1_3_0_1_32,2021-03-25T17:10:07.343Z,,,,,,,,,,,,,,,,2,,,,,,,,,,,,,,920.6679999473854,response,,,,1,B,,,,,Space,keypress(Space),,,,lyrical,,,,--- ---- ------ --- ------- ---------- ------- ----------<br>--- --------- --- ----------- ------- ----- ------- ---<br>--------- ---- -- --- ---- -- --------- -- ---- -------<br>-- --------- ------ --- ----- ------ over --- --------- --<br>------ - ---- -- --- ----------- ------- ---- ----- -----<br>--- -------- - ------ ---- -- ----- ---- --- --- -----------<br>-- -------,328687.53999995533,328686.2699999474,327749.039,327754.88000002224,327765.602,328698.72,,32,over
screen,html.Screen,1_3_0_1_33,2021-03-25T17:10:07.931Z,,,,,,,,,,,,,,,,2,,,,,,,,,,,,,,575.8749999662396,response,,,,1,B,,,,,Space,keypress(Space),,,,lyrical,,,,--- ---- ------ --- ------- ---------- ------- ----------<br>--- --------- --- ----------- ------- ----- ------- ---<br>--------- ---- -- --- ---- -- --------- -- ---- -------<br>-- --------- ------ --- ----- ------ ---- the --------- --<br>------ - ---- -- --- ----------- ------- ---- ----- -----<br>--- -------- - ------ ---- -- ----- ---- --- --- -----------<br>-- -------,329275.7950000232,329274.5949999662,328682.154,328687.79999995604,328698.72,329281.955,,33,the
screen,html.Screen,1_3_0_1_34,2021-03-25T17:10:09.438Z,,,,,,,,,,,,,,,,2,,,,,,,,,,,,,,1499.329999917245,response,,,,1,B,,,,,Space,keypress(Space),,,,lyrical,,,,--- ---- ------ --- ------- ---------- ------- ----------<br>--- --------- --- ----------- ------- ----- ------- ---<br>--------- ---- -- --- ---- -- --------- -- ---- -------<br>-- --------- ------ --- ----- ------ ---- --- sunspots. --<br>------ - ---- -- --- ----------- ------- ---- ----- -----<br>--- -------- - ------ ---- -- ----- ---- --- --- -----------<br>-- -------,330782.98000001814,330781.28499991726,329265.334,329276.0749999434,329281.955,330798.509,,34,sunspots.
screen,html.Screen,1_3_0_1_35,2021-03-25T17:10:09.870Z,,,,,,,,,,,,,,,,2,,,,,,,,,,,,,,414.5159999463358,response,,,,1,B,,,,,Space,keypress(Space),,,,lyrical,,,,--- ---- ------ --- ------- ---------- ------- ----------<br>--- --------- --- ----------- ------- ----- ------- ---<br>--------- ---- -- --- ---- -- --------- -- ---- -------<br>-- --------- ------ --- ----- ------ ---- --- --------- He<br>------ - ---- -- --- ----------- ------- ---- ----- -----<br>--- -------- - ------ ---- -- ----- ---- --- --- -----------<br>-- -------,331214.229999925,331213.02499994636,330781.954,330783.25500001665,330798.509,331231.628,,35,He
screen,html.Screen,1_3_0_1_36,2021-03-25T17:10:10.472Z,,,,,,,,,,,,,,,,2,,,,,,,,,,,,,,583.7919999989681,response,,,,1,B,,,,,Space,keypress(Space),,,,lyrical,,,,--- ---- ------ --- ------- ---------- ------- ----------<br>--- --------- --- ----------- ------- ----- ------- ---<br>--------- ---- -- --- ---- -- --------- -- ---- -------<br>-- --------- ------ --- ----- ------ ---- --- --------- --<br>jotted - ---- -- --- ----------- ------- ---- ----- -----<br>--- -------- - ------ ---- -- ----- ---- --- --- -----------<br>-- -------,331816.65499997325,331815.419999999,331214.97,331214.5099999616,331231.628,331831.524,,36,jotted
screen,html.Screen,1_3_0_1_37,2021-03-25T17:10:10.992Z,,,,,,,,,,,,,,,,2,,,,,,,,,,,,,,503.9359999729786,response,,,,1,B,,,,,Space,keypress(Space),,,,lyrical,,,,--- ---- ------ --- ------- ---------- ------- ----------<br>--- --------- --- ----------- ------- ----- ------- ---<br>--------- ---- -- --- ---- -- --------- -- ---- -------<br>-- --------- ------ --- ----- ------ ---- --- --------- --<br>------ a ---- -- --- ----------- ------- ---- ----- -----<br>--- -------- - ------ ---- -- ----- ---- --- --- -----------<br>-- -------,332336.7299999809,332335.45999997295,331814.944,331816.92999997176,331831.524,332348.201,,37,a
screen,html.Screen,1_3_0_1_38,2021-03-25T17:10:11.390Z,,,,,,,,,,,,,,,,2,,,,,,,,,,,,,,384.8290000030538,response,,,,1,B,,,,,Space,keypress(Space),,,,lyrical,,,,--- ---- ------ --- ------- ---------- ------- ----------<br>--- --------- --- ----------- ------- ----- ------- ---<br>--------- ---- -- --- ---- -- --------- -- ---- -------<br>-- --------- ------ --- ----- ------ ---- --- --------- --<br>------ - note -- --- ----------- ------- ---- ----- -----<br>--- -------- - ------ ---- -- ----- ---- --- --- -----------<br>-- -------,332734.225000022,332733.03000000305,332331.601,332336.99500001967,332348.201,332748.048,,38,note
