sender,sender_type,sender_id,timestamp,meta,,Blues,Classical,Country,Dance,Electronic,Folk,Gospel,Hip-Hop,Jazz,Latin,Musical/Film,New-age,Pop,Provo_ID,R&B,Rap,Reggae,Religious,Rock,Soul,Swing,Traditional,age,artist_name,correct,correctResponse,distraction,duration,education,ended_on,familiarity,gender,headphone_check_performance,item,list,music_frequency,offensiveness,pleasantness,position_correct,preference,response,response_action,snippet_file,song_name,song_rating,sound,stimulus_1,stimulus_2,stimulus_3,text,time_commit,time_end,time_render,time_run,time_show,time_switch,url,word,word_ID
Introduction,html.Screen,0_0,2021-04-12T07:27:56.650Z,"{""labjs_version"":""20.2.2"",""labjs_build"":{""flavor"":""production"",""commit"":""a25486e0c714a0ae2ce03ff94b7bb6896854dcfa""},""location"":""https://run.pavlovia.org/mvasilev/music_b/"",""userAgent"":""Mozilla/5.0 (Macintosh; Intel Mac OS X 10_15_7) AppleWebKit/537.36 (KHTML, like Gecko) Chrome/89.0.4389.114 Safari/537.36"",""platform"":""MacIntel"",""language"":""en-GB"",""locale"":""en-GB"",""timeZone"":""Europe/London"",""timezoneOffset"":-60,""screen_width"":1440,""screen_height"":900,""scroll_width"":1440,""scroll_height"":684,""window_innerWidth"":1440,""window_innerHeight"":732,""devicePixelRatio"":2}",,,,,,,,,,,,,,,,,,,,,,,,,,,,,6123.88199999961,,response,,,,,,,,,,,continue,click button,,,,,,,,,21951.890000000276,21946.47999999961,15805.932,15810.669999999845,15822.598,21955.686,{},,
Volume calibration,html.Screen,0_1,2021-04-12T07:28:22.514Z,,,,,,,,,,,,,,,,,,,,,,,,,,,,,,25852.07899999956,,response,,,,,,,,,,,continue,click button,,,,,,,,,47816.7999999996,47807.76499999956,21939.02,21952.390000000378,21955.686,47812.597,,,
Task instructions,html.Screen,0_2,2021-04-12T07:28:43.074Z,,,,,,,,,,,,,,,,,,,,,,,,,,,,,,20561.033000000047,,response,,,,,,,,,,,continue,click button,,,,,,,,,68377.62999999995,68373.63000000005,47795.931,47817.05500000044,47812.597,68377.58,,,
Sounds,html.Screen,0_3_0_0,2021-04-12T07:28:47.314Z,,,,,,,,,,,,,,,,,,,,,,,,,,,,,,4249.830000000002,,timeout,,,,,,,,,1,,,,,,,,S,I,O,,72617.29000000014,72610.744,68360.914,68378.16999999995,68377.58,72627.41,,,
Judgement,html.Screen,0_3_0_1,2021-04-12T07:28:49.204Z,,,,,,,,,,,,,,,,,,,,,,,,,,,true,1,,1875.8399999997491,,response,,,,,,,,,1,,1,click #choice-1,,,,,S,I,O,,74507.72500000038,74503.24999999975,72610.744,72617.58000000009,72627.41,74510.668,,,
Trial,flow.Sequence,0_3_0,2021-04-12T07:28:49.205Z,,,,,,,,,,,,,,,,,,,,,,,,,,,,,,6125.669999999751,,completion,,,,,,,,,1,,,,,,,,S,I,O,,74508.59000000037,74503.24999999975,68360.914,68378.0399999996,68377.58,74510.668,,,
Sounds,html.Screen,0_3_1_0,2021-04-12T07:28:53.443Z,,,,,,,,,,,,,,,,,,,,,,,,,,,,,,4249.830000000002,,timeout,,,,,,,,,3,,,,,,,,I,O,S,,78746.29999999978,78743.832,74494.002,74508.82999999975,74510.668,78760.498,,,
Judgement,html.Screen,0_3_1_1,2021-04-12T07:28:54.840Z,,,,,,,,,,,,,,,,,,,,,,,,,,,true,3,,1379.1269999997894,,response,,,,,,,,,3,,3,click #choice-3,,,,,I,O,S,,80143.74000000043,80139.6249999998,78743.832,78746.59499999962,78760.498,80153.209,,,
Trial,flow.Sequence,0_3_1,2021-04-12T07:28:54.840Z,,,,,,,,,,,,,,,,,,,,,,,,,,,,,,5628.956999999791,,completion,,,,,,,,,3,,,,,,,,I,O,S,,80144.1249999998,80139.6249999998,74494.002,74508.75999999972,74510.668,80153.209,,,
Sounds,html.Screen,0_3_2_0,2021-04-12T07:28:59.085Z,,,,,,,,,,,,,,,,,,,,,,,,,,,,,,4249.830000000002,,timeout,,,,,,,,,1,,,,,,,,S,O,I,,84388.82000000012,84386.373,80136.543,80144.34499999971,80153.209,84403.039,,,
Judgement,html.Screen,0_3_2_1,2021-04-12T07:28:59.919Z,,,,,,,,,,,,,,,,,,,,,,,,,,,true,1,,815.9260000000213,,response,,,,,,,,,1,,1,click #choice-1,,,,,S,O,I,,85223.06500000013,85218.96500000003,84386.373,84389.09500000045,84403.039,85236.339,,,
Trial,flow.Sequence,0_3_2,2021-04-12T07:28:59.919Z,,,,,,,,,,,,,,,,,,,,,,,,,,,,,,5065.756000000023,,completion,,,,,,,,,1,,,,,,,,S,O,I,,85223.51499999968,85218.96500000003,80136.543,80144.28000000044,80153.209,85236.339,,,
Sounds,html.Screen,0_3_3_0,2021-04-12T07:29:04.168Z,,,,,,,,,,,,,,,,,,,,,,,,,,,,,,4249.829999999987,,timeout,,,,,,,,,2,,,,,,,,I,S,O,,89471.98000000026,89469.503,85219.673,85223.82000000015,85236.339,89486.169,,,
Judgement,html.Screen,0_3_3_1,2021-04-12T07:29:04.782Z,,,,,,,,,,,,,,,,,,,,,,,,,,,false,2,,595.8459999999614,,response,,,,,,,,,2,,1,click #choice-1,,,,,I,S,O,,90086.11000000019,90082.01499999996,89469.503,89472.24000000005,89486.169,90085.9,,,
Trial,flow.Sequence,0_3_3,2021-04-12T07:29:04.782Z,,,,,,,,,,,,,,,,,,,,,,,,,,,,,,4845.6759999999485,,completion,,,,,,,,,2,,,,,,,,I,S,O,,90086.54500000011,90082.01499999996,85219.673,85223.70000000046,85236.339,90085.9,,,
Sounds,html.Screen,0_3_4_0,2021-04-12T07:29:09.018Z,,,,,,,,,,,,,,,,,,,,,,,,,,,,,,4249.830000000002,,timeout,,,,,,,,,2,,,,,,,,O,S,I,,94322.04000000001,94319.064,90069.234,90086.79500000016,90085.9,94335.73,,,
Judgement,html.Screen,0_3_4_1,2021-04-12T07:29:09.733Z,,,,,,,,,,,,,,,,,,,,,,,,,,,true,2,,697.4950000001263,,response,,,,,,,,,2,,2,click #choice-2,,,,,O,S,I,,95037.31499999958,95033.22500000012,94319.064,94322.29499999994,94335.73,95052.368,,,
Trial,flow.Sequence,0_3_4,2021-04-12T07:29:09.733Z,,,,,,,,,,,,,,,,,,,,,,,,,,,,,,4947.325000000128,,completion,,,,,,,,,2,,,,,,,,O,S,I,,95037.67499999958,95033.22500000012,90069.234,90086.72000000023,90085.9,95052.368,,,
Sounds,html.Screen,0_3_5_0,2021-04-12T07:29:13.983Z,,,,,,,,,,,,,,,,,,,,,,,,,,,,,,4249.830000000002,,timeout,,,,,,,,,3,,,,,,,,O,I,S,,99287.57500000029,99285.532,95035.702,95037.84499999983,95052.368,99302.198,,,
Judgement,html.Screen,0_3_5_1,2021-04-12T07:29:14.877Z,,,,,,,,,,,,,,,,,,,,,,,,,,,true,3,,875.8469999996596,,response,,,,,,,,,3,,3,click #choice-3,,,,,O,I,S,,100182.08500000037,100178.04499999966,99285.532,99287.85499999957,99302.198,100189.595,,,
Trial,flow.Sequence,0_3_5,2021-04-12T07:29:14.878Z,,,,,,,,,,,,,,,,,,,,,,,,,,,,,,5125.676999999661,,completion,,,,,,,,,3,,,,,,,,O,I,S,,100182.48500000028,100178.04499999966,95035.702,95037.80000000006,95052.368,100189.595,,,
Task,flow.Loop,0_3,2021-04-12T07:29:14.887Z,,,,,,,,,,,,,,,,,,,,,,,,,,,,,,31800.46499999966,,completion,,,0.8333333333333334,,,,,,,,,,,,,,,,,,100191.32999999965,100178.04499999966,68360.914,68377.92499999978,68377.58,100189.595,,,
Trap,html.Screen,0_4,2021-04-12T07:29:14.889Z,,,,,,,,,,,,,,,,,,,,,,,,,,,,,,NaN,,skipped,,,,,,,,,,,,,,,,,,,,,100193.26000000001,100178.04499999966,,100193.01499999984,,100189.595,,,
Thanks,html.Screen,0_5,2021-04-12T07:29:18.222Z,,,,,,,,,,,,,,,,,,,,,,,,,,,,,,3333.7449999997334,,response,,,,,,,,,,,continue,click button,,,,,,,,,103527.0499999997,103523.33999999973,100172.929,100193.43000000025,100189.595,108139.277,,,
Headphone screening,flow.Sequence,0,2021-04-12T07:29:18.223Z,,,,,,,,,,,,,,,,,,,,,,,,,,,,,,87700.74199999974,,completion,,,,,,,,,,,,,,,,,,,,,103527.4900000004,103523.33999999973,15805.932,15810.644999999568,15822.598,108139.277,,,
Instructions,html.Page,1_0,2021-04-12T07:29:40.532Z,,,,,,,,,,,,,,,,,,,,,,,,,,,,,,17697.01800000007,,form submission,,,,,,,,,,,,,,,,,,,,,125837.34000000004,125836.29500000007,108122.611,108132.62500000019,108139.277,125843.327,,,
Holding screen,html.Screen,1_1_0_0,2021-04-12T07:29:50.523Z,,,,,,,,,,,,,,,,,,,,,,,,,,,,,,9999.599999999991,,timeout,,,,,,,,,,,,,,,,,,,,,135829.41500000015,135826.261,125826.661,125837.63499999986,125843.327,135842.927,,,
screen,html.Screen,1_1_0_1_0,2021-04-12T07:29:52.144Z,,,,,,,,,,,,,,,,53,,,,,,,,,,,,,,1598.1730000000098,,response,,,,99,,,,,,,Space,keypress(Space),,,,,,,,When -- ----- -- ------ - ------- --- ----------<br>------------- ------ ------ ---- ---- ------- ----- -- ----<br>-------- ------- -- ---------- --- - --- ----- ----- ----<br>---- --- --- ----- --- ---- ---- ------- ----- ---- -------<br>--- --- -- ----- -- --- ---- -- --- ---- -- ------ ------<br>--- ----- -- ----,137450.75999999972,137441.1,135826.261,135829.8249999998,135842.927,137459.529,,0,When
screen,html.Screen,1_1_0_1_1,2021-04-12T07:29:52.591Z,,,,,,,,,,,,,,,,53,,,,,,,,,,,,,,430.58600000015576,,response,,,,99,,,,,,,Space,keypress(Space),,,,,,,,---- it ----- -- ------ - ------- --- ----------<br>------------- ------ ------ ---- ---- ------- ----- -- ----<br>-------- ------- -- ---------- --- - --- ----- ----- ----<br>---- --- --- ----- --- ---- ---- ------- ----- ---- -------<br>--- --- -- ----- -- --- ---- -- --- ---- -- ------ ------<br>--- ----- -- ----,137897.46999999988,137890.11500000017,137442.863,137450.95500000025,137459.529,137903.55,,1,it
screen,html.Screen,1_1_0_1_2,2021-04-12T07:29:53.081Z,,,,,,,,,,,,,,,,53,,,,,,,,,,,,,,476.93499999970663,,response,,,,99,,,,,,,Space,keypress(Space),,,,,,,,---- -- comes -- ------ - ------- --- ----------<br>------------- ------ ------ ---- ---- ------- ----- -- ----<br>-------- ------- -- ---------- --- - --- ----- ----- ----<br>---- --- --- ----- --- ---- ---- ------- ----- ---- -------<br>--- --- -- ----- -- --- ---- -- --- ---- -- ------ ------<br>--- ----- -- ----,138387.75499999974,138380.4849999997,137886.884,137897.64999999988,137903.55,138403.53,,2,comes
screen,html.Screen,1_1_0_1_3,2021-04-12T07:29:53.485Z,,,,,,,,,,,,,,,,53,,,,,,,,,,,,,,380.97499999962747,,response,,,,99,,,,,,,Space,keypress(Space),,,,,,,,---- -- ----- to ------ - ------- --- ----------<br>------------- ------ ------ ---- ---- ------- ----- -- ----<br>-------- ------- -- ---------- --- - --- ----- ----- ----<br>---- --- --- ----- --- ---- ---- ------- ----- ---- -------<br>--- --- -- ----- -- --- ---- -- --- ---- -- ------ ------<br>--- ----- -- ----,138791.8149999996,138784.50499999963,138386.864,138387.92999999988,138403.53,138803.514,,3,to
screen,html.Screen,1_1_0_1_4,2021-04-12T07:29:54.112Z,,,,,,,,,,,,,,,,53,,,,,,,,,,,,,,607.2560000004305,,response,,,,99,,,,,,,Space,keypress(Space),,,,,,,,---- -- ----- -- having - ------- --- ----------<br>------------- ------ ------ ---- ---- ------- ----- -- ----<br>-------- ------- -- ---------- --- - --- ----- ----- ----<br>---- --- --- ----- --- ---- ---- ------- ----- ---- -------<br>--- --- -- ----- -- --- ---- -- --- ---- -- ------ ------<br>--- ----- -- ----,139418.17499999978,139410.77000000043,138786.848,138791.9949999996,138803.514,139420.156,,4,having
screen,html.Screen,1_1_0_1_5,2021-04-12T07:29:54.740Z,,,,,,,,,,,,,,,,53,,,,,,,,,,,,,,618.5290000004461,,response,,,,99,,,,,,,Space,keypress(Space),,,,,,,,---- -- ----- -- ------ a ------- --- ----------<br>------------- ------ ------ ---- ---- ------- ----- -- ----<br>-------- ------- -- ---------- --- - --- ----- ----- ----<br>---- --- --- ----- --- ---- ---- ------- ----- ---- -------<br>--- --- -- ----- -- --- ---- -- --- ---- -- ------ ------<br>--- ----- -- ----,140046.2550000002,140038.68500000043,139403.49,139418.35999999967,139420.156,140053.464,,5,a
screen,html.Screen,1_1_0_1_6,2021-04-12T07:29:55.599Z,,,,,,,,,,,,,,,,53,,,,,,,,,,,,,,844.596000000427,,response,,,,99,,,,,,,Space,keypress(Space),,,,,,,,---- -- ----- -- ------ - lasting --- ----------<br>------------- ------ ------ ---- ---- ------- ----- -- ----<br>-------- ------- -- ---------- --- - --- ----- ----- ----<br>---- --- --- ----- --- ---- ---- ------- ----- ---- -------<br>--- --- -- ----- -- --- ---- -- --- ---- -- ------ ------<br>--- ----- -- ----,140905.5699999999,140898.06000000043,140036.798,140046.43000000034,140053.464,140920.096,,6,lasting
screen,html.Screen,1_1_0_1_7,2021-04-12T07:29:55.986Z,,,,,,,,,,,,,,,,53,,,,,,,,,,,,,,365.0789999999979,,response,,,,99,,,,,,,Space,keypress(Space),,,,,,,,---- -- ----- -- ------ - ------- and ----------<br>------------- ------ ------ ---- ---- ------- ----- -- ----<br>-------- ------- -- ---------- --- - --- ----- ----- ----<br>---- --- --- ----- --- ---- ---- ------- ----- ---- -------<br>--- --- -- ----- -- --- ---- -- --- ---- -- ------ ------<br>--- ----- -- ----,141292.375,141285.175,140903.43,140905.74500000002,140920.096,141303.414,,7,and
screen,html.Screen,1_1_0_1_8,2021-04-12T07:29:56.341Z,,,,,,,,,,,,,,,,53,,,,,,,,,,,,,,335.8260000004375,,response,,,,99,,,,,,,Space,keypress(Space),,,,,,,,---- -- ----- -- ------ - ------- --- fulfilling<br>------------- ------ ------ ---- ---- ------- ----- -- ----<br>-------- ------- -- ---------- --- - --- ----- ----- ----<br>---- --- --- ----- --- ---- ---- ------- ----- ---- -------<br>--- --- -- ----- -- --- ---- -- --- ---- -- ------ ------<br>--- ----- -- ----,141647.21999999983,141639.24000000043,141286.748,141292.555,141303.414,141653.4,,8,fulfilling
screen,html.Screen,1_1_0_1_9,2021-04-12T07:29:56.812Z,,,,,,,,,,,,,,,,53,,,,,,,,,,,,,,458.59000000034575,,response,,,,99,,,,,,,Space,keypress(Space),,,,,,,,"---- -- ----- -- ------ - ------- --- ----------<br>relationship, ------ ------ ---- ---- ------- ----- -- ----<br>-------- ------- -- ---------- --- - --- ----- ----- ----<br>---- --- --- ----- --- ---- ---- ------- ----- ---- -------<br>--- --- -- ----- -- --- ---- -- --- ---- -- ------ ------<br>--- ----- -- ----",142118.83000000034,142111.99000000034,141636.734,141647.50499999992,141653.4,142120.048,,9,"relationship,"
screen,html.Screen,1_1_0_1_10,2021-04-12T07:29:57.449Z,,,,,,,,,,,,,,,,53,,,,,,,,,,,,,,627.3520000001881,,response,,,,99,,,,,,,Space,keypress(Space),,,,,,,,---- -- ----- -- ------ - ------- --- ----------<br>------------- common ------ ---- ---- ------- ----- -- ----<br>-------- ------- -- ---------- --- - --- ----- ----- ----<br>---- --- --- ----- --- ---- ---- ------- ----- ---- -------<br>--- --- -- ----- -- --- ---- -- --- ---- -- ------ ------<br>--- ----- -- ----,142755.04999999976,142747.4000000002,142103.382,142119.00500000047,142120.048,142770.022,,10,common
screen,html.Screen,1_1_0_1_11,2021-04-12T07:29:58.000Z,,,,,,,,,,,,,,,,53,,,,,,,,,,,,,,529.0080000001471,,response,,,,99,,,,,,,Space,keypress(Space),,,,,,,,---- -- ----- -- ------ - ------- --- ----------<br>------------- ------ wisdom ---- ---- ------- ----- -- ----<br>-------- ------- -- ---------- --- - --- ----- ----- ----<br>---- --- --- ----- --- ---- ---- ------- ----- ---- -------<br>--- --- -- ----- -- --- ---- -- --- ---- -- ------ ------<br>--- ----- -- ----,143306.11000000045,143299.03000000014,142753.356,142755.2249999999,142770.022,143320,,11,wisdom
screen,html.Screen,1_1_0_1_12,2021-04-12T07:29:58.555Z,,,,,,,,,,,,,,,,53,,,,,,,,,,,,,,534.3200000003562,,response,,,,99,,,,,,,Space,keypress(Space),,,,,,,,---- -- ----- -- ------ - ------- --- ----------<br>------------- ------ ------ says ---- ------- ----- -- ----<br>-------- ------- -- ---------- --- - --- ----- ----- ----<br>---- --- --- ----- --- ---- ---- ------- ----- ---- -------<br>--- --- -- ----- -- --- ---- -- --- ---- -- ------ ------<br>--- ----- -- ----,143861.75999999978,143854.32000000036,143303.334,143306.29500000033,143320,143869.978,,12,says
screen,html.Screen,1_1_0_1_13,2021-04-12T07:29:58.948Z,,,,,,,,,,,,,,,,53,,,,,,,,,,,,,,377.28200000009383,,response,,,,99,,,,,,,Space,keypress(Space),,,,,,,,---- -- ----- -- ------ - ------- --- ----------<br>------------- ------ ------ ---- that ------- ----- -- ----<br>-------- ------- -- ---------- --- - --- ----- ----- ----<br>---- --- --- ----- --- ---- ---- ------- ----- ---- -------<br>--- --- -- ----- -- --- ---- -- --- ---- -- ------ ------<br>--- ----- -- ----,144254.4600000001,144247.2600000001,143853.312,143861.93999999977,143869.978,144269.962,,13,that
screen,html.Screen,1_1_0_1_14,2021-04-12T07:29:59.604Z,,,,,,,,,,,,,,,,53,,,,,,,,,,,,,,632.7130000002799,,response,,,,99,,,,,,,Space,keypress(Space),,,,,,,,---- -- ----- -- ------ - ------- --- ----------<br>------------- ------ ------ ---- ---- feeling ----- -- ----<br>-------- ------- -- ---------- --- - --- ----- ----- ----<br>---- --- --- ----- --- ---- ---- ------- ----- ---- -------<br>--- --- -- ----- -- --- ---- -- --- ---- -- ------ ------<br>--- ----- -- ----,144910.60000000015,144902.67500000028,144253.296,144254.6400000001,144269.962,144919.936,,14,feeling
screen,html.Screen,1_1_0_1_15,2021-04-12T07:30:00.028Z,,,,,,,,,,,,,,,,53,,,,,,,,,,,,,,408.06900000030873,,response,,,,99,,,,,,,Space,keypress(Space),,,,,,,,---- -- ----- -- ------ - ------- --- ----------<br>------------- ------ ------ ---- ---- ------- close -- ----<br>-------- ------- -- ---------- --- - --- ----- ----- ----<br>---- --- --- ----- --- ---- ---- ------- ----- ---- -------<br>--- --- -- ----- -- --- ---- -- --- ---- -- ------ ------<br>--- ----- -- ----,145334.99000000028,145328.0050000003,144903.27,144910.8900000001,144919.936,145336.586,,15,close
screen,html.Screen,1_1_0_1_16,2021-04-12T07:30:00.453Z,,,,,,,,,,,,,,,,53,,,,,,,,,,,,,,415.2440000001516,,response,,,,99,,,,,,,Space,keypress(Space),,,,,,,,---- -- ----- -- ------ - ------- --- ----------<br>------------- ------ ------ ---- ---- ------- ----- to ----<br>-------- ------- -- ---------- --- - --- ----- ----- ----<br>---- --- --- ----- --- ---- ---- ------- ----- ---- -------<br>--- --- -- ----- -- --- ---- -- --- ---- -- ------ ------<br>--- ----- -- ----,145759.4449999997,145751.83000000016,145319.92,145335.17000000027,145336.586,145769.902,,16,to
screen,html.Screen,1_1_0_1_17,2021-04-12T07:30:00.947Z,,,,,,,,,,,,,,,,53,,,,,,,,,,,,,,476.16800000015064,,response,,,,99,,,,,,,Space,keypress(Space),,,,,,,,---- -- ----- -- ------ - ------- --- ----------<br>------------- ------ ------ ---- ---- ------- ----- -- your<br>-------- ------- -- ---------- --- - --- ----- ----- ----<br>---- --- --- ----- --- ---- ---- ------- ----- ---- -------<br>--- --- -- ----- -- --- ---- -- --- ---- -- ------ ------<br>--- ----- -- ----,146253.43499999962,146246.07000000015,145753.236,145759.63500000036,145769.902,146269.882,,17,your
screen,html.Screen,1_1_0_1_18,2021-04-12T07:30:01.509Z,,,,,,,,,,,,,,,,53,,,,,,,,,,,,,,538.6130000002158,,response,,,,99,,,,,,,Space,keypress(Space),,,,,,,,---- -- ----- -- ------ - ------- --- ----------<br>------------- ------ ------ ---- ---- ------- ----- -- ----<br>romantic ------- -- ---------- --- - --- ----- ----- ----<br>---- --- --- ----- --- ---- ---- ------- ----- ---- -------<br>--- --- -- ----- -- --- ---- -- --- ---- -- ------ ------<br>--- ----- -- ----,146815.30999999994,146808.49500000023,146253.216,146253.6250000003,146269.882,146819.86,,18,romantic
screen,html.Screen,1_1_0_1_19,2021-04-12T07:30:01.970Z,,,,,,,,,,,,,,,,53,,,,,,,,,,,,,,448.9749999998603,,response,,,,99,,,,,,,Space,keypress(Space),,,,,,,,---- -- ----- -- ------ - ------- --- ----------<br>------------- ------ ------ ---- ---- ------- ----- -- ----<br>-------- partner -- ---------- --- - --- ----- ----- ----<br>---- --- --- ----- --- ---- ---- ------- ----- ---- -------<br>--- --- -- ----- -- --- ---- -- --- ---- -- ------ ------<br>--- ----- -- ----,147276.41000000038,147268.83499999985,146803.194,146815.48500000007,146819.86,147286.549,,19,partner
screen,html.Screen,1_1_0_1_20,2021-04-12T07:30:02.387Z,,,,,,,,,,,,,,,,53,,,,,,,,,,,,,,398.4160000003758,,response,,,,99,,,,,,,Space,keypress(Space),,,,,,,,---- -- ----- -- ------ - ------- --- ----------<br>------------- ------ ------ ---- ---- ------- ----- -- ----<br>-------- ------- is ---------- --- - --- ----- ----- ----<br>---- --- --- ----- --- ---- ---- ------- ----- ---- -------<br>--- --- -- ----- -- --- ---- -- --- ---- -- ------ ------<br>--- ----- -- ----,147693.3200000003,147684.96500000037,147269.883,147276.66500000033,147286.549,147703.199,,20,is
screen,html.Screen,1_1_0_1_21,2021-04-12T07:30:02.815Z,,,,,,,,,,,,,,,,53,,,,,,,,,,,,,,410.8709999996354,,response,,,,99,,,,,,,Space,keypress(Space),,,,,,,,---- -- ----- -- ------ - ------- --- ----------<br>------------- ------ ------ ---- ---- ------- ----- -- ----<br>-------- ------- -- paramount. --- - --- ----- ----- ----<br>---- --- --- ----- --- ---- ---- ------- ----- ---- -------<br>--- --- -- ----- -- --- ---- -- --- ---- -- ------ ------<br>--- ----- -- ----,148121.4799999998,148114.06999999963,147686.533,147693.5800000001,147703.199,148136.515,,21,paramount.
screen,html.Screen,1_1_0_1_22,2021-04-12T07:30:03.770Z,,,,,,,,,,,,,,,,53,,,,,,,,,,,,,,932.3900000000722,,response,,,,99,,,,,,,Space,keypress(Space),,,,,,,,---- -- ----- -- ------ - ------- --- ----------<br>------------- ------ ------ ---- ---- ------- ----- -- ----<br>-------- ------- -- ---------- But - --- ----- ----- ----<br>---- --- --- ----- --- ---- ---- ------- ----- ---- -------<br>--- --- -- ----- -- --- ---- -- --- ---- -- ------ ------<br>--- ----- -- ----,149076.93000000017,149068.9050000001,148119.849,148121.6549999999,148136.515,149086.477,,22,But
screen,html.Screen,1_1_0_1_23,2021-04-12T07:30:04.320Z,,,,,,,,,,,,,,,,53,,,,,,,,,,,,,,532.5280000004568,,response,,,,99,,,,,,,Space,keypress(Space),,,,,,,,---- -- ----- -- ------ - ------- --- ----------<br>------------- ------ ------ ---- ---- ------- ----- -- ----<br>-------- ------- -- ---------- --- a --- ----- ----- ----<br>---- --- --- ----- --- ---- ---- ------- ----- ---- -------<br>--- --- -- ----- -- --- ---- -- --- ---- -- ------ ------<br>--- ----- -- ----,149626.75500000024,149619.00500000047,149069.811,149077.13500000045,149086.477,149636.455,,23,a
screen,html.Screen,1_1_0_1_24,2021-04-12T07:30:04.731Z,,,,,,,,,,,,,,,,53,,,,,,,,,,,,,,393.4649999999674,,response,,,,99,,,,,,,Space,keypress(Space),,,,,,,,---- -- ----- -- ------ - ------- --- ----------<br>------------- ------ ------ ---- ---- ------- ----- -- ----<br>-------- ------- -- ---------- --- - new ----- ----- ----<br>---- --- --- ----- --- ---- ---- ------- ----- ---- -------<br>--- --- -- ----- -- --- ---- -- --- ---- -- ------ ------<br>--- ----- -- ----,150037.4499999998,150029.91999999995,149619.789,149626.93000000034,149636.455,150053.105,,24,new
screen,html.Screen,1_1_0_1_25,2021-04-12T07:30:05.220Z,,,,,,,,,,,,,,,,53,,,,,,,,,,,,,,466.5800000001909,,response,,,,99,,,,,,,Space,keypress(Space),,,,,,,,---- -- ----- -- ------ - ------- --- ----------<br>------------- ------ ------ ---- ---- ------- ----- -- ----<br>-------- ------- -- ---------- --- - --- study ----- ----<br>---- --- --- ----- --- ---- ---- ------- ----- ---- -------<br>--- --- -- ----- -- --- ---- -- --- ---- -- ------ ------<br>--- ----- -- ----,150526.9449999996,150519.6850000002,150036.439,150037.72000000026,150053.105,150536.419,,25,study
screen,html.Screen,1_1_0_1_26,2021-04-12T07:30:05.585Z,,,,,,,,,,,,,,,,53,,,,,,,,,,,,,,348.70599999980186,,response,,,,99,,,,,,,Space,keypress(Space),,,,,,,,---- -- ----- -- ------ - ------- --- ----------<br>------------- ------ ------ ---- ---- ------- ----- -- ----<br>-------- ------- -- ---------- --- - --- ----- finds ----<br>---- --- --- ----- --- ---- ---- ------- ----- ---- -------<br>--- --- -- ----- -- --- ---- -- --- ---- -- ------ ------<br>--- ----- -- ----,150891.81000000008,150885.1249999998,150519.753,150527.11999999973,150536.419,150903.071,,26,finds
screen,html.Screen,1_1_0_1_27,2021-04-12T07:30:05.985Z,,,,,,,,,,,,,,,,53,,,,,,,,,,,,,,380.7290000001667,,response,,,,99,,,,,,,Space,keypress(Space),,,,,,,,---- -- ----- -- ------ - ------- --- ----------<br>------------- ------ ------ ---- ---- ------- ----- -- ----<br>-------- ------- -- ---------- --- - --- ----- ----- that<br>---- --- --- ----- --- ---- ---- ------- ----- ---- -------<br>--- --- -- ----- -- --- ---- -- --- ---- -- ------ ------<br>--- ----- -- ----,151291.58000000007,151283.80000000016,150886.405,150891.99000000008,150903.071,151303.055,,27,that
screen,html.Screen,1_1_0_1_28,2021-04-12T07:30:06.403Z,,,,,,,,,,,,,,,,53,,,,,,,,,,,,,,399.84000000037486,,response,,,,99,,,,,,,Space,keypress(Space),,,,,,,,---- -- ----- -- ------ - ------- --- ----------<br>------------- ------ ------ ---- ---- ------- ----- -- ----<br>-------- ------- -- ---------- --- - --- ----- ----- ----<br>it's --- --- ----- --- ---- ---- ------- ----- ---- -------<br>--- --- -- ----- -- --- ---- -- --- ---- -- ------ ------<br>--- ----- -- ----,151710.1849999999,151702.89500000037,151286.389,151291.83999999985,151303.055,151719.705,,28,it's
screen,html.Screen,1_1_0_1_29,2021-04-12T07:30:06.750Z,,,,,,,,,,,,,,,,53,,,,,,,,,,,,,,329.97999999995227,,response,,,,99,,,,,,,Space,keypress(Space),,,,,,,,---- -- ----- -- ------ - ------- --- ----------<br>------------- ------ ------ ---- ---- ------- ----- -- ----<br>-------- ------- -- ---------- --- - --- ----- ----- ----<br>---- not --- ----- --- ---- ---- ------- ----- ---- -------<br>--- --- -- ----- -- --- ---- -- --- ---- -- ------ ------<br>--- ----- -- ----,152057.09500000012,152049.68499999994,151703.039,151710.36000000004,151719.705,152069.691,,29,not
screen,html.Screen,1_1_0_1_30,2021-04-12T07:30:07.113Z,,,,,,,,,,,,,,,,53,,,,,,,,,,,,,,342.48900000026333,,response,,,,99,,,,,,,Space,keypress(Space),,,,,,,,---- -- ----- -- ------ - ------- --- ----------<br>------------- ------ ------ ---- ---- ------- ----- -- ----<br>-------- ------- -- ---------- --- - --- ----- ----- ----<br>---- --- how ----- --- ---- ---- ------- ----- ---- -------<br>--- --- -- ----- -- --- ---- -- --- ---- -- ------ ------<br>--- ----- -- ----,152420.0350000001,152412.18000000025,152053.025,152057.28999999975,152069.691,152436.343,,30,how
screen,html.Screen,1_1_0_1_31,2021-04-12T07:30:07.466Z,,,,,,,,,,,,,,,,53,,,,,,,,,,,,,,329.20200000022305,,response,,,,99,,,,,,,Space,keypress(Space),,,,,,,,---- -- ----- -- ------ - ------- --- ----------<br>------------- ------ ------ ---- ---- ------- ----- -- ----<br>-------- ------- -- ---------- --- - --- ----- ----- ----<br>---- --- --- close --- ---- ---- ------- ----- ---- -------<br>--- --- -- ----- -- --- ---- -- --- ---- -- ------ ------<br>--- ----- -- ----,152772.825,152765.54500000022,152419.677,152420.25000000012,152436.343,152786.329,,31,close
screen,html.Screen,1_1_0_1_32,2021-04-12T07:30:07.859Z,,,,,,,,,,,,,,,,53,,,,,,,,,,,,,,372.3409999998112,,response,,,,99,,,,,,,Space,keypress(Space),,,,,,,,---- -- ----- -- ------ - ------- --- ----------<br>------------- ------ ------ ---- ---- ------- ----- -- ----<br>-------- ------- -- ---------- --- - --- ----- ----- ----<br>---- --- --- ----- you ---- ---- ------- ----- ---- -------<br>--- --- -- ----- -- --- ---- -- --- ---- -- ------ ------<br>--- ----- -- ----,153165.65999999965,153158.6699999998,152769.663,152773.01499999975,152786.329,153169.647,,32,you
screen,html.Screen,1_1_0_1_33,2021-04-12T07:30:08.211Z,,,,,,,,,,,,,,,,53,,,,,,,,,,,,,,338.217999999586,,response,,,,99,,,,,,,Space,keypress(Space),,,,,,,,---- -- ----- -- ------ - ------- --- ----------<br>------------- ------ ------ ---- ---- ------- ----- -- ----<br>-------- ------- -- ---------- --- - --- ----- ----- ----<br>---- --- --- ----- --- feel ---- ------- ----- ---- -------<br>--- --- -- ----- -- --- ---- -- --- ---- -- ------ ------<br>--- ----- -- ----,153517.51500000045,153507.86499999958,153152.981,153165.8299999999,153169.647,153519.633,,33,feel
screen,html.Screen,1_1_0_1_34,2021-04-12T07:30:08.661Z,,,,,,,,,,,,,,,,53,,,,,,,,,,,,,,444.9169999996957,,response,,,,99,,,,,,,Space,keypress(Space),,,,,,,,---- -- ----- -- ------ - ------- --- ----------<br>------------- ------ ------ ---- ---- ------- ----- -- ----<br>-------- ------- -- ---------- --- - --- ----- ----- ----<br>---- --- --- ----- --- ---- that ------- ----- ---- -------<br>--- --- -- ----- -- --- ---- -- --- ---- -- ------ ------<br>--- ----- -- ----,153968.04499999963,153964.5499999997,153502.967,153517.6650000003,153519.633,153969.615,,34,that
screen,html.Screen,1_1_0_1_35,2021-04-12T07:30:09.046Z,,,,,,,,,,,,,,,,53,,,,,,,,,,,,,,375.9049999998533,,response,,,,99,,,,,,,Space,keypress(Space),,,,,,,,---- -- ----- -- ------ - ------- --- ----------<br>------------- ------ ------ ---- ---- ------- ----- -- ----<br>-------- ------- -- ---------- --- - --- ----- ----- ----<br>---- --- --- ----- --- ---- ---- matters ----- ---- -------<br>--- --- -- ----- -- --- ---- -- --- ---- -- ------ ------<br>--- ----- -- ----,154352.61999999965,154345.51999999984,153952.949,153968.16000000035,153969.615,154369.599,,35,matters
screen,html.Screen,1_1_0_1_36,2021-04-12T07:30:09.462Z,,,,,,,,,,,,,,,,53,,,,,,,,,,,,,,392.5509999995702,,response,,,,99,,,,,,,Space,keypress(Space),,,,,,,,"---- -- ----- -- ------ - ------- --- ----------<br>------------- ------ ------ ---- ---- ------- ----- -- ----<br>-------- ------- -- ---------- --- - --- ----- ----- ----<br>---- --- --- ----- --- ---- ---- ------- most, ---- -------<br>--- --- -- ----- -- --- ---- -- --- ---- -- ------ ------<br>--- ----- -- ----",154768.7999999998,154762.14999999956,154352.933,154352.82000000007,154369.599,154786.249,,36,"most,"
screen,html.Screen,1_1_0_1_37,2021-04-12T07:30:09.965Z,,,,,,,,,,,,,,,,53,,,,,,,,,,,,,,479.20599999974365,,response,,,,99,,,,,,,Space,keypress(Space),,,,,,,,---- -- ----- -- ------ - ------- --- ----------<br>------------- ------ ------ ---- ---- ------- ----- -- ----<br>-------- ------- -- ---------- --- - --- ----- ----- ----<br>---- --- --- ----- --- ---- ---- ------- ----- it's -------<br>--- --- -- ----- -- --- ---- -- --- ---- -- ------ ------<br>--- ----- -- ----,155272.3850000002,155265.45499999975,154769.583,154769.0650000004,154786.249,155286.229,,37,it's
screen,html.Screen,1_1_0_1_38,2021-04-12T07:30:10.386Z,,,,,,,,,,,,,,,,53,,,,,,,,,,,,,,399.43599999998696,,response,,,,99,,,,,,,Space,keypress(Space),,,,,,,,---- -- ----- -- ------ - ------- --- ----------<br>------------- ------ ------ ---- ---- ------- ----- -- ----<br>-------- ------- -- ---------- --- - --- ----- ----- ----<br>---- --- --- ----- --- ---- ---- ------- ----- ---- whether<br>--- --- -- ----- -- --- ---- -- --- ---- -- ------ ------<br>--- ----- -- ----,155693.22000000012,155685.66499999998,155269.563,155272.55500000046,155286.229,155702.879,,38,whether
screen,html.Screen,1_1_0_1_39,2021-04-12T07:30:10.785Z,,,,,,,,,,,,,,,,53,,,,,,,,,,,,,,381.9509999997972,,response,,,,99,,,,,,,Space,keypress(Space),,,,,,,,---- -- ----- -- ------ - ------- --- ----------<br>------------- ------ ------ ---- ---- ------- ----- -- ----<br>-------- ------- -- ---------- --- - --- ----- ----- ----<br>---- --- --- ----- --- ---- ---- ------- ----- ---- -------<br>you --- -- ----- -- --- ---- -- --- ---- -- ------ ------<br>--- ----- -- ----,156092.26000000036,156084.82999999978,155686.213,155693.4650000003,155702.879,156102.863,,39,you
screen,html.Screen,1_1_0_1_40,2021-04-12T07:30:11.122Z,,,,,,,,,,,,,,,,53,,,,,,,,,,,,,,318.1670000004233,,response,,,,99,,,,,,,Space,keypress(Space),,,,,,,,---- -- ----- -- ------ - ------- --- ----------<br>------------- ------ ------ ---- ---- ------- ----- -- ----<br>-------- ------- -- ---------- --- - --- ----- ----- ----<br>---- --- --- ----- --- ---- ---- ------- ----- ---- -------<br>--- are -- ----- -- --- ---- -- --- ---- -- ------ ------<br>--- ----- -- ----,156428.8550000001,156421.03000000044,156086.197,156092.4299999997,156102.863,156436.183,,40,are
screen,html.Screen,1_1_0_1_41,2021-04-12T07:30:11.420Z,,,,,,,,,,,,,,,,53,,,,,,,,,,,,,,284.2420000004349,,response,,,,99,,,,,,,Space,keypress(Space),,,,,,,,---- -- ----- -- ------ - ------- --- ----------<br>------------- ------ ------ ---- ---- ------- ----- -- ----<br>-------- ------- -- ---------- --- - --- ----- ----- ----<br>---- --- --- ----- --- ---- ---- ------- ----- ---- -------<br>--- --- as ----- -- --- ---- -- --- ---- -- ------ ------<br>--- ----- -- ----,156727.40499999962,156720.42500000042,156419.517,156429.11000000004,156436.183,156736.171,,41,as
screen,html.Screen,1_1_0_1_42,2021-04-12T07:30:11.787Z,,,,,,,,,,,,,,,,53,,,,,,,,,,,,,,350.3939999995928,,response,,,,99,,,,,,,Space,keypress(Space),,,,,,,,---- -- ----- -- ------ - ------- --- ----------<br>------------- ------ ------ ---- ---- ------- ----- -- ----<br>-------- ------- -- ---------- --- - --- ----- ----- ----<br>---- --- --- ----- --- ---- ---- ------- ----- ---- -------<br>--- --- -- close -- --- ---- -- --- ---- -- ------ ------<br>--- ----- -- ----,157094.3699999998,157086.5649999996,156719.505,156727.57,156736.171,157104.309,,42,close
screen,html.Screen,1_1_0_1_43,2021-04-12T07:30:12.179Z,,,,,,,,,,,,,,,,53,,,,,,,,,,,,,,374.7710000000661,,response,,,,99,,,,,,,Space,keypress(Space),,,,,,,,---- -- ----- -- ------ - ------- --- ----------<br>------------- ------ ------ ---- ---- ------- ----- -- ----<br>-------- ------- -- ---------- --- - --- ----- ----- ----<br>---- --- --- ----- --- ---- ---- ------- ----- ---- -------<br>--- --- -- ----- as --- ---- -- --- ---- -- ------ ------<br>--- ----- -- ----,157486.3750000004,157479.08000000007,157087.643,157094.54000000004,157104.309,157487.627,,43,as
screen,html.Screen,1_1_0_1_44,2021-04-12T07:30:12.519Z,,,,,,,,,,,,,,,,53,,,,,,,,,,,,,,330.31299999990733,,response,,,,99,,,,,,,Space,keypress(Space),,,,,,,,---- -- ----- -- ------ - ------- --- ----------<br>------------- ------ ------ ---- ---- ------- ----- -- ----<br>-------- ------- -- ---------- --- - --- ----- ----- ----<br>---- --- --- ----- --- ---- ---- ------- ----- ---- -------<br>--- --- -- ----- -- you ---- -- --- ---- -- ------ ------<br>--- ----- -- ----,157826.04999999967,157817.93999999992,157470.961,157486.535,157487.627,157837.613,,44,you
screen,html.Screen,1_1_0_1_45,2021-04-12T07:30:12.874Z,,,,,,,,,,,,,,,,53,,,,,,,,,,,,,,335.8519999998389,,response,,,,99,,,,,,,Space,keypress(Space),,,,,,,,---- -- ----- -- ------ - ------- --- ----------<br>------------- ------ ------ ---- ---- ------- ----- -- ----<br>-------- ------- -- ---------- --- - --- ----- ----- ----<br>---- --- --- ----- --- ---- ---- ------- ----- ---- -------<br>--- --- -- ----- -- --- want -- --- ---- -- ------ ------<br>--- ----- -- ----,158180.90500000017,158173.46499999985,157820.947,157826.21500000005,157837.613,158187.599,,45,want
screen,html.Screen,1_1_0_1_46,2021-04-12T07:30:13.195Z,,,,,,,,,,,,,,,,53,,,,,,,,,,,,,,306.991000000271,,response,,,,99,,,,,,,Space,keypress(Space),,,,,,,,---- -- ----- -- ------ - ------- --- ----------<br>------------- ------ ------ ---- ---- ------- ----- -- ----<br>-------- ------- -- ---------- --- - --- ----- ----- ----<br>---- --- --- ----- --- ---- ---- ------- ----- ---- -------<br>--- --- -- ----- -- --- ---- to --- ---- -- ------ ------<br>--- ----- -- ----,158502.23499999993,158494.59000000026,158170.933,158181.07500000042,158187.599,158504.253,,46,to
screen,html.Screen,1_1_0_1_47,2021-04-12T07:30:13.539Z,,,,,,,,,,,,,,,,53,,,,,,,,,,,,,,334.6169999995909,,response,,,,99,,,,,,,Space,keypress(Space),,,,,,,,"---- -- ----- -- ------ - ------- --- ----------<br>------------- ------ ------ ---- ---- ------- ----- -- ----<br>-------- ------- -- ---------- --- - --- ----- ----- ----<br>---- --- --- ----- --- ---- ---- ------- ----- ---- -------<br>--- --- -- ----- -- --- ---- -- be, ---- -- ------ ------<br>--- ----- -- ----",158846.26500000013,158838.8699999996,158487.587,158502.43500000035,158504.253,158854.239,,47,"be,"
screen,html.Screen,1_1_0_1_48,2021-04-12T07:30:14.029Z,,,,,,,,,,,,,,,,53,,,,,,,,,,,,,,474.1210000004212,,response,,,,99,,,,,,,Space,keypress(Space),,,,,,,,---- -- ----- -- ------ - ------- --- ----------<br>------------- ------ ------ ---- ---- ------- ----- -- ----<br>-------- ------- -- ---------- --- - --- ----- ----- ----<br>---- --- --- ----- --- ---- ---- ------- ----- ---- -------<br>--- --- -- ----- -- --- ---- -- --- even -- ------ ------<br>--- ----- -- ----,159336.15999999983,159328.36000000042,158837.573,158846.44500000012,158854.239,159337.553,,48,even
screen,html.Screen,1_1_0_1_49,2021-04-12T07:30:14.417Z,,,,,,,,,,,,,,,,53,,,,,,,,,,,,,,379.26199999975506,,response,,,,99,,,,,,,Space,keypress(Space),,,,,,,,---- -- ----- -- ------ - ------- --- ----------<br>------------- ------ ------ ---- ---- ------- ----- -- ----<br>-------- ------- -- ---------- --- - --- ----- ----- ----<br>---- --- --- ----- --- ---- ---- ------- ----- ---- -------<br>--- --- -- ----- -- --- ---- -- --- ---- if ------ ------<br>--- ----- -- ----,159724.2749999996,159716.81499999977,159320.887,159336.40000000014,159337.553,159737.537,,49,if
screen,html.Screen,1_1_0_1_50,2021-04-12T07:30:14.780Z,,,,,,,,,,,,,,,,53,,,,,,,,,,,,,,341.9530000000668,,response,,,,99,,,,,,,Space,keypress(Space),,,,,,,,---- -- ----- -- ------ - ------- --- ----------<br>------------- ------ ------ ---- ---- ------- ----- -- ----<br>-------- ------- -- ---------- --- - --- ----- ----- ----<br>---- --- --- ----- --- ---- ---- ------- ----- ---- -------<br>--- --- -- ----- -- --- ---- -- --- ---- -- that's ------<br>--- ----- -- ----,160087.30000000013,160079.49000000008,159720.871,159724.46000000037,159737.537,160104.189,,50,that's
screen,html.Screen,1_1_0_1_51,2021-04-12T07:30:15.175Z,,,,,,,,,,,,,,,,53,,,,,,,,,,,,,,370.2310000004363,,response,,,,99,,,,,,,Space,keypress(Space),,,,,,,,---- -- ----- -- ------ - ------- --- ----------<br>------------- ------ ------ ---- ---- ------- ----- -- ----<br>-------- ------- -- ---------- --- - --- ----- ----- ----<br>---- --- --- ----- --- ---- ---- ------- ----- ---- -------<br>--- --- -- ----- -- --- ---- -- --- ---- -- ------ really<br>--- ----- -- ----,160481.7750000002,160474.42000000045,160087.523,160087.53499999965,160104.189,160487.507,,51,really
screen,html.Screen,1_1_0_1_52,2021-04-12T07:30:15.544Z,,,,,,,,,,,,,,,,53,,,,,,,,,,,,,,356.0679999998538,,response,,,,99,,,,,,,Space,keypress(Space),,,,,,,,---- -- ----- -- ------ - ------- --- ----------<br>------------- ------ ------ ---- ---- ------- ----- -- ----<br>-------- ------- -- ---------- --- - --- ----- ----- ----<br>---- --- --- ----- --- ---- ---- ------- ----- ---- -------<br>--- --- -- ----- -- --- ---- -- --- ---- -- ------ ------<br>not ----- -- ----,160850.87999999995,160843.57499999987,160470.841,160481.92999999993,160487.507,160854.159,,52,not
screen,html.Screen,1_1_0_1_53,2021-04-12T07:30:15.919Z,,,,,,,,,,,,,,,,53,,,,,,,,,,,,,,364.77599999986705,,response,,,,99,,,,,,,Space,keypress(Space),,,,,,,,---- -- ----- -- ------ - ------- --- ----------<br>------------- ------ ------ ---- ---- ------- ----- -- ----<br>-------- ------- -- ---------- --- - --- ----- ----- ----<br>---- --- --- ----- --- ---- ---- ------- ----- ---- -------<br>--- --- -- ----- -- --- ---- -- --- ---- -- ------ ------<br>--- close -- ----,161226.32499999963,161218.93499999988,160837.493,160851.04500000033,160854.159,161237.477,,53,close
screen,html.Screen,1_1_0_1_54,2021-04-12T07:30:16.311Z,,,,,,,,,,,,,,,,53,,,,,,,,,,,,,,373.5979999997944,,response,,,,99,,,,,,,Space,keypress(Space),,,,,,,,---- -- ----- -- ------ - ------- --- ----------<br>------------- ------ ------ ---- ---- ------- ----- -- ----<br>-------- ------- -- ---------- --- - --- ----- ----- ----<br>---- --- --- ----- --- ---- ---- ------- ----- ---- -------<br>--- --- -- ----- -- --- ---- -- --- ---- -- ------ ------<br>--- ----- at ----,161618.4999999996,161611.0749999998,161220.811,161226.49499999988,161237.477,161620.795,,54,at
screen,html.Screen,1_1_0_1_55,2021-04-12T07:30:16.679Z,,,,,,,,,,,,,,,,53,,,,,,,,,,,,,,358.5449999998382,,response,,,,99,,,,,,,Space,keypress(Space),,,,,,,,---- -- ----- -- ------ - ------- --- ----------<br>------------- ------ ------ ---- ---- ------- ----- -- ----<br>-------- ------- -- ---------- --- - --- ----- ----- ----<br>---- --- --- ----- --- ---- ---- ------- ----- ---- -------<br>--- --- -- ----- -- --- ---- -- --- ---- -- ------ ------<br>--- ----- -- all.,161986.49999999997,161979.33999999985,161604.129,161618.6600000001,161620.795,162004.113,,55,all.
Item 99,flow.Loop,1_1_0_1,2021-04-12T07:30:16.680Z,,,,,,,,,,,,,,,,,,,,,,,,,,,,,,26136.412999999855,,completion,,,,,B,,,,,,,,,,,silence,,,,,161986.84500000035,161979.33999999985,135826.261,135829.71499999985,135842.927,162004.113,,,
Question 1,html.Screen,1_1_0_2,2021-04-12T07:30:22.085Z,,,,,,,,,,,,,,,,,,,,,,,,,,,false,FALSE,,5384.821999999927,,response,,,,99,B,,,,,,TRUE,click #choice-1,,,,silence,,,,,167392.89499999996,167388.93499999994,161987.447,161986.9799999997,162004.113,167402.827,,,
Question 2,html.Screen,1_1_0_3,2021-04-12T07:30:26.320Z,,,,,,,,,,,,,,,,,,,,,,,,,,,true,TRUE,,4221.088000000134,,response,,,,99,B,,,,,,TRUE,click #choice-1,,,,silence,,,,,171627.55000000016,171623.91500000012,167386.161,167393.18999999977,167402.827,171635.991,,,
Item 99,flow.Sequence,1_1_0,2021-04-12T07:30:26.320Z,,,,,,,,,,,,,,,,,,,,,,,,,,,,,,45780.58800000012,,completion,,,,,,,,,,,,,,,,,,,,,171627.95000000007,171623.91500000012,125826.661,125837.59000000008,125843.327,171635.991,,,
Holding screen,html.Screen,1_1_1_0,2021-04-12T07:30:36.317Z,,,,,,,,,,,,,,,,,,,,,,,,,,,,,,10003.627999999997,,timeout,,,,,,,,,,,,,,,,,,,,,181624.81000000026,181622.953,171619.325,171628.1849999996,171635.991,181639.619,,,
screen,html.Screen,1_1_1_1_0,2021-04-12T07:30:37.276Z,,,,,,,,,,,,,,,,54,,,,,,,,,,,,,,936.49099999998,,response,,,,100,,,,,,,Space,keypress(Space),,,,,,,,At --- ---- --- ------ ----- ------- ---- -- --- ------- --<br>------- ---------- ------ -- ----- -- ----- -- ---- ------<br>--- ----- --- --- ------ -------- ----- --- ------ ----- --<br>----- ----- ---------- --- --- ------ ------ ---- -- ------<br>------- --- ------ ----- --- ---- ------- -- ---- --- --<br>------- ------,182584.28000000003,182576.11,181622.953,181625.11499999982,181639.619,182589.581,,0,At
screen,html.Screen,1_1_1_1_1,2021-04-12T07:30:37.648Z,,,,,,,,,,,,,,,,54,,,,,,,,,,,,,,359.3739999998361,,response,,,,100,,,,,,,Space,keypress(Space),,,,,,,,-- the ---- --- ------ ----- ------- ---- -- --- ------- --<br>------- ---------- ------ -- ----- -- ----- -- ---- ------<br>--- ----- --- --- ------ -------- ----- --- ------ ----- --<br>----- ----- ---------- --- --- ------ ------ ---- -- ------<br>------- --- ------ ----- --- ---- ------- -- ---- --- --<br>------- ------,182956.45500000045,182948.95499999984,182572.915,182584.4699999998,182589.581,182972.899,,1,the
screen,html.Screen,1_1_1_1_2,2021-04-12T07:30:37.979Z,,,,,,,,,,,,,,,,54,,,,,,,,,,,,,,307.0209999999497,,response,,,,100,,,,,,,Space,keypress(Space),,,,,,,,-- --- time --- ------ ----- ------- ---- -- --- ------- --<br>------- ---------- ------ -- ----- -- ----- -- ---- ------<br>--- ----- --- --- ------ -------- ----- --- ------ ----- --<br>----- ----- ---------- --- --- ------ ------ ---- -- ------<br>------- --- ------ ----- --- ---- ------- -- ---- --- --<br>------- ------,183287.36500000014,183279.91999999995,182956.233,182956.68999999997,182972.899,183289.553,,2,time
screen,html.Screen,1_1_1_1_3,2021-04-12T07:30:38.346Z,,,,,,,,,,,,,,,,54,,,,,,,,,,,,,,356.72200000003795,,response,,,,100,,,,,,,Space,keypress(Space),,,,,,,,-- --- ---- the ------ ----- ------- ---- -- --- ------- --<br>------- ---------- ------ -- ----- -- ----- -- ---- ------<br>--- ----- --- --- ------ -------- ----- --- ------ ----- --<br>----- ----- ---------- --- --- ------ ------ ---- -- ------<br>------- --- ------ ----- --- ---- ------- -- ---- --- --<br>------- ------,183654.00000000047,183646.27500000005,183272.887,183287.5899999999,183289.553,183656.205,,3,the
screen,html.Screen,1_1_1_1_4,2021-04-12T07:30:38.621Z,,,,,,,,,,,,,,,,54,,,,,,,,,,,,,,265.6300000001211,,response,,,,100,,,,,,,Space,keypress(Space),,,,,,,,-- --- ---- --- French ----- ------- ---- -- --- ------- --<br>------- ---------- ------ -- ----- -- ----- -- ---- ------<br>--- ----- --- --- ------ -------- ----- --- ------ ----- --<br>----- ----- ---------- --- --- ------ ------ ---- -- ------<br>------- --- ------ ----- --- ---- ------- -- ---- --- --<br>------- ------,183929.29999999978,183921.8350000001,183639.539,183654.235,183656.205,183939.527,,4,French
screen,html.Screen,1_1_1_1_5,2021-04-12T07:30:39.044Z,,,,,,,,,,,,,,,,54,,,,,,,,,,,,,,405.6429999996035,,response,,,,100,,,,,,,Space,keypress(Space),,,,,,,,-- --- ---- --- ------ crown ------- ---- -- --- ------- --<br>------- ---------- ------ -- ----- -- ----- -- ---- ------<br>--- ----- --- --- ------ -------- ----- --- ------ ----- --<br>----- ----- ---------- --- --- ------ ------ ---- -- ------<br>------- --- ------ ----- --- ---- ------- -- ---- --- --<br>------- ------,184352.72499999974,184345.1699999996,183922.861,183929.5400000001,183939.527,184356.177,,5,crown
screen,html.Screen,1_1_1_1_6,2021-04-12T07:30:39.674Z,,,,,,,,,,,,,,,,54,,,,,,,,,,,,,,620.6580000004033,,response,,,,100,,,,,,,Space,keypress(Space),,,,,,,,-- --- ---- --- ------ ----- secured ---- -- --- ------- --<br>------- ---------- ------ -- ----- -- ----- -- ---- ------<br>--- ----- --- --- ------ -------- ----- --- ------ ----- --<br>----- ----- ---------- --- --- ------ ------ ---- -- ------<br>------- --- ------ ----- --- ---- ------- -- ---- --- --<br>------- ------,184982.26499999964,184976.8350000004,184339.511,184352.96000000017,184356.177,184989.485,,6,secured
screen,html.Screen,1_1_1_1_7,2021-04-12T07:30:40.153Z,,,,,,,,,,,,,,,,54,,,,,,,,,,,,,,464.6199999998207,,response,,,,100,,,,,,,Space,keypress(Space),,,,,,,,-- --- ---- --- ------ ----- ------- much -- --- ------- --<br>------- ---------- ------ -- ----- -- ----- -- ---- ------<br>--- ----- --- --- ------ -------- ----- --- ------ ----- --<br>----- ----- ---------- --- --- ------ ------ ---- -- ------<br>------- --- ------ ----- --- ---- ------- -- ---- --- --<br>------- ------,185461.59499999977,185454.1049999998,184972.819,184982.40499999974,184989.485,185472.799,,7,much
screen,html.Screen,1_1_1_1_8,2021-04-12T07:30:40.539Z,,,,,,,,,,,,,,,,54,,,,,,,,,,,,,,367.3959999997751,,response,,,,100,,,,,,,Space,keypress(Space),,,,,,,,-- --- ---- --- ------ ----- ------- ---- of --- ------- --<br>------- ---------- ------ -- ----- -- ----- -- ---- ------<br>--- ----- --- --- ------ -------- ----- --- ------ ----- --<br>----- ----- ---------- --- --- ------ ------ ---- -- ------<br>------- --- ------ ----- --- ---- ------- -- ---- --- --<br>------- ------,185847.7499999999,185840.19499999977,185456.133,185461.8300000002,185472.799,185856.117,,8,of
screen,html.Screen,1_1_1_1_9,2021-04-12T07:30:40.832Z,,,,,,,,,,,,,,,,54,,,,,,,,,,,,,,277.8680000003951,,response,,,,100,,,,,,,Space,keypress(Space),,,,,,,,-- --- ---- --- ------ ----- ------- ---- -- its ------- --<br>------- ---------- ------ -- ----- -- ----- -- ---- ------<br>--- ----- --- --- ------ -------- ----- --- ------ ----- --<br>----- ----- ---------- --- --- ------ ------ ---- -- ------<br>------- --- ------ ----- --- ---- ------- -- ---- --- --<br>------- ------,186140.77999999974,186133.9850000004,185839.451,185848.00499999983,185856.117,186156.105,,9,its
screen,html.Screen,1_1_1_1_10,2021-04-12T07:30:41.146Z,,,,,,,,,,,,,,,,54,,,,,,,,,,,,,,291.02500000045984,,response,,,,100,,,,,,,Space,keypress(Space),,,,,,,,-- --- ---- --- ------ ----- ------- ---- -- --- revenue --<br>------- ---------- ------ -- ----- -- ----- -- ---- ------<br>--- ----- --- --- ------ -------- ----- --- ------ ----- --<br>----- ----- ---------- --- --- ------ ------ ---- -- ------<br>------- --- ------ ----- --- ---- ------- -- ---- --- --<br>------- ------,186454.7050000001,186447.13000000047,186139.439,186140.9450000001,186156.105,186456.093,,10,revenue
screen,html.Screen,1_1_1_1_11,2021-04-12T07:30:41.514Z,,,,,,,,,,,,,,,,54,,,,,,,,,,,,,,358.85699999995995,,response,,,,100,,,,,,,Space,keypress(Space),,,,,,,,-- --- ---- --- ------ ----- ------- ---- -- --- ------- by<br>------- ---------- ------ -- ----- -- ----- -- ---- ------<br>--- ----- --- --- ------ -------- ----- --- ------ ----- --<br>----- ----- ---------- --- --- ------ ------ ---- -- ------<br>------- --- ------ ----- --- ---- ------- -- ---- --- --<br>------- ------,186822.37499999974,186814.94999999995,186439.427,186454.8649999997,186456.093,186839.411,,11,by
screen,html.Screen,1_1_1_1_12,2021-04-12T07:30:41.874Z,,,,,,,,,,,,,,,,54,,,,,,,,,,,,,,335.8939999997674,,response,,,,100,,,,,,,Space,keypress(Space),,,,,,,,-- --- ---- --- ------ ----- ------- ---- -- --- ------- --<br>issuing ---------- ------ -- ----- -- ----- -- ---- ------<br>--- ----- --- --- ------ -------- ----- --- ------ ----- --<br>----- ----- ---------- --- --- ------ ------ ---- -- ------<br>------- --- ------ ----- --- ---- ------- -- ---- --- --<br>------- ------,187182.5749999998,187175.30499999976,186822.745,186822.53500000024,186839.411,187189.397,,12,issuing
screen,html.Screen,1_1_1_1_13,2021-04-12T07:30:42.344Z,,,,,,,,,,,,,,,,54,,,,,,,,,,,,,,455.3980000001611,,response,,,,100,,,,,,,Space,keypress(Space),,,,,,,,-- --- ---- --- ------ ----- ------- ---- -- --- ------- --<br>------- government ------ -- ----- -- ----- -- ---- ------<br>--- ----- --- --- ------ -------- ----- --- ------ ----- --<br>----- ----- ---------- --- --- ------ ------ ---- -- ------<br>------- --- ------ ----- --- ---- ------- -- ---- --- --<br>------- ------,187652.39500000008,187644.79500000016,187172.731,187182.74500000005,187189.397,187656.045,,13,government
screen,html.Screen,1_1_1_1_14,2021-04-12T07:30:43.359Z,,,,,,,,,,,,,,,,54,,,,,,,,,,,,,,1003.8650000003108,,response,,,,100,,,,,,,Space,keypress(Space),,,,,,,,-- --- ---- --- ------ ----- ------- ---- -- --- ------- --<br>------- ---------- bonds. -- ----- -- ----- -- ---- ------<br>--- ----- --- --- ------ -------- ----- --- ------ ----- --<br>----- ----- ---------- --- --- ------ ------ ---- -- ------<br>------- --- ------ ----- --- ---- ------- -- ---- --- --<br>------- ------,188666.9499999998,188659.91000000032,187639.379,187652.63500000036,187656.045,188672.671,,14,bonds.
screen,html.Screen,1_1_1_1_15,2021-04-12T07:30:44.601Z,,,,,,,,,,,,,,,,54,,,,,,,,,,,,,,1229.30899999963,,response,,,,100,,,,,,,Space,keypress(Space),,,,,,,,-- --- ---- --- ------ ----- ------- ---- -- --- ------- --<br>------- ---------- ------ In ----- -- ----- -- ---- ------<br>--- ----- --- --- ------ -------- ----- --- ------ ----- --<br>----- ----- ---------- --- --- ------ ------ ---- -- ------<br>------- --- ------ ----- --- ---- ------- -- ---- --- --<br>------- ------,189909.49999999977,189901.97999999963,188656.005,188667.1150000002,188672.671,189922.438,,15,In
screen,html.Screen,1_1_1_1_16,2021-04-12T07:30:45.165Z,,,,,,,,,,,,,,,,54,,,,,,,,,,,,,,542.9520000003104,,response,,,,100,,,,,,,Space,keypress(Space),,,,,,,,"-- --- ---- --- ------ ----- ------- ---- -- --- ------- --<br>------- ---------- ------ -- 1727, -- ----- -- ---- ------<br>--- ----- --- --- ------ -------- ----- --- ------ ----- --<br>----- ----- ---------- --- --- ------ ------ ---- -- ------<br>------- --- ------ ----- --- ---- ------- -- ---- --- --<br>------- ------",190473.07,190465.3900000003,189905.772,189909.66500000012,189922.438,190489.082,,16,"1727,"
screen,html.Screen,1_1_1_1_17,2021-04-12T07:30:45.608Z,,,,,,,,,,,,,,,,54,,,,,,,,,,,,,,419.71300000027986,,response,,,,100,,,,,,,Space,keypress(Space),,,,,,,,-- --- ---- --- ------ ----- ------- ---- -- --- ------- --<br>------- ---------- ------ -- ----- in ----- -- ---- ------<br>--- ----- --- --- ------ -------- ----- --- ------ ----- --<br>----- ----- ---------- --- --- ------ ------ ---- -- ------<br>------- --- ------ ----- --- ---- ------- -- ---- --- --<br>------- ------,190916.2349999997,190908.79500000027,190472.416,190473.2299999996,190489.082,190922.398,,17,in
screen,html.Screen,1_1_1_1_18,2021-04-12T07:30:46.115Z,,,,,,,,,,,,,,,,54,,,,,,,,,,,,,,493.00199999986216,,response,,,,100,,,,,,,Space,keypress(Space),,,,,,,,-- --- ---- --- ------ ----- ------- ---- -- --- ------- --<br>------- ---------- ------ -- ----- -- order -- ---- ------<br>--- ----- --- --- ------ -------- ----- --- ------ ----- --<br>----- ----- ---------- --- --- ------ ------ ---- -- ------<br>------- --- ------ ----- --- ---- ------- -- ---- --- --<br>------- ------,191423.12000000037,191415.39999999985,190905.732,190916.40000000008,190922.398,191439.044,,18,order
screen,html.Screen,1_1_1_1_19,2021-04-12T07:30:46.469Z,,,,,,,,,,,,,,,,54,,,,,,,,,,,,,,331.65600000004633,,response,,,,100,,,,,,,Space,keypress(Space),,,,,,,,-- --- ---- --- ------ ----- ------- ---- -- --- ------- --<br>------- ---------- ------ -- ----- -- ----- to ---- ------<br>--- ----- --- --- ------ -------- ----- --- ------ ----- --<br>----- ----- ---------- --- --- ------ ------ ---- -- ------<br>------- --- ------ ----- --- ---- ------- -- ---- --- --<br>------- ------,191778.01,191770.70000000004,191422.378,191423.28999999972,191439.044,191789.03,,19,to
screen,html.Screen,1_1_1_1_20,2021-04-12T07:30:46.770Z,,,,,,,,,,,,,,,,54,,,,,,,,,,,,,,281.8550000000978,,response,,,,100,,,,,,,Space,keypress(Space),,,,,,,,-- --- ---- --- ------ ----- ------- ---- -- --- ------- --<br>------- ---------- ------ -- ----- -- ----- -- save ------<br>--- ----- --- --- ------ -------- ----- --- ------ ----- --<br>----- ----- ---------- --- --- ------ ------ ---- -- ------<br>------- --- ------ ----- --- ---- ------- -- ---- --- --<br>------- ------,192078.26000000024,192070.8850000001,191772.364,191778.16999999958,191789.03,192089.018,,20,save
screen,html.Screen,1_1_1_1_21,2021-04-12T07:30:47.116Z,,,,,,,,,,,,,,,,54,,,,,,,,,,,,,,328.847000000329,,response,,,,100,,,,,,,Space,keypress(Space),,,,,,,,"-- --- ---- --- ------ ----- ------- ---- -- --- ------- --<br>------- ---------- ------ -- ----- -- ----- -- ---- money,<br>--- ----- --- --- ------ -------- ----- --- ------ ----- --<br>----- ----- ---------- --- --- ------ ------ ---- -- ------<br>------- --- ------ ----- --- ---- ------- -- ---- --- --<br>------- ------",192424.97499999992,192417.86500000034,192072.352,192078.4199999998,192089.018,192439.004,,21,"money,"
screen,html.Screen,1_1_1_1_22,2021-04-12T07:30:47.631Z,,,,,,,,,,,,,,,,54,,,,,,,,,,,,,,492.75099999961094,,response,,,,100,,,,,,,Space,keypress(Space),,,,,,,,-- --- ---- --- ------ ----- ------- ---- -- --- ------- --<br>------- ---------- ------ -- ----- -- ----- -- ---- ------<br>the ----- --- --- ------ -------- ----- --- ------ ----- --<br>----- ----- ---------- --- --- ------ ------ ---- -- ------<br>------- --- ------ ----- --- ---- ------- -- ---- --- --<br>------- ------,192939.87500000003,192931.7549999996,192422.338,192425.14000000028,192439.004,192955.65,,22,the
screen,html.Screen,1_1_1_1_23,2021-04-12T07:30:47.869Z,,,,,,,,,,,,,,,,54,,,,,,,,,,,,,,215.04999999966822,,response,,,,100,,,,,,,Space,keypress(Space),,,,,,,,-- --- ---- --- ------ ----- ------- ---- -- --- ------- --<br>------- ---------- ------ -- ----- -- ----- -- ---- ------<br>--- state --- --- ------ -------- ----- --- ------ ----- --<br>----- ----- ---------- --- --- ------ ------ ---- -- ------<br>------- --- ------ ----- --- ---- ------- -- ---- --- --<br>------- ------,193177.7000000002,193170.69999999966,192938.984,192940.03499999963,192955.65,193188.974,,23,state
screen,html.Screen,1_1_1_1_24,2021-04-12T07:30:48.394Z,,,,,,,,,,,,,,,,54,,,,,,,,,,,,,,505.76599999991595,,response,,,,100,,,,,,,Space,keypress(Space),,,,,,,,-- --- ---- --- ------ ----- ------- ---- -- --- ------- --<br>------- ---------- ------ -- ----- -- ----- -- ---- ------<br>--- ----- cut --- ------ -------- ----- --- ------ ----- --<br>----- ----- ---------- --- --- ------ ------ ---- -- ------<br>------- --- ------ ----- --- ---- ------- -- ---- --- --<br>------- ------,193702.19499999983,193694.7399999999,193172.308,193177.85999999978,193188.974,193705.62,,24,cut
screen,html.Screen,1_1_1_1_25,2021-04-12T07:30:48.750Z,,,,,,,,,,,,,,,,54,,,,,,,,,,,,,,345.2750000003143,,response,,,,100,,,,,,,Space,keypress(Space),,,,,,,,-- --- ---- --- ------ ----- ------- ---- -- --- ------- --<br>------- ---------- ------ -- ----- -- ----- -- ---- ------<br>--- ----- --- the ------ -------- ----- --- ------ ----- --<br>----- ----- ---------- --- --- ------ ------ ---- -- ------<br>------- --- ------ ----- --- ---- ------- -- ---- --- --<br>------- ------,194058.25499999992,194050.8950000003,193688.954,193702.43000000028,193705.62,194072.272,,25,the
screen,html.Screen,1_1_1_1_26,2021-04-12T07:30:49.260Z,,,,,,,,,,,,,,,,54,,,,,,,,,,,,,,488.77300000039395,,response,,,,100,,,,,,,Space,keypress(Space),,,,,,,,-- --- ---- --- ------ ----- ------- ---- -- --- ------- --<br>------- ---------- ------ -- ----- -- ----- -- ---- ------<br>--- ----- --- --- bonds' -------- ----- --- ------ ----- --<br>----- ----- ---------- --- --- ------ ------ ---- -- ------<br>------- --- ------ ----- --- ---- ------- -- ---- --- --<br>------- ------,194568.64000000042,194561.0450000004,194055.606,194058.4200000003,194072.272,194572.252,,26,bonds'
screen,html.Screen,1_1_1_1_27,2021-04-12T07:30:49.752Z,,,,,,,,,,,,,,,,54,,,,,,,,,,,,,,481.39299999995274,,response,,,,100,,,,,,,Space,keypress(Space),,,,,,,,-- --- ---- --- ------ ----- ------- ---- -- --- ------- --<br>------- ---------- ------ -- ----- -- ----- -- ---- ------<br>--- ----- --- --- ------ interest ----- --- ------ ----- --<br>----- ----- ---------- --- --- ------ ------ ---- -- ------<br>------- --- ------ ----- --- ---- ------- -- ---- --- --<br>------- ------,195060.97000000044,195053.64499999996,194555.586,194568.80999999976,194572.252,195072.232,,27,interest
screen,html.Screen,1_1_1_1_28,2021-04-12T07:30:50.177Z,,,,,,,,,,,,,,,,54,,,,,,,,,,,,,,406.13799999983166,,response,,,,100,,,,,,,Space,keypress(Space),,,,,,,,-- --- ---- --- ------ ----- ------- ---- -- --- ------- --<br>------- ---------- ------ -- ----- -- ----- -- ---- ------<br>--- ----- --- --- ------ -------- rate. --- ------ ----- --<br>----- ----- ---------- --- --- ------ ------ ---- -- ------<br>------- --- ------ ----- --- ---- ------- -- ---- --- --<br>------- ------,195485.62500000026,195478.36999999982,195055.566,195061.13000000006,195072.232,195488.882,,28,rate.
screen,html.Screen,1_1_1_1_29,2021-04-12T07:30:51.318Z,,,,,,,,,,,,,,,,54,,,,,,,,,,,,,,1130.8279999999213,,response,,,,100,,,,,,,Space,keypress(Space),,,,,,,,-- --- ---- --- ------ ----- ------- ---- -- --- ------- --<br>------- ---------- ------ -- ----- -- ----- -- ---- ------<br>--- ----- --- --- ------ -------- ----- The ------ ----- --<br>----- ----- ---------- --- --- ------ ------ ---- -- ------<br>------- --- ------ ----- --- ---- ------- -- ---- --- --<br>------- ------,196627.07000000047,196619.70999999993,195472.216,195485.78999999972,195488.882,196638.836,,29,The
screen,html.Screen,1_1_1_1_30,2021-04-12T07:30:51.810Z,,,,,,,,,,,,,,,,54,,,,,,,,,,,,,,472.7540000004228,,response,,,,100,,,,,,,Space,keypress(Space),,,,,,,,-- --- ---- --- ------ ----- ------- ---- -- --- ------- --<br>------- ---------- ------ -- ----- -- ----- -- ---- ------<br>--- ----- --- --- ------ -------- ----- --- market ----- --<br>----- ----- ---------- --- --- ------ ------ ---- -- ------<br>------- --- ------ ----- --- ---- ------- -- ---- --- --<br>------- ------,197119.1200000003,197111.59000000043,196622.17,196627.23000000004,196638.836,197122.15,,30,market
screen,html.Screen,1_1_1_1_31,2021-04-12T07:30:52.240Z,,,,,,,,,,,,,,,,54,,,,,,,,,,,,,,418.439999999624,,response,,,,100,,,,,,,Space,keypress(Space),,,,,,,,-- --- ---- --- ------ ----- ------- ---- -- --- ------- --<br>------- ---------- ------ -- ----- -- ----- -- ---- ------<br>--- ----- --- --- ------ -------- ----- --- ------ value --<br>----- ----- ---------- --- --- ------ ------ ---- -- ------<br>------- --- ------ ----- --- ---- ------- -- ---- --- --<br>------- ------,197548.3400000003,197540.58999999962,197105.484,197119.27999999988,197122.15,197555.466,,31,value
screen,html.Screen,1_1_1_1_32,2021-04-12T07:30:52.616Z,,,,,,,,,,,,,,,,54,,,,,,,,,,,,,,362.30899999992107,,response,,,,100,,,,,,,Space,keypress(Space),,,,,,,,-- --- ---- --- ------ ----- ------- ---- -- --- ------- --<br>------- ---------- ------ -- ----- -- ----- -- ---- ------<br>--- ----- --- --- ------ -------- ----- --- ------ ----- of<br>----- ----- ---------- --- --- ------ ------ ---- -- ------<br>------- --- ------ ----- --- ---- ------- -- ---- --- --<br>------- ------,197925.3150000004,197917.7749999999,197538.8,197548.49999999988,197555.466,197938.784,,32,of
screen,html.Screen,1_1_1_1_33,2021-04-12T07:30:53.004Z,,,,,,,,,,,,,,,,54,,,,,,,,,,,,,,366.74099999974715,,response,,,,100,,,,,,,Space,keypress(Space),,,,,,,,-- --- ---- --- ------ ----- ------- ---- -- --- ------- --<br>------- ---------- ------ -- ----- -- ----- -- ---- ------<br>--- ----- --- --- ------ -------- ----- --- ------ ----- --<br>these ----- ---------- --- --- ------ ------ ---- -- ------<br>------- --- ------ ----- --- ---- ------- -- ---- --- --<br>------- ------,198312.96999999994,198305.52499999976,197922.118,197925.475,197938.784,198322.102,,33,these
screen,html.Screen,1_1_1_1_34,2021-04-12T07:30:53.387Z,,,,,,,,,,,,,,,,54,,,,,,,,,,,,,,366.11799999998766,,response,,,,100,,,,,,,Space,keypress(Space),,,,,,,,-- --- ---- --- ------ ----- ------- ---- -- --- ------- --<br>------- ---------- ------ -- ----- -- ----- -- ---- ------<br>--- ----- --- --- ------ -------- ----- --- ------ ----- --<br>----- bonds ---------- --- --- ------ ------ ---- -- ------<br>------- --- ------ ----- --- ---- ------- -- ---- --- --<br>------- ------,198695.91500000024,198688.22,198305.436,198313.13500000033,198322.102,198706.263,,34,bonds
screen,html.Screen,1_1_1_1_35,2021-04-12T07:30:54.266Z,,,,,,,,,,,,,,,,54,,,,,,,,,,,,,,861.5620000000636,,response,,,,100,,,,,,,Space,keypress(Space),,,,,,,,"-- --- ---- --- ------ ----- ------- ---- -- --- ------- --<br>------- ---------- ------ -- ----- -- ----- -- ---- ------<br>--- ----- --- --- ------ -------- ----- --- ------ ----- --<br>----- ----- plummeted, --- --- ------ ------ ---- -- ------<br>------- --- ------ ----- --- ---- ------- -- ---- --- --<br>------- ------",199575.02999999997,199567.82500000007,198689.597,198696.08499999958,198706.263,199589.561,,35,"plummeted,"
screen,html.Screen,1_1_1_1_36,2021-04-12T07:30:54.711Z,,,,,,,,,,,,,,,,54,,,,,,,,,,,,,,422.973999999871,,response,,,,100,,,,,,,Space,keypress(Space),,,,,,,,-- --- ---- --- ------ ----- ------- ---- -- --- ------- --<br>------- ---------- ------ -- ----- -- ----- -- ---- ------<br>--- ----- --- --- ------ -------- ----- --- ------ ----- --<br>----- ----- ---------- and --- ------ ------ ---- -- ------<br>------- --- ------ ----- --- ---- ------- -- ---- --- --<br>------- ------,200019.80000000005,200012.53499999986,199572.895,199575.19500000036,199589.561,200022.877,,36,and
screen,html.Screen,1_1_1_1_37,2021-04-12T07:30:55.133Z,,,,,,,,,,,,,,,,54,,,,,,,,,,,,,,411.81300000005285,,response,,,,100,,,,,,,Space,keypress(Space),,,,,,,,-- --- ---- --- ------ ----- ------- ---- -- --- ------- --<br>------- ---------- ------ -- ----- -- ----- -- ---- ------<br>--- ----- --- --- ------ -------- ----- --- ------ ----- --<br>----- ----- ---------- --- the ------ ------ ---- -- ------<br>------- --- ------ ----- --- ---- ------- -- ---- --- --<br>------- ------,200442.34500000038,200434.69000000006,200006.211,200019.9650000004,200022.877,200456.193,,37,the
screen,html.Screen,1_1_1_1_38,2021-04-12T07:30:55.510Z,,,,,,,,,,,,,,,,54,,,,,,,,,,,,,,355.51699999996345,,response,,,,100,,,,,,,Space,keypress(Space),,,,,,,,-- --- ---- --- ------ ----- ------- ---- -- --- ------- --<br>------- ---------- ------ -- ----- -- ----- -- ---- ------<br>--- ----- --- --- ------ -------- ----- --- ------ ----- --<br>----- ----- ---------- --- --- market ------ ---- -- ------<br>------- --- ------ ----- --- ---- ------- -- ---- --- --<br>------- ------,200819.36000000042,200811.70999999996,200439.527,200442.53000000026,200456.193,200822.845,,38,market
screen,html.Screen,1_1_1_1_39,2021-04-12T07:30:56.060Z,,,,,,,,,,,,,,,,54,,,,,,,,,,,,,,538.5350000002945,,response,,,,100,,,,,,,Space,keypress(Space),,,,,,,,-- --- ---- --- ------ ----- ------- ---- -- --- ------- --<br>------- ---------- ------ -- ----- -- ----- -- ---- ------<br>--- ----- --- --- ------ -------- ----- --- ------ ----- --<br>----- ----- ---------- --- --- ------ became ---- -- ------<br>------- --- ------ ----- --- ---- ------- -- ---- --- --<br>------- ------,201368.85999999958,201361.3800000003,200806.179,200819.59000000005,200822.845,201372.823,,39,became
screen,html.Screen,1_1_1_1_40,2021-04-12T07:30:56.853Z,,,,,,,,,,,,,,,,54,,,,,,,,,,,,,,781.5070000003034,,response,,,,100,,,,,,,Space,keypress(Space),,,,,,,,-- --- ---- --- ------ ----- ------- ---- -- --- ------- --<br>------- ---------- ------ -- ----- -- ----- -- ---- ------<br>--- ----- --- --- ------ -------- ----- --- ------ ----- --<br>----- ----- ---------- --- --- ------ ------ wary -- ------<br>------- --- ------ ----- --- ---- ------- -- ---- --- --<br>------- ------,202162.0350000003,202154.3300000003,201356.157,201369.02499999997,201372.823,202172.791,,40,wary
screen,html.Screen,1_1_1_1_41,2021-04-12T07:30:57.149Z,,,,,,,,,,,,,,,,54,,,,,,,,,,,,,,278.2340000003169,,response,,,,100,,,,,,,Space,keypress(Space),,,,,,,,-- --- ---- --- ------ ----- ------- ---- -- --- ------- --<br>------- ---------- ------ -- ----- -- ----- -- ---- ------<br>--- ----- --- --- ------ -------- ----- --- ------ ----- --<br>----- ----- ---------- --- --- ------ ------ ---- of ------<br>------- --- ------ ----- --- ---- ------- -- ---- --- --<br>------- ------,202458.3849999999,202451.0250000003,202156.125,202162.26499999993,202172.791,202472.779,,41,of
screen,html.Screen,1_1_1_1_42,2021-04-12T07:30:57.495Z,,,,,,,,,,,,,,,,54,,,,,,,,,,,,,,323.75099999961094,,response,,,,100,,,,,,,Space,keypress(Space),,,,,,,,-- --- ---- --- ------ ----- ------- ---- -- --- ------- --<br>------- ---------- ------ -- ----- -- ----- -- ---- ------<br>--- ----- --- --- ------ -------- ----- --- ------ ----- --<br>----- ----- ---------- --- --- ------ ------ ---- -- French<br>------- --- ------ ----- --- ---- ------- -- ---- --- --<br>------- ------,202803.82999999984,202796.52999999962,202456.113,202458.55500000017,202472.779,202806.099,,42,French
screen,html.Screen,1_1_1_1_43,2021-04-12T07:30:57.975Z,,,,,,,,,,,,,,,,54,,,,,,,,,,,,,,470.29099999999744,,response,,,,100,,,,,,,Space,keypress(Space),,,,,,,,-- --- ---- --- ------ ----- ------- ---- -- --- ------- --<br>------- ---------- ------ -- ----- -- ----- -- ---- ------<br>--- ----- --- --- ------ -------- ----- --- ------ ----- --<br>----- ----- ---------- --- --- ------ ------ ---- -- ------<br>credit. --- ------ ----- --- ---- ------- -- ---- --- --<br>------- ------,203284.52000000016,203276.38999999998,202789.433,202803.99000000034,202806.099,203289.413,,43,credit.
screen,html.Screen,1_1_1_1_44,2021-04-12T07:30:58.553Z,,,,,,,,,,,,,,,,54,,,,,,,,,,,,,,565.0220000002009,,response,,,,100,,,,,,,Space,keypress(Space),,,,,,,,-- --- ---- --- ------ ----- ------- ---- -- --- ------- --<br>------- ---------- ------ -- ----- -- ----- -- ---- ------<br>--- ----- --- --- ------ -------- ----- --- ------ ----- --<br>----- ----- ---------- --- --- ------ ------ ---- -- ------<br>------- The ------ ----- --- ---- ------- -- ---- --- --<br>------- ------,203861.78000000017,203854.4350000002,203272.747,203284.68499999962,203289.413,203872.723,,44,The
screen,html.Screen,1_1_1_1_45,2021-04-12T07:30:58.970Z,,,,,,,,,,,,,,,,54,,,,,,,,,,,,,,400.5970000002417,,response,,,,100,,,,,,,Space,keypress(Space),,,,,,,,-- --- ---- --- ------ ----- ------- ---- -- --- ------- --<br>------- ---------- ------ -- ----- -- ----- -- ---- ------<br>--- ----- --- --- ------ -------- ----- --- ------ ----- --<br>----- ----- ---------- --- --- ------ ------ ---- -- ------<br>------- --- French ----- --- ---- ------- -- ---- --- --<br>------- ------,204279.58500000022,204273.32000000024,203856.057,203861.94499999966,203872.723,204289.373,,45,French
screen,html.Screen,1_1_1_1_46,2021-04-12T07:30:59.331Z,,,,,,,,,,,,,,,,54,,,,,,,,,,,,,,343.22200000003795,,response,,,,100,,,,,,,Space,keypress(Space),,,,,,,,-- --- ---- --- ------ ----- ------- ---- -- --- ------- --<br>------- ---------- ------ -- ----- -- ----- -- ---- ------<br>--- ----- --- --- ------ -------- ----- --- ------ ----- --<br>----- ----- ---------- --- --- ------ ------ ---- -- ------<br>------- --- ------ state --- ---- ------- -- ---- --- --<br>------- ------,204640.09499999974,204632.59500000003,204272.707,204279.7499999997,204289.373,204656.025,,46,state
screen,html.Screen,1_1_1_1_47,2021-04-12T07:30:59.654Z,,,,,,,,,,,,,,,,54,,,,,,,,,,,,,,300.1349999997474,,response,,,,100,,,,,,,Space,keypress(Space),,,,,,,,-- --- ---- --- ------ ----- ------- ---- -- --- ------- --<br>------- ---------- ------ -- ----- -- ----- -- ---- ------<br>--- ----- --- --- ------ -------- ----- --- ------ ----- --<br>----- ----- ---------- --- --- ------ ------ ---- -- ------<br>------- --- ------ ----- was ---- ------- -- ---- --- --<br>------- ------,204963.4100000003,204956.15999999974,204639.359,204640.25500000024,204656.025,204972.679,,47,was
screen,html.Screen,1_1_1_1_48,2021-04-12T07:31:00.009Z,,,,,,,,,,,,,,,,54,,,,,,,,,,,,,,338.7109999998356,,response,,,,100,,,,,,,Space,keypress(Space),,,,,,,,-- --- ---- --- ------ ----- ------- ---- -- --- ------- --<br>------- ---------- ------ -- ----- -- ----- -- ---- ------<br>--- ----- --- --- ------ -------- ----- --- ------ ----- --<br>----- ----- ---------- --- --- ------ ------ ---- -- ------<br>------- --- ------ ----- --- left ------- -- ---- --- --<br>------- ------,205318.39500000025,205311.38999999984,204956.013,204963.565,204972.679,205322.665,,48,left
screen,html.Screen,1_1_1_1_49,2021-04-12T07:31:00.433Z,,,,,,,,,,,,,,,,54,,,,,,,,,,,,,,412.8100000004051,,response,,,,100,,,,,,,Space,keypress(Space),,,,,,,,-- --- ---- --- ------ ----- ------- ---- -- --- ------- --<br>------- ---------- ------ -- ----- -- ----- -- ---- ------<br>--- ----- --- --- ------ -------- ----- --- ------ ----- --<br>----- ----- ---------- --- --- ------ ------ ---- -- ------<br>------- --- ------ ----- --- ---- without -- ---- --- --<br>------- ------,205742.3150000004,205735.4750000004,205305.999,205318.55499999982,205322.665,205755.981,,49,without
screen,html.Screen,1_1_1_1_50,2021-04-12T07:31:00.967Z,,,,,,,,,,,,,,,,54,,,,,,,,,,,,,,513.4140000002517,,response,,,,100,,,,,,,Space,keypress(Space),,,,,,,,-- --- ---- --- ------ ----- ------- ---- -- --- ------- --<br>------- ---------- ------ -- ----- -- ----- -- ---- ------<br>--- ----- --- --- ------ -------- ----- --- ------ ----- --<br>----- ----- ---------- --- --- ------ ------ ---- -- ------<br>------- --- ------ ----- --- ---- ------- an ---- --- --<br>------- ------,206276.25999999963,206269.39500000025,205739.315,205742.4799999999,205755.981,206289.293,,50,an
screen,html.Screen,1_1_1_1_51,2021-04-12T07:31:01.285Z,,,,,,,,,,,,,,,,54,,,,,,,,,,,,,,297.02200000046287,,response,,,,100,,,,,,,Space,keypress(Space),,,,,,,,-- --- ---- --- ------ ----- ------- ---- -- --- ------- --<br>------- ---------- ------ -- ----- -- ----- -- ---- ------<br>--- ----- --- --- ------ -------- ----- --- ------ ----- --<br>----- ----- ---------- --- --- ------ ------ ---- -- ------<br>------- --- ------ ----- --- ---- ------- -- easy --- --<br>------- ------,206593.98500000042,206586.31500000047,206272.627,206276.42000000016,206289.293,206605.947,,51,easy
screen,html.Screen,1_1_1_1_52,2021-04-12T07:31:01.671Z,,,,,,,,,,,,,,,,54,,,,,,,,,,,,,,366.62799999979325,,response,,,,100,,,,,,,Space,keypress(Space),,,,,,,,-- --- ---- --- ------ ----- ------- ---- -- --- ------- --<br>------- ---------- ------ -- ----- -- ----- -- ---- ------<br>--- ----- --- --- ------ -------- ----- --- ------ ----- --<br>----- ----- ---------- --- --- ------ ------ ---- -- ------<br>------- --- ------ ----- --- ---- ------- -- ---- way --<br>------- ------,206980.24999999962,206972.57499999978,206589.281,206594.22499999983,206605.947,206989.265,,52,way
screen,html.Screen,1_1_1_1_53,2021-04-12T07:31:01.984Z,,,,,,,,,,,,,,,,54,,,,,,,,,,,,,,296.0199999999022,,response,,,,100,,,,,,,Space,keypress(Space),,,,,,,,-- --- ---- --- ------ ----- ------- ---- -- --- ------- --<br>------- ---------- ------ -- ----- -- ----- -- ---- ------<br>--- ----- --- --- ------ -------- ----- --- ------ ----- --<br>----- ----- ---------- --- --- ------ ------ ---- -- ------<br>------- --- ------ ----- --- ---- ------- -- ---- --- of<br>------- ------,207292.84000000008,207285.28499999992,206972.599,206980.4949999998,206989.265,207305.919,,53,of
screen,html.Screen,1_1_1_1_54,2021-04-12T07:31:02.353Z,,,,,,,,,,,,,,,,54,,,,,,,,,,,,,,349.10600000002887,,response,,,,100,,,,,,,Space,keypress(Space),,,,,,,,-- --- ---- --- ------ ----- ------- ---- -- --- ------- --<br>------- ---------- ------ -- ----- -- ----- -- ---- ------<br>--- ----- --- --- ------ -------- ----- --- ------ ----- --<br>----- ----- ---------- --- --- ------ ------ ---- -- ------<br>------- --- ------ ----- --- ---- ------- -- ---- --- --<br>raising ------,207662.62499999994,207655.02500000002,207289.253,207293.00500000044,207305.919,207672.571,,54,raising
screen,html.Screen,1_1_1_1_55,2021-04-12T07:31:02.689Z,,,,,,,,,,,,,,,,54,,,,,,,,,,,,,,318.60899999999674,,response,,,,100,,,,,,,Space,keypress(Space),,,,,,,,-- --- ---- --- ------ ----- ------- ---- -- --- ------- --<br>------- ---------- ------ -- ----- -- ----- -- ---- ------<br>--- ----- --- --- ------ -------- ----- --- ------ ----- --<br>----- ----- ---------- --- --- ------ ------ ---- -- ------<br>------- --- ------ ----- --- ---- ------- -- ---- --- --<br>------- money.,207998.5349999997,207991.18,207655.905,207662.8899999996,207672.571,208005.891,,55,money.
Item 100,flow.Loop,1_1_1_1,2021-04-12T07:31:02.690Z,,,,,,,,,,,,,,,,,,,,,,,,,,,,,,26351.560999999987,,completion,,,,,B,,,,,,,,,,,silence,,,,,207998.81499999992,207991.18,181622.953,181625.0399999999,181639.619,208005.891,,,
Question 1,html.Screen,1_1_1_2,2021-04-12T07:31:05.139Z,,,,,,,,,,,,,,,,,,,,,,,,,,,true,TRUE,,2438.219000000361,,response,,,,100,B,,,,,,TRUE,click #choice-1,,,,silence,,,,,210448.1649999998,210444.11000000036,207989.225,207998.92499999987,208005.891,210455.705,,,
Question 2,html.Screen,1_1_1_3,2021-04-12T07:31:08.366Z,,,,,,,,,,,,,,,,,,,,,,,,,,,false,FALSE,,3216.085000000341,,response,,,,100,B,,,,,,TRUE,click #choice-1,,,,silence,,,,,213675.60500000036,213671.79000000033,210439.039,210448.41499999983,210455.705,213688.909,,,
Item 100,flow.Sequence,1_1_1,2021-04-12T07:31:08.366Z,,,,,,,,,,,,,,,,,,,,,,,,,,,,,,42035.79900000032,,completion,,,,,,,,,,,,,,,,,,,,,213675.9750000001,213671.79000000033,171619.325,171628.12000000032,171635.991,213688.909,,,
End of Practice,html.Page,1_1_2,2021-04-12T07:31:13.134Z,,,,,,,,,,,,,,,,,,,,,,,,,,,,,,4753.831000000384,,form submission,,,,,,,,,,,,,,,,,,,,,218443.50500000018,218442.7400000004,213672.243,213676.14500000037,213688.909,218445.686,,,
Practice,flow.Sequence,1_1,2021-04-12T07:31:13.134Z,,,,,,,,,,,,,,,,,,,,,,,,,,,,,,92599.4130000004,,completion,,,,,,,,,,,,,,,,,,,,,218443.87499999994,218442.7400000004,125826.661,125837.54000000044,125843.327,218445.686,,,
Trap_instruction,html.Page,1_2_0,2021-04-12T07:31:17.090Z,,,,,,,,,,,,,,,,,,,,,,,,,,,,,,3953.4789999998175,,form submission,,,,,,,,,,,,,,,,,,,,,222399.80500000002,222399.1649999998,218429.02,218444.08999999997,218445.686,222412.194,,,
trap_trial,html.Screen,1_2_1,2021-04-12T07:31:20.235Z,,,,,,,,,,,,,,,,,,,,,,,,,,,true,1,,3129.4960000000137,,response,,,,,,,,,,,1,click #choice-1,,,,,,,,,225544.50499999983,225541.69,222395.528,222400.0299999998,222412.194,225545.402,,,
end of trap trial,html.Page,1_2_2,2021-04-12T07:31:21.723Z,,,,,,,,,,,,,,,,,,,,,,,,,,,,,,1486.6680000002088,,form submission,,,,,,,,,,,,,,,,,,,,,227032.7900000002,227032.0700000002,225528.736,225544.78500000003,225545.402,227045.342,,,
Trap 1,flow.Sequence,1_2,2021-04-12T07:31:21.723Z,,,,,,,,,,,,,,,,,,,,,,,,,,,,,,8586.384000000224,,completion,,,,,,,,,,,,,,,,,,,,,227033.18000000034,227032.0700000002,218429.02,218444.0249999998,218445.686,227045.342,,,
Standby,html.Page,1_3_0,2021-04-12T07:31:29.719Z,,,,,,,,,,,,,,,,,,,,,,,,,,,,,,7999.679999999993,,timeout,,,,,,,,,,,,,,,,,,,,,235029.63,235028.356,227028.676,227033.4499999999,227045.342,235045.022,,,
Holding screen,html.Screen,1_3_1_0_0,2021-04-12T07:31:36.718Z,,,,,,,,,,,,,,,,,,,,,,,,,,,,,,6997.02900000001,,timeout,,,,,,,,,,,,,,,,,,,,,242028.19499999986,242025.385,235028.356,235029.97500000038,235045.022,242042.051,,,
screen,html.Screen,1_3_1_0_1_0,2021-04-12T07:31:37.666Z,,,,,,,,,,,,,,,,51,,,,,,,,,,,,,,927.1590000001888,,response,,,,13,B,,,,,,Space,keypress(Space),,,,lyrical,,,,American -------- --- --- ---- --- --- ------ -- --------<br>---- --------- --- ------- ------------ ---------- ---------<br>--- ---------- ------- ---------- ------- -- -------- ----<br>---- --- ------ ----- ------ -- ---- --- ----- -- - -------<br>-------- -- --- --- -- ----- ----------- ----- -----------<br>---- --- ---------- --- ---- --- -- ----------,242977.1899999996,242969.2100000002,242025.385,242028.3499999996,242042.051,242992.013,,0,American
screen,html.Screen,1_3_1_0_1_1,2021-04-12T07:31:38.466Z,,,,,,,,,,,,,,,,51,,,,,,,,,,,,,,777.5419999998412,,response,,,,13,B,,,,,,Space,keypress(Space),,,,lyrical,,,,-------- industry --- --- ---- --- --- ------ -- --------<br>---- --------- --- ------- ------------ ---------- ---------<br>--- ---------- ------- ---------- ------- -- -------- ----<br>---- --- ------ ----- ------ -- ---- --- ----- -- - -------<br>-------- -- --- --- -- ----- ----------- ----- -----------<br>---- --- ---------- --- ---- --- -- ----------,243777.03500000006,243769.55499999985,242975.347,242977.3750000004,242992.013,243791.981,,1,industry
screen,html.Screen,1_3_1_0_1_2,2021-04-12T07:31:38.864Z,,,,,,,,,,,,,,,,51,,,,,,,,,,,,,,378.38899999982095,,response,,,,13,B,,,,,,Space,keypress(Space),,,,lyrical,,,,-------- -------- may --- ---- --- --- ------ -- --------<br>---- --------- --- ------- ------------ ---------- ---------<br>--- ---------- ------- ---------- ------- -- -------- ----<br>---- --- ------ ----- ------ -- ---- --- ----- -- - -------<br>-------- -- --- --- -- ----- ----------- ----- -----------<br>---- --- ---------- --- ---- --- -- ----------,244174.50499999995,244170.36999999982,243775.315,243777.26999999958,243791.981,244175.299,,2,may
screen,html.Screen,1_3_1_0_1_3,2021-04-12T07:31:39.259Z,,,,,,,,,,,,,,,,51,,,,,,,,,,,,,,387.315999999817,,response,,,,13,B,,,,,,Space,keypress(Space),,,,lyrical,,,,-------- -------- --- not ---- --- --- ------ -- --------<br>---- --------- --- ------- ------------ ---------- ---------<br>--- ---------- ------- ---------- ------- -- -------- ----<br>---- --- ------ ----- ------ -- ---- --- ----- -- - -------<br>-------- -- --- --- -- ----- ----------- ----- -----------<br>---- --- ---------- --- ---- --- -- ----------,244570.10999999967,244562.61499999982,244158.633,244174.63000000044,244175.299,244575.283,,3,not
screen,html.Screen,1_3_1_0_1_4,2021-04-12T07:31:39.591Z,,,,,,,,,,,,,,,,51,,,,,,,,,,,,,,318.40200000000186,,response,,,,13,B,,,,,,Space,keypress(Space),,,,lyrical,,,,-------- -------- --- --- know --- --- ------ -- --------<br>---- --------- --- ------- ------------ ---------- ---------<br>--- ---------- ------- ---------- ------- -- -------- ----<br>---- --- ------ ----- ------ -- ---- --- ----- -- - -------<br>-------- -- --- --- -- ----- ----------- ----- -----------<br>---- --- ---------- --- ---- --- -- ----------,244901.31999999995,244893.685,244558.617,244570.29500000045,244575.283,244908.603,,4,know
screen,html.Screen,1_3_1_0_1_5,2021-04-12T07:31:39.965Z,,,,,,,,,,,,,,,,51,,,,,,,,,,,,,,359.95700000043144,,response,,,,13,B,,,,,,Space,keypress(Space),,,,lyrical,,,,"-------- -------- --- --- ---- it, --- ------ -- --------<br>---- --------- --- ------- ------------ ---------- ---------<br>--- ---------- ------- ---------- ------- -- -------- ----<br>---- --- ------ ----- ------ -- ---- --- ----- -- - -------<br>-------- -- --- --- -- ----- ----------- ----- -----------<br>---- --- ---------- --- ---- --- -- ----------",245275.3700000003,245268.56000000043,244891.937,244901.48000000045,244908.603,245291.921,,5,"it,"
screen,html.Screen,1_3_1_0_1_6,2021-04-12T07:31:40.461Z,,,,,,,,,,,,,,,,51,,,,,,,,,,,,,,472.52399999980116,,response,,,,13,B,,,,,,Space,keypress(Space),,,,lyrical,,,,-------- -------- --- --- ---- --- but ------ -- --------<br>---- --------- --- ------- ------------ ---------- ---------<br>--- ---------- ------- ---------- ------- -- -------- ----<br>---- --- ------ ----- ------ -- ---- --- ----- -- - -------<br>-------- -- --- --- -- ----- ----------- ----- -----------<br>---- --- ---------- --- ---- --- -- ----------,245771.7300000004,245764.4449999998,245275.255,245275.52500000002,245291.921,245775.235,,6,but
screen,html.Screen,1_3_1_0_1_7,2021-04-12T07:31:42.798Z,,,,,,,,,,,,,,,,51,,,,,,,,,,,,,,2327.8899999996647,,response,,,,13,B,,,,,,Space,keypress(Space),,,,lyrical,,,,-------- -------- --- --- ---- --- --- debate -- --------<br>---- --------- --- ------- ------------ ---------- ---------<br>--- ---------- ------- ---------- ------- -- -------- ----<br>---- --- ------ ----- ------ -- ---- --- ----- -- - -------<br>-------- -- --- --- -- ----- ----------- ----- -----------<br>---- --- ---------- --- ---- --- -- ----------,248108.94999999984,248103.12499999965,245758.569,245771.88500000013,245775.235,248124.483,,7,debate
screen,html.Screen,1_3_1_0_1_8,2021-04-12T07:31:43.161Z,,,,,,,,,,,,,,,,51,,,,,,,,,,,,,,339.9619999995921,,response,,,,13,B,,,,,,Space,keypress(Space),,,,lyrical,,,,-------- -------- --- --- ---- --- --- ------ in --------<br>---- --------- --- ------- ------------ ---------- ---------<br>--- ---------- ------- ---------- ------- -- -------- ----<br>---- --- ------ ----- ------ -- ---- --- ----- -- - -------<br>-------- -- --- --- -- ----- ----------- ----- -----------<br>---- --- ---------- --- ---- --- -- ----------,248471.97500000038,248464.4449999996,248107.817,248109.11000000034,248124.483,248474.469,,8,in
screen,html.Screen,1_3_1_0_1_9,2021-04-12T07:31:43.491Z,,,,,,,,,,,,,,,,51,,,,,,,,,,,,,,320.6360000001441,,response,,,,13,B,,,,,,Space,keypress(Space),,,,lyrical,,,,-------- -------- --- --- ---- --- --- ------ -- Congress<br>---- --------- --- ------- ------------ ---------- ---------<br>--- ---------- ------- ---------- ------- -- -------- ----<br>---- --- ------ ----- ------ -- ---- --- ----- -- - -------<br>-------- -- --- --- -- ----- ----------- ----- -----------<br>---- --- ---------- --- ---- --- -- ----------,248802.1150000004,248795.10500000016,248457.803,248472.13999999984,248474.469,248807.789,,9,Congress
screen,html.Screen,1_3_1_0_1_10,2021-04-12T07:31:43.950Z,,,,,,,,,,,,,,,,51,,,,,,,,,,,,,,445.675999999803,,response,,,,13,B,,,,,,Space,keypress(Space),,,,lyrical,,,,-------- -------- --- --- ---- --- --- ------ -- --------<br>over --------- --- ------- ------------ ---------- ---------<br>--- ---------- ------- ---------- ------- -- -------- ----<br>---- --- ------ ----- ------ -- ---- --- ----- -- - -------<br>-------- -- --- --- -- ----- ----------- ----- -----------<br>---- --- ---------- --- ---- --- -- ----------,249261.29500000025,249253.4649999998,248791.123,248802.31000000003,248807.789,249274.437,,10,over
screen,html.Screen,1_3_1_0_1_11,2021-04-12T07:31:44.383Z,,,,,,,,,,,,,,,,51,,,,,,,,,,,,,,412.0830000001879,,response,,,,13,B,,,,,,Space,keypress(Space),,,,lyrical,,,,-------- -------- --- --- ---- --- --- ------ -- --------<br>---- reforming --- ------- ------------ ---------- ---------<br>--- ---------- ------- ---------- ------- -- -------- ----<br>---- --- ------ ----- ------ -- ---- --- ----- -- - -------<br>-------- -- --- --- -- ----- ----------- ----- -----------<br>---- --- ---------- --- ---- --- -- ----------,249694.1999999999,249686.5200000002,249257.771,249261.45999999973,249274.437,249707.753,,11,reforming
screen,html.Screen,1_3_1_0_1_12,2021-04-12T07:31:44.810Z,,,,,,,,,,,,,,,,51,,,,,,,,,,,,,,406.77699999982724,,response,,,,13,B,,,,,,Space,keypress(Space),,,,lyrical,,,,-------- -------- --- --- ---- --- --- ------ -- --------<br>---- --------- the ------- ------------ ---------- ---------<br>--- ---------- ------- ---------- ------- -- -------- ----<br>---- --- ------ ----- ------ -- ---- --- ----- -- - -------<br>-------- -- --- --- -- ----- ----------- ----- -----------<br>---- --- ---------- --- ---- --- -- ----------,250121.29499999993,250114.52999999982,249691.087,249694.4400000002,249707.753,250124.403,,12,the
screen,html.Screen,1_3_1_0_1_13,2021-04-12T07:31:45.638Z,,,,,,,,,,,,,,,,51,,,,,,,,,,,,,,816.8270000003686,,response,,,,13,B,,,,,,Space,keypress(Space),,,,lyrical,,,,-------- -------- --- --- ---- --- --- ------ -- --------<br>---- --------- --- federal ------------ ---------- ---------<br>--- ---------- ------- ---------- ------- -- -------- ----<br>---- --- ------ ----- ------ -- ---- --- ----- -- - -------<br>-------- -- --- --- -- ----- ----------- ----- -----------<br>---- --- ---------- --- ---- --- -- ----------,250949.12000000023,250941.23000000036,250107.737,250121.4600000003,250124.403,250957.703,,13,federal
screen,html.Screen,1_3_1_0_1_14,2021-04-12T07:31:46.095Z,,,,,,,,,,,,,,,,51,,,,,,,,,,,,,,440.6170000002312,,response,,,,13,B,,,,,,Space,keypress(Space),,,,lyrical,,,,-------- -------- --- --- ---- --- --- ------ -- --------<br>---- --------- --- ------- government's ---------- ---------<br>--- ---------- ------- ---------- ------- -- -------- ----<br>---- --- ------ ----- ------ -- ---- --- ----- -- - -------<br>-------- -- --- --- -- ----- ----------- ----- -----------<br>---- --- ---------- --- ---- --- -- ----------,251405.73500000028,251398.32000000024,250941.037,250949.31499999983,250957.703,251407.685,,14,government's
screen,html.Screen,1_3_1_0_1_15,2021-04-12T07:31:46.589Z,,,,,,,,,,,,,,,,51,,,,,,,,,,,,,,484.58000000042375,,response,,,,13,B,,,,,,Space,keypress(Space),,,,lyrical,,,,-------- -------- --- --- ---- --- --- ------ -- --------<br>---- --------- --- ------- ------------ regulatory ---------<br>--- ---------- ------- ---------- ------- -- -------- ----<br>---- --- ------ ----- ------ -- ---- --- ----- -- - -------<br>-------- -- --- --- -- ----- ----------- ----- -----------<br>---- --- ---------- --- ---- --- -- ----------,251899.98999999987,251892.26500000042,251391.019,251405.9699999998,251407.685,251907.665,,15,regulatory
screen,html.Screen,1_3_1_0_1_16,2021-04-12T07:31:47.012Z,,,,,,,,,,,,,,,,51,,,,,,,,,,,,,,407.6549999997078,,response,,,,13,B,,,,,,Space,keypress(Space),,,,lyrical,,,,-------- -------- --- --- ---- --- --- ------ -- --------<br>---- --------- --- ------- ------------ ---------- apparatus<br>--- ---------- ------- ---------- ------- -- -------- ----<br>---- --- ------ ----- ------ -- ---- --- ----- -- - -------<br>-------- -- --- --- -- ----- ----------- ----- -----------<br>---- --- ---------- --- ---- --- -- ----------,252322.67000000048,252315.31999999972,251890.999,251900.16000000015,251907.665,252324.315,,16,apparatus
screen,html.Screen,1_3_1_0_1_17,2021-04-12T07:31:47.528Z,,,,,,,,,,,,,,,,51,,,,,,,,,,,,,,508.9450000003271,,response,,,,13,B,,,,,,Space,keypress(Space),,,,lyrical,,,,-------- -------- --- --- ---- --- --- ------ -- --------<br>---- --------- --- ------- ------------ ---------- ---------<br>may ---------- ------- ---------- ------- -- -------- ----<br>---- --- ------ ----- ------ -- ---- --- ----- -- - -------<br>-------- -- --- --- -- ----- ----------- ----- -----------<br>---- --- ---------- --- ---- --- -- ----------,252839.2450000001,252833.26000000033,252307.649,252322.83000000007,252324.315,252840.961,,17,may
screen,html.Screen,1_3_1_0_1_18,2021-04-12T07:31:48.182Z,,,,,,,,,,,,,,,,51,,,,,,,,,,,,,,644.3289999996196,,response,,,,13,B,,,,,,Space,keypress(Space),,,,lyrical,,,,-------- -------- --- --- ---- --- --- ------ -- --------<br>---- --------- --- ------- ------------ ---------- ---------<br>--- profoundly ------- ---------- ------- -- -------- ----<br>---- --- ------ ----- ------ -- ---- --- ----- -- - -------<br>-------- -- --- --- -- ----- ----------- ----- -----------<br>---- --- ---------- --- ---- --- -- ----------,253492.84499999977,253485.28999999963,252824.295,252839.4049999997,252840.961,253507.601,,18,profoundly
screen,html.Screen,1_3_1_0_1_19,2021-04-12T07:31:48.666Z,,,,,,,,,,,,,,,,51,,,,,,,,,,,,,,462.6590000000724,,response,,,,13,B,,,,,,Space,keypress(Space),,,,lyrical,,,,-------- -------- --- --- ---- --- --- ------ -- --------<br>---- --------- --- ------- ------------ ---------- ---------<br>--- ---------- improve ---------- ------- -- -------- ----<br>---- --- ------ ----- ------ -- ---- --- ----- -- - -------<br>-------- -- --- --- -- ----- ----------- ----- -----------<br>---- --- ---------- --- ---- --- -- ----------,253977.48000000048,253970.26000000007,253490.935,253493.00500000027,253507.601,253990.915,,19,improve
screen,html.Screen,1_3_1_0_1_20,2021-04-12T07:31:49.243Z,,,,,,,,,,,,,,,,51,,,,,,,,,,,,,,556.4049999996496,,response,,,,13,B,,,,,,Space,keypress(Space),,,,lyrical,,,,-------- -------- --- --- ---- --- --- ------ -- --------<br>---- --------- --- ------- ------------ ---------- ---------<br>--- ---------- ------- companies' ------- -- -------- ----<br>---- --- ------ ----- ------ -- ---- --- ----- -- - -------<br>-------- -- --- --- -- ----- ----------- ----- -----------<br>---- --- ---------- --- ---- --- -- ----------,254554.26999999964,254547.31999999966,253974.249,253977.84000000046,253990.915,254557.559,,20,companies'
screen,html.Screen,1_3_1_0_1_21,2021-04-12T07:31:49.761Z,,,,,,,,,,,,,,,,51,,,,,,,,,,,,,,507.59100000036415,,response,,,,13,B,,,,,,Space,keypress(Space),,,,lyrical,,,,-------- -------- --- --- ---- --- --- ------ -- --------<br>---- --------- --- ------- ------------ ---------- ---------<br>--- ---------- ------- ---------- ability -- -------- ----<br>---- --- ------ ----- ------ -- ---- --- ----- -- - -------<br>-------- -- --- --- -- ----- ----------- ----- -----------<br>---- --- ---------- --- ---- --- -- ----------,255072.54499999998,255065.15000000037,254540.893,254554.435,254557.559,255074.205,,21,ability
screen,html.Screen,1_3_1_0_1_22,2021-04-12T07:31:50.124Z,,,,,,,,,,,,,,,,51,,,,,,,,,,,,,,353.1199999996752,,response,,,,13,B,,,,,,Space,keypress(Space),,,,lyrical,,,,-------- -------- --- --- ---- --- --- ------ -- --------<br>---- --------- --- ------- ------------ ---------- ---------<br>--- ---------- ------- ---------- ------- to -------- ----<br>---- --- ------ ----- ------ -- ---- --- ----- -- - -------<br>-------- -- --- --- -- ----- ----------- ----- -----------<br>---- --- ---------- --- ---- --- -- ----------,255434.81499999962,255427.32499999966,255057.539,255072.71000000037,255074.205,255440.857,,22,to
screen,html.Screen,1_3_1_0_1_23,2021-04-12T07:31:50.382Z,,,,,,,,,,,,,,,,51,,,,,,,,,,,,,,245.2380000000412,,response,,,,13,B,,,,,,Space,keypress(Space),,,,lyrical,,,,-------- -------- --- --- ---- --- --- ------ -- --------<br>---- --------- --- ------- ------------ ---------- ---------<br>--- ---------- ------- ---------- ------- -- survive. ----<br>---- --- ------ ----- ------ -- ---- --- ----- -- - -------<br>-------- -- --- --- -- ----- ----------- ----- -----------<br>---- --- ---------- --- ---- --- -- ----------,255693.68500000017,255686.09500000003,255424.191,255434.97000000026,255440.857,255707.513,,23,survive.
screen,html.Screen,1_3_1_0_1_24,2021-04-12T07:31:50.882Z,,,,,,,,,,,,,,,,51,,,,,,,,,,,,,,478.806999999797,,response,,,,13,B,,,,,,Space,keypress(Space),,,,lyrical,,,,-------- -------- --- --- ---- --- --- ------ -- --------<br>---- --------- --- ------- ------------ ---------- ---------<br>--- ---------- ------- ---------- ------- -- -------- This<br>---- --- ------ ----- ------ -- ---- --- ----- -- - -------<br>-------- -- --- --- -- ----- ----------- ----- -----------<br>---- --- ---------- --- ---- --- -- ----------,256193.64500000028,256186.3199999998,255690.847,255693.85500000045,255707.513,256208.749,,24,This
screen,html.Screen,1_3_1_0_1_25,2021-04-12T07:31:51.377Z,,,,,,,,,,,,,,,,51,,,,,,,,,,,,,,472.28599999961443,,response,,,,13,B,,,,,,Space,keypress(Space),,,,lyrical,,,,-------- -------- --- --- ---- --- --- ------ -- --------<br>---- --------- --- ------- ------------ ---------- ---------<br>--- ---------- ------- ---------- ------- -- -------- ----<br>week --- ------ ----- ------ -- ---- --- ----- -- - -------<br>-------- -- --- --- -- ----- ----------- ----- -----------<br>---- --- ---------- --- ---- --- -- ----------,256688.40999999974,256681.03499999963,256192.083,256193.80999999976,256208.749,256692.063,,25,week
screen,html.Screen,1_3_1_0_1_26,2021-04-12T07:31:51.695Z,,,,,,,,,,,,,,,,51,,,,,,,,,,,,,,306.9470000004512,,response,,,,13,B,,,,,,Space,keypress(Space),,,,lyrical,,,,-------- -------- --- --- ---- --- --- ------ -- --------<br>---- --------- --- ------- ------------ ---------- ---------<br>--- ---------- ------- ---------- ------- -- -------- ----<br>---- the ------ ----- ------ -- ---- --- ----- -- - -------<br>-------- -- --- --- -- ----- ----------- ----- -----------<br>---- --- ---------- --- ---- --- -- ----------,257006.12999999977,256999.01000000045,256675.397,256688.57500000013,256692.063,257008.717,,26,the
screen,html.Screen,1_3_1_0_1_27,2021-04-12T07:31:52.009Z,,,,,,,,,,,,,,,,51,,,,,,,,,,,,,,304.49800000013784,,response,,,,13,B,,,,,,Space,keypress(Space),,,,lyrical,,,,-------- -------- --- --- ---- --- --- ------ -- --------<br>---- --------- --- ------- ------------ ---------- ---------<br>--- ---------- ------- ---------- ------- -- -------- ----<br>---- --- Senate ----- ------ -- ---- --- ----- -- - -------<br>-------- -- --- --- -- ----- ----------- ----- -----------<br>---- --- ---------- --- ---- --- -- ----------,257320.34999999998,257313.21500000014,256992.051,257006.3200000004,257008.717,257325.371,,27,Senate
screen,html.Screen,1_3_1_0_1_28,2021-04-12T07:31:52.447Z,,,,,,,,,,,,,,,,51,,,,,,,,,,,,,,426.65899999963585,,response,,,,13,B,,,,,,Space,keypress(Space),,,,lyrical,,,,-------- -------- --- --- ---- --- --- ------ -- --------<br>---- --------- --- ------- ------------ ---------- ---------<br>--- ---------- ------- ---------- ------- -- -------- ----<br>---- --- ------ seems ------ -- ---- --- ----- -- - -------<br>-------- -- --- --- -- ----- ----------- ----- -----------<br>---- --- ---------- --- ---- --- -- ----------,257758.3999999997,257752.02999999965,257308.705,257320.5850000004,257325.371,257775.353,,28,seems
screen,html.Screen,1_3_1_0_1_29,2021-04-12T07:31:52.871Z,,,,,,,,,,,,,,,,51,,,,,,,,,,,,,,399.94200000001,,response,,,,13,B,,,,,,Space,keypress(Space),,,,lyrical,,,,-------- -------- --- --- ---- --- --- ------ -- --------<br>---- --------- --- ------- ------------ ---------- ---------<br>--- ---------- ------- ---------- ------- -- -------- ----<br>---- --- ------ ----- poised -- ---- --- ----- -- - -------<br>-------- -- --- --- -- ----- ----------- ----- -----------<br>---- --- ---------- --- ---- --- -- ----------,258182.34500000018,258175.295,257758.687,257759.64000000022,257775.353,258192.003,,29,poised
screen,html.Screen,1_3_1_0_1_30,2021-04-12T07:31:53.220Z,,,,,,,,,,,,,,,,51,,,,,,,,,,,,,,332.29200000016135,,response,,,,13,B,,,,,,Space,keypress(Space),,,,lyrical,,,,-------- -------- --- --- ---- --- --- ------ -- --------<br>---- --------- --- ------- ------------ ---------- ---------<br>--- ---------- ------- ---------- ------- -- -------- ----<br>---- --- ------ ----- ------ to ---- --- ----- -- - -------<br>-------- -- --- --- -- ----- ----------- ----- -----------<br>---- --- ---------- --- ---- --- -- ----------,258531.70000000045,258524.29500000016,258175.337,258182.50499999977,258192.003,258541.989,,30,to
screen,html.Screen,1_3_1_0_1_31,2021-04-12T07:31:53.598Z,,,,,,,,,,,,,,,,51,,,,,,,,,,,,,,360.2709999998333,,response,,,,13,B,,,,,,Space,keypress(Space),,,,lyrical,,,,-------- -------- --- --- ---- --- --- ------ -- --------<br>---- --------- --- ------- ------------ ---------- ---------<br>--- ---------- ------- ---------- ------- -- -------- ----<br>---- --- ------ ----- ------ -- join --- ----- -- - -------<br>-------- -- --- --- -- ----- ----------- ----- -----------<br>---- --- ---------- --- ---- --- -- ----------,258909.1550000003,258902.25999999983,258525.323,258531.85500000019,258541.989,258925.307,,31,join
screen,html.Screen,1_3_1_0_1_32,2021-04-12T07:31:53.967Z,,,,,,,,,,,,,,,,51,,,,,,,,,,,,,,345.8379999996978,,response,,,,13,B,,,,,,Space,keypress(Space),,,,lyrical,,,,-------- -------- --- --- ---- --- --- ------ -- --------<br>---- --------- --- ------- ------------ ---------- ---------<br>--- ---------- ------- ---------- ------- -- -------- ----<br>---- --- ------ ----- ------ -- ---- the ----- -- - -------<br>-------- -- --- --- -- ----- ----------- ----- -----------<br>---- --- ---------- --- ---- --- -- ----------,259278.44000000006,259271.1449999997,258908.641,258909.4249999998,258925.307,259291.959,,32,the
screen,html.Screen,1_3_1_0_1_33,2021-04-12T07:31:54.416Z,,,,,,,,,,,,,,,,51,,,,,,,,,,,,,,428.0959999997576,,response,,,,13,B,,,,,,Space,keypress(Space),,,,lyrical,,,,-------- -------- --- --- ---- --- --- ------ -- --------<br>---- --------- --- ------- ------------ ---------- ---------<br>--- ---------- ------- ---------- ------- -- -------- ----<br>---- --- ------ ----- ------ -- ---- --- House -- - -------<br>-------- -- --- --- -- ----- ----------- ----- -----------<br>---- --- ---------- --- ---- --- -- ----------,259727.5749999999,259720.05499999976,259275.293,259278.59999999963,259291.959,259741.941,,33,House
screen,html.Screen,1_3_1_0_1_34,2021-04-12T07:31:54.752Z,,,,,,,,,,,,,,,,51,,,,,,,,,,,,,,314.15399999992223,,response,,,,13,B,,,,,,Space,keypress(Space),,,,lyrical,,,,-------- -------- --- --- ---- --- --- ------ -- --------<br>---- --------- --- ------- ------------ ---------- ---------<br>--- ---------- ------- ---------- ------- -- -------- ----<br>---- --- ------ ----- ------ -- ---- --- ----- in - -------<br>-------- -- --- --- -- ----- ----------- ----- -----------<br>---- --- ---------- --- ---- --- -- ----------,260063.39500000014,260056.0949999999,259725.275,259727.81000000032,259741.941,260075.261,,34,in
screen,html.Screen,1_3_1_0_1_35,2021-04-12T07:31:55.052Z,,,,,,,,,,,,,,,,51,,,,,,,,,,,,,,281.8090000000084,,response,,,,13,B,,,,,,Space,keypress(Space),,,,lyrical,,,,-------- -------- --- --- ---- --- --- ------ -- --------<br>---- --------- --- ------- ------------ ---------- ---------<br>--- ---------- ------- ---------- ------- -- -------- ----<br>---- --- ------ ----- ------ -- ---- --- ----- -- a -------<br>-------- -- --- --- -- ----- ----------- ----- -----------<br>---- --- ---------- --- ---- --- -- ----------,260363.20499999967,260357.07,260058.595,260063.5599999996,260075.261,260375.249,,35,a
screen,html.Screen,1_3_1_0_1_36,2021-04-12T07:31:55.395Z,,,,,,,,,,,,,,,,51,,,,,,,,,,,,,,324.846000000136,,response,,,,13,B,,,,,,Space,keypress(Space),,,,lyrical,,,,-------- -------- --- --- ---- --- --- ------ -- --------<br>---- --------- --- ------- ------------ ---------- ---------<br>--- ---------- ------- ---------- ------- -- -------- ----<br>---- --- ------ ----- ------ -- ---- --- ----- -- - massive<br>-------- -- --- --- -- ----- ----------- ----- -----------<br>---- --- ---------- --- ---- --- -- ----------,260706.90000000014,260700.09500000015,260358.583,260363.36500000017,260375.249,260708.569,,36,massive
screen,html.Screen,1_3_1_0_1_37,2021-04-12T07:31:55.842Z,,,,,,,,,,,,,,,,51,,,,,,,,,,,,,,437.5309999999299,,response,,,,13,B,,,,,,Space,keypress(Space),,,,lyrical,,,,-------- -------- --- --- ---- --- --- ------ -- --------<br>---- --------- --- ------- ------------ ---------- ---------<br>--- ---------- ------- ---------- ------- -- -------- ----<br>---- --- ------ ----- ------ -- ---- --- ----- -- - -------<br>overhaul -- --- --- -- ----- ----------- ----- -----------<br>---- --- ---------- --- ---- --- -- ----------,261153.75500000027,261146.09999999992,260691.903,260707.07500000024,260708.569,261158.551,,37,overhaul
screen,html.Screen,1_3_1_0_1_38,2021-04-12T07:31:56.349Z,,,,,,,,,,,,,,,,51,,,,,,,,,,,,,,494.57899999967776,,response,,,,13,B,,,,,,Space,keypress(Space),,,,lyrical,,,,-------- -------- --- --- ---- --- --- ------ -- --------<br>---- --------- --- ------- ------------ ---------- ---------<br>--- ---------- ------- ---------- ------- -- -------- ----<br>---- --- ------ ----- ------ -- ---- --- ----- -- - -------<br>-------- of --- --- -- ----- ----------- ----- -----------<br>---- --- ---------- --- ---- --- -- ----------,261660.5849999996,261653.12999999968,261141.885,261153.98499999993,261158.551,261675.197,,38,of
