sender,sender_type,sender_id,timestamp,meta,,Blues,Classical,Country,Dance,Electronic,Folk,Gospel,Hip-Hop,Jazz,Latin,Musical/Film,New-age,Pop,Prolific_id,Provo_ID,R&B,Rap,Reggae,Religious,Rock,Soul,Swing,Traditional,age,artist_name,correct,correctResponse,distraction,duration,education,ended_on,familiarity,gender,headphone_check_performance,item,list,music_frequency,offensiveness,pleasantness,position_correct,preference,response,response_action,snippet_file,song_name,song_rating,sound,stimulus_1,stimulus_2,stimulus_3,text,time_commit,time_end,time_render,time_run,time_show,time_switch,url,word,word_ID
Prolific ID,html.Form,0,2022-03-19T20:17:13.072Z,"{""labjs_version"":""20.2.2"",""labjs_build"":{""flavor"":""production"",""commit"":""a25486e0c714a0ae2ce03ff94b7bb6896854dcfa""},""location"":""https://run.pavlovia.org/mvasilev/prolific3_music_a/?__pilotToken=98f13708210194c475687be6106a3b84&__oauthToken=cc604b6e7d449fc5fe7a311b47aeaf3d810b53f5795c726b331b83656855f6f4"",""userAgent"":""Mozilla/5.0 (Windows NT 10.0; Win64; x64) AppleWebKit/537.36 (KHTML, like Gecko) Chrome/99.0.4844.74 Safari/537.36"",""platform"":""Win32"",""language"":""de-DE"",""locale"":""en-US"",""timeZone"":""Europe/London"",""timezoneOffset"":0,""screen_width"":2560,""screen_height"":1440,""scroll_width"":3200,""scroll_height"":1621,""window_innerWidth"":3200,""window_innerHeight"":1668,""devicePixelRatio"":0.800000011920929}",,,,,,,,,,,,,,,xyz123456789,,,,,,,,,,,,,,,2904.951000047684,,form submission,,,,,,,,,,,,,,,,,,,,,12330.200000047684,12329.700000047684,9408.032,9415,9424.749,12343.577,"{""__pilotToken"":""98f13708210194c475687be6106a3b84"",""__oauthToken"":""cc604b6e7d449fc5fe7a311b47aeaf3d810b53f5795c726b331b83656855f6f4""}",,
Introduction,html.Screen,1_0,2022-03-19T20:17:16.655Z,,,,,,,,,,,,,,,,,,,,,,,,,,,,,,,3568.9230000000007,,response,,,,,,,,,,,continue,click button,,,,,,,,,15913.200000047684,15912.5,12327.023,12330.5,12343.577,15950.657,,,
Volume calibration,html.Screen,1_1,2022-03-19T20:17:33.823Z,,,,,,,,,,,,,,,,,,,,,,,,,,,,,,,17129.843,,response,,,,,,,,,,,continue,click button,,,,,,,,,33081.40000009537,33080.5,15896.63,15913.400000095367,15950.657,33093.88,,,
Task instructions,html.Screen,1_2,2022-03-19T20:17:37.511Z,,,,,,,,,,,,,,,,,,,,,,,,,,,,,,,3674.7200000238445,,response,,,,,,,,,,,continue,click button,,,,,,,,,36769.300000071526,36768.60000002384,33077.181,33081.5,33093.88,36779.994,,,
Sounds,html.Screen,1_3_0_0,2022-03-19T20:17:41.762Z,,,,,,,,,,,,,,,,,,,,,,,,,,,,,,,4253.5220000000045,,timeout,,,,,,,,,3,,,,,,,,O,I,S,,41021.10000002384,41016.931,36763.489,36769.5,36779.994,41033.516,,,
Judgement,html.Screen,1_3_0_1,2022-03-19T20:17:42.815Z,,,,,,,,,,,,,,,,,,,,,,,,,,,,true,3,,1038.9839999999967,,response,,,,,,,,,3,,3,click #choice-3,,,,,O,I,S,,42073.200000047684,42072.5,41016.931,41021.300000071526,41033.516,42084.442,,,
Trial,flow.Sequence,1_3_0,2022-03-19T20:17:42.815Z,,,,,,,,,,,,,,,,,,,,,,,,,,,,,,,5292.506000000001,,completion,,,,,,,,,3,,,,,,,,O,I,S,,42073.5,42072.5,36763.489,36769.5,36779.994,42084.442,,,
Sounds,html.Screen,1_3_1_0,2022-03-19T20:17:47.064Z,,,,,,,,,,,,,,,,,,,,,,,,,,,,,,,4253.464,,timeout,,,,,,,,,2,,,,,,,,O,S,I,,46322.200000047684,46321.181,42067.777,42073.800000071526,42084.442,46337.906,,,
Judgement,html.Screen,1_3_1_1,2022-03-19T20:17:47.607Z,,,,,,,,,,,,,,,,,,,,,,,,,,,,true,2,,526.5939999999973,,response,,,,,,,,,2,,2,click #choice-2,,,,,O,S,I,,46865.300000071526,46864.5,46321.181,46322.5,46337.906,46871.612,,,
Trial,flow.Sequence,1_3_1,2022-03-19T20:17:47.607Z,,,,,,,,,,,,,,,,,,,,,,,,,,,,,,,4780.057999999997,,completion,,,,,,,,,2,,,,,,,,O,S,I,,46865.60000002384,46864.5,42067.777,42073.60000002384,42084.442,46871.612,,,
Sounds,html.Screen,1_3_2_0,2022-03-19T20:17:51.851Z,,,,,,,,,,,,,,,,,,,,,,,,,,,,,,,4253.512000000002,,timeout,,,,,,,,,1,,,,,,,,S,O,I,,51109.5,51108.427,46854.993,46865.800000071526,46871.612,51125.124,,,
Judgement,html.Screen,1_3_2_1,2022-03-19T20:17:52.391Z,,,,,,,,,,,,,,,,,,,,,,,,,,,,true,1,,523.5760000476803,,response,,,,,,,,,1,,1,click #choice-1,,,,,S,O,I,,51649.40000009537,51648.700000047684,51108.427,51109.700000047684,51125.124,51658.824,,,
Trial,flow.Sequence,1_3_2,2022-03-19T20:17:52.391Z,,,,,,,,,,,,,,,,,,,,,,,,,,,,,,,4777.088000047683,,completion,,,,,,,,,1,,,,,,,,S,O,I,,51649.60000002384,51648.700000047684,46854.993,46865.700000047684,46871.612,51658.824,,,
Sounds,html.Screen,1_3_3_0,2022-03-19T20:17:56.638Z,,,,,,,,,,,,,,,,,,,,,,,,,,,,,,,4253.447,,timeout,,,,,,,,,3,,,,,,,,I,O,S,,55897,55895.627,51642.182,51649.800000071526,51658.824,55912.271,,,
Judgement,html.Screen,1_3_3_1,2022-03-19T20:17:57.327Z,,,,,,,,,,,,,,,,,,,,,,,,,,,,true,3,,672.2289999999994,,response,,,,,,,,,3,,3,click #choice-3,,,,,I,O,S,,56585.300000071526,56584.5,55895.627,55897.10000002384,55912.271,56596.149,,,
Trial,flow.Sequence,1_3_3,2022-03-19T20:17:57.327Z,,,,,,,,,,,,,,,,,,,,,,,,,,,,,,,4925.6759999999995,,completion,,,,,,,,,3,,,,,,,,I,O,S,,56585.40000009537,56584.5,51642.182,51649.700000047684,51658.824,56596.149,,,
Sounds,html.Screen,1_3_4_0,2022-03-19T20:18:01.575Z,,,,,,,,,,,,,,,,,,,,,,,,,,,,,,,4253.487000000001,,timeout,,,,,,,,,2,,,,,,,,I,S,O,,60833.90000009537,60832.94,56579.512,56585.60000002384,56596.149,60849.636,,,
Judgement,html.Screen,1_3_4_1,2022-03-19T20:18:02.183Z,,,,,,,,,,,,,,,,,,,,,,,,,,,,true,2,,590.9640000238433,,response,,,,,,,,,2,,2,click #choice-2,,,,,I,S,O,,61441.300000071526,61440.60000002384,60832.94,60834,60849.636,61450.094,,,
Trial,flow.Sequence,1_3_4,2022-03-19T20:18:02.183Z,,,,,,,,,,,,,,,,,,,,,,,,,,,,,,,4844.451000023844,,completion,,,,,,,,,2,,,,,,,,I,S,O,,61441.40000009537,61440.60000002384,56579.512,56585.60000002384,56596.149,61450.094,,,
Sounds,html.Screen,1_3_5_0,2022-03-19T20:18:06.429Z,,,,,,,,,,,,,,,,,,,,,,,,,,,,,,,4253.466,,timeout,,,,,,,,,1,,,,,,,,S,I,O,,65687.80000007153,65686.869,61433.419,61441.60000002384,61450.094,65703.56,,,
Judgement,html.Screen,1_3_5_1,2022-03-19T20:18:06.935Z,,,,,,,,,,,,,,,,,,,,,,,,,,,,true,1,,488.84000009536976,,response,,,,,,,,,1,,1,click #choice-1,,,,,S,I,O,,66193.10000002384,66192.40000009537,65686.869,65688,65703.56,66203.941,,,
Trial,flow.Sequence,1_3_5,2022-03-19T20:18:06.935Z,,,,,,,,,,,,,,,,,,,,,,,,,,,,,,,4742.30600009537,,completion,,,,,,,,,1,,,,,,,,S,I,O,,66193.20000004768,66192.40000009537,61433.419,61441.5,61450.094,66203.941,,,
Task,flow.Loop,1_3,2022-03-19T20:18:06.940Z,,,,,,,,,,,,,,,,,,,,,,,,,,,,,,,29412.40600009537,,completion,,,1,,,,,,,,,,,,,,,,,,66198.10000002384,66192.40000009537,36763.489,36769.40000009537,36779.994,66203.941,,,
Trap,html.Screen,1_4,2022-03-19T20:18:06.941Z,,,,,,,,,,,,,,,,,,,,,,,,,,,,,,,NaN,,skipped,,,,,,,,,,,,,,,,,,,,,66199.30000007153,66192.40000009537,,66199.20000004768,,66203.941,,,
Thanks,html.Screen,1_5,2022-03-19T20:18:28.167Z,,,,,,,,,,,,,,,,,,,,,,,,,,,,,,,21220.759000047678,,response,,,,,,,,,,,continue,click button,,,,,,,,,87425.5,87424.70000004768,66187.265,66199.5,66203.941,88488.579,,,
Headphone screening,flow.Sequence,1,2022-03-19T20:18:28.167Z,,,,,,,,,,,,,,,,,,,,,,,,,,,,,,,75081.12300004768,,completion,,,,,,,,,,,,,,,,,,,,,87425.70000004768,87424.70000004768,12327.023,12330.400000095367,12343.577,88488.579,,,
Instructions,html.Page,2_0,2022-03-19T20:18:31.527Z,,,,,,,,,,,,,,,,,,,,,,,,,,,,,,,2296.8210000953695,,form submission,,,,,,,,,,,,,,,,,,,,,90785.90000009537,90785.40000009537,88471.879,88483,88488.579,90790.426,,,
Holding screen,html.Screen,2_1_0_0,2022-03-19T20:18:41.524Z,,,,,,,,,,,,,,,,,,,,,,,,,,,,,,,10008.079999999987,,timeout,,,,,,,,,,,,,,,,,,,,,100782.70000004768,100781.881,90773.795,90786.30000007153,90790.426,100798.506,,,
screen,html.Screen,2_1_0_1_0,2022-03-19T20:18:42.683Z,,,,,,,,,,,,,,,,,53,,,,,,,,,,,,,,1138.7940000715316,,response,,,,99,,,,,,,Space,keypress(Space),,,,,,,,When -- ----- -- ------ - ------- --- ----------<br>------------- ------ ------ ---- ---- ------- ----- -- ----<br>-------- ------- -- ---------- --- - --- ----- ----- ----<br>---- --- --- ----- --- ---- ---- ------- ----- ---- -------<br>--- --- -- ----- -- --- ---- -- --- ---- -- ------ ------<br>--- ----- -- ----,101941.70000004768,101937.30000007153,100781.881,100783,100798.506,101949.432,,0,When
screen,html.Screen,2_1_0_1_1,2022-03-19T20:18:43.095Z,,,,,,,,,,,,,,,,,53,,,,,,,,,,,,,,403.16800002384116,,response,,,,99,,,,,,,Space,keypress(Space),,,,,,,,---- it ----- -- ------ - ------- --- ----------<br>------------- ------ ------ ---- ---- ------- ----- -- ----<br>-------- ------- -- ---------- --- - --- ----- ----- ----<br>---- --- --- ----- --- ---- ---- ------- ----- ---- -------<br>--- --- -- ----- -- --- ---- -- --- ---- -- ------ ------<br>--- ----- -- ----,102353.30000007153,102352.60000002384,101932.811,101942,101949.432,102366.477,,1,it
screen,html.Screen,2_1_0_1_2,2022-03-19T20:18:43.911Z,,,,,,,,,,,,,,,,,53,,,,,,,,,,,,,,802.1230000238429,,response,,,,99,,,,,,,Space,keypress(Space),,,,,,,,---- -- comes -- ------ - ------- --- ----------<br>------------- ------ ------ ---- ---- ------- ----- -- ----<br>-------- ------- -- ---------- --- - --- ----- ----- ----<br>---- --- --- ----- --- ---- ---- ------- ----- ---- -------<br>--- --- -- ----- -- --- ---- -- --- ---- -- ------ ------<br>--- ----- -- ----,103169.30000007153,103168.60000002384,102349.81,102353.5,102366.477,103183.781,,2,comes
screen,html.Screen,2_1_0_1_3,2022-03-19T20:18:44.255Z,,,,,,,,,,,,,,,,,53,,,,,,,,,,,,,,328.8190000238392,,response,,,,99,,,,,,,Space,keypress(Space),,,,,,,,---- -- ----- to ------ - ------- --- ----------<br>------------- ------ ------ ---- ---- ------- ----- -- ----<br>-------- ------- -- ---------- --- - --- ----- ----- ----<br>---- --- --- ----- --- ---- ---- ------- ----- ---- -------<br>--- --- -- ----- -- --- ---- -- --- ---- -- ------ ------<br>--- ----- -- ----,103513.30000007153,103512.60000002384,103167.134,103169.60000002384,103183.781,103517.422,,3,to
screen,html.Screen,2_1_0_1_4,2022-03-19T20:18:44.519Z,,,,,,,,,,,,,,,,,53,,,,,,,,,,,,,,259.07799999999406,,response,,,,99,,,,,,,Space,keypress(Space),,,,,,,,---- -- ----- -- having - ------- --- ----------<br>------------- ------ ------ ---- ---- ------- ----- -- ----<br>-------- ------- -- ---------- --- - --- ----- ----- ----<br>---- --- --- ----- --- ---- ---- ------- ----- ---- -------<br>--- --- -- ----- -- --- ---- -- --- ---- -- ------ ------<br>--- ----- -- ----,103777.20000004768,103776.5,103500.72,103513.5,103517.422,103784.109,,4,having
screen,html.Screen,2_1_0_1_5,2022-03-19T20:18:44.903Z,,,,,,,,,,,,,,,,,53,,,,,,,,,,,,,,376.69100007152883,,response,,,,99,,,,,,,Space,keypress(Space),,,,,,,,---- -- ----- -- ------ a ------- --- ----------<br>------------- ------ ------ ---- ---- ------- ----- -- ----<br>-------- ------- -- ---------- --- - --- ----- ----- ----<br>---- --- --- ----- --- ---- ---- ------- ----- ---- -------<br>--- --- -- ----- -- --- ---- -- --- ---- -- ------ ------<br>--- ----- -- ----,104161.60000002384,104160.80000007153,103767.604,103777.5,103784.109,104184.616,,5,a
screen,html.Screen,2_1_0_1_6,2022-03-19T20:18:45.215Z,,,,,,,,,,,,,,,,,53,,,,,,,,,,,,,,288.0840000476892,,response,,,,99,,,,,,,Space,keypress(Space),,,,,,,,---- -- ----- -- ------ - lasting --- ----------<br>------------- ------ ------ ---- ---- ------- ----- -- ----<br>-------- ------- -- ---------- --- - --- ----- ----- ----<br>---- --- --- ----- --- ---- ---- ------- ----- ---- -------<br>--- --- -- ----- -- --- ---- -- --- ---- -- ------ ------<br>--- ----- -- ----,104473.40000009537,104472.70000004768,104167.964,104161.80000007153,104184.616,104484.801,,6,lasting
screen,html.Screen,2_1_0_1_7,2022-03-19T20:18:45.591Z,,,,,,,,,,,,,,,,,53,,,,,,,,,,,,,,363.9990000715188,,response,,,,99,,,,,,,Space,keypress(Space),,,,,,,,---- -- ----- -- ------ - ------- and ----------<br>------------- ------ ------ ---- ---- ------- ----- -- ----<br>-------- ------- -- ---------- --- - --- ----- ----- ----<br>---- --- --- ----- --- ---- ---- ------- ----- ---- -------<br>--- --- -- ----- -- --- ---- -- --- ---- -- ------ ------<br>--- ----- -- ----,104849.5,104848.80000007153,104468.191,104473.60000002384,104484.801,104868.556,,7,and
screen,html.Screen,2_1_0_1_8,2022-03-19T20:18:45.959Z,,,,,,,,,,,,,,,,,53,,,,,,,,,,,,,,348.14400004768686,,response,,,,99,,,,,,,Space,keypress(Space),,,,,,,,---- -- ----- -- ------ - ------- --- fulfilling<br>------------- ------ ------ ---- ---- ------- ----- -- ----<br>-------- ------- -- ---------- --- - --- ----- ----- ----<br>---- --- --- ----- --- ---- ---- ------- ----- ---- -------<br>--- --- -- ----- -- --- ---- -- --- ---- -- ------ ------<br>--- ----- -- ----,105217.60000002384,105216.70000004768,104851.834,104849.70000004768,104868.556,105235.519,,8,fulfilling
screen,html.Screen,2_1_0_1_9,2022-03-19T20:18:46.465Z,,,,,,,,,,,,,,,,,53,,,,,,,,,,,,,,487.48099999999977,,response,,,,99,,,,,,,Space,keypress(Space),,,,,,,,"---- -- ----- -- ------ - ------- --- ----------<br>relationship, ------ ------ ---- ---- ------- ----- -- ----<br>-------- ------- -- ---------- --- - --- ----- ----- ----<br>---- --- --- ----- --- ---- ---- ------- ----- ---- -------<br>--- --- -- ----- -- --- ---- -- --- ---- -- ------ ------<br>--- ----- -- ----",105723.80000007153,105723,105218.758,105217.80000007153,105235.519,105752.591,,9,"relationship,"
screen,html.Screen,2_1_0_1_10,2022-03-19T20:18:46.497Z,,,,,,,,,,,,,,,,,53,,,,,,,,,,,,,,2.0090000238415087,,response,,,,99,,,,,,,Space,keypress(Space),,,,,,,,---- -- ----- -- ------ - ------- --- ----------<br>------------- common ------ ---- ---- ------- ----- -- ----<br>-------- ------- -- ---------- --- - --- ----- ----- ----<br>---- --- --- ----- --- ---- ---- ------- ----- ---- -------<br>--- --- -- ----- -- --- ---- -- --- ---- -- ------ ------<br>--- ----- -- ----,105755.5,105754.60000002384,105735.884,105724,105752.591,105785.996,,10,common
screen,html.Screen,2_1_0_1_11,2022-03-19T20:18:46.529Z,,,,,,,,,,,,,,,,,53,,,,,,,,,,,,,,0.8040000715263886,,response,,,,99,,,,,,,Space,keypress(Space),,,,,,,,---- -- ----- -- ------ - ------- --- ----------<br>------------- ------ wisdom ---- ---- ------- ----- -- ----<br>-------- ------- -- ---------- --- - --- ----- ----- ----<br>---- --- --- ----- --- ---- ---- ------- ----- ---- -------<br>--- --- -- ----- -- --- ---- -- --- ---- -- ------ ------<br>--- ----- -- ----,105787.5,105786.80000007153,105769.246,105755.70000004768,105785.996,105819.276,,11,wisdom
screen,html.Screen,2_1_0_1_12,2022-03-19T20:18:46.561Z,,,,,,,,,,,,,,,,,53,,,,,,,,,,,,,,16.186000071524177,,response,,,,99,,,,,,,Space,keypress(Space),,,,,,,,---- -- ----- -- ------ - ------- --- ----------<br>------------- ------ ------ says ---- ------- ----- -- ----<br>-------- ------- -- ---------- --- - --- ----- ----- ----<br>---- --- --- ----- --- ---- ---- ------- ----- ---- -------<br>--- --- -- ----- -- --- ---- -- --- ---- -- ------ ------<br>--- ----- -- ----,105819.70000004768,105818.80000007153,105802.614,105787.60000002384,,105835.964,,12,says
screen,html.Screen,2_1_0_1_13,2022-03-19T20:18:46.591Z,,,,,,,,,,,,,,,,,53,,,,,,,,,,,,,,13.13600002383464,,response,,,,99,,,,,,,Space,keypress(Space),,,,,,,,---- -- ----- -- ------ - ------- --- ----------<br>------------- ------ ------ ---- that ------- ----- -- ----<br>-------- ------- -- ---------- --- - --- ----- ----- ----<br>---- --- --- ----- --- ---- ---- ------- ----- ---- -------<br>--- --- -- ----- -- --- ---- -- --- ---- -- ------ ------<br>--- ----- -- ----,105849.80000007153,105849.10000002384,105819.276,105819.90000009537,105835.964,105869.364,,13,that
screen,html.Screen,2_1_0_1_14,2022-03-19T20:18:46.638Z,,,,,,,,,,,,,,,,,53,,,,,,,,,,,,,,26.635999999998603,,response,,,,99,,,,,,,Space,keypress(Space),,,,,,,,---- -- ----- -- ------ - ------- --- ----------<br>------------- ------ ------ ---- ---- feeling ----- -- ----<br>-------- ------- -- ---------- --- - --- ----- ----- ----<br>---- --- --- ----- --- ---- ---- ------- ----- ---- -------<br>--- --- -- ----- -- --- ---- -- --- ---- -- ------ ------<br>--- ----- -- ----,105896.60000002384,105896,105852.647,105849.90000009537,105869.364,105902.609,,14,feeling
screen,html.Screen,2_1_0_1_15,2022-03-19T20:18:46.668Z,,,,,,,,,,,,,,,,,53,,,,,,,,,,,,,,23.491000023845118,,response,,,,99,,,,,,,Space,keypress(Space),,,,,,,,---- -- ----- -- ------ - ------- --- ----------<br>------------- ------ ------ ---- ---- ------- close -- ----<br>-------- ------- -- ---------- --- - --- ----- ----- ----<br>---- --- --- ----- --- ---- ---- ------- ----- ---- -------<br>--- --- -- ----- -- --- ---- -- --- ---- -- ------ ------<br>--- ----- -- ----,105926.80000007153,105926.10000002384,105886.003,105896.80000007153,105902.609,105935.967,,15,close
screen,html.Screen,2_1_0_1_16,2022-03-19T20:18:46.699Z,,,,,,,,,,,,,,,,,53,,,,,,,,,,,,,,21.03299999999581,,response,,,,99,,,,,,,Space,keypress(Space),,,,,,,,---- -- ----- -- ------ - ------- --- ----------<br>------------- ------ ------ ---- ---- ------- ----- to ----<br>-------- ------- -- ---------- --- - --- ----- ----- ----<br>---- --- --- ----- --- ---- ---- ------- ----- ---- -------<br>--- --- -- ----- -- --- ---- -- --- ---- -- ------ ------<br>--- ----- -- ----,105957.60000002384,105957,105919.293,105927,105935.967,105969.438,,16,to
screen,html.Screen,2_1_0_1_17,2022-03-19T20:18:46.730Z,,,,,,,,,,,,,,,,,53,,,,,,,,,,,,,,18.76200004768907,,response,,,,99,,,,,,,Space,keypress(Space),,,,,,,,---- -- ----- -- ------ - ------- --- ----------<br>------------- ------ ------ ---- ---- ------- ----- -- your<br>-------- ------- -- ---------- --- - --- ----- ----- ----<br>---- --- --- ----- --- ---- ---- ------- ----- ---- -------<br>--- --- -- ----- -- --- ---- -- --- ---- -- ------ ------<br>--- ----- -- ----,105988.80000007153,105988.20000004768,105952.723,105957.80000007153,105969.438,106002.8,,17,your
screen,html.Screen,2_1_0_1_18,2022-03-19T20:18:46.763Z,,,,,,,,,,,,,,,,,53,,,,,,,,,,,,,,18.10000009536452,,response,,,,99,,,,,,,Space,keypress(Space),,,,,,,,---- -- ----- -- ------ - ------- --- ----------<br>------------- ------ ------ ---- ---- ------- ----- -- ----<br>romantic ------- -- ---------- --- - --- ----- ----- ----<br>---- --- --- ----- --- ---- ---- ------- ----- ---- -------<br>--- --- -- ----- -- --- ---- -- --- ---- -- ------ ------<br>--- ----- -- ----,106021.5,106020.90000009537,105986.083,105989,106002.8,106052.832,,18,romantic
screen,html.Screen,2_1_0_1_19,2022-03-19T20:18:46.793Z,,,,,,,,,,,,,,,,,53,,,,,,,,,,,,,,14.868000000002212,,response,,,,99,,,,,,,Space,keypress(Space),,,,,,,,---- -- ----- -- ------ - ------- --- ----------<br>------------- ------ ------ ---- ---- ------- ----- -- ----<br>-------- partner -- ---------- --- - --- ----- ----- ----<br>---- --- --- ----- --- ---- ---- ------- ----- ---- -------<br>--- --- -- ----- -- --- ---- -- --- ---- -- ------ ------<br>--- ----- -- ----,106051.60000002384,106051,106036.132,106021.70000004768,,106069.525,,19,partner
screen,html.Screen,2_1_0_1_20,2022-03-19T20:18:46.824Z,,,,,,,,,,,,,,,,,53,,,,,,,,,,,,,,11.775000071531394,,response,,,,99,,,,,,,Space,keypress(Space),,,,,,,,---- -- ----- -- ------ - ------- --- ----------<br>------------- ------ ------ ---- ---- ------- ----- -- ----<br>-------- ------- is ---------- --- - --- ----- ----- ----<br>---- --- --- ----- --- ---- ---- ------- ----- ---- -------<br>--- --- -- ----- -- --- ---- -- --- ---- -- ------ ------<br>--- ----- -- ----,106082,106081.30000007153,106052.832,106051.80000007153,106069.525,106102.887,,20,is
screen,html.Screen,2_1_0_1_21,2022-03-19T20:18:46.854Z,,,,,,,,,,,,,,,,,53,,,,,,,,,,,,,,8.913000071523129,,response,,,,99,,,,,,,Space,keypress(Space),,,,,,,,---- -- ----- -- ------ - ------- --- ----------<br>------------- ------ ------ ---- ---- ------- ----- -- ----<br>-------- ------- -- paramount. --- - --- ----- ----- ----<br>---- --- --- ----- --- ---- ---- ------- ----- ---- -------<br>--- --- -- ----- -- --- ---- -- --- ---- -- ------ ------<br>--- ----- -- ----,106112.5,106111.80000007153,106086.167,106082.20000004768,106102.887,106136.244,,21,paramount.
screen,html.Screen,2_1_0_1_22,2022-03-19T20:18:46.901Z,,,,,,,,,,,,,,,,,53,,,,,,,,,,,,,,22.456000047677662,,response,,,,99,,,,,,,Space,keypress(Space),,,,,,,,---- -- ----- -- ------ - ------- --- ----------<br>------------- ------ ------ ---- ---- ------- ----- -- ----<br>-------- ------- -- ---------- But - --- ----- ----- ----<br>---- --- --- ----- --- ---- ---- ------- ----- ---- -------<br>--- --- -- ----- -- --- ---- -- --- ---- -- ------ ------<br>--- ----- -- ----,106159.30000007153,106158.70000004768,106119.525,106112.80000007153,106136.244,106169.594,,22,But
screen,html.Screen,2_1_0_1_23,2022-03-19T20:18:46.932Z,,,,,,,,,,,,,,,,,53,,,,,,,,,,,,,,19.906000000002678,,response,,,,99,,,,,,,Space,keypress(Space),,,,,,,,---- -- ----- -- ------ - ------- --- ----------<br>------------- ------ ------ ---- ---- ------- ----- -- ----<br>-------- ------- -- ---------- --- a --- ----- ----- ----<br>---- --- --- ----- --- ---- ---- ------- ----- ---- -------<br>--- --- -- ----- -- --- ---- -- --- ---- -- ------ ------<br>--- ----- -- ----,106190.10000002384,106189.5,106152.88,106159.60000002384,106169.594,106202.977,,23,a
screen,html.Screen,2_1_0_1_24,2022-03-19T20:18:46.963Z,,,,,,,,,,,,,,,,,53,,,,,,,,,,,,,,18.32300007152662,,response,,,,99,,,,,,,Space,keypress(Space),,,,,,,,---- -- ----- -- ------ - ------- --- ----------<br>------------- ------ ------ ---- ---- ------- ----- -- ----<br>-------- ------- -- ---------- --- - new ----- ----- ----<br>---- --- --- ----- --- ---- ---- ------- ----- ---- -------<br>--- --- -- ----- -- --- ---- -- --- ---- -- ------ ------<br>--- ----- -- ----,106221.90000009537,106221.30000007153,106186.246,106190.40000009537,106202.977,106236.329,,24,new
screen,html.Screen,2_1_0_1_25,2022-03-19T20:18:46.993Z,,,,,,,,,,,,,,,,,53,,,,,,,,,,,,,,14.97100007152767,,response,,,,99,,,,,,,Space,keypress(Space),,,,,,,,---- -- ----- -- ------ - ------- --- ----------<br>------------- ------ ------ ---- ---- ------- ----- -- ----<br>-------- ------- -- ---------- --- - --- study ----- ----<br>---- --- --- ----- --- ---- ---- ------- ----- ---- -------<br>--- --- -- ----- -- --- ---- -- --- ---- -- ------ ------<br>--- ----- -- ----,106251.90000009537,106251.30000007153,106219.608,106222.10000002384,106236.329,106269.688,,25,study
screen,html.Screen,2_1_0_1_26,2022-03-19T20:18:47.025Z,,,,,,,,,,,,,,,,,53,,,,,,,,,,,,,,13.512000047689071,,response,,,,99,,,,,,,Space,keypress(Space),,,,,,,,---- -- ----- -- ------ - ------- --- ----------<br>------------- ------ ------ ---- ---- ------- ----- -- ----<br>-------- ------- -- ---------- --- - --- ----- finds ----<br>---- --- --- ----- --- ---- ---- ------- ----- ---- -------<br>--- --- -- ----- -- --- ---- -- --- ---- -- ------ ------<br>--- ----- -- ----,106283.80000007153,106283.20000004768,106252.97,106252.10000002384,106269.688,106303.048,,26,finds
screen,html.Screen,2_1_0_1_27,2022-03-19T20:18:47.055Z,,,,,,,,,,,,,,,,,53,,,,,,,,,,,,,,9.852000095372205,,response,,,,99,,,,,,,Space,keypress(Space),,,,,,,,---- -- ----- -- ------ - ------- --- ----------<br>------------- ------ ------ ---- ---- ------- ----- -- ----<br>-------- ------- -- ---------- --- - --- ----- ----- that<br>---- --- --- ----- --- ---- ---- ------- ----- ---- -------<br>--- --- -- ----- -- --- ---- -- --- ---- -- ------ ------<br>--- ----- -- ----,106313.60000002384,106312.90000009537,106286.344,106284,106303.048,106336.407,,27,that
screen,html.Screen,2_1_0_1_28,2022-03-19T20:18:47.087Z,,,,,,,,,,,,,,,,,53,,,,,,,,,,,,,,8.493000095360912,,response,,,,99,,,,,,,Space,keypress(Space),,,,,,,,---- -- ----- -- ------ - ------- --- ----------<br>------------- ------ ------ ---- ---- ------- ----- -- ----<br>-------- ------- -- ---------- --- - --- ----- ----- ----<br>it's --- --- ----- --- ---- ---- ------- ----- ---- -------<br>--- --- -- ----- -- --- ---- -- --- ---- -- ------ ------<br>--- ----- -- ----,106345.40000009537,106344.90000009537,106319.694,106313.70000004768,106336.407,106369.768,,28,it's
screen,html.Screen,2_1_0_1_29,2022-03-19T20:18:47.133Z,,,,,,,,,,,,,,,,,53,,,,,,,,,,,,,,20.73200000000361,,response,,,,99,,,,,,,Space,keypress(Space),,,,,,,,---- -- ----- -- ------ - ------- --- ----------<br>------------- ------ ------ ---- ---- ------- ----- -- ----<br>-------- ------- -- ---------- --- - --- ----- ----- ----<br>---- not --- ----- --- ---- ---- ------- ----- ---- -------<br>--- --- -- ----- -- --- ---- -- --- ---- -- ------ ------<br>--- ----- -- ----,106391.20000004768,106390.5,106353.002,106345.60000002384,106369.768,106403.069,,29,not
screen,html.Screen,2_1_0_1_30,2022-03-19T20:18:47.164Z,,,,,,,,,,,,,,,,,53,,,,,,,,,,,,,,18.930999999996857,,response,,,,99,,,,,,,Space,keypress(Space),,,,,,,,---- -- ----- -- ------ - ------- --- ----------<br>------------- ------ ------ ---- ---- ------- ----- -- ----<br>-------- ------- -- ---------- --- - --- ----- ----- ----<br>---- --- how ----- --- ---- ---- ------- ----- ---- -------<br>--- --- -- ----- -- --- ---- -- --- ---- -- ------ ------<br>--- ----- -- ----,106422.60000002384,106422,106386.414,106391.40000009537,106403.069,106436.473,,30,how
screen,html.Screen,2_1_0_1_31,2022-03-19T20:18:47.196Z,,,,,,,,,,,,,,,,,53,,,,,,,,,,,,,,17.72700004768558,,response,,,,99,,,,,,,Space,keypress(Space),,,,,,,,---- -- ----- -- ------ - ------- --- ----------<br>------------- ------ ------ ---- ---- ------- ----- -- ----<br>-------- ------- -- ---------- --- - --- ----- ----- ----<br>---- --- --- close --- ---- ---- ------- ----- ---- -------<br>--- --- -- ----- -- --- ---- -- --- ---- -- ------ ------<br>--- ----- -- ----,106454.90000009537,106454.20000004768,106419.764,106424.30000007153,106436.473,106469.834,,31,close
screen,html.Screen,2_1_0_1_32,2022-03-19T20:18:47.227Z,,,,,,,,,,,,,,,,,53,,,,,,,,,,,,,,14.966000071523013,,response,,,,99,,,,,,,Space,keypress(Space),,,,,,,,---- -- ----- -- ------ - ------- --- ----------<br>------------- ------ ------ ---- ---- ------- ----- -- ----<br>-------- ------- -- ---------- --- - --- ----- ----- ----<br>---- --- --- ----- you ---- ---- ------- ----- ---- -------<br>--- --- -- ----- -- --- ---- -- --- ---- -- ------ ------<br>--- ----- -- ----,106485.5,106484.80000007153,106453.126,106455.10000002384,106469.834,106503.214,,32,you
screen,html.Screen,2_1_0_1_33,2022-03-19T20:18:47.258Z,,,,,,,,,,,,,,,,,53,,,,,,,,,,,,,,12.186000095360214,,response,,,,99,,,,,,,Space,keypress(Space),,,,,,,,---- -- ----- -- ------ - ------- --- ----------<br>------------- ------ ------ ---- ---- ------- ----- -- ----<br>-------- ------- -- ---------- --- - --- ----- ----- ----<br>---- --- --- ----- --- feel ---- ------- ----- ---- -------<br>--- --- -- ----- -- --- ---- -- --- ---- -- ------ ------<br>--- ----- -- ----,106516.10000002384,106515.40000009537,106486.485,106485.60000002384,106503.214,106536.581,,33,feel
screen,html.Screen,2_1_0_1_34,2022-03-19T20:18:47.289Z,,,,,,,,,,,,,,,,,53,,,,,,,,,,,,,,10.119000047678128,,response,,,,99,,,,,,,Space,keypress(Space),,,,,,,,---- -- ----- -- ------ - ------- --- ----------<br>------------- ------ ------ ---- ---- ------- ----- -- ----<br>-------- ------- -- ---------- --- - --- ----- ----- ----<br>---- --- --- ----- --- ---- that ------- ----- ---- -------<br>--- --- -- ----- -- --- ---- -- --- ---- -- ------ ------<br>--- ----- -- ----,106547.30000007153,106546.70000004768,106519.868,106516.30000007153,106536.581,106569.934,,34,that
screen,html.Screen,2_1_0_1_35,2022-03-19T20:18:47.319Z,,,,,,,,,,,,,,,,,53,,,,,,,,,,,,,,7.266000047689886,,response,,,,99,,,,,,,Space,keypress(Space),,,,,,,,---- -- ----- -- ------ - ------- --- ----------<br>------------- ------ ------ ---- ---- ------- ----- -- ----<br>-------- ------- -- ---------- --- - --- ----- ----- ----<br>---- --- --- ----- --- ---- ---- matters ----- ---- -------<br>--- --- -- ----- -- --- ---- -- --- ---- -- ------ ------<br>--- ----- -- ----,106577.90000009537,106577.20000004768,106553.164,106547.60000002384,106569.934,106603.288,,35,matters
screen,html.Screen,2_1_0_1_36,2022-03-19T20:18:47.351Z,,,,,,,,,,,,,,,,,53,,,,,,,,,,,,,,5.211999999999534,,response,,,,99,,,,,,,Space,keypress(Space),,,,,,,,"---- -- ----- -- ------ - ------- --- ----------<br>------------- ------ ------ ---- ---- ------- ----- -- ----<br>-------- ------- -- ---------- --- - --- ----- ----- ----<br>---- --- --- ----- --- ---- ---- ------- most, ---- -------<br>--- --- -- ----- -- --- ---- -- --- ---- -- ------ ------<br>--- ----- -- ----",106609.10000002384,106608.5,106586.573,106578,106603.288,106636.653,,36,"most,"
screen,html.Screen,2_1_0_1_37,2022-03-19T20:18:47.382Z,,,,,,,,,,,,,,,,,53,,,,,,,,,,,,,,3.5470000476780115,,response,,,,99,,,,,,,Space,keypress(Space),,,,,,,,---- -- ----- -- ------ - ------- --- ----------<br>------------- ------ ------ ---- ---- ------- ----- -- ----<br>-------- ------- -- ---------- --- - --- ----- ----- ----<br>---- --- --- ----- --- ---- ---- ------- ----- it's -------<br>--- --- -- ----- -- --- ---- -- --- ---- -- ------ ------<br>--- ----- -- ----,106640.90000009537,106640.20000004768,106619.93,106609.20000004768,106636.653,106669.959,,37,it's
screen,html.Screen,2_1_0_1_38,2022-03-19T20:18:47.428Z,,,,,,,,,,,,,,,,,53,,,,,,,,,,,,,,15.841000071523013,,response,,,,99,,,,,,,Space,keypress(Space),,,,,,,,---- -- ----- -- ------ - ------- --- ----------<br>------------- ------ ------ ---- ---- ------- ----- -- ----<br>-------- ------- -- ---------- --- - --- ----- ----- ----<br>---- --- --- ----- --- ---- ---- ------- ----- ---- whether<br>--- --- -- ----- -- --- ---- -- --- ---- -- ------ ------<br>--- ----- -- ----,106686.60000002384,106685.80000007153,106653.291,106641,106669.959,106703.373,,38,whether
screen,html.Screen,2_1_0_1_39,2022-03-19T20:18:47.459Z,,,,,,,,,,,,,,,,,53,,,,,,,,,,,,,,13.427000071518705,,response,,,,99,,,,,,,Space,keypress(Space),,,,,,,,---- -- ----- -- ------ - ------- --- ----------<br>------------- ------ ------ ---- ---- ------- ----- -- ----<br>-------- ------- -- ---------- --- - --- ----- ----- ----<br>---- --- --- ----- --- ---- ---- ------- ----- ---- -------<br>you --- -- ----- -- --- ---- -- --- ---- -- ------ ------<br>--- ----- -- ----,106717.40000009537,106716.80000007153,106686.65,106686.80000007153,106703.373,106736.721,,39,you
screen,html.Screen,2_1_0_1_40,2022-03-19T20:18:47.489Z,,,,,,,,,,,,,,,,,53,,,,,,,,,,,,,,9.879000023836852,,response,,,,99,,,,,,,Space,keypress(Space),,,,,,,,---- -- ----- -- ------ - ------- --- ----------<br>------------- ------ ------ ---- ---- ------- ----- -- ----<br>-------- ------- -- ---------- --- - --- ----- ----- ----<br>---- --- --- ----- --- ---- ---- ------- ----- ---- -------<br>--- are -- ----- -- --- ---- -- --- ---- -- ------ ------<br>--- ----- -- ----,106747.20000004768,106746.60000002384,106720.011,106717.60000002384,106736.721,106770.084,,40,are
screen,html.Screen,2_1_0_1_41,2022-03-19T20:18:47.520Z,,,,,,,,,,,,,,,,,53,,,,,,,,,,,,,,7.616000047681155,,response,,,,99,,,,,,,Space,keypress(Space),,,,,,,,---- -- ----- -- ------ - ------- --- ----------<br>------------- ------ ------ ---- ---- ------- ----- -- ----<br>-------- ------- -- ---------- --- - --- ----- ----- ----<br>---- --- --- ----- --- ---- ---- ------- ----- ---- -------<br>--- --- as ----- -- --- ---- -- --- ---- -- ------ ------<br>--- ----- -- ----,106778.30000007153,106777.70000004768,106753.37,106747.40000009537,106770.084,106803.447,,41,as
screen,html.Screen,2_1_0_1_42,2022-03-19T20:18:47.550Z,,,,,,,,,,,,,,,,,53,,,,,,,,,,,,,,4.353000071525457,,response,,,,99,,,,,,,Space,keypress(Space),,,,,,,,---- -- ----- -- ------ - ------- --- ----------<br>------------- ------ ------ ---- ---- ------- ----- -- ----<br>-------- ------- -- ---------- --- - --- ----- ----- ----<br>---- --- --- ----- --- ---- ---- ------- ----- ---- -------<br>--- --- -- close -- --- ---- -- --- ---- -- ------ ------<br>--- ----- -- ----,106808.40000009537,106807.80000007153,106786.729,106778.5,106803.447,106836.807,,42,close
screen,html.Screen,2_1_0_1_43,2022-03-19T20:18:47.583Z,,,,,,,,,,,,,,,,,53,,,,,,,,,,,,,,3.593000095366733,,response,,,,99,,,,,,,Space,keypress(Space),,,,,,,,---- -- ----- -- ------ - ------- --- ----------<br>------------- ------ ------ ---- ---- ------- ----- -- ----<br>-------- ------- -- ---------- --- - --- ----- ----- ----<br>---- --- --- ----- --- ---- ---- ------- ----- ---- -------<br>--- --- -- ----- as --- ---- -- --- ---- -- ------ ------<br>--- ----- -- ----,106841,106840.40000009537,106820.091,106808.60000002384,106836.807,106870.168,,43,as
screen,html.Screen,2_1_0_1_44,2022-03-19T20:18:47.628Z,,,,,,,,,,,,,,,,,53,,,,,,,,,,,,,,15.432000023836736,,response,,,,99,,,,,,,Space,keypress(Space),,,,,,,,---- -- ----- -- ------ - ------- --- ----------<br>------------- ------ ------ ---- ---- ------- ----- -- ----<br>-------- ------- -- ---------- --- - --- ----- ----- ----<br>---- --- --- ----- --- ---- ---- ------- ----- ---- -------<br>--- --- -- ----- -- you ---- -- --- ---- -- ------ ------<br>--- ----- -- ----,106886.30000007153,106885.60000002384,106853.447,106841.20000004768,106870.168,106903.532,,44,you
screen,html.Screen,2_1_0_1_45,2022-03-19T20:18:47.658Z,,,,,,,,,,,,,,,,,53,,,,,,,,,,,,,,12.368000095360912,,response,,,,99,,,,,,,Space,keypress(Space),,,,,,,,---- -- ----- -- ------ - ------- --- ----------<br>------------- ------ ------ ---- ---- ------- ----- -- ----<br>-------- ------- -- ---------- --- - --- ----- ----- ----<br>---- --- --- ----- --- ---- ---- ------- ----- ---- -------<br>--- --- -- ----- -- --- want -- --- ---- -- ------ ------<br>--- ----- -- ----,106916.5,106915.90000009537,106886.811,106886.40000009537,106903.532,106936.834,,45,want
screen,html.Screen,2_1_0_1_46,2022-03-19T20:18:47.689Z,,,,,,,,,,,,,,,,,53,,,,,,,,,,,,,,10.266000023839297,,response,,,,99,,,,,,,Space,keypress(Space),,,,,,,,---- -- ----- -- ------ - ------- --- ----------<br>------------- ------ ------ ---- ---- ------- ----- -- ----<br>-------- ------- -- ---------- --- - --- ----- ----- ----<br>---- --- --- ----- --- ---- ---- ------- ----- ---- -------<br>--- --- -- ----- -- --- ---- to --- ---- -- ------ ------<br>--- ----- -- ----,106947.70000004768,106947.10000002384,106920.168,106916.70000004768,106936.834,106970.247,,46,to
screen,html.Screen,2_1_0_1_47,2022-03-19T20:18:47.975Z,,,,,,,,,,,,,,,,,53,,,,,,,,,,,,,,262.252999999997,,response,,,,99,,,,,,,Space,keypress(Space),,,,,,,,"---- -- ----- -- ------ - ------- --- ----------<br>------------- ------ ------ ---- ---- ------- ----- -- ----<br>-------- ------- -- ---------- --- - --- ----- ----- ----<br>---- --- --- ----- --- ---- ---- ------- ----- ---- -------<br>--- --- -- ----- -- --- ---- -- be, ---- -- ------ ------<br>--- ----- -- ----",107233.20000004768,107232.5,106953.527,106947.90000009537,106970.247,107237.093,,47,"be,"
screen,html.Screen,2_1_0_1_48,2022-03-19T20:18:48.223Z,,,,,,,,,,,,,,,,,53,,,,,,,,,,,,,,243.50700002384838,,response,,,,99,,,,,,,Space,keypress(Space),,,,,,,,---- -- ----- -- ------ - ------- --- ----------<br>------------- ------ ------ ---- ---- ------- ----- -- ----<br>-------- ------- -- ---------- --- - --- ----- ----- ----<br>---- --- --- ----- --- ---- ---- ------- ----- ---- -------<br>--- --- -- ----- -- --- ---- -- --- even -- ------ ------<br>--- ----- -- ----,107481.20000004768,107480.60000002384,107220.409,107233.5,107237.093,107487.201,,48,even
screen,html.Screen,2_1_0_1_49,2022-03-19T20:18:48.728Z,,,,,,,,,,,,,,,,,53,,,,,,,,,,,,,,497.9990000476828,,response,,,,99,,,,,,,Space,keypress(Space),,,,,,,,---- -- ----- -- ------ - ------- --- ----------<br>------------- ------ ------ ---- ---- ------- ----- -- ----<br>-------- ------- -- ---------- --- - --- ----- ----- ----<br>---- --- --- ----- --- ---- ---- ------- ----- ---- -------<br>--- --- -- ----- -- --- ---- -- --- ---- if ------ ------<br>--- ----- -- ----,107986.20000004768,107985.20000004768,107470.611,107481.40000009537,107487.201,108015.064,,49,if
screen,html.Screen,2_1_0_1_50,2022-03-19T20:18:48.758Z,,,,,,,,,,,,,,,,,53,,,,,,,,,,,,,,0.7360000715270871,,response,,,,99,,,,,,,Space,keypress(Space),,,,,,,,---- -- ----- -- ------ - ------- --- ----------<br>------------- ------ ------ ---- ---- ------- ----- -- ----<br>-------- ------- -- ---------- --- - --- ----- ----- ----<br>---- --- --- ----- --- ---- ---- ------- ----- ---- -------<br>--- --- -- ----- -- --- ---- -- --- ---- -- that's ------<br>--- ----- -- ----,108016.30000007153,108015.80000007153,107971.017,107986.40000009537,108015.064,108037.778,,50,that's
screen,html.Screen,2_1_0_1_51,2022-03-19T20:18:48.789Z,,,,,,,,,,,,,,,,,53,,,,,,,,,,,,,,9.122000095361727,,response,,,,99,,,,,,,Space,keypress(Space),,,,,,,,---- -- ----- -- ------ - ------- --- ----------<br>------------- ------ ------ ---- ---- ------- ----- -- ----<br>-------- ------- -- ---------- --- - --- ----- ----- ----<br>---- --- --- ----- --- ---- ---- ------- ----- ---- -------<br>--- --- -- ----- -- --- ---- -- --- ---- -- ------ really<br>--- ----- -- ----,108047.5,108046.90000009537,108021.063,108016.5,108037.778,108071.142,,51,really
screen,html.Screen,2_1_0_1_52,2022-03-19T20:18:48.837Z,,,,,,,,,,,,,,,,,53,,,,,,,,,,,,,,23.658000071518472,,response,,,,99,,,,,,,Space,keypress(Space),,,,,,,,---- -- ----- -- ------ - ------- --- ----------<br>------------- ------ ------ ---- ---- ------- ----- -- ----<br>-------- ------- -- ---------- --- - --- ----- ----- ----<br>---- --- --- ----- --- ---- ---- ------- ----- ---- -------<br>--- --- -- ----- -- --- ---- -- --- ---- -- ------ ------<br>not ----- -- ----,108095.40000009537,108094.80000007153,108054.416,108047.70000004768,108071.142,108104.458,,52,not
screen,html.Screen,2_1_0_1_53,2022-03-19T20:18:48.867Z,,,,,,,,,,,,,,,,,53,,,,,,,,,,,,,,20.04200000000128,,response,,,,99,,,,,,,Space,keypress(Space),,,,,,,,---- -- ----- -- ------ - ------- --- ----------<br>------------- ------ ------ ---- ---- ------- ----- -- ----<br>-------- ------- -- ---------- --- - --- ----- ----- ----<br>---- --- --- ----- --- ---- ---- ------- ----- ---- -------<br>--- --- -- ----- -- --- ---- -- --- ---- -- ------ ------<br>--- close -- ----,108125.30000007153,108124.5,108087.791,108095.5,108104.458,108137.865,,53,close
screen,html.Screen,2_1_0_1_54,2022-03-19T20:18:48.899Z,,,,,,,,,,,,,,,,,53,,,,,,,,,,,,,,19.435000071520335,,response,,,,99,,,,,,,Space,keypress(Space),,,,,,,,---- -- ----- -- ------ - ------- --- ----------<br>------------- ------ ------ ---- ---- ------- ----- -- ----<br>-------- ------- -- ---------- --- - --- ----- ----- ----<br>---- --- --- ----- --- ---- ---- ------- ----- ---- -------<br>--- --- -- ----- -- --- ---- -- --- ---- -- ------ ------<br>--- ----- at ----,108157.90000009537,108157.30000007153,108121.139,108125.40000009537,108137.865,108171.18,,54,at
screen,html.Screen,2_1_0_1_55,2022-03-19T20:18:48.930Z,,,,,,,,,,,,,,,,,53,,,,,,,,,,,,,,16.220000095374417,,response,,,,99,,,,,,,Space,keypress(Space),,,,,,,,---- -- ----- -- ------ - ------- --- ----------<br>------------- ------ ------ ---- ---- ------- ----- -- ----<br>-------- ------- -- ---------- --- - --- ----- ----- ----<br>---- --- --- ----- --- ---- ---- ------- ----- ---- -------<br>--- --- -- ----- -- --- ---- -- --- ---- -- ------ ------<br>--- ----- -- all.,108188.10000002384,108187.40000009537,108154.496,108158,108171.18,108204.548,,55,all.
Item 99,flow.Loop,2_1_0_1,2022-03-19T20:18:48.930Z,,,,,,,,,,,,,,,,,,,,,,,,,,,,,,,7388.8940000953735,,completion,,,,,A,,,,,,,,,,,silence,,,,,108188.40000009537,108187.40000009537,100781.881,100782.90000009537,100798.506,108204.548,,,
Question 1,html.Screen,2_1_0_2,2022-03-19T20:18:51.222Z,,,,,,,,,,,,,,,,,,,,,,,,,,,,false,FALSE,,2275.852000095372,,response,,,,99,A,,,,,,TRUE,click #choice-1,,,,silence,,,,,110481.10000002384,110480.40000009537,108187.858,108188.70000004768,108204.548,110489.683,,,
Question 2,html.Screen,2_1_0_3,2022-03-19T20:18:54.822Z,,,,,,,,,,,,,,,,,,,,,,,,,,,,false,TRUE,,3590.717000095363,,response,,,,99,A,,,,,,FALSE,click #choice-2,,,,silence,,,,,114081.20000004768,114080.40000009537,110473.043,110481.20000004768,110489.683,114092.63,,,
Item 99,flow.Sequence,2_1_0,2022-03-19T20:18:54.822Z,,,,,,,,,,,,,,,,,,,,,,,,,,,,,,,23289.97400009536,,completion,,,,,,,,,,,,,,,,,,,,,114081.30000007153,114080.40000009537,90773.795,90786.20000004768,90790.426,114092.63,,,
Holding screen,html.Screen,2_1_1_0,2022-03-19T20:19:04.831Z,,,,,,,,,,,,,,,,,,,,,,,,,,,,,,,10008.088999999993,,timeout,,,,,,,,,,,,,,,,,,,,,124089.80000007153,124084.031,114075.945,114081.40000009537,114092.63,124100.719,,,
screen,html.Screen,2_1_1_1_0,2022-03-19T20:19:05.575Z,,,,,,,,,,,,,,,,,54,,,,,,,,,,,,,,732.5810000715283,,response,,,,100,,,,,,,Space,keypress(Space),,,,,,,,At --- ---- --- ------ ----- ------- ---- -- --- ------- --<br>------- ---------- ------ -- ----- -- ----- -- ---- ------<br>--- ----- --- --- ------ -------- ----- --- ------ ----- --<br>----- ----- ---------- --- --- ------ ------ ---- -- ------<br>------- --- ------ ----- --- ---- ------- -- ---- --- --<br>------- ------,124833.90000009537,124833.30000007153,124084.031,124090.10000002384,124100.719,124858.562,,0,At
screen,html.Screen,2_1_1_1_1,2022-03-19T20:19:05.974Z,,,,,,,,,,,,,,,,,54,,,,,,,,,,,,,,373.93799999999464,,response,,,,100,,,,,,,Space,keypress(Space),,,,,,,,-- the ---- --- ------ ----- ------- ---- -- --- ------- --<br>------- ---------- ------ -- ----- -- ----- -- ---- ------<br>--- ----- --- --- ------ -------- ----- --- ------ ----- --<br>----- ----- ---------- --- --- ------ ------ ---- -- ------<br>------- --- ------ ----- --- ---- ------- -- ---- --- --<br>------- ------,125233.20000004768,125232.5,124817.954,124834.20000004768,124858.562,125234.965,,1,the
screen,html.Screen,2_1_1_1_2,2022-03-19T20:19:06.398Z,,,,,,,,,,,,,,,,,54,,,,,,,,,,,,,,421.5350000000035,,response,,,,100,,,,,,,Space,keypress(Space),,,,,,,,-- --- time --- ------ ----- ------- ---- -- --- ------- --<br>------- ---------- ------ -- ----- -- ----- -- ---- ------<br>--- ----- --- --- ------ -------- ----- --- ------ ----- --<br>----- ----- ---------- --- --- ------ ------ ---- -- ------<br>------- --- ------ ----- --- ---- ------- -- ---- --- --<br>------- ------,125657.30000007153,125656.5,125218.226,125233.5,125234.965,125668.642,,2,time
screen,html.Screen,2_1_1_1_3,2022-03-19T20:19:06.782Z,,,,,,,,,,,,,,,,,54,,,,,,,,,,,,,,371.8579999999929,,response,,,,100,,,,,,,Space,keypress(Space),,,,,,,,-- --- ---- the ------ ----- ------- ---- -- --- ------- --<br>------- ---------- ------ -- ----- -- ----- -- ---- ------<br>--- ----- --- --- ------ -------- ----- --- ------ ----- --<br>----- ----- ---------- --- --- ------ ------ ---- -- ------<br>------- --- ------ ----- --- ---- ------- -- ---- --- --<br>------- ------,126041.20000004768,126040.5,125651.962,125657.5,125668.642,126052.221,,3,the
screen,html.Screen,2_1_1_1_4,2022-03-19T20:19:07.175Z,,,,,,,,,,,,,,,,,54,,,,,,,,,,,,,,380.778999999995,,response,,,,100,,,,,,,Space,keypress(Space),,,,,,,,-- --- ---- --- French ----- ------- ---- -- --- ------- --<br>------- ---------- ------ -- ----- -- ----- -- ---- ------<br>--- ----- --- --- ------ -------- ----- --- ------ ----- --<br>----- ----- ---------- --- --- ------ ------ ---- -- ------<br>------- --- ------ ----- --- ---- ------- -- ---- --- --<br>------- ------,126433.70000004768,126433,126035.616,126041.40000009537,126052.221,126435.985,,4,French
screen,html.Screen,2_1_1_1_5,2022-03-19T20:19:07.590Z,,,,,,,,,,,,,,,,,54,,,,,,,,,,,,,,412.5149999999994,,response,,,,100,,,,,,,Space,keypress(Space),,,,,,,,-- --- ---- --- ------ crown ------- ---- -- --- ------- --<br>------- ---------- ------ -- ----- -- ----- -- ---- ------<br>--- ----- --- --- ------ -------- ----- --- ------ ----- --<br>----- ----- ---------- --- --- ------ ------ ---- -- ------<br>------- --- ------ ----- --- ---- ------- -- ---- --- --<br>------- ------,126849.30000007153,126848.5,126419.248,126433.90000009537,126435.985,126852.937,,5,crown
screen,html.Screen,2_1_1_1_6,2022-03-19T20:19:07.934Z,,,,,,,,,,,,,,,,,54,,,,,,,,,,,,,,339.56299999999464,,response,,,,100,,,,,,,Space,keypress(Space),,,,,,,,-- --- ---- --- ------ ----- secured ---- -- --- ------- --<br>------- ---------- ------ -- ----- -- ----- -- ---- ------<br>--- ----- --- --- ------ -------- ----- --- ------ ----- --<br>----- ----- ---------- --- --- ------ ------ ---- -- ------<br>------- --- ------ ----- --- ---- ------- -- ---- --- --<br>------- ------,127193.10000002384,127192.5,126836.255,126849.5,126852.937,127203.149,,6,secured
screen,html.Screen,2_1_1_1_7,2022-03-19T20:19:08.343Z,,,,,,,,,,,,,,,,,54,,,,,,,,,,,,,,397.45100002383697,,response,,,,100,,,,,,,Space,keypress(Space),,,,,,,,-- --- ---- --- ------ ----- ------- much -- --- ------- --<br>------- ---------- ------ -- ----- -- ----- -- ---- ------<br>--- ----- --- --- ------ -------- ----- --- ------ ----- --<br>----- ----- ---------- --- --- ------ ------ ---- -- ------<br>------- --- ------ ----- --- ---- ------- -- ---- --- --<br>------- ------,127601.30000007153,127600.60000002384,127186.536,127193.40000009537,127203.149,127603.554,,7,much
screen,html.Screen,2_1_1_1_8,2022-03-19T20:19:08.702Z,,,,,,,,,,,,,,,,,54,,,,,,,,,,,,,,357.04600002383813,,response,,,,100,,,,,,,Space,keypress(Space),,,,,,,,-- --- ---- --- ------ ----- ------- ---- of --- ------- --<br>------- ---------- ------ -- ----- -- ----- -- ---- ------<br>--- ----- --- --- ------ -------- ----- --- ------ ----- --<br>----- ----- ---------- --- --- ------ ------ ---- -- ------<br>------- --- ------ ----- --- ---- ------- -- ---- --- --<br>------- ------,127961.30000007153,127960.60000002384,127586.862,127601.5,127603.554,127970.399,,8,of
screen,html.Screen,2_1_1_1_9,2022-03-19T20:19:09.023Z,,,,,,,,,,,,,,,,,54,,,,,,,,,,,,,,310.20100002383697,,response,,,,100,,,,,,,Space,keypress(Space),,,,,,,,-- --- ---- --- ------ ----- ------- ---- -- its ------- --<br>------- ---------- ------ -- ----- -- ----- -- ---- ------<br>--- ----- --- --- ------ -------- ----- --- ------ ----- --<br>----- ----- ---------- --- --- ------ ------ ---- -- ------<br>------- --- ------ ----- --- ---- ------- -- ---- --- --<br>------- ------,128281.30000007153,128280.60000002384,127953.816,127961.5,127970.399,128287.35,,9,its
screen,html.Screen,2_1_1_1_10,2022-03-19T20:19:09.367Z,,,,,,,,,,,,,,,,,54,,,,,,,,,,,,,,338.1499999999942,,response,,,,100,,,,,,,Space,keypress(Space),,,,,,,,-- --- ---- --- ------ ----- ------- ---- -- --- revenue --<br>------- ---------- ------ -- ----- -- ----- -- ---- ------<br>--- ----- --- --- ------ -------- ----- --- ------ ----- --<br>----- ----- ---------- --- --- ------ ------ ---- -- ------<br>------- --- ------ ----- --- ---- ------- -- ---- --- --<br>------- ------,128626.30000007153,128625.5,128270.728,128281.5,128287.35,128637.633,,10,revenue
screen,html.Screen,2_1_1_1_11,2022-03-19T20:19:09.711Z,,,,,,,,,,,,,,,,,54,,,,,,,,,,,,,,330.9670000238402,,response,,,,100,,,,,,,Space,keypress(Space),,,,,,,,-- --- ---- --- ------ ----- ------- ---- -- --- ------- by<br>------- ---------- ------ -- ----- -- ----- -- ---- ------<br>--- ----- --- --- ------ -------- ----- --- ------ ----- --<br>----- ----- ---------- --- --- ------ ------ ---- -- ------<br>------- --- ------ ----- --- ---- ------- -- ---- --- --<br>------- ------,128969.40000009537,128968.60000002384,128621.027,128626.5,128637.633,128971.319,,11,by
screen,html.Screen,2_1_1_1_12,2022-03-19T20:19:10.086Z,,,,,,,,,,,,,,,,,54,,,,,,,,,,,,,,373.18099999999686,,response,,,,100,,,,,,,Space,keypress(Space),,,,,,,,-- --- ---- --- ------ ----- ------- ---- -- --- ------- --<br>issuing ---------- ------ -- ----- -- ----- -- ---- ------<br>--- ----- --- --- ------ -------- ----- --- ------ ----- --<br>----- ----- ---------- --- --- ------ ------ ---- -- ------<br>------- --- ------ ----- --- ---- ------- -- ---- --- --<br>------- ------,129345.20000004768,129344.5,128954.597,128969.70000004768,128971.319,129354.946,,12,issuing
screen,html.Screen,2_1_1_1_13,2022-03-19T20:19:10.510Z,,,,,,,,,,,,,,,,,54,,,,,,,,,,,,,,413.6540000238456,,response,,,,100,,,,,,,Space,keypress(Space),,,,,,,,-- --- ---- --- ------ ----- ------- ---- -- --- ------- --<br>------- government ------ -- ----- -- ----- -- ---- ------<br>--- ----- --- --- ------ -------- ----- --- ------ ----- --<br>----- ----- ---------- --- --- ------ ------ ---- -- ------<br>------- --- ------ ----- --- ---- ------- -- ---- --- --<br>------- ------,129769.20000004768,129768.60000002384,129338.276,129345.5,129354.946,129771.945,,13,government
screen,html.Screen,2_1_1_1_14,2022-03-19T20:19:10.919Z,,,,,,,,,,,,,,,,,54,,,,,,,,,,,,,,404.554999999993,,response,,,,100,,,,,,,Space,keypress(Space),,,,,,,,-- --- ---- --- ------ ----- ------- ---- -- --- ------- --<br>------- ---------- bonds. -- ----- -- ----- -- ---- ------<br>--- ----- --- --- ------ -------- ----- --- ------ ----- --<br>----- ----- ---------- --- --- ------ ------ ---- -- ------<br>------- --- ------ ----- --- ---- ------- -- ---- --- --<br>------- ------,130177.30000007153,130176.5,129755.281,129769.40000009537,129771.945,130188.969,,14,bonds.
screen,html.Screen,2_1_1_1_15,2022-03-19T20:19:11.303Z,,,,,,,,,,,,,,,,,54,,,,,,,,,,,,,,371.63100002384454,,response,,,,100,,,,,,,Space,keypress(Space),,,,,,,,-- --- ---- --- ------ ----- ------- ---- -- --- ------- --<br>------- ---------- ------ In ----- -- ----- -- ---- ------<br>--- ----- --- --- ------ -------- ----- --- ------ ----- --<br>----- ----- ---------- --- --- ------ ------ ---- -- ------<br>------- --- ------ ----- --- ---- ------- -- ---- --- --<br>------- ------,130561.30000007153,130560.60000002384,130172.282,130177.5,130188.969,130572.524,,15,In
screen,html.Screen,2_1_1_1_16,2022-03-19T20:19:11.702Z,,,,,,,,,,,,,,,,,54,,,,,,,,,,,,,,388.07600002383697,,response,,,,100,,,,,,,Space,keypress(Space),,,,,,,,"-- --- ---- --- ------ ----- ------- ---- -- --- ------- --<br>------- ---------- ------ -- 1727, -- ----- -- ---- ------<br>--- ----- --- --- ------ -------- ----- --- ------ ----- --<br>----- ----- ---------- --- --- ------ ------ ---- -- ------<br>------- --- ------ ----- --- ---- ------- -- ---- --- --<br>------- ------",130961.20000004768,130960.60000002384,130555.925,130561.5,130572.524,130972.918,,16,"1727,"
screen,html.Screen,2_1_1_1_17,2022-03-19T20:19:12.070Z,,,,,,,,,,,,,,,,,54,,,,,,,,,,,,,,355.5819999999949,,response,,,,100,,,,,,,Space,keypress(Space),,,,,,,,-- --- ---- --- ------ ----- ------- ---- -- --- ------- --<br>------- ---------- ------ -- ----- in ----- -- ---- ------<br>--- ----- --- --- ------ -------- ----- --- ------ ----- --<br>----- ----- ---------- --- --- ------ ------ ---- -- ------<br>------- --- ------ ----- --- ---- ------- -- ---- --- --<br>------- ------,131329.20000004768,131328.5,130956.249,130961.5,130972.918,131339.9,,17,in
screen,html.Screen,2_1_1_1_18,2022-03-19T20:19:12.382Z,,,,,,,,,,,,,,,,,54,,,,,,,,,,,,,,300.6000000000058,,response,,,,100,,,,,,,Space,keypress(Space),,,,,,,,-- --- ---- --- ------ ----- ------- ---- -- --- ------- --<br>------- ---------- ------ -- ----- -- order -- ---- ------<br>--- ----- --- --- ------ -------- ----- --- ------ ----- --<br>----- ----- ---------- --- --- ------ ------ ---- -- ------<br>------- --- ------ ----- --- ---- ------- -- ---- --- --<br>------- ------,131641.30000007153,131640.5,131323.211,131329.40000009537,131339.9,131656.864,,18,order
screen,html.Screen,2_1_1_1_19,2022-03-19T20:19:12.718Z,,,,,,,,,,,,,,,,,54,,,,,,,,,,,,,,319.6359999999986,,response,,,,100,,,,,,,Space,keypress(Space),,,,,,,,-- --- ---- --- ------ ----- ------- ---- -- --- ------- --<br>------- ---------- ------ -- ----- -- ----- to ---- ------<br>--- ----- --- --- ------ -------- ----- --- ------ ----- --<br>----- ----- ---------- --- --- ------ ------ ---- -- ------<br>------- --- ------ ----- --- ---- ------- -- ---- --- --<br>------- ------,131977.20000004768,131976.5,131640.134,131641.5,131656.864,132007.099,,19,to
screen,html.Screen,2_1_1_1_20,2022-03-19T20:19:12.982Z,,,,,,,,,,,,,,,,,54,,,,,,,,,,,,,,233.50100002385443,,response,,,,100,,,,,,,Space,keypress(Space),,,,,,,,-- --- ---- --- ------ ----- ------- ---- -- --- ------- --<br>------- ---------- ------ -- ----- -- ----- -- save ------<br>--- ----- --- --- ------ -------- ----- --- ------ ----- --<br>----- ----- ---------- --- --- ------ ------ ---- -- ------<br>------- --- ------ ----- --- ---- ------- -- ---- --- --<br>------- ------,132241.30000007153,132240.60000002384,132001.008,131977.40000009537,132007.099,132257.341,,20,save
screen,html.Screen,2_1_1_1_21,2022-03-19T20:19:13.488Z,,,,,,,,,,,,,,,,,54,,,,,,,,,,,,,,488.8590000476979,,response,,,,100,,,,,,,Space,keypress(Space),,,,,,,,"-- --- ---- --- ------ ----- ------- ---- -- --- ------- --<br>------- ---------- ------ -- ----- -- ----- -- ---- money,<br>--- ----- --- --- ------ -------- ----- --- ------ ----- --<br>----- ----- ---------- --- --- ------ ------ ---- -- ------<br>------- --- ------ ----- --- ---- ------- -- ---- --- --<br>------- ------",132747.10000002384,132746.20000004768,132240.625,132241.5,132257.341,132757.703,,21,"money,"
screen,html.Screen,2_1_1_1_22,2022-03-19T20:19:13.519Z,,,,,,,,,,,,,,,,,54,,,,,,,,,,,,,,19.197000095358817,,response,,,,100,,,,,,,Space,keypress(Space),,,,,,,,-- --- ---- --- ------ ----- ------- ---- -- --- ------- --<br>------- ---------- ------ -- ----- -- ----- -- ---- ------<br>the ----- --- --- ------ -------- ----- --- ------ ----- --<br>----- ----- ---------- --- --- ------ ------ ---- -- ------<br>------- --- ------ ----- --- ---- ------- -- ---- --- --<br>------- ------,132777.5,132776.90000009537,132741.021,132747.30000007153,132757.703,132791.115,,22,the
screen,html.Screen,2_1_1_1_23,2022-03-19T20:19:13.551Z,,,,,,,,,,,,,,,,,54,,,,,,,,,,,,,,18.385000000009313,,response,,,,100,,,,,,,Space,keypress(Space),,,,,,,,-- --- ---- --- ------ ----- ------- ---- -- --- ------- --<br>------- ---------- ------ -- ----- -- ----- -- ---- ------<br>--- state --- --- ------ -------- ----- --- ------ ----- --<br>----- ----- ---------- --- --- ------ ------ ---- -- ------<br>------- --- ------ ----- --- ---- ------- -- ---- --- --<br>------- ------,132810.20000004768,132809.5,132774.383,132777.70000004768,132791.115,132824.47,,23,state
screen,html.Screen,2_1_1_1_24,2022-03-19T20:19:13.582Z,,,,,,,,,,,,,,,,,54,,,,,,,,,,,,,,15.630000023840694,,response,,,,100,,,,,,,Space,keypress(Space),,,,,,,,-- --- ---- --- ------ ----- ------- ---- -- --- ------- --<br>------- ---------- ------ -- ----- -- ----- -- ---- ------<br>--- ----- cut --- ------ -------- ----- --- ------ ----- --<br>----- ----- ---------- --- --- ------ ------ ---- -- ------<br>------- --- ------ ----- --- ---- ------- -- ---- --- --<br>------- ------,132840.60000002384,132840.10000002384,132807.746,132810.40000009537,132824.47,132857.829,,24,cut
screen,html.Screen,2_1_1_1_25,2022-03-19T20:19:13.628Z,,,,,,,,,,,,,,,,,54,,,,,,,,,,,,,,28.47100007152767,,response,,,,100,,,,,,,Space,keypress(Space),,,,,,,,-- --- ---- --- ------ ----- ------- ---- -- --- ------- --<br>------- ---------- ------ -- ----- -- ----- -- ---- ------<br>--- ----- --- the ------ -------- ----- --- ------ ----- --<br>----- ----- ---------- --- --- ------ ------ ---- -- ------<br>------- --- ------ ----- --- ---- ------- -- ---- --- --<br>------- ------,132887,132886.30000007153,132841.004,132840.80000007153,132857.829,132891.155,,25,the
screen,html.Screen,2_1_1_1_26,2022-03-19T20:19:13.659Z,,,,,,,,,,,,,,,,,54,,,,,,,,,,,,,,25.645000071526738,,response,,,,100,,,,,,,Space,keypress(Space),,,,,,,,-- --- ---- --- ------ ----- ------- ---- -- --- ------- --<br>------- ---------- ------ -- ----- -- ----- -- ---- ------<br>--- ----- --- --- bonds' -------- ----- --- ------ ----- --<br>----- ----- ---------- --- --- ------ ------ ---- -- ------<br>------- --- ------ ----- --- ---- ------- -- ---- --- --<br>------- ------,132917.5,132916.80000007153,132874.469,132887.20000004768,132891.155,132924.483,,26,bonds'
screen,html.Screen,2_1_1_1_27,2022-03-19T20:19:13.689Z,,,,,,,,,,,,,,,,,54,,,,,,,,,,,,,,22.91700009535998,,response,,,,100,,,,,,,Space,keypress(Space),,,,,,,,-- --- ---- --- ------ ----- ------- ---- -- --- ------- --<br>------- ---------- ------ -- ----- -- ----- -- ---- ------<br>--- ----- --- --- ------ interest ----- --- ------ ----- --<br>----- ----- ---------- --- --- ------ ------ ---- -- ------<br>------- --- ------ ----- --- ---- ------- -- ---- --- --<br>------- ------,132948,132947.40000009537,132907.871,132917.70000004768,132924.483,132957.905,,27,interest
screen,html.Screen,2_1_1_1_28,2022-03-19T20:19:13.720Z,,,,,,,,,,,,,,,,,54,,,,,,,,,,,,,,20.395000071526738,,response,,,,100,,,,,,,Space,keypress(Space),,,,,,,,-- --- ---- --- ------ ----- ------- ---- -- --- ------- --<br>------- ---------- ------ -- ----- -- ----- -- ---- ------<br>--- ----- --- --- ------ -------- rate. --- ------ ----- --<br>----- ----- ---------- --- --- ------ ------ ---- -- ------<br>------- --- ------ ----- --- ---- ------- -- ---- --- --<br>------- ------,132978.90000009537,132978.30000007153,132941.189,132948.20000004768,132957.905,132991.256,,28,rate.
screen,html.Screen,2_1_1_1_29,2022-03-19T20:19:13.752Z,,,,,,,,,,,,,,,,,54,,,,,,,,,,,,,,19.244000000006054,,response,,,,100,,,,,,,Space,keypress(Space),,,,,,,,-- --- ---- --- ------ ----- ------- ---- -- --- ------- --<br>------- ---------- ------ -- ----- -- ----- -- ---- ------<br>--- ----- --- --- ------ -------- ----- The ------ ----- --<br>----- ----- ---------- --- --- ------ ------ ---- -- ------<br>------- --- ------ ----- --- ---- ------- -- ---- --- --<br>------- ------,133011.20000004768,133010.5,132974.552,132979.20000004768,132991.256,133024.629,,29,The
screen,html.Screen,2_1_1_1_30,2022-03-19T20:19:13.784Z,,,,,,,,,,,,,,,,,54,,,,,,,,,,,,,,17.971000023855595,,response,,,,100,,,,,,,Space,keypress(Space),,,,,,,,-- --- ---- --- ------ ----- ------- ---- -- --- ------- --<br>------- ---------- ------ -- ----- -- ----- -- ---- ------<br>--- ----- --- --- ------ -------- ----- --- market ----- --<br>----- ----- ---------- --- --- ------ ------ ---- -- ------<br>------- --- ------ ----- --- ---- ------- -- ---- --- --<br>------- ------,133043.10000002384,133042.60000002384,133007.906,133011.40000009537,133024.629,133057.988,,30,market
screen,html.Screen,2_1_1_1_31,2022-03-19T20:19:13.815Z,,,,,,,,,,,,,,,,,54,,,,,,,,,,,,,,15.011999999987893,,response,,,,100,,,,,,,Space,keypress(Space),,,,,,,,-- --- ---- --- ------ ----- ------- ---- -- --- ------- --<br>------- ---------- ------ -- ----- -- ----- -- ---- ------<br>--- ----- --- --- ------ -------- ----- --- ------ value --<br>----- ----- ---------- --- --- ------ ------ ---- -- ------<br>------- --- ------ ----- --- ---- ------- -- ---- --- --<br>------- ------,133073.60000002384,133073,133041.282,133043.30000007153,133057.988,133091.349,,31,value
screen,html.Screen,2_1_1_1_32,2022-03-19T20:19:13.846Z,,,,,,,,,,,,,,,,,54,,,,,,,,,,,,,,12.951000071538147,,response,,,,100,,,,,,,Space,keypress(Space),,,,,,,,-- --- ---- --- ------ ----- ------- ---- -- --- ------- --<br>------- ---------- ------ -- ----- -- ----- -- ---- ------<br>--- ----- --- --- ------ -------- ----- --- ------ ----- of<br>----- ----- ---------- --- --- ------ ------ ---- -- ------<br>------- --- ------ ----- --- ---- ------- -- ---- --- --<br>------- ------,133104.90000009537,133104.30000007153,133074.628,133073.80000007153,133091.349,133124.698,,32,of
screen,html.Screen,2_1_1_1_33,2022-03-19T20:19:13.893Z,,,,,,,,,,,,,,,,,54,,,,,,,,,,,,,,26.002000047679758,,response,,,,100,,,,,,,Space,keypress(Space),,,,,,,,-- --- ---- --- ------ ----- ------- ---- -- --- ------- --<br>------- ---------- ------ -- ----- -- ----- -- ---- ------<br>--- ----- --- --- ------ -------- ----- --- ------ ----- --<br>these ----- ---------- --- --- ------ ------ ---- -- ------<br>------- --- ------ ----- --- ---- ------- -- ---- --- --<br>------- ------,133151.30000007153,133150.70000004768,133107.988,133105.10000002384,133124.698,133157.939,,33,these
screen,html.Screen,2_1_1_1_34,2022-03-19T20:19:13.923Z,,,,,,,,,,,,,,,,,54,,,,,,,,,,,,,,23.761000047670677,,response,,,,100,,,,,,,Space,keypress(Space),,,,,,,,-- --- ---- --- ------ ----- ------- ---- -- --- ------- --<br>------- ---------- ------ -- ----- -- ----- -- ---- ------<br>--- ----- --- --- ------ -------- ----- --- ------ ----- --<br>----- bonds ---------- --- --- ------ ------ ---- -- ------<br>------- --- ------ ----- --- ---- ------- -- ---- --- --<br>------- ------,133182.30000007153,133181.70000004768,133141.346,133151.5,133157.939,133191.372,,34,bonds
screen,html.Screen,2_1_1_1_35,2022-03-19T20:19:13.954Z,,,,,,,,,,,,,,,,,54,,,,,,,,,,,,,,20.82800004768069,,response,,,,100,,,,,,,Space,keypress(Space),,,,,,,,"-- --- ---- --- ------ ----- ------- ---- -- --- ------- --<br>------- ---------- ------ -- ----- -- ----- -- ---- ------<br>--- ----- --- --- ------ -------- ----- --- ------ ----- --<br>----- ----- plummeted, --- --- ------ ------ ---- -- ------<br>------- --- ------ ----- --- ---- ------- -- ---- --- --<br>------- ------",133212.80000007153,133212.20000004768,133174.721,133182.40000009537,133191.372,133224.793,,35,"plummeted,"
screen,html.Screen,2_1_1_1_36,2022-03-19T20:19:13.986Z,,,,,,,,,,,,,,,,,54,,,,,,,,,,,,,,19.10700009536231,,response,,,,100,,,,,,,Space,keypress(Space),,,,,,,,-- --- ---- --- ------ ----- ------- ---- -- --- ------- --<br>------- ---------- ------ -- ----- -- ----- -- ---- ------<br>--- ----- --- --- ------ -------- ----- --- ------ ----- --<br>----- ----- ---------- and --- ------ ------ ---- -- ------<br>------- --- ------ ----- --- ---- ------- -- ---- --- --<br>------- ------,133244.5,133243.90000009537,133208.075,133212.90000009537,133224.793,133258.153,,36,and
screen,html.Screen,2_1_1_1_37,2022-03-19T20:19:14.017Z,,,,,,,,,,,,,,,,,54,,,,,,,,,,,,,,17.347000000008848,,response,,,,100,,,,,,,Space,keypress(Space),,,,,,,,-- --- ---- --- ------ ----- ------- ---- -- --- ------- --<br>------- ---------- ------ -- ----- -- ----- -- ---- ------<br>--- ----- --- --- ------ -------- ----- --- ------ ----- --<br>----- ----- ---------- --- the ------ ------ ---- -- ------<br>------- --- ------ ----- --- ---- ------- -- ---- --- --<br>------- ------,133276.10000002384,133275.5,133241.433,133244.70000004768,133258.153,133291.519,,37,the
screen,html.Screen,2_1_1_1_38,2022-03-19T20:19:14.049Z,,,,,,,,,,,,,,,,,54,,,,,,,,,,,,,,16.081000023841625,,response,,,,100,,,,,,,Space,keypress(Space),,,,,,,,-- --- ---- --- ------ ----- ------- ---- -- --- ------- --<br>------- ---------- ------ -- ----- -- ----- -- ---- ------<br>--- ----- --- --- ------ -------- ----- --- ------ ----- --<br>----- ----- ---------- --- --- market ------ ---- -- ------<br>------- --- ------ ----- --- ---- ------- -- ---- --- --<br>------- ------,133308.20000004768,133307.60000002384,133274.756,133276.20000004768,133291.519,133324.825,,38,market
screen,html.Screen,2_1_1_1_39,2022-03-19T20:19:14.080Z,,,,,,,,,,,,,,,,,54,,,,,,,,,,,,,,13.275000023830216,,response,,,,100,,,,,,,Space,keypress(Space),,,,,,,,-- --- ---- --- ------ ----- ------- ---- -- --- ------- --<br>------- ---------- ------ -- ----- -- ----- -- ---- ------<br>--- ----- --- --- ------ -------- ----- --- ------ ----- --<br>----- ----- ---------- --- --- ------ became ---- -- ------<br>------- --- ------ ----- --- ---- ------- -- ---- --- --<br>------- ------,133338.70000004768,133338.10000002384,133308.168,133308.30000007153,133324.825,133358.234,,39,became
screen,html.Screen,2_1_1_1_40,2022-03-19T20:19:14.112Z,,,,,,,,,,,,,,,,,54,,,,,,,,,,,,,,11.966000047686975,,response,,,,100,,,,,,,Space,keypress(Space),,,,,,,,-- --- ---- --- ------ ----- ------- ---- -- --- ------- --<br>------- ---------- ------ -- ----- -- ----- -- ---- ------<br>--- ----- --- --- ------ -------- ----- --- ------ ----- --<br>----- ----- ---------- --- --- ------ ------ wary -- ------<br>------- --- ------ ----- --- ---- ------- -- ---- --- --<br>------- ------,133370.70000004768,133370.20000004768,133341.516,133338.90000009537,133358.234,133391.588,,40,wary
screen,html.Screen,2_1_1_1_41,2022-03-19T20:19:14.143Z,,,,,,,,,,,,,,,,,54,,,,,,,,,,,,,,10.112000047694892,,response,,,,100,,,,,,,Space,keypress(Space),,,,,,,,-- --- ---- --- ------ ----- ------- ---- -- --- ------- --<br>------- ---------- ------ -- ----- -- ----- -- ---- ------<br>--- ----- --- --- ------ -------- ----- --- ------ ----- --<br>----- ----- ---------- --- --- ------ ------ ---- of ------<br>------- --- ------ ----- --- ---- ------- -- ---- --- --<br>------- ------,133402.20000004768,133401.70000004768,133374.872,133370.90000009537,133391.588,133424.955,,41,of
screen,html.Screen,2_1_1_1_42,2022-03-19T20:19:14.190Z,,,,,,,,,,,,,,,,,54,,,,,,,,,,,,,,23.545000000012806,,response,,,,100,,,,,,,Space,keypress(Space),,,,,,,,-- --- ---- --- ------ ----- ------- ---- -- --- ------- --<br>------- ---------- ------ -- ----- -- ----- -- ---- ------<br>--- ----- --- --- ------ -------- ----- --- ------ ----- --<br>----- ----- ---------- --- --- ------ ------ ---- -- French<br>------- --- ------ ----- --- ---- ------- -- ---- --- --<br>------- ------,133449.10000002384,133448.5,133408.231,133402.5,133424.955,133458.349,,42,French
screen,html.Screen,2_1_1_1_43,2022-03-19T20:19:14.222Z,,,,,,,,,,,,,,,,,54,,,,,,,,,,,,,,22.051000095380004,,response,,,,100,,,,,,,Space,keypress(Space),,,,,,,,-- --- ---- --- ------ ----- ------- ---- -- --- ------- --<br>------- ---------- ------ -- ----- -- ----- -- ---- ------<br>--- ----- --- --- ------ -------- ----- --- ------ ----- --<br>----- ----- ---------- --- --- ------ ------ ---- -- ------<br>credit. --- ------ ----- --- ---- ------- -- ---- --- --<br>------- ------,133480.90000009537,133480.40000009537,133441.593,133449.30000007153,133458.349,133491.675,,43,credit.
screen,html.Screen,2_1_1_1_44,2022-03-19T20:19:14.254Z,,,,,,,,,,,,,,,,,54,,,,,,,,,,,,,,20.625000071537215,,response,,,,100,,,,,,,Space,keypress(Space),,,,,,,,-- --- ---- --- ------ ----- ------- ---- -- --- ------- --<br>------- ---------- ------ -- ----- -- ----- -- ---- ------<br>--- ----- --- --- ------ -------- ----- --- ------ ----- --<br>----- ----- ---------- --- --- ------ ------ ---- -- ------<br>------- The ------ ----- --- ---- ------- -- ---- --- --<br>------- ------,133512.80000007153,133512.30000007153,133474.947,133481.10000002384,133491.675,133524.966,,44,The
screen,html.Screen,2_1_1_1_45,2022-03-19T20:19:14.287Z,,,,,,,,,,,,,,,,,54,,,,,,,,,,,,,,20.63400002385606,,response,,,,100,,,,,,,Space,keypress(Space),,,,,,,,-- --- ---- --- ------ ----- ------- ---- -- --- ------- --<br>------- ---------- ------ -- ----- -- ----- -- ---- ------<br>--- ----- --- --- ------ -------- ----- --- ------ ----- --<br>----- ----- ---------- --- --- ------ ------ ---- -- ------<br>------- --- French ----- --- ---- ------- -- ---- --- --<br>------- ------,133546.10000002384,133545.60000002384,133508.313,133513,133524.966,133558.349,,45,French
screen,html.Screen,2_1_1_1_46,2022-03-19T20:19:14.317Z,,,,,,,,,,,,,,,,,54,,,,,,,,,,,,,,16.551000095380004,,response,,,,100,,,,,,,Space,keypress(Space),,,,,,,,-- --- ---- --- ------ ----- ------- ---- -- --- ------- --<br>------- ---------- ------ -- ----- -- ----- -- ---- ------<br>--- ----- --- --- ------ -------- ----- --- ------ ----- --<br>----- ----- ---------- --- --- ------ ------ ---- -- ------<br>------- --- ------ state --- ---- ------- -- ---- --- --<br>------- ------,133575.60000002384,133574.90000009537,133541.67,133546.30000007153,133558.349,133591.753,,46,state
screen,html.Screen,2_1_1_1_47,2022-03-19T20:19:14.349Z,,,,,,,,,,,,,,,,,54,,,,,,,,,,,,,,15.147000095370458,,response,,,,100,,,,,,,Space,keypress(Space),,,,,,,,-- --- ---- --- ------ ----- ------- ---- -- --- ------- --<br>------- ---------- ------ -- ----- -- ----- -- ---- ------<br>--- ----- --- --- ------ -------- ----- --- ------ ----- --<br>----- ----- ---------- --- --- ------ ------ ---- -- ------<br>------- --- ------ ----- was ---- ------- -- ---- --- --<br>------- ------,133607.5,133606.90000009537,133574.985,133575.70000004768,133591.753,133625.117,,47,was
screen,html.Screen,2_1_1_1_48,2022-03-19T20:19:14.380Z,,,,,,,,,,,,,,,,,54,,,,,,,,,,,,,,13.483000023843488,,response,,,,100,,,,,,,Space,keypress(Space),,,,,,,,-- --- ---- --- ------ ----- ------- ---- -- --- ------- --<br>------- ---------- ------ -- ----- -- ----- -- ---- ------<br>--- ----- --- --- ------ -------- ----- --- ------ ----- --<br>----- ----- ---------- --- --- ------ ------ ---- -- ------<br>------- --- ------ ----- --- left ------- -- ---- --- --<br>------- ------,133639.30000007153,133638.60000002384,133608.397,133607.60000002384,133625.117,133658.477,,48,left
screen,html.Screen,2_1_1_1_49,2022-03-19T20:19:14.412Z,,,,,,,,,,,,,,,,,54,,,,,,,,,,,,,,12.123000023828354,,response,,,,100,,,,,,,Space,keypress(Space),,,,,,,,-- --- ---- --- ------ ----- ------- ---- -- --- ------- --<br>------- ---------- ------ -- ----- -- ----- -- ---- ------<br>--- ----- --- --- ------ -------- ----- --- ------ ----- --<br>----- ----- ---------- --- --- ------ ------ ---- -- ------<br>------- --- ------ ----- --- ---- without -- ---- --- --<br>------- ------,133671.20000004768,133670.60000002384,133641.757,133640.80000007153,133658.477,133691.838,,49,without
screen,html.Screen,2_1_1_1_50,2022-03-19T20:19:14.444Z,,,,,,,,,,,,,,,,,54,,,,,,,,,,,,,,10.662000000011176,,response,,,,100,,,,,,,Space,keypress(Space),,,,,,,,-- --- ---- --- ------ ----- ------- ---- -- --- ------- --<br>------- ---------- ------ -- ----- -- ----- -- ---- ------<br>--- ----- --- --- ------ -------- ----- --- ------ ----- --<br>----- ----- ---------- --- --- ------ ------ ---- -- ------<br>------- --- ------ ----- --- ---- ------- an ---- --- --<br>------- ------,133703.30000007153,133702.5,133675.073,133671.40000009537,133691.838,133725.139,,50,an
screen,html.Screen,2_1_1_1_51,2022-03-19T20:19:14.476Z,,,,,,,,,,,,,,,,,54,,,,,,,,,,,,,,9.461000023846282,,response,,,,100,,,,,,,Space,keypress(Space),,,,,,,,-- --- ---- --- ------ ----- ------- ---- -- --- ------- --<br>------- ---------- ------ -- ----- -- ----- -- ---- ------<br>--- ----- --- --- ------ -------- ----- --- ------ ----- --<br>----- ----- ---------- --- --- ------ ------ ---- -- ------<br>------- --- ------ ----- --- ---- ------- -- easy --- --<br>------- ------,133735.30000007153,133734.60000002384,133708.433,133703.5,133725.139,133758.554,,51,easy
screen,html.Screen,2_1_1_1_52,2022-03-19T20:19:14.508Z,,,,,,,,,,,,,,,,,54,,,,,,,,,,,,,,7.445999999996275,,response,,,,100,,,,,,,Space,keypress(Space),,,,,,,,-- --- ---- --- ------ ----- ------- ---- -- --- ------- --<br>------- ---------- ------ -- ----- -- ----- -- ---- ------<br>--- ----- --- --- ------ -------- ----- --- ------ ----- --<br>----- ----- ---------- --- --- ------ ------ ---- -- ------<br>------- --- ------ ----- --- ---- ------- -- ---- way --<br>------- ------,133766.60000002384,133766,133741.85,133735.5,133758.554,133791.921,,52,way
screen,html.Screen,2_1_1_1_53,2022-03-19T20:19:14.540Z,,,,,,,,,,,,,,,,,54,,,,,,,,,,,,,,5.879000071523478,,response,,,,100,,,,,,,Space,keypress(Space),,,,,,,,-- --- ---- --- ------ ----- ------- ---- -- --- ------- --<br>------- ---------- ------ -- ----- -- ----- -- ---- ------<br>--- ----- --- --- ------ -------- ----- --- ------ ----- --<br>----- ----- ---------- --- --- ------ ------ ---- -- ------<br>------- --- ------ ----- --- ---- ------- -- ---- --- of<br>------- ------,133798.5,133797.80000007153,133775.059,133766.90000009537,133791.921,133825.217,,53,of
screen,html.Screen,2_1_1_1_54,2022-03-19T20:19:14.572Z,,,,,,,,,,,,,,,,,54,,,,,,,,,,,,,,4.483000047679525,,response,,,,100,,,,,,,Space,keypress(Space),,,,,,,,-- --- ---- --- ------ ----- ------- ---- -- --- ------- --<br>------- ---------- ------ -- ----- -- ----- -- ---- ------<br>--- ----- --- --- ------ -------- ----- --- ------ ----- --<br>----- ----- ---------- --- --- ------ ------ ---- -- ------<br>------- --- ------ ----- --- ---- ------- -- ---- --- --<br>raising ------,133830.40000009537,133829.70000004768,133808.561,133798.70000004768,133825.217,133858.636,,54,raising
screen,html.Screen,2_1_1_1_55,2022-03-19T20:19:14.620Z,,,,,,,,,,,,,,,,,54,,,,,,,,,,,,,,19.464000023843255,,response,,,,100,,,,,,,Space,keypress(Space),,,,,,,,-- --- ---- --- ------ ----- ------- ---- -- --- ------- --<br>------- ---------- ------ -- ----- -- ----- -- ---- ------<br>--- ----- --- --- ------ -------- ----- --- ------ ----- --<br>----- ----- ---------- --- --- ------ ------ ---- -- ------<br>------- --- ------ ----- --- ---- ------- -- ---- --- --<br>------- money.,133878.60000002384,133878.10000002384,133841.926,133830.60000002384,133858.636,133891.961,,55,money.
Item 100,flow.Loop,2_1_1_1,2022-03-19T20:19:14.620Z,,,,,,,,,,,,,,,,,,,,,,,,,,,,,,,9777.381000023845,,completion,,,,,A,,,,,,,,,,,silence,,,,,133879,133878.10000002384,124084.031,124090,124100.719,133891.961,,,
Question 1,html.Screen,2_1_1_2,2022-03-19T20:19:22.494Z,,,,,,,,,,,,,,,,,,,,,,,,,,,,true,TRUE,,7860.339000071515,,response,,,,100,A,,,,,,TRUE,click #choice-1,,,,silence,,,,,141753,141752.30000007153,133875.268,133879.10000002384,133891.961,141764.805,,,
Question 2,html.Screen,2_1_1_3,2022-03-19T20:19:23.510Z,,,,,,,,,,,,,,,,,,,,,,,,,,,,true,FALSE,,1003.695000000007,,response,,,,100,A,,,,,,FALSE,click #choice-2,,,,silence,,,,,142769.20000004768,142768.5,141748.299,141753,141764.805,142782.451,,,
Item 100,flow.Sequence,2_1_1,2022-03-19T20:19:23.511Z,,,,,,,,,,,,,,,,,,,,,,,,,,,,,,,28675.869999999995,,completion,,,,,,,,,,,,,,,,,,,,,142769.40000009537,142768.5,114075.945,114081.30000007153,114092.63,142782.451,,,
End of Practice,html.Page,2_1_2,2022-03-19T20:19:25.663Z,,,,,,,,,,,,,,,,,,,,,,,,,,,,,,,2138.749000047683,,form submission,,,,,,,,,,,,,,,,,,,,,144921.60000002384,144921.20000004768,142765.78,142769.40000009537,142782.451,144934.184,,,
Practice,flow.Sequence,2_1,2022-03-19T20:19:25.663Z,,,,,,,,,,,,,,,,,,,,,,,,,,,,,,,54130.77400004768,,completion,,,,,,,,,,,,,,,,,,,,,144921.80000007153,144921.20000004768,90773.795,90786,90790.426,144934.184,,,
Trap_instruction,html.Page,2_2_0,2022-03-19T20:19:30.487Z,,,,,,,,,,,,,,,,,,,,,,,,,,,,,,,4811.116000071517,,form submission,,,,,,,,,,,,,,,,,,,,,149745.70000004768,149745.30000007153,144917.524,144921.90000009537,144934.184,149754.75,,,
trap_trial,html.Screen,2_2_1,2022-03-19T20:19:33.702Z,,,,,,,,,,,,,,,,,,,,,,,,,,,,true,1,,3205.75,,response,,,,,,,,,,,1,click #choice-1,,,,,,,,,152961.20000004768,152960.5,149738.086,149745.80000007153,149754.75,152974.036,,,
end of trap trial,html.Page,2_2_2,2022-03-19T20:19:35.247Z,,,,,,,,,,,,,,,,,,,,,,,,,,,,,,,1531.3640000953746,,form submission,,,,,,,,,,,,,,,,,,,,,154505.70000004768,154505.40000009537,152957.355,152961.40000009537,152974.036,154508.549,,,
Trap 1,flow.Sequence,2_2,2022-03-19T20:19:35.247Z,,,,,,,,,,,,,,,,,,,,,,,,,,,,,,,9571.216000095359,,completion,,,,,,,,,,,,,,,,,,,,,154505.90000009537,154505.40000009537,144917.524,144921.80000007153,144934.184,154508.549,,,
Standby,html.Page,2_3_0,2022-03-19T20:19:43.241Z,,,,,,,,,,,,,,,,,,,,,,,,,,,,,,,8006.505999999994,,timeout,,,,,,,,,,,,,,,,,,,,,162499.40000009537,162498.396,154491.926,154506.10000002384,154508.549,162515.055,,,
Holding screen,html.Screen,2_3_1_0_0,2022-03-19T20:19:50.246Z,,,,,,,,,,,,,,,,,,,,,,,,,,,,,,,7005.637000000017,,timeout,,,,,,,,,,,,,,,,,,,,,169504.80000007153,169504.053,162498.396,162499.80000007153,162515.055,169520.692,,,
screen,html.Screen,2_3_1_0_1_0,2022-03-19T20:19:51.888Z,,,,,,,,,,,,,,,,,12,,,,,,,,,,,,,,1625.0080000476737,,response,,,,5,A,,,,,,Space,keypress(Space),,,,silence,,,,Some ------ ------ ------- ------ --- ------- -----------<br>-- ----- --- ---- -- --- ------ ---- - ---- -- ----------<br>-- ------ ---- --- ---- --- --- --- ----- -- -------- ---<br>------ ------- -------- --- ---- -- ------- ------------ --<br>------ -- ---- -- --- ---- -- -------- -- --- ------ ------,171146.60000002384,171145.70000004768,169504.053,169505.20000004768,169520.692,171155.332,,0,Some
screen,html.Screen,2_3_1_0_1_1,2022-03-19T20:19:52.214Z,,,,,,,,,,,,,,,,,12,,,,,,,,,,,,,,317.1680000000051,,response,,,,5,A,,,,,,Space,keypress(Space),,,,silence,,,,---- months ------ ------- ------ --- ------- -----------<br>-- ----- --- ---- -- --- ------ ---- - ---- -- ----------<br>-- ------ ---- --- ---- --- --- --- ----- -- -------- ---<br>------ ------- -------- --- ---- -- ------- ------------ --<br>------ -- ---- -- --- ---- -- -------- -- --- ------ ------,171473.30000007153,171472.5,171138.679,171146.90000009537,171155.332,171489.048,,1,months
screen,html.Screen,2_3_1_0_1_2,2022-03-19T20:19:52.494Z,,,,,,,,,,,,,,,,,12,,,,,,,,,,,,,,263.4519999999902,,response,,,,5,A,,,,,,Space,keypress(Space),,,,silence,,,,"---- ------ later, ------- ------ --- ------- -----------<br>-- ----- --- ---- -- --- ------ ---- - ---- -- ----------<br>-- ------ ---- --- ---- --- --- --- ----- -- -------- ---<br>------ ------- -------- --- ---- -- ------- ------------ --<br>------ -- ---- -- --- ---- -- -------- -- --- ------ ------",171753.30000007153,171752.5,171472.307,171473.5,171489.048,171772.593,,2,"later,"
screen,html.Screen,2_3_1_0_1_3,2022-03-19T20:19:52.807Z,,,,,,,,,,,,,,,,,12,,,,,,,,,,,,,,292.10700004769024,,response,,,,5,A,,,,,,Space,keypress(Space),,,,silence,,,,---- ------ ------ Michael ------ --- ------- -----------<br>-- ----- --- ---- -- --- ------ ---- - ---- -- ----------<br>-- ------ ---- --- ---- --- --- --- ----- -- -------- ---<br>------ ------- -------- --- ---- -- ------- ------------ --<br>------ -- ---- -- --- ---- -- -------- -- --- ------ ------,172065.60000002384,172064.70000004768,171755.89,171753.60000002384,171772.593,172089.512,,3,Michael
screen,html.Screen,2_3_1_0_1_4,2022-03-19T20:19:53.175Z,,,,,,,,,,,,,,,,,12,,,,,,,,,,,,,,343.1880000476958,,response,,,,5,A,,,,,,Space,keypress(Space),,,,silence,,,,---- ------ ------ ------- Larson --- ------- -----------<br>-- ----- --- ---- -- --- ------ ---- - ---- -- ----------<br>-- ------ ---- --- ---- --- --- --- ----- -- -------- ---<br>------ ------- -------- --- ---- -- ------- ------------ --<br>------ -- ---- -- --- ---- -- -------- -- --- ------ ------,172433.5,172432.70000004768,172072.821,172065.70000004768,172089.512,172456.422,,4,Larson
screen,html.Screen,2_3_1_0_1_5,2022-03-19T20:19:53.446Z,,,,,,,,,,,,,,,,,12,,,,,,,,,,,,,,248.07800000000861,,response,,,,5,A,,,,,,Space,keypress(Space),,,,silence,,,,---- ------ ------ ------- ------ saw ------- -----------<br>-- ----- --- ---- -- --- ------ ---- - ---- -- ----------<br>-- ------ ---- --- ---- --- --- --- ----- -- -------- ---<br>------ ------- -------- --- ---- -- ------- ------------ --<br>------ -- ---- -- --- ---- -- -------- -- --- ------ ------,172705.40000009537,172704.5,172439.7,172433.60000002384,172456.422,172723.31,,5,saw
screen,html.Screen,2_3_1_0_1_6,2022-03-19T20:19:53.822Z,,,,,,,,,,,,,,,,,12,,,,,,,,,,,,,,357.1900000000023,,response,,,,5,A,,,,,,Space,keypress(Space),,,,silence,,,,---- ------ ------ ------- ------ --- another -----------<br>-- ----- --- ---- -- --- ------ ---- - ---- -- ----------<br>-- ------ ---- --- ---- --- --- --- ----- -- -------- ---<br>------ ------- -------- --- ---- -- ------- ------------ --<br>------ -- ---- -- --- ---- -- -------- -- --- ------ ------,173081.30000007153,173080.5,172706.635,172705.60000002384,172723.31,173090.219,,6,another
screen,html.Screen,2_3_1_0_1_7,2022-03-19T20:19:54.134Z,,,,,,,,,,,,,,,,,12,,,,,,,,,,,,,,302.38100002383,,response,,,,5,A,,,,,,Space,keypress(Space),,,,silence,,,,---- ------ ------ ------- ------ --- ------- opportunity<br>-- ----- --- ---- -- --- ------ ---- - ---- -- ----------<br>-- ------ ---- --- ---- --- --- --- ----- -- -------- ---<br>------ ------- -------- --- ---- -- ------- ------------ --<br>------ -- ---- -- --- ---- -- -------- -- --- ------ ------,173393.40000009537,173392.60000002384,173073.609,173081.40000009537,173090.219,173407.248,,7,opportunity
screen,html.Screen,2_3_1_0_1_8,2022-03-19T20:19:54.510Z,,,,,,,,,,,,,,,,,12,,,,,,,,,,,,,,361.2520000000077,,response,,,,5,A,,,,,,Space,keypress(Space),,,,silence,,,,---- ------ ------ ------- ------ --- ------- -----------<br>to ----- --- ---- -- --- ------ ---- - ---- -- ----------<br>-- ------ ---- --- ---- --- --- --- ----- -- -------- ---<br>------ ------- -------- --- ---- -- ------- ------------ --<br>------ -- ---- -- --- ---- -- -------- -- --- ------ ------,173769.30000007153,173768.5,173390.535,173393.60000002384,173407.248,173774.069,,8,to
screen,html.Screen,2_3_1_0_1_9,2022-03-19T20:19:54.902Z,,,,,,,,,,,,,,,,,12,,,,,,,,,,,,,,386.4310000000114,,response,,,,5,A,,,,,,Space,keypress(Space),,,,silence,,,,---- ------ ------ ------- ------ --- ------- -----------<br>-- stack --- ---- -- --- ------ ---- - ---- -- ----------<br>-- ------ ---- --- ---- --- --- --- ----- -- -------- ---<br>------ ------- -------- --- ---- -- ------- ------------ --<br>------ -- ---- -- --- ---- -- -------- -- --- ------ ------,174161.20000004768,174160.5,173757.486,173769.40000009537,173774.069,174174.531,,9,stack
screen,html.Screen,2_3_1_0_1_10,2022-03-19T20:19:55.286Z,,,,,,,,,,,,,,,,,12,,,,,,,,,,,,,,370.06900002385373,,response,,,,5,A,,,,,,Space,keypress(Space),,,,silence,,,,---- ------ ------ ------- ------ --- ------- -----------<br>-- ----- the ---- -- --- ------ ---- - ---- -- ----------<br>-- ------ ---- --- ---- --- --- --- ----- -- -------- ---<br>------ ------- -------- --- ---- -- ------- ------------ --<br>------ -- ---- -- --- ---- -- -------- -- --- ------ ------,174545.30000007153,174544.60000002384,174157.806,174161.40000009537,174174.531,174558.141,,10,the
screen,html.Screen,2_3_1_0_1_11,2022-03-19T20:19:55.654Z,,,,,,,,,,,,,,,,,12,,,,,,,,,,,,,,354.35899999999674,,response,,,,5,A,,,,,,Space,keypress(Space),,,,silence,,,,---- ------ ------ ------- ------ --- ------- -----------<br>-- ----- --- odds -- --- ------ ---- - ---- -- ----------<br>-- ------ ---- --- ---- --- --- --- ----- -- -------- ---<br>------ ------- -------- --- ---- -- ------- ------------ --<br>------ -- ---- -- --- ---- -- -------- -- --- ------ ------,174913.30000007153,174912.5,174541.452,174545.60000002384,174558.141,174925.098,,11,odds
screen,html.Screen,2_3_1_0_1_12,2022-03-19T20:19:56.038Z,,,,,,,,,,,,,,,,,12,,,,,,,,,,,,,,371.40200000000186,,response,,,,5,A,,,,,,Space,keypress(Space),,,,silence,,,,---- ------ ------ ------- ------ --- ------- -----------<br>-- ----- --- ---- in --- ------ ---- - ---- -- ----------<br>-- ------ ---- --- ---- --- --- --- ----- -- -------- ---<br>------ ------- -------- --- ---- -- ------- ------------ --<br>------ -- ---- -- --- ---- -- -------- -- --- ------ ------,175297.20000004768,175296.5,174908.417,174913.5,174925.098,175308.733,,12,in
screen,html.Screen,2_3_1_0_1_13,2022-03-19T20:19:56.438Z,,,,,,,,,,,,,,,,,12,,,,,,,,,,,,,,387.8670000238344,,response,,,,5,A,,,,,,Space,keypress(Space),,,,silence,,,,---- ------ ------ ------- ------ --- ------- -----------<br>-- ----- --- ---- -- his ------ ---- - ---- -- ----------<br>-- ------ ---- --- ---- --- --- --- ----- -- -------- ---<br>------ ------- -------- --- ---- -- ------- ------------ --<br>------ -- ---- -- --- ---- -- -------- -- --- ------ ------,175697.20000004768,175696.60000002384,175292.055,175297.40000009537,175308.733,175709.141,,13,his
screen,html.Screen,2_3_1_0_1_14,2022-03-19T20:19:56.790Z,,,,,,,,,,,,,,,,,12,,,,,,,,,,,,,,339.35899999999674,,response,,,,5,A,,,,,,Space,keypress(Space),,,,silence,,,,---- ------ ------ ------- ------ --- ------- -----------<br>-- ----- --- ---- -- --- favour ---- - ---- -- ----------<br>-- ------ ---- --- ---- --- --- --- ----- -- -------- ---<br>------ ------- -------- --- ---- -- ------- ------------ --<br>------ -- ---- -- --- ---- -- -------- -- --- ------ ------,176049.10000002384,176048.5,175692.38,175697.40000009537,175709.141,176059.324,,14,favour
screen,html.Screen,2_3_1_0_1_15,2022-03-19T20:19:57.159Z,,,,,,,,,,,,,,,,,12,,,,,,,,,,,,,,357.67600000000675,,response,,,,5,A,,,,,,Space,keypress(Space),,,,silence,,,,---- ------ ------ ------- ------ --- ------- -----------<br>-- ----- --- ---- -- --- ------ with - ---- -- ----------<br>-- ------ ---- --- ---- --- --- --- ----- -- -------- ---<br>------ ------- -------- --- ---- -- ------- ------------ --<br>------ -- ---- -- --- ---- -- -------- -- --- ------ ------,176417.60000002384,176417,176042.674,176049.40000009537,176059.324,176426.199,,15,with
screen,html.Screen,2_3_1_0_1_16,2022-03-19T20:19:57.510Z,,,,,,,,,,,,,,,,,12,,,,,,,,,,,,,,342.30100000000675,,response,,,,5,A,,,,,,Space,keypress(Space),,,,silence,,,,---- ------ ------ ------- ------ --- ------- -----------<br>-- ----- --- ---- -- --- ------ ---- a ---- -- ----------<br>-- ------ ---- --- ---- --- --- --- ----- -- -------- ---<br>------ ------- -------- --- ---- -- ------- ------------ --<br>------ -- ---- -- --- ---- -- -------- -- --- ------ ------,176769.10000002384,176768.5,176409.617,176417.80000007153,176426.199,176776.466,,16,a
screen,html.Screen,2_3_1_0_1_17,2022-03-19T20:19:57.847Z,,,,,,,,,,,,,,,,,12,,,,,,,,,,,,,,328.2340000476979,,response,,,,5,A,,,,,,Space,keypress(Space),,,,silence,,,,---- ------ ------ ------- ------ --- ------- -----------<br>-- ----- --- ---- -- --- ------ ---- - dash -- ----------<br>-- ------ ---- --- ---- --- --- --- ----- -- -------- ---<br>------ ------- -------- --- ---- -- ------- ------------ --<br>------ -- ---- -- --- ---- -- -------- -- --- ------ ------,177105.40000009537,177104.70000004768,176759.904,176769.30000007153,176776.466,177110.158,,17,dash
screen,html.Screen,2_3_1_0_1_18,2022-03-19T20:19:58.215Z,,,,,,,,,,,,,,,,,12,,,,,,,,,,,,,,362.3420000000042,,response,,,,5,A,,,,,,Space,keypress(Space),,,,silence,,,,---- ------ ------ ------- ------ --- ------- -----------<br>-- ----- --- ---- -- --- ------ ---- - ---- of ----------<br>-- ------ ---- --- ---- --- --- --- ----- -- -------- ---<br>------ ------- -------- --- ---- -- ------- ------------ --<br>------ -- ---- -- --- ---- -- -------- -- --- ------ ------,177473.40000009537,177472.5,177093.488,177105.60000002384,177110.158,177477.17,,18,of
screen,html.Screen,2_3_1_0_1_19,2022-03-19T20:19:58.622Z,,,,,,,,,,,,,,,,,12,,,,,,,,,,,,,,403.43000002382905,,response,,,,5,A,,,,,,Space,keypress(Space),,,,silence,,,,---- ------ ------ ------- ------ --- ------- -----------<br>-- ----- --- ---- -- --- ------ ---- - ---- -- ingenuity.<br>-- ------ ---- --- ---- --- --- --- ----- -- -------- ---<br>------ ------- -------- --- ---- -- ------- ------------ --<br>------ -- ---- -- --- ---- -- -------- -- --- ------ ------,177881.20000004768,177880.60000002384,177460.473,177473.70000004768,177477.17,177894.14,,19,ingenuity.
screen,html.Screen,2_3_1_0_1_20,2022-03-19T20:19:58.950Z,,,,,,,,,,,,,,,,,12,,,,,,,,,,,,,,314.4600000238279,,response,,,,5,A,,,,,,Space,keypress(Space),,,,silence,,,,---- ------ ------ ------- ------ --- ------- -----------<br>-- ----- --- ---- -- --- ------ ---- - ---- -- ----------<br>He ------ ---- --- ---- --- --- --- ----- -- -------- ---<br>------ ------- -------- --- ---- -- ------- ------------ --<br>------ -- ---- -- --- ---- -- -------- -- --- ------ ------,178209.30000007153,178208.60000002384,177877.478,177881.40000009537,177894.14,178211.087,,20,He
screen,html.Screen,2_3_1_0_1_21,2022-03-19T20:19:59.310Z,,,,,,,,,,,,,,,,,12,,,,,,,,,,,,,,357.5130000238423,,response,,,,5,A,,,,,,Space,keypress(Space),,,,silence,,,,---- ------ ------ ------- ------ --- ------- -----------<br>-- ----- --- ---- -- --- ------ ---- - ---- -- ----------<br>-- walked ---- --- ---- --- --- --- ----- -- -------- ---<br>------ ------- -------- --- ---- -- ------- ------------ --<br>------ -- ---- -- --- ---- -- -------- -- --- ------ ------,178569.30000007153,178568.60000002384,178194.399,178209.5,178211.087,178578.045,,21,walked
screen,html.Screen,2_3_1_0_1_22,2022-03-19T20:19:59.630Z,,,,,,,,,,,,,,,,,12,,,,,,,,,,,,,,310.4549999999872,,response,,,,5,A,,,,,,Space,keypress(Space),,,,silence,,,,---- ------ ------ ------- ------ --- ------- -----------<br>-- ----- --- ---- -- --- ------ ---- - ---- -- ----------<br>-- ------ into --- ---- --- --- --- ----- -- -------- ---<br>------ ------- -------- --- ---- -- ------- ------------ --<br>------ -- ---- -- --- ---- -- -------- -- --- ------ ------,178889.30000007153,178888.5,178561.365,178569.5,178578.045,178894.811,,22,into
screen,html.Screen,2_3_1_0_1_23,2022-03-19T20:19:59.998Z,,,,,,,,,,,,,,,,,12,,,,,,,,,,,,,,361.68900000001304,,response,,,,5,A,,,,,,Space,keypress(Space),,,,silence,,,,---- ------ ------ ------- ------ --- ------- -----------<br>-- ----- --- ---- -- --- ------ ---- - ---- -- ----------<br>-- ------ ---- his ---- --- --- --- ----- -- -------- ---<br>------ ------- -------- --- ---- -- ------- ------------ --<br>------ -- ---- -- --- ---- -- -------- -- --- ------ ------,179257.20000004768,179256.5,178878.288,178889.5,178894.811,179261.902,,23,his
screen,html.Screen,2_3_1_0_1_24,2022-03-19T20:20:00.334Z,,,,,,,,,,,,,,,,,12,,,,,,,,,,,,,,330.69800002384,,response,,,,5,A,,,,,,Space,keypress(Space),,,,silence,,,,---- ------ ------ ------- ------ --- ------- -----------<br>-- ----- --- ---- -- --- ------ ---- - ---- -- ----------<br>-- ------ ---- --- bank --- --- --- ----- -- -------- ---<br>------ ------- -------- --- ---- -- ------- ------------ --<br>------ -- ---- -- --- ---- -- -------- -- --- ------ ------,179593.30000007153,179592.60000002384,179245.252,179257.5,179261.902,179595.532,,24,bank
screen,html.Screen,2_3_1_0_1_25,2022-03-19T20:20:00.686Z,,,,,,,,,,,,,,,,,12,,,,,,,,,,,,,,349.06800002383534,,response,,,,5,A,,,,,,Space,keypress(Space),,,,silence,,,,---- ------ ------ ------- ------ --- ------- -----------<br>-- ----- --- ---- -- --- ------ ---- - ---- -- ----------<br>-- ------ ---- --- ---- one --- --- ----- -- -------- ---<br>------ ------- -------- --- ---- -- ------- ------------ --<br>------ -- ---- -- --- ---- -- -------- -- --- ------ ------,179945.30000007153,179944.60000002384,179578.86,179593.5,179595.532,179962.542,,25,one
screen,html.Screen,2_3_1_0_1_26,2022-03-19T20:20:01.038Z,,,,,,,,,,,,,,,,,12,,,,,,,,,,,,,,333.95800000001327,,response,,,,5,A,,,,,,Space,keypress(Space),,,,silence,,,,---- ------ ------ ------- ------ --- ------- -----------<br>-- ----- --- ---- -- --- ------ ---- - ---- -- ----------<br>-- ------ ---- --- ---- --- day --- ----- -- -------- ---<br>------ ------- -------- --- ---- -- ------- ------------ --<br>------ -- ---- -- --- ---- -- -------- -- --- ------ ------,180297.10000002384,180296.5,179945.818,179945.60000002384,179962.542,180312.658,,26,day
screen,html.Screen,2_3_1_0_1_27,2022-03-19T20:20:01.390Z,,,,,,,,,,,,,,,,,12,,,,,,,,,,,,,,335.8420000000042,,response,,,,5,A,,,,,,Space,keypress(Space),,,,silence,,,,---- ------ ------ ------- ------ --- ------- -----------<br>-- ----- --- ---- -- --- ------ ---- - ---- -- ----------<br>-- ------ ---- --- ---- --- --- and ----- -- -------- ---<br>------ ------- -------- --- ---- -- ------- ------------ --<br>------ -- ---- -- --- ---- -- -------- -- --- ------ ------,180649.20000004768,180648.5,180296.094,180297.40000009537,180312.658,180663.057,,27,and
screen,html.Screen,2_3_1_0_1_28,2022-03-19T20:20:01.782Z,,,,,,,,,,,,,,,,,12,,,,,,,,,,,,,,377.54300002384116,,response,,,,5,A,,,,,,Space,keypress(Space),,,,silence,,,,---- ------ ------ ------- ------ --- ------- -----------<br>-- ----- --- ---- -- --- ------ ---- - ---- -- ----------<br>-- ------ ---- --- ---- --- --- --- asked -- -------- ---<br>------ ------- -------- --- ---- -- ------- ------------ --<br>------ -- ---- -- --- ---- -- -------- -- --- ------ ------,181041.20000004768,181040.60000002384,180646.381,180649.40000009537,180663.057,181046.714,,28,asked
screen,html.Screen,2_3_1_0_1_29,2022-03-19T20:20:02.135Z,,,,,,,,,,,,,,,,,12,,,,,,,,,,,,,,346.2859999999928,,response,,,,5,A,,,,,,Space,keypress(Space),,,,silence,,,,---- ------ ------ ------- ------ --- ------- -----------<br>-- ----- --- ---- -- --- ------ ---- - ---- -- ----------<br>-- ------ ---- --- ---- --- --- --- ----- to -------- ---<br>------ ------- -------- --- ---- -- ------- ------------ --<br>------ -- ---- -- --- ---- -- -------- -- --- ------ ------,181393.70000004768,181393,181030.025,181041.40000009537,181046.714,181396.998,,29,to
screen,html.Screen,2_3_1_0_1_30,2022-03-19T20:20:02.470Z,,,,,,,,,,,,,,,,,12,,,,,,,,,,,,,,331.5020000000077,,response,,,,5,A,,,,,,Space,keypress(Space),,,,silence,,,,---- ------ ------ ------- ------ --- ------- -----------<br>-- ----- --- ---- -- --- ------ ---- - ---- -- ----------<br>-- ------ ---- --- ---- --- --- --- ----- -- withdraw ---<br>------ ------- -------- --- ---- -- ------- ------------ --<br>------ -- ---- -- --- ---- -- -------- -- --- ------ ------,181729.30000007153,181728.5,181380.316,181394,181396.998,181762.371,,30,withdraw
screen,html.Screen,2_3_1_0_1_31,2022-03-19T20:20:02.870Z,,,,,,,,,,,,,,,,,12,,,,,,,,,,,,,,366.12899999998626,,response,,,,5,A,,,,,,Space,keypress(Space),,,,silence,,,,---- ------ ------ ------- ------ --- ------- -----------<br>-- ----- --- ---- -- --- ------ ---- - ---- -- ----------<br>-- ------ ---- --- ---- --- --- --- ----- -- -------- his<br>------ ------- -------- --- ---- -- ------- ------------ --<br>------ -- ---- -- --- ---- -- -------- -- --- ------ ------,182129.20000004768,182128.5,181713.909,181729.5,181762.371,182130.878,,31,his
screen,html.Screen,2_3_1_0_1_32,2022-03-19T20:20:03.381Z,,,,,,,,,,,,,,,,,12,,,,,,,,,,,,,,508.52200009537046,,response,,,,5,A,,,,,,Space,keypress(Space),,,,silence,,,,---- ------ ------ ------- ------ --- ------- -----------<br>-- ----- --- ---- -- --- ------ ---- - ---- -- ----------<br>-- ------ ---- --- ---- --- --- --- ----- -- -------- ---<br>entire ------- -------- --- ---- -- ------- ------------ --<br>------ -- ---- -- --- ---- -- -------- -- --- ------ ------,182640.10000002384,182639.40000009537,182114.232,182129.40000009537,182130.878,182647.891,,32,entire
screen,html.Screen,2_3_1_0_1_33,2022-03-19T20:20:03.413Z,,,,,,,,,,,,,,,,,12,,,,,,,,,,,,,,23.7090000238386,,response,,,,5,A,,,,,,Space,keypress(Space),,,,silence,,,,---- ------ ------ ------- ------ --- ------- -----------<br>-- ----- --- ---- -- --- ------ ---- - ---- -- ----------<br>-- ------ ---- --- ---- --- --- --- ----- -- -------- ---<br>------ account -------- --- ---- -- ------- ------------ --<br>------ -- ---- -- --- ---- -- -------- -- --- ------ ------,182672.20000004768,182671.60000002384,182631.322,182640.30000007153,182647.891,182681.25,,33,account
screen,html.Screen,2_3_1_0_1_34,2022-03-19T20:20:03.445Z,,,,,,,,,,,,,,,,,12,,,,,,,,,,,,,,21.75,,response,,,,5,A,,,,,,Space,keypress(Space),,,,silence,,,,"---- ------ ------ ------- ------ --- ------- -----------<br>-- ----- --- ---- -- --- ------ ---- - ---- -- ----------<br>-- ------ ---- --- ---- --- --- --- ----- -- -------- ---<br>------ ------- balance, --- ---- -- ------- ------------ --<br>------ -- ---- -- --- ---- -- -------- -- --- ------ ------",182703.60000002384,182703,182664.667,182672.40000009537,182681.25,182714.796,,34,"balance,"
screen,html.Screen,2_3_1_0_1_35,2022-03-19T20:20:03.477Z,,,,,,,,,,,,,,,,,12,,,,,,,,,,,,,,20.50400007152348,,response,,,,5,A,,,,,,Space,keypress(Space),,,,silence,,,,---- ------ ------ ------- ------ --- ------- -----------<br>-- ----- --- ---- -- --- ------ ---- - ---- -- ----------<br>-- ------ ---- --- ---- --- --- --- ----- -- -------- ---<br>------ ------- -------- but ---- -- ------- ------------ --<br>------ -- ---- -- --- ---- -- -------- -- --- ------ ------,182735.90000009537,182735.30000007153,182698.025,182703.80000007153,182714.796,182748.095,,35,but
screen,html.Screen,2_3_1_0_1_36,2022-03-19T20:20:03.508Z,,,,,,,,,,,,,,,,,12,,,,,,,,,,,,,,18.60500004768255,,response,,,,5,A,,,,,,Space,keypress(Space),,,,silence,,,,---- ------ ------ ------- ------ --- ------- -----------<br>-- ----- --- ---- -- --- ------ ---- - ---- -- ----------<br>-- ------ ---- --- ---- --- --- --- ----- -- -------- ---<br>------ ------- -------- --- with -- ------- ------------ --<br>------ -- ---- -- --- ---- -- -------- -- --- ------ ------,182767.20000004768,182766.70000004768,182731.376,182736,182748.095,182781.455,,36,with
screen,html.Screen,2_3_1_0_1_37,2022-03-19T20:20:03.541Z,,,,,,,,,,,,,,,,,12,,,,,,,,,,,,,,17.545000000012806,,response,,,,5,A,,,,,,Space,keypress(Space),,,,silence,,,,---- ------ ------ ------- ------ --- ------- -----------<br>-- ----- --- ---- -- --- ------ ---- - ---- -- ----------<br>-- ------ ---- --- ---- --- --- --- ----- -- -------- ---<br>------ ------- -------- --- ---- an ------- ------------ --<br>------ -- ---- -- --- ---- -- -------- -- --- ------ ------,182799.5,182799,182764.744,182767.40000009537,182781.455,182814.759,,37,an
screen,html.Screen,2_3_1_0_1_38,2022-03-19T20:20:03.572Z,,,,,,,,,,,,,,,,,12,,,,,,,,,,,,,,15.641000095376512,,response,,,,5,A,,,,,,Space,keypress(Space),,,,silence,,,,---- ------ ------ ------- ------ --- ------- -----------<br>-- ----- --- ---- -- --- ------ ---- - ---- -- ----------<br>-- ------ ---- --- ---- --- --- --- ----- -- -------- ---<br>------ ------- -------- --- ---- -- unusual ------------ --<br>------ -- ---- -- --- ---- -- -------- -- --- ------ ------,182831,182830.40000009537,182798.061,182799.70000004768,182814.759,182848.14,,38,unusual
screen,html.Screen,2_3_1_0_1_39,2022-03-19T20:20:03.604Z,,,,,,,,,,,,,,,,,12,,,,,,,,,,,,,,14.660000071511604,,response,,,,5,A,,,,,,Space,keypress(Space),,,,silence,,,,---- ------ ------ ------- ------ --- ------- -----------<br>-- ----- --- ---- -- --- ------ ---- - ---- -- ----------<br>-- ------ ---- --- ---- --- --- --- ----- -- -------- ---<br>------ ------- -------- --- ---- -- ------- stipulation: --<br>------ -- ---- -- --- ---- -- -------- -- --- ------ ------,182863.30000007153,182862.80000007153,182831.46,182831.20000004768,182848.14,182881.533,,39,stipulation:
screen,html.Screen,2_3_1_0_1_40,2022-03-19T20:20:03.636Z,,,,,,,,,,,,,,,,,12,,,,,,,,,,,,,,12.667000047687907,,response,,,,5,A,,,,,,Space,keypress(Space),,,,silence,,,,---- ------ ------ ------- ------ --- ------- -----------<br>-- ----- --- ---- -- --- ------ ---- - ---- -- ----------<br>-- ------ ---- --- ---- --- --- --- ----- -- -------- ---<br>------ ------- -------- --- ---- -- ------- ------------ He<br>------ -- ---- -- --- ---- -- -------- -- --- ------ ------,182894.70000004768,182894.20000004768,182864.82,182863.5,182881.533,182914.915,,40,He
screen,html.Screen,2_3_1_0_1_41,2022-03-19T20:20:03.668Z,,,,,,,,,,,,,,,,,12,,,,,,,,,,,,,,10.985000095359283,,response,,,,5,A,,,,,,Space,keypress(Space),,,,silence,,,,---- ------ ------ ------- ------ --- ------- -----------<br>-- ----- --- ---- -- --- ------ ---- - ---- -- ----------<br>-- ------ ---- --- ---- --- --- --- ----- -- -------- ---<br>------ ------- -------- --- ---- -- ------- ------------ --<br>wanted -- ---- -- --- ---- -- -------- -- --- ------ ------,182926.40000009537,182925.90000009537,182898.184,182894.90000009537,182914.915,182948.261,,41,wanted
screen,html.Screen,2_3_1_0_1_42,2022-03-19T20:20:03.714Z,,,,,,,,,,,,,,,,,12,,,,,,,,,,,,,,24.239000000001397,,response,,,,5,A,,,,,,Space,keypress(Space),,,,silence,,,,---- ------ ------ ------- ------ --- ------- -----------<br>-- ----- --- ---- -- --- ------ ---- - ---- -- ----------<br>-- ------ ---- --- ---- --- --- --- ----- -- -------- ---<br>------ ------- -------- --- ---- -- ------- ------------ --<br>------ as ---- -- --- ---- -- -------- -- --- ------ ------,182973.10000002384,182972.5,182931.545,182926.70000004768,182948.261,182981.581,,42,as
