sender,sender_type,sender_id,timestamp,meta,,Blues,Classical,Country,Dance,Electronic,Folk,Gospel,Hip-Hop,Jazz,Latin,Musical/Film,New-age,Pop,Prolific_id,Provo_ID,R&B,Rap,Reggae,Religious,Rock,Soul,Swing,Traditional,age,artist_name,correct,correctResponse,duration,education,ended_on,gender,headphone_check_performance,item,list,music_frequency,position_correct,response,response_action,snippet_file,song_name,song_rating,sound,stimulus_1,stimulus_2,stimulus_3,text,time_commit,time_end,time_render,time_run,time_show,time_switch,url,word,word_ID
Prolific ID,html.Form,0,2022-03-21T21:13:35.199Z,"{""labjs_version"":""20.2.2"",""labjs_build"":{""flavor"":""production"",""commit"":""a25486e0c714a0ae2ce03ff94b7bb6896854dcfa""},""location"":""https://run.pavlovia.org/mvasilev/prolific3_music_g/?__pilotToken=3c59dc048e8850243be8079a5c74d079&__oauthToken=cc604b6e7d449fc5fe7a311b47aeaf3d810b53f5795c726b331b83656855f6f4"",""userAgent"":""Mozilla/5.0 (Windows NT 10.0; Win64; x64) AppleWebKit/537.36 (KHTML, like Gecko) Chrome/99.0.4844.74 Safari/537.36"",""platform"":""Win32"",""language"":""de-DE"",""locale"":""en-US"",""timeZone"":""Europe/London"",""timezoneOffset"":0,""screen_width"":2560,""screen_height"":1440,""scroll_width"":3200,""scroll_height"":1621,""window_innerWidth"":3200,""window_innerHeight"":1668,""devicePixelRatio"":0.800000011920929}",,,,,,,,,,,,,,,xyz123456789,,,,,,,,,,,,,,3284.006000047684,,form submission,,,,,,,,,,,,,,,,,12913.700000047684,12913.200000047684,9612.526,9619.100000023842,9629.194,12915.139,"{""__pilotToken"":""3c59dc048e8850243be8079a5c74d079"",""__oauthToken"":""cc604b6e7d449fc5fe7a311b47aeaf3d810b53f5795c726b331b83656855f6f4""}",,
Introduction,html.Screen,1_0,2022-03-21T21:13:36.927Z,,,,,,,,,,,,,,,,,,,,,,,,,,,,,,1726.1610000715264,,response,,,,,,,continue,click button,,,,,,,,,14642.100000023842,14641.300000071526,12898.471,12914.100000023842,12915.139,14649.733,,,
Volume calibration,html.Screen,1_1,2022-03-21T21:13:37.976Z,,,,,,,,,,,,,,,,,,,,,,,,,,,,,,1037.8670000238417,,response,,,,,,,continue,click button,,,,,,,,,15690.800000071526,15687.600000023842,14633.21,14642.200000047684,14649.733,15700.587,,,
Task instructions,html.Screen,1_2,2022-03-21T21:13:38.901Z,,,,,,,,,,,,,,,,,,,,,,,,,,,,,,914.9130000000005,,response,,,,,,,continue,click button,,,,,,,,,16616.200000047684,16615.5,15684.015,15690.899999976158,15700.587,16618.115,,,
Sounds,html.Screen,1_3_0_0,2022-03-21T21:13:43.145Z,,,,,,,,,,,,,,,,,,,,,,,,,,,,,,4253.432999999997,,timeout,,,,,,2,,,,,,,O,S,I,,20859.600000023842,20854.9,16601.441,16616.399999976158,16618.115,20871.548,,,
Judgement,html.Screen,1_3_0_1,2022-03-21T21:13:43.613Z,,,,,,,,,,,,,,,,,,,,,,,,,,,,true,2,456.052000023843,,response,,,,,,2,2,click #choice-2,,,,,O,S,I,,21328.300000071526,21327.600000023842,20854.9,20859.899999976158,20871.548,21338.61,,,
Trial,flow.Sequence,1_3_0,2022-03-21T21:13:43.614Z,,,,,,,,,,,,,,,,,,,,,,,,,,,,,,4709.48500002384,,completion,,,,,,2,,,,,,,O,S,I,,21328.600000023842,21327.600000023842,16601.441,16616.399999976158,16618.115,21338.61,,,
Sounds,html.Screen,1_3_1_0,2022-03-21T21:13:47.861Z,,,,,,,,,,,,,,,,,,,,,,,,,,,,,,4253.464,,timeout,,,,,,3,,,,,,,O,I,S,,25576.200000047684,25575.393,21321.94,21328.899999976158,21338.61,25592.074,,,
Judgement,html.Screen,1_3_1_1,2022-03-21T21:13:48.301Z,,,,,,,,,,,,,,,,,,,,,,,,,,,,true,3,423.6260000476832,,response,,,,,,3,3,click #choice-3,,,,,O,I,S,,26016.399999976158,26015.700000047684,25575.393,25576.5,25592.074,26025.713,,,
Trial,flow.Sequence,1_3_1,2022-03-21T21:13:48.302Z,,,,,,,,,,,,,,,,,,,,,,,,,,,,,,4677.090000047683,,completion,,,,,,3,,,,,,,O,I,S,,26016.600000023842,26015.700000047684,21321.94,21328.700000047684,21338.61,26025.713,,,
Sounds,html.Screen,1_3_2_0,2022-03-21T21:13:52.548Z,,,,,,,,,,,,,,,,,,,,,,,,,,,,,,4253.476999999999,,timeout,,,,,,3,,,,,,,I,O,S,,30263.5,30262.449,26009.058,26016.800000071526,26025.713,30279.19,,,
Judgement,html.Screen,1_3_2_1,2022-03-21T21:13:53.021Z,,,,,,,,,,,,,,,,,,,,,,,,,,,,true,3,456.41000002384317,,response,,,,,,3,3,click #choice-3,,,,,I,O,S,,30736.399999976158,30735.600000023842,30262.449,30263.600000023842,30279.19,30746.167,,,
Trial,flow.Sequence,1_3_2,2022-03-21T21:13:53.022Z,,,,,,,,,,,,,,,,,,,,,,,,,,,,,,4709.887000023842,,completion,,,,,,3,,,,,,,I,O,S,,30736.600000023842,30735.600000023842,26009.058,26016.800000071526,26025.713,30746.167,,,
Sounds,html.Screen,1_3_3_0,2022-03-21T21:13:57.269Z,,,,,,,,,,,,,,,,,,,,,,,,,,,,,,4253.493999999999,,timeout,,,,,,1,,,,,,,S,O,I,,34984,34982.987,30729.494,30736.700000047684,30746.167,34999.661,,,
Judgement,html.Screen,1_3_3_1,2022-03-21T21:13:57.701Z,,,,,,,,,,,,,,,,,,,,,,,,,,,,true,1,415.9390000238418,,response,,,,,,1,1,click #choice-1,,,,,S,O,I,,35416.39999997616,35415.60000002384,34982.987,34984.300000071526,34999.661,35416.63,,,
Trial,flow.Sequence,1_3_3,2022-03-21T21:13:57.702Z,,,,,,,,,,,,,,,,,,,,,,,,,,,,,,4669.433000023841,,completion,,,,,,1,,,,,,,S,O,I,,35416.5,35415.60000002384,30729.494,30736.700000047684,30746.167,35416.63,,,
Sounds,html.Screen,1_3_4_0,2022-03-21T21:14:01.939Z,,,,,,,,,,,,,,,,,,,,,,,,,,,,,,4253.461000000003,,timeout,,,,,,1,,,,,,,S,I,O,,39654.200000047684,39653.405,35399.974,35416.700000047684,35416.63,39670.091,,,
Judgement,html.Screen,1_3_4_1,2022-03-21T21:14:02.333Z,,,,,,,,,,,,,,,,,,,,,,,,,,,,true,1,377.60900004768337,,response,,,,,,1,1,click #choice-1,,,,,S,I,O,,40048.300000071526,40047.700000047684,39653.405,39654.5,39670.091,40053.615,,,
Trial,flow.Sequence,1_3_4,2022-03-21T21:14:02.334Z,,,,,,,,,,,,,,,,,,,,,,,,,,,,,,4631.070000047686,,completion,,,,,,1,,,,,,,S,I,O,,40048.5,40047.700000047684,35399.974,35416.60000002384,35416.63,40053.615,,,
Sounds,html.Screen,1_3_5_0,2022-03-21T21:14:06.576Z,,,,,,,,,,,,,,,,,,,,,,,,,,,,,,4253.569000000003,,timeout,,,,,,2,,,,,,,I,S,O,,44291.300000071526,44290.487,40037.051,40048.60000002384,40053.615,44307.184,,,
Judgement,html.Screen,1_3_5_1,2022-03-21T21:14:07.038Z,,,,,,,,,,,,,,,,,,,,,,,,,,,,true,2,444.5160000476826,,response,,,,,,2,2,click #choice-2,,,,,I,S,O,,44752.60000002384,44751.700000047684,44290.487,44291.60000002384,44307.184,44757.503,,,
Trial,flow.Sequence,1_3_5,2022-03-21T21:14:07.038Z,,,,,,,,,,,,,,,,,,,,,,,,,,,,,,4698.085000047686,,completion,,,,,,2,,,,,,,I,S,O,,44752.89999997616,44751.700000047684,40037.051,40048.60000002384,40053.615,44757.503,,,
Task,flow.Loop,1_3,2022-03-21T21:14:07.043Z,,,,,,,,,,,,,,,,,,,,,,,,,,,,,,28133.585000047682,,completion,,1,,,,,,,,,,,,,,,44757.60000002384,44751.700000047684,16601.441,16616.300000071526,16618.115,44757.503,,,
Trap,html.Screen,1_4,2022-03-21T21:14:07.044Z,,,,,,,,,,,,,,,,,,,,,,,,,,,,,,NaN,,skipped,,,,,,,,,,,,,,,,,44758.89999997616,44751.700000047684,,44758.800000071526,,44757.503,,,
Thanks,html.Screen,1_5,2022-03-21T21:14:08.445Z,,,,,,,,,,,,,,,,,,,,,,,,,,,,,,1402.0970000238449,,response,,,,,,,continue,click button,,,,,,,,,46160.300000071526,46159.60000002384,44740.845,44759,44757.503,47559.741,,,
Headphone screening,flow.Sequence,1,2022-03-21T21:14:08.446Z,,,,,,,,,,,,,,,,,,,,,,,,,,,,,,33244.461000023846,,completion,,,,,,,,,,,,,,,,,46160.5,46159.60000002384,12898.471,12914,12915.139,47559.741,,,
Instructions,html.Page,2_0,2022-03-21T21:14:11.102Z,,,,,,,,,,,,,,,,,,,,,,,,,,,,,,1256.5590000715238,,form submission,,,,,,,,,,,,,,,,,48816.800000071526,48816.300000071526,47543.122,47559.5,47559.741,48827.481,,,
Holding screen,html.Screen,2_1_0_0,2022-03-21T21:14:21.105Z,,,,,,,,,,,,,,,,,,,,,,,,,,,,,,10008.035000000003,,timeout,,,,,,,,,,,,,,,,,58819.700000047684,58818.876,48810.801,48816.89999997616,48827.481,58835.516,,,
screen,html.Screen,2_1_0_1_0,2022-03-21T21:14:22.052Z,,,,,,,,,,,,,,,,,53,,,,,,,,,,,,,926.7840000715223,,response,,,99,,,,Space,keypress(Space),,,,,,,,When -- ----- -- ------ - ------- --- ----------<br>------------- ------ ------ ---- ---- ------- ----- -- ----<br>-------- ------- -- ---------- --- - --- ----- ----- ----<br>---- --- --- ----- --- ---- ---- ------- ----- ---- -------<br>--- --- -- ----- -- --- ---- -- --- ---- -- ------ ------<br>--- ----- -- ----,59766.800000071526,59762.300000071526,58818.876,58820,58835.516,59769.605,,0,When
screen,html.Screen,2_1_0_1_1,2022-03-21T21:14:22.560Z,,,,,,,,,,,,,,,,,53,,,,,,,,,,,,,504.3949999999968,,response,,,99,,,,Space,keypress(Space),,,,,,,,---- it ----- -- ------ - ------- --- ----------<br>------------- ------ ------ ---- ---- ------- ----- -- ----<br>-------- ------- -- ---------- --- - --- ----- ----- ----<br>---- --- --- ----- --- ---- ---- ------- ----- ---- -------<br>--- --- -- ----- -- --- ---- -- --- ---- -- ------ ------<br>--- ----- -- ----,60274.800000071526,60274,59752.926,59767.10000002384,59769.605,60286.733,,1,it
screen,html.Screen,2_1_0_1_2,2022-03-21T21:14:22.576Z,,,,,,,,,,,,,,,,,53,,,,,,,,,,,,,3.1669999761579675,,response,,,99,,,,Space,keypress(Space),,,,,,,,---- -- comes -- ------ - ------- --- ----------<br>------------- ------ ------ ---- ---- ------- ----- -- ----<br>-------- ------- -- ---------- --- - --- ----- ----- ----<br>---- --- --- ----- --- ---- ---- ------- ----- ---- -------<br>--- --- -- ----- -- --- ---- -- --- ---- -- ------ ------<br>--- ----- -- ----,60290.60000002384,60289.89999997616,60270.05,60275.10000002384,60286.733,60320.083,,2,comes
screen,html.Screen,2_1_0_1_3,2022-03-21T21:14:22.606Z,,,,,,,,,,,,,,,,,53,,,,,,,,,,,,,0.7170000715268543,,response,,,99,,,,Space,keypress(Space),,,,,,,,---- -- ----- to ------ - ------- --- ----------<br>------------- ------ ------ ---- ---- ------- ----- -- ----<br>-------- ------- -- ---------- --- - --- ----- ----- ----<br>---- --- --- ----- --- ---- ---- ------- ----- ---- -------<br>--- --- -- ----- -- --- ---- -- --- ---- -- ------ ------<br>--- ----- -- ----,60321.39999997616,60320.800000071526,60303.41,60290.800000071526,60320.083,60353.493,,3,to
screen,html.Screen,2_1_0_1_4,2022-03-21T21:14:22.652Z,,,,,,,,,,,,,,,,,53,,,,,,,,,,,,,13.40699997615593,,response,,,99,,,,Space,keypress(Space),,,,,,,,---- -- ----- -- having - ------- --- ----------<br>------------- ------ ------ ---- ---- ------- ----- -- ----<br>-------- ------- -- ---------- --- - --- ----- ----- ----<br>---- --- --- ----- --- ---- ---- ------- ----- ---- -------<br>--- --- -- ----- -- --- ---- -- --- ---- -- ------ ------<br>--- ----- -- ----,60367.39999997616,60366.89999997616,60336.773,60321.60000002384,60353.493,60386.866,,4,having
screen,html.Screen,2_1_0_1_5,2022-03-21T21:14:22.683Z,,,,,,,,,,,,,,,,,53,,,,,,,,,,,,,10.734000023840053,,response,,,99,,,,Space,keypress(Space),,,,,,,,---- -- ----- -- ------ a ------- --- ----------<br>------------- ------ ------ ---- ---- ------- ----- -- ----<br>-------- ------- -- ---------- --- - --- ----- ----- ----<br>---- --- --- ----- --- ---- ---- ------- ----- ---- -------<br>--- --- -- ----- -- --- ---- -- --- ---- -- ------ ------<br>--- ----- -- ----,60398.200000047684,60397.60000002384,60370.086,60367.700000047684,60386.866,60420.262,,5,a
screen,html.Screen,2_1_0_1_6,2022-03-21T21:14:22.714Z,,,,,,,,,,,,,,,,,53,,,,,,,,,,,,,8.237999999997555,,response,,,99,,,,Space,keypress(Space),,,,,,,,---- -- ----- -- ------ - lasting --- ----------<br>------------- ------ ------ ---- ---- ------- ----- -- ----<br>-------- ------- -- ---------- --- - --- ----- ----- ----<br>---- --- --- ----- --- ---- ---- ------- ----- ---- -------<br>--- --- -- ----- -- --- ---- -- --- ---- -- ------ ------<br>--- ----- -- ----,60429.10000002384,60428.5,60403.447,60398.39999997616,60420.262,60453.566,,6,lasting
screen,html.Screen,2_1_0_1_7,2022-03-21T21:14:22.745Z,,,,,,,,,,,,,,,,,53,,,,,,,,,,,,,5.934000000001106,,response,,,99,,,,Space,keypress(Space),,,,,,,,---- -- ----- -- ------ - ------- and ----------<br>------------- ------ ------ ---- ---- ------- ----- -- ----<br>-------- ------- -- ---------- --- - --- ----- ----- ----<br>---- --- --- ----- --- ---- ---- ------- ----- ---- -------<br>--- --- -- ----- -- --- ---- -- --- ---- -- ------ ------<br>--- ----- -- ----,60460.300000071526,60459.5,60436.852,60429.300000071526,60453.566,60486.924,,7,and
screen,html.Screen,2_1_0_1_8,2022-03-21T21:14:22.777Z,,,,,,,,,,,,,,,,,53,,,,,,,,,,,,,4.676000023842789,,response,,,99,,,,Space,keypress(Space),,,,,,,,---- -- ----- -- ------ - ------- --- fulfilling<br>------------- ------ ------ ---- ---- ------- ----- -- ----<br>-------- ------- -- ---------- --- - --- ----- ----- ----<br>---- --- --- ----- --- ---- ---- ------- ----- ---- -------<br>--- --- -- ----- -- --- ---- -- --- ---- -- ------ ------<br>--- ----- -- ----,60492.300000071526,60491.60000002384,60470.207,60460.39999997616,60486.924,60520.295,,8,fulfilling
screen,html.Screen,2_1_0_1_9,2022-03-21T21:14:22.808Z,,,,,,,,,,,,,,,,,53,,,,,,,,,,,,,2.50500007152732,,response,,,99,,,,Space,keypress(Space),,,,,,,,"---- -- ----- -- ------ - ------- --- ----------<br>relationship, ------ ------ ---- ---- ------- ----- -- ----<br>-------- ------- -- ---------- --- - --- ----- ----- ----<br>---- --- --- ----- --- ---- ---- ------- ----- ---- -------<br>--- --- -- ----- -- --- ---- -- --- ---- -- ------ ------<br>--- ----- -- ----",60523.39999997616,60522.800000071526,60503.573,60492.5,60520.295,60553.654,,9,"relationship,"
screen,html.Screen,2_1_0_1_10,2022-03-21T21:14:22.840Z,,,,,,,,,,,,,,,,,53,,,,,,,,,,,,,1.0460000476814457,,response,,,99,,,,Space,keypress(Space),,,,,,,,---- -- ----- -- ------ - ------- --- ----------<br>------------- common ------ ---- ---- ------- ----- -- ----<br>-------- ------- -- ---------- --- - --- ----- ----- ----<br>---- --- --- ----- --- ---- ---- ------- ----- ---- -------<br>--- --- -- ----- -- --- ---- -- --- ---- -- ------ ------<br>--- ----- -- ----,60555.39999997616,60554.700000047684,60536.94,60523.60000002384,60553.654,60587.014,,10,common
screen,html.Screen,2_1_0_1_11,2022-03-21T21:14:22.871Z,,,,,,,,,,,,,,,,,53,,,,,,,,,,,,,15.408000047682435,,response,,,99,,,,Space,keypress(Space),,,,,,,,---- -- ----- -- ------ - ------- --- ----------<br>------------- ------ wisdom ---- ---- ------- ----- -- ----<br>-------- ------- -- ---------- --- - --- ----- ----- ----<br>---- --- --- ----- --- ---- ---- ------- ----- ---- -------<br>--- --- -- ----- -- --- ---- -- --- ---- -- ------ ------<br>--- ----- -- ----,60586.300000071526,60585.700000047684,60570.292,60555.5,,60603.694,,11,wisdom
screen,html.Screen,2_1_0_1_12,2022-03-21T21:14:22.902Z,,,,,,,,,,,,,,,,,53,,,,,,,,,,,,,12.906000023838715,,response,,,99,,,,Space,keypress(Space),,,,,,,,---- -- ----- -- ------ - ------- --- ----------<br>------------- ------ ------ says ---- ------- ----- -- ----<br>-------- ------- -- ---------- --- - --- ----- ----- ----<br>---- --- --- ----- --- ---- ---- ------- ----- ---- -------<br>--- --- -- ----- -- --- ---- -- --- ---- -- ------ ------<br>--- ----- -- ----,60617.300000071526,60616.60000002384,60587.014,60586.39999997616,60603.694,60637.006,,12,says
screen,html.Screen,2_1_0_1_13,2022-03-21T21:14:22.948Z,,,,,,,,,,,,,,,,,53,,,,,,,,,,,,,25.79400007152435,,response,,,99,,,,Space,keypress(Space),,,,,,,,---- -- ----- -- ------ - ------- --- ----------<br>------------- ------ ------ ---- that ------- ----- -- ----<br>-------- ------- -- ---------- --- - --- ----- ----- ----<br>---- --- --- ----- --- ---- ---- ------- ----- ---- -------<br>--- --- -- ----- -- --- ---- -- --- ---- -- ------ ------<br>--- ----- -- ----,60663.39999997616,60662.800000071526,60620.353,60617.5,60637.006,60670.255,,13,that
screen,html.Screen,2_1_0_1_14,2022-03-21T21:14:22.981Z,,,,,,,,,,,,,,,,,53,,,,,,,,,,,,,24.64499997616076,,response,,,99,,,,Space,keypress(Space),,,,,,,,---- -- ----- -- ------ - ------- --- ----------<br>------------- ------ ------ ---- ---- feeling ----- -- ----<br>-------- ------- -- ---------- --- - --- ----- ----- ----<br>---- --- --- ----- --- ---- ---- ------- ----- ---- -------<br>--- --- -- ----- -- --- ---- -- --- ---- -- ------ ------<br>--- ----- -- ----,60695.60000002384,60694.89999997616,60653.711,60663.60000002384,60670.255,60703.729,,14,feeling
screen,html.Screen,2_1_0_1_15,2022-03-21T21:14:23.011Z,,,,,,,,,,,,,,,,,53,,,,,,,,,,,,,21.871000023842498,,response,,,99,,,,Space,keypress(Space),,,,,,,,---- -- ----- -- ------ - ------- --- ----------<br>------------- ------ ------ ---- ---- ------- close -- ----<br>-------- ------- -- ---------- --- - --- ----- ----- ----<br>---- --- --- ----- --- ---- ---- ------- ----- ---- -------<br>--- --- -- ----- -- --- ---- -- --- ---- -- ------ ------<br>--- ----- -- ----,60726.200000047684,60725.60000002384,60687.09,60695.800000071526,60703.729,60737.093,,15,close
screen,html.Screen,2_1_0_1_16,2022-03-21T21:14:23.043Z,,,,,,,,,,,,,,,,,53,,,,,,,,,,,,,19.806999976157385,,response,,,99,,,,Space,keypress(Space),,,,,,,,---- -- ----- -- ------ - ------- --- ----------<br>------------- ------ ------ ---- ---- ------- ----- to ----<br>-------- ------- -- ---------- --- - --- ----- ----- ----<br>---- --- --- ----- --- ---- ---- ------- ----- ---- -------<br>--- --- -- ----- -- --- ---- -- --- ---- -- ------ ------<br>--- ----- -- ----,60757.5,60756.89999997616,60720.41,60726.39999997616,60737.093,60770.49,,16,to
screen,html.Screen,2_1_0_1_17,2022-03-21T21:14:23.074Z,,,,,,,,,,,,,,,,,53,,,,,,,,,,,,,18.31000007152761,,response,,,99,,,,Space,keypress(Space),,,,,,,,---- -- ----- -- ------ - ------- --- ----------<br>------------- ------ ------ ---- ---- ------- ----- -- your<br>-------- ------- -- ---------- --- - --- ----- ----- ----<br>---- --- --- ----- --- ---- ---- ------- ----- ---- -------<br>--- --- -- ----- -- --- ---- -- --- ---- -- ------ ------<br>--- ----- -- ----,60789.5,60788.800000071526,60753.777,60757.800000071526,60770.49,60803.859,,17,your
screen,html.Screen,2_1_0_1_18,2022-03-21T21:14:23.106Z,,,,,,,,,,,,,,,,,53,,,,,,,,,,,,,16.841000047686975,,response,,,99,,,,Space,keypress(Space),,,,,,,,---- -- ----- -- ------ - ------- --- ----------<br>------------- ------ ------ ---- ---- ------- ----- -- ----<br>romantic ------- -- ---------- --- - --- ----- ----- ----<br>---- --- --- ----- --- ---- ---- ------- ----- ---- -------<br>--- --- -- ----- -- --- ---- -- --- ---- -- ------ ------<br>--- ----- -- ----,60821.39999997616,60820.700000047684,60787.137,60789.700000047684,60803.859,60837.215,,18,romantic
screen,html.Screen,2_1_0_1_19,2022-03-21T21:14:23.137Z,,,,,,,,,,,,,,,,,53,,,,,,,,,,,,,14.285000000003492,,response,,,99,,,,Space,keypress(Space),,,,,,,,---- -- ----- -- ------ - ------- --- ----------<br>------------- ------ ------ ---- ---- ------- ----- -- ----<br>-------- partner -- ---------- --- - --- ----- ----- ----<br>---- --- --- ----- --- ---- ---- ------- ----- ---- -------<br>--- --- -- ----- -- --- ---- -- --- ---- -- ------ ------<br>--- ----- -- ----,60852.200000047684,60851.5,60820.489,60821.60000002384,60837.215,60870.575,,19,partner
screen,html.Screen,2_1_0_1_20,2022-03-21T21:14:23.169Z,,,,,,,,,,,,,,,,,53,,,,,,,,,,,,,12.324999976161052,,response,,,99,,,,Space,keypress(Space),,,,,,,,---- -- ----- -- ------ - ------- --- ----------<br>------------- ------ ------ ---- ---- ------- ----- -- ----<br>-------- ------- is ---------- --- - --- ----- ----- ----<br>---- --- --- ----- --- ---- ---- ------- ----- ---- -------<br>--- --- -- ----- -- --- ---- -- --- ---- -- ------ ------<br>--- ----- -- ----,60883.5,60882.89999997616,60853.85,60852.39999997616,60870.575,60903.932,,20,is
screen,html.Screen,2_1_0_1_21,2022-03-21T21:14:23.215Z,,,,,,,,,,,,,,,,,53,,,,,,,,,,,,,24.66800002384116,,response,,,99,,,,Space,keypress(Space),,,,,,,,---- -- ----- -- ------ - ------- --- ----------<br>------------- ------ ------ ---- ---- ------- ----- -- ----<br>-------- ------- -- paramount. --- - --- ----- ----- ----<br>---- --- --- ----- --- ---- ---- ------- ----- ---- -------<br>--- --- -- ----- -- --- ---- -- --- ---- -- ------ ------<br>--- ----- -- ----,60929.60000002384,60928.60000002384,60887.237,60883.89999997616,60903.932,60937.233,,21,paramount.
screen,html.Screen,2_1_0_1_22,2022-03-21T21:14:23.246Z,,,,,,,,,,,,,,,,,53,,,,,,,,,,,,,22.867000023841683,,response,,,99,,,,Space,keypress(Space),,,,,,,,---- -- ----- -- ------ - ------- --- ----------<br>------------- ------ ------ ---- ---- ------- ----- -- ----<br>-------- ------- -- ---------- But - --- ----- ----- ----<br>---- --- --- ----- --- ---- ---- ------- ----- ---- -------<br>--- --- -- ----- -- --- ---- -- --- ---- -- ------ ------<br>--- ----- -- ----,60960.700000047684,60960.10000002384,60920.576,60929.800000071526,60937.233,60970.643,,22,But
screen,html.Screen,2_1_0_1_23,2022-03-21T21:14:23.276Z,,,,,,,,,,,,,,,,,53,,,,,,,,,,,,,19.657000071529183,,response,,,99,,,,Space,keypress(Space),,,,,,,,---- -- ----- -- ------ - ------- --- ----------<br>------------- ------ ------ ---- ---- ------- ----- -- ----<br>-------- ------- -- ---------- --- a --- ----- ----- ----<br>---- --- --- ----- --- ---- ---- ------- ----- ---- -------<br>--- --- -- ----- -- --- ---- -- --- ---- -- ------ ------<br>--- ----- -- ----,60991,60990.300000071526,60953.935,60960.800000071526,60970.643,61004.005,,23,a
screen,html.Screen,2_1_0_1_24,2022-03-21T21:14:23.307Z,,,,,,,,,,,,,,,,,53,,,,,,,,,,,,,17.595000023844477,,response,,,99,,,,Space,keypress(Space),,,,,,,,---- -- ----- -- ------ - ------- --- ----------<br>------------- ------ ------ ---- ---- ------- ----- -- ----<br>-------- ------- -- ---------- --- - new ----- ----- ----<br>---- --- --- ----- --- ---- ---- ------- ----- ---- -------<br>--- --- -- ----- -- --- ---- -- --- ---- -- ------ ------<br>--- ----- -- ----,61022.300000071526,61021.60000002384,60987.296,60991.200000047684,61004.005,61037.373,,24,new
screen,html.Screen,2_1_0_1_25,2022-03-21T21:14:23.338Z,,,,,,,,,,,,,,,,,53,,,,,,,,,,,,,15.127000000000407,,response,,,99,,,,Space,keypress(Space),,,,,,,,---- -- ----- -- ------ - ------- --- ----------<br>------------- ------ ------ ---- ---- ------- ----- -- ----<br>-------- ------- -- ---------- --- - --- study ----- ----<br>---- --- --- ----- --- ---- ---- ------- ----- ---- -------<br>--- --- -- ----- -- --- ---- -- --- ---- -- ------ ------<br>--- ----- -- ----,61053.10000002384,61052.5,61020.654,61022.39999997616,61037.373,61070.736,,25,study
screen,html.Screen,2_1_0_1_26,2022-03-21T21:14:23.369Z,,,,,,,,,,,,,,,,,53,,,,,,,,,,,,,12.663999976160994,,response,,,99,,,,Space,keypress(Space),,,,,,,,---- -- ----- -- ------ - ------- --- ----------<br>------------- ------ ------ ---- ---- ------- ----- -- ----<br>-------- ------- -- ---------- --- - --- ----- finds ----<br>---- --- --- ----- --- ---- ---- ------- ----- ---- -------<br>--- --- -- ----- -- --- ---- -- --- ---- -- ------ ------<br>--- ----- -- ----,61084,61083.39999997616,61054.015,61053.300000071526,61070.736,61104.091,,26,finds
screen,html.Screen,2_1_0_1_27,2022-03-21T21:14:23.399Z,,,,,,,,,,,,,,,,,53,,,,,,,,,,,,,9.308999976157793,,response,,,99,,,,Space,keypress(Space),,,,,,,,---- -- ----- -- ------ - ------- --- ----------<br>------------- ------ ------ ---- ---- ------- ----- -- ----<br>-------- ------- -- ---------- --- - --- ----- ----- that<br>---- --- --- ----- --- ---- ---- ------- ----- ---- -------<br>--- --- -- ----- -- --- ---- -- --- ---- -- ------ ------<br>--- ----- -- ----,61114,61113.39999997616,61087.376,61084.200000047684,61104.091,61137.404,,27,that
screen,html.Screen,2_1_0_1_28,2022-03-21T21:14:23.445Z,,,,,,,,,,,,,,,,,53,,,,,,,,,,,,,21.896000071523304,,response,,,99,,,,Space,keypress(Space),,,,,,,,---- -- ----- -- ------ - ------- --- ----------<br>------------- ------ ------ ---- ---- ------- ----- -- ----<br>-------- ------- -- ---------- --- - --- ----- ----- ----<br>it's --- --- ----- --- ---- ---- ------- ----- ---- -------<br>--- --- -- ----- -- --- ---- -- --- ---- -- ------ ------<br>--- ----- -- ----,61159.89999997616,61159.300000071526,61120.709,61114.200000047684,61137.404,61170.804,,28,it's
screen,html.Screen,2_1_0_1_29,2022-03-21T21:14:23.476Z,,,,,,,,,,,,,,,,,53,,,,,,,,,,,,,19.79600002384541,,response,,,99,,,,Space,keypress(Space),,,,,,,,---- -- ----- -- ------ - ------- --- ----------<br>------------- ------ ------ ---- ---- ------- ----- -- ----<br>-------- ------- -- ---------- --- - --- ----- ----- ----<br>---- not --- ----- --- ---- ---- ------- ----- ---- -------<br>--- --- -- ----- -- --- ---- -- --- ---- -- ------ ------<br>--- ----- -- ----,61191.300000071526,61190.60000002384,61154.094,61160.200000047684,61170.804,61204.174,,29,not
screen,html.Screen,2_1_0_1_30,2022-03-21T21:14:23.506Z,,,,,,,,,,,,,,,,,53,,,,,,,,,,,,,16.42600002384279,,response,,,99,,,,Space,keypress(Space),,,,,,,,---- -- ----- -- ------ - ------- --- ----------<br>------------- ------ ------ ---- ---- ------- ----- -- ----<br>-------- ------- -- ---------- --- - --- ----- ----- ----<br>---- --- how ----- --- ---- ---- ------- ----- ---- -------<br>--- --- -- ----- -- --- ---- -- --- ---- -- ------ ------<br>--- ----- -- ----,61221.10000002384,61220.60000002384,61187.455,61191.5,61204.174,61237.535,,30,how
screen,html.Screen,2_1_0_1_31,2022-03-21T21:14:23.538Z,,,,,,,,,,,,,,,,,53,,,,,,,,,,,,,15.265000071522081,,response,,,99,,,,Space,keypress(Space),,,,,,,,---- -- ----- -- ------ - ------- --- ----------<br>------------- ------ ------ ---- ---- ------- ----- -- ----<br>-------- ------- -- ---------- --- - --- ----- ----- ----<br>---- --- --- close --- ---- ---- ------- ----- ---- -------<br>--- --- -- ----- -- --- ---- -- --- ---- -- ------ ------<br>--- ----- -- ----,61253.39999997616,61252.800000071526,61220.828,61221.39999997616,61237.535,61270.857,,31,close
screen,html.Screen,2_1_0_1_32,2022-03-21T21:14:23.569Z,,,,,,,,,,,,,,,,,53,,,,,,,,,,,,,12.743000023838249,,response,,,99,,,,Space,keypress(Space),,,,,,,,---- -- ----- -- ------ - ------- --- ----------<br>------------- ------ ------ ---- ---- ------- ----- -- ----<br>-------- ------- -- ---------- --- - --- ----- ----- ----<br>---- --- --- ----- you ---- ---- ------- ----- ---- -------<br>--- --- -- ----- -- --- ---- -- --- ---- -- ------ ------<br>--- ----- -- ----,61284.200000047684,61283.60000002384,61254.143,61253.5,61270.857,61304.208,,32,you
screen,html.Screen,2_1_0_1_33,2022-03-21T21:14:23.599Z,,,,,,,,,,,,,,,,,53,,,,,,,,,,,,,9.092000071526854,,response,,,99,,,,Space,keypress(Space),,,,,,,,---- -- ----- -- ------ - ------- --- ----------<br>------------- ------ ------ ---- ---- ------- ----- -- ----<br>-------- ------- -- ---------- --- - --- ----- ----- ----<br>---- --- --- ----- --- feel ---- ------- ----- ---- -------<br>--- --- -- ----- -- --- ---- -- --- ---- -- ------ ------<br>--- ----- -- ----,61314,61313.300000071526,61287.533,61284.39999997616,61304.208,61337.615,,33,feel
screen,html.Screen,2_1_0_1_34,2022-03-21T21:14:23.630Z,,,,,,,,,,,,,,,,,53,,,,,,,,,,,,,6.784999976160179,,response,,,99,,,,Space,keypress(Space),,,,,,,,---- -- ----- -- ------ - ------- --- ----------<br>------------- ------ ------ ---- ---- ------- ----- -- ----<br>-------- ------- -- ---------- --- - --- ----- ----- ----<br>---- --- --- ----- --- ---- that ------- ----- ---- -------<br>--- --- -- ----- -- --- ---- -- --- ---- -- ------ ------<br>--- ----- -- ----,61345.10000002384,61344.39999997616,61320.893,61314.200000047684,61337.615,61370.982,,34,that
screen,html.Screen,2_1_0_1_35,2022-03-21T21:14:23.661Z,,,,,,,,,,,,,,,,,53,,,,,,,,,,,,,4.917999976154533,,response,,,99,,,,Space,keypress(Space),,,,,,,,---- -- ----- -- ------ - ------- --- ----------<br>------------- ------ ------ ---- ---- ------- ----- -- ----<br>-------- ------- -- ---------- --- - --- ----- ----- ----<br>---- --- --- ----- --- ---- ---- matters ----- ---- -------<br>--- --- -- ----- -- --- ---- -- --- ---- -- ------ ------<br>--- ----- -- ----,61376.5,61375.89999997616,61354.219,61345.300000071526,61370.982,61404.332,,35,matters
screen,html.Screen,2_1_0_1_36,2022-03-21T21:14:23.709Z,,,,,,,,,,,,,,,,,53,,,,,,,,,,,,,18.56799997615599,,response,,,99,,,,Space,keypress(Space),,,,,,,,"---- -- ----- -- ------ - ------- --- ----------<br>------------- ------ ------ ---- ---- ------- ----- -- ----<br>-------- ------- -- ---------- --- - --- ----- ----- ----<br>---- --- --- ----- --- ---- ---- ------- most, ---- -------<br>--- --- -- ----- -- --- ---- -- --- ---- -- ------ ------<br>--- ----- -- ----",61423.60000002384,61422.89999997616,61387.616,61376.60000002384,61404.332,61437.696,,36,"most,"
screen,html.Screen,2_1_0_1_37,2022-03-21T21:14:23.741Z,,,,,,,,,,,,,,,,,53,,,,,,,,,,,,,17.30399999999645,,response,,,99,,,,Space,keypress(Space),,,,,,,,---- -- ----- -- ------ - ------- --- ----------<br>------------- ------ ------ ---- ---- ------- ----- -- ----<br>-------- ------- -- ---------- --- - --- ----- ----- ----<br>---- --- --- ----- --- ---- ---- ------- ----- it's -------<br>--- --- -- ----- -- --- ---- -- --- ---- -- ------ ------<br>--- ----- -- ----,61455.5,61455,61420.979,61423.800000071526,61437.696,61471.047,,37,it's
screen,html.Screen,2_1_0_1_38,2022-03-21T21:14:23.771Z,,,,,,,,,,,,,,,,,53,,,,,,,,,,,,,14.453000000001339,,response,,,99,,,,Space,keypress(Space),,,,,,,,---- -- ----- -- ------ - ------- --- ----------<br>------------- ------ ------ ---- ---- ------- ----- -- ----<br>-------- ------- -- ---------- --- - --- ----- ----- ----<br>---- --- --- ----- --- ---- ---- ------- ----- ---- whether<br>--- --- -- ----- -- --- ---- -- --- ---- -- ------ ------<br>--- ----- -- ----,61486.200000047684,61485.5,61454.297,61455.800000071526,61471.047,61504.368,,38,whether
screen,html.Screen,2_1_0_1_39,2022-03-21T21:14:23.802Z,,,,,,,,,,,,,,,,,53,,,,,,,,,,,,,12.432000071523362,,response,,,99,,,,Space,keypress(Space),,,,,,,,---- -- ----- -- ------ - ------- --- ----------<br>------------- ------ ------ ---- ---- ------- ----- -- ----<br>-------- ------- -- ---------- --- - --- ----- ----- ----<br>---- --- --- ----- --- ---- ---- ------- ----- ---- -------<br>you --- -- ----- -- --- ---- -- --- ---- -- ------ ------<br>--- ----- -- ----,61517.300000071526,61516.800000071526,61487.7,61486.39999997616,61504.368,61537.767,,39,you
screen,html.Screen,2_1_0_1_40,2022-03-21T21:14:23.833Z,,,,,,,,,,,,,,,,,53,,,,,,,,,,,,,9.132999976158317,,response,,,99,,,,Space,keypress(Space),,,,,,,,---- -- ----- -- ------ - ------- --- ----------<br>------------- ------ ------ ---- ---- ------- ----- -- ----<br>-------- ------- -- ---------- --- - --- ----- ----- ----<br>---- --- --- ----- --- ---- ---- ------- ----- ---- -------<br>--- are -- ----- -- --- ---- -- --- ---- -- ------ ------<br>--- ----- -- ----,61547.60000002384,61546.89999997616,61521.057,61517.60000002384,61537.767,61571.123,,40,are
screen,html.Screen,2_1_0_1_41,2022-03-21T21:14:23.864Z,,,,,,,,,,,,,,,,,53,,,,,,,,,,,,,7.077000047684123,,response,,,99,,,,Space,keypress(Space),,,,,,,,---- -- ----- -- ------ - ------- --- ----------<br>------------- ------ ------ ---- ---- ------- ----- -- ----<br>-------- ------- -- ---------- --- - --- ----- ----- ----<br>---- --- --- ----- --- ---- ---- ------- ----- ---- -------<br>--- --- as ----- -- --- ---- -- --- ---- -- ------ ------<br>--- ----- -- ----,61578.800000071526,61578.200000047684,61554.417,61547.700000047684,61571.123,61604.501,,41,as
screen,html.Screen,2_1_0_1_42,2022-03-21T21:14:23.895Z,,,,,,,,,,,,,,,,,53,,,,,,,,,,,,,4.398999976161576,,response,,,99,,,,Space,keypress(Space),,,,,,,,---- -- ----- -- ------ - ------- --- ----------<br>------------- ------ ------ ---- ---- ------- ----- -- ----<br>-------- ------- -- ---------- --- - --- ----- ----- ----<br>---- --- --- ----- --- ---- ---- ------- ----- ---- -------<br>--- --- -- close -- --- ---- -- --- ---- -- ------ ------<br>--- ----- -- ----,61609.60000002384,61608.89999997616,61587.794,61579.10000002384,61604.501,61637.805,,42,close
screen,html.Screen,2_1_0_1_43,2022-03-21T21:14:23.926Z,,,,,,,,,,,,,,,,,53,,,,,,,,,,,,,2.795000023841567,,response,,,99,,,,Space,keypress(Space),,,,,,,,---- -- ----- -- ------ - ------- --- ----------<br>------------- ------ ------ ---- ---- ------- ----- -- ----<br>-------- ------- -- ---------- --- - --- ----- ----- ----<br>---- --- --- ----- --- ---- ---- ------- ----- ---- -------<br>--- --- -- ----- as --- ---- -- --- ---- -- ------ ------<br>--- ----- -- ----,61641.300000071526,61640.60000002384,61621.142,61609.800000071526,61637.805,61671.225,,43,as
screen,html.Screen,2_1_0_1_44,2022-03-21T21:14:23.973Z,,,,,,,,,,,,,,,,,53,,,,,,,,,,,,,15.775000000001455,,response,,,99,,,,Space,keypress(Space),,,,,,,,---- -- ----- -- ------ - ------- --- ----------<br>------------- ------ ------ ---- ---- ------- ----- -- ----<br>-------- ------- -- ---------- --- - --- ----- ----- ----<br>---- --- --- ----- --- ---- ---- ------- ----- ---- -------<br>--- --- -- ----- -- you ---- -- --- ---- -- ------ ------<br>--- ----- -- ----,61687.800000071526,61687,61654.46,61641.39999997616,61671.225,61704.573,,44,you
screen,html.Screen,2_1_0_1_45,2022-03-21T21:14:24.003Z,,,,,,,,,,,,,,,,,53,,,,,,,,,,,,,12.927000000003318,,response,,,99,,,,Space,keypress(Space),,,,,,,,---- -- ----- -- ------ - ------- --- ----------<br>------------- ------ ------ ---- ---- ------- ----- -- ----<br>-------- ------- -- ---------- --- - --- ----- ----- ----<br>---- --- --- ----- --- ---- ---- ------- ----- ---- -------<br>--- --- -- ----- -- --- want -- --- ---- -- ------ ------<br>--- ----- -- ----,61718.200000047684,61717.5,61687.861,61687.89999997616,61704.573,61737.932,,45,want
screen,html.Screen,2_1_0_1_46,2022-03-21T21:14:24.034Z,,,,,,,,,,,,,,,,,53,,,,,,,,,,,,,10.66800002384116,,response,,,99,,,,Space,keypress(Space),,,,,,,,---- -- ----- -- ------ - ------- --- ----------<br>------------- ------ ------ ---- ---- ------- ----- -- ----<br>-------- ------- -- ---------- --- - --- ----- ----- ----<br>---- --- --- ----- --- ---- ---- ------- ----- ---- -------<br>--- --- -- ----- -- --- ---- to --- ---- -- ------ ------<br>--- ----- -- ----,61749.200000047684,61748.60000002384,61721.233,61718.39999997616,61737.932,61771.302,,46,to
screen,html.Screen,2_1_0_1_47,2022-03-21T21:14:24.066Z,,,,,,,,,,,,,,,,,53,,,,,,,,,,,,,9.29800002383854,,response,,,99,,,,Space,keypress(Space),,,,,,,,"---- -- ----- -- ------ - ------- --- ----------<br>------------- ------ ------ ---- ---- ------- ----- -- ----<br>-------- ------- -- ---------- --- - --- ----- ----- ----<br>---- --- --- ----- --- ---- ---- ------- ----- ---- -------<br>--- --- -- ----- -- --- ---- -- be, ---- -- ------ ------<br>--- ----- -- ----",61781.200000047684,61780.60000002384,61754.583,61749.39999997616,61771.302,61804.666,,47,"be,"
screen,html.Screen,2_1_0_1_48,2022-03-21T21:14:24.097Z,,,,,,,,,,,,,,,,,53,,,,,,,,,,,,,6.434000023844419,,response,,,99,,,,Space,keypress(Space),,,,,,,,---- -- ----- -- ------ - ------- --- ----------<br>------------- ------ ------ ---- ---- ------- ----- -- ----<br>-------- ------- -- ---------- --- - --- ----- ----- ----<br>---- --- --- ----- --- ---- ---- ------- ----- ---- -------<br>--- --- -- ----- -- --- ---- -- --- even -- ------ ------<br>--- ----- -- ----,61811.800000071526,61811.10000002384,61787.943,61781.300000071526,61804.666,61838.029,,48,even
screen,html.Screen,2_1_0_1_49,2022-03-21T21:14:24.127Z,,,,,,,,,,,,,,,,,53,,,,,,,,,,,,,3.571000023839588,,response,,,99,,,,Space,keypress(Space),,,,,,,,---- -- ----- -- ------ - ------- --- ----------<br>------------- ------ ------ ---- ---- ------- ----- -- ----<br>-------- ------- -- ---------- --- - --- ----- ----- ----<br>---- --- --- ----- --- ---- ---- ------- ----- ---- -------<br>--- --- -- ----- -- --- ---- -- --- ---- if ------ ------<br>--- ----- -- ----,61842.300000071526,61841.60000002384,61821.302,61812,61838.029,61871.382,,49,if
screen,html.Screen,2_1_0_1_50,2022-03-21T21:14:24.159Z,,,,,,,,,,,,,,,,,53,,,,,,,,,,,,,2.21800002384407,,response,,,99,,,,Space,keypress(Space),,,,,,,,---- -- ----- -- ------ - ------- --- ----------<br>------------- ------ ------ ---- ---- ------- ----- -- ----<br>-------- ------- -- ---------- --- - --- ----- ----- ----<br>---- --- --- ----- --- ---- ---- ------- ----- ---- -------<br>--- --- -- ----- -- --- ---- -- --- ---- -- that's ------<br>--- ----- -- ----,61874.10000002384,61873.60000002384,61854.662,61842.5,61871.382,61904.739,,50,that's
screen,html.Screen,2_1_0_1_51,2022-03-21T21:14:24.190Z,,,,,,,,,,,,,,,,,53,,,,,,,,,,,,,16.47200000000157,,response,,,99,,,,Space,keypress(Space),,,,,,,,---- -- ----- -- ------ - ------- --- ----------<br>------------- ------ ------ ---- ---- ------- ----- -- ----<br>-------- ------- -- ---------- --- - --- ----- ----- ----<br>---- --- --- ----- --- ---- ---- ------- ----- ---- -------<br>--- --- -- ----- -- --- ---- -- --- ---- -- ------ really<br>--- ----- -- ----,61905.300000071526,61904.5,61888.028,61874.300000071526,,61921.395,,51,really
screen,html.Screen,2_1_0_1_52,2022-03-21T21:14:24.238Z,,,,,,,,,,,,,,,,,53,,,,,,,,,,,,,30.20500002384506,,response,,,99,,,,Space,keypress(Space),,,,,,,,---- -- ----- -- ------ - ------- --- ----------<br>------------- ------ ------ ---- ---- ------- ----- -- ----<br>-------- ------- -- ---------- --- - --- ----- ----- ----<br>---- --- --- ----- --- ---- ---- ------- ----- ---- -------<br>--- --- -- ----- -- --- ---- -- --- ---- -- ------ ------<br>not ----- -- ----,61952.60000002384,61951.60000002384,61904.739,61905.39999997616,61921.395,61971.428,,52,not
screen,html.Screen,2_1_0_1_53,2022-03-21T21:14:24.268Z,,,,,,,,,,,,,,,,,53,,,,,,,,,,,,,10.971999976158259,,response,,,99,,,,Space,keypress(Space),,,,,,,,---- -- ----- -- ------ - ------- --- ----------<br>------------- ------ ------ ---- ---- ------- ----- -- ----<br>-------- ------- -- ---------- --- - --- ----- ----- ----<br>---- --- --- ----- --- ---- ---- ------- ----- ---- -------<br>--- --- -- ----- -- --- ---- -- --- ---- -- ------ ------<br>--- close -- ----,61982.800000071526,61982.39999997616,61954.705,61952.700000047684,61971.428,62004.746,,53,close
screen,html.Screen,2_1_0_1_54,2022-03-21T21:14:24.299Z,,,,,,,,,,,,,,,,,53,,,,,,,,,,,,,8.254000000000815,,response,,,99,,,,Space,keypress(Space),,,,,,,,---- -- ----- -- ------ - ------- --- ----------<br>------------- ------ ------ ---- ---- ------- ----- -- ----<br>-------- ------- -- ---------- --- - --- ----- ----- ----<br>---- --- --- ----- --- ---- ---- ------- ----- ---- -------<br>--- --- -- ----- -- --- ---- -- --- ---- -- ------ ------<br>--- ----- at ----,62013.5,62013,61988.092,61982.89999997616,62004.746,62038.13,,54,at
screen,html.Screen,2_1_0_1_55,2022-03-21T21:14:24.329Z,,,,,,,,,,,,,,,,,53,,,,,,,,,,,,,5.670000071528193,,response,,,99,,,,Space,keypress(Space),,,,,,,,---- -- ----- -- ------ - ------- --- ----------<br>------------- ------ ------ ---- ---- ------- ----- -- ----<br>-------- ------- -- ---------- --- - --- ----- ----- ----<br>---- --- --- ----- --- ---- ---- ------- ----- ---- -------<br>--- --- -- ----- -- --- ---- -- --- ---- -- ------ ------<br>--- ----- -- all.,62044.39999997616,62043.800000071526,62021.459,62013.700000047684,62038.13,62071.428,,55,all.
Item 99,flow.Loop,2_1_0_1,2022-03-21T21:14:24.330Z,,,,,,,,,,,,,,,,,,,,,,,,,,,,,,3208.2840000715223,,completion,,,,G,,,,,,,,silence,,,,,62044.89999997616,62043.800000071526,58818.876,58819.89999997616,58835.516,62071.428,,,
Question 1,html.Screen,2_1_0_2,2022-03-21T21:14:25.477Z,,,,,,,,,,,,,,,,,,,,,,,,,,,,true,FALSE,1120.172000023842,,response,,,99,G,,,FALSE,click #choice-2,,,,silence,,,,,63192.200000047684,63191.60000002384,62054.831,62045.10000002384,62071.428,63205.632,,,
Question 2,html.Screen,2_1_0_3,2022-03-21T21:14:26.045Z,,,,,,,,,,,,,,,,,,,,,,,,,,,,true,TRUE,554.0680000476859,,response,,,99,G,,,TRUE,click #choice-1,,,,silence,,,,,63760.200000047684,63759.700000047684,63189.05,63192.39999997616,63205.632,63772.765,,,
Item 99,flow.Sequence,2_1_0,2022-03-21T21:14:26.045Z,,,,,,,,,,,,,,,,,,,,,,,,,,,,,,14932.219000047684,,completion,,,,,,,,,,,,,,,,,63760.5,63759.700000047684,48810.801,48816.89999997616,48827.481,63772.765,,,
Holding screen,html.Screen,2_1_1_0,2022-03-21T21:14:36.053Z,,,,,,,,,,,,,,,,,,,,,,,,,,,,,,10008.036000000007,,timeout,,,,,,,,,,,,,,,,,73768.5,73764.23,63756.168,63760.700000047684,63772.765,73780.801,,,
screen,html.Screen,2_1_1_1_0,2022-03-21T21:14:36.416Z,,,,,,,,,,,,,,,,,54,,,,,,,,,,,,,349.4990000715188,,response,,,100,,,,Space,keypress(Space),,,,,,,,At --- ---- --- ------ ----- ------- ---- -- --- ------- --<br>------- ---------- ------ -- ----- -- ----- -- ---- ------<br>--- ----- --- --- ------ -------- ----- --- ------ ----- --<br>----- ----- ---------- --- --- ------ ------ ---- -- ------<br>------- --- ------ ----- --- ---- ------- -- ---- --- --<br>------- ------,74131,74130.30000007153,73764.23,73768.80000007153,73780.801,74131.188,,0,At
screen,html.Screen,2_1_1_1_1,2022-03-21T21:14:36.916Z,,,,,,,,,,,,,,,,,54,,,,,,,,,,,,,499.11200007153093,,response,,,100,,,,Space,keypress(Space),,,,,,,,-- the ---- --- ------ ----- ------- ---- -- --- ------- --<br>------- ---------- ------ -- ----- -- ----- -- ---- ------<br>--- ----- --- --- ------ -------- ----- --- ------ ----- --<br>----- ----- ---------- --- --- ------ ------ ---- -- ------<br>------- --- ------ ----- --- ---- ------- -- ---- --- --<br>------- ------,74631.10000002384,74630.30000007153,74114.529,74131.20000004768,74131.188,74648.362,,1,the
screen,html.Screen,2_1_1_1_2,2022-03-21T21:14:36.964Z,,,,,,,,,,,,,,,,,54,,,,,,,,,,,,,29.738000023848144,,response,,,100,,,,Space,keypress(Space),,,,,,,,-- --- time --- ------ ----- ------- ---- -- --- ------- --<br>------- ---------- ------ -- ----- -- ----- -- ---- ------<br>--- ----- --- --- ------ -------- ----- --- ------ ----- --<br>----- ----- ---------- --- --- ------ ------ ---- -- ------<br>------- --- ------ ----- --- ---- ------- -- ---- --- --<br>------- ------,74678.80000007153,74678.10000002384,74631.643,74631.30000007153,74648.362,74698.4,,2,time
screen,html.Screen,2_1_1_1_3,2022-03-21T21:14:36.994Z,,,,,,,,,,,,,,,,,54,,,,,,,,,,,,,10.499999976163963,,response,,,100,,,,Space,keypress(Space),,,,,,,,-- --- ---- the ------ ----- ------- ---- -- --- ------- --<br>------- ---------- ------ -- ----- -- ----- -- ---- ------<br>--- ----- --- --- ------ -------- ----- --- ------ ----- --<br>----- ----- ---------- --- --- ------ ------ ---- -- ------<br>------- --- ------ ----- --- ---- ------- -- ---- --- --<br>------- ------,74709.60000002384,74708.89999997616,74681.638,74679,74698.4,74731.662,,3,the
screen,html.Screen,2_1_1_1_4,2022-03-21T21:14:37.026Z,,,,,,,,,,,,,,,,,54,,,,,,,,,,,,,8.438000023845234,,response,,,100,,,,Space,keypress(Space),,,,,,,,-- --- ---- --- French ----- ------- ---- -- --- ------- --<br>------- ---------- ------ -- ----- -- ----- -- ---- ------<br>--- ----- --- --- ------ -------- ----- --- ------ ----- --<br>----- ----- ---------- --- --- ------ ------ ---- -- ------<br>------- --- ------ ----- --- ---- ------- -- ---- --- --<br>------- ------,74740.80000007153,74740.10000002384,74715.001,74709.80000007153,74731.662,74765.119,,4,French
screen,html.Screen,2_1_1_1_5,2022-03-21T21:14:37.056Z,,,,,,,,,,,,,,,,,54,,,,,,,,,,,,,5.880999999993946,,response,,,100,,,,Space,keypress(Space),,,,,,,,-- --- ---- --- ------ crown ------- ---- -- --- ------- --<br>------- ---------- ------ -- ----- -- ----- -- ---- ------<br>--- ----- --- --- ------ -------- ----- --- ------ ----- --<br>----- ----- ---------- --- --- ------ ------ ---- -- ------<br>------- --- ------ ----- --- ---- ------- -- ---- --- --<br>------- ------,74771.60000002384,74771,74748.365,74741.10000002384,74765.119,74798.481,,5,crown
screen,html.Screen,2_1_1_1_6,2022-03-21T21:14:37.087Z,,,,,,,,,,,,,,,,,54,,,,,,,,,,,,,2.6190000238420907,,response,,,100,,,,Space,keypress(Space),,,,,,,,-- --- ---- --- ------ ----- secured ---- -- --- ------- --<br>------- ---------- ------ -- ----- -- ----- -- ---- ------<br>--- ----- --- --- ------ -------- ----- --- ------ ----- --<br>----- ----- ---------- --- --- ------ ------ ---- -- ------<br>------- --- ------ ----- --- ---- ------- -- ---- --- --<br>------- ------,74801.80000007153,74801.10000002384,74781.759,74771.70000004768,74798.481,74831.839,,6,secured
screen,html.Screen,2_1_1_1_7,2022-03-21T21:14:37.117Z,,,,,,,,,,,,,,,,,54,,,,,,,,,,,,,16.18000007153023,,response,,,100,,,,Space,keypress(Space),,,,,,,,-- --- ---- --- ------ ----- ------- much -- --- ------- --<br>------- ---------- ------ -- ----- -- ----- -- ---- ------<br>--- ----- --- --- ------ -------- ----- --- ------ ----- --<br>----- ----- ---------- --- --- ------ ------ ---- -- ------<br>------- --- ------ ----- --- ---- ------- -- ---- --- --<br>------- ------,74831.89999997616,74831.30000007153,74815.12,74802,,74848.519,,7,much
screen,html.Screen,2_1_1_1_8,2022-03-21T21:14:37.148Z,,,,,,,,,,,,,,,,,54,,,,,,,,,,,,,13.88099997615791,,response,,,100,,,,Space,keypress(Space),,,,,,,,-- --- ---- --- ------ ----- ------- ---- of --- ------- --<br>------- ---------- ------ -- ----- -- ----- -- ---- ------<br>--- ----- --- --- ------ -------- ----- --- ------ ----- --<br>----- ----- ---------- --- --- ------ ------ ---- -- ------<br>------- --- ------ ----- --- ---- ------- -- ---- --- --<br>------- ------,74863.10000002384,74862.39999997616,74831.839,74832.10000002384,74848.519,74881.826,,8,of
screen,html.Screen,2_1_1_1_9,2022-03-21T21:14:37.193Z,,,,,,,,,,,,,,,,,54,,,,,,,,,,,,,26.07399997615721,,response,,,100,,,,Space,keypress(Space),,,,,,,,-- --- ---- --- ------ ----- ------- ---- -- its ------- --<br>------- ---------- ------ -- ----- -- ----- -- ---- ------<br>--- ----- --- --- ------ -------- ----- --- ------ ----- --<br>----- ----- ---------- --- --- ------ ------ ---- -- ------<br>------- --- ------ ----- --- ---- ------- -- ---- --- --<br>------- ------,74908.5,74907.89999997616,74865.164,74863.20000004768,74881.826,74915.067,,9,its
screen,html.Screen,2_1_1_1_10,2022-03-21T21:14:37.224Z,,,,,,,,,,,,,,,,,54,,,,,,,,,,,,,23.832999976162682,,response,,,100,,,,Space,keypress(Space),,,,,,,,-- --- ---- --- ------ ----- ------- ---- -- --- revenue --<br>------- ---------- ------ -- ----- -- ----- -- ---- ------<br>--- ----- --- --- ------ -------- ----- --- ------ ----- --<br>----- ----- ---------- --- --- ------ ------ ---- -- ------<br>------- --- ------ ----- --- ---- ------- -- ---- --- --<br>------- ------,74939.60000002384,74938.89999997616,74898.517,74908.70000004768,74915.067,74948.512,,10,revenue
screen,html.Screen,2_1_1_1_11,2022-03-21T21:14:37.255Z,,,,,,,,,,,,,,,,,54,,,,,,,,,,,,,20.887999976155697,,response,,,100,,,,Space,keypress(Space),,,,,,,,-- --- ---- --- ------ ----- ------- ---- -- --- ------- by<br>------- ---------- ------ -- ----- -- ----- -- ---- ------<br>--- ----- --- --- ------ -------- ----- --- ------ ----- --<br>----- ----- ---------- --- --- ------ ------ ---- -- ------<br>------- --- ------ ----- --- ---- ------- -- ---- --- --<br>------- ------,74970,74969.39999997616,74931.837,74939.70000004768,74948.512,74981.975,,11,by
screen,html.Screen,2_1_1_1_12,2022-03-21T21:14:37.287Z,,,,,,,,,,,,,,,,,54,,,,,,,,,,,,,19.725000047677895,,response,,,100,,,,Space,keypress(Space),,,,,,,,-- --- ---- --- ------ ----- ------- ---- -- --- ------- --<br>issuing ---------- ------ -- ----- -- ----- -- ---- ------<br>--- ----- --- --- ------ -------- ----- --- ------ ----- --<br>----- ----- ---------- --- --- ------ ------ ---- -- ------<br>------- --- ------ ----- --- ---- ------- -- ---- --- --<br>------- ------,75002.39999997616,75001.70000004768,74965.256,74970.20000004768,74981.975,75015.318,,12,issuing
screen,html.Screen,2_1_1_1_13,2022-03-21T21:14:37.319Z,,,,,,,,,,,,,,,,,54,,,,,,,,,,,,,18.382000047684414,,response,,,100,,,,Space,keypress(Space),,,,,,,,-- --- ---- --- ------ ----- ------- ---- -- --- ------- --<br>------- government ------ -- ----- -- ----- -- ---- ------<br>--- ----- --- --- ------ -------- ----- --- ------ ----- --<br>----- ----- ---------- --- --- ------ ------ ---- -- ------<br>------- --- ------ ----- --- ---- ------- -- ---- --- --<br>------- ------,75034.39999997616,75033.70000004768,74998.561,75002.60000002384,75015.318,75048.688,,13,government
screen,html.Screen,2_1_1_1_14,2022-03-21T21:14:37.350Z,,,,,,,,,,,,,,,,,54,,,,,,,,,,,,,15.612000071530929,,response,,,100,,,,Space,keypress(Space),,,,,,,,-- --- ---- --- ------ ----- ------- ---- -- --- ------- --<br>------- ---------- bonds. -- ----- -- ----- -- ---- ------<br>--- ----- --- --- ------ -------- ----- --- ------ ----- --<br>----- ----- ---------- --- --- ------ ------ ---- -- ------<br>------- --- ------ ----- --- ---- ------- -- ---- --- --<br>------- ------,75064.89999997616,75064.30000007153,75031.971,75034.60000002384,75048.688,75082.045,,14,bonds.
screen,html.Screen,2_1_1_1_15,2022-03-21T21:14:37.381Z,,,,,,,,,,,,,,,,,54,,,,,,,,,,,,,13.354999976159888,,response,,,100,,,,Space,keypress(Space),,,,,,,,-- --- ---- --- ------ ----- ------- ---- -- --- ------- --<br>------- ---------- ------ In ----- -- ----- -- ---- ------<br>--- ----- --- --- ------ -------- ----- --- ------ ----- --<br>----- ----- ---------- --- --- ------ ------ ---- -- ------<br>------- --- ------ ----- --- ---- ------- -- ---- --- --<br>------- ------,75095.89999997616,75095.39999997616,75065.33,75065,75082.045,75115.402,,15,In
screen,html.Screen,2_1_1_1_16,2022-03-21T21:14:37.411Z,,,,,,,,,,,,,,,,,54,,,,,,,,,,,,,9.798000047681853,,response,,,100,,,,Space,keypress(Space),,,,,,,,"-- --- ---- --- ------ ----- ------- ---- -- --- ------- --<br>------- ---------- ------ -- 1727, -- ----- -- ---- ------<br>--- ----- --- --- ------ -------- ----- --- ------ ----- --<br>----- ----- ---------- --- --- ------ ------ ---- -- ------<br>------- --- ------ ----- --- ---- ------- -- ---- --- --<br>------- ------",75125.80000007153,75125.20000004768,75098.705,75096.10000002384,75115.402,75148.762,,16,"1727,"
screen,html.Screen,2_1_1_1_17,2022-03-21T21:14:37.457Z,,,,,,,,,,,,,,,,,54,,,,,,,,,,,,,23.237999999997555,,response,,,100,,,,Space,keypress(Space),,,,,,,,-- --- ---- --- ------ ----- ------- ---- -- --- ------- --<br>------- ---------- ------ -- ----- in ----- -- ---- ------<br>--- ----- --- --- ------ -------- ----- --- ------ ----- --<br>----- ----- ---------- --- --- ------ ------ ---- -- ------<br>------- --- ------ ----- --- ---- ------- -- ---- --- --<br>------- ------,75172.60000002384,75172,75132.044,75126,75148.762,75182.123,,17,in
screen,html.Screen,2_1_1_1_18,2022-03-21T21:14:37.489Z,,,,,,,,,,,,,,,,,54,,,,,,,,,,,,,21.077000047676847,,response,,,100,,,,Space,keypress(Space),,,,,,,,-- --- ---- --- ------ ----- ------- ---- -- --- ------- --<br>------- ---------- ------ -- ----- -- order -- ---- ------<br>--- ----- --- --- ------ -------- ----- --- ------ ----- --<br>----- ----- ---------- --- --- ------ ------ ---- -- ------<br>------- --- ------ ----- --- ---- ------- -- ---- --- --<br>------- ------,75203.89999997616,75203.20000004768,75165.404,75172.80000007153,75182.123,75215.481,,18,order
screen,html.Screen,2_1_1_1_19,2022-03-21T21:14:37.520Z,,,,,,,,,,,,,,,,,54,,,,,,,,,,,,,19.019000000000233,,response,,,100,,,,Space,keypress(Space),,,,,,,,-- --- ---- --- ------ ----- ------- ---- -- --- ------- --<br>------- ---------- ------ -- ----- -- ----- to ---- ------<br>--- ----- --- --- ------ -------- ----- --- ------ ----- --<br>----- ----- ---------- --- --- ------ ------ ---- -- ------<br>------- --- ------ ----- --- ---- ------- -- ---- --- --<br>------- ------,75235.10000002384,75234.5,75198.698,75204,75215.481,75248.833,,19,to
screen,html.Screen,2_1_1_1_20,2022-03-21T21:14:37.551Z,,,,,,,,,,,,,,,,,54,,,,,,,,,,,,,17.066999976159423,,response,,,100,,,,Space,keypress(Space),,,,,,,,-- --- ---- --- ------ ----- ------- ---- -- --- ------- --<br>------- ---------- ------ -- ----- -- ----- -- save ------<br>--- ----- --- --- ------ -------- ----- --- ------ ----- --<br>----- ----- ---------- --- --- ------ ------ ---- -- ------<br>------- --- ------ ----- --- ---- ------- -- ---- --- --<br>------- ------,75266.39999997616,75265.89999997616,75232.121,75235.39999997616,75248.833,75282.208,,20,save
screen,html.Screen,2_1_1_1_21,2022-03-21T21:14:37.582Z,,,,,,,,,,,,,,,,,54,,,,,,,,,,,,,14.092000071526854,,response,,,100,,,,Space,keypress(Space),,,,,,,,"-- --- ---- --- ------ ----- ------- ---- -- --- ------- --<br>------- ---------- ------ -- ----- -- ----- -- ---- money,<br>--- ----- --- --- ------ -------- ----- --- ------ ----- --<br>----- ----- ---------- --- --- ------ ------ ---- -- ------<br>------- --- ------ ----- --- ---- ------- -- ---- --- --<br>------- ------",75296.89999997616,75296.30000007153,75265.487,75266.60000002384,75282.208,75315.553,,21,"money,"
screen,html.Screen,2_1_1_1_22,2022-03-21T21:14:37.613Z,,,,,,,,,,,,,,,,,54,,,,,,,,,,,,,12.047000023841974,,response,,,100,,,,Space,keypress(Space),,,,,,,,-- --- ---- --- ------ ----- ------- ---- -- --- ------- --<br>------- ---------- ------ -- ----- -- ----- -- ---- ------<br>the ----- --- --- ------ -------- ----- --- ------ ----- --<br>----- ----- ---------- --- --- ------ ------ ---- -- ------<br>------- --- ------ ----- --- ---- ------- -- ---- --- --<br>------- ------,75328.30000007153,75327.60000002384,75298.839,75297.20000004768,75315.553,75348.939,,22,the
screen,html.Screen,2_1_1_1_23,2022-03-21T21:14:37.643Z,,,,,,,,,,,,,,,,,54,,,,,,,,,,,,,9.061000000001513,,response,,,100,,,,Space,keypress(Space),,,,,,,,-- --- ---- --- ------ ----- ------- ---- -- --- ------- --<br>------- ---------- ------ -- ----- -- ----- -- ---- ------<br>--- state --- --- ------ -------- ----- --- ------ ----- --<br>----- ----- ---------- --- --- ------ ------ ---- -- ------<br>------- --- ------ ----- --- ---- ------- -- ---- --- --<br>------- ------,75358.60000002384,75358,75332.202,75328.5,75348.939,75382.266,,23,state
screen,html.Screen,2_1_1_1_24,2022-03-21T21:14:37.674Z,,,,,,,,,,,,,,,,,54,,,,,,,,,,,,,6.73399999999674,,response,,,100,,,,Space,keypress(Space),,,,,,,,-- --- ---- --- ------ ----- ------- ---- -- --- ------- --<br>------- ---------- ------ -- ----- -- ----- -- ---- ------<br>--- ----- cut --- ------ -------- ----- --- ------ ----- --<br>----- ----- ---------- --- --- ------ ------ ---- -- ------<br>------- --- ------ ----- --- ---- ------- -- ---- --- --<br>------- ------,75389.70000004768,75389,75365.57,75358.80000007153,75382.266,75415.636,,24,cut
screen,html.Screen,2_1_1_1_25,2022-03-21T21:14:37.722Z,,,,,,,,,,,,,,,,,54,,,,,,,,,,,,,20.864000000001397,,response,,,100,,,,Space,keypress(Space),,,,,,,,-- --- ---- --- ------ ----- ------- ---- -- --- ------- --<br>------- ---------- ------ -- ----- -- ----- -- ---- ------<br>--- ----- --- the ------ -------- ----- --- ------ ----- --<br>----- ----- ---------- --- --- ------ ------ ---- -- ------<br>------- --- ------ ----- --- ---- ------- -- ---- --- --<br>------- ------,75437,75436.5,75398.923,75389.89999997616,75415.636,75448.901,,25,the
screen,html.Screen,2_1_1_1_26,2022-03-21T21:14:37.753Z,,,,,,,,,,,,,,,,,54,,,,,,,,,,,,,18.49899997616012,,response,,,100,,,,Space,keypress(Space),,,,,,,,-- --- ---- --- ------ ----- ------- ---- -- --- ------- --<br>------- ---------- ------ -- ----- -- ----- -- ---- ------<br>--- ----- --- --- bonds' -------- ----- --- ------ ----- --<br>----- ----- ---------- --- --- ------ ------ ---- -- ------<br>------- --- ------ ----- --- ---- ------- -- ---- --- --<br>------- ------,75468.10000002384,75467.39999997616,75432.29,75437.30000007153,75448.901,75482.373,,26,bonds'
screen,html.Screen,2_1_1_1_27,2022-03-21T21:14:37.785Z,,,,,,,,,,,,,,,,,54,,,,,,,,,,,,,16.827000047676847,,response,,,100,,,,Space,keypress(Space),,,,,,,,-- --- ---- --- ------ ----- ------- ---- -- --- ------- --<br>------- ---------- ------ -- ----- -- ----- -- ---- ------<br>--- ----- --- --- ------ interest ----- --- ------ ----- --<br>----- ----- ---------- --- --- ------ ------ ---- -- ------<br>------- --- ------ ----- --- ---- ------- -- ---- --- --<br>------- ------,75499.70000004768,75499.20000004768,75465.657,75468.20000004768,75482.373,75515.727,,27,interest
screen,html.Screen,2_1_1_1_28,2022-03-21T21:14:37.817Z,,,,,,,,,,,,,,,,,54,,,,,,,,,,,,,14.273000000001048,,response,,,100,,,,Space,keypress(Space),,,,,,,,-- --- ---- --- ------ ----- ------- ---- -- --- ------- --<br>------- ---------- ------ -- ----- -- ----- -- ---- ------<br>--- ----- --- --- ------ -------- rate. --- ------ ----- --<br>----- ----- ---------- --- --- ------ ------ ---- -- ------<br>------- --- ------ ----- --- ---- ------- -- ---- --- --<br>------- ------,75532,75530,75498.963,75499.89999997616,75515.727,75549.088,,28,rate.
screen,html.Screen,2_1_1_1_29,2022-03-21T21:14:37.846Z,,,,,,,,,,,,,,,,,54,,,,,,,,,,,,,11.512000023838482,,response,,,100,,,,Space,keypress(Space),,,,,,,,-- --- ---- --- ------ ----- ------- ---- -- --- ------- --<br>------- ---------- ------ -- ----- -- ----- -- ---- ------<br>--- ----- --- --- ------ -------- ----- The ------ ----- --<br>----- ----- ---------- --- --- ------ ------ ---- -- ------<br>------- --- ------ ----- --- ---- ------- -- ---- --- --<br>------- ------,75561.30000007153,75560.60000002384,75532.371,75532.20000004768,75549.088,75582.444,,29,The
screen,html.Screen,2_1_1_1_30,2022-03-21T21:14:37.877Z,,,,,,,,,,,,,,,,,54,,,,,,,,,,,,,9.256000047680573,,response,,,100,,,,Space,keypress(Space),,,,,,,,-- --- ---- --- ------ ----- ------- ---- -- --- ------- --<br>------- ---------- ------ -- ----- -- ----- -- ---- ------<br>--- ----- --- --- ------ -------- ----- --- market ----- --<br>----- ----- ---------- --- --- ------ ------ ---- -- ------<br>------- --- ------ ----- --- ---- ------- -- ---- --- --<br>------- ------,75592.60000002384,75591.70000004768,75565.735,75561.39999997616,75582.444,75615.808,,30,market
screen,html.Screen,2_1_1_1_31,2022-03-21T21:14:37.908Z,,,,,,,,,,,,,,,,,54,,,,,,,,,,,,,6.892000047679176,,response,,,100,,,,Space,keypress(Space),,,,,,,,-- --- ---- --- ------ ----- ------- ---- -- --- ------- --<br>------- ---------- ------ -- ----- -- ----- -- ---- ------<br>--- ----- --- --- ------ -------- ----- --- ------ value --<br>----- ----- ---------- --- --- ------ ------ ---- -- ------<br>------- --- ------ ----- --- ---- ------- -- ---- --- --<br>------- ------,75623.30000007153,75622.70000004768,75599.086,75592.70000004768,75615.808,75649.166,,31,value
screen,html.Screen,2_1_1_1_32,2022-03-21T21:14:37.939Z,,,,,,,,,,,,,,,,,54,,,,,,,,,,,,,4.534000047686277,,response,,,100,,,,Space,keypress(Space),,,,,,,,-- --- ---- --- ------ ----- ------- ---- -- --- ------- --<br>------- ---------- ------ -- ----- -- ----- -- ---- ------<br>--- ----- --- --- ------ -------- ----- --- ------ ----- of<br>----- ----- ---------- --- --- ------ ------ ---- -- ------<br>------- --- ------ ----- --- ---- ------- -- ---- --- --<br>------- ------,75654.30000007153,75653.70000004768,75632.444,75623.39999997616,75649.166,75682.514,,32,of
screen,html.Screen,2_1_1_1_33,2022-03-21T21:14:37.986Z,,,,,,,,,,,,,,,,,54,,,,,,,,,,,,,18.286000071529998,,response,,,100,,,,Space,keypress(Space),,,,,,,,-- --- ---- --- ------ ----- ------- ---- -- --- ------- --<br>------- ---------- ------ -- ----- -- ----- -- ---- ------<br>--- ----- --- --- ------ -------- ----- --- ------ ----- --<br>these ----- ---------- --- --- ------ ------ ---- -- ------<br>------- --- ------ ----- --- ---- ------- -- ---- --- --<br>------- ------,75701.5,75700.80000007153,75665.803,75654.5,75682.514,75732.559,,33,these
screen,html.Screen,2_1_1_1_34,2022-03-21T21:14:38.018Z,,,,,,,,,,,,,,,,,54,,,,,,,,,,,,,16.237000023844303,,response,,,100,,,,Space,keypress(Space),,,,,,,,-- --- ---- --- ------ ----- ------- ---- -- --- ------- --<br>------- ---------- ------ -- ----- -- ----- -- ---- ------<br>--- ----- --- --- ------ -------- ----- --- ------ ----- --<br>----- bonds ---------- --- --- ------ ------ ---- -- ------<br>------- --- ------ ----- --- ---- ------- -- ---- --- --<br>------- ------,75732.89999997616,75732.10000002384,75715.863,75701.60000002384,,75749.253,,34,bonds
screen,html.Screen,2_1_1_1_35,2022-03-21T21:14:38.049Z,,,,,,,,,,,,,,,,,54,,,,,,,,,,,,,14.747000000003027,,response,,,100,,,,Space,keypress(Space),,,,,,,,"-- --- ---- --- ------ ----- ------- ---- -- --- ------- --<br>------- ---------- ------ -- ----- -- ----- -- ---- ------<br>--- ----- --- --- ------ -------- ----- --- ------ ----- --<br>----- ----- plummeted, --- --- ------ ------ ---- -- ------<br>------- --- ------ ----- --- ---- ------- -- ---- --- --<br>------- ------",75764.70000004768,75764,75732.559,75733.10000002384,75749.253,75782.553,,35,"plummeted,"
screen,html.Screen,2_1_1_1_36,2022-03-21T21:14:38.080Z,,,,,,,,,,,,,,,,,54,,,,,,,,,,,,,11.846999976158259,,response,,,100,,,,Space,keypress(Space),,,,,,,,-- --- ---- --- ------ ----- ------- ---- -- --- ------- --<br>------- ---------- ------ -- ----- -- ----- -- ---- ------<br>--- ----- --- --- ------ -------- ----- --- ------ ----- --<br>----- ----- ---------- and --- ------ ------ ---- -- ------<br>------- --- ------ ----- --- ---- ------- -- ---- --- --<br>------- ------,75795.10000002384,75794.39999997616,75765.896,75764.80000007153,75782.553,75815.911,,36,and
screen,html.Screen,2_1_1_1_37,2022-03-21T21:14:38.112Z,,,,,,,,,,,,,,,,,54,,,,,,,,,,,,,10.48899997616536,,response,,,100,,,,Space,keypress(Space),,,,,,,,-- --- ---- --- ------ ----- ------- ---- -- --- ------- --<br>------- ---------- ------ -- ----- -- ----- -- ---- ------<br>--- ----- --- --- ------ -------- ----- --- ------ ----- --<br>----- ----- ---------- --- the ------ ------ ---- -- ------<br>------- --- ------ ----- --- ---- ------- -- ---- --- --<br>------- ------,75827,75826.39999997616,75799.263,75795.60000002384,75815.911,75849.215,,37,the
screen,html.Screen,2_1_1_1_38,2022-03-21T21:14:38.143Z,,,,,,,,,,,,,,,,,54,,,,,,,,,,,,,7.985000047687208,,response,,,100,,,,Space,keypress(Space),,,,,,,,-- --- ---- --- ------ ----- ------- ---- -- --- ------- --<br>------- ---------- ------ -- ----- -- ----- -- ---- ------<br>--- ----- --- --- ------ -------- ----- --- ------ ----- --<br>----- ----- ---------- --- --- market ------ ---- -- ------<br>------- --- ------ ----- --- ---- ------- -- ---- --- --<br>------- ------,75857.89999997616,75857.20000004768,75832.601,75827.20000004768,75849.215,75882.673,,38,market
screen,html.Screen,2_1_1_1_39,2022-03-21T21:14:38.175Z,,,,,,,,,,,,,,,,,54,,,,,,,,,,,,,6.427000023846631,,response,,,100,,,,Space,keypress(Space),,,,,,,,-- --- ---- --- ------ ----- ------- ---- -- --- ------- --<br>------- ---------- ------ -- ----- -- ----- -- ---- ------<br>--- ----- --- --- ------ -------- ----- --- ------ ----- --<br>----- ----- ---------- --- --- ------ became ---- -- ------<br>------- --- ------ ----- --- ---- ------- -- ---- --- --<br>------- ------,75889.70000004768,75889.10000002384,75865.959,75858.10000002384,75882.673,75916.039,,39,became
screen,html.Screen,2_1_1_1_40,2022-03-21T21:14:38.206Z,,,,,,,,,,,,,,,,,54,,,,,,,,,,,,,4.860999976153835,,response,,,100,,,,Space,keypress(Space),,,,,,,,-- --- ---- --- ------ ----- ------- ---- -- --- ------- --<br>------- ---------- ------ -- ----- -- ----- -- ---- ------<br>--- ----- --- --- ------ -------- ----- --- ------ ----- --<br>----- ----- ---------- --- --- ------ ------ wary -- ------<br>------- --- ------ ----- --- ---- ------- -- ---- --- --<br>------- ------,75921.60000002384,75920.89999997616,75899.325,75889.89999997616,75916.039,75949.395,,40,wary
screen,html.Screen,2_1_1_1_41,2022-03-21T21:14:38.238Z,,,,,,,,,,,,,,,,,54,,,,,,,,,,,,,2.905000071521499,,response,,,100,,,,Space,keypress(Space),,,,,,,,-- --- ---- --- ------ ----- ------- ---- -- --- ------- --<br>------- ---------- ------ -- ----- -- ----- -- ---- ------<br>--- ----- --- --- ------ -------- ----- --- ------ ----- --<br>----- ----- ---------- --- --- ------ ------ ---- of ------<br>------- --- ------ ----- --- ---- ------- -- ---- --- --<br>------- ------,75952.80000007153,75952.30000007153,75932.679,75921.70000004768,75949.395,75982.753,,41,of
screen,html.Screen,2_1_1_1_42,2022-03-21T21:14:38.269Z,,,,,,,,,,,,,,,,,54,,,,,,,,,,,,,1.1469999761611689,,response,,,100,,,,Space,keypress(Space),,,,,,,,-- --- ---- --- ------ ----- ------- ---- -- --- ------- --<br>------- ---------- ------ -- ----- -- ----- -- ---- ------<br>--- ----- --- --- ------ -------- ----- --- ------ ----- --<br>----- ----- ---------- --- --- ------ ------ ---- -- French<br>------- --- ------ ----- --- ---- ------- -- ---- --- --<br>------- ------,75984.5,75983.89999997616,75966.038,75953,75982.753,76016.057,,42,French
screen,html.Screen,2_1_1_1_43,2022-03-21T21:14:38.316Z,,,,,,,,,,,,,,,,,54,,,,,,,,,,,,,14.442999999999302,,response,,,100,,,,Space,keypress(Space),,,,,,,,-- --- ---- --- ------ ----- ------- ---- -- --- ------- --<br>------- ---------- ------ -- ----- -- ----- -- ---- ------<br>--- ----- --- --- ------ -------- ----- --- ------ ----- --<br>----- ----- ---------- --- --- ------ ------ ---- -- ------<br>credit. --- ------ ----- --- ---- ------- -- ---- --- --<br>------- ------,76031,76030.5,75999.405,75984.70000004768,76016.057,76049.473,,43,credit.
screen,html.Screen,2_1_1_1_44,2022-03-21T21:14:38.348Z,,,,,,,,,,,,,,,,,54,,,,,,,,,,,,,13.227000047685578,,response,,,100,,,,Space,keypress(Space),,,,,,,,-- --- ---- --- ------ ----- ------- ---- -- --- ------- --<br>------- ---------- ------ -- ----- -- ----- -- ---- ------<br>--- ----- --- --- ------ -------- ----- --- ------ ----- --<br>----- ----- ---------- --- --- ------ ------ ---- -- ------<br>------- The ------ ----- --- ---- ------- -- ---- --- --<br>------- ------,76063.30000007153,76062.70000004768,76032.748,76031.20000004768,76049.473,76082.824,,44,The
screen,html.Screen,2_1_1_1_45,2022-03-21T21:14:38.380Z,,,,,,,,,,,,,,,,,54,,,,,,,,,,,,,11.376000047690468,,response,,,100,,,,Space,keypress(Space),,,,,,,,-- --- ---- --- ------ ----- ------- ---- -- --- ------- --<br>------- ---------- ------ -- ----- -- ----- -- ---- ------<br>--- ----- --- --- ------ -------- ----- --- ------ ----- --<br>----- ----- ---------- --- --- ------ ------ ---- -- ------<br>------- --- French ----- --- ---- ------- -- ---- --- --<br>------- ------,76094.89999997616,76094.20000004768,76066.074,76063.5,76082.824,76116.129,,45,French
screen,html.Screen,2_1_1_1_46,2022-03-21T21:14:38.412Z,,,,,,,,,,,,,,,,,54,,,,,,,,,,,,,10.370999999999185,,response,,,100,,,,Space,keypress(Space),,,,,,,,-- --- ---- --- ------ ----- ------- ---- -- --- ------- --<br>------- ---------- ------ -- ----- -- ----- -- ---- ------<br>--- ----- --- --- ------ -------- ----- --- ------ ----- --<br>----- ----- ---------- --- --- ------ ------ ---- -- ------<br>------- --- ------ state --- ---- ------- -- ---- --- --<br>------- ------,76127.10000002384,76126.5,76099.484,76095,76116.129,76149.502,,46,state
screen,html.Screen,2_1_1_1_47,2022-03-21T21:14:38.444Z,,,,,,,,,,,,,,,,,54,,,,,,,,,,,,,8.798000071532442,,response,,,100,,,,Space,keypress(Space),,,,,,,,-- --- ---- --- ------ ----- ------- ---- -- --- ------- --<br>------- ---------- ------ -- ----- -- ----- -- ---- ------<br>--- ----- --- --- ------ -------- ----- --- ------ ----- --<br>----- ----- ---------- --- --- ------ ------ ---- -- ------<br>------- --- ------ ----- was ---- ------- -- ---- --- --<br>------- ------,76158.80000007153,76158.30000007153,76132.834,76127.30000007153,76149.502,76182.908,,47,was
screen,html.Screen,2_1_1_1_48,2022-03-21T21:14:38.476Z,,,,,,,,,,,,,,,,,54,,,,,,,,,,,,,7.392000071529765,,response,,,100,,,,Space,keypress(Space),,,,,,,,-- --- ---- --- ------ ----- ------- ---- -- --- ------- --<br>------- ---------- ------ -- ----- -- ----- -- ---- ------<br>--- ----- --- --- ------ -------- ----- --- ------ ----- --<br>----- ----- ---------- --- --- ------ ------ ---- -- ------<br>------- --- ------ ----- --- left ------- -- ---- --- --<br>------- ------,76190.89999997616,76190.30000007153,76166.152,76159,76182.908,76216.294,,48,left
screen,html.Screen,2_1_1_1_49,2022-03-21T21:14:38.507Z,,,,,,,,,,,,,,,,,54,,,,,,,,,,,,,5.60599997616373,,response,,,100,,,,Space,keypress(Space),,,,,,,,-- --- ---- --- ------ ----- ------- ---- -- --- ------- --<br>------- ---------- ------ -- ----- -- ----- -- ---- ------<br>--- ----- --- --- ------ -------- ----- --- ------ ----- --<br>----- ----- ---------- --- --- ------ ------ ---- -- ------<br>------- --- ------ ----- --- ---- without -- ---- --- --<br>------- ------,76222.60000002384,76221.89999997616,76199.513,76191,76216.294,76249.615,,49,without
screen,html.Screen,2_1_1_1_50,2022-03-21T21:14:38.539Z,,,,,,,,,,,,,,,,,54,,,,,,,,,,,,,4.085000047678477,,response,,,100,,,,Space,keypress(Space),,,,,,,,-- --- ---- --- ------ ----- ------- ---- -- --- ------- --<br>------- ---------- ------ -- ----- -- ----- -- ---- ------<br>--- ----- --- --- ------ -------- ----- --- ------ ----- --<br>----- ----- ---------- --- --- ------ ------ ---- -- ------<br>------- --- ------ ----- --- ---- ------- an ---- --- --<br>------- ------,76254.30000007153,76253.70000004768,76232.922,76222.80000007153,76249.615,76283.013,,50,an
screen,html.Screen,2_1_1_1_51,2022-03-21T21:14:38.571Z,,,,,,,,,,,,,,,,,54,,,,,,,,,,,,,2.6870000476774294,,response,,,100,,,,Space,keypress(Space),,,,,,,,-- --- ---- --- ------ ----- ------- ---- -- --- ------- --<br>------- ---------- ------ -- ----- -- ----- -- ---- ------<br>--- ----- --- --- ------ -------- ----- --- ------ ----- --<br>----- ----- ---------- --- --- ------ ------ ---- -- ------<br>------- --- ------ ----- --- ---- ------- -- easy --- --<br>------- ------,76286.30000007153,76285.70000004768,76266.283,76254.5,76283.013,76316.289,,51,easy
screen,html.Screen,2_1_1_1_52,2022-03-21T21:14:38.603Z,,,,,,,,,,,,,,,,,54,,,,,,,,,,,,,1.1109999761538347,,response,,,100,,,,Space,keypress(Space),,,,,,,,-- --- ---- --- ------ ----- ------- ---- -- --- ------- --<br>------- ---------- ------ -- ----- -- ----- -- ---- ------<br>--- ----- --- --- ------ -------- ----- --- ------ ----- --<br>----- ----- ---------- --- --- ------ ------ ---- -- ------<br>------- --- ------ ----- --- ---- ------- -- ---- way --<br>------- ------,76317.80000007153,76317.39999997616,76299.646,76286.5,76316.289,76349.65,,52,way
screen,html.Screen,2_1_1_1_53,2022-03-21T21:14:38.635Z,,,,,,,,,,,,,,,,,54,,,,,,,,,,,,,16.208000047685346,,response,,,100,,,,Space,keypress(Space),,,,,,,,-- --- ---- --- ------ ----- ------- ---- -- --- ------- --<br>------- ---------- ------ -- ----- -- ----- -- ---- ------<br>--- ----- --- --- ------ -------- ----- --- ------ ----- --<br>----- ----- ---------- --- --- ------ ------ ---- -- ------<br>------- --- ------ ----- --- ---- ------- -- ---- --- of<br>------- ------,76349.89999997616,76349.20000004768,76332.992,76318,,76366.326,,53,of
screen,html.Screen,2_1_1_1_54,2022-03-21T21:14:38.666Z,,,,,,,,,,,,,,,,,54,,,,,,,,,,,,,14.673999999999069,,response,,,100,,,,Space,keypress(Space),,,,,,,,-- --- ---- --- ------ ----- ------- ---- -- --- ------- --<br>------- ---------- ------ -- ----- -- ----- -- ---- ------<br>--- ----- --- --- ------ -------- ----- --- ------ ----- --<br>----- ----- ---------- --- --- ------ ------ ---- -- ------<br>------- --- ------ ----- --- ---- ------- -- ---- --- --<br>raising ------,76381.60000002384,76381,76349.65,76350.10000002384,76366.326,76399.686,,54,raising
screen,html.Screen,2_1_1_1_55,2022-03-21T21:14:38.699Z,,,,,,,,,,,,,,,,,54,,,,,,,,,,,,,13.313999999998487,,response,,,100,,,,Space,keypress(Space),,,,,,,,-- --- ---- --- ------ ----- ------- ---- -- --- ------- --<br>------- ---------- ------ -- ----- -- ----- -- ---- ------<br>--- ----- --- --- ------ -------- ----- --- ------ ----- --<br>----- ----- ---------- --- --- ------ ------ ---- -- ------<br>------- --- ------ ----- --- ---- ------- -- ---- --- --<br>------- money.,76413.70000004768,76413,76383.032,76381.70000004768,76399.686,76433.127,,55,money.
Item 100,flow.Loop,2_1_1_1,2022-03-21T21:14:38.699Z,,,,,,,,,,,,,,,,,,,,,,,,,,,,,,2632.1989999999932,,completion,,,,G,,,,,,,,silence,,,,,76414,76413,73764.23,73768.70000004768,73780.801,76433.127,,,
Question 1,html.Screen,2_1_1_2,2022-03-21T21:14:39.925Z,,,,,,,,,,,,,,,,,,,,,,,,,,,,true,TRUE,1206.4730000238487,,response,,,100,G,,,TRUE,click #choice-1,,,,silence,,,,,77640.10000002384,77639.60000002384,76416.365,76414.10000002384,76433.127,77650.712,,,
Question 2,html.Screen,2_1_1_3,2022-03-21T21:14:40.325Z,,,,,,,,,,,,,,,,,,,,,,,,,,,,true,FALSE,388.8880000238423,,response,,,100,G,,,FALSE,click #choice-2,,,,silence,,,,,78040.10000002384,78039.60000002384,77634.06,77640.30000007153,77650.712,78050.992,,,
Item 100,flow.Sequence,2_1_1,2022-03-21T21:14:40.325Z,,,,,,,,,,,,,,,,,,,,,,,,,,,,,,14266.835000023842,,completion,,,,,,,,,,,,,,,,,78040.39999997616,78039.60000002384,63756.168,63760.5,63772.765,78050.992,,,
End of Practice,html.Page,2_1_2,2022-03-21T21:14:41.670Z,,,,,,,,,,,,,,,,,,,,,,,,,,,,,,1333.5080000000016,,form submission,,,,,,,,,,,,,,,,,79384.80000007153,79384.5,78034.34,78040.5,78050.992,79385.451,,,
Practice,flow.Sequence,2_1,2022-03-21T21:14:41.670Z,,,,,,,,,,,,,,,,,,,,,,,,,,,,,,30557.019,,completion,,,,,,,,,,,,,,,,,79385.10000002384,79384.5,48810.801,48816.89999997616,48827.481,79385.451,,,
Trap_instruction,html.Page,2_2_0,2022-03-21T21:14:42.798Z,,,,,,,,,,,,,,,,,,,,,,,,,,,,,,1126.9489999761572,,form submission,,,,,,,,,,,,,,,,,80512.70000004768,80512.39999997616,79368.796,79385.10000002384,79385.451,80519.707,,,
trap_trial,html.Screen,2_2_1,2022-03-21T21:14:44.045Z,,,,,,,,,,,,,,,,,,,,,,,,,,,,true,1,1239.9930000476888,,response,,,,,,,1,click #choice-1,,,,,,,,,81760.39999997616,81759.70000004768,80503.046,80512.89999997616,80519.707,81770.629,,,
end of trap trial,html.Page,2_2_2,2022-03-21T21:14:45.909Z,,,,,,,,,,,,,,,,,,,,,,,,,,,,,,1853.6710000715248,,form submission,,,,,,,,,,,,,,,,,83624.60000002384,83624.30000007153,81754.06,81760.5,81770.629,83638.923,,,
Trap 1,flow.Sequence,2_2,2022-03-21T21:14:45.910Z,,,,,,,,,,,,,,,,,,,,,,,,,,,,,,4238.849000071525,,completion,,,,,,,,,,,,,,,,,83624.80000007153,83624.30000007153,79368.796,79385.10000002384,79385.451,83638.923,,,
Standby,html.Page,2_3_0,2022-03-21T21:14:53.914Z,,,,,,,,,,,,,,,,,,,,,,,,,,,,,,8006.457000000009,,timeout,,,,,,,,,,,,,,,,,91629.5,91628.69,83622.217,83624.89999997616,83638.923,91645.38,,,
Holding screen,html.Screen,2_3_1_0_0,2022-03-21T21:15:00.920Z,,,,,,,,,,,,,,,,,,,,,,,,,,,,,,7005.546000000002,,timeout,,,,,,,,,,,,,,,,,98635.20000004768,98634.349,91628.69,91629.80000007153,91645.38,98650.926,,,
screen,html.Screen,2_3_1_0_1_0,2022-03-21T21:15:01.464Z,,,,,,,,,,,,,,,,,12,,,,,,,,,,,,,527.274000047677,,response,,,5,G,,,Space,keypress(Space),,,,instrumental,,,,Some ------ ------ ------- ------ --- ------- -----------<br>-- ----- --- ---- -- --- ------ ---- - ---- -- ----------<br>-- ------ ---- --- ---- --- --- --- ----- -- -------- ---<br>------ ------- -------- --- ---- -- ------- ------------ --<br>------ -- ---- -- --- ---- -- -------- -- --- ------ ------,99179.20000004768,99178.20000004768,98634.349,98635.5,98650.926,99184.801,,0,Some
screen,html.Screen,2_3_1_0_1_1,2022-03-21T21:15:01.965Z,,,,,,,,,,,,,,,,,12,,,,,,,,,,,,,494.7990000238351,,response,,,5,G,,,Space,keypress(Space),,,,instrumental,,,,---- months ------ ------- ------ --- ------- -----------<br>-- ----- --- ---- -- --- ------ ---- - ---- -- ----------<br>-- ------ ---- --- ---- --- --- --- ----- -- -------- ---<br>------ ------- -------- --- ---- -- ------- ------------ --<br>------ -- ---- -- --- ---- -- -------- -- --- ------ ------,99680.30000007153,99679.60000002384,99168.104,99179.5,99184.801,99685.166,,1,months
screen,html.Screen,2_3_1_0_1_2,2022-03-21T21:15:01.996Z,,,,,,,,,,,,,,,,,12,,,,,,,,,,,,,25.733999976160703,,response,,,5,G,,,Space,keypress(Space),,,,instrumental,,,,"---- ------ later, ------- ------ --- ------- -----------<br>-- ----- --- ---- -- --- ------ ---- - ---- -- ----------<br>-- ------ ---- --- ---- --- --- --- ----- -- -------- ---<br>------ ------- -------- --- ---- -- ------- ------------ --<br>------ -- ---- -- --- ---- -- -------- -- --- ------ ------",99711.60000002384,99710.89999997616,99668.477,99680.5,99685.166,99718.469,,2,"later,"
screen,html.Screen,2_3_1_0_1_3,2022-03-21T21:15:02.028Z,,,,,,,,,,,,,,,,,12,,,,,,,,,,,,,23.631000023844535,,response,,,5,G,,,Space,keypress(Space),,,,instrumental,,,,---- ------ ------ Michael ------ --- ------- -----------<br>-- ----- --- ---- -- --- ------ ---- - ---- -- ----------<br>-- ------ ---- --- ---- --- --- --- ----- -- -------- ---<br>------ ------- -------- --- ---- -- ------- ------------ --<br>------ -- ---- -- --- ---- -- -------- -- --- ------ ------,99742.70000004768,99742.10000002384,99701.918,99711.89999997616,99718.469,99751.907,,3,Michael
screen,html.Screen,2_3_1_0_1_4,2022-03-21T21:15:02.059Z,,,,,,,,,,,,,,,,,12,,,,,,,,,,,,,21.19300002383534,,response,,,5,G,,,Space,keypress(Space),,,,instrumental,,,,---- ------ ------ ------- Larson --- ------- -----------<br>-- ----- --- ---- -- --- ------ ---- - ---- -- ----------<br>-- ------ ---- --- ---- --- --- --- ----- -- -------- ---<br>------ ------- -------- --- ---- -- ------- ------------ --<br>------ -- ---- -- --- ---- -- -------- -- --- ------ ------,99773.70000004768,99773.10000002384,99735.274,99742.89999997616,99751.907,99785.315,,4,Larson
screen,html.Screen,2_3_1_0_1_5,2022-03-21T21:15:02.090Z,,,,,,,,,,,,,,,,,12,,,,,,,,,,,,,18.985000071523245,,response,,,5,G,,,Space,keypress(Space),,,,instrumental,,,,---- ------ ------ ------- ------ saw ------- -----------<br>-- ----- --- ---- -- --- ------ ---- - ---- -- ----------<br>-- ------ ---- --- ---- --- --- --- ----- -- -------- ---<br>------ ------- -------- --- ---- -- ------- ------------ --<br>------ -- ---- -- --- ---- -- -------- -- --- ------ ------,99805,99804.30000007153,99768.594,99773.89999997616,99785.315,99818.621,,5,saw
screen,html.Screen,2_3_1_0_1_6,2022-03-21T21:15:02.121Z,,,,,,,,,,,,,,,,,12,,,,,,,,,,,,,17.07900004768453,,response,,,5,G,,,Space,keypress(Space),,,,instrumental,,,,---- ------ ------ ------- ------ --- another -----------<br>-- ----- --- ---- -- --- ------ ---- - ---- -- ----------<br>-- ------ ---- --- ---- --- --- --- ----- -- -------- ---<br>------ ------- -------- --- ---- -- ------- ------------ --<br>------ -- ---- -- --- ---- -- -------- -- --- ------ ------,99836.30000007153,99835.70000004768,99801.952,99805.20000004768,99818.621,99852.033,,6,another
screen,html.Screen,2_3_1_0_1_7,2022-03-21T21:15:02.168Z,,,,,,,,,,,,,,,,,12,,,,,,,,,,,,,29.96700000000419,,response,,,5,G,,,Space,keypress(Space),,,,instrumental,,,,---- ------ ------ ------- ------ --- ------- opportunity<br>-- ----- --- ---- -- --- ------ ---- - ---- -- ----------<br>-- ------ ---- --- ---- --- --- --- ----- -- -------- ---<br>------ ------- -------- --- ---- -- ------- ------------ --<br>------ -- ---- -- --- ---- -- -------- -- --- ------ ------,99882.70000004768,99882,99835.272,99836.39999997616,99852.033,99885.317,,7,opportunity
screen,html.Screen,2_3_1_0_1_8,2022-03-21T21:15:02.199Z,,,,,,,,,,,,,,,,,12,,,,,,,,,,,,,27.983000071530114,,response,,,5,G,,,Space,keypress(Space),,,,instrumental,,,,---- ------ ------ ------- ------ --- ------- -----------<br>to ----- --- ---- -- --- ------ ---- - ---- -- ----------<br>-- ------ ---- --- ---- --- --- --- ----- -- -------- ---<br>------ ------- -------- --- ---- -- ------- ------------ --<br>------ -- ---- -- --- ---- -- -------- -- --- ------ ------,99913.89999997616,99913.30000007153,99868.673,99882.89999997616,99885.317,99918.621,,8,to
screen,html.Screen,2_3_1_0_1_9,2022-03-21T21:15:02.230Z,,,,,,,,,,,,,,,,,12,,,,,,,,,,,,,25.479000023842673,,response,,,5,G,,,Space,keypress(Space),,,,instrumental,,,,---- ------ ------ ------- ------ --- ------- -----------<br>-- stack --- ---- -- --- ------ ---- - ---- -- ----------<br>-- ------ ---- --- ---- --- --- --- ----- -- -------- ---<br>------ ------- -------- --- ---- -- ------- ------------ --<br>------ -- ---- -- --- ---- -- -------- -- --- ------ ------,99944.80000007153,99944.10000002384,99902.073,99914.10000002384,99918.621,99968.798,,9,stack
screen,html.Screen,2_3_1_0_1_10,2022-03-21T21:15:02.262Z,,,,,,,,,,,,,,,,,12,,,,,,,,,,,,,7.402000047688489,,response,,,5,G,,,Space,keypress(Space),,,,instrumental,,,,---- ------ ------ ------- ------ --- ------- -----------<br>-- ----- the ---- -- --- ------ ---- - ---- -- ----------<br>-- ------ ---- --- ---- --- --- --- ----- -- -------- ---<br>------ ------- -------- --- ---- -- ------- ------------ --<br>------ -- ---- -- --- ---- -- -------- -- --- ------ ------,99977,99976.20000004768,99952.079,99945.10000002384,99968.798,100002.161,,10,the
screen,html.Screen,2_3_1_0_1_11,2022-03-21T21:15:02.294Z,,,,,,,,,,,,,,,,,12,,,,,,,,,,,,,5.73899997616536,,response,,,5,G,,,Space,keypress(Space),,,,instrumental,,,,---- ------ ------ ------- ------ --- ------- -----------<br>-- ----- --- odds -- --- ------ ---- - ---- -- ----------<br>-- ------ ---- --- ---- --- --- --- ----- -- -------- ---<br>------ ------- -------- --- ---- -- ------- ------------ --<br>------ -- ---- -- --- ---- -- -------- -- --- ------ ------,100008.70000004768,100007.89999997616,99985.436,99977.30000007153,100002.161,100035.525,,11,odds
screen,html.Screen,2_3_1_0_1_12,2022-03-21T21:15:02.326Z,,,,,,,,,,,,,,,,,12,,,,,,,,,,,,,4.575000023847679,,response,,,5,G,,,Space,keypress(Space),,,,instrumental,,,,---- ------ ------ ------- ------ --- ------- -----------<br>-- ----- --- ---- in --- ------ ---- - ---- -- ----------<br>-- ------ ---- --- ---- --- --- --- ----- -- -------- ---<br>------ ------- -------- --- ---- -- ------- ------------ --<br>------ -- ---- -- --- ---- -- -------- -- --- ------ ------,100040.89999997616,100040.10000002384,100018.804,100008.89999997616,100035.525,100068.885,,12,in
screen,html.Screen,2_3_1_0_1_13,2022-03-21T21:15:02.356Z,,,,,,,,,,,,,,,,,12,,,,,,,,,,,,,1.8150000476889545,,response,,,5,G,,,Space,keypress(Space),,,,instrumental,,,,---- ------ ------ ------- ------ --- ------- -----------<br>-- ----- --- ---- -- his ------ ---- - ---- -- ----------<br>-- ------ ---- --- ---- --- --- --- ----- -- -------- ---<br>------ ------- -------- --- ---- -- ------- ------------ --<br>------ -- ---- -- --- ---- -- -------- -- --- ------ ------,100071.30000007153,100070.70000004768,100052.185,100041.10000002384,100068.885,100102.241,,13,his
screen,html.Screen,2_3_1_0_1_14,2022-03-21T21:15:02.388Z,,,,,,,,,,,,,,,,,12,,,,,,,,,,,,,0.45900004768918734,,response,,,5,G,,,Space,keypress(Space),,,,instrumental,,,,---- ------ ------ ------- ------ --- ------- -----------<br>-- ----- --- ---- -- --- favour ---- - ---- -- ----------<br>-- ------ ---- --- ---- --- --- --- ----- -- -------- ---<br>------ ------- -------- --- ---- -- ------- ------------ --<br>------ -- ---- -- --- ---- -- -------- -- --- ------ ------,100103.5,100102.70000004768,100085.524,100071.60000002384,100102.241,100135.601,,14,favour
screen,html.Screen,2_3_1_0_1_15,2022-03-21T21:15:02.419Z,,,,,,,,,,,,,,,,,12,,,,,,,,,,,,,14.214000023843255,,response,,,5,G,,,Space,keypress(Space),,,,instrumental,,,,---- ------ ------ ------- ------ --- ------- -----------<br>-- ----- --- ---- -- --- ------ with - ---- -- ----------<br>-- ------ ---- --- ---- --- --- --- ----- -- -------- ---<br>------ ------- -------- --- ---- -- ------- ------------ --<br>------ -- ---- -- --- ---- -- -------- -- --- ------ ------,100133.89999997616,100133.10000002384,100118.886,100103.70000004768,,100152.282,,15,with
screen,html.Screen,2_3_1_0_1_16,2022-03-21T21:15:02.465Z,,,,,,,,,,,,,,,,,12,,,,,,,,,,,,,27.617999976151623,,response,,,5,G,,,Space,keypress(Space),,,,instrumental,,,,---- ------ ------ ------- ------ --- ------- -----------<br>-- ----- --- ---- -- --- ------ ---- a ---- -- ----------<br>-- ------ ---- --- ---- --- --- --- ----- -- -------- ---<br>------ ------- -------- --- ---- -- ------- ------------ --<br>------ -- ---- -- --- ---- -- -------- -- --- ------ ------,100180.5,100179.89999997616,100135.601,100134.10000002384,100152.282,100185.555,,16,a
screen,html.Screen,2_3_1_0_1_17,2022-03-21T21:15:02.497Z,,,,,,,,,,,,,,,,,12,,,,,,,,,,,,,26.344999976165127,,response,,,5,G,,,Space,keypress(Space),,,,instrumental,,,,---- ------ ------ ------- ------ --- ------- -----------<br>-- ----- --- ---- -- --- ------ ---- - dash -- ----------<br>-- ------ ---- --- ---- --- --- --- ----- -- -------- ---<br>------ ------- -------- --- ---- -- ------- ------------ --<br>------ -- ---- -- --- ---- -- -------- -- --- ------ ------,100212.60000002384,100211.89999997616,100168.917,100180.70000004768,100185.555,100218.921,,17,dash
screen,html.Screen,2_3_1_0_1_18,2022-03-21T21:15:02.529Z,,,,,,,,,,,,,,,,,12,,,,,,,,,,,,,24.179000023839762,,response,,,5,G,,,Space,keypress(Space),,,,instrumental,,,,---- ------ ------ ------- ------ --- ------- -----------<br>-- ----- --- ---- -- --- ------ ---- - ---- of ----------<br>-- ------ ---- --- ---- --- --- --- ----- -- -------- ---<br>------ ------- -------- --- ---- -- ------- ------------ --<br>------ -- ---- -- --- ---- -- -------- -- --- ------ ------,100243.89999997616,100243.10000002384,100202.33,100212.80000007153,100218.921,100252.314,,18,of
screen,html.Screen,2_3_1_0_1_19,2022-03-21T21:15:02.559Z,,,,,,,,,,,,,,,,,12,,,,,,,,,,,,,21.585999976159655,,response,,,5,G,,,Space,keypress(Space),,,,instrumental,,,,---- ------ ------ ------- ------ --- ------- -----------<br>-- ----- --- ---- -- --- ------ ---- - ---- -- ingenuity.<br>-- ------ ---- --- ---- --- --- --- ----- -- -------- ---<br>------ ------- -------- --- ---- -- ------- ------------ --<br>------ -- ---- -- --- ---- -- -------- -- --- ------ ------,100274.60000002384,100273.89999997616,100235.664,100244,100252.314,100302.347,,19,ingenuity.
screen,html.Screen,2_3_1_0_1_20,2022-03-21T21:15:02.589Z,,,,,,,,,,,,,,,,,12,,,,,,,,,,,,,1.5529999761638464,,response,,,5,G,,,Space,keypress(Space),,,,instrumental,,,,---- ------ ------ ------- ------ --- ------- -----------<br>-- ----- --- ---- -- --- ------ ---- - ---- -- ----------<br>He ------ ---- --- ---- --- --- --- ----- -- -------- ---<br>------ ------- -------- --- ---- -- ------- ------------ --<br>------ -- ---- -- --- ---- -- -------- -- --- ------ ------,100304.60000002384,100303.89999997616,100285.681,100274.80000007153,100302.347,100335.705,,20,He
screen,html.Screen,2_3_1_0_1_21,2022-03-21T21:15:02.621Z,,,,,,,,,,,,,,,,,12,,,,,,,,,,,,,16.659000047686277,,response,,,5,G,,,Space,keypress(Space),,,,instrumental,,,,---- ------ ------ ------- ------ --- ------- -----------<br>-- ----- --- ---- -- --- ------ ---- - ---- -- ----------<br>-- walked ---- --- ---- --- --- --- ----- -- -------- ---<br>------ ------- -------- --- ---- -- ------- ------------ --<br>------ -- ---- -- --- ---- -- -------- -- --- ------ ------,100336.5,100335.70000004768,100319.041,100304.80000007153,,100352.437,,21,walked
screen,html.Screen,2_3_1_0_1_22,2022-03-21T21:15:02.652Z,,,,,,,,,,,,,,,,,12,,,,,,,,,,,,,14.462999976152787,,response,,,5,G,,,Space,keypress(Space),,,,instrumental,,,,---- ------ ------ ------- ------ --- ------- -----------<br>-- ----- --- ---- -- --- ------ ---- - ---- -- ----------<br>-- ------ into --- ---- --- --- --- ----- -- -------- ---<br>------ ------- -------- --- ---- -- ------- ------------ --<br>------ -- ---- -- --- ---- -- -------- -- --- ------ ------,100367.60000002384,100366.89999997616,100335.705,100336.60000002384,100352.437,100385.694,,22,into
screen,html.Screen,2_3_1_0_1_23,2022-03-21T21:15:02.684Z,,,,,,,,,,,,,,,,,12,,,,,,,,,,,,,13.10600007152243,,response,,,5,G,,,Space,keypress(Space),,,,instrumental,,,,---- ------ ------ ------- ------ --- ------- -----------<br>-- ----- --- ---- -- --- ------ ---- - ---- -- ----------<br>-- ------ ---- his ---- --- --- --- ----- -- -------- ---<br>------ ------- -------- --- ---- -- ------- ------------ --<br>------ -- ---- -- --- ---- -- -------- -- --- ------ ------,100399.60000002384,100398.80000007153,100369.052,100367.80000007153,100385.694,100419.18,,23,his
screen,html.Screen,2_3_1_0_1_24,2022-03-21T21:15:02.716Z,,,,,,,,,,,,,,,,,12,,,,,,,,,,,,,10.820000000006985,,response,,,5,G,,,Space,keypress(Space),,,,instrumental,,,,---- ------ ------ ------- ------ --- ------- -----------<br>-- ----- --- ---- -- --- ------ ---- - ---- -- ----------<br>-- ------ ---- --- bank --- --- --- ----- -- -------- ---<br>------ ------- -------- --- ---- -- ------- ------------ --<br>------ -- ---- -- --- ---- -- -------- -- --- ------ ------,100430.80000007153,100430,100402.459,100399.80000007153,100419.18,100452.524,,24,bank
screen,html.Screen,2_3_1_0_1_25,2022-03-21T21:15:02.762Z,,,,,,,,,,,,,,,,,12,,,,,,,,,,,,,23.97599999999511,,response,,,5,G,,,Space,keypress(Space),,,,instrumental,,,,---- ------ ------ ------- ------ --- ------- -----------<br>-- ----- --- ---- -- --- ------ ---- - ---- -- ----------<br>-- ------ ---- --- ---- one --- --- ----- -- -------- ---<br>------ ------- -------- --- ---- -- ------- ------------ --<br>------ -- ---- -- --- ---- -- -------- -- --- ------ ------,100477.20000004768,100476.5,100435.798,100430.89999997616,100452.524,100502.565,,25,one
screen,html.Screen,2_3_1_0_1_26,2022-03-21T21:15:02.793Z,,,,,,,,,,,,,,,,,12,,,,,,,,,,,,,5.235000071523245,,response,,,5,G,,,Space,keypress(Space),,,,instrumental,,,,---- ------ ------ ------- ------ --- ------- -----------<br>-- ----- --- ---- -- --- ------ ---- - ---- -- ----------<br>-- ------ ---- --- ---- --- day --- ----- -- -------- ---<br>------ ------- -------- --- ---- -- ------- ------------ --<br>------ -- ---- -- --- ---- -- -------- -- --- ------ ------,100508.60000002384,100507.80000007153,100485.857,100477.39999997616,100502.565,100535.922,,26,day
screen,html.Screen,2_3_1_0_1_27,2022-03-21T21:15:02.825Z,,,,,,,,,,,,,,,,,12,,,,,,,,,,,,,3.077999999994063,,response,,,5,G,,,Space,keypress(Space),,,,instrumental,,,,---- ------ ------ ------- ------ --- ------- -----------<br>-- ----- --- ---- -- --- ------ ---- - ---- -- ----------<br>-- ------ ---- --- ---- --- --- and ----- -- -------- ---<br>------ ------- -------- --- ---- -- ------- ------------ --<br>------ -- ---- -- --- ---- -- -------- -- --- ------ ------,100539.70000004768,100539,100519.221,100508.89999997616,100535.922,100569.287,,27,and
screen,html.Screen,2_3_1_0_1_28,2022-03-21T21:15:02.855Z,,,,,,,,,,,,,,,,,12,,,,,,,,,,,,,0.6129999761615181,,response,,,5,G,,,Space,keypress(Space),,,,instrumental,,,,---- ------ ------ ------- ------ --- ------- -----------<br>-- ----- --- ---- -- --- ------ ---- - ---- -- ----------<br>-- ------ ---- --- ---- --- --- --- asked -- -------- ---<br>------ ------- -------- --- ---- -- ------- ------------ --<br>------ -- ---- -- --- ---- -- -------- -- --- ------ ------,100570.5,100569.89999997616,100552.57,100540,100569.287,100602.545,,28,asked
screen,html.Screen,2_3_1_0_1_29,2022-03-21T21:15:02.886Z,,,,,,,,,,,,,,,,,12,,,,,,,,,,,,,15.012999976155697,,response,,,5,G,,,Space,keypress(Space),,,,instrumental,,,,---- ------ ------ ------- ------ --- ------- -----------<br>-- ----- --- ---- -- --- ------ ---- - ---- -- ----------<br>-- ------ ---- --- ---- --- --- --- ----- to -------- ---<br>------ ------- -------- --- ---- -- ------- ------------ --<br>------ -- ---- -- --- ---- -- -------- -- --- ------ ------,100601.5,100600.89999997616,100585.887,100570.70000004768,,100619.329,,29,to
screen,html.Screen,2_3_1_0_1_30,2022-03-21T21:15:02.917Z,,,,,,,,,,,,,,,,,12,,,,,,,,,,,,,12.47100007152767,,response,,,5,G,,,Space,keypress(Space),,,,instrumental,,,,---- ------ ------ ------- ------ --- ------- -----------<br>-- ----- --- ---- -- --- ------ ---- - ---- -- ----------<br>-- ------ ---- --- ---- --- --- --- ----- -- withdraw ---<br>------ ------- -------- --- ---- -- ------- ------------ --<br>------ -- ---- -- --- ---- -- -------- -- --- ------ ------,100632.60000002384,100631.80000007153,100602.545,100601.70000004768,100619.329,100652.687,,30,withdraw
screen,html.Screen,2_3_1_0_1_31,2022-03-21T21:15:02.949Z,,,,,,,,,,,,,,,,,12,,,,,,,,,,,,,11.212999976152787,,response,,,5,G,,,Space,keypress(Space),,,,instrumental,,,,---- ------ ------ ------- ------ --- ------- -----------<br>-- ----- --- ---- -- --- ------ ---- - ---- -- ----------<br>-- ------ ---- --- ---- --- --- --- ----- -- -------- his<br>------ ------- -------- --- ---- -- ------- ------------ --<br>------ -- ---- -- --- ---- -- -------- -- --- ------ ------,100664.60000002384,100663.89999997616,100635.968,100632.70000004768,100652.687,100686.043,,31,his
screen,html.Screen,2_3_1_0_1_32,2022-03-21T21:15:02.980Z,,,,,,,,,,,,,,,,,12,,,,,,,,,,,,,8.157000047678594,,response,,,5,G,,,Space,keypress(Space),,,,instrumental,,,,---- ------ ------ ------- ------ --- ------- -----------<br>-- ----- --- ---- -- --- ------ ---- - ---- -- ----------<br>-- ------ ---- --- ---- --- --- --- ----- -- -------- ---<br>entire ------- -------- --- ---- -- ------- ------------ --<br>------ -- ---- -- --- ---- -- -------- -- --- ------ ------,100694.89999997616,100694.20000004768,100669.328,100664.70000004768,100686.043,100719.4,,32,entire
screen,html.Screen,2_3_1_0_1_33,2022-03-21T21:15:03.025Z,,,,,,,,,,,,,,,,,12,,,,,,,,,,,,,20.400000071531394,,response,,,5,G,,,Space,keypress(Space),,,,instrumental,,,,---- ------ ------ ------- ------ --- ------- -----------<br>-- ----- --- ---- -- --- ------ ---- - ---- -- ----------<br>-- ------ ---- --- ---- --- --- --- ----- -- -------- ---<br>------ account -------- --- ---- -- ------- ------------ --<br>------ -- ---- -- --- ---- -- -------- -- --- ------ ------,100740.39999997616,100739.80000007153,100702.702,100695.10000002384,100719.4,100752.76,,33,account
screen,html.Screen,2_3_1_0_1_34,2022-03-21T21:15:03.057Z,,,,,,,,,,,,,,,,,12,,,,,,,,,,,,,19.24000000000524,,response,,,5,G,,,Space,keypress(Space),,,,instrumental,,,,"---- ------ ------ ------- ------ --- ------- -----------<br>-- ----- --- ---- -- --- ------ ---- - ---- -- ----------<br>-- ------ ---- --- ---- --- --- --- ----- -- -------- ---<br>------ ------- balance, --- ---- -- ------- ------------ --<br>------ -- ---- -- --- ---- -- -------- -- --- ------ ------",100772.60000002384,100772,100736.058,100740.70000004768,100752.76,100786.14,,34,"balance,"
screen,html.Screen,2_3_1_0_1_35,2022-03-21T21:15:03.089Z,,,,,,,,,,,,,,,,,12,,,,,,,,,,,,,17.860000000000582,,response,,,5,G,,,Space,keypress(Space),,,,instrumental,,,,---- ------ ------ ------- ------ --- ------- -----------<br>-- ----- --- ---- -- --- ------ ---- - ---- -- ----------<br>-- ------ ---- --- ---- --- --- --- ----- -- -------- ---<br>------ ------- -------- but ---- -- ------- ------------ --<br>------ -- ---- -- --- ---- -- -------- -- --- ------ ------,100804.60000002384,100804,100769.414,100772.80000007153,100786.14,100819.486,,35,but
screen,html.Screen,2_3_1_0_1_36,2022-03-21T21:15:03.121Z,,,,,,,,,,,,,,,,,12,,,,,,,,,,,,,16.214000047679292,,response,,,5,G,,,Space,keypress(Space),,,,instrumental,,,,---- ------ ------ ------- ------ --- ------- -----------<br>-- ----- --- ---- -- --- ------ ---- - ---- -- ----------<br>-- ------ ---- --- ---- --- --- --- ----- -- -------- ---<br>------ ------- -------- --- with -- ------- ------------ --<br>------ -- ---- -- --- ---- -- -------- -- --- ------ ------,100836.39999997616,100835.70000004768,100802.761,100804.89999997616,100819.486,100852.847,,36,with
screen,html.Screen,2_3_1_0_1_37,2022-03-21T21:15:03.151Z,,,,,,,,,,,,,,,,,12,,,,,,,,,,,,,12.85300004768942,,response,,,5,G,,,Space,keypress(Space),,,,instrumental,,,,---- ------ ------ ------- ------ --- ------- -----------<br>-- ----- --- ---- -- --- ------ ---- - ---- -- ----------<br>-- ------ ---- --- ---- --- --- --- ----- -- -------- ---<br>------ ------- -------- --- ---- an ------- ------------ --<br>------ -- ---- -- --- ---- -- -------- -- --- ------ ------,100866.5,100865.70000004768,100836.127,100836.60000002384,100852.847,100886.214,,37,an
screen,html.Screen,2_3_1_0_1_38,2022-03-21T21:15:03.183Z,,,,,,,,,,,,,,,,,12,,,,,,,,,,,,,11.486000047676498,,response,,,5,G,,,Space,keypress(Space),,,,instrumental,,,,---- ------ ------ ------- ------ --- ------- -----------<br>-- ----- --- ---- -- --- ------ ---- - ---- -- ----------<br>-- ------ ---- --- ---- --- --- --- ----- -- -------- ---<br>------ ------- -------- --- ---- -- unusual ------------ --<br>------ -- ---- -- --- ---- -- -------- -- --- ------ ------,100898.30000007153,100897.70000004768,100869.444,100866.60000002384,100886.214,100919.577,,38,unusual
screen,html.Screen,2_3_1_0_1_39,2022-03-21T21:15:03.214Z,,,,,,,,,,,,,,,,,12,,,,,,,,,,,,,8.922999999995227,,response,,,5,G,,,Space,keypress(Space),,,,instrumental,,,,---- ------ ------ ------- ------ --- ------- -----------<br>-- ----- --- ---- -- --- ------ ---- - ---- -- ----------<br>-- ------ ---- --- ---- --- --- --- ----- -- -------- ---<br>------ ------- -------- --- ---- -- ------- stipulation: --<br>------ -- ---- -- --- ---- -- -------- -- --- ------ ------,100929.20000004768,100928.5,100902.85,100898.60000002384,100919.577,100952.952,,39,stipulation:
screen,html.Screen,2_3_1_0_1_40,2022-03-21T21:15:03.244Z,,,,,,,,,,,,,,,,,12,,,,,,,,,,,,,5.748000047678943,,response,,,5,G,,,Space,keypress(Space),,,,instrumental,,,,---- ------ ------ ------- ------ --- ------- -----------<br>-- ----- --- ---- -- --- ------ ---- - ---- -- ----------<br>-- ------ ---- --- ---- --- --- --- ----- -- -------- ---<br>------ ------- -------- --- ---- -- ------- ------------ He<br>------ -- ---- -- --- ---- -- -------- -- --- ------ ------,100959.30000007153,100958.70000004768,100936.212,100929.39999997616,100952.952,100986.235,,40,He
screen,html.Screen,2_3_1_0_1_41,2022-03-21T21:15:03.275Z,,,,,,,,,,,,,,,,,12,,,,,,,,,,,,,3.5650000715249917,,response,,,5,G,,,Space,keypress(Space),,,,instrumental,,,,---- ------ ------ ------- ------ --- ------- -----------<br>-- ----- --- ---- -- --- ------ ---- - ---- -- ----------<br>-- ------ ---- --- ---- --- --- --- ----- -- -------- ---<br>------ ------- -------- --- ---- -- ------- ------------ --<br>wanted -- ---- -- --- ---- -- -------- -- --- ------ ------,100990.5,100989.80000007153,100969.565,100959.5,100986.235,101019.591,,41,wanted
screen,html.Screen,2_3_1_0_1_42,2022-03-21T21:15:03.322Z,,,,,,,,,,,,,,,,,12,,,,,,,,,,,,,17.50900002384151,,response,,,5,G,,,Space,keypress(Space),,,,instrumental,,,,---- ------ ------ ------- ------ --- ------- -----------<br>-- ----- --- ---- -- --- ------ ---- - ---- -- ----------<br>-- ------ ---- --- ---- --- --- --- ----- -- -------- ---<br>------ ------- -------- --- ---- -- ------- ------------ --<br>------ as ---- -- --- ---- -- -------- -- --- ------ ------,101037.60000002384,101037.10000002384,101002.931,100990.70000004768,101019.591,101069.669,,42,as
screen,html.Screen,2_3_1_0_1_43,2022-03-21T21:15:03.354Z,,,,,,,,,,,,,,,,,12,,,,,,,,,,,,,15.639000023846165,,response,,,5,G,,,Space,keypress(Space),,,,instrumental,,,,---- ------ ------ ------- ------ --- ------- -----------<br>-- ----- --- ---- -- --- ------ ---- - ---- -- ----------<br>-- ------ ---- --- ---- --- --- --- ----- -- -------- ---<br>------ ------- -------- --- ---- -- ------- ------------ --<br>------ -- much -- --- ---- -- -------- -- --- ------ ------,101069.39999997616,101068.60000002384,101052.961,101037.80000007153,,101086.367,,43,much
screen,html.Screen,2_3_1_0_1_44,2022-03-21T21:15:03.385Z,,,,,,,,,,,,,,,,,12,,,,,,,,,,,,,13.532999976159772,,response,,,5,G,,,Space,keypress(Space),,,,instrumental,,,,---- ------ ------ ------- ------ --- ------- -----------<br>-- ----- --- ---- -- --- ------ ---- - ---- -- ----------<br>-- ------ ---- --- ---- --- --- --- ----- -- -------- ---<br>------ ------- -------- --- ---- -- ------- ------------ --<br>------ -- ---- of --- ---- -- -------- -- --- ------ ------,101100.60000002384,101099.89999997616,101069.669,101069.5,101086.367,101119.725,,44,of
