sender,sender_type,sender_id,timestamp,meta,,Blues,Classical,Country,Dance,Electronic,Folk,Gospel,Hip-Hop,Jazz,Latin,Musical/Film,New-age,Pop,Prolific_id,Provo_ID,R&B,Rap,Reggae,Religious,Rock,Soul,Swing,Traditional,age,artist_name,correct,correctResponse,distraction,duration,education,ended_on,familiarity,gender,headphone_check_performance,item,list,music_frequency,offensiveness,pleasantness,position_correct,preference,response,response_action,snippet_file,song_name,song_rating,sound,stimulus_1,stimulus_2,stimulus_3,text,time_commit,time_end,time_render,time_run,time_show,time_switch,url,word,word_ID
Prolific ID,html.Form,0,2022-03-19T21:19:24.925Z,"{""labjs_version"":""20.2.2"",""labjs_build"":{""flavor"":""production"",""commit"":""a25486e0c714a0ae2ce03ff94b7bb6896854dcfa""},""location"":""https://run.pavlovia.org/mvasilev/prolific3_music_b/?__pilotToken=3c59dc048e8850243be8079a5c74d079&__oauthToken=cc604b6e7d449fc5fe7a311b47aeaf3d810b53f5795c726b331b83656855f6f4"",""userAgent"":""Mozilla/5.0 (Windows NT 10.0; Win64; x64) AppleWebKit/537.36 (KHTML, like Gecko) Chrome/99.0.4844.74 Safari/537.36"",""platform"":""Win32"",""language"":""de-DE"",""locale"":""en-US"",""timeZone"":""Europe/London"",""timezoneOffset"":0,""screen_width"":2560,""screen_height"":1440,""scroll_width"":3200,""scroll_height"":1621,""window_innerWidth"":3200,""window_innerHeight"":1668,""devicePixelRatio"":0.800000011920929}",,,,,,,,,,,,,,,xyz123456789,,,,,,,,,,,,,,,2452.485999952316,,form submission,,,,,,,,,,,,,,,,,,,,,12784.799999952316,12784.299999952316,10315.134,10321.100000023842,10331.814,12783.597,"{""__pilotToken"":""3c59dc048e8850243be8079a5c74d079"",""__oauthToken"":""cc604b6e7d449fc5fe7a311b47aeaf3d810b53f5795c726b331b83656855f6f4""}",,
Introduction,html.Screen,1_0,2022-03-19T21:19:26.468Z,,,,,,,,,,,,,,,,,,,,,,,,,,,,,,,1543.503000023842,,response,,,,,,,,,,,continue,click button,,,,,,,,,14328,14327.100000023842,12767.048,12785.100000023842,12783.597,14335.009,,,
Volume calibration,html.Screen,1_1,2022-03-19T21:19:27.787Z,,,,,,,,,,,,,,,,,,,,,,,,,,,,,,,1311.8909999761581,,response,,,,,,,,,,,continue,click button,,,,,,,,,15647.5,15646.899999976158,14318.349,14328.100000023842,14335.009,15652.769,,,
Task instructions,html.Screen,1_2,2022-03-19T21:19:28.653Z,,,,,,,,,,,,,,,,,,,,,,,,,,,,,,,858.2309999999998,,response,,,,,,,,,,,continue,click button,,,,,,,,,16512.799999952316,16511,15636.062,15647.700000047684,15652.769,16519.953,,,
Sounds,html.Screen,1_3_0_0,2022-03-19T21:19:32.898Z,,,,,,,,,,,,,,,,,,,,,,,,,,,,,,,4253.566999999999,,timeout,,,,,,,,,3,,,,,,,,O,I,S,,20758.299999952316,20756.877,16503.44,16513,16519.953,20773.52,,,
Judgement,html.Screen,1_3_0_1,2022-03-19T21:19:33.564Z,,,,,,,,,,,,,,,,,,,,,,,,,,,,true,3,,649.5800000238414,,response,,,,,,,,,3,,3,click #choice-3,,,,,O,I,S,,21423.799999952316,21423.100000023842,20756.877,20758.700000047684,20773.52,21424.026,,,
Trial,flow.Sequence,1_3_0,2022-03-19T21:19:33.564Z,,,,,,,,,,,,,,,,,,,,,,,,,,,,,,,4903.1470000238405,,completion,,,,,,,,,3,,,,,,,,O,I,S,,21424.200000047684,21423.100000023842,16503.44,16513,16519.953,21424.026,,,
Sounds,html.Screen,1_3_1_0,2022-03-19T21:19:37.801Z,,,,,,,,,,,,,,,,,,,,,,,,,,,,,,,4253.507999999998,,timeout,,,,,,,,,3,,,,,,,,I,O,S,,25661.600000023842,25660.799,21407.403,21424.200000047684,21424.026,25677.534,,,
Judgement,html.Screen,1_3_1_1,2022-03-19T21:19:38.387Z,,,,,,,,,,,,,,,,,,,,,,,,,,,,true,3,,569.5660000238422,,response,,,,,,,,,3,,3,click #choice-3,,,,,I,O,S,,26248,26247.100000023842,25660.799,25661.799999952316,25677.534,26261.288,,,
Trial,flow.Sequence,1_3_1,2022-03-19T21:19:38.388Z,,,,,,,,,,,,,,,,,,,,,,,,,,,,,,,4823.07400002384,,completion,,,,,,,,,3,,,,,,,,I,O,S,,26248.399999976158,26247.100000023842,21407.403,21424.200000047684,21424.026,26261.288,,,
Sounds,html.Screen,1_3_2_0,2022-03-19T21:19:42.639Z,,,,,,,,,,,,,,,,,,,,,,,,,,,,,,,4253.486000000001,,timeout,,,,,,,,,1,,,,,,,,S,O,I,,30499.100000023842,30498.092,26244.646,26248.5,26261.288,30514.774,,,
Judgement,html.Screen,1_3_2_1,2022-03-19T21:19:43.275Z,,,,,,,,,,,,,,,,,,,,,,,,,,,,true,1,,620.2259999999987,,response,,,,,,,,,1,,1,click #choice-1,,,,,S,O,I,,31135.700000047684,31135,30498.092,30499.399999976158,30514.774,31148.624,,,
Trial,flow.Sequence,1_3_2,2022-03-19T21:19:43.275Z,,,,,,,,,,,,,,,,,,,,,,,,,,,,,,,4873.7119999999995,,completion,,,,,,,,,1,,,,,,,,S,O,I,,31135.899999976158,31135,26244.646,26248.5,26261.288,31148.624,,,
Sounds,html.Screen,1_3_3_0,2022-03-19T21:19:47.526Z,,,,,,,,,,,,,,,,,,,,,,,,,,,,,,,4253.424999999999,,timeout,,,,,,,,,2,,,,,,,,I,S,O,,35387,35385.358,31131.923,31136.100000023842,31148.624,35402.049,,,
Judgement,html.Screen,1_3_3_1,2022-03-19T21:19:48.011Z,,,,,,,,,,,,,,,,,,,,,,,,,,,,true,2,,469.0510000238428,,response,,,,,,,,,2,,2,click #choice-2,,,,,I,S,O,,35871.89999997616,35871.10000002384,35385.358,35387.10000002384,35402.049,35885.783,,,
Trial,flow.Sequence,1_3_3,2022-03-19T21:19:48.011Z,,,,,,,,,,,,,,,,,,,,,,,,,,,,,,,4722.476000023842,,completion,,,,,,,,,2,,,,,,,,I,S,O,,35872,35871.10000002384,31131.923,31136,31148.624,35885.783,,,
Sounds,html.Screen,1_3_4_0,2022-03-19T21:19:52.263Z,,,,,,,,,,,,,,,,,,,,,,,,,,,,,,,4253.426999999996,,timeout,,,,,,,,,1,,,,,,,,S,I,O,,40123.39999997616,40122.464,35869.079,35872.200000047684,35885.783,40139.21,,,
Judgement,html.Screen,1_3_4_1,2022-03-19T21:19:52.739Z,,,,,,,,,,,,,,,,,,,,,,,,,,,,true,1,,459.7900000000009,,response,,,,,,,,,1,,1,click #choice-1,,,,,S,I,O,,40599.60000002384,40599,40122.464,40123.60000002384,40139.21,40606.139,,,
Trial,flow.Sequence,1_3_4,2022-03-19T21:19:52.739Z,,,,,,,,,,,,,,,,,,,,,,,,,,,,,,,4713.216999999997,,completion,,,,,,,,,1,,,,,,,,S,I,O,,40599.700000047684,40599,35869.079,35872.200000047684,35885.783,40606.139,,,
Sounds,html.Screen,1_3_5_0,2022-03-19T21:19:56.983Z,,,,,,,,,,,,,,,,,,,,,,,,,,,,,,,4253.553999999996,,timeout,,,,,,,,,2,,,,,,,,O,S,I,,44843.89999997616,44843.001,40589.513,40599.799999952316,40606.139,44859.693,,,
Judgement,html.Screen,1_3_5_1,2022-03-19T21:19:57.427Z,,,,,,,,,,,,,,,,,,,,,,,,,,,,true,2,,427.5070000476844,,response,,,,,,,,,2,,2,click #choice-2,,,,,O,S,I,,45287.799999952316,45287.200000047684,44843.001,44844.10000002384,44859.693,45293.334,,,
Trial,flow.Sequence,1_3_5,2022-03-19T21:19:57.427Z,,,,,,,,,,,,,,,,,,,,,,,,,,,,,,,4681.061000047681,,completion,,,,,,,,,2,,,,,,,,O,S,I,,45287.89999997616,45287.200000047684,40589.513,40599.799999952316,40606.139,45293.334,,,
Task,flow.Loop,1_3,2022-03-19T21:19:57.432Z,,,,,,,,,,,,,,,,,,,,,,,,,,,,,,,28767.247000047682,,completion,,,1,,,,,,,,,,,,,,,,,,45292.89999997616,45287.200000047684,16503.44,16513,16519.953,45293.334,,,
Trap,html.Screen,1_4,2022-03-19T21:19:57.434Z,,,,,,,,,,,,,,,,,,,,,,,,,,,,,,,NaN,,skipped,,,,,,,,,,,,,,,,,,,,,45294.299999952316,45287.200000047684,,45294.200000047684,,45293.334,,,
Thanks,html.Screen,1_5,2022-03-19T21:19:59.019Z,,,,,,,,,,,,,,,,,,,,,,,,,,,,,,,1585.5659999761556,,response,,,,,,,,,,,continue,click button,,,,,,,,,46879.60000002384,46878.89999997616,45276.675,45294.39999997616,45293.334,47795.349,,,
Headphone screening,flow.Sequence,1,2022-03-19T21:19:59.019Z,,,,,,,,,,,,,,,,,,,,,,,,,,,,,,,34095.30299997616,,completion,,,,,,,,,,,,,,,,,,,,,46879.700000047684,46878.89999997616,12767.048,12785.100000023842,12783.597,47795.349,,,
Instructions,html.Page,2_0,2022-03-19T21:20:01.220Z,,,,,,,,,,,,,,,,,,,,,,,,,,,,,,,1284.5509999761562,,form submission,,,,,,,,,,,,,,,,,,,,,49080.39999997616,49079.89999997616,47778.532,47791.700000047684,47795.349,49079.694,,,
Holding screen,html.Screen,2_1_0_0,2022-03-19T21:20:11.211Z,,,,,,,,,,,,,,,,,,,,,,,,,,,,,,,10008.108999999997,,timeout,,,,,,,,,,,,,,,,,,,,,59071.700000047684,59071.103,49063.038,49080.60000002384,49079.694,59087.803,,,
screen,html.Screen,2_1_0_1_0,2022-03-19T21:20:41.361Z,,,,,,,,,,,,,,,,,53,,,,,,,,,,,,,,30128.59699997616,,response,,,,99,,,,,,,Space,keypress(Space),,,,,,,,When -- ----- -- ------ - ------- --- ----------<br>------------- ------ ------ ---- ---- ------- ----- -- ----<br>-------- ------- -- ---------- --- - --- ----- ----- ----<br>---- --- --- ----- --- ---- ---- ------- ----- ---- -------<br>--- --- -- ----- -- --- ---- -- --- ---- -- ------ ------<br>--- ----- -- ----,89221,89216.39999997616,59071.103,59072,59087.803,89245.556,,0,When
screen,html.Screen,2_1_0_1_1,2022-03-19T21:20:41.685Z,,,,,,,,,,,,,,,,,53,,,,,,,,,,,,,,298.44400000000314,,response,,,,99,,,,,,,Space,keypress(Space),,,,,,,,---- it ----- -- ------ - ------- --- ----------<br>------------- ------ ------ ---- ---- ------- ----- -- ----<br>-------- ------- -- ---------- --- - --- ----- ----- ----<br>---- --- --- ----- --- ---- ---- ------- ----- ---- -------<br>--- --- -- ----- -- --- ---- -- --- ---- -- ------ ------<br>--- ----- -- ----,89544.89999997616,89544,89228.847,89221.29999995232,89245.556,89545.707,,1,it
screen,html.Screen,2_1_0_1_2,2022-03-19T21:20:41.940Z,,,,,,,,,,,,,,,,,53,,,,,,,,,,,,,,254.39300002384698,,response,,,,99,,,,,,,Space,keypress(Space),,,,,,,,---- -- comes -- ------ - ------- --- ----------<br>------------- ------ ------ ---- ---- ------- ----- -- ----<br>-------- ------- -- ---------- --- - --- ----- ----- ----<br>---- --- --- ----- --- ---- ---- ------- ----- ---- -------<br>--- --- -- ----- -- --- ---- -- --- ---- -- ------ ------<br>--- ----- -- ----,89800.70000004768,89800.10000002384,89529.067,89545.10000002384,89545.707,89812.641,,2,comes
screen,html.Screen,2_1_0_1_3,2022-03-19T21:20:42.220Z,,,,,,,,,,,,,,,,,53,,,,,,,,,,,,,,267.4590000238386,,response,,,,99,,,,,,,Space,keypress(Space),,,,,,,,---- -- ----- to ------ - ------- --- ----------<br>------------- ------ ------ ---- ---- ------- ----- -- ----<br>-------- ------- -- ---------- --- - --- ----- ----- ----<br>---- --- --- ----- --- ---- ---- ------- ----- ---- -------<br>--- --- -- ----- -- --- ---- -- --- ---- -- ------ ------<br>--- ----- -- ----,90080.79999995232,90080.10000002384,89795.952,89801,89812.641,90112.92,,3,to
screen,html.Screen,2_1_0_1_4,2022-03-19T21:20:42.452Z,,,,,,,,,,,,,,,,,53,,,,,,,,,,,,,,199.1800000238436,,response,,,,99,,,,,,,Space,keypress(Space),,,,,,,,---- -- ----- -- having - ------- --- ----------<br>------------- ------ ------ ---- ---- ------- ----- -- ----<br>-------- ------- -- ---------- --- - --- ----- ----- ----<br>---- --- --- ----- --- ---- ---- ------- ----- ---- -------<br>--- --- -- ----- -- --- ---- -- --- ---- -- ------ ------<br>--- ----- -- ----,90312.70000004768,90312.10000002384,90096.17,90081,90112.92,90329.677,,4,having
screen,html.Screen,2_1_0_1_5,2022-03-19T21:20:42.732Z,,,,,,,,,,,,,,,,,53,,,,,,,,,,,,,,262.32300000000396,,response,,,,99,,,,,,,Space,keypress(Space),,,,,,,,---- -- ----- -- ------ a ------- --- ----------<br>------------- ------ ------ ---- ---- ------- ----- -- ----<br>-------- ------- -- ---------- --- - --- ----- ----- ----<br>---- --- --- ----- --- ---- ---- ------- ----- ---- -------<br>--- --- -- ----- -- --- ---- -- --- ---- -- ------ ------<br>--- ----- -- ----,90592.70000004768,90592,90312.978,90312.89999997616,90329.677,90613.289,,5,a
screen,html.Screen,2_1_0_1_6,2022-03-19T21:20:42.981Z,,,,,,,,,,,,,,,,,53,,,,,,,,,,,,,,227.31100002383755,,response,,,,99,,,,,,,Space,keypress(Space),,,,,,,,---- -- ----- -- ------ - lasting --- ----------<br>------------- ------ ------ ---- ---- ------- ----- -- ----<br>-------- ------- -- ---------- --- - --- ----- ----- ----<br>---- --- --- ----- --- ---- ---- ------- ----- ---- -------<br>--- --- -- ----- -- --- ---- -- --- ---- -- ------ ------<br>--- ----- -- ----,90841.10000002384,90840.60000002384,90596.591,90593,90613.289,90863.489,,6,lasting
screen,html.Screen,2_1_0_1_7,2022-03-19T21:20:43.204Z,,,,,,,,,,,,,,,,,53,,,,,,,,,,,,,,200.5109999999986,,response,,,,99,,,,,,,Space,keypress(Space),,,,,,,,---- -- ----- -- ------ - ------- and ----------<br>------------- ------ ------ ---- ---- ------- ----- -- ----<br>-------- ------- -- ---------- --- - --- ----- ----- ----<br>---- --- --- ----- --- ---- ---- ------- ----- ---- -------<br>--- --- -- ----- -- --- ---- -- --- ---- -- ------ ------<br>--- ----- -- ----,91064.70000004768,91064,90846.793,90841.29999995232,90863.489,91080.33,,7,and
screen,html.Screen,2_1_0_1_8,2022-03-19T21:20:43.468Z,,,,,,,,,,,,,,,,,53,,,,,,,,,,,,,,247.7700000238401,,response,,,,99,,,,,,,Space,keypress(Space),,,,,,,,---- -- ----- -- ------ - ------- --- fulfilling<br>------------- ------ ------ ---- ---- ------- ----- -- ----<br>-------- ------- -- ---------- --- - --- ----- ----- ----<br>---- --- --- ----- --- ---- ---- ------- ----- ---- -------<br>--- --- -- ----- -- --- ---- -- --- ---- -- ------ ------<br>--- ----- -- ----,91328.79999995232,91328.10000002384,91063.624,91064.89999997616,91080.33,91330.486,,8,fulfilling
screen,html.Screen,2_1_0_1_9,2022-03-19T21:20:43.701Z,,,,,,,,,,,,,,,,,53,,,,,,,,,,,,,,229.61400002383743,,response,,,,99,,,,,,,Space,keypress(Space),,,,,,,,"---- -- ----- -- ------ - ------- --- ----------<br>relationship, ------ ------ ---- ---- ------- ----- -- ----<br>-------- ------- -- ---------- --- - --- ----- ----- ----<br>---- --- --- ----- --- ---- ---- ------- ----- ---- -------<br>--- --- -- ----- -- --- ---- -- --- ---- -- ------ ------<br>--- ----- -- ----",91560.89999997616,91560.10000002384,91313.842,91329,91330.486,91564.048,,9,"relationship,"
screen,html.Screen,2_1_0_1_10,2022-03-19T21:20:43.916Z,,,,,,,,,,,,,,,,,53,,,,,,,,,,,,,,211.95200000000477,,response,,,,99,,,,,,,Space,keypress(Space),,,,,,,,---- -- ----- -- ------ - ------- --- ----------<br>------------- common ------ ---- ---- ------- ----- -- ----<br>-------- ------- -- ---------- --- - --- ----- ----- ----<br>---- --- --- ----- --- ---- ---- ------- ----- ---- -------<br>--- --- -- ----- -- --- ---- -- --- ---- -- ------ ------<br>--- ----- -- ----,91776.70000004768,91776,91547.321,91561.10000002384,91564.048,91780.89,,10,common
screen,html.Screen,2_1_0_1_11,2022-03-19T21:20:44.141Z,,,,,,,,,,,,,,,,,53,,,,,,,,,,,,,,219.21000002384244,,response,,,,99,,,,,,,Space,keypress(Space),,,,,,,,---- -- ----- -- ------ - ------- --- ----------<br>------------- ------ wisdom ---- ---- ------- ----- -- ----<br>-------- ------- -- ---------- --- - --- ----- ----- ----<br>---- --- --- ----- --- ---- ---- ------- ----- ---- -------<br>--- --- -- ----- -- --- ---- -- --- ---- -- ------ ------<br>--- ----- -- ----,92000.89999997616,92000.10000002384,91764.242,91777.10000002384,91780.89,92014.352,,11,wisdom
screen,html.Screen,2_1_0_1_12,2022-03-19T21:20:44.533Z,,,,,,,,,,,,,,,,,53,,,,,,,,,,,,,,377.84800004768476,,response,,,,99,,,,,,,Space,keypress(Space),,,,,,,,---- -- ----- -- ------ - ------- --- ----------<br>------------- ------ ------ says ---- ------- ----- -- ----<br>-------- ------- -- ---------- --- - --- ----- ----- ----<br>---- --- --- ----- --- ---- ---- ------- ----- ---- -------<br>--- --- -- ----- -- --- ---- -- --- ---- -- ------ ------<br>--- ----- -- ----,92393,92392.20000004768,91997.733,92001.10000002384,92014.352,92398.068,,12,says
screen,html.Screen,2_1_0_1_13,2022-03-19T21:20:44.724Z,,,,,,,,,,,,,,,,,53,,,,,,,,,,,,,,185.9320000000007,,response,,,,99,,,,,,,Space,keypress(Space),,,,,,,,---- -- ----- -- ------ - ------- --- ----------<br>------------- ------ ------ ---- that ------- ----- -- ----<br>-------- ------- -- ---------- --- - --- ----- ----- ----<br>---- --- --- ----- --- ---- ---- ------- ----- ---- -------<br>--- --- -- ----- -- --- ---- -- --- ---- -- ------ ------<br>--- ----- -- ----,92584.70000004768,92584,92381.376,92393.10000002384,92398.068,92598.106,,13,that
screen,html.Screen,2_1_0_1_14,2022-03-19T21:20:45.052Z,,,,,,,,,,,,,,,,,53,,,,,,,,,,,,,,314.09400004768395,,response,,,,99,,,,,,,Space,keypress(Space),,,,,,,,---- -- ----- -- ------ - ------- --- ----------<br>------------- ------ ------ ---- ---- feeling ----- -- ----<br>-------- ------- -- ---------- --- - --- ----- ----- ----<br>---- --- --- ----- --- ---- ---- ------- ----- ---- -------<br>--- --- -- ----- -- --- ---- -- --- ---- -- ------ ------<br>--- ----- -- ----,92912.89999997616,92912.20000004768,92581.534,92585,92598.106,92915.139,,14,feeling
screen,html.Screen,2_1_0_1_15,2022-03-19T21:20:45.324Z,,,,,,,,,,,,,,,,,53,,,,,,,,,,,,,,268.9610000238463,,response,,,,99,,,,,,,Space,keypress(Space),,,,,,,,---- -- ----- -- ------ - ------- --- ----------<br>------------- ------ ------ ---- ---- ------- close -- ----<br>-------- ------- -- ---------- --- - --- ----- ----- ----<br>---- --- --- ----- --- ---- ---- ------- ----- ---- -------<br>--- --- -- ----- -- --- ---- -- --- ---- -- ------ ------<br>--- ----- -- ----,93184.79999995232,93184.10000002384,92898.46,92913,92915.139,93198.751,,15,close
screen,html.Screen,2_1_0_1_16,2022-03-19T21:20:45.581Z,,,,,,,,,,,,,,,,,53,,,,,,,,,,,,,,241.34900002383802,,response,,,,99,,,,,,,Space,keypress(Space),,,,,,,,---- -- ----- -- ------ - ------- --- ----------<br>------------- ------ ------ ---- ---- ------- ----- to ----<br>-------- ------- -- ---------- --- - --- ----- ----- ----<br>---- --- --- ----- --- ---- ---- ------- ----- ---- -------<br>--- --- -- ----- -- --- ---- -- --- ---- -- ------ ------<br>--- ----- -- ----,93440.89999997616,93440.10000002384,93182.019,93185,93198.751,93448.815,,16,to
screen,html.Screen,2_1_0_1_17,2022-03-19T21:20:45.828Z,,,,,,,,,,,,,,,,,53,,,,,,,,,,,,,,239.18499999999767,,response,,,,99,,,,,,,Space,keypress(Space),,,,,,,,---- -- ----- -- ------ - ------- --- ----------<br>------------- ------ ------ ---- ---- ------- ----- -- your<br>-------- ------- -- ---------- --- - --- ----- ----- ----<br>---- --- --- ----- --- ---- ---- ------- ----- ---- -------<br>--- --- -- ----- -- --- ---- -- --- ---- -- ------ ------<br>--- ----- -- ----,93688.70000004768,93688,93432.218,93441,93448.815,93699.092,,17,your
screen,html.Screen,2_1_0_1_18,2022-03-19T21:20:46.044Z,,,,,,,,,,,,,,,,,53,,,,,,,,,,,,,,205.00800002383767,,response,,,,99,,,,,,,Space,keypress(Space),,,,,,,,---- -- ----- -- ------ - ------- --- ----------<br>------------- ------ ------ ---- ---- ------- ----- -- ----<br>romantic ------- -- ---------- --- - --- ----- ----- ----<br>---- --- --- ----- --- ---- ---- ------- ----- ---- -------<br>--- --- -- ----- -- --- ---- -- --- ---- -- ------ ------<br>--- ----- -- ----,93904.79999995232,93904.10000002384,93682.423,93688.89999997616,93699.092,93915.901,,18,romantic
screen,html.Screen,2_1_0_1_19,2022-03-19T21:20:46.268Z,,,,,,,,,,,,,,,,,53,,,,,,,,,,,,,,212.19900002384384,,response,,,,99,,,,,,,Space,keypress(Space),,,,,,,,---- -- ----- -- ------ - ------- --- ----------<br>------------- ------ ------ ---- ---- ------- ----- -- ----<br>-------- partner -- ---------- --- - --- ----- ----- ----<br>---- --- --- ----- --- ---- ---- ------- ----- ---- -------<br>--- --- -- ----- -- --- ---- -- --- ---- -- ------ ------<br>--- ----- -- ----,94128.70000004768,94128.10000002384,93899.263,93905,93915.901,94132.788,,19,partner
screen,html.Screen,2_1_0_1_20,2022-03-19T21:20:46.476Z,,,,,,,,,,,,,,,,,53,,,,,,,,,,,,,,203.3120000238414,,response,,,,99,,,,,,,Space,keypress(Space),,,,,,,,---- -- ----- -- ------ - ------- --- ----------<br>------------- ------ ------ ---- ---- ------- ----- -- ----<br>-------- ------- is ---------- --- - --- ----- ----- ----<br>---- --- --- ----- --- ---- ---- ------- ----- ---- -------<br>--- --- -- ----- -- --- ---- -- --- ---- -- ------ ------<br>--- ----- -- ----,94336.79999995232,94336.10000002384,94116.104,94128.89999997616,94132.788,94366.359,,20,is
screen,html.Screen,2_1_0_1_21,2022-03-19T21:20:46.724Z,,,,,,,,,,,,,,,,,53,,,,,,,,,,,,,,217.64100000000326,,response,,,,99,,,,,,,Space,keypress(Space),,,,,,,,---- -- ----- -- ------ - ------- --- ----------<br>------------- ------ ------ ---- ---- ------- ----- -- ----<br>-------- ------- -- paramount. --- - --- ----- ----- ----<br>---- --- --- ----- --- ---- ---- ------- ----- ---- -------<br>--- --- -- ----- -- --- ---- -- --- ---- -- ------ ------<br>--- ----- -- ----,94584.60000002384,94584,94349.639,94337,94366.359,94616.558,,21,paramount.
screen,html.Screen,2_1_0_1_22,2022-03-19T21:20:46.948Z,,,,,,,,,,,,,,,,,53,,,,,,,,,,,,,,191.44199999999546,,response,,,,99,,,,,,,Space,keypress(Space),,,,,,,,---- -- ----- -- ------ - ------- --- ----------<br>------------- ------ ------ ---- ---- ------- ----- -- ----<br>-------- ------- -- ---------- But - --- ----- ----- ----<br>---- --- --- ----- --- ---- ---- ------- ----- ---- -------<br>--- --- -- ----- -- --- ---- -- --- ---- -- ------ ------<br>--- ----- -- ----,94808.79999995232,94808,94599.841,94584.79999995232,94616.558,94833.401,,22,But
screen,html.Screen,2_1_0_1_23,2022-03-19T21:20:47.180Z,,,,,,,,,,,,,,,,,53,,,,,,,,,,,,,,206.69900002384384,,response,,,,99,,,,,,,Space,keypress(Space),,,,,,,,---- -- ----- -- ------ - ------- --- ----------<br>------------- ------ ------ ---- ---- ------- ----- -- ----<br>-------- ------- -- ---------- --- a --- ----- ----- ----<br>---- --- --- ----- --- ---- ---- ------- ----- ---- -------<br>--- --- -- ----- -- --- ---- -- --- ---- -- ------ ------<br>--- ----- -- ----,95040.70000004768,95040.10000002384,94816.674,94809,94833.401,95066.92,,23,a
screen,html.Screen,2_1_0_1_24,2022-03-19T21:20:47.452Z,,,,,,,,,,,,,,,,,53,,,,,,,,,,,,,,245.1800000238436,,response,,,,99,,,,,,,Space,keypress(Space),,,,,,,,---- -- ----- -- ------ - ------- --- ----------<br>------------- ------ ------ ---- ---- ------- ----- -- ----<br>-------- ------- -- ---------- --- - new ----- ----- ----<br>---- --- --- ----- --- ---- ---- ------- ----- ---- -------<br>--- --- -- ----- -- --- ---- -- --- ---- -- ------ ------<br>--- ----- -- ----,95312.79999995232,95312.10000002384,95050.205,95040.89999997616,95066.92,95317.08,,24,new
screen,html.Screen,2_1_0_1_25,2022-03-19T21:20:47.669Z,,,,,,,,,,,,,,,,,53,,,,,,,,,,,,,,211.5200000238401,,response,,,,99,,,,,,,Space,keypress(Space),,,,,,,,---- -- ----- -- ------ - ------- --- ----------<br>------------- ------ ------ ---- ---- ------- ----- -- ----<br>-------- ------- -- ---------- --- - --- study ----- ----<br>---- --- --- ----- --- ---- ---- ------- ----- ---- -------<br>--- --- -- ----- -- --- ---- -- --- ---- -- ------ ------<br>--- ----- -- ----,95529.29999995232,95528.60000002384,95300.397,95313,95317.08,95533.933,,25,study
screen,html.Screen,2_1_0_1_26,2022-03-19T21:20:47.956Z,,,,,,,,,,,,,,,,,53,,,,,,,,,,,,,,282.06699999999546,,response,,,,99,,,,,,,Space,keypress(Space),,,,,,,,---- -- ----- -- ------ - ------- --- ----------<br>------------- ------ ------ ---- ---- ------- ----- -- ----<br>-------- ------- -- ---------- --- - --- ----- finds ----<br>---- --- --- ----- --- ---- ---- ------- ----- ---- -------<br>--- --- -- ----- -- --- ---- -- --- ---- -- ------ ------<br>--- ----- -- ----,95816.79999995232,95816,95517.242,95529.60000002384,95533.933,95834.208,,26,finds
screen,html.Screen,2_1_0_1_27,2022-03-19T21:20:48.196Z,,,,,,,,,,,,,,,,,53,,,,,,,,,,,,,,221.79200000000128,,response,,,,99,,,,,,,Space,keypress(Space),,,,,,,,---- -- ----- -- ------ - ------- --- ----------<br>------------- ------ ------ ---- ---- ------- ----- -- ----<br>-------- ------- -- ---------- --- - --- ----- ----- that<br>---- --- --- ----- --- ---- ---- ------- ----- ---- -------<br>--- --- -- ----- -- --- ---- -- --- ---- -- ------ ------<br>--- ----- -- ----,96056.60000002384,96056,95817.449,95816.89999997616,95834.208,96084.409,,27,that
screen,html.Screen,2_1_0_1_28,2022-03-19T21:20:48.711Z,,,,,,,,,,,,,,,,,53,,,,,,,,,,,,,,486.4909999761585,,response,,,,99,,,,,,,Space,keypress(Space),,,,,,,,---- -- ----- -- ------ - ------- --- ----------<br>------------- ------ ------ ---- ---- ------- ----- -- ----<br>-------- ------- -- ---------- --- - --- ----- ----- ----<br>it's --- --- ----- --- ---- ---- ------- ----- ---- -------<br>--- --- -- ----- -- --- ---- -- --- ---- -- ------ ------<br>--- ----- -- ----,96571.60000002384,96570.89999997616,96067.643,96056.89999997616,96084.409,96601.43,,28,it's
screen,html.Screen,2_1_0_1_29,2022-03-19T21:20:48.743Z,,,,,,,,,,,,,,,,,53,,,,,,,,,,,,,,1.2700000476907007,,response,,,,99,,,,,,,Space,keypress(Space),,,,,,,,---- -- ----- -- ------ - ------- --- ----------<br>------------- ------ ------ ---- ---- ------- ----- -- ----<br>-------- ------- -- ---------- --- - --- ----- ----- ----<br>---- not --- ----- --- ---- ---- ------- ----- ---- -------<br>--- --- -- ----- -- --- ---- -- --- ---- -- ------ ------<br>--- ----- -- ----,96603.20000004768,96602.70000004768,96584.774,96571.79999995232,96601.43,96634.793,,29,not
screen,html.Screen,2_1_0_1_30,2022-03-19T21:20:48.775Z,,,,,,,,,,,,,,,,,53,,,,,,,,,,,,,,16.617000047684996,,response,,,,99,,,,,,,Space,keypress(Space),,,,,,,,---- -- ----- -- ------ - ------- --- ----------<br>------------- ------ ------ ---- ---- ------- ----- -- ----<br>-------- ------- -- ---------- --- - --- ----- ----- ----<br>---- --- how ----- --- ---- ---- ------- ----- ---- -------<br>--- --- -- ----- -- --- ---- -- --- ---- -- ------ ------<br>--- ----- -- ----,96635.29999995232,96634.70000004768,96618.083,96603.39999997616,,96651.52,,30,how
screen,html.Screen,2_1_0_1_31,2022-03-19T21:20:48.807Z,,,,,,,,,,,,,,,,,53,,,,,,,,,,,,,,14.979999999995925,,response,,,,99,,,,,,,Space,keypress(Space),,,,,,,,---- -- ----- -- ------ - ------- --- ----------<br>------------- ------ ------ ---- ---- ------- ----- -- ----<br>-------- ------- -- ---------- --- - --- ----- ----- ----<br>---- --- --- close --- ---- ---- ------- ----- ---- -------<br>--- --- -- ----- -- --- ---- -- --- ---- -- ------ ------<br>--- ----- -- ----,96667.10000002384,96666.5,96634.793,96635.60000002384,96651.52,96684.883,,31,close
screen,html.Screen,2_1_0_1_32,2022-03-19T21:20:48.839Z,,,,,,,,,,,,,,,,,53,,,,,,,,,,,,,,13.317000047682086,,response,,,,99,,,,,,,Space,keypress(Space),,,,,,,,---- -- ----- -- ------ - ------- --- ----------<br>------------- ------ ------ ---- ---- ------- ----- -- ----<br>-------- ------- -- ---------- --- - --- ----- ----- ----<br>---- --- --- ----- you ---- ---- ------- ----- ---- -------<br>--- --- -- ----- -- --- ---- -- --- ---- -- ------ ------<br>--- ----- -- ----,96699,96698.20000004768,96668.187,96667.29999995232,96684.883,96718.253,,32,you
screen,html.Screen,2_1_0_1_33,2022-03-19T21:20:48.870Z,,,,,,,,,,,,,,,,,53,,,,,,,,,,,,,,11.947000047686743,,response,,,,99,,,,,,,Space,keypress(Space),,,,,,,,---- -- ----- -- ------ - ------- --- ----------<br>------------- ------ ------ ---- ---- ------- ----- -- ----<br>-------- ------- -- ---------- --- - --- ----- ----- ----<br>---- --- --- ----- --- feel ---- ------- ----- ---- -------<br>--- --- -- ----- -- --- ---- -- --- ---- -- ------ ------<br>--- ----- -- ----,96730.89999997616,96730.20000004768,96701.526,96699.10000002384,96718.253,96751.606,,33,feel
screen,html.Screen,2_1_0_1_34,2022-03-19T21:20:48.902Z,,,,,,,,,,,,,,,,,53,,,,,,,,,,,,,,10.394000000000233,,response,,,,99,,,,,,,Space,keypress(Space),,,,,,,,---- -- ----- -- ------ - ------- --- ----------<br>------------- ------ ------ ---- ---- ------- ----- -- ----<br>-------- ------- -- ---------- --- - --- ----- ----- ----<br>---- --- --- ----- --- ---- that ------- ----- ---- -------<br>--- --- -- ----- -- --- ---- -- --- ---- -- ------ ------<br>--- ----- -- ----,96762.5,96762,96734.906,96731,96751.606,96784.97,,34,that
screen,html.Screen,2_1_0_1_35,2022-03-19T21:20:48.934Z,,,,,,,,,,,,,,,,,53,,,,,,,,,,,,,,9.029999999998836,,response,,,,99,,,,,,,Space,keypress(Space),,,,,,,,---- -- ----- -- ------ - ------- --- ----------<br>------------- ------ ------ ---- ---- ------- ----- -- ----<br>-------- ------- -- ---------- --- - --- ----- ----- ----<br>---- --- --- ----- --- ---- ---- matters ----- ---- -------<br>--- --- -- ----- -- --- ---- -- --- ---- -- ------ ------<br>--- ----- -- ----,96794.5,96794,96768.259,96762.70000004768,96784.97,96818.33,,35,matters
screen,html.Screen,2_1_0_1_36,2022-03-19T21:20:48.966Z,,,,,,,,,,,,,,,,,53,,,,,,,,,,,,,,7.37000004768197,,response,,,,99,,,,,,,Space,keypress(Space),,,,,,,,"---- -- ----- -- ------ - ------- --- ----------<br>------------- ------ ------ ---- ---- ------- ----- -- ----<br>-------- ------- -- ---------- --- - --- ----- ----- ----<br>---- --- --- ----- --- ---- ---- ------- most, ---- -------<br>--- --- -- ----- -- --- ---- -- --- ---- -- ------ ------<br>--- ----- -- ----",96826.29999995232,96825.70000004768,96801.616,96794.70000004768,96818.33,96851.685,,36,"most,"
screen,html.Screen,2_1_0_1_37,2022-03-19T21:20:48.998Z,,,,,,,,,,,,,,,,,53,,,,,,,,,,,,,,5.815000000002328,,response,,,,99,,,,,,,Space,keypress(Space),,,,,,,,---- -- ----- -- ------ - ------- --- ----------<br>------------- ------ ------ ---- ---- ------- ----- -- ----<br>-------- ------- -- ---------- --- - --- ----- ----- ----<br>---- --- --- ----- --- ---- ---- ------- ----- it's -------<br>--- --- -- ----- -- --- ---- -- --- ---- -- ------ ------<br>--- ----- -- ----,96858.10000002384,96857.5,96834.968,96826.5,96851.685,96885.049,,37,it's
screen,html.Screen,2_1_0_1_38,2022-03-19T21:20:49.030Z,,,,,,,,,,,,,,,,,53,,,,,,,,,,,,,,4.551000023842789,,response,,,,99,,,,,,,Space,keypress(Space),,,,,,,,---- -- ----- -- ------ - ------- --- ----------<br>------------- ------ ------ ---- ---- ------- ----- -- ----<br>-------- ------- -- ---------- --- - --- ----- ----- ----<br>---- --- --- ----- --- ---- ---- ------- ----- ---- whether<br>--- --- -- ----- -- --- ---- -- --- ---- -- ------ ------<br>--- ----- -- ----,96890.10000002384,96889.60000002384,96868.332,96858.29999995232,96885.049,96918.41,,38,whether
screen,html.Screen,2_1_0_1_39,2022-03-19T21:20:49.062Z,,,,,,,,,,,,,,,,,53,,,,,,,,,,,,,,2.9899999761546496,,response,,,,99,,,,,,,Space,keypress(Space),,,,,,,,---- -- ----- -- ------ - ------- --- ----------<br>------------- ------ ------ ---- ---- ------- ----- -- ----<br>-------- ------- -- ---------- --- - --- ----- ----- ----<br>---- --- --- ----- --- ---- ---- ------- ----- ---- -------<br>you --- -- ----- -- --- ---- -- --- ---- -- ------ ------<br>--- ----- -- ----,96922,96921.39999997616,96901.687,96890.29999995232,96918.41,96951.705,,39,you
screen,html.Screen,2_1_0_1_40,2022-03-19T21:20:49.094Z,,,,,,,,,,,,,,,,,53,,,,,,,,,,,,,,1.7949999999982538,,response,,,,99,,,,,,,Space,keypress(Space),,,,,,,,---- -- ----- -- ------ - ------- --- ----------<br>------------- ------ ------ ---- ---- ------- ----- -- ----<br>-------- ------- -- ---------- --- - --- ----- ----- ----<br>---- --- --- ----- --- ---- ---- ------- ----- ---- -------<br>--- are -- ----- -- --- ---- -- --- ---- -- ------ ------<br>--- ----- -- ----,96954,96953.5,96935.027,96922.10000002384,96951.705,96985.046,,40,are
screen,html.Screen,2_1_0_1_41,2022-03-19T21:20:49.125Z,,,,,,,,,,,,,,,,,53,,,,,,,,,,,,,,16.245000023845932,,response,,,,99,,,,,,,Space,keypress(Space),,,,,,,,---- -- ----- -- ------ - ------- --- ----------<br>------------- ------ ------ ---- ---- ------- ----- -- ----<br>-------- ------- -- ---------- --- - --- ----- ----- ----<br>---- --- --- ----- --- ---- ---- ------- ----- ---- -------<br>--- --- as ----- -- --- ---- -- --- ---- -- ------ ------<br>--- ----- -- ----,96985,96984.60000002384,96968.355,96954.20000004768,,97001.729,,41,as
screen,html.Screen,2_1_0_1_42,2022-03-19T21:20:49.173Z,,,,,,,,,,,,,,,,,53,,,,,,,,,,,,,,31.07099995230965,,response,,,,99,,,,,,,Space,keypress(Space),,,,,,,,---- -- ----- -- ------ - ------- --- ----------<br>------------- ------ ------ ---- ---- ------- ----- -- ----<br>-------- ------- -- ---------- --- - --- ----- ----- ----<br>---- --- --- ----- --- ---- ---- ------- ----- ---- -------<br>--- --- -- close -- --- ---- -- --- ---- -- ------ ------<br>--- ----- -- ----,97033.29999995232,97032.79999995232,96985.046,96985,97001.729,97051.787,,42,close
screen,html.Screen,2_1_0_1_43,2022-03-19T21:20:49.205Z,,,,,,,,,,,,,,,,,53,,,,,,,,,,,,,,13.313000023845234,,response,,,,99,,,,,,,Space,keypress(Space),,,,,,,,---- -- ----- -- ------ - ------- --- ----------<br>------------- ------ ------ ---- ---- ------- ----- -- ----<br>-------- ------- -- ---------- --- - --- ----- ----- ----<br>---- --- --- ----- --- ---- ---- ------- ----- ---- -------<br>--- --- -- ----- as --- ---- -- --- ---- -- ------ ------<br>--- ----- -- ----,97065.79999995232,97065.10000002384,97035.088,97033.5,97051.787,97085.215,,43,as
screen,html.Screen,2_1_0_1_44,2022-03-19T21:20:49.237Z,,,,,,,,,,,,,,,,,53,,,,,,,,,,,,,,11.485000047687208,,response,,,,99,,,,,,,Space,keypress(Space),,,,,,,,---- -- ----- -- ------ - ------- --- ----------<br>------------- ------ ------ ---- ---- ------- ----- -- ----<br>-------- ------- -- ---------- --- - --- ----- ----- ----<br>---- --- --- ----- --- ---- ---- ------- ----- ---- -------<br>--- --- -- ----- -- you ---- -- --- ---- -- ------ ------<br>--- ----- -- ----,97097.29999995232,97096.70000004768,97068.509,97066,97085.215,97118.573,,44,you
screen,html.Screen,2_1_0_1_45,2022-03-19T21:20:49.269Z,,,,,,,,,,,,,,,,,53,,,,,,,,,,,,,,10.0270000238379,,response,,,,99,,,,,,,Space,keypress(Space),,,,,,,,---- -- ----- -- ------ - ------- --- ----------<br>------------- ------ ------ ---- ---- ------- ----- -- ----<br>-------- ------- -- ---------- --- - --- ----- ----- ----<br>---- --- --- ----- --- ---- ---- ------- ----- ---- -------<br>--- --- -- ----- -- --- want -- --- ---- -- ------ ------<br>--- ----- -- ----,97129,97128.60000002384,97101.866,97097.60000002384,97118.573,97151.932,,45,want
screen,html.Screen,2_1_0_1_46,2022-03-19T21:20:49.301Z,,,,,,,,,,,,,,,,,53,,,,,,,,,,,,,,8.567999999999302,,response,,,,99,,,,,,,Space,keypress(Space),,,,,,,,---- -- ----- -- ------ - ------- --- ----------<br>------------- ------ ------ ---- ---- ------- ----- -- ----<br>-------- ------- -- ---------- --- - --- ----- ----- ----<br>---- --- --- ----- --- ---- ---- ------- ----- ---- -------<br>--- --- -- ----- -- --- ---- to --- ---- -- ------ ------<br>--- ----- -- ----,97161.10000002384,97160.5,97135.219,97129.29999995232,97151.932,97185.293,,46,to
screen,html.Screen,2_1_0_1_47,2022-03-19T21:20:49.332Z,,,,,,,,,,,,,,,,,53,,,,,,,,,,,,,,6.10699997615302,,response,,,,99,,,,,,,Space,keypress(Space),,,,,,,,"---- -- ----- -- ------ - ------- --- ----------<br>------------- ------ ------ ---- ---- ------- ----- -- ----<br>-------- ------- -- ---------- --- - --- ----- ----- ----<br>---- --- --- ----- --- ---- ---- ------- ----- ---- -------<br>--- --- -- ----- -- --- ---- -- be, ---- -- ------ ------<br>--- ----- -- ----",97191.89999997616,97191.39999997616,97168.591,97161.29999995232,97185.293,97218.654,,47,"be,"
screen,html.Screen,2_1_0_1_48,2022-03-19T21:20:49.364Z,,,,,,,,,,,,,,,,,53,,,,,,,,,,,,,,4.846000000005006,,response,,,,99,,,,,,,Space,keypress(Space),,,,,,,,---- -- ----- -- ------ - ------- --- ----------<br>------------- ------ ------ ---- ---- ------- ----- -- ----<br>-------- ------- -- ---------- --- - --- ----- ----- ----<br>---- --- --- ----- --- ---- ---- ------- ----- ---- -------<br>--- --- -- ----- -- --- ---- -- --- even -- ------ ------<br>--- ----- -- ----,97224,97223.5,97201.947,97192.10000002384,97218.654,97252.01,,48,even
screen,html.Screen,2_1_0_1_49,2022-03-19T21:20:49.395Z,,,,,,,,,,,,,,,,,53,,,,,,,,,,,,,,2.9900000000052387,,response,,,,99,,,,,,,Space,keypress(Space),,,,,,,,---- -- ----- -- ------ - ------- --- ----------<br>------------- ------ ------ ---- ---- ------- ----- -- ----<br>-------- ------- -- ---------- --- - --- ----- ----- ----<br>---- --- --- ----- --- ---- ---- ------- ----- ---- -------<br>--- --- -- ----- -- --- ---- -- --- ---- if ------ ------<br>--- ----- -- ----,97255.5,97255,97235.291,97224.20000004768,97252.01,97285.37,,49,if
screen,html.Screen,2_1_0_1_50,2022-03-19T21:20:49.427Z,,,,,,,,,,,,,,,,,53,,,,,,,,,,,,,,1.5299999761627987,,response,,,,99,,,,,,,Space,keypress(Space),,,,,,,,---- -- ----- -- ------ - ------- --- ----------<br>------------- ------ ------ ---- ---- ------- ----- -- ----<br>-------- ------- -- ---------- --- - --- ----- ----- ----<br>---- --- --- ----- --- ---- ---- ------- ----- ---- -------<br>--- --- -- ----- -- --- ---- -- --- ---- -- that's ------<br>--- ----- -- ----,97287.39999997616,97286.89999997616,97268.656,97255.70000004768,97285.37,97318.683,,50,that's
screen,html.Screen,2_1_0_1_51,2022-03-19T21:20:49.459Z,,,,,,,,,,,,,,,,,53,,,,,,,,,,,,,,16.733000047679525,,response,,,,99,,,,,,,Space,keypress(Space),,,,,,,,---- -- ----- -- ------ - ------- --- ----------<br>------------- ------ ------ ---- ---- ------- ----- -- ----<br>-------- ------- -- ---------- --- - --- ----- ----- ----<br>---- --- --- ----- --- ---- ---- ------- ----- ---- -------<br>--- --- -- ----- -- --- ---- -- --- ---- -- ------ really<br>--- ----- -- ----,97319.29999995232,97318.70000004768,97301.967,97287.70000004768,,97335.411,,51,really
screen,html.Screen,2_1_0_1_52,2022-03-19T21:20:49.491Z,,,,,,,,,,,,,,,,,53,,,,,,,,,,,,,,15.089000000007218,,response,,,,99,,,,,,,Space,keypress(Space),,,,,,,,---- -- ----- -- ------ - ------- --- ----------<br>------------- ------ ------ ---- ---- ------- ----- -- ----<br>-------- ------- -- ---------- --- - --- ----- ----- ----<br>---- --- --- ----- --- ---- ---- ------- ----- ---- -------<br>--- --- -- ----- -- --- ---- -- --- ---- -- ------ ------<br>not ----- -- ----,97351,97350.5,97318.683,97319.5,97335.411,97368.758,,52,not
screen,html.Screen,2_1_0_1_53,2022-03-19T21:20:49.523Z,,,,,,,,,,,,,,,,,53,,,,,,,,,,,,,,13.74199999999837,,response,,,,99,,,,,,,Space,keypress(Space),,,,,,,,---- -- ----- -- ------ - ------- --- ----------<br>------------- ------ ------ ---- ---- ------- ----- -- ----<br>-------- ------- -- ---------- --- - --- ----- ----- ----<br>---- --- --- ----- --- ---- ---- ------- ----- ---- -------<br>--- --- -- ----- -- --- ---- -- --- ---- -- ------ ------<br>--- close -- ----,97383.10000002384,97382.5,97351.989,97351.20000004768,97368.758,97402.133,,53,close
screen,html.Screen,2_1_0_1_54,2022-03-19T21:20:49.885Z,,,,,,,,,,,,,,,,,53,,,,,,,,,,,,,,341.9670000238402,,response,,,,99,,,,,,,Space,keypress(Space),,,,,,,,---- -- ----- -- ------ - ------- --- ----------<br>------------- ------ ------ ---- ---- ------- ----- -- ----<br>-------- ------- -- ---------- --- - --- ----- ----- ----<br>---- --- --- ----- --- ---- ---- ------- ----- ---- -------<br>--- --- -- ----- -- --- ---- -- --- ---- -- ------ ------<br>--- ----- at ----,97745,97744.10000002384,97385.421,97383.29999995232,97402.133,97752.291,,54,at
screen,html.Screen,2_1_0_1_55,2022-03-19T21:20:50.125Z,,,,,,,,,,,,,,,,,53,,,,,,,,,,,,,,231.70900000000256,,response,,,,99,,,,,,,Space,keypress(Space),,,,,,,,---- -- ----- -- ------ - ------- --- ----------<br>------------- ------ ------ ---- ---- ------- ----- -- ----<br>-------- ------- -- ---------- --- - --- ----- ----- ----<br>---- --- --- ----- --- ---- ---- ------- ----- ---- -------<br>--- --- -- ----- -- --- ---- -- --- ---- -- ------ ------<br>--- ----- -- all.,97984.89999997616,97984,97735.697,97745.20000004768,97752.291,98002.607,,55,all.
Item 99,flow.Loop,2_1_0_1,2022-03-19T21:20:50.125Z,,,,,,,,,,,,,,,,,,,,,,,,,,,,,,,38896.197,,completion,,,,,B,,,,,,,,,,,silence,,,,,97985.39999997616,97984,59071.103,59071.89999997616,59087.803,98002.607,,,
Question 1,html.Screen,2_1_0_2,2022-03-19T21:20:50.907Z,,,,,,,,,,,,,,,,,,,,,,,,,,,,false,FALSE,,764.2929999761545,,response,,,,99,B,,,,,,TRUE,click #choice-1,,,,silence,,,,,98767.60000002384,98766.89999997616,97985.907,97985.60000002384,98002.607,98786.591,,,
Question 2,html.Screen,2_1_0_3,2022-03-19T21:20:51.379Z,,,,,,,,,,,,,,,,,,,,,,,,,,,,false,TRUE,,452.40899999999965,,response,,,,99,B,,,,,,FALSE,click #choice-2,,,,silence,,,,,99239.60000002384,99239,98769.849,98767.70000004768,98786.591,99253.602,,,
Item 99,flow.Sequence,2_1_0,2022-03-19T21:20:51.379Z,,,,,,,,,,,,,,,,,,,,,,,,,,,,,,,50159.306,,completion,,,,,,,,,,,,,,,,,,,,,99239.79999995232,99239,49063.038,49080.60000002384,49079.694,99253.602,,,
Holding screen,html.Screen,2_1_1_0,2022-03-19T21:21:01.388Z,,,,,,,,,,,,,,,,,,,,,,,,,,,,,,,10007.959000000003,,timeout,,,,,,,,,,,,,,,,,,,,,109248.5,109244.95,99236.908,99239.89999997616,99253.602,109261.561,,,
screen,html.Screen,2_1_1_1_0,2022-03-19T21:21:01.893Z,,,,,,,,,,,,,,,,,54,,,,,,,,,,,,,,490.83899997615663,,response,,,,100,,,,,,,Space,keypress(Space),,,,,,,,At --- ---- --- ------ ----- ------- ---- -- --- ------- --<br>------- ---------- ------ -- ----- -- ----- -- ---- ------<br>--- ----- --- --- ------ -------- ----- --- ------ ----- --<br>----- ----- ---------- --- --- ------ ------ ---- -- ------<br>------- --- ------ ----- --- ---- ------- -- ---- --- --<br>------- ------,109753.10000002384,109752.39999997616,109244.95,109248.70000004768,109261.561,109761.964,,0,At
screen,html.Screen,2_1_1_1_1,2022-03-19T21:21:02.403Z,,,,,,,,,,,,,,,,,54,,,,,,,,,,,,,,500.9359999761509,,response,,,,100,,,,,,,Space,keypress(Space),,,,,,,,-- the ---- --- ------ ----- ------- ---- -- --- ------- --<br>------- ---------- ------ -- ----- -- ----- -- ---- ------<br>--- ----- --- --- ------ -------- ----- --- ------ ----- --<br>----- ----- ---------- --- --- ------ ------ ---- -- ------<br>------- --- ------ ----- --- ---- ------- -- ---- --- --<br>------- ------,110263.60000002384,110262.89999997616,109745.343,109753.29999995232,109761.964,110295.883,,1,the
screen,html.Screen,2_1_1_1_2,2022-03-19T21:21:02.435Z,,,,,,,,,,,,,,,,,54,,,,,,,,,,,,,,15.128999952314189,,response,,,,100,,,,,,,Space,keypress(Space),,,,,,,,-- --- time --- ------ ----- ------- ---- -- --- ------- --<br>------- ---------- ------ -- ----- -- ----- -- ---- ------<br>--- ----- --- --- ------ -------- ----- --- ------ ----- --<br>----- ----- ---------- --- --- ------ ------ ---- -- ------<br>------- --- ------ ----- --- ---- ------- -- ---- --- --<br>------- ------,110295.10000002384,110294.29999995232,110279.171,110263.79999995232,,110312.571,,2,time
screen,html.Screen,2_1_1_1_3,2022-03-19T21:21:02.466Z,,,,,,,,,,,,,,,,,54,,,,,,,,,,,,,,12.929000000003725,,response,,,,100,,,,,,,Space,keypress(Space),,,,,,,,-- --- ---- the ------ ----- ------- ---- -- --- ------- --<br>------- ---------- ------ -- ----- -- ----- -- ---- ------<br>--- ----- --- --- ------ -------- ----- --- ------ ----- --<br>----- ----- ---------- --- --- ------ ------ ---- -- ------<br>------- --- ------ ----- --- ---- ------- -- ---- --- --<br>------- ------,110326.29999995232,110325.5,110295.883,110295.29999995232,110312.571,110345.919,,3,the
screen,html.Screen,2_1_1_1_4,2022-03-19T21:21:02.497Z,,,,,,,,,,,,,,,,,54,,,,,,,,,,,,,,10.880999952321872,,response,,,,100,,,,,,,Space,keypress(Space),,,,,,,,-- --- ---- --- French ----- ------- ---- -- --- ------- --<br>------- ---------- ------ -- ----- -- ----- -- ---- ------<br>--- ----- --- --- ------ -------- ----- --- ------ ----- --<br>----- ----- ---------- --- --- ------ ------ ---- -- ------<br>------- --- ------ ----- --- ---- ------- -- ---- --- --<br>------- ------,110357.5,110356.79999995232,110329.198,110326.39999997616,110345.919,110379.279,,4,French
screen,html.Screen,2_1_1_1_5,2022-03-19T21:21:02.528Z,,,,,,,,,,,,,,,,,54,,,,,,,,,,,,,,8.620999976163148,,response,,,,100,,,,,,,Space,keypress(Space),,,,,,,,-- --- ---- --- ------ crown ------- ---- -- --- ------- --<br>------- ---------- ------ -- ----- -- ----- -- ---- ------<br>--- ----- --- --- ------ -------- ----- --- ------ ----- --<br>----- ----- ---------- --- --- ------ ------ ---- -- ------<br>------- --- ------ ----- --- ---- ------- -- ---- --- --<br>------- ------,110388.60000002384,110387.89999997616,110362.563,110357.70000004768,110379.279,110412.647,,5,crown
screen,html.Screen,2_1_1_1_6,2022-03-19T21:21:02.560Z,,,,,,,,,,,,,,,,,54,,,,,,,,,,,,,,6.752999976160936,,response,,,,100,,,,,,,Space,keypress(Space),,,,,,,,-- --- ---- --- ------ ----- secured ---- -- --- ------- --<br>------- ---------- ------ -- ----- -- ----- -- ---- ------<br>--- ----- --- --- ------ -------- ----- --- ------ ----- --<br>----- ----- ---------- --- --- ------ ------ ---- -- ------<br>------- --- ------ ----- --- ---- ------- -- ---- --- --<br>------- ------,110420.10000002384,110419.39999997616,110395.926,110388.79999995232,110412.647,110446.006,,6,secured
screen,html.Screen,2_1_1_1_7,2022-03-19T21:21:02.607Z,,,,,,,,,,,,,,,,,54,,,,,,,,,,,,,,20.293999952322338,,response,,,,100,,,,,,,Space,keypress(Space),,,,,,,,-- --- ---- --- ------ ----- ------- much -- --- ------- --<br>------- ---------- ------ -- ----- -- ----- -- ---- ------<br>--- ----- --- --- ------ -------- ----- --- ------ ----- --<br>----- ----- ---------- --- --- ------ ------ ---- -- ------<br>------- --- ------ ----- --- ---- ------- -- ---- --- --<br>------- ------,110467,110466.29999995232,110429.289,110420.29999995232,110446.006,110495.99,,7,much
screen,html.Screen,2_1_1_1_8,2022-03-19T21:21:02.638Z,,,,,,,,,,,,,,,,,54,,,,,,,,,,,,,,1.4099999761529034,,response,,,,100,,,,,,,Space,keypress(Space),,,,,,,,-- --- ---- --- ------ ----- ------- ---- of --- ------- --<br>------- ---------- ------ -- ----- -- ----- -- ---- ------<br>--- ----- --- --- ------ -------- ----- --- ------ ----- --<br>----- ----- ---------- --- --- ------ ------ ---- -- ------<br>------- --- ------ ----- --- ---- ------- -- ---- --- --<br>------- ------,110498,110497.39999997616,110479.32,110467.10000002384,110495.99,110529.39,,8,of
screen,html.Screen,2_1_1_1_9,2022-03-19T21:21:02.668Z,,,,,,,,,,,,,,,,,54,,,,,,,,,,,,,,15.209999976155814,,response,,,,100,,,,,,,Space,keypress(Space),,,,,,,,-- --- ---- --- ------ ----- ------- ---- -- its ------- --<br>------- ---------- ------ -- ----- -- ----- -- ---- ------<br>--- ----- --- --- ------ -------- ----- --- ------ ----- --<br>----- ----- ---------- --- --- ------ ------ ---- -- ------<br>------- --- ------ ----- --- ---- ------- -- ---- --- --<br>------- ------,110528.60000002384,110527.89999997616,110512.69,110498.20000004768,,110546.078,,9,its
screen,html.Screen,2_1_1_1_10,2022-03-19T21:21:02.700Z,,,,,,,,,,,,,,,,,54,,,,,,,,,,,,,,13.221999952322221,,response,,,,100,,,,,,,Space,keypress(Space),,,,,,,,-- --- ---- --- ------ ----- ------- ---- -- --- revenue --<br>------- ---------- ------ -- ----- -- ----- -- ---- ------<br>--- ----- --- --- ------ -------- ----- --- ------ ----- --<br>----- ----- ---------- --- --- ------ ------ ---- -- ------<br>------- --- ------ ----- --- ---- ------- -- ---- --- --<br>------- ------,110560,110559.29999995232,110529.39,110528.79999995232,110546.078,110579.443,,10,revenue
screen,html.Screen,2_1_1_1_11,2022-03-19T21:21:02.730Z,,,,,,,,,,,,,,,,,54,,,,,,,,,,,,,,10.45699997615884,,response,,,,100,,,,,,,Space,keypress(Space),,,,,,,,-- --- ---- --- ------ ----- ------- ---- -- --- ------- by<br>------- ---------- ------ -- ----- -- ----- -- ---- ------<br>--- ----- --- --- ------ -------- ----- --- ------ ----- --<br>----- ----- ---------- --- --- ------ ------ ---- -- ------<br>------- --- ------ ----- --- ---- ------- -- ---- --- --<br>------- ------,110590.70000004768,110589.89999997616,110562.723,110560.20000004768,110579.443,110612.8,,11,by
screen,html.Screen,2_1_1_1_12,2022-03-19T21:21:02.762Z,,,,,,,,,,,,,,,,,54,,,,,,,,,,,,,,8.900000047680805,,response,,,,100,,,,,,,Space,keypress(Space),,,,,,,,-- --- ---- --- ------ ----- ------- ---- -- --- ------- --<br>issuing ---------- ------ -- ----- -- ----- -- ---- ------<br>--- ----- --- --- ------ -------- ----- --- ------ ----- --<br>----- ----- ---------- --- --- ------ ------ ---- -- ------<br>------- --- ------ ----- --- ---- ------- -- ---- --- --<br>------- ------,110622.5,110621.70000004768,110596.088,110590.89999997616,110612.8,110646.157,,12,issuing
screen,html.Screen,2_1_1_1_13,2022-03-19T21:21:02.793Z,,,,,,,,,,,,,,,,,54,,,,,,,,,,,,,,6.342999999993481,,response,,,,100,,,,,,,Space,keypress(Space),,,,,,,,-- --- ---- --- ------ ----- ------- ---- -- --- ------- --<br>------- government ------ -- ----- -- ----- -- ---- ------<br>--- ----- --- --- ------ -------- ----- --- ------ ----- --<br>----- ----- ---------- --- --- ------ ------ ---- -- ------<br>------- --- ------ ----- --- ---- ------- -- ---- --- --<br>------- ------,110653.20000004768,110652.5,110629.449,110622.70000004768,110646.157,110679.541,,13,government
screen,html.Screen,2_1_1_1_14,2022-03-19T21:21:02.824Z,,,,,,,,,,,,,,,,,54,,,,,,,,,,,,,,3.959000000002561,,response,,,,100,,,,,,,Space,keypress(Space),,,,,,,,-- --- ---- --- ------ ----- ------- ---- -- --- ------- --<br>------- ---------- bonds. -- ----- -- ----- -- ---- ------<br>--- ----- --- --- ------ -------- ----- --- ------ ----- --<br>----- ----- ---------- --- --- ------ ------ ---- -- ------<br>------- --- ------ ----- --- ---- ------- -- ---- --- --<br>------- ------,110684.10000002384,110683.5,110662.808,110653.39999997616,110679.541,110712.882,,14,bonds.
screen,html.Screen,2_1_1_1_15,2022-03-19T21:21:02.855Z,,,,,,,,,,,,,,,,,54,,,,,,,,,,,,,,2.017999976160354,,response,,,,100,,,,,,,Space,keypress(Space),,,,,,,,-- --- ---- --- ------ ----- ------- ---- -- --- ------- --<br>------- ---------- ------ In ----- -- ----- -- ---- ------<br>--- ----- --- --- ------ -------- ----- --- ------ ----- --<br>----- ----- ---------- --- --- ------ ------ ---- -- ------<br>------- --- ------ ----- --- ---- ------- -- ---- --- --<br>------- ------,110715.60000002384,110714.89999997616,110696.173,110684.29999995232,110712.882,110746.252,,15,In
screen,html.Screen,2_1_1_1_16,2022-03-19T21:21:02.903Z,,,,,,,,,,,,,,,,,54,,,,,,,,,,,,,,16.547999952323153,,response,,,,100,,,,,,,Space,keypress(Space),,,,,,,,"-- --- ---- --- ------ ----- ------- ---- -- --- ------- --<br>------- ---------- ------ -- 1727, -- ----- -- ---- ------<br>--- ----- --- --- ------ -------- ----- --- ------ ----- --<br>----- ----- ---------- --- --- ------ ------ ---- -- ------<br>------- --- ------ ----- --- ---- ------- -- ---- --- --<br>------- ------",110763.5,110762.79999995232,110729.498,110715.79999995232,110746.252,110779.559,,16,"1727,"
screen,html.Screen,2_1_1_1_17,2022-03-19T21:21:02.934Z,,,,,,,,,,,,,,,,,54,,,,,,,,,,,,,,14.44100000000617,,response,,,,100,,,,,,,Space,keypress(Space),,,,,,,,-- --- ---- --- ------ ----- ------- ---- -- --- ------- --<br>------- ---------- ------ -- ----- in ----- -- ---- ------<br>--- ----- --- --- ------ -------- ----- --- ------ ----- --<br>----- ----- ---------- --- --- ------ ------ ---- -- ------<br>------- --- ------ ----- --- ---- ------- -- ---- --- --<br>------- ------,110794.79999995232,110794,110762.84,110763.70000004768,110779.559,110812.963,,17,in
screen,html.Screen,2_1_1_1_18,2022-03-19T21:21:02.966Z,,,,,,,,,,,,,,,,,54,,,,,,,,,,,,,,12.836999952312908,,response,,,,100,,,,,,,Space,keypress(Space),,,,,,,,-- --- ---- --- ------ ----- ------- ---- -- --- ------- --<br>------- ---------- ------ -- ----- -- order -- ---- ------<br>--- ----- --- --- ------ -------- ----- --- ------ ----- --<br>----- ----- ---------- --- --- ------ ------ ---- -- ------<br>------- --- ------ ----- --- ---- ------- -- ---- --- --<br>------- ------,110826.5,110825.79999995232,110796.249,110795.10000002384,110812.963,110846.338,,18,order
screen,html.Screen,2_1_1_1_19,2022-03-19T21:21:02.997Z,,,,,,,,,,,,,,,,,54,,,,,,,,,,,,,,10.661999999996624,,response,,,,100,,,,,,,Space,keypress(Space),,,,,,,,-- --- ---- --- ------ ----- ------- ---- -- --- ------- --<br>------- ---------- ------ -- ----- -- ----- to ---- ------<br>--- ----- --- --- ------ -------- ----- --- ------ ----- --<br>----- ----- ---------- --- --- ------ ------ ---- -- ------<br>------- --- ------ ----- --- ---- ------- -- ---- --- --<br>------- ------,110857.70000004768,110857,110829.614,110826.79999995232,110846.338,110879.685,,19,to
screen,html.Screen,2_1_1_1_20,2022-03-19T21:21:03.029Z,,,,,,,,,,,,,,,,,54,,,,,,,,,,,,,,8.614999952318612,,response,,,,100,,,,,,,Space,keypress(Space),,,,,,,,-- --- ---- --- ------ ----- ------- ---- -- --- ------- --<br>------- ---------- ------ -- ----- -- ----- -- save ------<br>--- ----- --- --- ------ -------- ----- --- ------ ----- --<br>----- ----- ---------- --- --- ------ ------ ---- -- ------<br>------- --- ------ ----- --- ---- ------- -- ---- --- --<br>------- ------,110889,110888.29999995232,110862.925,110858,110879.685,110913.041,,20,save
screen,html.Screen,2_1_1_1_21,2022-03-19T21:21:03.060Z,,,,,,,,,,,,,,,,,54,,,,,,,,,,,,,,6.159000047686277,,response,,,,100,,,,,,,Space,keypress(Space),,,,,,,,"-- --- ---- --- ------ ----- ------- ---- -- --- ------- --<br>------- ---------- ------ -- ----- -- ----- -- ---- money,<br>--- ----- --- --- ------ -------- ----- --- ------ ----- --<br>----- ----- ---------- --- --- ------ ------ ---- -- ------<br>------- --- ------ ----- --- ---- ------- -- ---- --- --<br>------- ------",110919.89999997616,110919.20000004768,110896.33,110889.29999995232,110913.041,110946.403,,21,"money,"
screen,html.Screen,2_1_1_1_22,2022-03-19T21:21:03.091Z,,,,,,,,,,,,,,,,,54,,,,,,,,,,,,,,4.197000023836154,,response,,,,100,,,,,,,Space,keypress(Space),,,,,,,,-- --- ---- --- ------ ----- ------- ---- -- --- ------- --<br>------- ---------- ------ -- ----- -- ----- -- ---- ------<br>the ----- --- --- ------ -------- ----- --- ------ ----- --<br>----- ----- ---------- --- --- ------ ------ ---- -- ------<br>------- --- ------ ----- --- ---- ------- -- ---- --- --<br>------- ------,110951.29999995232,110950.60000002384,110929.693,110920.10000002384,110946.403,110979.763,,22,the
screen,html.Screen,2_1_1_1_23,2022-03-19T21:21:03.123Z,,,,,,,,,,,,,,,,,54,,,,,,,,,,,,,,2.6369999761518557,,response,,,,100,,,,,,,Space,keypress(Space),,,,,,,,-- --- ---- --- ------ ----- ------- ---- -- --- ------- --<br>------- ---------- ------ -- ----- -- ----- -- ---- ------<br>--- state --- --- ------ -------- ----- --- ------ ----- --<br>----- ----- ---------- --- --- ------ ------ ---- -- ------<br>------- --- ------ ----- --- ---- ------- -- ---- --- --<br>------- ------,110983,110982.39999997616,110963.055,110951.5,110979.763,111013.074,,23,state
screen,html.Screen,2_1_1_1_24,2022-03-19T21:21:03.154Z,,,,,,,,,,,,,,,,,54,,,,,,,,,,,,,,0.6260000476904679,,response,,,,100,,,,,,,Space,keypress(Space),,,,,,,,-- --- ---- --- ------ ----- ------- ---- -- --- ------- --<br>------- ---------- ------ -- ----- -- ----- -- ---- ------<br>--- ----- cut --- ------ -------- ----- --- ------ ----- --<br>----- ----- ---------- --- --- ------ ------ ---- -- ------<br>------- --- ------ ----- --- ---- ------- -- ---- --- --<br>------- ------,111014.10000002384,111013.70000004768,110996.402,110983.20000004768,111013.074,111046.483,,24,cut
screen,html.Screen,2_1_1_1_25,2022-03-19T21:21:03.200Z,,,,,,,,,,,,,,,,,54,,,,,,,,,,,,,,13.61700002384896,,response,,,,100,,,,,,,Space,keypress(Space),,,,,,,,-- --- ---- --- ------ ----- ------- ---- -- --- ------- --<br>------- ---------- ------ -- ----- -- ----- -- ---- ------<br>--- ----- --- the ------ -------- ----- --- ------ ----- --<br>----- ----- ---------- --- --- ------ ------ ---- -- ------<br>------- --- ------ ----- --- ---- ------- -- ---- --- --<br>------- ------,111060.70000004768,111060.10000002384,111029.759,111014.29999995232,111046.483,111079.797,,25,the
screen,html.Screen,2_1_1_1_26,2022-03-19T21:21:03.231Z,,,,,,,,,,,,,,,,,54,,,,,,,,,,,,,,11.002999952310347,,response,,,,100,,,,,,,Space,keypress(Space),,,,,,,,-- --- ---- --- ------ ----- ------- ---- -- --- ------- --<br>------- ---------- ------ -- ----- -- ----- -- ---- ------<br>--- ----- --- --- bonds' -------- ----- --- ------ ----- --<br>----- ----- ---------- --- --- ------ ------ ---- -- ------<br>------- --- ------ ----- --- ---- ------- -- ---- --- --<br>------- ------,111091.29999995232,111090.79999995232,111063.132,111060.89999997616,111079.797,111113.203,,26,bonds'
screen,html.Screen,2_1_1_1_27,2022-03-19T21:21:03.263Z,,,,,,,,,,,,,,,,,54,,,,,,,,,,,,,,9.897000023847795,,response,,,,100,,,,,,,Space,keypress(Space),,,,,,,,-- --- ---- --- ------ ----- ------- ---- -- --- ------- --<br>------- ---------- ------ -- ----- -- ----- -- ---- ------<br>--- ----- --- --- ------ interest ----- --- ------ ----- --<br>----- ----- ---------- --- --- ------ ------ ---- -- ------<br>------- --- ------ ----- --- ---- ------- -- ---- --- --<br>------- ------,111123.79999995232,111123.10000002384,111096.456,111091.5,111113.203,111146.57,,27,interest
screen,html.Screen,2_1_1_1_28,2022-03-19T21:21:03.294Z,,,,,,,,,,,,,,,,,54,,,,,,,,,,,,,,7.429999999993015,,response,,,,100,,,,,,,Space,keypress(Space),,,,,,,,-- --- ---- --- ------ ----- ------- ---- -- --- ------- --<br>------- ---------- ------ -- ----- -- ----- -- ---- ------<br>--- ----- --- --- ------ -------- rate. --- ------ ----- --<br>----- ----- ---------- --- --- ------ ------ ---- -- ------<br>------- --- ------ ----- --- ---- ------- -- ---- --- --<br>------- ------,111154.5,111154,111129.806,111124,111146.57,111179.865,,28,rate.
screen,html.Screen,2_1_1_1_29,2022-03-19T21:21:03.327Z,,,,,,,,,,,,,,,,,54,,,,,,,,,,,,,,6.735000023836619,,response,,,,100,,,,,,,Space,keypress(Space),,,,,,,,-- --- ---- --- ------ ----- ------- ---- -- --- ------- --<br>------- ---------- ------ -- ----- -- ----- -- ---- ------<br>--- ----- --- --- ------ -------- ----- The ------ ----- --<br>----- ----- ---------- --- --- ------ ------ ---- -- ------<br>------- --- ------ ----- --- ---- ------- -- ---- --- --<br>------- ------,111187.20000004768,111186.60000002384,111163.207,111154.70000004768,111179.865,111213.285,,29,The
screen,html.Screen,2_1_1_1_30,2022-03-19T21:21:03.359Z,,,,,,,,,,,,,,,,,54,,,,,,,,,,,,,,5.014999952312792,,response,,,,100,,,,,,,Space,keypress(Space),,,,,,,,-- --- ---- --- ------ ----- ------- ---- -- --- ------- --<br>------- ---------- ------ -- ----- -- ----- -- ---- ------<br>--- ----- --- --- ------ -------- ----- --- market ----- --<br>----- ----- ---------- --- --- ------ ------ ---- -- ------<br>------- --- ------ ----- --- ---- ------- -- ---- --- --<br>------- ------,111218.89999997616,111218.29999995232,111196.558,111187.5,111213.285,111246.546,,30,market
screen,html.Screen,2_1_1_1_31,2022-03-19T21:21:03.390Z,,,,,,,,,,,,,,,,,54,,,,,,,,,,,,,,3.4539999999979045,,response,,,,100,,,,,,,Space,keypress(Space),,,,,,,,-- --- ---- --- ------ ----- ------- ---- -- --- ------- --<br>------- ---------- ------ -- ----- -- ----- -- ---- ------<br>--- ----- --- --- ------ -------- ----- --- ------ value --<br>----- ----- ---------- --- --- ------ ------ ---- -- ------<br>------- --- ------ ----- --- ---- ------- -- ---- --- --<br>------- ------,111250.60000002384,111250,111229.93,111219.10000002384,111246.546,111279.955,,31,value
screen,html.Screen,2_1_1_1_32,2022-03-19T21:21:03.421Z,,,,,,,,,,,,,,,,,54,,,,,,,,,,,,,,1.1450000238401117,,response,,,,100,,,,,,,Space,keypress(Space),,,,,,,,-- --- ---- --- ------ ----- ------- ---- -- --- ------- --<br>------- ---------- ------ -- ----- -- ----- -- ---- ------<br>--- ----- --- --- ------ -------- ----- --- ------ ----- of<br>----- ----- ---------- --- --- ------ ------ ---- -- ------<br>------- --- ------ ----- --- ---- ------- -- ---- --- --<br>------- ------,111281.70000004768,111281.10000002384,111263.286,111250.89999997616,111279.955,111313.366,,32,of
screen,html.Screen,2_1_1_1_33,2022-03-19T21:21:03.452Z,,,,,,,,,,,,,,,,,54,,,,,,,,,,,,,,15.388000000006286,,response,,,,100,,,,,,,Space,keypress(Space),,,,,,,,-- --- ---- --- ------ ----- ------- ---- -- --- ------- --<br>------- ---------- ------ -- ----- -- ----- -- ---- ------<br>--- ----- --- --- ------ -------- ----- --- ------ ----- --<br>these ----- ---------- --- --- ------ ------ ---- -- ------<br>------- --- ------ ----- --- ---- ------- -- ---- --- --<br>------- ------,111312.60000002384,111312,111296.612,111282,,111330.034,,33,these
screen,html.Screen,2_1_1_1_34,2022-03-19T21:21:03.483Z,,,,,,,,,,,,,,,,,54,,,,,,,,,,,,,,13.166000047684065,,response,,,,100,,,,,,,Space,keypress(Space),,,,,,,,-- --- ---- --- ------ ----- ------- ---- -- --- ------- --<br>------- ---------- ------ -- ----- -- ----- -- ---- ------<br>--- ----- --- --- ------ -------- ----- --- ------ ----- --<br>----- bonds ---------- --- --- ------ ------ ---- -- ------<br>------- --- ------ ----- --- ---- ------- -- ---- --- --<br>------- ------,111343.70000004768,111343.20000004768,111313.366,111312.79999995232,111330.034,111363.408,,34,bonds
screen,html.Screen,2_1_1_1_35,2022-03-19T21:21:03.515Z,,,,,,,,,,,,,,,,,54,,,,,,,,,,,,,,11.491999976162333,,response,,,,100,,,,,,,Space,keypress(Space),,,,,,,,"-- --- ---- --- ------ ----- ------- ---- -- --- ------- --<br>------- ---------- ------ -- ----- -- ----- -- ---- ------<br>--- ----- --- --- ------ -------- ----- --- ------ ----- --<br>----- ----- plummeted, --- --- ------ ------ ---- -- ------<br>------- --- ------ ----- --- ---- ------- -- ---- --- --<br>------- ------",111375.5,111374.89999997616,111346.688,111344,111363.408,111396.763,,35,"plummeted,"
screen,html.Screen,2_1_1_1_36,2022-03-19T21:21:03.561Z,,,,,,,,,,,,,,,,,54,,,,,,,,,,,,,,24.236999999993714,,response,,,,100,,,,,,,Space,keypress(Space),,,,,,,,-- --- ---- --- ------ ----- ------- ---- -- --- ------- --<br>------- ---------- ------ -- ----- -- ----- -- ---- ------<br>--- ----- --- --- ------ -------- ----- --- ------ ----- --<br>----- ----- ---------- and --- ------ ------ ---- -- ------<br>------- --- ------ ----- --- ---- ------- -- ---- --- --<br>------- ------,111421.60000002384,111421,111380.046,111375.70000004768,111396.763,111430.077,,36,and
screen,html.Screen,2_1_1_1_37,2022-03-19T21:21:03.594Z,,,,,,,,,,,,,,,,,54,,,,,,,,,,,,,,23.32299997615337,,response,,,,100,,,,,,,Space,keypress(Space),,,,,,,,-- --- ---- --- ------ ----- ------- ---- -- --- ------- --<br>------- ---------- ------ -- ----- -- ----- -- ---- ------<br>--- ----- --- --- ------ -------- ----- --- ------ ----- --<br>----- ----- ---------- --- the ------ ------ ---- -- ------<br>------- --- ------ ----- --- ---- ------- -- ---- --- --<br>------- ------,111454,111453.39999997616,111413.415,111421.89999997616,111430.077,111463.393,,37,the
screen,html.Screen,2_1_1_1_38,2022-03-19T21:21:03.625Z,,,,,,,,,,,,,,,,,54,,,,,,,,,,,,,,21.207000023845467,,response,,,,100,,,,,,,Space,keypress(Space),,,,,,,,-- --- ---- --- ------ ----- ------- ---- -- --- ------- --<br>------- ---------- ------ -- ----- -- ----- -- ---- ------<br>--- ----- --- --- ------ -------- ----- --- ------ ----- --<br>----- ----- ---------- --- --- market ------ ---- -- ------<br>------- --- ------ ----- --- ---- ------- -- ---- --- --<br>------- ------,111485.10000002384,111484.60000002384,111446.763,111454.20000004768,111463.393,111496.846,,38,market
screen,html.Screen,2_1_1_1_39,2022-03-19T21:21:03.657Z,,,,,,,,,,,,,,,,,54,,,,,,,,,,,,,,19.95399995231128,,response,,,,100,,,,,,,Space,keypress(Space),,,,,,,,-- --- ---- --- ------ ----- ------- ---- -- --- ------- --<br>------- ---------- ------ -- ----- -- ----- -- ---- ------<br>--- ----- --- --- ------ -------- ----- --- ------ ----- --<br>----- ----- ---------- --- --- ------ became ---- -- ------<br>------- --- ------ ----- --- ---- ------- -- ---- --- --<br>------- ------,111517.39999997616,111516.79999995232,111480.087,111485.39999997616,111496.846,111530.213,,39,became
screen,html.Screen,2_1_1_1_40,2022-03-19T21:21:03.687Z,,,,,,,,,,,,,,,,,54,,,,,,,,,,,,,,16.887000023838482,,response,,,,100,,,,,,,Space,keypress(Space),,,,,,,,-- --- ---- --- ------ ----- ------- ---- -- --- ------- --<br>------- ---------- ------ -- ----- -- ----- -- ---- ------<br>--- ----- --- --- ------ -------- ----- --- ------ ----- --<br>----- ----- ---------- --- --- ------ ------ wary -- ------<br>------- --- ------ ----- --- ---- ------- -- ---- --- --<br>------- ------,111547.70000004768,111547.10000002384,111513.447,111517.60000002384,111530.213,111563.566,,40,wary
screen,html.Screen,2_1_1_1_41,2022-03-19T21:21:03.718Z,,,,,,,,,,,,,,,,,54,,,,,,,,,,,,,,13.93399999999383,,response,,,,100,,,,,,,Space,keypress(Space),,,,,,,,-- --- ---- --- ------ ----- ------- ---- -- --- ------- --<br>------- ---------- ------ -- ----- -- ----- -- ---- ------<br>--- ----- --- --- ------ -------- ----- --- ------ ----- --<br>----- ----- ---------- --- --- ------ ------ ---- of ------<br>------- --- ------ ----- --- ---- ------- -- ---- --- --<br>------- ------,111578.20000004768,111577.5,111546.851,111547.89999997616,111563.566,111596.94,,41,of
screen,html.Screen,2_1_1_1_42,2022-03-19T21:21:03.748Z,,,,,,,,,,,,,,,,,54,,,,,,,,,,,,,,10.760000047681388,,response,,,,100,,,,,,,Space,keypress(Space),,,,,,,,-- --- ---- --- ------ ----- ------- ---- -- --- ------- --<br>------- ---------- ------ -- ----- -- ----- -- ---- ------<br>--- ----- --- --- ------ -------- ----- --- ------ ----- --<br>----- ----- ---------- --- --- ------ ------ ---- -- French<br>------- --- ------ ----- --- ---- ------- -- ---- --- --<br>------- ------,111608.39999997616,111607.70000004768,111580.208,111578.5,111596.94,111630.292,,42,French
screen,html.Screen,2_1_1_1_43,2022-03-19T21:21:03.794Z,,,,,,,,,,,,,,,,,54,,,,,,,,,,,,,,23.60799997615686,,response,,,,100,,,,,,,Space,keypress(Space),,,,,,,,-- --- ---- --- ------ ----- ------- ---- -- --- ------- --<br>------- ---------- ------ -- ----- -- ----- -- ---- ------<br>--- ----- --- --- ------ -------- ----- --- ------ ----- --<br>----- ----- ---------- --- --- ------ ------ ---- -- ------<br>credit. --- ------ ----- --- ---- ------- -- ---- --- --<br>------- ------,111654.39999997616,111653.89999997616,111613.571,111608.60000002384,111630.292,111663.651,,43,credit.
screen,html.Screen,2_1_1_1_44,2022-03-19T21:21:03.826Z,,,,,,,,,,,,,,,,,54,,,,,,,,,,,,,,22.049000047685695,,response,,,,100,,,,,,,Space,keypress(Space),,,,,,,,-- --- ---- --- ------ ----- ------- ---- -- --- ------- --<br>------- ---------- ------ -- ----- -- ----- -- ---- ------<br>--- ----- --- --- ------ -------- ----- --- ------ ----- --<br>----- ----- ---------- --- --- ------ ------ ---- -- ------<br>------- The ------ ----- --- ---- ------- -- ---- --- --<br>------- ------,111686.29999995232,111685.70000004768,111646.929,111654.60000002384,111663.651,111697.013,,44,The
screen,html.Screen,2_1_1_1_45,2022-03-19T21:21:03.857Z,,,,,,,,,,,,,,,,,54,,,,,,,,,,,,,,19.68700004767743,,response,,,,100,,,,,,,Space,keypress(Space),,,,,,,,-- --- ---- --- ------ ----- ------- ---- -- --- ------- --<br>------- ---------- ------ -- ----- -- ----- -- ---- ------<br>--- ----- --- --- ------ -------- ----- --- ------ ----- --<br>----- ----- ---------- --- --- ------ ------ ---- -- ------<br>------- --- French ----- --- ---- ------- -- ---- --- --<br>------- ------,111717.20000004768,111716.70000004768,111680.287,111686.5,111697.013,111730.318,,45,French
screen,html.Screen,2_1_1_1_46,2022-03-19T21:21:03.888Z,,,,,,,,,,,,,,,,,54,,,,,,,,,,,,,,17.08199997615884,,response,,,,100,,,,,,,Space,keypress(Space),,,,,,,,-- --- ---- --- ------ ----- ------- ---- -- --- ------- --<br>------- ---------- ------ -- ----- -- ----- -- ---- ------<br>--- ----- --- --- ------ -------- ----- --- ------ ----- --<br>----- ----- ---------- --- --- ------ ------ ---- -- ------<br>------- --- ------ state --- ---- ------- -- ---- --- --<br>------- ------,111747.89999997616,111747.39999997616,111713.649,111717.39999997616,111730.318,111763.727,,46,state
screen,html.Screen,2_1_1_1_47,2022-03-19T21:21:03.918Z,,,,,,,,,,,,,,,,,54,,,,,,,,,,,,,,13.773000000001048,,response,,,,100,,,,,,,Space,keypress(Space),,,,,,,,-- --- ---- --- ------ ----- ------- ---- -- --- ------- --<br>------- ---------- ------ -- ----- -- ----- -- ---- ------<br>--- ----- --- --- ------ -------- ----- --- ------ ----- --<br>----- ----- ---------- --- --- ------ ------ ---- -- ------<br>------- --- ------ ----- was ---- ------- -- ---- --- --<br>------- ------,111778,111777.5,111746.965,111748.10000002384,111763.727,111797.045,,47,was
screen,html.Screen,2_1_1_1_48,2022-03-19T21:21:03.949Z,,,,,,,,,,,,,,,,,54,,,,,,,,,,,,,,11.354999976159888,,response,,,,100,,,,,,,Space,keypress(Space),,,,,,,,-- --- ---- --- ------ ----- ------- ---- -- --- ------- --<br>------- ---------- ------ -- ----- -- ----- -- ---- ------<br>--- ----- --- --- ------ -------- ----- --- ------ ----- --<br>----- ----- ---------- --- --- ------ ------ ---- -- ------<br>------- --- ------ ----- --- left ------- -- ---- --- --<br>------- ------,111809,111808.39999997616,111780.33,111778.20000004768,111797.045,111830.459,,48,left
screen,html.Screen,2_1_1_1_49,2022-03-19T21:21:03.979Z,,,,,,,,,,,,,,,,,54,,,,,,,,,,,,,,7.940999976155581,,response,,,,100,,,,,,,Space,keypress(Space),,,,,,,,-- --- ---- --- ------ ----- ------- ---- -- --- ------- --<br>------- ---------- ------ -- ----- -- ----- -- ---- ------<br>--- ----- --- --- ------ -------- ----- --- ------ ----- --<br>----- ----- ---------- --- --- ------ ------ ---- -- ------<br>------- --- ------ ----- --- ---- without -- ---- --- --<br>------- ------,111838.89999997616,111838.39999997616,111813.74,111809.29999995232,111830.459,111863.812,,49,without
screen,html.Screen,2_1_1_1_50,2022-03-19T21:21:04.025Z,,,,,,,,,,,,,,,,,54,,,,,,,,,,,,,,20.48799995231093,,response,,,,100,,,,,,,Space,keypress(Space),,,,,,,,-- --- ---- --- ------ ----- ------- ---- -- --- ------- --<br>------- ---------- ------ -- ----- -- ----- -- ---- ------<br>--- ----- --- --- ------ -------- ----- --- ------ ----- --<br>----- ----- ---------- --- --- ------ ------ ---- -- ------<br>------- --- ------ ----- --- ---- ------- an ---- --- --<br>------- ------,111885,111884.29999995232,111847.088,111839.10000002384,111863.812,111897.185,,50,an
screen,html.Screen,2_1_1_1_51,2022-03-19T21:21:04.057Z,,,,,,,,,,,,,,,,,54,,,,,,,,,,,,,,19.415000023844186,,response,,,,100,,,,,,,Space,keypress(Space),,,,,,,,-- --- ---- --- ------ ----- ------- ---- -- --- ------- --<br>------- ---------- ------ -- ----- -- ----- -- ---- ------<br>--- ----- --- --- ------ -------- ----- --- ------ ----- --<br>----- ----- ---------- --- --- ------ ------ ---- -- ------<br>------- --- ------ ----- --- ---- ------- -- easy --- --<br>------- ------,111917.20000004768,111916.60000002384,111880.454,111885.20000004768,111897.185,111930.531,,51,easy
screen,html.Screen,2_1_1_1_52,2022-03-19T21:21:04.088Z,,,,,,,,,,,,,,,,,54,,,,,,,,,,,,,,17.468999999997322,,response,,,,100,,,,,,,Space,keypress(Space),,,,,,,,-- --- ---- --- ------ ----- ------- ---- -- --- ------- --<br>------- ---------- ------ -- ----- -- ----- -- ---- ------<br>--- ----- --- --- ------ -------- ----- --- ------ ----- --<br>----- ----- ---------- --- --- ------ ------ ---- -- ------<br>------- --- ------ ----- --- ---- ------- -- ---- way --<br>------- ------,111948.70000004768,111948,111913.813,111917.5,111930.531,111963.88,,52,way
screen,html.Screen,2_1_1_1_53,2022-03-19T21:21:04.119Z,,,,,,,,,,,,,,,,,54,,,,,,,,,,,,,,15.019999976153485,,response,,,,100,,,,,,,Space,keypress(Space),,,,,,,,-- --- ---- --- ------ ----- ------- ---- -- --- ------- --<br>------- ---------- ------ -- ----- -- ----- -- ---- ------<br>--- ----- --- --- ------ -------- ----- --- ------ ----- --<br>----- ----- ---------- --- --- ------ ------ ---- -- ------<br>------- --- ------ ----- --- ---- ------- -- ---- --- of<br>------- ------,111979.5,111978.89999997616,111947.136,111948.89999997616,111963.88,111997.254,,53,of
screen,html.Screen,2_1_1_1_54,2022-03-19T21:21:04.150Z,,,,,,,,,,,,,,,,,54,,,,,,,,,,,,,,12.745999999999185,,response,,,,100,,,,,,,Space,keypress(Space),,,,,,,,-- --- ---- --- ------ ----- ------- ---- -- --- ------- --<br>------- ---------- ------ -- ----- -- ----- -- ---- ------<br>--- ----- --- --- ------ -------- ----- --- ------ ----- --<br>----- ----- ---------- --- --- ------ ------ ---- -- ------<br>------- --- ------ ----- --- ---- ------- -- ---- --- --<br>raising ------,112010.60000002384,112010,111980.546,111979.70000004768,111997.254,112030.637,,54,raising
screen,html.Screen,2_1_1_1_55,2022-03-19T21:21:04.183Z,,,,,,,,,,,,,,,,,54,,,,,,,,,,,,,,11.563000047681271,,response,,,,100,,,,,,,Space,keypress(Space),,,,,,,,-- --- ---- --- ------ ----- ------- ---- -- --- ------- --<br>------- ---------- ------ -- ----- -- ----- -- ---- ------<br>--- ----- --- --- ------ -------- ----- --- ------ ----- --<br>----- ----- ---------- --- --- ------ ------ ---- -- ------<br>------- --- ------ ----- --- ---- ------- -- ---- --- --<br>------- money.,112043,112042.20000004768,112013.91,112010.79999995232,112030.637,112063.977,,55,money.
Item 100,flow.Loop,2_1_1_1,2022-03-19T21:21:04.183Z,,,,,,,,,,,,,,,,,,,,,,,,,,,,,,,2780.639000047682,,completion,,,,,B,,,,,,,,,,,silence,,,,,112043.29999995232,112042.20000004768,109244.95,109248.60000002384,109261.561,112063.977,,,
Question 1,html.Screen,2_1_1_2,2022-03-19T21:21:05.123Z,,,,,,,,,,,,,,,,,,,,,,,,,,,,true,TRUE,,919.1230000238429,,response,,,,100,B,,,,,,TRUE,click #choice-1,,,,silence,,,,,112983.60000002384,112983.10000002384,112047.219,112043.5,112063.977,112998.023,,,
Question 2,html.Screen,2_1_1_3,2022-03-19T21:21:06.148Z,,,,,,,,,,,,,,,,,,,,,,,,,,,,true,FALSE,,1009.0770000238408,,response,,,,100,B,,,,,,FALSE,click #choice-2,,,,silence,,,,,114007.79999995232,114007.10000002384,112981.337,112983.79999995232,112998.023,114015.525,,,
Item 100,flow.Sequence,2_1_1,2022-03-19T21:21:06.148Z,,,,,,,,,,,,,,,,,,,,,,,,,,,,,,,14753.498000023843,,completion,,,,,,,,,,,,,,,,,,,,,114008,114007.10000002384,99236.908,99239.89999997616,99253.602,114015.525,,,
End of Practice,html.Page,2_1_2,2022-03-19T21:21:07.796Z,,,,,,,,,,,,,,,,,,,,,,,,,,,,,,,1639.9750000000058,,form submission,,,,,,,,,,,,,,,,,,,,,115655.89999997616,115655.5,113998.818,114008.10000002384,114015.525,115666.717,,,
Practice,flow.Sequence,2_1,2022-03-19T21:21:07.796Z,,,,,,,,,,,,,,,,,,,,,,,,,,,,,,,66575.806,,completion,,,,,,,,,,,,,,,,,,,,,115656,115655.5,49063.038,49080.5,49079.694,115666.717,,,
Trap_instruction,html.Page,2_2_0,2022-03-19T21:21:09.252Z,,,,,,,,,,,,,,,,,,,,,,,,,,,,,,,1444.8830000238377,,form submission,,,,,,,,,,,,,,,,,,,,,117111.89999997616,117111.60000002384,115650.136,115656.20000004768,115666.717,117117.994,,,
trap_trial,html.Screen,2_2_1,2022-03-19T21:21:17.475Z,,,,,,,,,,,,,,,,,,,,,,,,,,,,true,1,,8217.106000023836,,response,,,,,,,,,,,1,click #choice-1,,,,,,,,,125335.79999995232,125335.10000002384,117101.333,117112,117117.994,125341.312,,,
end of trap trial,html.Page,2_2_2,2022-03-19T21:21:18.940Z,,,,,,,,,,,,,,,,,,,,,,,,,,,,,,,1458.7880000238365,,form submission,,,,,,,,,,,,,,,,,,,,,126800.39999997616,126800.10000002384,125324.649,125336,125341.312,126809.165,,,
Trap 1,flow.Sequence,2_2,2022-03-19T21:21:18.940Z,,,,,,,,,,,,,,,,,,,,,,,,,,,,,,,11133.383000023838,,completion,,,,,,,,,,,,,,,,,,,,,126800.60000002384,126800.10000002384,115650.136,115656.10000002384,115666.717,126809.165,,,
Standby,html.Page,2_3_0,2022-03-19T21:21:26.940Z,,,,,,,,,,,,,,,,,,,,,,,,,,,,,,,8006.413000000015,,timeout,,,,,,,,,,,,,,,,,,,,,134800,134798.928,126792.489,126800.70000004768,126809.165,134815.578,,,
Holding screen,html.Screen,2_3_1_0_0,2022-03-19T21:21:33.945Z,,,,,,,,,,,,,,,,,,,,,,,,,,,,,,,7005.555999999982,,timeout,,,,,,,,,,,,,,,,,,,,,141805.60000002384,141804.606,134798.928,134800.20000004768,134815.578,141821.134,,,
screen,html.Screen,2_3_1_0_1_0,2022-03-19T21:21:34.957Z,,,,,,,,,,,,,,,,,19,,,,,,,,,,,,,,995.0660000476928,,response,,,,17,B,,,,,,Space,keypress(Space),,,,lyrical,,,,"Interestingly, --- -------- -------- ---------- ---- -------<br>-- ---------- -- --- ----- ------ ----- ---- --------- ----<br>------- ------ -------- -- ------ ---------- ------ ---<br>------ -- -- ---- -- ---------- -------- ------ ---- -------<br>---- --- --------- ------- ----- --------- ---- ----- --<br>------ -------- -- ------ -- ---- ------------",142816.89999997616,142816.20000004768,141804.606,141805.89999997616,141821.134,142822.061,,0,"Interestingly,"
screen,html.Screen,2_3_1_0_1_1,2022-03-19T21:21:35.472Z,,,,,,,,,,,,,,,,,19,,,,,,,,,,,,,,509.5390000238549,,response,,,,17,B,,,,,,Space,keypress(Space),,,,lyrical,,,,-------------- the -------- -------- ---------- ---- -------<br>-- ---------- -- --- ----- ------ ----- ---- --------- ----<br>------- ------ -------- -- ------ ---------- ------ ---<br>------ -- -- ---- -- ---------- -------- ------ ---- -------<br>---- --- --------- ------- ----- --------- ---- ----- --<br>------ -------- -- ------ -- ---- ------------,143332.29999995232,143331.60000002384,142805.417,142817.20000004768,142822.061,143355.905,,1,the
screen,html.Screen,2_3_1_0_1_2,2022-03-19T21:21:35.503Z,,,,,,,,,,,,,,,,,19,,,,,,,,,,,,,,6.695000023843022,,response,,,,17,B,,,,,,Space,keypress(Space),,,,lyrical,,,,-------------- --- heaviest -------- ---------- ---- -------<br>-- ---------- -- --- ----- ------ ----- ---- --------- ----<br>------- ------ -------- -- ------ ---------- ------ ---<br>------ -- -- ---- -- ---------- -------- ------ ---- -------<br>---- --- --------- ------- ----- --------- ---- ----- --<br>------ -------- -- ------ -- ---- ------------,143363.20000004768,143362.60000002384,143339.02,143332.5,143355.905,143389.253,,2,heaviest
screen,html.Screen,2_3_1_0_1_3,2022-03-19T21:21:35.534Z,,,,,,,,,,,,,,,,,19,,,,,,,,,,,,,,4.646999976161169,,response,,,,17,B,,,,,,Space,keypress(Space),,,,lyrical,,,,-------------- --- -------- isotopes ---------- ---- -------<br>-- ---------- -- --- ----- ------ ----- ---- --------- ----<br>------- ------ -------- -- ------ ---------- ------ ---<br>------ -- -- ---- -- ---------- -------- ------ ---- -------<br>---- --- --------- ------- ----- --------- ---- ----- --<br>------ -------- -- ------ -- ---- ------------,143394.70000004768,143393.89999997616,143372.564,143363.39999997616,143389.253,143422.621,,3,isotopes
screen,html.Screen,2_3_1_0_1_4,2022-03-19T21:21:35.565Z,,,,,,,,,,,,,,,,,19,,,,,,,,,,,,,,2.079000047669979,,response,,,,17,B,,,,,,Space,keypress(Space),,,,lyrical,,,,-------------- --- -------- -------- physicists ---- -------<br>-- ---------- -- --- ----- ------ ----- ---- --------- ----<br>------- ------ -------- -- ------ ---------- ------ ---<br>------ -- -- ---- -- ---------- -------- ------ ---- -------<br>---- --- --------- ------- ----- --------- ---- ----- --<br>------ -------- -- ------ -- ---- ------------,143425.39999997616,143424.70000004768,143405.906,143394.89999997616,143422.621,143455.933,,4,physicists
screen,html.Screen,2_3_1_0_1_5,2022-03-19T21:21:35.597Z,,,,,,,,,,,,,,,,,19,,,,,,,,,,,,,,0.9669999761681538,,response,,,,17,B,,,,,,Space,keypress(Space),,,,lyrical,,,,-------------- --- -------- -------- ---------- have -------<br>-- ---------- -- --- ----- ------ ----- ---- --------- ----<br>------- ------ -------- -- ------ ---------- ------ ---<br>------ -- -- ---- -- ---------- -------- ------ ---- -------<br>---- --- --------- ------- ----- --------- ---- ----- --<br>------ -------- -- ------ -- ---- ------------,143457.5,143456.89999997616,143439.269,143425.60000002384,143455.933,143489.329,,5,have
screen,html.Screen,2_3_1_0_1_6,2022-03-19T21:21:35.629Z,,,,,,,,,,,,,,,,,19,,,,,,,,,,,,,,16.16299995232839,,response,,,,17,B,,,,,,Space,keypress(Space),,,,lyrical,,,,-------------- --- -------- -------- ---------- ---- managed<br>-- ---------- -- --- ----- ------ ----- ---- --------- ----<br>------- ------ -------- -- ------ ---------- ------ ---<br>------ -- -- ---- -- ---------- -------- ------ ---- -------<br>---- --- --------- ------- ----- --------- ---- ----- --<br>------ -------- -- ------ -- ---- ------------,143489.60000002384,143488.79999995232,143472.637,143457.70000004768,,143506.022,,6,managed
screen,html.Screen,2_3_1_0_1_7,2022-03-19T21:21:35.660Z,,,,,,,,,,,,,,,,,19,,,,,,,,,,,,,,14.078000023844652,,response,,,,17,B,,,,,,Space,keypress(Space),,,,lyrical,,,,-------------- --- -------- -------- ---------- ---- -------<br>to ---------- -- --- ----- ------ ----- ---- --------- ----<br>------- ------ -------- -- ------ ---------- ------ ---<br>------ -- -- ---- -- ---------- -------- ------ ---- -------<br>---- --- --------- ------- ----- --------- ---- ----- --<br>------ -------- -- ------ -- ---- ------------,143520.79999995232,143520.10000002384,143489.329,143489.79999995232,143506.022,143539.395,,7,to
screen,html.Screen,2_3_1_0_1_8,2022-03-19T21:21:35.693Z,,,,,,,,,,,,,,,,,19,,,,,,,,,,,,,,12.705000023852335,,response,,,,17,B,,,,,,Space,keypress(Space),,,,lyrical,,,,-------------- --- -------- -------- ---------- ---- -------<br>-- synthesize -- --- ----- ------ ----- ---- --------- ----<br>------- ------ -------- -- ------ ---------- ------ ---<br>------ -- -- ---- -- ---------- -------- ------ ---- -------<br>---- --- --------- ------- ----- --------- ---- ----- --<br>------ -------- -- ------ -- ---- ------------,143552.89999997616,143552.10000002384,143522.685,143521,143539.395,143572.746,,8,synthesize
screen,html.Screen,2_3_1_0_1_9,2022-03-19T21:21:35.723Z,,,,,,,,,,,,,,,,,19,,,,,,,,,,,,,,10.053999952302547,,response,,,,17,B,,,,,,Space,keypress(Space),,,,lyrical,,,,-------------- --- -------- -------- ---------- ---- -------<br>-- ---------- so --- ----- ------ ----- ---- --------- ----<br>------- ------ -------- -- ------ ---------- ------ ---<br>------ -- -- ---- -- ---------- -------- ------ ---- -------<br>---- --- --------- ------- ----- --------- ---- ----- --<br>------ -------- -- ------ -- ---- ------------,143583.60000002384,143582.79999995232,143556.032,143553.10000002384,143572.746,143606.111,,9,so
screen,html.Screen,2_3_1_0_1_10,2022-03-19T21:21:35.755Z,,,,,,,,,,,,,,,,,19,,,,,,,,,,,,,,8.18899995231186,,response,,,,17,B,,,,,,Space,keypress(Space),,,,lyrical,,,,-------------- --- -------- -------- ---------- ---- -------<br>-- ---------- -- far ----- ------ ----- ---- --------- ----<br>------- ------ -------- -- ------ ---------- ------ ---<br>------ -- -- ---- -- ---------- -------- ------ ---- -------<br>---- --- --------- ------- ----- --------- ---- ----- --<br>------ -------- -- ------ -- ---- ------------,143615,143614.29999995232,143589.408,143583.79999995232,143606.111,143639.48,,10,far
screen,html.Screen,2_3_1_0_1_11,2022-03-19T21:21:35.802Z,,,,,,,,,,,,,,,,,19,,,,,,,,,,,,,,22.72000004767324,,response,,,,17,B,,,,,,Space,keypress(Space),,,,lyrical,,,,-------------- --- -------- -------- ---------- ---- -------<br>-- ---------- -- --- don't ------ ----- ---- --------- ----<br>------- ------ -------- -- ------ ---------- ------ ---<br>------ -- -- ---- -- ---------- -------- ------ ---- -------<br>---- --- --------- ------- ----- --------- ---- ----- --<br>------ -------- -- ------ -- ---- ------------,143662.79999995232,143662.20000004768,143622.743,143615.20000004768,143639.48,143689.459,,11,don't
screen,html.Screen,2_3_1_0_1_12,2022-03-19T21:21:35.834Z,,,,,,,,,,,,,,,,,19,,,,,,,,,,,,,,3.7410000476811547,,response,,,,17,B,,,,,,Space,keypress(Space),,,,lyrical,,,,-------------- --- -------- -------- ---------- ---- -------<br>-- ---------- -- --- ----- behave ----- ---- --------- ----<br>------- ------ -------- -- ------ ---------- ------ ---<br>------ -- -- ---- -- ---------- -------- ------ ---- -------<br>---- --- --------- ------- ----- --------- ---- ----- --<br>------ -------- -- ------ -- ---- ------------,143693.89999997616,143693.20000004768,143672.792,143662.89999997616,143689.459,143722.86,,12,behave
screen,html.Screen,2_3_1_0_1_13,2022-03-19T21:21:35.865Z,,,,,,,,,,,,,,,,,19,,,,,,,,,,,,,,1.939999952330254,,response,,,,17,B,,,,,,Space,keypress(Space),,,,lyrical,,,,-------------- --- -------- -------- ---------- ---- -------<br>-- ---------- -- --- ----- ------ quite ---- --------- ----<br>------- ------ -------- -- ------ ---------- ------ ---<br>------ -- -- ---- -- ---------- -------- ------ ---- -------<br>---- --- --------- ------- ----- --------- ---- ----- --<br>------ -------- -- ------ -- ---- ------------,143725.39999997616,143724.79999995232,143706.156,143694.20000004768,143722.86,143756.23,,13,quite
screen,html.Screen,2_3_1_0_1_14,2022-03-19T21:21:35.897Z,,,,,,,,,,,,,,,,,19,,,,,,,,,,,,,,0.47000004767323844,,response,,,,17,B,,,,,,Space,keypress(Space),,,,lyrical,,,,-------------- --- -------- -------- ---------- ---- -------<br>-- ---------- -- --- ----- ------ ----- like --------- ----<br>------- ------ -------- -- ------ ---------- ------ ---<br>------ -- -- ---- -- ---------- -------- ------ ---- -------<br>---- --- --------- ------- ----- --------- ---- ----- --<br>------ -------- -- ------ -- ---- ------------,143757.39999997616,143756.70000004768,143739.475,143725.60000002384,143756.23,143789.597,,14,like
screen,html.Screen,2_3_1_0_1_15,2022-03-19T21:21:35.928Z,,,,,,,,,,,,,,,,,19,,,,,,,,,,,,,,14.43099995231023,,response,,,,17,B,,,,,,Space,keypress(Space),,,,lyrical,,,,-------------- --- -------- -------- ---------- ---- -------<br>-- ---------- -- --- ----- ------ ----- ---- science's ----<br>------- ------ -------- -- ------ ---------- ------ ---<br>------ -- -- ---- -- ---------- -------- ------ ---- -------<br>---- --- --------- ------- ----- --------- ---- ----- --<br>------ -------- -- ------ -- ---- ------------,143788,143787.29999995232,143772.869,143757.60000002384,,143806.261,,15,science's
screen,html.Screen,2_3_1_0_1_16,2022-03-19T21:21:35.959Z,,,,,,,,,,,,,,,,,19,,,,,,,,,,,,,,12.839000023843255,,response,,,,17,B,,,,,,Space,keypress(Space),,,,lyrical,,,,-------------- --- -------- -------- ---------- ---- -------<br>-- ---------- -- --- ----- ------ ----- ---- --------- best<br>------- ------ -------- -- ------ ---------- ------ ---<br>------ -- -- ---- -- ---------- -------- ------ ---- -------<br>---- --- --------- ------- ----- --------- ---- ----- --<br>------ -------- -- ------ -- ---- ------------,143819.70000004768,143819.10000002384,143789.597,143788.20000004768,143806.261,143839.626,,16,best
screen,html.Screen,2_3_1_0_1_17,2022-03-19T21:21:35.991Z,,,,,,,,,,,,,,,,,19,,,,,,,,,,,,,,10.673999952326994,,response,,,,17,B,,,,,,Space,keypress(Space),,,,lyrical,,,,-------------- --- -------- -------- ---------- ---- -------<br>-- ---------- -- --- ----- ------ ----- ---- --------- ----<br>current ------ -------- -- ------ ---------- ------ ---<br>------ -- -- ---- -- ---------- -------- ------ ---- -------<br>---- --- --------- ------- ----- --------- ---- ----- --<br>------ -------- -- ------ -- ---- ------------,143850.89999997616,143850.29999995232,143822.911,143820,143839.626,143872.982,,17,current
screen,html.Screen,2_3_1_0_1_18,2022-03-19T21:21:36.022Z,,,,,,,,,,,,,,,,,19,,,,,,,,,,,,,,8.218000047694659,,response,,,,17,B,,,,,,Space,keypress(Space),,,,lyrical,,,,-------------- --- -------- -------- ---------- ---- -------<br>-- ---------- -- --- ----- ------ ----- ---- --------- ----<br>------- models -------- -- ------ ---------- ------ ---<br>------ -- -- ---- -- ---------- -------- ------ ---- -------<br>---- --- --------- ------- ----- --------- ---- ----- --<br>------ -------- -- ------ -- ---- ------------,143881.89999997616,143881.20000004768,143856.273,143851.20000004768,143872.982,143906.356,,18,models
screen,html.Screen,2_3_1_0_1_19,2022-03-19T21:21:36.053Z,,,,,,,,,,,,,,,,,19,,,,,,,,,,,,,,6.744000023842091,,response,,,,17,B,,,,,,Space,keypress(Space),,,,lyrical,,,,"-------------- --- -------- -------- ---------- ---- -------<br>-- ---------- -- --- ----- ------ ----- ---- --------- ----<br>------- ------ predict, -- ------ ---------- ------ ---<br>------ -- -- ---- -- ---------- -------- ------ ---- -------<br>---- --- --------- ------- ----- --------- ---- ----- --<br>------ -------- -- ------ -- ---- ------------",143913.79999995232,143913.10000002384,143889.641,143882.10000002384,143906.356,143939.71,,19,"predict,"
screen,html.Screen,2_3_1_0_1_20,2022-03-19T21:21:36.086Z,,,,,,,,,,,,,,,,,19,,,,,,,,,,,,,,5.689999976166291,,response,,,,17,B,,,,,,Space,keypress(Space),,,,lyrical,,,,-------------- --- -------- -------- ---------- ---- -------<br>-- ---------- -- --- ----- ------ ----- ---- --------- ----<br>------- ------ -------- so ------ ---------- ------ ---<br>------ -- -- ---- -- ---------- -------- ------ ---- -------<br>---- --- --------- ------- ----- --------- ---- ----- --<br>------ -------- -- ------ -- ---- ------------,143946,143945.39999997616,143923.001,143913.89999997616,143939.71,143973.072,,20,so
screen,html.Screen,2_3_1_0_1_21,2022-03-19T21:21:36.117Z,,,,,,,,,,,,,,,,,19,,,,,,,,,,,,,,3.9280000000144355,,response,,,,17,B,,,,,,Space,keypress(Space),,,,lyrical,,,,-------------- --- -------- -------- ---------- ---- -------<br>-- ---------- -- --- ----- ------ ----- ---- --------- ----<br>------- ------ -------- -- stable ---------- ------ ---<br>------ -- -- ---- -- ---------- -------- ------ ---- -------<br>---- --- --------- ------- ----- --------- ---- ----- --<br>------ -------- -- ------ -- ---- ------------,143977.60000002384,143977,143956.366,143946.29999995232,143973.072,144006.458,,21,stable
screen,html.Screen,2_3_1_0_1_22,2022-03-19T21:21:36.165Z,,,,,,,,,,,,,,,,,19,,,,,,,,,,,,,,18.242000047670444,,response,,,,17,B,,,,,,Space,keypress(Space),,,,lyrical,,,,-------------- --- -------- -------- ---------- ---- -------<br>-- ---------- -- --- ----- ------ ----- ---- --------- ----<br>------- ------ -------- -- ------ superheavy ------ ---<br>------ -- -- ---- -- ---------- -------- ------ ---- -------<br>---- --- --------- ------- ----- --------- ---- ----- --<br>------ -------- -- ------ -- ---- ------------,144025.29999995232,144024.70000004768,143989.714,143977.79999995232,144006.458,144056.488,,22,superheavy
screen,html.Screen,2_3_1_0_1_23,2022-03-19T21:21:36.196Z,,,,,,,,,,,,,,,,,19,,,,,,,,,,,,,,15.777000000001863,,response,,,,17,B,,,,,,Space,keypress(Space),,,,lyrical,,,,-------------- --- -------- -------- ---------- ---- -------<br>-- ---------- -- --- ----- ------ ----- ---- --------- ----<br>------- ------ -------- -- ------ ---------- nuclei ---<br>------ -- -- ---- -- ---------- -------- ------ ---- -------<br>---- --- --------- ------- ----- --------- ---- ----- --<br>------ -------- -- ------ -- ---- ------------,144056.60000002384,144055.5,144039.723,144025.60000002384,,144073.095,,23,nuclei
screen,html.Screen,2_3_1_0_1_24,2022-03-19T21:21:36.227Z,,,,,,,,,,,,,,,,,19,,,,,,,,,,,,,,13.20499995231512,,response,,,,17,B,,,,,,Space,keypress(Space),,,,lyrical,,,,-------------- --- -------- -------- ---------- ---- -------<br>-- ---------- -- --- ----- ------ ----- ---- --------- ----<br>------- ------ -------- -- ------ ---------- ------ are<br>------ -- -- ---- -- ---------- -------- ------ ---- -------<br>---- --- --------- ------- ----- --------- ---- ----- --<br>------ -------- -- ------ -- ---- ------------,144086.89999997616,144086.29999995232,144056.488,144056.79999995232,144073.095,144106.474,,24,are
screen,html.Screen,2_3_1_0_1_25,2022-03-19T21:21:36.259Z,,,,,,,,,,,,,,,,,19,,,,,,,,,,,,,,12.12600002385443,,response,,,,17,B,,,,,,Space,keypress(Space),,,,lyrical,,,,-------------- --- -------- -------- ---------- ---- -------<br>-- ---------- -- --- ----- ------ ----- ---- --------- ----<br>------- ------ -------- -- ------ ---------- ------ ---<br>likely -- -- ---- -- ---------- -------- ------ ---- -------<br>---- --- --------- ------- ----- --------- ---- ----- --<br>------ -------- -- ------ -- ---- ------------,144119.39999997616,144118.60000002384,144089.756,144087,144106.474,144139.819,,25,likely
screen,html.Screen,2_3_1_0_1_26,2022-03-19T21:21:36.291Z,,,,,,,,,,,,,,,,,19,,,,,,,,,,,,,,10.281000023853267,,response,,,,17,B,,,,,,Space,keypress(Space),,,,lyrical,,,,-------------- --- -------- -------- ---------- ---- -------<br>-- ---------- -- --- ----- ------ ----- ---- --------- ----<br>------- ------ -------- -- ------ ---------- ------ ---<br>------ to -- ---- -- ---------- -------- ------ ---- -------<br>---- --- --------- ------- ----- --------- ---- ----- --<br>------ -------- -- ------ -- ---- ------------,144150.79999995232,144150.10000002384,144123.106,144119.5,144139.819,144173.185,,26,to
screen,html.Screen,2_3_1_0_1_27,2022-03-19T21:21:36.322Z,,,,,,,,,,,,,,,,,19,,,,,,,,,,,,,,8.415000023844186,,response,,,,17,B,,,,,,Space,keypress(Space),,,,lyrical,,,,-------------- --- -------- -------- ---------- ---- -------<br>-- ---------- -- --- ----- ------ ----- ---- --------- ----<br>------- ------ -------- -- ------ ---------- ------ ---<br>------ -- be ---- -- ---------- -------- ------ ---- -------<br>---- --- --------- ------- ----- --------- ---- ----- --<br>------ -------- -- ------ -- ---- ------------,144182.39999997616,144181.60000002384,144156.492,144151.10000002384,144173.185,144206.557,,27,be
screen,html.Screen,2_3_1_0_1_28,2022-03-19T21:21:36.353Z,,,,,,,,,,,,,,,,,19,,,,,,,,,,,,,,6.4429999999993015,,response,,,,17,B,,,,,,Space,keypress(Space),,,,lyrical,,,,-------------- --- -------- -------- ---------- ---- -------<br>-- ---------- -- --- ----- ------ ----- ---- --------- ----<br>------- ------ -------- -- ------ ---------- ------ ---<br>------ -- -- full -- ---------- -------- ------ ---- -------<br>---- --- --------- ------- ----- --------- ---- ----- --<br>------ -------- -- ------ -- ---- ------------,144213.70000004768,144213,144189.885,144182.60000002384,144206.557,144239.895,,28,full
screen,html.Screen,2_3_1_0_1_29,2022-03-19T21:21:36.386Z,,,,,,,,,,,,,,,,,19,,,,,,,,,,,,,,5.305000047694193,,response,,,,17,B,,,,,,Space,keypress(Space),,,,lyrical,,,,-------------- --- -------- -------- ---------- ---- -------<br>-- ---------- -- --- ----- ------ ----- ---- --------- ----<br>------- ------ -------- -- ------ ---------- ------ ---<br>------ -- -- ---- of ---------- -------- ------ ---- -------<br>---- --- --------- ------- ----- --------- ---- ----- --<br>------ -------- -- ------ -- ---- ------------,144245.89999997616,144245.20000004768,144223.242,144213.89999997616,144239.895,144273.258,,29,of
screen,html.Screen,2_3_1_0_1_30,2022-03-19T21:21:36.417Z,,,,,,,,,,,,,,,,,19,,,,,,,,,,,,,,3.74199999999837,,response,,,,17,B,,,,,,Space,keypress(Space),,,,lyrical,,,,-------------- --- -------- -------- ---------- ---- -------<br>-- ---------- -- --- ----- ------ ----- ---- --------- ----<br>------- ------ -------- -- ------ ---------- ------ ---<br>------ -- -- ---- -- surprises. -------- ------ ---- -------<br>---- --- --------- ------- ----- --------- ---- ----- --<br>------ -------- -- ------ -- ---- ------------,144277.60000002384,144277,144256.594,144246.10000002384,144273.258,144306.695,,30,surprises.
screen,html.Screen,2_3_1_0_1_31,2022-03-19T21:21:36.449Z,,,,,,,,,,,,,,,,,19,,,,,,,,,,,,,,2.304999999993015,,response,,,,17,B,,,,,,Space,keypress(Space),,,,lyrical,,,,-------------- --- -------- -------- ---------- ---- -------<br>-- ---------- -- --- ----- ------ ----- ---- --------- ----<br>------- ------ -------- -- ------ ---------- ------ ---<br>------ -- -- ---- -- ---------- Chemists ------ ---- -------<br>---- --- --------- ------- ----- --------- ---- ----- --<br>------ -------- -- ------ -- ---- ------------,144309.70000004768,144309,144289.981,144277.89999997616,144306.695,144339.987,,31,Chemists
screen,html.Screen,2_3_1_0_1_32,2022-03-19T21:21:36.481Z,,,,,,,,,,,,,,,,,19,,,,,,,,,,,,,,0.8129999523225706,,response,,,,17,B,,,,,,Space,keypress(Space),,,,lyrical,,,,-------------- --- -------- -------- ---------- ---- -------<br>-- ---------- -- --- ----- ------ ----- ---- --------- ----<br>------- ------ -------- -- ------ ---------- ------ ---<br>------ -- -- ---- -- ---------- -------- cannot ---- -------<br>---- --- --------- ------- ----- --------- ---- ----- --<br>------ -------- -- ------ -- ---- ------------,144341.39999997616,144340.79999995232,144323.317,144309.89999997616,144339.987,144373.393,,32,cannot
screen,html.Screen,2_3_1_0_1_33,2022-03-19T21:21:36.527Z,,,,,,,,,,,,,,,,,19,,,,,,,,,,,,,,13.707000023830915,,response,,,,17,B,,,,,,Space,keypress(Space),,,,lyrical,,,,-------------- --- -------- -------- ---------- ---- -------<br>-- ---------- -- --- ----- ------ ----- ---- --------- ----<br>------- ------ -------- -- ------ ---------- ------ ---<br>------ -- -- ---- -- ---------- -------- ------ even -------<br>---- --- --------- ------- ----- --------- ---- ----- --<br>------ -------- -- ------ -- ---- ------------,144387.79999995232,144387.10000002384,144356.679,144341.5,144373.393,144406.754,,33,even
screen,html.Screen,2_3_1_0_1_34,2022-03-19T21:21:36.559Z,,,,,,,,,,,,,,,,,19,,,,,,,,,,,,,,12.145999976171879,,response,,,,17,B,,,,,,Space,keypress(Space),,,,lyrical,,,,-------------- --- -------- -------- ---------- ---- -------<br>-- ---------- -- --- ----- ------ ----- ---- --------- ----<br>------- ------ -------- -- ------ ---------- ------ ---<br>------ -- -- ---- -- ---------- -------- ------ ---- predict<br>---- --- --------- ------- ----- --------- ---- ----- --<br>------ -------- -- ------ -- ---- ------------,144419.70000004768,144418.89999997616,144389.93,144388,144406.754,144440.115,,34,predict
screen,html.Screen,2_3_1_0_1_35,2022-03-19T21:21:36.592Z,,,,,,,,,,,,,,,,,19,,,,,,,,,,,,,,11.085000047693029,,response,,,,17,B,,,,,,Space,keypress(Space),,,,lyrical,,,,-------------- --- -------- -------- ---------- ---- -------<br>-- ---------- -- --- ----- ------ ----- ---- --------- ----<br>------- ------ -------- -- ------ ---------- ------ ---<br>------ -- -- ---- -- ---------- -------- ------ ---- -------<br>with --- --------- ------- ----- --------- ---- ----- --<br>------ -------- -- ------ -- ---- ------------,144451.89999997616,144451.20000004768,144423.399,144419.89999997616,144440.115,144473.422,,35,with
screen,html.Screen,2_3_1_0_1_36,2022-03-19T21:21:36.622Z,,,,,,,,,,,,,,,,,19,,,,,,,,,,,,,,8.477999976166757,,response,,,,17,B,,,,,,Space,keypress(Space),,,,lyrical,,,,-------------- --- -------- -------- ---------- ---- -------<br>-- ---------- -- --- ----- ------ ----- ---- --------- ----<br>------- ------ -------- -- ------ ---------- ------ ---<br>------ -- -- ---- -- ---------- -------- ------ ---- -------<br>---- any --------- ------- ----- --------- ---- ----- --<br>------ -------- -- ------ -- ---- ------------,144482.70000004768,144481.89999997616,144456.759,144452.10000002384,144473.422,144506.829,,36,any
screen,html.Screen,2_3_1_0_1_37,2022-03-19T21:21:36.654Z,,,,,,,,,,,,,,,,,19,,,,,,,,,,,,,,6.6710000000020955,,response,,,,17,B,,,,,,Space,keypress(Space),,,,lyrical,,,,-------------- --- -------- -------- ---------- ---- -------<br>-- ---------- -- --- ----- ------ ----- ---- --------- ----<br>------- ------ -------- -- ------ ---------- ------ ---<br>------ -- -- ---- -- ---------- -------- ------ ---- -------<br>---- --- certainty ------- ----- --------- ---- ----- --<br>------ -------- -- ------ -- ---- ------------,144514.29999995232,144513.5,144490.079,144482.89999997616,144506.829,144540.196,,37,certainty
screen,html.Screen,2_3_1_0_1_38,2022-03-19T21:21:36.685Z,,,,,,,,,,,,,,,,,19,,,,,,,,,,,,,,4.6039999523200095,,response,,,,17,B,,,,,,Space,keypress(Space),,,,lyrical,,,,-------------- --- -------- -------- ---------- ---- -------<br>-- ---------- -- --- ----- ------ ----- ---- --------- ----<br>------- ------ -------- -- ------ ---------- ------ ---<br>------ -- -- ---- -- ---------- -------- ------ ---- -------<br>---- --- --------- whether ----- --------- ---- ----- --<br>------ -------- -- ------ -- ---- ------------,144545.5,144544.79999995232,144523.44,144514.39999997616,144540.196,144573.561,,38,whether
screen,html.Screen,2_3_1_0_1_39,2022-03-19T21:21:36.718Z,,,,,,,,,,,,,,,,,19,,,,,,,,,,,,,,3.7389999523293227,,response,,,,17,B,,,,,,Space,keypress(Space),,,,lyrical,,,,-------------- --- -------- -------- ---------- ---- -------<br>-- ---------- -- --- ----- ------ ----- ---- --------- ----<br>------- ------ -------- -- ------ ---------- ------ ---<br>------ -- -- ---- -- ---------- -------- ------ ---- -------<br>---- --- --------- ------- these --------- ---- ----- --<br>------ -------- -- ------ -- ---- ------------,144577.89999997616,144577.29999995232,144556.84,144545.60000002384,144573.561,144606.91,,39,these
