sender,sender_type,sender_id,timestamp,meta,,Blues,Classical,Country,Dance,Electronic,Folk,Gospel,Hip-Hop,Jazz,Latin,Musical/Film,New-age,Pop,Prolific_id,Provo_ID,R&B,Rap,Reggae,Religious,Rock,Soul,Swing,Traditional,age,artist_name,correct,correctResponse,duration,education,ended_on,gender,headphone_check_performance,item,list,music_frequency,position_correct,response,response_action,snippet_file,song_name,song_rating,sound,stimulus_1,stimulus_2,stimulus_3,text,time_commit,time_end,time_render,time_run,time_show,time_switch,url,word,word_ID
Prolific ID,html.Form,0,2022-03-19T21:50:41.004Z,"{""labjs_version"":""20.2.2"",""labjs_build"":{""flavor"":""production"",""commit"":""a25486e0c714a0ae2ce03ff94b7bb6896854dcfa""},""location"":""https://run.pavlovia.org/mvasilev/prolific3_music_c/?__pilotToken=b6d767d2f8ed5d21a44b0e5886680cb9&__oauthToken=cc604b6e7d449fc5fe7a311b47aeaf3d810b53f5795c726b331b83656855f6f4"",""userAgent"":""Mozilla/5.0 (Windows NT 10.0; Win64; x64) AppleWebKit/537.36 (KHTML, like Gecko) Chrome/99.0.4844.74 Safari/537.36"",""platform"":""Win32"",""language"":""de-DE"",""locale"":""en-US"",""timeZone"":""Europe/London"",""timezoneOffset"":0,""screen_width"":2560,""screen_height"":1440,""scroll_width"":3200,""scroll_height"":1621,""window_innerWidth"":3200,""window_innerHeight"":1668,""devicePixelRatio"":0.800000011920929}",,,,,,,,,,,,,,,xyz123456789,,,,,,,,,,,,,,2600.5660000000007,,form submission,,,,,,,,,,,,,,,,,12249.899999976158,12249.5,9615.638,9628.899999976158,9648.934,12251.006,"{""__pilotToken"":""b6d767d2f8ed5d21a44b0e5886680cb9"",""__oauthToken"":""cc604b6e7d449fc5fe7a311b47aeaf3d810b53f5795c726b331b83656855f6f4""}",,
Introduction,html.Screen,1_0,2022-03-19T21:50:42.627Z,,,,,,,,,,,,,,,,,,,,,,,,,,,,,,1621.3939999761587,,response,,,,,,,continue,click button,,,,,,,,,13873.300000071526,13872.399999976158,12234.38,12250.200000047684,12251.006,13885.684,,,
Volume calibration,html.Screen,1_1,2022-03-19T21:50:43.254Z,,,,,,,,,,,,,,,,,,,,,,,,,,,,,,610.7159999761589,,response,,,,,,,continue,click button,,,,,,,,,14499.899999976158,14496.399999976158,13869.03,13873.399999976158,13885.684,14502.789,,,
Task instructions,html.Screen,1_2,2022-03-19T21:50:44.459Z,,,,,,,,,,,,,,,,,,,,,,,,,,,,,,1201.511000071525,,response,,,,,,,continue,click button,,,,,,,,,15704.899999976158,15704.300000071526,14486.191,14500,14502.789,15720.533,,,
Sounds,html.Screen,1_3_0_0,2022-03-19T21:50:48.715Z,,,,,,,,,,,,,,,,,,,,,,,,,,,,,,4253.338,,timeout,,,,,,2,,,,,,,I,S,O,,19961.5,19957.283,15703.813,15705.100000023842,15720.533,19973.871,,,
Judgement,html.Screen,1_3_0_1,2022-03-19T21:50:49.227Z,,,,,,,,,,,,,,,,,,,,,,,,,,,,true,2,498.4290000715264,,response,,,,,,2,2,click #choice-2,,,,,I,S,O,,20473.100000023842,20472.300000071526,19957.283,19961.899999976158,19973.871,20474.341,,,
Trial,flow.Sequence,1_3_0,2022-03-19T21:50:49.227Z,,,,,,,,,,,,,,,,,,,,,,,,,,,,,,4751.767000071526,,completion,,,,,,2,,,,,,,I,S,O,,20473.300000071526,20472.300000071526,15703.813,15705,15720.533,20474.341,,,
Sounds,html.Screen,1_3_1_0,2022-03-19T21:50:53.466Z,,,,,,,,,,,,,,,,,,,,,,,,,,,,,,4253.465,,timeout,,,,,,1,,,,,,,S,I,O,,24711.899999976158,24711.114,20457.682,20473.600000023842,20474.341,24727.806,,,
Judgement,html.Screen,1_3_1_1,2022-03-19T21:50:53.923Z,,,,,,,,,,,,,,,,,,,,,,,,,,,,true,1,440.3940000476832,,response,,,,,,1,1,click #choice-1,,,,,S,I,O,,25168.800000071526,25168.200000047684,24711.114,24712.200000047684,24727.806,25178.013,,,
Trial,flow.Sequence,1_3_1,2022-03-19T21:50:53.923Z,,,,,,,,,,,,,,,,,,,,,,,,,,,,,,4693.859000047683,,completion,,,,,,1,,,,,,,S,I,O,,25169.100000023842,25168.200000047684,20457.682,20473.399999976158,20474.341,25178.013,,,
Sounds,html.Screen,1_3_2_0,2022-03-19T21:50:58.169Z,,,,,,,,,,,,,,,,,,,,,,,,,,,,,,4253.596000000001,,timeout,,,,,,3,,,,,,,O,I,S,,29415.700000047684,29414.876,25161.476,25169.200000047684,25178.013,29431.609,,,
Judgement,html.Screen,1_3_2_1,2022-03-19T21:50:58.659Z,,,,,,,,,,,,,,,,,,,,,,,,,,,,true,3,472.59100004768334,,response,,,,,,3,3,click #choice-3,,,,,O,I,S,,29904.899999976158,29904.200000047684,29414.876,29415.899999976158,29431.609,29915.293,,,
Trial,flow.Sequence,1_3_2,2022-03-19T21:50:58.659Z,,,,,,,,,,,,,,,,,,,,,,,,,,,,,,4726.187000047685,,completion,,,,,,3,,,,,,,O,I,S,,29905.100000023842,29904.200000047684,25161.476,25169.200000047684,25178.013,29915.293,,,
Sounds,html.Screen,1_3_3_0,2022-03-19T21:51:02.907Z,,,,,,,,,,,,,,,,,,,,,,,,,,,,,,4253.473000000002,,timeout,,,,,,2,,,,,,,O,S,I,,34153,34152.078,29898.637,29905.200000047684,29915.293,34168.766,,,
Judgement,html.Screen,1_3_3_1,2022-03-19T21:51:03.379Z,,,,,,,,,,,,,,,,,,,,,,,,,,,,true,2,455.5340000715223,,response,,,,,,2,2,click #choice-2,,,,,O,S,I,,34625.10000002384,34624.300000071526,34152.078,34153.200000047684,34168.766,34635.85,,,
Trial,flow.Sequence,1_3_3,2022-03-19T21:51:03.379Z,,,,,,,,,,,,,,,,,,,,,,,,,,,,,,4709.007000071524,,completion,,,,,,2,,,,,,,O,S,I,,34625.300000071526,34624.300000071526,29898.637,29905.200000047684,29915.293,34635.85,,,
Sounds,html.Screen,1_3_4_0,2022-03-19T21:51:07.627Z,,,,,,,,,,,,,,,,,,,,,,,,,,,,,,4253.402999999998,,timeout,,,,,,3,,,,,,,I,O,S,,38873.300000071526,38872.547,34619.125,34625.39999997616,34635.85,38889.253,,,
Judgement,html.Screen,1_3_4_1,2022-03-19T21:51:08.267Z,,,,,,,,,,,,,,,,,,,,,,,,,,,,true,3,623.247000000003,,response,,,,,,3,3,click #choice-3,,,,,I,O,S,,39513.300000071526,39512.5,38872.547,38873.5,38889.253,39523.022,,,
Trial,flow.Sequence,1_3_4,2022-03-19T21:51:08.267Z,,,,,,,,,,,,,,,,,,,,,,,,,,,,,,4876.6500000000015,,completion,,,,,,3,,,,,,,I,O,S,,39513.5,39512.5,34619.125,34625.39999997616,34635.85,39523.022,,,
Sounds,html.Screen,1_3_5_0,2022-03-19T21:51:12.514Z,,,,,,,,,,,,,,,,,,,,,,,,,,,,,,4253.491000000002,,timeout,,,,,,1,,,,,,,S,O,I,,43760.5,43759.829,39506.393,39513.60000002384,39523.022,43776.513,,,
Judgement,html.Screen,1_3_5_1,2022-03-19T21:51:13.027Z,,,,,,,,,,,,,,,,,,,,,,,,,,,,true,1,495.6870000476847,,response,,,,,,1,1,click #choice-1,,,,,S,O,I,,44272.89999997616,44272.200000047684,43759.829,43760.800000071526,43776.513,44276.851,,,
Trial,flow.Sequence,1_3_5,2022-03-19T21:51:13.027Z,,,,,,,,,,,,,,,,,,,,,,,,,,,,,,4749.1780000476865,,completion,,,,,,1,,,,,,,S,O,I,,44273.10000002384,44272.200000047684,39506.393,39513.60000002384,39523.022,44276.851,,,
Task,flow.Loop,1_3,2022-03-19T21:51:13.031Z,,,,,,,,,,,,,,,,,,,,,,,,,,,,,,28551.667000047684,,completion,,1,,,,,,,,,,,,,,,44277.700000047684,44272.200000047684,15703.813,15705,15720.533,44276.851,,,
Trap,html.Screen,1_4,2022-03-19T21:51:13.033Z,,,,,,,,,,,,,,,,,,,,,,,,,,,,,,NaN,,skipped,,,,,,,,,,,,,,,,,44279,44272.200000047684,,44278.89999997616,,44276.851,,,
Thanks,html.Screen,1_5,2022-03-19T21:51:14.563Z,,,,,,,,,,,,,,,,,,,,,,,,,,,,,,1531.4490000715232,,response,,,,,,,continue,click button,,,,,,,,,45809,45808.300000071526,44260.18,44279.10000002384,44276.851,46812.284,,,
Headphone screening,flow.Sequence,1,2022-03-19T21:51:14.563Z,,,,,,,,,,,,,,,,,,,,,,,,,,,,,,33557.294000071524,,completion,,,,,,,,,,,,,,,,,45809.200000047684,45808.300000071526,12234.38,12250.200000047684,12251.006,46812.284,,,
Instructions,html.Page,2_0,2022-03-19T21:51:16.955Z,,,,,,,,,,,,,,,,,,,,,,,,,,,,,,1388.7160000000003,,form submission,,,,,,,,,,,,,,,,,48201.5,48201,46795.484,46812.5,46812.284,48213.384,,,
Holding screen,html.Screen,2_1_0_0,2022-03-19T21:51:26.967Z,,,,,,,,,,,,,,,,,,,,,,,,,,,,,,10008.124000000003,,timeout,,,,,,,,,,,,,,,,,58213.200000047684,58204.817,48196.702,48201.800000071526,48213.384,58221.508,,,
screen,html.Screen,2_1_0_1_0,2022-03-19T21:51:28.184Z,,,,,,,,,,,,,,,,,53,,,,,,,,,,,,,1204.4919999999984,,response,,,99,,,,Space,keypress(Space),,,,,,,,When -- ----- -- ------ - ------- --- ----------<br>------------- ------ ------ ---- ---- ------- ----- -- ----<br>-------- ------- -- ---------- --- - --- ----- ----- ----<br>---- --- --- ----- --- ---- ---- ------- ----- ---- -------<br>--- --- -- ----- -- --- ---- -- --- ---- -- ------ ------<br>--- ----- -- ----,59430.700000047684,59426,58204.817,58213.5,58221.508,59439.024,,0,When
screen,html.Screen,2_1_0_1_1,2022-03-19T21:51:28.686Z,,,,,,,,,,,,,,,,,53,,,,,,,,,,,,,492.9760000000024,,response,,,99,,,,Space,keypress(Space),,,,,,,,---- it ----- -- ------ - ------- --- ----------<br>------------- ------ ------ ---- ---- ------- ----- -- ----<br>-------- ------- -- ---------- --- - --- ----- ----- ----<br>---- --- --- ----- --- ---- ---- ------- ----- ---- -------<br>--- --- -- ----- -- --- ---- -- --- ---- -- ------ ------<br>--- ----- -- ----,59932.700000047684,59932,59422.467,59430.89999997616,59439.024,59939.432,,1,it
screen,html.Screen,2_1_0_1_2,2022-03-19T21:51:28.717Z,,,,,,,,,,,,,,,,,53,,,,,,,,,,,,,23.268000047683017,,response,,,99,,,,Space,keypress(Space),,,,,,,,---- -- comes -- ------ - ------- --- ----------<br>------------- ------ ------ ---- ---- ------- ----- -- ----<br>-------- ------- -- ---------- --- - --- ----- ----- ----<br>---- --- --- ----- --- ---- ---- ------- ----- ---- -------<br>--- --- -- ----- -- --- ---- -- --- ---- -- ------ ------<br>--- ----- -- ----,59963.39999997616,59962.700000047684,59922.873,59932.89999997616,59939.432,59972.92,,2,comes
screen,html.Screen,2_1_0_1_3,2022-03-19T21:51:28.748Z,,,,,,,,,,,,,,,,,53,,,,,,,,,,,,,20.97999997615989,,response,,,99,,,,Space,keypress(Space),,,,,,,,---- -- ----- to ------ - ------- --- ----------<br>------------- ------ ------ ---- ---- ------- ----- -- ----<br>-------- ------- -- ---------- --- - --- ----- ----- ----<br>---- --- --- ----- --- ---- ---- ------- ----- ---- -------<br>--- --- -- ----- -- --- ---- -- --- ---- -- ------ ------<br>--- ----- -- ----,59994.5,59993.89999997616,59956.278,59963.60000002384,59972.92,60006.318,,3,to
screen,html.Screen,2_1_0_1_4,2022-03-19T21:51:28.793Z,,,,,,,,,,,,,,,,,53,,,,,,,,,,,,,33.1820000000007,,response,,,99,,,,Space,keypress(Space),,,,,,,,---- -- ----- -- having - ------- --- ----------<br>------------- ------ ------ ---- ---- ------- ----- -- ----<br>-------- ------- -- ---------- --- - --- ----- ----- ----<br>---- --- --- ----- --- ---- ---- ------- ----- ---- -------<br>--- --- -- ----- -- --- ---- -- --- ---- -- ------ ------<br>--- ----- -- ----,60040.200000047684,60039.5,59989.595,59994.800000071526,60006.318,60073.033,,4,having
screen,html.Screen,2_1_0_1_5,2022-03-19T21:51:28.825Z,,,,,,,,,,,,,,,,,53,,,,,,,,,,,,,15.184999999997672,,response,,,99,,,,Space,keypress(Space),,,,,,,,---- -- ----- -- ------ a ------- --- ----------<br>------------- ------ ------ ---- ---- ------- ----- -- ----<br>-------- ------- -- ---------- --- - --- ----- ----- ----<br>---- --- --- ----- --- ---- ---- ------- ----- ---- -------<br>--- --- -- ----- -- --- ---- -- --- ---- -- ------ ------<br>--- ----- -- ----,60072.10000002384,60071.5,60056.315,60040.39999997616,,60089.714,,5,a
screen,html.Screen,2_1_0_1_6,2022-03-19T21:51:28.855Z,,,,,,,,,,,,,,,,,53,,,,,,,,,,,,,11.6859999761582,,response,,,99,,,,Space,keypress(Space),,,,,,,,---- -- ----- -- ------ - lasting --- ----------<br>------------- ------ ------ ---- ---- ------- ----- -- ----<br>-------- ------- -- ---------- --- - --- ----- ----- ----<br>---- --- --- ----- --- ---- ---- ------- ----- ---- -------<br>--- --- -- ----- -- --- ---- -- --- ---- -- ------ ------<br>--- ----- -- ----,60101.89999997616,60101.39999997616,60073.033,60072.39999997616,60089.714,60123.078,,6,lasting
screen,html.Screen,2_1_0_1_7,2022-03-19T21:51:28.886Z,,,,,,,,,,,,,,,,,53,,,,,,,,,,,,,9.321999976156803,,response,,,99,,,,Space,keypress(Space),,,,,,,,---- -- ----- -- ------ - ------- and ----------<br>------------- ------ ------ ---- ---- ------- ----- -- ----<br>-------- ------- -- ---------- --- - --- ----- ----- ----<br>---- --- --- ----- --- ---- ---- ------- ----- ---- -------<br>--- --- -- ----- -- --- ---- -- --- ---- -- ------ ------<br>--- ----- -- ----,60133.10000002384,60132.39999997616,60106.361,60102.200000047684,60123.078,60156.44,,7,and
screen,html.Screen,2_1_0_1_8,2022-03-19T21:51:28.916Z,,,,,,,,,,,,,,,,,53,,,,,,,,,,,,,5.959999976155814,,response,,,99,,,,Space,keypress(Space),,,,,,,,---- -- ----- -- ------ - ------- --- fulfilling<br>------------- ------ ------ ---- ---- ------- ----- -- ----<br>-------- ------- -- ---------- --- - --- ----- ----- ----<br>---- --- --- ----- --- ---- ---- ------- ----- ---- -------<br>--- --- -- ----- -- --- ---- -- --- ---- -- ------ ------<br>--- ----- -- ----,60163,60162.39999997616,60139.715,60133.300000071526,60156.44,60189.798,,8,fulfilling
screen,html.Screen,2_1_0_1_9,2022-03-19T21:51:28.948Z,,,,,,,,,,,,,,,,,53,,,,,,,,,,,,,4.302000023839355,,response,,,99,,,,Space,keypress(Space),,,,,,,,"---- -- ----- -- ------ - ------- --- ----------<br>relationship, ------ ------ ---- ---- ------- ----- -- ----<br>-------- ------- -- ---------- --- - --- ----- ----- ----<br>---- --- --- ----- --- ---- ---- ------- ----- ---- -------<br>--- --- -- ----- -- --- ---- -- --- ---- -- ------ ------<br>--- ----- -- ----",60194.800000071526,60194.10000002384,60173.075,60163.200000047684,60189.798,60223.097,,9,"relationship,"
screen,html.Screen,2_1_0_1_10,2022-03-19T21:51:28.980Z,,,,,,,,,,,,,,,,,53,,,,,,,,,,,,,2.603000047682144,,response,,,99,,,,Space,keypress(Space),,,,,,,,---- -- ----- -- ------ - ------- --- ----------<br>------------- common ------ ---- ---- ------- ----- -- ----<br>-------- ------- -- ---------- --- - --- ----- ----- ----<br>---- --- --- ----- --- ---- ---- ------- ----- ---- -------<br>--- --- -- ----- -- --- ---- -- --- ---- -- ------ ------<br>--- ----- -- ----,60226.5,60225.700000047684,60206.435,60194.89999997616,60223.097,60256.473,,10,common
screen,html.Screen,2_1_0_1_11,2022-03-19T21:51:29.011Z,,,,,,,,,,,,,,,,,53,,,,,,,,,,,,,1.1270000238437206,,response,,,99,,,,Space,keypress(Space),,,,,,,,---- -- ----- -- ------ - ------- --- ----------<br>------------- ------ wisdom ---- ---- ------- ----- -- ----<br>-------- ------- -- ---------- --- - --- ----- ----- ----<br>---- --- --- ----- --- ---- ---- ------- ----- ---- -------<br>--- --- -- ----- -- --- ---- -- --- ---- -- ------ ------<br>--- ----- -- ----,60258,60257.60000002384,60239.796,60226.700000047684,60256.473,60289.833,,11,wisdom
screen,html.Screen,2_1_0_1_12,2022-03-19T21:51:29.043Z,,,,,,,,,,,,,,,,,53,,,,,,,,,,,,,15.811000000001513,,response,,,99,,,,Space,keypress(Space),,,,,,,,---- -- ----- -- ------ - ------- --- ----------<br>------------- ------ ------ says ---- ------- ----- -- ----<br>-------- ------- -- ---------- --- - --- ----- ----- ----<br>---- --- --- ----- --- ---- ---- ------- ----- ---- -------<br>--- --- -- ----- -- --- ---- -- --- ---- -- ------ ------<br>--- ----- -- ----,60289.60000002384,60289,60273.189,60258.200000047684,,60306.564,,12,says
screen,html.Screen,2_1_0_1_13,2022-03-19T21:51:29.090Z,,,,,,,,,,,,,,,,,53,,,,,,,,,,,,,29.736000071527087,,response,,,99,,,,Space,keypress(Space),,,,,,,,---- -- ----- -- ------ - ------- --- ----------<br>------------- ------ ------ ---- that ------- ----- -- ----<br>-------- ------- -- ---------- --- - --- ----- ----- ----<br>---- --- --- ----- --- ---- ---- ------- ----- ---- -------<br>--- --- -- ----- -- --- ---- -- --- ---- -- ------ ------<br>--- ----- -- ----,60336.800000071526,60336.300000071526,60289.833,60289.700000047684,60306.564,60339.839,,13,that
screen,html.Screen,2_1_0_1_14,2022-03-19T21:51:29.122Z,,,,,,,,,,,,,,,,,53,,,,,,,,,,,,,28.361000047683774,,response,,,99,,,,Space,keypress(Space),,,,,,,,---- -- ----- -- ------ - ------- --- ----------<br>------------- ------ ------ ---- ---- feeling ----- -- ----<br>-------- ------- -- ---------- --- - --- ----- ----- ----<br>---- --- --- ----- --- ---- ---- ------- ----- ---- -------<br>--- --- -- ----- -- --- ---- -- --- ---- -- ------ ------<br>--- ----- -- ----,60368.800000071526,60368.200000047684,60323.241,60337,60339.839,60373.293,,14,feeling
screen,html.Screen,2_1_0_1_15,2022-03-19T21:51:29.153Z,,,,,,,,,,,,,,,,,53,,,,,,,,,,,,,26.106999976160296,,response,,,99,,,,Space,keypress(Space),,,,,,,,---- -- ----- -- ------ - ------- --- ----------<br>------------- ------ ------ ---- ---- ------- close -- ----<br>-------- ------- -- ---------- --- - --- ----- ----- ----<br>---- --- --- ----- --- ---- ---- ------- ----- ---- -------<br>--- --- -- ----- -- --- ---- -- --- ---- -- ------ ------<br>--- ----- -- ----,60400,60399.39999997616,60356.551,60369,60373.293,60406.518,,15,close
screen,html.Screen,2_1_0_1_16,2022-03-19T21:51:29.183Z,,,,,,,,,,,,,,,,,53,,,,,,,,,,,,,22.98200000000361,,response,,,99,,,,Space,keypress(Space),,,,,,,,---- -- ----- -- ------ - ------- --- ----------<br>------------- ------ ------ ---- ---- ------- ----- to ----<br>-------- ------- -- ---------- --- - --- ----- ----- ----<br>---- --- --- ----- --- ---- ---- ------- ----- ---- -------<br>--- --- -- ----- -- --- ---- -- --- ---- -- ------ ------<br>--- ----- -- ----,60430.10000002384,60429.5,60389.91,60400.300000071526,60406.518,60439.926,,16,to
screen,html.Screen,2_1_0_1_17,2022-03-19T21:51:29.215Z,,,,,,,,,,,,,,,,,53,,,,,,,,,,,,,20.874000071526098,,response,,,99,,,,Space,keypress(Space),,,,,,,,---- -- ----- -- ------ - ------- --- ----------<br>------------- ------ ------ ---- ---- ------- ----- -- your<br>-------- ------- -- ---------- --- - --- ----- ----- ----<br>---- --- --- ----- --- ---- ---- ------- ----- ---- -------<br>--- --- -- ----- -- --- ---- -- --- ---- -- ------ ------<br>--- ----- -- ----,60461.39999997616,60460.800000071526,60423.316,60430.300000071526,60439.926,60473.203,,17,your
screen,html.Screen,2_1_0_1_18,2022-03-19T21:51:29.247Z,,,,,,,,,,,,,,,,,53,,,,,,,,,,,,,19.79699999999866,,response,,,99,,,,Space,keypress(Space),,,,,,,,---- -- ----- -- ------ - ------- --- ----------<br>------------- ------ ------ ---- ---- ------- ----- -- ----<br>romantic ------- -- ---------- --- - --- ----- ----- ----<br>---- --- --- ----- --- ---- ---- ------- ----- ---- -------<br>--- --- -- ----- -- --- ---- -- --- ---- -- ------ ------<br>--- ----- -- ----,60493.5,60493,60456.602,60461.60000002384,60473.203,60506.717,,18,romantic
screen,html.Screen,2_1_0_1_19,2022-03-19T21:51:29.279Z,,,,,,,,,,,,,,,,,53,,,,,,,,,,,,,18.283000000003085,,response,,,99,,,,Space,keypress(Space),,,,,,,,---- -- ----- -- ------ - ------- --- ----------<br>------------- ------ ------ ---- ---- ------- ----- -- ----<br>-------- partner -- ---------- --- - --- ----- ----- ----<br>---- --- --- ----- --- ---- ---- ------- ----- ---- -------<br>--- --- -- ----- -- --- ---- -- --- ---- -- ------ ------<br>--- ----- -- ----,60525.60000002384,60525,60490,60493.700000047684,60506.717,60540.029,,19,partner
screen,html.Screen,2_1_0_1_20,2022-03-19T21:51:29.311Z,,,,,,,,,,,,,,,,,53,,,,,,,,,,,,,16.47099999999773,,response,,,99,,,,Space,keypress(Space),,,,,,,,---- -- ----- -- ------ - ------- --- ----------<br>------------- ------ ------ ---- ---- ------- ----- -- ----<br>-------- ------- is ---------- --- - --- ----- ----- ----<br>---- --- --- ----- --- ---- ---- ------- ----- ---- -------<br>--- --- -- ----- -- --- ---- -- --- ---- -- ------ ------<br>--- ----- -- ----,60557.200000047684,60556.5,60523.33,60525.800000071526,60540.029,60573.345,,20,is
screen,html.Screen,2_1_0_1_21,2022-03-19T21:51:29.341Z,,,,,,,,,,,,,,,,,53,,,,,,,,,,,,,13.755000023840694,,response,,,99,,,,Space,keypress(Space),,,,,,,,---- -- ----- -- ------ - ------- --- ----------<br>------------- ------ ------ ---- ---- ------- ----- -- ----<br>-------- ------- -- paramount. --- - --- ----- ----- ----<br>---- --- --- ----- --- ---- ---- ------- ----- ---- -------<br>--- --- -- ----- -- --- ---- -- --- ---- -- ------ ------<br>--- ----- -- ----,60587.89999997616,60587.10000002384,60556.681,60557.39999997616,60573.345,60606.743,,21,paramount.
screen,html.Screen,2_1_0_1_22,2022-03-19T21:51:29.388Z,,,,,,,,,,,,,,,,,53,,,,,,,,,,,,,27.357000023839646,,response,,,99,,,,Space,keypress(Space),,,,,,,,---- -- ----- -- ------ - ------- --- ----------<br>------------- ------ ------ ---- ---- ------- ----- -- ----<br>-------- ------- -- ---------- But - --- ----- ----- ----<br>---- --- --- ----- --- ---- ---- ------- ----- ---- -------<br>--- --- -- ----- -- --- ---- -- --- ---- -- ------ ------<br>--- ----- -- ----,60634.800000071526,60634.10000002384,60590.083,60588.10000002384,60606.743,60656.784,,22,But
screen,html.Screen,2_1_0_1_23,2022-03-19T21:51:29.419Z,,,,,,,,,,,,,,,,,53,,,,,,,,,,,,,7.816000023842207,,response,,,99,,,,Space,keypress(Space),,,,,,,,---- -- ----- -- ------ - ------- --- ----------<br>------------- ------ ------ ---- ---- ------- ----- -- ----<br>-------- ------- -- ---------- --- a --- ----- ----- ----<br>---- --- --- ----- --- ---- ---- ------- ----- ---- -------<br>--- --- -- ----- -- --- ---- -- --- ---- -- ------ ------<br>--- ----- -- ----,60665.200000047684,60664.60000002384,60640.128,60634.89999997616,60656.784,60690.148,,23,a
screen,html.Screen,2_1_0_1_24,2022-03-19T21:51:29.450Z,,,,,,,,,,,,,,,,,53,,,,,,,,,,,,,6.251999976157094,,response,,,99,,,,Space,keypress(Space),,,,,,,,---- -- ----- -- ------ - ------- --- ----------<br>------------- ------ ------ ---- ---- ------- ----- -- ----<br>-------- ------- -- ---------- --- - new ----- ----- ----<br>---- --- --- ----- --- ---- ---- ------- ----- ---- -------<br>--- --- -- ----- -- --- ---- -- --- ---- -- ------ ------<br>--- ----- -- ----,60697,60696.39999997616,60673.485,60665.5,60690.148,60723.556,,24,new
screen,html.Screen,2_1_0_1_25,2022-03-19T21:51:29.481Z,,,,,,,,,,,,,,,,,53,,,,,,,,,,,,,3.744000071528717,,response,,,99,,,,Space,keypress(Space),,,,,,,,---- -- ----- -- ------ - ------- --- ----------<br>------------- ------ ------ ---- ---- ------- ----- -- ----<br>-------- ------- -- ---------- --- - --- study ----- ----<br>---- --- --- ----- --- ---- ---- ------- ----- ---- -------<br>--- --- -- ----- -- --- ---- -- --- ---- -- ------ ------<br>--- ----- -- ----,60728,60727.300000071526,60706.846,60697.200000047684,60723.556,60756.922,,25,study
screen,html.Screen,2_1_0_1_26,2022-03-19T21:51:29.513Z,,,,,,,,,,,,,,,,,53,,,,,,,,,,,,,1.9779999761594809,,response,,,99,,,,Space,keypress(Space),,,,,,,,---- -- ----- -- ------ - ------- --- ----------<br>------------- ------ ------ ---- ---- ------- ----- -- ----<br>-------- ------- -- ---------- --- - --- ----- finds ----<br>---- --- --- ----- --- ---- ---- ------- ----- ---- -------<br>--- --- -- ----- -- --- ---- -- --- ---- -- ------ ------<br>--- ----- -- ----,60759.5,60758.89999997616,60740.198,60728.200000047684,60756.922,60790.231,,26,finds
screen,html.Screen,2_1_0_1_27,2022-03-19T21:51:29.543Z,,,,,,,,,,,,,,,,,53,,,,,,,,,,,,,16.074000023843837,,response,,,99,,,,Space,keypress(Space),,,,,,,,---- -- ----- -- ------ - ------- --- ----------<br>------------- ------ ------ ---- ---- ------- ----- -- ----<br>-------- ------- -- ---------- --- - --- ----- ----- that<br>---- --- --- ----- --- ---- ---- ------- ----- ---- -------<br>--- --- -- ----- -- --- ---- -- --- ---- -- ------ ------<br>--- ----- -- ----,60790.10000002384,60789.60000002384,60773.526,60759.700000047684,,60806.962,,27,that
screen,html.Screen,2_1_0_1_28,2022-03-19T21:51:29.575Z,,,,,,,,,,,,,,,,,53,,,,,,,,,,,,,14.038000000000466,,response,,,99,,,,Space,keypress(Space),,,,,,,,---- -- ----- -- ------ - ------- --- ----------<br>------------- ------ ------ ---- ---- ------- ----- -- ----<br>-------- ------- -- ---------- --- - --- ----- ----- ----<br>it's --- --- ----- --- ---- ---- ------- ----- ---- -------<br>--- --- -- ----- -- --- ---- -- --- ---- -- ------ ------<br>--- ----- -- ----,60821.700000047684,60821,60790.231,60790.300000071526,60806.962,60840.317,,28,it's
screen,html.Screen,2_1_0_1_29,2022-03-19T21:51:29.605Z,,,,,,,,,,,,,,,,,53,,,,,,,,,,,,,11.182999999997264,,response,,,99,,,,Space,keypress(Space),,,,,,,,---- -- ----- -- ------ - ------- --- ----------<br>------------- ------ ------ ---- ---- ------- ----- -- ----<br>-------- ------- -- ---------- --- - --- ----- ----- ----<br>---- not --- ----- --- ---- ---- ------- ----- ---- -------<br>--- --- -- ----- -- --- ---- -- --- ---- -- ------ ------<br>--- ----- -- ----,60852.200000047684,60851.5,60823.599,60821.89999997616,60840.317,60873.679,,29,not
screen,html.Screen,2_1_0_1_30,2022-03-19T21:51:29.638Z,,,,,,,,,,,,,,,,,53,,,,,,,,,,,,,10.220999976161693,,response,,,99,,,,Space,keypress(Space),,,,,,,,---- -- ----- -- ------ - ------- --- ----------<br>------------- ------ ------ ---- ---- ------- ----- -- ----<br>-------- ------- -- ---------- --- - --- ----- ----- ----<br>---- --- how ----- --- ---- ---- ------- ----- ---- -------<br>--- --- -- ----- -- --- ---- -- --- ---- -- ------ ------<br>--- ----- -- ----,60884.60000002384,60883.89999997616,60856.959,60852.39999997616,60873.679,60907.043,,30,how
screen,html.Screen,2_1_0_1_31,2022-03-19T21:51:29.685Z,,,,,,,,,,,,,,,,,53,,,,,,,,,,,,,23.55700002384401,,response,,,99,,,,Space,keypress(Space),,,,,,,,---- -- ----- -- ------ - ------- --- ----------<br>------------- ------ ------ ---- ---- ------- ----- -- ----<br>-------- ------- -- ---------- --- - --- ----- ----- ----<br>---- --- --- close --- ---- ---- ------- ----- ---- -------<br>--- --- -- ----- -- --- ---- -- --- ---- -- ------ ------<br>--- ----- -- ----,60931.300000071526,60930.60000002384,60890.333,60884.89999997616,60907.043,60957.029,,31,close
screen,html.Screen,2_1_0_1_32,2022-03-19T21:51:29.715Z,,,,,,,,,,,,,,,,,53,,,,,,,,,,,,,4.47099999999773,,response,,,99,,,,Space,keypress(Space),,,,,,,,---- -- ----- -- ------ - ------- --- ----------<br>------------- ------ ------ ---- ---- ------- ----- -- ----<br>-------- ------- -- ---------- --- - --- ----- ----- ----<br>---- --- --- ----- you ---- ---- ------- ----- ---- -------<br>--- --- -- ----- -- --- ---- -- --- ---- -- ------ ------<br>--- ----- -- ----,60962.10000002384,60961.5,60940.366,60931.39999997616,60957.029,60990.455,,32,you
screen,html.Screen,2_1_0_1_33,2022-03-19T21:51:29.747Z,,,,,,,,,,,,,,,,,53,,,,,,,,,,,,,2.944999976156396,,response,,,99,,,,Space,keypress(Space),,,,,,,,---- -- ----- -- ------ - ------- --- ----------<br>------------- ------ ------ ---- ---- ------- ----- -- ----<br>-------- ------- -- ---------- --- - --- ----- ----- ----<br>---- --- --- ----- --- feel ---- ------- ----- ---- -------<br>--- --- -- ----- -- --- ---- -- --- ---- -- ------ ------<br>--- ----- -- ----,60994,60993.39999997616,60973.731,60962.200000047684,60990.455,61023.801,,33,feel
screen,html.Screen,2_1_0_1_34,2022-03-19T21:51:29.778Z,,,,,,,,,,,,,,,,,53,,,,,,,,,,,,,0.6990000000005239,,response,,,99,,,,Space,keypress(Space),,,,,,,,---- -- ----- -- ------ - ------- --- ----------<br>------------- ------ ------ ---- ---- ------- ----- -- ----<br>-------- ------- -- ---------- --- - --- ----- ----- ----<br>---- --- --- ----- --- ---- that ------- ----- ---- -------<br>--- --- -- ----- -- --- ---- -- --- ---- -- ------ ------<br>--- ----- -- ----,61025,61024.5,61007.038,60994.10000002384,61023.801,61057.111,,34,that
screen,html.Screen,2_1_0_1_35,2022-03-19T21:51:29.809Z,,,,,,,,,,,,,,,,,53,,,,,,,,,,,,,14.853000071525457,,response,,,99,,,,Space,keypress(Space),,,,,,,,---- -- ----- -- ------ - ------- --- ----------<br>------------- ------ ------ ---- ---- ------- ----- -- ----<br>-------- ------- -- ---------- --- - --- ----- ----- ----<br>---- --- --- ----- --- ---- ---- matters ----- ---- -------<br>--- --- -- ----- -- --- ---- -- --- ---- -- ------ ------<br>--- ----- -- ----,61055.89999997616,61055.300000071526,61040.447,61025.200000047684,,61073.829,,35,matters
screen,html.Screen,2_1_0_1_36,2022-03-19T21:51:29.841Z,,,,,,,,,,,,,,,,,53,,,,,,,,,,,,,12.97100007152767,,response,,,99,,,,Space,keypress(Space),,,,,,,,"---- -- ----- -- ------ - ------- --- ----------<br>------------- ------ ------ ---- ---- ------- ----- -- ----<br>-------- ------- -- ---------- --- - --- ----- ----- ----<br>---- --- --- ----- --- ---- ---- ------- most, ---- -------<br>--- --- -- ----- -- --- ---- -- --- ---- -- ------ ------<br>--- ----- -- ----",61087.700000047684,61086.800000071526,61057.111,61056.10000002384,61073.829,61107.209,,36,"most,"
screen,html.Screen,2_1_0_1_37,2022-03-19T21:51:29.871Z,,,,,,,,,,,,,,,,,53,,,,,,,,,,,,,10.190999976155581,,response,,,99,,,,Space,keypress(Space),,,,,,,,---- -- ----- -- ------ - ------- --- ----------<br>------------- ------ ------ ---- ---- ------- ----- -- ----<br>-------- ------- -- ---------- --- - --- ----- ----- ----<br>---- --- --- ----- --- ---- ---- ------- ----- it's -------<br>--- --- -- ----- -- --- ---- -- --- ---- -- ------ ------<br>--- ----- -- ----,61118.10000002384,61117.39999997616,61090.468,61088.10000002384,61107.209,61140.57,,37,it's
screen,html.Screen,2_1_0_1_38,2022-03-19T21:51:29.902Z,,,,,,,,,,,,,,,,,53,,,,,,,,,,,,,7.829999976158433,,response,,,99,,,,Space,keypress(Space),,,,,,,,---- -- ----- -- ------ - ------- --- ----------<br>------------- ------ ------ ---- ---- ------- ----- -- ----<br>-------- ------- -- ---------- --- - --- ----- ----- ----<br>---- --- --- ----- --- ---- ---- ------- ----- ---- whether<br>--- --- -- ----- -- --- ---- -- --- ---- -- ------ ------<br>--- ----- -- ----,61149.10000002384,61148.39999997616,61123.88,61118.200000047684,61140.57,61173.943,,38,whether
screen,html.Screen,2_1_0_1_39,2022-03-19T21:51:29.949Z,,,,,,,,,,,,,,,,,53,,,,,,,,,,,,,21.45699997615884,,response,,,99,,,,Space,keypress(Space),,,,,,,,---- -- ----- -- ------ - ------- --- ----------<br>------------- ------ ------ ---- ---- ------- ----- -- ----<br>-------- ------- -- ---------- --- - --- ----- ----- ----<br>---- --- --- ----- --- ---- ---- ------- ----- ---- -------<br>you --- -- ----- -- --- ---- -- --- ---- -- ------ ------<br>--- ----- -- ----,61196,61195.39999997616,61157.22,61149.39999997616,61173.943,61223.97,,39,you
screen,html.Screen,2_1_0_1_40,2022-03-19T21:51:29.979Z,,,,,,,,,,,,,,,,,53,,,,,,,,,,,,,1.6300000238406938,,response,,,99,,,,Space,keypress(Space),,,,,,,,---- -- ----- -- ------ - ------- --- ----------<br>------------- ------ ------ ---- ---- ------- ----- -- ----<br>-------- ------- -- ---------- --- - --- ----- ----- ----<br>---- --- --- ----- --- ---- ---- ------- ----- ---- -------<br>--- are -- ----- -- --- ---- -- --- ---- -- ------ ------<br>--- ----- -- ----,61226.200000047684,61225.60000002384,61207.257,61196.200000047684,61223.97,61257.273,,40,are
screen,html.Screen,2_1_0_1_41,2022-03-19T21:51:30.012Z,,,,,,,,,,,,,,,,,53,,,,,,,,,,,,,0.4270000476826681,,response,,,99,,,,Space,keypress(Space),,,,,,,,---- -- ----- -- ------ - ------- --- ----------<br>------------- ------ ------ ---- ---- ------- ----- -- ----<br>-------- ------- -- ---------- --- - --- ----- ----- ----<br>---- --- --- ----- --- ---- ---- ------- ----- ---- -------<br>--- --- as ----- -- --- ---- -- --- ---- -- ------ ------<br>--- ----- -- ----,61258.200000047684,61257.700000047684,61240.615,61226.39999997616,61257.273,61290.688,,41,as
screen,html.Screen,2_1_0_1_42,2022-03-19T21:51:30.042Z,,,,,,,,,,,,,,,,,53,,,,,,,,,,,,,14.433999976157793,,response,,,99,,,,Space,keypress(Space),,,,,,,,---- -- ----- -- ------ - ------- --- ----------<br>------------- ------ ------ ---- ---- ------- ----- -- ----<br>-------- ------- -- ---------- --- - --- ----- ----- ----<br>---- --- --- ----- --- ---- ---- ------- ----- ---- -------<br>--- --- -- close -- --- ---- -- --- ---- -- ------ ------<br>--- ----- -- ----,61289,61288.39999997616,61273.966,61258.5,,61307.362,,42,close
screen,html.Screen,2_1_0_1_43,2022-03-19T21:51:30.074Z,,,,,,,,,,,,,,,,,53,,,,,,,,,,,,,12.63799999999901,,response,,,99,,,,Space,keypress(Space),,,,,,,,---- -- ----- -- ------ - ------- --- ----------<br>------------- ------ ------ ---- ---- ------- ----- -- ----<br>-------- ------- -- ---------- --- - --- ----- ----- ----<br>---- --- --- ----- --- ---- ---- ------- ----- ---- -------<br>--- --- -- ----- as --- ---- -- --- ---- -- ------ ------<br>--- ----- -- ----,61320.700000047684,61320,61290.688,61289.200000047684,61307.362,61340.722,,43,as
screen,html.Screen,2_1_0_1_44,2022-03-19T21:51:30.105Z,,,,,,,,,,,,,,,,,53,,,,,,,,,,,,,10.17799997615657,,response,,,99,,,,Space,keypress(Space),,,,,,,,---- -- ----- -- ------ - ------- --- ----------<br>------------- ------ ------ ---- ---- ------- ----- -- ----<br>-------- ------- -- ---------- --- - --- ----- ----- ----<br>---- --- --- ----- --- ---- ---- ------- ----- ---- -------<br>--- --- -- ----- -- you ---- -- --- ---- -- ------ ------<br>--- ----- -- ----,61351.60000002384,61350.89999997616,61324.004,61320.89999997616,61340.722,61374.079,,44,you
screen,html.Screen,2_1_0_1_45,2022-03-19T21:51:30.136Z,,,,,,,,,,,,,,,,,53,,,,,,,,,,,,,8.021000023843953,,response,,,99,,,,Space,keypress(Space),,,,,,,,---- -- ----- -- ------ - ------- --- ----------<br>------------- ------ ------ ---- ---- ------- ----- -- ----<br>-------- ------- -- ---------- --- - --- ----- ----- ----<br>---- --- --- ----- --- ---- ---- ------- ----- ---- -------<br>--- --- -- ----- -- --- want -- --- ---- -- ------ ------<br>--- ----- -- ----,61382.700000047684,61382.10000002384,61357.363,61351.700000047684,61374.079,61407.395,,45,want
screen,html.Screen,2_1_0_1_46,2022-03-19T21:51:30.166Z,,,,,,,,,,,,,,,,,53,,,,,,,,,,,,,5.0049999761613435,,response,,,99,,,,Space,keypress(Space),,,,,,,,---- -- ----- -- ------ - ------- --- ----------<br>------------- ------ ------ ---- ---- ------- ----- -- ----<br>-------- ------- -- ---------- --- - --- ----- ----- ----<br>---- --- --- ----- --- ---- ---- ------- ----- ---- -------<br>--- --- -- ----- -- --- ---- to --- ---- -- ------ ------<br>--- ----- -- ----,61413.10000002384,61412.39999997616,61390.729,61382.89999997616,61407.395,61440.807,,46,to
screen,html.Screen,2_1_0_1_47,2022-03-19T21:51:30.198Z,,,,,,,,,,,,,,,,,53,,,,,,,,,,,,,3.5929999761574436,,response,,,99,,,,Space,keypress(Space),,,,,,,,"---- -- ----- -- ------ - ------- --- ----------<br>------------- ------ ------ ---- ---- ------- ----- -- ----<br>-------- ------- -- ---------- --- - --- ----- ----- ----<br>---- --- --- ----- --- ---- ---- ------- ----- ---- -------<br>--- --- -- ----- -- --- ---- -- be, ---- -- ------ ------<br>--- ----- -- ----",61445,61444.39999997616,61424.084,61413.300000071526,61440.807,61474.163,,47,"be,"
screen,html.Screen,2_1_0_1_48,2022-03-19T21:51:30.244Z,,,,,,,,,,,,,,,,,53,,,,,,,,,,,,,16.336999999999534,,response,,,99,,,,Space,keypress(Space),,,,,,,,---- -- ----- -- ------ - ------- --- ----------<br>------------- ------ ------ ---- ---- ------- ----- -- ----<br>-------- ------- -- ---------- --- - --- ----- ----- ----<br>---- --- --- ----- --- ---- ---- ------- ----- ---- -------<br>--- --- -- ----- -- --- ---- -- --- even -- ------ ------<br>--- ----- -- ----,61491.10000002384,61490.5,61457.447,61445.200000047684,61474.163,61507.527,,48,even
screen,html.Screen,2_1_0_1_49,2022-03-19T21:51:30.275Z,,,,,,,,,,,,,,,,,53,,,,,,,,,,,,,13.273000071523711,,response,,,99,,,,Space,keypress(Space),,,,,,,,---- -- ----- -- ------ - ------- --- ----------<br>------------- ------ ------ ---- ---- ------- ----- -- ----<br>-------- ------- -- ---------- --- - --- ----- ----- ----<br>---- --- --- ----- --- ---- ---- ------- ----- ---- -------<br>--- --- -- ----- -- --- ---- -- --- ---- if ------ ------<br>--- ----- -- ----,61521.300000071526,61520.800000071526,61490.766,61491.300000071526,61507.527,61540.911,,49,if
screen,html.Screen,2_1_0_1_50,2022-03-19T21:51:30.306Z,,,,,,,,,,,,,,,,,53,,,,,,,,,,,,,11.289000047683658,,response,,,99,,,,Space,keypress(Space),,,,,,,,---- -- ----- -- ------ - ------- --- ----------<br>------------- ------ ------ ---- ---- ------- ----- -- ----<br>-------- ------- -- ---------- --- - --- ----- ----- ----<br>---- --- --- ----- --- ---- ---- ------- ----- ---- -------<br>--- --- -- ----- -- --- ---- -- --- ---- -- that's ------<br>--- ----- -- ----,61552.800000071526,61552.200000047684,61524.172,61521.60000002384,61540.911,61574.249,,50,that's
screen,html.Screen,2_1_0_1_51,2022-03-19T21:51:30.337Z,,,,,,,,,,,,,,,,,53,,,,,,,,,,,,,8.951000047680282,,response,,,99,,,,Space,keypress(Space),,,,,,,,---- -- ----- -- ------ - ------- --- ----------<br>------------- ------ ------ ---- ---- ------- ----- -- ----<br>-------- ------- -- ---------- --- - --- ----- ----- ----<br>---- --- --- ----- --- ---- ---- ------- ----- ---- -------<br>--- --- -- ----- -- --- ---- -- --- ---- -- ------ really<br>--- ----- -- ----,61583.89999997616,61583.200000047684,61557.459,61554.5,61574.249,61607.553,,51,really
screen,html.Screen,2_1_0_1_52,2022-03-19T21:51:30.368Z,,,,,,,,,,,,,,,,,53,,,,,,,,,,,,,6.24700007152569,,response,,,99,,,,Space,keypress(Space),,,,,,,,---- -- ----- -- ------ - ------- --- ----------<br>------------- ------ ------ ---- ---- ------- ----- -- ----<br>-------- ------- -- ---------- --- - --- ----- ----- ----<br>---- --- --- ----- --- ---- ---- ------- ----- ---- -------<br>--- --- -- ----- -- --- ---- -- --- ---- -- ------ ------<br>not ----- -- ----,61614.60000002384,61613.800000071526,61590.889,61584,61607.553,61640.97,,52,not
screen,html.Screen,2_1_0_1_53,2022-03-19T21:51:30.399Z,,,,,,,,,,,,,,,,,53,,,,,,,,,,,,,3.6300000238406938,,response,,,99,,,,Space,keypress(Space),,,,,,,,---- -- ----- -- ------ - ------- --- ----------<br>------------- ------ ------ ---- ---- ------- ----- -- ----<br>-------- ------- -- ---------- --- - --- ----- ----- ----<br>---- --- --- ----- --- ---- ---- ------- ----- ---- -------<br>--- --- -- ----- -- --- ---- -- --- ---- -- ------ ------<br>--- close -- ----,61645.300000071526,61644.60000002384,61624.252,61614.700000047684,61640.97,61674.35,,53,close
screen,html.Screen,2_1_0_1_54,2022-03-19T21:51:30.740Z,,,,,,,,,,,,,,,,,53,,,,,,,,,,,,,311.15000000000146,,response,,,99,,,,Space,keypress(Space),,,,,,,,---- -- ----- -- ------ - ------- --- ----------<br>------------- ------ ------ ---- ---- ------- ----- -- ----<br>-------- ------- -- ---------- --- - --- ----- ----- ----<br>---- --- --- ----- --- ---- ---- ------- ----- ---- -------<br>--- --- -- ----- -- --- ---- -- --- ---- -- ------ ------<br>--- ----- at ----,61986.300000071526,61985.5,61657.619,61645.5,61674.35,61991.24,,54,at
screen,html.Screen,2_1_0_1_55,2022-03-19T21:51:31.123Z,,,,,,,,,,,,,,,,,53,,,,,,,,,,,,,378.0600000715276,,response,,,99,,,,Space,keypress(Space),,,,,,,,---- -- ----- -- ------ - ------- --- ----------<br>------------- ------ ------ ---- ---- ------- ----- -- ----<br>-------- ------- -- ---------- --- - --- ----- ----- ----<br>---- --- --- ----- --- ---- ---- ------- ----- ---- -------<br>--- --- -- ----- -- --- ---- -- --- ---- -- ------ ------<br>--- ----- -- all.,62370,62369.300000071526,61974.527,61986.39999997616,61991.24,62374.856,,55,all.
Item 99,flow.Loop,2_1_0_1,2022-03-19T21:51:31.124Z,,,,,,,,,,,,,,,,,,,,,,,,,,,,,,4147.792000071524,,completion,,,,C,,,,,,,,silence,,,,,62370.5,62369.300000071526,58204.817,58213.39999997616,58221.508,62374.856,,,
Question 1,html.Screen,2_1_0_2,2022-03-19T21:51:32.122Z,,,,,,,,,,,,,,,,,,,,,,,,,,,,false,FALSE,993.344000047684,,response,,,99,C,,,TRUE,click #choice-1,,,,silence,,,,,63368.89999997616,63368.200000047684,62358.167,62370.60000002384,62374.856,63392.341,,,
Question 2,html.Screen,2_1_0_3,2022-03-19T21:51:32.538Z,,,,,,,,,,,,,,,,,,,,,,,,,,,,false,TRUE,391.9590000715252,,response,,,99,C,,,FALSE,click #choice-2,,,,silence,,,,,63784.800000071526,63784.300000071526,63358.93,63368.89999997616,63392.341,63809.216,,,
Item 99,flow.Sequence,2_1_0,2022-03-19T21:51:32.538Z,,,,,,,,,,,,,,,,,,,,,,,,,,,,,,15570.916000071527,,completion,,,,,,,,,,,,,,,,,63785.10000002384,63784.300000071526,48196.702,48201.800000071526,48213.384,63809.216,,,
Holding screen,html.Screen,2_1_1_0,2022-03-19T21:51:42.555Z,,,,,,,,,,,,,,,,,,,,,,,,,,,,,,10008.141999999993,,timeout,,,,,,,,,,,,,,,,,73801.89999997616,73800.743,63792.665,63785.10000002384,63809.216,73817.358,,,
screen,html.Screen,2_1_1_1_0,2022-03-19T21:51:43.084Z,,,,,,,,,,,,,,,,,54,,,,,,,,,,,,,512.6420000000071,,response,,,100,,,,Space,keypress(Space),,,,,,,,At --- ---- --- ------ ----- ------- ---- -- --- ------- --<br>------- ---------- ------ -- ----- -- ----- -- ---- ------<br>--- ----- --- --- ------ -------- ----- --- ------ ----- --<br>----- ----- ---------- --- --- ------ ------ ---- -- ------<br>------- --- ------ ----- --- ---- ------- -- ---- --- --<br>------- ------,74330.60000002384,74330,73800.743,73802.20000004768,73817.358,74334.468,,0,At
screen,html.Screen,2_1_1_1_1,2022-03-19T21:51:43.593Z,,,,,,,,,,,,,,,,,54,,,,,,,,,,,,,504.5320000000065,,response,,,100,,,,Space,keypress(Space),,,,,,,,-- the ---- --- ------ ----- ------- ---- -- --- ------- --<br>------- ---------- ------ -- ----- -- ----- -- ---- ------<br>--- ----- --- --- ------ -------- ----- --- ------ ----- --<br>----- ----- ---------- --- --- ------ ------ ---- -- ------<br>------- --- ------ ----- --- ---- ------- -- ---- --- --<br>------- ------,74839.60000002384,74839,74317.824,74330.89999997616,74334.468,74851.463,,1,the
screen,html.Screen,2_1_1_1_2,2022-03-19T21:51:43.625Z,,,,,,,,,,,,,,,,,54,,,,,,,,,,,,,19.23700004768034,,response,,,100,,,,Space,keypress(Space),,,,,,,,-- --- time --- ------ ----- ------- ---- -- --- ------- --<br>------- ---------- ------ -- ----- -- ----- -- ---- ------<br>--- ----- --- --- ------ -------- ----- --- ------ ----- --<br>----- ----- ---------- --- --- ------ ------ ---- -- ------<br>------- --- ------ ----- --- ---- ------- -- ---- --- --<br>------- ------,74871.39999997616,74870.70000004768,74834.894,74839.80000007153,74851.463,74884.946,,2,time
screen,html.Screen,2_1_1_1_3,2022-03-19T21:51:43.657Z,,,,,,,,,,,,,,,,,54,,,,,,,,,,,,,17.75400004768744,,response,,,100,,,,Space,keypress(Space),,,,,,,,-- --- ---- the ------ ----- ------- ---- -- --- ------- --<br>------- ---------- ------ -- ----- -- ----- -- ---- ------<br>--- ----- --- --- ------ -------- ----- --- ------ ----- --<br>----- ----- ---------- --- --- ------ ------ ---- -- ------<br>------- --- ------ ----- --- ---- ------- -- ---- --- --<br>------- ------,74903.20000004768,74902.70000004768,74868.248,74871.60000002384,74884.946,74918.307,,3,the
screen,html.Screen,2_1_1_1_4,2022-03-19T21:51:43.688Z,,,,,,,,,,,,,,,,,54,,,,,,,,,,,,,16.1929999999993,,response,,,100,,,,Space,keypress(Space),,,,,,,,-- --- ---- --- French ----- ------- ---- -- --- ------- --<br>------- ---------- ------ -- ----- -- ----- -- ---- ------<br>--- ----- --- --- ------ -------- ----- --- ------ ----- --<br>----- ----- ---------- --- --- ------ ------ ---- -- ------<br>------- --- ------ ----- --- ---- ------- -- ---- --- --<br>------- ------,74935.10000002384,74934.5,74901.62,74903.39999997616,74918.307,74951.666,,4,French
screen,html.Screen,2_1_1_1_5,2022-03-19T21:51:43.720Z,,,,,,,,,,,,,,,,,54,,,,,,,,,,,,,14.934000023844419,,response,,,100,,,,Space,keypress(Space),,,,,,,,-- --- ---- --- ------ crown ------- ---- -- --- ------- --<br>------- ---------- ------ -- ----- -- ----- -- ---- ------<br>--- ----- --- --- ------ -------- ----- --- ------ ----- --<br>----- ----- ---------- --- --- ------ ------ ---- -- ------<br>------- --- ------ ----- --- ---- ------- -- ---- --- --<br>------- ------,74967.10000002384,74966.60000002384,74934.931,74935.30000007153,74951.666,74985.026,,5,crown
screen,html.Screen,2_1_1_1_6,2022-03-19T21:51:43.752Z,,,,,,,,,,,,,,,,,54,,,,,,,,,,,,,13.174000047685695,,response,,,100,,,,Space,keypress(Space),,,,,,,,-- --- ---- --- ------ ----- secured ---- -- --- ------- --<br>------- ---------- ------ -- ----- -- ----- -- ---- ------<br>--- ----- --- --- ------ -------- ----- --- ------ ----- --<br>----- ----- ---------- --- --- ------ ------ ---- -- ------<br>------- --- ------ ----- --- ---- ------- -- ---- --- --<br>------- ------,74998.80000007153,74998.20000004768,74968.289,74967.30000007153,74985.026,75018.383,,6,secured
screen,html.Screen,2_1_1_1_7,2022-03-19T21:51:43.784Z,,,,,,,,,,,,,,,,,54,,,,,,,,,,,,,11.817000047682086,,response,,,100,,,,Space,keypress(Space),,,,,,,,-- --- ---- --- ------ ----- ------- much -- --- ------- --<br>------- ---------- ------ -- ----- -- ----- -- ---- ------<br>--- ----- --- --- ------ -------- ----- --- ------ ----- --<br>----- ----- ---------- --- --- ------ ------ ---- -- ------<br>------- --- ------ ----- --- ---- ------- -- ---- --- --<br>------- ------,75030.70000004768,75030.20000004768,75001.65,74999.10000002384,75018.383,75051.762,,7,much
screen,html.Screen,2_1_1_1_8,2022-03-19T21:51:43.816Z,,,,,,,,,,,,,,,,,54,,,,,,,,,,,,,10.338000023839413,,response,,,100,,,,Space,keypress(Space),,,,,,,,-- --- ---- --- ------ ----- ------- ---- of --- ------- --<br>------- ---------- ------ -- ----- -- ----- -- ---- ------<br>--- ----- --- --- ------ -------- ----- --- ------ ----- --<br>----- ----- ---------- --- --- ------ ------ ---- -- ------<br>------- --- ------ ----- --- ---- ------- -- ---- --- --<br>------- ------,75062.70000004768,75062.10000002384,75035.051,75031,75051.762,75085.11,,8,of
screen,html.Screen,2_1_1_1_9,2022-03-19T21:51:43.848Z,,,,,,,,,,,,,,,,,54,,,,,,,,,,,,,8.78999997615756,,response,,,100,,,,Space,keypress(Space),,,,,,,,-- --- ---- --- ------ ----- ------- ---- -- its ------- --<br>------- ---------- ------ -- ----- -- ----- -- ---- ------<br>--- ----- --- --- ------ -------- ----- --- ------ ----- --<br>----- ----- ---------- --- --- ------ ------ ---- -- ------<br>------- --- ------ ----- --- ---- ------- -- ---- --- --<br>------- ------,75094.5,75093.89999997616,75068.425,75063,75085.11,75118.463,,9,its
screen,html.Screen,2_1_1_1_10,2022-03-19T21:51:43.896Z,,,,,,,,,,,,,,,,,54,,,,,,,,,,,,,23.23700004768034,,response,,,100,,,,Space,keypress(Space),,,,,,,,-- --- ---- --- ------ ----- ------- ---- -- --- revenue --<br>------- ---------- ------ -- ----- -- ----- -- ---- ------<br>--- ----- --- --- ------ -------- ----- --- ------ ----- --<br>----- ----- ---------- --- --- ------ ------ ---- -- ------<br>------- --- ------ ----- --- ---- ------- -- ---- --- --<br>------- ------,75142.20000004768,75141.70000004768,75101.774,75094.70000004768,75118.463,75151.7,,10,revenue
screen,html.Screen,2_1_1_1_11,2022-03-19T21:51:43.928Z,,,,,,,,,,,,,,,,,54,,,,,,,,,,,,,22.500000047686626,,response,,,100,,,,Space,keypress(Space),,,,,,,,-- --- ---- --- ------ ----- ------- ---- -- --- ------- by<br>------- ---------- ------ -- ----- -- ----- -- ---- ------<br>--- ----- --- --- ------ -------- ----- --- ------ ----- --<br>----- ----- ---------- --- --- ------ ------ ---- -- ------<br>------- --- ------ ----- --- ---- ------- -- ---- --- --<br>------- ------,75174.80000007153,75174.20000004768,75135.133,75142.39999997616,75151.7,75185.062,,11,by
screen,html.Screen,2_1_1_1_12,2022-03-19T21:51:43.959Z,,,,,,,,,,,,,,,,,54,,,,,,,,,,,,,20.337999976152787,,response,,,100,,,,Space,keypress(Space),,,,,,,,-- --- ---- --- ------ ----- ------- ---- -- --- ------- --<br>issuing ---------- ------ -- ----- -- ----- -- ---- ------<br>--- ----- --- --- ------ -------- ----- --- ------ ----- --<br>----- ----- ---------- --- --- ------ ------ ---- -- ------<br>------- --- ------ ----- --- ---- ------- -- ---- --- --<br>------- ------,75205.89999997616,75205.39999997616,75168.491,75174.89999997616,75185.062,75218.554,,12,issuing
screen,html.Screen,2_1_1_1_13,2022-03-19T21:51:43.992Z,,,,,,,,,,,,,,,,,54,,,,,,,,,,,,,19.14600004767999,,response,,,100,,,,Space,keypress(Space),,,,,,,,-- --- ---- --- ------ ----- ------- ---- -- --- ------- --<br>------- government ------ -- ----- -- ----- -- ---- ------<br>--- ----- --- --- ------ -------- ----- --- ------ ----- --<br>----- ----- ---------- --- --- ------ ------ ---- -- ------<br>------- --- ------ ----- --- ---- ------- -- ---- --- --<br>------- ------,75238.39999997616,75237.70000004768,75201.855,75206.10000002384,75218.554,75251.921,,13,government
screen,html.Screen,2_1_1_1_14,2022-03-19T21:51:44.023Z,,,,,,,,,,,,,,,,,54,,,,,,,,,,,,,17.27900004768162,,response,,,100,,,,Space,keypress(Space),,,,,,,,-- --- ---- --- ------ ----- ------- ---- -- --- ------- --<br>------- ---------- bonds. -- ----- -- ----- -- ---- ------<br>--- ----- --- --- ------ -------- ----- --- ------ ----- --<br>----- ----- ---------- --- --- ------ ------ ---- -- ------<br>------- --- ------ ----- --- ---- ------- -- ---- --- --<br>------- ------,75269.80000007153,75269.20000004768,75235.213,75238.60000002384,75251.921,75285.23,,14,bonds.
screen,html.Screen,2_1_1_1_15,2022-03-19T21:51:44.055Z,,,,,,,,,,,,,,,,,54,,,,,,,,,,,,,16.270000000004075,,response,,,100,,,,Space,keypress(Space),,,,,,,,-- --- ---- --- ------ ----- ------- ---- -- --- ------- --<br>------- ---------- ------ In ----- -- ----- -- ---- ------<br>--- ----- --- --- ------ -------- ----- --- ------ ----- --<br>----- ----- ---------- --- --- ------ ------ ---- -- ------<br>------- --- ------ ----- --- ---- ------- -- ---- --- --<br>------- ------,75302.10000002384,75301.5,75268.547,75270,75285.23,75318.63,,15,In
screen,html.Screen,2_1_1_1_16,2022-03-19T21:51:44.087Z,,,,,,,,,,,,,,,,,54,,,,,,,,,,,,,14.369999999995343,,response,,,100,,,,Space,keypress(Space),,,,,,,,"-- --- ---- --- ------ ----- ------- ---- -- --- ------- --<br>------- ---------- ------ -- 1727, -- ----- -- ---- ------<br>--- ----- --- --- ------ -------- ----- --- ------ ----- --<br>----- ----- ---------- --- --- ------ ------ ---- -- ------<br>------- --- ------ ----- --- ---- ------- -- ---- --- --<br>------- ------",75333.60000002384,75333,75301.893,75302.30000007153,75318.63,75351.869,,16,"1727,"
screen,html.Screen,2_1_1_1_17,2022-03-19T21:51:44.119Z,,,,,,,,,,,,,,,,,54,,,,,,,,,,,,,13.231000023835804,,response,,,100,,,,Space,keypress(Space),,,,,,,,-- --- ---- --- ------ ----- ------- ---- -- --- ------- --<br>------- ---------- ------ -- ----- in ----- -- ---- ------<br>--- ----- --- --- ------ -------- ----- --- ------ ----- --<br>----- ----- ---------- --- --- ------ ------ ---- -- ------<br>------- --- ------ ----- --- ---- ------- -- ---- --- --<br>------- ------,75365.60000002384,75365.10000002384,75335.291,75333.80000007153,75351.869,75385.348,,17,in
screen,html.Screen,2_1_1_1_18,2022-03-19T21:51:44.150Z,,,,,,,,,,,,,,,,,54,,,,,,,,,,,,,11.152000000001863,,response,,,100,,,,Space,keypress(Space),,,,,,,,-- --- ---- --- ------ ----- ------- ---- -- --- ------- --<br>------- ---------- ------ -- ----- -- order -- ---- ------<br>--- ----- --- --- ------ -------- ----- --- ------ ----- --<br>----- ----- ---------- --- --- ------ ------ ---- -- ------<br>------- --- ------ ----- --- ---- ------- -- ---- --- --<br>------- ------,75397.10000002384,75396.5,75368.652,75365.80000007153,75385.348,75418.724,,18,order
screen,html.Screen,2_1_1_1_19,2022-03-19T21:51:44.183Z,,,,,,,,,,,,,,,,,54,,,,,,,,,,,,,10.076000071523595,,response,,,100,,,,Space,keypress(Space),,,,,,,,-- --- ---- --- ------ ----- ------- ---- -- --- ------- --<br>------- ---------- ------ -- ----- -- ----- to ---- ------<br>--- ----- --- --- ------ -------- ----- --- ------ ----- --<br>----- ----- ---------- --- --- ------ ------ ---- -- ------<br>------- --- ------ ----- --- ---- ------- -- ---- --- --<br>------- ------,75429.39999997616,75428.80000007153,75402.026,75397.30000007153,75418.724,75452.068,,19,to
screen,html.Screen,2_1_1_1_20,2022-03-19T21:51:44.214Z,,,,,,,,,,,,,,,,,54,,,,,,,,,,,,,8.032000023842556,,response,,,100,,,,Space,keypress(Space),,,,,,,,-- --- ---- --- ------ ----- ------- ---- -- --- ------- --<br>------- ---------- ------ -- ----- -- ----- -- save ------<br>--- ----- --- --- ------ -------- ----- --- ------ ----- --<br>----- ----- ---------- --- --- ------ ------ ---- -- ------<br>------- --- ------ ----- --- ---- ------- -- ---- --- --<br>------- ------,75460.70000004768,75460.10000002384,75435.376,75429.60000002384,75452.068,75485.436,,20,save
screen,html.Screen,2_1_1_1_21,2022-03-19T21:51:44.245Z,,,,,,,,,,,,,,,,,54,,,,,,,,,,,,,6.063999999998487,,response,,,100,,,,Space,keypress(Space),,,,,,,,"-- --- ---- --- ------ ----- ------- ---- -- --- ------- --<br>------- ---------- ------ -- ----- -- ----- -- ---- money,<br>--- ----- --- --- ------ -------- ----- --- ------ ----- --<br>----- ----- ---------- --- --- ------ ------ ---- -- ------<br>------- --- ------ ----- --- ---- ------- -- ---- --- --<br>------- ------",75492.10000002384,75491.5,75468.737,75460.89999997616,75485.436,75518.797,,21,"money,"
screen,html.Screen,2_1_1_1_22,2022-03-19T21:51:44.290Z,,,,,,,,,,,,,,,,,54,,,,,,,,,,,,,17.80300002383592,,response,,,100,,,,Space,keypress(Space),,,,,,,,-- --- ---- --- ------ ----- ------- ---- -- --- ------- --<br>------- ---------- ------ -- ----- -- ----- -- ---- ------<br>the ----- --- --- ------ -------- ----- --- ------ ----- --<br>----- ----- ---------- --- --- ------ ------ ---- -- ------<br>------- --- ------ ----- --- ---- ------- -- ---- --- --<br>------- ------,75537.10000002384,75536.60000002384,75502.105,75492.30000007153,75518.797,75552.137,,22,the
screen,html.Screen,2_1_1_1_23,2022-03-19T21:51:44.322Z,,,,,,,,,,,,,,,,,54,,,,,,,,,,,,,16.362999999997555,,response,,,100,,,,Space,keypress(Space),,,,,,,,-- --- ---- --- ------ ----- ------- ---- -- --- ------- --<br>------- ---------- ------ -- ----- -- ----- -- ---- ------<br>--- state --- --- ------ -------- ----- --- ------ ----- --<br>----- ----- ---------- --- --- ------ ------ ---- -- ------<br>------- --- ------ ----- --- ---- ------- -- ---- --- --<br>------- ------,75569.10000002384,75568.5,75535.459,75537.39999997616,75552.137,75585.515,,23,state
screen,html.Screen,2_1_1_1_24,2022-03-19T21:51:44.354Z,,,,,,,,,,,,,,,,,54,,,,,,,,,,,,,14.884999976158724,,response,,,100,,,,Space,keypress(Space),,,,,,,,-- --- ---- --- ------ ----- ------- ---- -- --- ------- --<br>------- ---------- ------ -- ----- -- ----- -- ---- ------<br>--- ----- cut --- ------ -------- ----- --- ------ ----- --<br>----- ----- ---------- --- --- ------ ------ ---- -- ------<br>------- --- ------ ----- --- ---- ------- -- ---- --- --<br>------- ------,75601.10000002384,75600.39999997616,75568.781,75569.20000004768,75585.515,75618.877,,24,cut
screen,html.Screen,2_1_1_1_25,2022-03-19T21:51:44.386Z,,,,,,,,,,,,,,,,,54,,,,,,,,,,,,,13.423000071532442,,response,,,100,,,,Space,keypress(Space),,,,,,,,-- --- ---- --- ------ ----- ------- ---- -- --- ------- --<br>------- ---------- ------ -- ----- -- ----- -- ---- ------<br>--- ----- --- the ------ -------- ----- --- ------ ----- --<br>----- ----- ---------- --- --- ------ ------ ---- -- ------<br>------- --- ------ ----- --- ---- ------- -- ---- --- --<br>------- ------,75632.89999997616,75632.30000007153,75602.193,75602.60000002384,75618.877,75652.235,,25,the
screen,html.Screen,2_1_1_1_26,2022-03-19T21:51:44.418Z,,,,,,,,,,,,,,,,,54,,,,,,,,,,,,,11.865000023841276,,response,,,100,,,,Space,keypress(Space),,,,,,,,-- --- ---- --- ------ ----- ------- ---- -- --- ------- --<br>------- ---------- ------ -- ----- -- ----- -- ---- ------<br>--- ----- --- --- bonds' -------- ----- --- ------ ----- --<br>----- ----- ---------- --- --- ------ ------ ---- -- ------<br>------- --- ------ ----- --- ---- ------- -- ---- --- --<br>------- ------,75664.60000002384,75664.10000002384,75635.538,75633,75652.235,75685.596,,26,bonds'
screen,html.Screen,2_1_1_1_27,2022-03-19T21:51:44.450Z,,,,,,,,,,,,,,,,,54,,,,,,,,,,,,,10.403999999994994,,response,,,100,,,,Space,keypress(Space),,,,,,,,-- --- ---- --- ------ ----- ------- ---- -- --- ------- --<br>------- ---------- ------ -- ----- -- ----- -- ---- ------<br>--- ----- --- --- ------ interest ----- --- ------ ----- --<br>----- ----- ---------- --- --- ------ ------ ---- -- ------<br>------- --- ------ ----- --- ---- ------- -- ---- --- --<br>------- ------,75696.60000002384,75696,75668.858,75664.80000007153,75685.596,75718.978,,27,interest
screen,html.Screen,2_1_1_1_28,2022-03-19T21:51:44.481Z,,,,,,,,,,,,,,,,,54,,,,,,,,,,,,,8.222000047680922,,response,,,100,,,,Space,keypress(Space),,,,,,,,-- --- ---- --- ------ ----- ------- ---- -- --- ------- --<br>------- ---------- ------ -- ----- -- ----- -- ---- ------<br>--- ----- --- --- ------ -------- rate. --- ------ ----- --<br>----- ----- ---------- --- --- ------ ------ ---- -- ------<br>------- --- ------ ----- --- ---- ------- -- ---- --- --<br>------- ------,75727.80000007153,75727.20000004768,75702.257,75696.80000007153,75718.978,75752.317,,28,rate.
screen,html.Screen,2_1_1_1_29,2022-03-19T21:51:44.513Z,,,,,,,,,,,,,,,,,54,,,,,,,,,,,,,6.68300000000454,,response,,,100,,,,Space,keypress(Space),,,,,,,,-- --- ---- --- ------ ----- ------- ---- -- --- ------- --<br>------- ---------- ------ -- ----- -- ----- -- ---- ------<br>--- ----- --- --- ------ -------- ----- The ------ ----- --<br>----- ----- ---------- --- --- ------ ------ ---- -- ------<br>------- --- ------ ----- --- ---- ------- -- ---- --- --<br>------- ------,75759.60000002384,75759,75735.617,75728,75752.317,75785.672,,29,The
screen,html.Screen,2_1_1_1_30,2022-03-19T21:51:44.544Z,,,,,,,,,,,,,,,,,54,,,,,,,,,,,,,4.827999999994063,,response,,,100,,,,Space,keypress(Space),,,,,,,,-- --- ---- --- ------ ----- ------- ---- -- --- ------- --<br>------- ---------- ------ -- ----- -- ----- -- ---- ------<br>--- ----- --- --- ------ -------- ----- --- market ----- --<br>----- ----- ---------- --- --- ------ ------ ---- -- ------<br>------- --- ------ ----- --- ---- ------- -- ---- --- --<br>------- ------,75791.10000002384,75790.5,75768.947,75759.80000007153,75785.672,75819.027,,30,market
screen,html.Screen,2_1_1_1_31,2022-03-19T21:51:44.576Z,,,,,,,,,,,,,,,,,54,,,,,,,,,,,,,3.273000071523711,,response,,,100,,,,Space,keypress(Space),,,,,,,,-- --- ---- --- ------ ----- ------- ---- -- --- ------- --<br>------- ---------- ------ -- ----- -- ----- -- ---- ------<br>--- ----- --- --- ------ -------- ----- --- ------ value --<br>----- ----- ---------- --- --- ------ ------ ---- -- ------<br>------- --- ------ ----- --- ---- ------- -- ---- --- --<br>------- ------,75822.89999997616,75822.30000007153,75802.337,75791.20000004768,75819.027,75852.4,,31,value
screen,html.Screen,2_1_1_1_32,2022-03-19T21:51:44.608Z,,,,,,,,,,,,,,,,,54,,,,,,,,,,,,,1.9000000715313945,,response,,,100,,,,Space,keypress(Space),,,,,,,,-- --- ---- --- ------ ----- ------- ---- -- --- ------- --<br>------- ---------- ------ -- ----- -- ----- -- ---- ------<br>--- ----- --- --- ------ -------- ----- --- ------ ----- of<br>----- ----- ---------- --- --- ------ ------ ---- -- ------<br>------- --- ------ ----- --- ---- ------- -- ---- --- --<br>------- ------,75854.80000007153,75854.30000007153,75835.695,75823.10000002384,75852.4,75885.72,,32,of
screen,html.Screen,2_1_1_1_33,2022-03-19T21:51:44.654Z,,,,,,,,,,,,,,,,,54,,,,,,,,,,,,,14.380000023840694,,response,,,100,,,,Space,keypress(Space),,,,,,,,-- --- ---- --- ------ ----- ------- ---- -- --- ------- --<br>------- ---------- ------ -- ----- -- ----- -- ---- ------<br>--- ----- --- --- ------ -------- ----- --- ------ ----- --<br>these ----- ---------- --- --- ------ ------ ---- -- ------<br>------- --- ------ ----- --- ---- ------- -- ---- --- --<br>------- ------,75900.60000002384,75900.10000002384,75869.031,75855,75885.72,75919.15,,33,these
screen,html.Screen,2_1_1_1_34,2022-03-19T21:51:44.686Z,,,,,,,,,,,,,,,,,54,,,,,,,,,,,,,12.650000071531394,,response,,,100,,,,Space,keypress(Space),,,,,,,,-- --- ---- --- ------ ----- ------- ---- -- --- ------- --<br>------- ---------- ------ -- ----- -- ----- -- ---- ------<br>--- ----- --- --- ------ -------- ----- --- ------ ----- --<br>----- bonds ---------- --- --- ------ ------ ---- -- ------<br>------- --- ------ ----- --- ---- ------- -- ---- --- --<br>------- ------,75932.39999997616,75931.80000007153,75902.378,75900.80000007153,75919.15,75952.496,,34,bonds
screen,html.Screen,2_1_1_1_35,2022-03-19T21:51:44.716Z,,,,,,,,,,,,,,,,,54,,,,,,,,,,,,,10.004000000000815,,response,,,100,,,,Space,keypress(Space),,,,,,,,"-- --- ---- --- ------ ----- ------- ---- -- --- ------- --<br>------- ---------- ------ -- ----- -- ----- -- ---- ------<br>--- ----- --- --- ------ -------- ----- --- ------ ----- --<br>----- ----- plummeted, --- --- ------ ------ ---- -- ------<br>------- --- ------ ----- --- ---- ------- -- ---- --- --<br>------- ------",75963,75962.5,75935.791,75932.60000002384,75952.496,75985.863,,35,"plummeted,"
screen,html.Screen,2_1_1_1_36,2022-03-19T21:51:44.748Z,,,,,,,,,,,,,,,,,54,,,,,,,,,,,,,8.536999976160587,,response,,,100,,,,Space,keypress(Space),,,,,,,,-- --- ---- --- ------ ----- ------- ---- -- --- ------- --<br>------- ---------- ------ -- ----- -- ----- -- ---- ------<br>--- ----- --- --- ------ -------- ----- --- ------ ----- --<br>----- ----- ---------- and --- ------ ------ ---- -- ------<br>------- --- ------ ----- --- ---- ------- -- ---- --- --<br>------- ------,75995,75994.39999997616,75969.154,75963.30000007153,75985.863,76019.237,,36,and
screen,html.Screen,2_1_1_1_37,2022-03-19T21:51:44.779Z,,,,,,,,,,,,,,,,,54,,,,,,,,,,,,,5.363000023848144,,response,,,100,,,,Space,keypress(Space),,,,,,,,-- --- ---- --- ------ ----- ------- ---- -- --- ------- --<br>------- ---------- ------ -- ----- -- ----- -- ---- ------<br>--- ----- --- --- ------ -------- ----- --- ------ ----- --<br>----- ----- ---------- --- the ------ ------ ---- -- ------<br>------- --- ------ ----- --- ---- ------- -- ---- --- --<br>------- ------,76025.30000007153,76024.60000002384,76002.515,75995.20000004768,76019.237,76052.59,,37,the
screen,html.Screen,2_1_1_1_38,2022-03-19T21:51:44.810Z,,,,,,,,,,,,,,,,,54,,,,,,,,,,,,,3.3099999761616345,,response,,,100,,,,Space,keypress(Space),,,,,,,,-- --- ---- --- ------ ----- ------- ---- -- --- ------- --<br>------- ---------- ------ -- ----- -- ----- -- ---- ------<br>--- ----- --- --- ------ -------- ----- --- ------ ----- --<br>----- ----- ---------- --- --- market ------ ---- -- ------<br>------- --- ------ ----- --- ---- ------- -- ---- --- --<br>------- ------,76056.5,76055.89999997616,76035.884,76025.39999997616,76052.59,76085.957,,38,market
screen,html.Screen,2_1_1_1_39,2022-03-19T21:51:44.841Z,,,,,,,,,,,,,,,,,54,,,,,,,,,,,,,1.243000047688838,,response,,,100,,,,Space,keypress(Space),,,,,,,,-- --- ---- --- ------ ----- ------- ---- -- --- ------- --<br>------- ---------- ------ -- ----- -- ----- -- ---- ------<br>--- ----- --- --- ------ -------- ----- --- ------ ----- --<br>----- ----- ---------- --- --- ------ became ---- -- ------<br>------- --- ------ ----- --- ---- ------- -- ---- --- --<br>------- ------,76087.70000004768,76087.20000004768,76069.239,76056.70000004768,76085.957,76119.322,,39,became
screen,html.Screen,2_1_1_1_40,2022-03-19T21:51:44.874Z,,,,,,,,,,,,,,,,,54,,,,,,,,,,,,,0.6779999999998836,,response,,,100,,,,Space,keypress(Space),,,,,,,,-- --- ---- --- ------ ----- ------- ---- -- --- ------- --<br>------- ---------- ------ -- ----- -- ----- -- ---- ------<br>--- ----- --- --- ------ -------- ----- --- ------ ----- --<br>----- ----- ---------- --- --- ------ ------ wary -- ------<br>------- --- ------ ----- --- ---- ------- -- ---- --- --<br>------- ------,76120.39999997616,76120,76102.62,76088,76119.322,76152.702,,40,wary
screen,html.Screen,2_1_1_1_41,2022-03-19T21:51:44.904Z,,,,,,,,,,,,,,,,,54,,,,,,,,,,,,,14.421999976155348,,response,,,100,,,,Space,keypress(Space),,,,,,,,-- --- ---- --- ------ ----- ------- ---- -- --- ------- --<br>------- ---------- ------ -- ----- -- ----- -- ---- ------<br>--- ----- --- --- ------ -------- ----- --- ------ ----- --<br>----- ----- ---------- --- --- ------ ------ ---- of ------<br>------- --- ------ ----- --- ---- ------- -- ---- --- --<br>------- ------,76151,76150.39999997616,76135.978,76120.70000004768,,76169.368,,41,of
screen,html.Screen,2_1_1_1_42,2022-03-19T21:51:44.951Z,,,,,,,,,,,,,,,,,54,,,,,,,,,,,,,27.932000071523362,,response,,,100,,,,Space,keypress(Space),,,,,,,,-- --- ---- --- ------ ----- ------- ---- -- --- ------- --<br>------- ---------- ------ -- ----- -- ----- -- ---- ------<br>--- ----- --- --- ------ -------- ----- --- ------ ----- --<br>----- ----- ---------- --- --- ------ ------ ---- -- French<br>------- --- ------ ----- --- ---- ------- -- ---- --- --<br>------- ------,76198,76197.30000007153,76152.702,76151.20000004768,76169.368,76202.684,,42,French
screen,html.Screen,2_1_1_1_43,2022-03-19T21:51:44.982Z,,,,,,,,,,,,,,,,,54,,,,,,,,,,,,,25.116000071531744,,response,,,100,,,,Space,keypress(Space),,,,,,,,-- --- ---- --- ------ ----- ------- ---- -- --- ------- --<br>------- ---------- ------ -- ----- -- ----- -- ---- ------<br>--- ----- --- --- ------ -------- ----- --- ------ ----- --<br>----- ----- ---------- --- --- ------ ------ ---- -- ------<br>credit. --- ------ ----- --- ---- ------- -- ---- --- --<br>------- ------,76228.39999997616,76227.80000007153,76186.021,76198.20000004768,76202.684,76236.029,,43,credit.
screen,html.Screen,2_1_1_1_44,2022-03-19T21:51:45.012Z,,,,,,,,,,,,,,,,,54,,,,,,,,,,,,,22.17100004768872,,response,,,100,,,,Space,keypress(Space),,,,,,,,-- --- ---- --- ------ ----- ------- ---- -- --- ------- --<br>------- ---------- ------ -- ----- -- ----- -- ---- ------<br>--- ----- --- --- ------ -------- ----- --- ------ ----- --<br>----- ----- ---------- --- --- ------ ------ ---- -- ------<br>------- The ------ ----- --- ---- ------- -- ---- --- --<br>------- ------,76259,76258.20000004768,76219.401,76228.60000002384,76236.029,76269.432,,44,The
screen,html.Screen,2_1_1_1_45,2022-03-19T21:51:45.043Z,,,,,,,,,,,,,,,,,54,,,,,,,,,,,,,19.768000047683017,,response,,,100,,,,Space,keypress(Space),,,,,,,,-- --- ---- --- ------ ----- ------- ---- -- --- ------- --<br>------- ---------- ------ -- ----- -- ----- -- ---- ------<br>--- ----- --- --- ------ -------- ----- --- ------ ----- --<br>----- ----- ---------- --- --- ------ ------ ---- -- ------<br>------- --- French ----- --- ---- ------- -- ---- --- --<br>------- ------,76289.80000007153,76289.20000004768,76252.718,76259.10000002384,76269.432,76302.798,,45,French
screen,html.Screen,2_1_1_1_46,2022-03-19T21:51:45.075Z,,,,,,,,,,,,,,,,,54,,,,,,,,,,,,,18.40200004768849,,response,,,100,,,,Space,keypress(Space),,,,,,,,-- --- ---- --- ------ ----- ------- ---- -- --- ------- --<br>------- ---------- ------ -- ----- -- ----- -- ---- ------<br>--- ----- --- --- ------ -------- ----- --- ------ ----- --<br>----- ----- ---------- --- --- ------ ------ ---- -- ------<br>------- --- ------ state --- ---- ------- -- ---- --- --<br>------- ------,76321.89999997616,76321.20000004768,76286.076,76290.10000002384,76302.798,76336.109,,46,state
screen,html.Screen,2_1_1_1_47,2022-03-19T21:51:45.106Z,,,,,,,,,,,,,,,,,54,,,,,,,,,,,,,16.2909999761614,,response,,,100,,,,Space,keypress(Space),,,,,,,,-- --- ---- --- ------ ----- ------- ---- -- --- ------- --<br>------- ---------- ------ -- ----- -- ----- -- ---- ------<br>--- ----- --- --- ------ -------- ----- --- ------ ----- --<br>----- ----- ---------- --- --- ------ ------ ---- -- ------<br>------- --- ------ ----- was ---- ------- -- ---- --- --<br>------- ------,76352.89999997616,76352.39999997616,76319.456,76322,76336.109,76369.488,,47,was
screen,html.Screen,2_1_1_1_48,2022-03-19T21:51:45.138Z,,,,,,,,,,,,,,,,,54,,,,,,,,,,,,,14.012000000002445,,response,,,100,,,,Space,keypress(Space),,,,,,,,-- --- ---- --- ------ ----- ------- ---- -- --- ------- --<br>------- ---------- ------ -- ----- -- ----- -- ---- ------<br>--- ----- --- --- ------ -------- ----- --- ------ ----- --<br>----- ----- ---------- --- --- ------ ------ ---- -- ------<br>------- --- ------ ----- --- left ------- -- ---- --- --<br>------- ------,76384.20000004768,76383.5,76352.768,76353.10000002384,76369.488,76402.838,,48,left
screen,html.Screen,2_1_1_1_49,2022-03-19T21:51:45.168Z,,,,,,,,,,,,,,,,,54,,,,,,,,,,,,,11.061999976154766,,response,,,100,,,,Space,keypress(Space),,,,,,,,-- --- ---- --- ------ ----- ------- ---- -- --- ------- --<br>------- ---------- ------ -- ----- -- ----- -- ---- ------<br>--- ----- --- --- ------ -------- ----- --- ------ ----- --<br>----- ----- ---------- --- --- ------ ------ ---- -- ------<br>------- --- ------ ----- --- ---- without -- ---- --- --<br>------- ------,76414.60000002384,76413.89999997616,76386.133,76384.39999997616,76402.838,76436.195,,49,without
screen,html.Screen,2_1_1_1_50,2022-03-19T21:51:45.214Z,,,,,,,,,,,,,,,,,54,,,,,,,,,,,,,24.304999999993015,,response,,,100,,,,Space,keypress(Space),,,,,,,,-- --- ---- --- ------ ----- ------- ---- -- --- ------- --<br>------- ---------- ------ -- ----- -- ----- -- ---- ------<br>--- ----- --- --- ------ -------- ----- --- ------ ----- --<br>----- ----- ---------- --- --- ------ ------ ---- -- ------<br>------- --- ------ ----- --- ---- ------- an ---- --- --<br>------- ------,76461.10000002384,76460.5,76419.533,76414.70000004768,76436.195,76469.569,,50,an
screen,html.Screen,2_1_1_1_51,2022-03-19T21:51:45.246Z,,,,,,,,,,,,,,,,,54,,,,,,,,,,,,,22.131000047680573,,response,,,100,,,,Space,keypress(Space),,,,,,,,-- --- ---- --- ------ ----- ------- ---- -- --- ------- --<br>------- ---------- ------ -- ----- -- ----- -- ---- ------<br>--- ----- --- --- ------ -------- ----- --- ------ ----- --<br>----- ----- ---------- --- --- ------ ------ ---- -- ------<br>------- --- ------ ----- --- ---- ------- -- easy --- --<br>------- ------,76492.5,76491.70000004768,76452.845,76461.30000007153,76469.569,76502.85,,51,easy
screen,html.Screen,2_1_1_1_52,2022-03-19T21:51:45.276Z,,,,,,,,,,,,,,,,,54,,,,,,,,,,,,,19.54999997615232,,response,,,100,,,,Space,keypress(Space),,,,,,,,-- --- ---- --- ------ ----- ------- ---- -- --- ------- --<br>------- ---------- ------ -- ----- -- ----- -- ---- ------<br>--- ----- --- --- ------ -------- ----- --- ------ ----- --<br>----- ----- ---------- --- --- ------ ------ ---- -- ------<br>------- --- ------ ----- --- ---- ------- -- ---- way --<br>------- ------,76523.10000002384,76522.39999997616,76486.244,76492.60000002384,76502.85,76536.272,,52,way
screen,html.Screen,2_1_1_1_53,2022-03-19T21:51:45.308Z,,,,,,,,,,,,,,,,,54,,,,,,,,,,,,,17.528000071528368,,response,,,100,,,,Space,keypress(Space),,,,,,,,-- --- ---- --- ------ ----- ------- ---- -- --- ------- --<br>------- ---------- ------ -- ----- -- ----- -- ---- ------<br>--- ----- --- --- ------ -------- ----- --- ------ ----- --<br>----- ----- ---------- --- --- ------ ------ ---- -- ------<br>------- --- ------ ----- --- ---- ------- -- ---- --- of<br>------- ------,76554.39999997616,76553.80000007153,76519.619,76523.30000007153,76536.272,76569.63,,53,of
screen,html.Screen,2_1_1_1_54,2022-03-19T21:51:45.339Z,,,,,,,,,,,,,,,,,54,,,,,,,,,,,,,15.57000004767906,,response,,,100,,,,Space,keypress(Space),,,,,,,,-- --- ---- --- ------ ----- ------- ---- -- --- ------- --<br>------- ---------- ------ -- ----- -- ----- -- ---- ------<br>--- ----- --- --- ------ -------- ----- --- ------ ----- --<br>----- ----- ---------- --- --- ------ ------ ---- -- ------<br>------- --- ------ ----- --- ---- ------- -- ---- --- --<br>raising ------,76585.89999997616,76585.20000004768,76552.964,76554.60000002384,76569.63,76603.08,,54,raising
screen,html.Screen,2_1_1_1_55,2022-03-19T21:51:45.370Z,,,,,,,,,,,,,,,,,54,,,,,,,,,,,,,12.919999999998254,,response,,,100,,,,Space,keypress(Space),,,,,,,,-- --- ---- --- ------ ----- ------- ---- -- --- ------- --<br>------- ---------- ------ -- ----- -- ----- -- ---- ------<br>--- ----- --- --- ------ -------- ----- --- ------ ----- --<br>----- ----- ---------- --- --- ------ ------ ---- -- ------<br>------- --- ------ ----- --- ---- ------- -- ---- --- --<br>------- money.,76616.60000002384,76616,76586.344,76586,76603.08,76636.403,,55,money.
Item 100,flow.Loop,2_1_1_1,2022-03-19T21:51:45.370Z,,,,,,,,,,,,,,,,,,,,,,,,,,,,,,2798.642000000007,,completion,,,,C,,,,,,,,silence,,,,,76617,76616,73800.743,73802.10000002384,73817.358,76636.403,,,
Question 1,html.Screen,2_1_1_2,2022-03-19T21:51:46.458Z,,,,,,,,,,,,,,,,,,,,,,,,,,,,true,TRUE,1067.9969999761524,,response,,,100,C,,,TRUE,click #choice-1,,,,silence,,,,,77704.89999997616,77704.39999997616,76619.681,76617.20000004768,76636.403,77720.562,,,
Question 2,html.Screen,2_1_1_3,2022-03-19T21:51:47.258Z,,,,,,,,,,,,,,,,,,,,,,,,,,,,true,FALSE,783.6380000476784,,response,,,100,C,,,FALSE,click #choice-2,,,,silence,,,,,78504.80000007153,78504.20000004768,77703.922,77705.10000002384,77720.562,78521.264,,,
Item 100,flow.Sequence,2_1_1,2022-03-19T21:51:47.258Z,,,,,,,,,,,,,,,,,,,,,,,,,,,,,,14694.984000047683,,completion,,,,,,,,,,,,,,,,,78505,78504.20000004768,63792.665,63785.10000002384,63809.216,78521.264,,,
End of Practice,html.Page,2_1_2,2022-03-19T21:51:48.443Z,,,,,,,,,,,,,,,,,,,,,,,,,,,,,,1167.7360000000044,,form submission,,,,,,,,,,,,,,,,,79689.30000007153,79689,78504.536,78505.10000002384,78521.264,79688.775,,,
Practice,flow.Sequence,2_1,2022-03-19T21:51:48.444Z,,,,,,,,,,,,,,,,,,,,,,,,,,,,,,31475.616,,completion,,,,,,,,,,,,,,,,,79690.5,79689,48196.702,48201.700000047684,48213.384,79688.775,,,
Trap_instruction,html.Page,2_2_0,2022-03-19T21:51:49.859Z,,,,,,,,,,,,,,,,,,,,,,,,,,,,,,1416.124999976164,,form submission,,,,,,,,,,,,,,,,,81105.20000004768,81104.89999997616,79672.146,79690.70000004768,79688.775,81106.613,,,
trap_trial,html.Screen,2_2_1,2022-03-19T21:51:51.778Z,,,,,,,,,,,,,,,,,,,,,,,,,,,,true,1,1917.687000071528,,response,,,,,,,1,click #choice-1,,,,,,,,,83024.89999997616,83024.30000007153,81089.951,81105.30000007153,81106.613,83024.792,,,
end of trap trial,html.Page,2_2_2,2022-03-19T21:51:53.115Z,,,,,,,,,,,,,,,,,,,,,,,,,,,,,,1336.3080000238406,,form submission,,,,,,,,,,,,,,,,,84361.39999997616,84361.10000002384,83008.179,83025,83024.792,84375.925,,,
Trap 1,flow.Sequence,2_2,2022-03-19T21:51:53.115Z,,,,,,,,,,,,,,,,,,,,,,,,,,,,,,4672.325000023848,,completion,,,,,,,,,,,,,,,,,84361.60000002384,84361.10000002384,79672.146,79690.60000002384,79688.775,84375.925,,,
Standby,html.Page,2_3_0,2022-03-19T21:52:01.120Z,,,,,,,,,,,,,,,,,,,,,,,,,,,,,,8006.471999999994,,timeout,,,,,,,,,,,,,,,,,92366.60000002384,92365.703,84359.262,84361.70000004768,84375.925,92382.397,,,
Holding screen,html.Screen,2_3_1_0_0,2022-03-19T21:52:08.125Z,,,,,,,,,,,,,,,,,,,,,,,,,,,,,,7005.665000000008,,timeout,,,,,,,,,,,,,,,,,99372,99371.338,92365.703,92367,92382.397,99388.062,,,
screen,html.Screen,2_3_1_0_1_0,2022-03-19T21:52:09.027Z,,,,,,,,,,,,,,,,,12,,,,,,,,,,,,,885.2380000715202,,response,,,5,C,,,Space,keypress(Space),,,,instrumental,,,,Some ------ ------ ------- ------ --- ------- -----------<br>-- ----- --- ---- -- --- ------ ---- - ---- -- ----------<br>-- ------ ---- --- ---- --- --- --- ----- -- -------- ---<br>------ ------- -------- --- ---- -- ------- ------------ --<br>------ -- ---- -- --- ---- -- -------- -- --- ------ ------,100274,100273.30000007153,99371.338,99372.30000007153,99388.062,100288.707,,0,Some
screen,html.Screen,2_3_1_0_1_1,2022-03-19T21:52:09.533Z,,,,,,,,,,,,,,,,,12,,,,,,,,,,,,,490.393000023847,,response,,,5,C,,,Space,keypress(Space),,,,instrumental,,,,---- months ------ ------- ------ --- ------- -----------<br>-- ----- --- ---- -- --- ------ ---- - ---- -- ----------<br>-- ------ ---- --- ---- --- --- --- ----- -- -------- ---<br>------ ------- -------- --- ---- -- ------- ------------ --<br>------ -- ---- -- --- ---- -- -------- -- --- ------ ------,100779.80000007153,100779.10000002384,100272.065,100274.30000007153,100288.707,100789.179,,1,months
screen,html.Screen,2_3_1_0_1_2,2022-03-19T21:52:09.564Z,,,,,,,,,,,,,,,,,12,,,,,,,,,,,,,20.820999999996275,,response,,,5,C,,,Space,keypress(Space),,,,instrumental,,,,"---- ------ later, ------- ------ --- ------- -----------<br>-- ----- --- ---- -- --- ------ ---- - ---- -- ----------<br>-- ------ ---- --- ---- --- --- --- ----- -- -------- ---<br>------ ------- -------- --- ---- -- ------- ------------ --<br>------ -- ---- -- --- ---- -- -------- -- --- ------ ------",100810.60000002384,100810,100772.508,100780,100789.179,100822.595,,2,"later,"
screen,html.Screen,2_3_1_0_1_3,2022-03-19T21:52:09.596Z,,,,,,,,,,,,,,,,,12,,,,,,,,,,,,,19.70500007152441,,response,,,5,C,,,Space,keypress(Space),,,,instrumental,,,,---- ------ ------ Michael ------ --- ------- -----------<br>-- ----- --- ---- -- --- ------ ---- - ---- -- ----------<br>-- ------ ---- --- ---- --- --- --- ----- -- -------- ---<br>------ ------- -------- --- ---- -- ------- ------------ --<br>------ -- ---- -- --- ---- -- -------- -- --- ------ ------,100842.80000007153,100842.30000007153,100805.874,100810.70000004768,100822.595,100855.951,,3,Michael
screen,html.Screen,2_3_1_0_1_4,2022-03-19T21:52:09.627Z,,,,,,,,,,,,,,,,,12,,,,,,,,,,,,,16.849000071524642,,response,,,5,C,,,Space,keypress(Space),,,,instrumental,,,,---- ------ ------ ------- Larson --- ------- -----------<br>-- ----- --- ---- -- --- ------ ---- - ---- -- ----------<br>-- ------ ---- --- ---- --- --- --- ----- -- -------- ---<br>------ ------- -------- --- ---- -- ------- ------------ --<br>------ -- ---- -- --- ---- -- -------- -- --- ------ ------,100873.39999997616,100872.80000007153,100839.232,100843,100855.951,100889.287,,4,Larson
screen,html.Screen,2_3_1_0_1_5,2022-03-19T21:52:09.659Z,,,,,,,,,,,,,,,,,12,,,,,,,,,,,,,15.51300007152895,,response,,,5,C,,,Space,keypress(Space),,,,instrumental,,,,---- ------ ------ ------- ------ saw ------- -----------<br>-- ----- --- ---- -- --- ------ ---- - ---- -- ----------<br>-- ------ ---- --- ---- --- --- --- ----- -- -------- ---<br>------ ------- -------- --- ---- -- ------- ------------ --<br>------ -- ---- -- --- ---- -- -------- -- --- ------ ------,100905.39999997616,100904.80000007153,100872.55,100873.60000002384,100889.287,100922.593,,5,saw
screen,html.Screen,2_3_1_0_1_6,2022-03-19T21:52:09.707Z,,,,,,,,,,,,,,,,,12,,,,,,,,,,,,,30.007000023848377,,response,,,5,C,,,Space,keypress(Space),,,,instrumental,,,,---- ------ ------ ------- ------ --- another -----------<br>-- ----- --- ---- -- --- ------ ---- - ---- -- ----------<br>-- ------ ---- --- ---- --- --- --- ----- -- -------- ---<br>------ ------- -------- --- ---- -- ------- ------------ --<br>------ -- ---- -- --- ---- -- -------- -- --- ------ ------,100953.20000004768,100952.60000002384,100905.898,100905.60000002384,100922.593,100955.936,,6,another
screen,html.Screen,2_3_1_0_1_7,2022-03-19T21:52:09.738Z,,,,,,,,,,,,,,,,,12,,,,,,,,,,,,,27.96399997615663,,response,,,5,C,,,Space,keypress(Space),,,,instrumental,,,,---- ------ ------ ------- ------ --- ------- opportunity<br>-- ----- --- ---- -- --- ------ ---- - ---- -- ----------<br>-- ------ ---- --- ---- --- --- --- ----- -- -------- ---<br>------ ------- -------- --- ---- -- ------- ------------ --<br>------ -- ---- -- --- ---- -- -------- -- --- ------ ------,100984.60000002384,100983.89999997616,100939.263,100953.5,100955.936,100989.185,,7,opportunity
screen,html.Screen,2_3_1_0_1_8,2022-03-19T21:52:09.769Z,,,,,,,,,,,,,,,,,12,,,,,,,,,,,,,26.015000047686044,,response,,,5,C,,,Space,keypress(Space),,,,instrumental,,,,---- ------ ------ ------- ------ --- ------- -----------<br>to ----- --- ---- -- --- ------ ---- - ---- -- ----------<br>-- ------ ---- --- ---- --- --- --- ----- -- -------- ---<br>------ ------- -------- --- ---- -- ------- ------------ --<br>------ -- ---- -- --- ---- -- -------- -- --- ------ ------,101015.89999997616,101015.20000004768,100972.701,100984.70000004768,100989.185,101022.571,,8,to
screen,html.Screen,2_3_1_0_1_9,2022-03-19T21:52:09.801Z,,,,,,,,,,,,,,,,,12,,,,,,,,,,,,,25.029000023845583,,response,,,5,C,,,Space,keypress(Space),,,,instrumental,,,,---- ------ ------ ------- ------ --- ------- -----------<br>-- stack --- ---- -- --- ------ ---- - ---- -- ----------<br>-- ------ ---- --- ---- --- --- --- ----- -- -------- ---<br>------ ------- -------- --- ---- -- ------- ------------ --<br>------ -- ---- -- --- ---- -- -------- -- --- ------ ------,101048.10000002384,101047.60000002384,101006.044,101016.10000002384,101022.571,101056.033,,9,stack
screen,html.Screen,2_3_1_0_1_10,2022-03-19T21:52:09.832Z,,,,,,,,,,,,,,,,,12,,,,,,,,,,,,,21.96700000000419,,response,,,5,C,,,Space,keypress(Space),,,,instrumental,,,,---- ------ ------ ------- ------ --- ------- -----------<br>-- ----- the ---- -- --- ------ ---- - ---- -- ----------<br>-- ------ ---- --- ---- --- --- --- ----- -- -------- ---<br>------ ------- -------- --- ---- -- ------- ------------ --<br>------ -- ---- -- --- ---- -- -------- -- --- ------ ------,101078.39999997616,101078,101039.372,101048.30000007153,101056.033,101089.481,,10,the
screen,html.Screen,2_3_1_0_1_11,2022-03-19T21:52:09.863Z,,,,,,,,,,,,,,,,,12,,,,,,,,,,,,,19.918999976158375,,response,,,5,C,,,Space,keypress(Space),,,,instrumental,,,,---- ------ ------ ------- ------ --- ------- -----------<br>-- ----- --- odds -- --- ------ ---- - ---- -- ----------<br>-- ------ ---- --- ---- --- --- --- ----- -- -------- ---<br>------ ------- -------- --- ---- -- ------- ------------ --<br>------ -- ---- -- --- ---- -- -------- -- --- ------ ------,101110,101109.39999997616,101072.788,101078.5,101089.481,101122.838,,11,odds
screen,html.Screen,2_3_1_0_1_12,2022-03-19T21:52:09.894Z,,,,,,,,,,,,,,,,,12,,,,,,,,,,,,,17.661999999996624,,response,,,5,C,,,Space,keypress(Space),,,,instrumental,,,,---- ------ ------ ------- ------ --- ------- -----------<br>-- ----- --- ---- in --- ------ ---- - ---- -- ----------<br>-- ------ ---- --- ---- --- --- --- ----- -- -------- ---<br>------ ------- -------- --- ---- -- ------- ------------ --<br>------ -- ---- -- --- ---- -- -------- -- --- ------ ------,101141.20000004768,101140.5,101106.12,101110.20000004768,101122.838,101156.186,,12,in
screen,html.Screen,2_3_1_0_1_13,2022-03-19T21:52:09.927Z,,,,,,,,,,,,,,,,,12,,,,,,,,,,,,,16.914000023840345,,response,,,5,C,,,Space,keypress(Space),,,,instrumental,,,,---- ------ ------ ------- ------ --- ------- -----------<br>-- ----- --- ---- -- his ------ ---- - ---- -- ----------<br>-- ------ ---- --- ---- --- --- --- ----- -- -------- ---<br>------ ------- -------- --- ---- -- ------- ------------ --<br>------ -- ---- -- --- ---- -- -------- -- --- ------ ------,101173.60000002384,101173.10000002384,101139.478,101141.39999997616,101156.186,101189.559,,13,his
screen,html.Screen,2_3_1_0_1_14,2022-03-19T21:52:09.958Z,,,,,,,,,,,,,,,,,12,,,,,,,,,,,,,14.840999976164312,,response,,,5,C,,,Space,keypress(Space),,,,instrumental,,,,---- ------ ------ ------- ------ --- ------- -----------<br>-- ----- --- ---- -- --- favour ---- - ---- -- ----------<br>-- ------ ---- --- ---- --- --- --- ----- -- -------- ---<br>------ ------- -------- --- ---- -- ------- ------------ --<br>------ -- ---- -- --- ---- -- -------- -- --- ------ ------,101205,101204.39999997616,101172.807,101173.89999997616,101189.559,101222.911,,14,favour
screen,html.Screen,2_3_1_0_1_15,2022-03-19T21:52:09.991Z,,,,,,,,,,,,,,,,,12,,,,,,,,,,,,,14.189000023849076,,response,,,5,C,,,Space,keypress(Space),,,,instrumental,,,,---- ------ ------ ------- ------ --- ------- -----------<br>-- ----- --- ---- -- --- ------ with - ---- -- ----------<br>-- ------ ---- --- ---- --- --- --- ----- -- -------- ---<br>------ ------- -------- --- ---- -- ------- ------------ --<br>------ -- ---- -- --- ---- -- -------- -- --- ------ ------,101237.60000002384,101237.10000002384,101206.158,101205.20000004768,101222.911,101256.297,,15,with
screen,html.Screen,2_3_1_0_1_16,2022-03-19T21:52:10.037Z,,,,,,,,,,,,,,,,,12,,,,,,,,,,,,,26.202999999994063,,response,,,5,C,,,Space,keypress(Space),,,,instrumental,,,,---- ------ ------ ------- ------ --- ------- -----------<br>-- ----- --- ---- -- --- ------ ---- a ---- -- ----------<br>-- ------ ---- --- ---- --- --- --- ----- -- -------- ---<br>------ ------- -------- --- ---- -- ------- ------------ --<br>------ -- ---- -- --- ---- -- -------- -- --- ------ ------,101283.30000007153,101282.5,101239.526,101237.89999997616,101256.297,101289.579,,16,a
screen,html.Screen,2_3_1_0_1_17,2022-03-19T21:52:10.068Z,,,,,,,,,,,,,,,,,12,,,,,,,,,,,,,24.72100007152767,,response,,,5,C,,,Space,keypress(Space),,,,instrumental,,,,---- ------ ------ ------- ------ --- ------- -----------<br>-- ----- --- ---- -- --- ------ ---- - dash -- ----------<br>-- ------ ---- --- ---- --- --- --- ----- -- -------- ---<br>------ ------- -------- --- ---- -- ------- ------------ --<br>------ -- ---- -- --- ---- -- -------- -- --- ------ ------,101315,101314.30000007153,101272.925,101283.5,101289.579,101322.88,,17,dash
screen,html.Screen,2_3_1_0_1_18,2022-03-19T21:52:10.099Z,,,,,,,,,,,,,,,,,12,,,,,,,,,,,,,22.019999976153485,,response,,,5,C,,,Space,keypress(Space),,,,instrumental,,,,---- ------ ------ ------- ------ --- ------- -----------<br>-- ----- --- ---- -- --- ------ ---- - ---- of ----------<br>-- ------ ---- --- ---- --- --- --- ----- -- -------- ---<br>------ ------- -------- --- ---- -- ------- ------------ --<br>------ -- ---- -- --- ---- -- -------- -- --- ------ ------,101345.5,101344.89999997616,101306.317,101315.20000004768,101322.88,101356.346,,18,of
screen,html.Screen,2_3_1_0_1_19,2022-03-19T21:52:10.130Z,,,,,,,,,,,,,,,,,12,,,,,,,,,,,,,19.454000071520568,,response,,,5,C,,,Space,keypress(Space),,,,instrumental,,,,---- ------ ------ ------- ------ --- ------- -----------<br>-- ----- --- ---- -- --- ------ ---- - ---- -- ingenuity.<br>-- ------ ---- --- ---- --- --- --- ----- -- -------- ---<br>------ ------- -------- --- ---- -- ------- ------------ --<br>------ -- ---- -- --- ---- -- -------- -- --- ------ ------,101376.5,101375.80000007153,101339.603,101345.70000004768,101356.346,101389.723,,19,ingenuity.
screen,html.Screen,2_3_1_0_1_20,2022-03-19T21:52:10.162Z,,,,,,,,,,,,,,,,,12,,,,,,,,,,,,,18.37700002384372,,response,,,5,C,,,Space,keypress(Space),,,,instrumental,,,,---- ------ ------ ------- ------ --- ------- -----------<br>-- ----- --- ---- -- --- ------ ---- - ---- -- ----------<br>He ------ ---- --- ---- --- --- --- ----- -- -------- ---<br>------ ------- -------- --- ---- -- ------- ------------ --<br>------ -- ---- -- --- ---- -- -------- -- --- ------ ------,101408.70000004768,101408.10000002384,101372.999,101376.70000004768,101389.723,101423.084,,20,He
screen,html.Screen,2_3_1_0_1_21,2022-03-19T21:52:10.194Z,,,,,,,,,,,,,,,,,12,,,,,,,,,,,,,17.216000071523013,,response,,,5,C,,,Space,keypress(Space),,,,instrumental,,,,---- ------ ------ ------- ------ --- ------- -----------<br>-- ----- --- ---- -- --- ------ ---- - ---- -- ----------<br>-- walked ---- --- ---- --- --- --- ----- -- -------- ---<br>------ ------- -------- --- ---- -- ------- ------------ --<br>------ -- ---- -- --- ---- -- -------- -- --- ------ ------,101440.89999997616,101440.30000007153,101406.37,101408.80000007153,101423.084,101456.325,,21,walked
screen,html.Screen,2_3_1_0_1_22,2022-03-19T21:52:10.225Z,,,,,,,,,,,,,,,,,12,,,,,,,,,,,,,14.67500000000291,,response,,,5,C,,,Space,keypress(Space),,,,instrumental,,,,---- ------ ------ ------- ------ --- ------- -----------<br>-- ----- --- ---- -- --- ------ ---- - ---- -- ----------<br>-- ------ into --- ---- --- --- --- ----- -- -------- ---<br>------ ------- -------- --- ---- -- ------- ------------ --<br>------ -- ---- -- --- ---- -- -------- -- --- ------ ------,101471.70000004768,101471,101439.682,101441.10000002384,101456.325,101489.803,,22,into
screen,html.Screen,2_3_1_0_1_23,2022-03-19T21:52:10.255Z,,,,,,,,,,,,,,,,,12,,,,,,,,,,,,,11.297000023841974,,response,,,5,C,,,Space,keypress(Space),,,,instrumental,,,,---- ------ ------ ------- ------ --- ------- -----------<br>-- ----- --- ---- -- --- ------ ---- - ---- -- ----------<br>-- ------ ---- his ---- --- --- --- ----- -- -------- ---<br>------ ------- -------- --- ---- -- ------- ------------ --<br>------ -- ---- -- --- ---- -- -------- -- --- ------ ------,101501.70000004768,101501.10000002384,101473.041,101471.89999997616,101489.803,101523.165,,23,his
screen,html.Screen,2_3_1_0_1_24,2022-03-19T21:52:10.301Z,,,,,,,,,,,,,,,,,12,,,,,,,,,,,,,23.53500004769012,,response,,,5,C,,,Space,keypress(Space),,,,instrumental,,,,---- ------ ------ ------- ------ --- ------- -----------<br>-- ----- --- ---- -- --- ------ ---- - ---- -- ----------<br>-- ------ ---- --- bank --- --- --- ----- -- -------- ---<br>------ ------- -------- --- ---- -- ------- ------------ --<br>------ -- ---- -- --- ---- -- -------- -- --- ------ ------,101547.30000007153,101546.70000004768,101506.448,101501.80000007153,101523.165,101556.482,,24,bank
screen,html.Screen,2_3_1_0_1_25,2022-03-19T21:52:10.331Z,,,,,,,,,,,,,,,,,12,,,,,,,,,,,,,20.818000071521965,,response,,,5,C,,,Space,keypress(Space),,,,instrumental,,,,---- ------ ------ ------- ------ --- ------- -----------<br>-- ----- --- ---- -- --- ------ ---- - ---- -- ----------<br>-- ------ ---- --- ---- one --- --- ----- -- -------- ---<br>------ ------- -------- --- ---- -- ------- ------------ --<br>------ -- ---- -- --- ---- -- -------- -- --- ------ ------,101577.89999997616,101577.30000007153,101539.799,101547.39999997616,101556.482,101589.816,,25,one
screen,html.Screen,2_3_1_0_1_26,2022-03-19T21:52:10.364Z,,,,,,,,,,,,,,,,,12,,,,,,,,,,,,,19.984000071519404,,response,,,5,C,,,Space,keypress(Space),,,,instrumental,,,,---- ------ ------ ------- ------ --- ------- -----------<br>-- ----- --- ---- -- --- ------ ---- - ---- -- ----------<br>-- ------ ---- --- ---- --- day --- ----- -- -------- ---<br>------ ------- -------- --- ---- -- ------- ------------ --<br>------ -- ---- -- --- ---- -- -------- -- --- ------ ------,101610.39999997616,101609.80000007153,101573.16,101578.10000002384,101589.816,101623.231,,26,day
screen,html.Screen,2_3_1_0_1_27,2022-03-19T21:52:10.395Z,,,,,,,,,,,,,,,,,12,,,,,,,,,,,,,18.269000000000233,,response,,,5,C,,,Space,keypress(Space),,,,instrumental,,,,---- ------ ------ ------- ------ --- ------- -----------<br>-- ----- --- ---- -- --- ------ ---- - ---- -- ----------<br>-- ------ ---- --- ---- --- --- and ----- -- -------- ---<br>------ ------- -------- --- ---- -- ------- ------------ --<br>------ -- ---- -- --- ---- -- -------- -- --- ------ ------,101642.20000004768,101641.5,101606.521,101610.60000002384,101623.231,101656.61,,27,and
screen,html.Screen,2_3_1_0_1_28,2022-03-19T21:52:10.427Z,,,,,,,,,,,,,,,,,12,,,,,,,,,,,,,16.490000023841276,,response,,,5,C,,,Space,keypress(Space),,,,instrumental,,,,---- ------ ------ ------- ------ --- ------- -----------<br>-- ----- --- ---- -- --- ------ ---- - ---- -- ----------<br>-- ------ ---- --- ---- --- --- --- asked -- -------- ---<br>------ ------- -------- --- ---- -- ------- ------------ --<br>------ -- ---- -- --- ---- -- -------- -- --- ------ ------,101673.89999997616,101673.10000002384,101639.878,101642.39999997616,101656.61,101689.962,,28,asked
screen,html.Screen,2_3_1_0_1_29,2022-03-19T21:52:10.458Z,,,,,,,,,,,,,,,,,12,,,,,,,,,,,,,13.638000023842324,,response,,,5,C,,,Space,keypress(Space),,,,instrumental,,,,---- ------ ------ ------- ------ --- ------- -----------<br>-- ----- --- ---- -- --- ------ ---- - ---- -- ----------<br>-- ------ ---- --- ---- --- --- --- ----- to -------- ---<br>------ ------- -------- --- ---- -- ------- ------------ --<br>------ -- ---- -- --- ---- -- -------- -- --- ------ ------,101704.39999997616,101703.60000002384,101673.256,101674,101689.962,101723.319,,29,to
screen,html.Screen,2_3_1_0_1_30,2022-03-19T21:52:10.489Z,,,,,,,,,,,,,,,,,12,,,,,,,,,,,,,11.881000047680573,,response,,,5,C,,,Space,keypress(Space),,,,instrumental,,,,---- ------ ------ ------- ------ --- ------- -----------<br>-- ----- --- ---- -- --- ------ ---- - ---- -- ----------<br>-- ------ ---- --- ---- --- --- --- ----- -- withdraw ---<br>------ ------- -------- --- ---- -- ------- ------------ --<br>------ -- ---- -- --- ---- -- -------- -- --- ------ ------,101735.80000007153,101735.20000004768,101706.6,101704.60000002384,101723.319,101756.669,,30,withdraw
screen,html.Screen,2_3_1_0_1_31,2022-03-19T21:52:10.520Z,,,,,,,,,,,,,,,,,12,,,,,,,,,,,,,9.131000071531162,,response,,,5,C,,,Space,keypress(Space),,,,instrumental,,,,---- ------ ------ ------- ------ --- ------- -----------<br>-- ----- --- ---- -- --- ------ ---- - ---- -- ----------<br>-- ------ ---- --- ---- --- --- --- ----- -- -------- his<br>------ ------- -------- --- ---- -- ------- ------------ --<br>------ -- ---- -- --- ---- -- -------- -- --- ------ ------,101766.5,101765.80000007153,101739.956,101735.89999997616,101756.669,101790.035,,31,his
screen,html.Screen,2_3_1_0_1_32,2022-03-19T21:52:10.551Z,,,,,,,,,,,,,,,,,12,,,,,,,,,,,,,7.165000047680223,,response,,,5,C,,,Space,keypress(Space),,,,instrumental,,,,---- ------ ------ ------- ------ --- ------- -----------<br>-- ----- --- ---- -- --- ------ ---- - ---- -- ----------<br>-- ------ ---- --- ---- --- --- --- ----- -- -------- ---<br>entire ------- -------- --- ---- -- ------- ------------ --<br>------ -- ---- -- --- ---- -- -------- -- --- ------ ------,101797.80000007153,101797.20000004768,101773.322,101766.60000002384,101790.035,101823.406,,32,entire
screen,html.Screen,2_3_1_0_1_33,2022-03-19T21:52:10.598Z,,,,,,,,,,,,,,,,,12,,,,,,,,,,,,,20.19400002383918,,response,,,5,C,,,Space,keypress(Space),,,,instrumental,,,,---- ------ ------ ------- ------ --- ------- -----------<br>-- ----- --- ---- -- --- ------ ---- - ---- -- ----------<br>-- ------ ---- --- ---- --- --- --- ----- -- -------- ---<br>------ account -------- --- ---- -- ------- ------------ --<br>------ -- ---- -- --- ---- -- -------- -- --- ------ ------,101844.20000004768,101843.60000002384,101806.681,101798,101823.406,101856.762,,33,account
screen,html.Screen,2_3_1_0_1_34,2022-03-19T21:52:10.629Z,,,,,,,,,,,,,,,,,12,,,,,,,,,,,,,18.737999999997555,,response,,,5,C,,,Space,keypress(Space),,,,instrumental,,,,"---- ------ ------ ------- ------ --- ------- -----------<br>-- ----- --- ---- -- --- ------ ---- - ---- -- ----------<br>-- ------ ---- --- ---- --- --- --- ----- -- -------- ---<br>------ ------- balance, --- ---- -- ------- ------------ --<br>------ -- ---- -- --- ---- -- -------- -- --- ------ ------",101876.20000004768,101875.5,101840.044,101844.39999997616,101856.762,101906.817,,34,"balance,"
screen,html.Screen,2_3_1_0_1_35,2022-03-19T21:52:10.661Z,,,,,,,,,,,,,,,,,12,,,,,,,,,,,,,16.209000071525224,,response,,,5,C,,,Space,keypress(Space),,,,instrumental,,,,---- ------ ------ ------- ------ --- ------- -----------<br>-- ----- --- ---- -- --- ------ ---- - ---- -- ----------<br>-- ------ ---- --- ---- --- --- --- ----- -- -------- ---<br>------ ------- -------- but ---- -- ------- ------------ --<br>------ -- ---- -- --- ---- -- -------- -- --- ------ ------,101907.20000004768,101906.30000007153,101890.091,101876.39999997616,,101923.484,,35,but
screen,html.Screen,2_3_1_0_1_36,2022-03-19T21:52:10.692Z,,,,,,,,,,,,,,,,,12,,,,,,,,,,,,,14.116000023845118,,response,,,5,C,,,Space,keypress(Space),,,,instrumental,,,,---- ------ ------ ------- ------ --- ------- -----------<br>-- ----- --- ---- -- --- ------ ---- - ---- -- ----------<br>-- ------ ---- --- ---- --- --- --- ----- -- -------- ---<br>------ ------- -------- --- with -- ------- ------------ --<br>------ -- ---- -- --- ---- -- -------- -- --- ------ ------,101938.30000007153,101937.60000002384,101906.817,101907.39999997616,101923.484,101956.837,,36,with
screen,html.Screen,2_3_1_0_1_37,2022-03-19T21:52:10.723Z,,,,,,,,,,,,,,,,,12,,,,,,,,,,,,,12.363000047684181,,response,,,5,C,,,Space,keypress(Space),,,,instrumental,,,,---- ------ ------ ------- ------ --- ------- -----------<br>-- ----- --- ---- -- --- ------ ---- - ---- -- ----------<br>-- ------ ---- --- ---- --- --- --- ----- -- -------- ---<br>------ ------- -------- --- ---- an ------- ------------ --<br>------ -- ---- -- --- ---- -- -------- -- --- ------ ------,101970,101969.20000004768,101940.134,101938.5,101956.837,101990.207,,37,an
screen,html.Screen,2_3_1_0_1_38,2022-03-19T21:52:10.755Z,,,,,,,,,,,,,,,,,12,,,,,,,,,,,,,10.89300002384698,,response,,,5,C,,,Space,keypress(Space),,,,instrumental,,,,---- ------ ------ ------- ------ --- ------- -----------<br>-- ----- --- ---- -- --- ------ ---- - ---- -- ----------<br>-- ------ ---- --- ---- --- --- --- ----- -- -------- ---<br>------ ------- -------- --- ---- -- unusual ------------ --<br>------ -- ---- -- --- ---- -- -------- -- --- ------ ------,102001.80000007153,102001.10000002384,101973.5,101970.10000002384,101990.207,102023.521,,38,unusual
screen,html.Screen,2_3_1_0_1_39,2022-03-19T21:52:10.787Z,,,,,,,,,,,,,,,,,12,,,,,,,,,,,,,9.079000023848494,,response,,,5,C,,,Space,keypress(Space),,,,instrumental,,,,---- ------ ------ ------- ------ --- ------- -----------<br>-- ----- --- ---- -- --- ------ ---- - ---- -- ----------<br>-- ------ ---- --- ---- --- --- --- ----- -- -------- ---<br>------ ------- -------- --- ---- -- ------- stipulation: --<br>------ -- ---- -- --- ---- -- -------- -- --- ------ ------,102033.30000007153,102032.60000002384,102006.853,102002,102023.521,102056.932,,39,stipulation:
screen,html.Screen,2_3_1_0_1_40,2022-03-19T21:52:10.818Z,,,,,,,,,,,,,,,,,12,,,,,,,,,,,,,7.467999976157444,,response,,,5,C,,,Space,keypress(Space),,,,instrumental,,,,---- ------ ------ ------- ------ --- ------- -----------<br>-- ----- --- ---- -- --- ------ ---- - ---- -- ----------<br>-- ------ ---- --- ---- --- --- --- ----- -- -------- ---<br>------ ------- -------- --- ---- -- ------- ------------ He<br>------ -- ---- -- --- ---- -- -------- -- --- ------ ------,102065.10000002384,102064.39999997616,102040.216,102033.5,102056.932,102090.284,,40,He
screen,html.Screen,2_3_1_0_1_41,2022-03-19T21:52:10.850Z,,,,,,,,,,,,,,,,,12,,,,,,,,,,,,,6.016000071525923,,response,,,5,C,,,Space,keypress(Space),,,,instrumental,,,,---- ------ ------ ------- ------ --- ------- -----------<br>-- ----- --- ---- -- --- ------ ---- - ---- -- ----------<br>-- ------ ---- --- ---- --- --- --- ----- -- -------- ---<br>------ ------- -------- --- ---- -- ------- ------------ --<br>wanted -- ---- -- --- ---- -- -------- -- --- ------ ------,102097,102096.30000007153,102073.532,102065.30000007153,102090.284,102123.649,,41,wanted
screen,html.Screen,2_3_1_0_1_42,2022-03-19T21:52:10.882Z,,,,,,,,,,,,,,,,,12,,,,,,,,,,,,,4.4510000238369685,,response,,,5,C,,,Space,keypress(Space),,,,instrumental,,,,---- ------ ------ ------- ------ --- ------- -----------<br>-- ----- --- ---- -- --- ------ ---- - ---- -- ----------<br>-- ------ ---- --- ---- --- --- --- ----- -- -------- ---<br>------ ------- -------- --- ---- -- ------- ------------ --<br>------ as ---- -- --- ---- -- -------- -- --- ------ ------,102128.80000007153,102128.10000002384,102106.888,102097.10000002384,102123.649,102156.96,,42,as
screen,html.Screen,2_3_1_0_1_43,2022-03-19T21:52:10.914Z,,,,,,,,,,,,,,,,,12,,,,,,,,,,,,,3.140000023835455,,response,,,5,C,,,Space,keypress(Space),,,,instrumental,,,,---- ------ ------ ------- ------ --- ------- -----------<br>-- ----- --- ---- -- --- ------ ---- - ---- -- ----------<br>-- ------ ---- --- ---- --- --- --- ----- -- -------- ---<br>------ ------- -------- --- ---- -- ------- ------------ --<br>------ -- much -- --- ---- -- -------- -- --- ------ ------,102160.60000002384,102160.10000002384,102140.254,102129,102156.96,102190.321,,43,much
screen,html.Screen,2_3_1_0_1_44,2022-03-19T21:52:10.960Z,,,,,,,,,,,,,,,,,12,,,,,,,,,,,,,15.779000023845583,,response,,,5,C,,,Space,keypress(Space),,,,instrumental,,,,---- ------ ------ ------- ------ --- ------- -----------<br>-- ----- --- ---- -- --- ------ ---- - ---- -- ----------<br>-- ------ ---- --- ---- --- --- --- ----- -- -------- ---<br>------ ------- -------- --- ---- -- ------- ------------ --<br>------ -- ---- of --- ---- -- -------- -- --- ------ ------,102206.70000004768,102206.10000002384,102173.654,102160.80000007153,102190.321,102223.718,,44,of
screen,html.Screen,2_3_1_0_1_45,2022-03-19T21:52:10.992Z,,,,,,,,,,,,,,,,,12,,,,,,,,,,,,,14.382000023848377,,response,,,5,C,,,Space,keypress(Space),,,,instrumental,,,,---- ------ ------ ------- ------ --- ------- -----------<br>-- ----- --- ---- -- --- ------ ---- - ---- -- ----------<br>-- ------ ---- --- ---- --- --- --- ----- -- -------- ---<br>------ ------- -------- --- ---- -- ------- ------------ --<br>------ -- ---- -- the ---- -- -------- -- --- ------ ------,102238.70000004768,102238.10000002384,102206.972,102207,102223.718,102257.086,,45,the
