sender,sender_type,sender_id,timestamp,meta,,Blues,Classical,Country,Dance,Electronic,Folk,Gospel,Hip-Hop,Jazz,Latin,Musical/Film,New-age,Pop,Prolific_id,Provo_ID,R&B,Rap,Reggae,Religious,Rock,Soul,Swing,Traditional,age,artist_name,correct,correctResponse,duration,education,ended_on,gender,headphone_check_performance,item,list,music_frequency,position_correct,response,response_action,snippet_file,song_name,song_rating,sound,stimulus_1,stimulus_2,stimulus_3,text,time_commit,time_end,time_render,time_run,time_show,time_switch,url,word,word_ID
Prolific ID,html.Form,0,2022-03-21T20:50:57.519Z,"{""labjs_version"":""20.2.2"",""labjs_build"":{""flavor"":""production"",""commit"":""a25486e0c714a0ae2ce03ff94b7bb6896854dcfa""},""location"":""https://run.pavlovia.org/mvasilev/prolific3_music_e/?__pilotToken=3c59dc048e8850243be8079a5c74d079&__oauthToken=cc604b6e7d449fc5fe7a311b47aeaf3d810b53f5795c726b331b83656855f6f4"",""userAgent"":""Mozilla/5.0 (Windows NT 10.0; Win64; x64) AppleWebKit/537.36 (KHTML, like Gecko) Chrome/99.0.4844.74 Safari/537.36"",""platform"":""Win32"",""language"":""de-DE"",""locale"":""en-US"",""timeZone"":""Europe/London"",""timezoneOffset"":0,""screen_width"":2560,""screen_height"":1440,""scroll_width"":3200,""scroll_height"":1621,""window_innerWidth"":3200,""window_innerHeight"":1668,""devicePixelRatio"":0.800000011920929}",,,,,,,,,,,,,,,xyz123456789,,,,,,,,,,,,,,2916.395000071525,,form submission,,,,,,,,,,,,,,,,,13672.200000047684,13671.800000071526,10621.976,10737.100000023842,10755.405,13674.424,"{""__pilotToken"":""3c59dc048e8850243be8079a5c74d079"",""__oauthToken"":""cc604b6e7d449fc5fe7a311b47aeaf3d810b53f5795c726b331b83656855f6f4""}",,
Introduction,html.Screen,1_0,2022-03-21T20:50:59.358Z,,,,,,,,,,,,,,,,,,,,,,,,,,,,,,1835.8760000715247,,response,,,,,,,continue,click button,,,,,,,,,15511.100000023842,15510.300000071526,13657.754,13672.600000023842,13674.424,15525.845,,,
Volume calibration,html.Screen,1_1,2022-03-21T20:51:01.048Z,,,,,,,,,,,,,,,,,,,,,,,,,,,,,,1672.4550000715262,,response,,,,,,,continue,click button,,,,,,,,,17201.5,17198.300000071526,15509.256,15511.300000071526,15525.845,17227.244,,,
Task instructions,html.Screen,1_2,2022-03-21T20:51:02.078Z,,,,,,,,,,,,,,,,,,,,,,,,,,,,,,1003.0560000715268,,response,,,,,,,continue,click button,,,,,,,,,18230.900000095367,18230.300000071526,17210.601,17201.600000023842,17227.244,18244.728,,,
Sounds,html.Screen,1_3_0_0,2022-03-21T20:51:06.332Z,,,,,,,,,,,,,,,,,,,,,,,,,,,,,,4253.467000000001,,timeout,,,,,,2,,,,,,,I,S,O,,22485.700000047684,22481.55,18228.109,18231.100000023842,18244.728,22498.195,,,
Judgement,html.Screen,1_3_0_1,2022-03-21T20:51:06.806Z,,,,,,,,,,,,,,,,,,,,,,,,,,,,true,2,460.10500007152586,,response,,,,,,2,2,click #choice-2,,,,,I,S,O,,22959.100000023842,22958.300000071526,22481.55,22486,22498.195,22965.109,,,
Trial,flow.Sequence,1_3_0,2022-03-21T20:51:06.806Z,,,,,,,,,,,,,,,,,,,,,,,,,,,,,,4713.572000071526,,completion,,,,,,2,,,,,,,I,S,O,,22959.300000071526,22958.300000071526,18228.109,18231.100000023842,18244.728,22965.109,,,
Sounds,html.Screen,1_3_1_0,2022-03-21T20:51:11.050Z,,,,,,,,,,,,,,,,,,,,,,,,,,,,,,4253.602999999999,,timeout,,,,,,2,,,,,,,O,S,I,,27202.900000095367,27202.03,22948.586,22959.400000095367,22965.109,27218.712,,,
Judgement,html.Screen,1_3_1_1,2022-03-21T20:51:11.470Z,,,,,,,,,,,,,,,,,,,,,,,,,,,,true,2,403.58800007152604,,response,,,,,,2,2,click #choice-2,,,,,O,S,I,,27623.400000095367,27622.300000071526,27202.03,27203.100000023842,27218.712,27635.693,,,
Trial,flow.Sequence,1_3_1,2022-03-21T20:51:11.470Z,,,,,,,,,,,,,,,,,,,,,,,,,,,,,,4657.191000071525,,completion,,,,,,2,,,,,,,O,S,I,,27623.5,27622.300000071526,22948.586,22959.400000095367,22965.109,27635.693,,,
Sounds,html.Screen,1_3_2_0,2022-03-21T20:51:15.720Z,,,,,,,,,,,,,,,,,,,,,,,,,,,,,,4253.463,,timeout,,,,,,1,,,,,,,S,I,O,,31873.300000071526,31872.462,27619.027,27623.700000047684,27635.693,31889.156,,,
Judgement,html.Screen,1_3_2_1,2022-03-21T20:51:16.190Z,,,,,,,,,,,,,,,,,,,,,,,,,,,,true,1,453.0440000476847,,response,,,,,,1,1,click #choice-1,,,,,S,I,O,,32343,32342.200000047684,31872.462,31873.5,31889.156,32356.192,,,
Trial,flow.Sequence,1_3_2,2022-03-21T20:51:16.190Z,,,,,,,,,,,,,,,,,,,,,,,,,,,,,,4706.507000047684,,completion,,,,,,1,,,,,,,S,I,O,,32343.200000047684,32342.200000047684,27619.027,27623.700000047684,27635.693,32356.192,,,
Sounds,html.Screen,1_3_3_0,2022-03-21T20:51:20.441Z,,,,,,,,,,,,,,,,,,,,,,,,,,,,,,4253.441999999999,,timeout,,,,,,3,,,,,,,O,I,S,,36594.10000002384,36592.936,32339.502,32343.400000095367,32356.192,36609.634,,,
Judgement,html.Screen,1_3_3_1,2022-03-21T20:51:21.078Z,,,,,,,,,,,,,,,,,,,,,,,,,,,,true,3,620.6660000715274,,response,,,,,,3,3,click #choice-3,,,,,O,I,S,,37231,37230.300000071526,36592.936,36594.300000071526,36609.634,37243.431,,,
Trial,flow.Sequence,1_3_3,2022-03-21T20:51:21.078Z,,,,,,,,,,,,,,,,,,,,,,,,,,,,,,4874.1080000715265,,completion,,,,,,3,,,,,,,O,I,S,,37231.200000047684,37230.300000071526,32339.502,32343.400000095367,32356.192,37243.431,,,
Sounds,html.Screen,1_3_4_0,2022-03-21T20:51:25.328Z,,,,,,,,,,,,,,,,,,,,,,,,,,,,,,4253.471000000005,,timeout,,,,,,3,,,,,,,I,O,S,,41481,41480.225,37226.769,37231.300000071526,37243.431,41496.902,,,
Judgement,html.Screen,1_3_4_1,2022-03-21T20:51:25.862Z,,,,,,,,,,,,,,,,,,,,,,,,,,,,true,3,517.3980000715237,,response,,,,,,3,3,click #choice-3,,,,,I,O,S,,42015,42014.300000071526,41480.225,41481.200000047684,41496.902,42030.668,,,
Trial,flow.Sequence,1_3_4,2022-03-21T20:51:25.862Z,,,,,,,,,,,,,,,,,,,,,,,,,,,,,,4770.869000071529,,completion,,,,,,3,,,,,,,I,O,S,,42015.200000047684,42014.300000071526,37226.769,37231.300000071526,37243.431,42030.668,,,
Sounds,html.Screen,1_3_5_0,2022-03-21T20:51:30.115Z,,,,,,,,,,,,,,,,,,,,,,,,,,,,,,4253.439000000006,,timeout,,,,,,1,,,,,,,S,O,I,,46268.10000002384,46267.41,42013.997,42015.300000071526,42030.668,46284.107,,,
Judgement,html.Screen,1_3_5_1,2022-03-21T20:51:30.774Z,,,,,,,,,,,,,,,,,,,,,,,,,,,,true,1,642.193000071522,,response,,,,,,1,1,click #choice-1,,,,,S,O,I,,46927.200000047684,46926.300000071526,46267.41,46268.300000071526,46284.107,46934.604,,,
Trial,flow.Sequence,1_3_5,2022-03-21T20:51:30.774Z,,,,,,,,,,,,,,,,,,,,,,,,,,,,,,4895.632000071528,,completion,,,,,,1,,,,,,,S,O,I,,46927.300000071526,46926.300000071526,42013.997,42015.300000071526,42030.668,46934.604,,,
Task,flow.Loop,1_3,2022-03-21T20:51:30.779Z,,,,,,,,,,,,,,,,,,,,,,,,,,,,,,28681.572000071526,,completion,,1,,,,,,,,,,,,,,,46932.200000047684,46926.300000071526,18228.109,18231.100000023842,18244.728,46934.604,,,
Trap,html.Screen,1_4,2022-03-21T20:51:30.780Z,,,,,,,,,,,,,,,,,,,,,,,,,,,,,,NaN,,skipped,,,,,,,,,,,,,,,,,46933.5,46926.300000071526,,46933.40000009537,,46934.604,,,
Thanks,html.Screen,1_5,2022-03-21T20:51:32.414Z,,,,,,,,,,,,,,,,,,,,,,,,,,,,,,1631.5960000476844,,response,,,,,,,continue,click button,,,,,,,,,48566.800000071526,48566.200000047684,46917.946,46933.60000002384,46934.604,49419.956,,,
Headphone screening,flow.Sequence,1,2022-03-21T20:51:32.414Z,,,,,,,,,,,,,,,,,,,,,,,,,,,,,,34891.776000047685,,completion,,,,,,,,,,,,,,,,,48567,48566.200000047684,13657.754,13672.600000023842,13674.424,49419.956,,,
Instructions,html.Page,2_0,2022-03-21T20:51:34.462Z,,,,,,,,,,,,,,,,,,,,,,,,,,,,,,1195.1440000238435,,form submission,,,,,,,,,,,,,,,,,50615.5,50615.10000002384,49403.155,49413.700000047684,49419.956,50620.907,,,
Holding screen,html.Screen,2_1_0_0,2022-03-21T20:51:44.459Z,,,,,,,,,,,,,,,,,,,,,,,,,,,,,,10008.001000000004,,timeout,,,,,,,,,,,,,,,,,60613.10000002384,60612.321,50604.251,50615.800000071526,50620.907,60628.908,,,
screen,html.Screen,2_1_0_1_0,2022-03-21T20:51:44.892Z,,,,,,,,,,,,,,,,,53,,,,,,,,,,,,,412.0919999999969,,response,,,99,,,,Space,keypress(Space),,,,,,,,When -- ----- -- ------ - ------- --- ----------<br>------------- ------ ------ ---- ---- ------- ----- -- ----<br>-------- ------- -- ---------- --- - --- ----- ----- ----<br>---- --- --- ----- --- ---- ---- ------- ----- ---- -------<br>--- --- -- ----- -- --- ---- -- --- ---- -- ------ ------<br>--- ----- -- ----,61045.700000047684,61041,60612.321,60613.40000009537,60628.908,61046.026,,0,When
screen,html.Screen,2_1_0_1_1,2022-03-21T20:51:45.382Z,,,,,,,,,,,,,,,,,53,,,,,,,,,,,,,489.27400007152755,,response,,,99,,,,Space,keypress(Space),,,,,,,,---- it ----- -- ------ - ------- --- ----------<br>------------- ------ ------ ---- ---- ------- ----- -- ----<br>-------- ------- -- ---------- --- - --- ----- ----- ----<br>---- --- --- ----- --- ---- ---- ------- ----- ---- -------<br>--- --- -- ----- -- --- ---- -- --- ---- -- ------ ------<br>--- ----- -- ----,61536.10000002384,61535.300000071526,61029.329,61045.90000009537,61046.026,61546.386,,1,it
screen,html.Screen,2_1_0_1_2,2022-03-21T20:51:45.428Z,,,,,,,,,,,,,,,,,53,,,,,,,,,,,,,34.31400004768511,,response,,,99,,,,Space,keypress(Space),,,,,,,,---- -- comes -- ------ - ------- --- ----------<br>------------- ------ ------ ---- ---- ------- ----- -- ----<br>-------- ------- -- ---------- --- - --- ----- ----- ----<br>---- --- --- ----- --- ---- ---- ------- ----- ---- -------<br>--- --- -- ----- -- --- ---- -- --- ---- -- ------ ------<br>--- ----- -- ----,61581.40000009537,61580.700000047684,61529.685,61536.40000009537,61546.386,61613.17,,2,comes
screen,html.Screen,2_1_0_1_3,2022-03-21T20:51:45.460Z,,,,,,,,,,,,,,,,,53,,,,,,,,,,,,,16.64500002384011,,response,,,99,,,,Space,keypress(Space),,,,,,,,---- -- ----- to ------ - ------- --- ----------<br>------------- ------ ------ ---- ---- ------- ----- -- ----<br>-------- ------- -- ---------- --- - --- ----- ----- ----<br>---- --- --- ----- --- ---- ---- ------- ----- ---- -------<br>--- --- -- ----- -- --- ---- -- --- ---- -- ------ ------<br>--- ----- -- ----,61613.700000047684,61613.10000002384,61596.455,61581.60000002384,,61629.865,,3,to
screen,html.Screen,2_1_0_1_4,2022-03-21T20:51:45.490Z,,,,,,,,,,,,,,,,,53,,,,,,,,,,,,,13.435000071527611,,response,,,99,,,,Space,keypress(Space),,,,,,,,---- -- ----- -- having - ------- --- ----------<br>------------- ------ ------ ---- ---- ------- ----- -- ----<br>-------- ------- -- ---------- --- - --- ----- ----- ----<br>---- --- --- ----- --- ---- ---- ------- ----- ---- -------<br>--- --- -- ----- -- --- ---- -- --- ---- -- ------ ------<br>--- ----- -- ----,61644,61643.300000071526,61613.17,61613.90000009537,61629.865,61663.142,,4,having
screen,html.Screen,2_1_0_1_5,2022-03-21T20:51:45.521Z,,,,,,,,,,,,,,,,,53,,,,,,,,,,,,,11.05800004768389,,response,,,99,,,,Space,keypress(Space),,,,,,,,---- -- ----- -- ------ a ------- --- ----------<br>------------- ------ ------ ---- ---- ------- ----- -- ----<br>-------- ------- -- ---------- --- - --- ----- ----- ----<br>---- --- --- ----- --- ---- ---- ------- ----- ---- -------<br>--- --- -- ----- -- --- ---- -- --- ---- -- ------ ------<br>--- ----- -- ----,61674.90000009537,61674.200000047684,61646.488,61644.10000002384,61663.142,61696.568,,5,a
screen,html.Screen,2_1_0_1_6,2022-03-21T20:51:45.552Z,,,,,,,,,,,,,,,,,53,,,,,,,,,,,,,8.432000000000698,,response,,,99,,,,Space,keypress(Space),,,,,,,,---- -- ----- -- ------ - lasting --- ----------<br>------------- ------ ------ ---- ---- ------- ----- -- ----<br>-------- ------- -- ---------- --- - --- ----- ----- ----<br>---- --- --- ----- --- ---- ---- ------- ----- ---- -------<br>--- --- -- ----- -- --- ---- -- --- ---- -- ------ ------<br>--- ----- -- ----,61705.800000071526,61705,61679.854,61676.60000002384,61696.568,61729.927,,6,lasting
screen,html.Screen,2_1_0_1_7,2022-03-21T20:51:45.584Z,,,,,,,,,,,,,,,,,53,,,,,,,,,,,,,7.17300002383854,,response,,,99,,,,Space,keypress(Space),,,,,,,,---- -- ----- -- ------ - ------- and ----------<br>------------- ------ ------ ---- ---- ------- ----- -- ----<br>-------- ------- -- ---------- --- - --- ----- ----- ----<br>---- --- --- ----- --- ---- ---- ------- ----- ---- -------<br>--- --- -- ----- -- --- ---- -- --- ---- -- ------ ------<br>--- ----- -- ----,61737.60000002384,61737.10000002384,61713.215,61706,61729.927,61763.283,,7,and
screen,html.Screen,2_1_0_1_8,2022-03-21T20:51:45.616Z,,,,,,,,,,,,,,,,,53,,,,,,,,,,,,,5.817000023838773,,response,,,99,,,,Space,keypress(Space),,,,,,,,---- -- ----- -- ------ - ------- --- fulfilling<br>------------- ------ ------ ---- ---- ------- ----- -- ----<br>-------- ------- -- ---------- --- - --- ----- ----- ----<br>---- --- --- ----- --- ---- ---- ------- ----- ---- -------<br>--- --- -- ----- -- --- ---- -- --- ---- -- ------ ------<br>--- ----- -- ----,61769.700000047684,61769.10000002384,61746.572,61737.90000009537,61763.283,61796.651,,8,fulfilling
screen,html.Screen,2_1_0_1_9,2022-03-21T20:51:45.647Z,,,,,,,,,,,,,,,,,53,,,,,,,,,,,,,3.549000047685695,,response,,,99,,,,Space,keypress(Space),,,,,,,,"---- -- ----- -- ------ - ------- --- ----------<br>relationship, ------ ------ ---- ---- ------- ----- -- ----<br>-------- ------- -- ---------- --- - --- ----- ----- ----<br>---- --- --- ----- --- ---- ---- ------- ----- ---- -------<br>--- --- -- ----- -- --- ---- -- --- ---- -- ------ ------<br>--- ----- -- ----",61801,61800.200000047684,61779.929,61769.90000009537,61796.651,61830.01,,9,"relationship,"
screen,html.Screen,2_1_0_1_10,2022-03-21T20:51:45.679Z,,,,,,,,,,,,,,,,,53,,,,,,,,,,,,,2.2900000715235365,,response,,,99,,,,Space,keypress(Space),,,,,,,,---- -- ----- -- ------ - ------- --- ----------<br>------------- common ------ ---- ---- ------- ----- -- ----<br>-------- ------- -- ---------- --- - --- ----- ----- ----<br>---- --- --- ----- --- ---- ---- ------- ----- ---- -------<br>--- --- -- ----- -- --- ---- -- --- ---- -- ------ ------<br>--- ----- -- ----,61832.800000071526,61832.300000071526,61813.294,61801.200000047684,61830.01,61863.366,,10,common
screen,html.Screen,2_1_0_1_11,2022-03-21T20:51:45.726Z,,,,,,,,,,,,,,,,,53,,,,,,,,,,,,,15.734000023840053,,response,,,99,,,,Space,keypress(Space),,,,,,,,---- -- ----- -- ------ - ------- --- ----------<br>------------- ------ wisdom ---- ---- ------- ----- -- ----<br>-------- ------- -- ---------- --- - --- ----- ----- ----<br>---- --- --- ----- --- ---- ---- ------- ----- ---- -------<br>--- --- -- ----- -- --- ---- -- --- ---- -- ------ ------<br>--- ----- -- ----,61879.800000071526,61879.10000002384,61846.652,61833.200000047684,61863.366,61896.722,,11,wisdom
screen,html.Screen,2_1_0_1_12,2022-03-21T20:51:45.757Z,,,,,,,,,,,,,,,,,53,,,,,,,,,,,,,13.277999999998428,,response,,,99,,,,Space,keypress(Space),,,,,,,,---- -- ----- -- ------ - ------- --- ----------<br>------------- ------ ------ says ---- ------- ----- -- ----<br>-------- ------- -- ---------- --- - --- ----- ----- ----<br>---- --- --- ----- --- ---- ---- ------- ----- ---- -------<br>--- --- -- ----- -- --- ---- -- --- ---- -- ------ ------<br>--- ----- -- ----,61910.700000047684,61910,61880.018,61880,61896.722,61930.095,,12,says
screen,html.Screen,2_1_0_1_13,2022-03-21T20:51:45.787Z,,,,,,,,,,,,,,,,,53,,,,,,,,,,,,,10.105000047682552,,response,,,99,,,,Space,keypress(Space),,,,,,,,---- -- ----- -- ------ - ------- --- ----------<br>------------- ------ ------ ---- that ------- ----- -- ----<br>-------- ------- -- ---------- --- - --- ----- ----- ----<br>---- --- --- ----- --- ---- ---- ------- ----- ---- -------<br>--- --- -- ----- -- --- ---- -- --- ---- -- ------ ------<br>--- ----- -- ----,61940.800000071526,61940.200000047684,61913.374,61910.90000009537,61930.095,61963.461,,13,that
screen,html.Screen,2_1_0_1_14,2022-03-21T20:51:45.817Z,,,,,,,,,,,,,,,,,53,,,,,,,,,,,,,6.739000047680747,,response,,,99,,,,Space,keypress(Space),,,,,,,,---- -- ----- -- ------ - ------- --- ----------<br>------------- ------ ------ ---- ---- feeling ----- -- ----<br>-------- ------- -- ---------- --- - --- ----- ----- ----<br>---- --- --- ----- --- ---- ---- ------- ----- ---- -------<br>--- --- -- ----- -- --- ---- -- --- ---- -- ------ ------<br>--- ----- -- ----,61970.90000009537,61970.200000047684,61946.694,61941,61963.461,61996.798,,14,feeling
screen,html.Screen,2_1_0_1_15,2022-03-21T20:51:45.848Z,,,,,,,,,,,,,,,,,53,,,,,,,,,,,,,4.402000047681213,,response,,,99,,,,Space,keypress(Space),,,,,,,,---- -- ----- -- ------ - ------- --- ----------<br>------------- ------ ------ ---- ---- ------- close -- ----<br>-------- ------- -- ---------- --- - --- ----- ----- ----<br>---- --- --- ----- --- ---- ---- ------- ----- ---- -------<br>--- --- -- ----- -- --- ---- -- --- ---- -- ------ ------<br>--- ----- -- ----,62001.90000009537,62001.200000047684,61980.092,61971,61996.798,62030.175,,15,close
screen,html.Screen,2_1_0_1_16,2022-03-21T20:51:45.880Z,,,,,,,,,,,,,,,,,53,,,,,,,,,,,,,3.1250000715226633,,response,,,99,,,,Space,keypress(Space),,,,,,,,---- -- ----- -- ------ - ------- --- ----------<br>------------- ------ ------ ---- ---- ------- ----- to ----<br>-------- ------- -- ---------- --- - --- ----- ----- ----<br>---- --- --- ----- --- ---- ---- ------- ----- ---- -------<br>--- --- -- ----- -- --- ---- -- --- ---- -- ------ ------<br>--- ----- -- ----,62034,62033.300000071526,62013.457,62002.10000002384,62030.175,62063.524,,16,to
screen,html.Screen,2_1_0_1_17,2022-03-21T20:51:45.912Z,,,,,,,,,,,,,,,,,53,,,,,,,,,,,,,1.5760000238442444,,response,,,99,,,,Space,keypress(Space),,,,,,,,---- -- ----- -- ------ - ------- --- ----------<br>------------- ------ ------ ---- ---- ------- ----- -- your<br>-------- ------- -- ---------- --- - --- ----- ----- ----<br>---- --- --- ----- --- ---- ---- ------- ----- ---- -------<br>--- --- -- ----- -- --- ---- -- --- ---- -- ------ ------<br>--- ----- -- ----,62065.700000047684,62065.10000002384,62046.813,62034.200000047684,62063.524,62096.844,,17,your
screen,html.Screen,2_1_0_1_18,2022-03-21T20:51:45.957Z,,,,,,,,,,,,,,,,,53,,,,,,,,,,,,,13.156000000002678,,response,,,99,,,,Space,keypress(Space),,,,,,,,---- -- ----- -- ------ - ------- --- ----------<br>------------- ------ ------ ---- ---- ------- ----- -- ----<br>romantic ------- -- ---------- --- - --- ----- ----- ----<br>---- --- --- ----- --- ---- ---- ------- ----- ---- -------<br>--- --- -- ----- -- --- ---- -- --- ---- -- ------ ------<br>--- ----- -- ----,62110.700000047684,62110,62080.17,62065.90000009537,62096.844,62130.278,,18,romantic
screen,html.Screen,2_1_0_1_19,2022-03-21T20:51:45.988Z,,,,,,,,,,,,,,,,,53,,,,,,,,,,,,,10.722000000001572,,response,,,99,,,,Space,keypress(Space),,,,,,,,---- -- ----- -- ------ - ------- --- ----------<br>------------- ------ ------ ---- ---- ------- ----- -- ----<br>-------- partner -- ---------- --- - --- ----- ----- ----<br>---- --- --- ----- --- ---- ---- ------- ----- ---- -------<br>--- --- -- ----- -- --- ---- -- --- ---- -- ------ ------<br>--- ----- -- ----,62141.60000002384,62141,62113.535,62110.90000009537,62130.278,62163.544,,19,partner
screen,html.Screen,2_1_0_1_20,2022-03-21T20:51:46.021Z,,,,,,,,,,,,,,,,,53,,,,,,,,,,,,,8.955999999998312,,response,,,99,,,,Space,keypress(Space),,,,,,,,---- -- ----- -- ------ - ------- --- ----------<br>------------- ------ ------ ---- ---- ------- ----- -- ----<br>-------- ------- is ---------- --- - --- ----- ----- ----<br>---- --- --- ----- --- ---- ---- ------- ----- ---- -------<br>--- --- -- ----- -- --- ---- -- --- ---- -- ------ ------<br>--- ----- -- ----,62174.60000002384,62172.5,62146.909,62141.90000009537,62163.544,62196.91,,20,is
screen,html.Screen,2_1_0_1_21,2022-03-21T20:51:46.051Z,,,,,,,,,,,,,,,,,53,,,,,,,,,,,,,7.290000047680223,,response,,,99,,,,Space,keypress(Space),,,,,,,,---- -- ----- -- ------ - ------- --- ----------<br>------------- ------ ------ ---- ---- ------- ----- -- ----<br>-------- ------- -- paramount. --- - --- ----- ----- ----<br>---- --- --- ----- --- ---- ---- ------- ----- ---- -------<br>--- --- -- ----- -- --- ---- -- --- ---- -- ------ ------<br>--- ----- -- ----,62204.800000071526,62204.200000047684,62180.197,62174.700000047684,62196.91,62230.319,,21,paramount.
screen,html.Screen,2_1_0_1_22,2022-03-21T20:51:46.083Z,,,,,,,,,,,,,,,,,53,,,,,,,,,,,,,5.4810000715224305,,response,,,99,,,,Space,keypress(Space),,,,,,,,---- -- ----- -- ------ - ------- --- ----------<br>------------- ------ ------ ---- ---- ------- ----- -- ----<br>-------- ------- -- ---------- But - --- ----- ----- ----<br>---- --- --- ----- --- ---- ---- ------- ----- ---- -------<br>--- --- -- ----- -- --- ---- -- --- ---- -- ------ ------<br>--- ----- -- ----,62236.40000009537,62235.800000071526,62213.558,62205,62230.319,62263.696,,22,But
screen,html.Screen,2_1_0_1_23,2022-03-21T20:51:46.113Z,,,,,,,,,,,,,,,,,53,,,,,,,,,,,,,2.204000095363881,,response,,,99,,,,Space,keypress(Space),,,,,,,,---- -- ----- -- ------ - ------- --- ----------<br>------------- ------ ------ ---- ---- ------- ----- -- ----<br>-------- ------- -- ---------- --- a --- ----- ----- ----<br>---- --- --- ----- --- ---- ---- ------- ----- ---- -------<br>--- --- -- ----- -- --- ---- -- --- ---- -- ------ ------<br>--- ----- -- ----,62266.5,62265.90000009537,62246.977,62236.700000047684,62263.696,62297.057,,23,a
screen,html.Screen,2_1_0_1_24,2022-03-21T20:51:46.145Z,,,,,,,,,,,,,,,,,53,,,,,,,,,,,,,0.8430000953667331,,response,,,99,,,,Space,keypress(Space),,,,,,,,---- -- ----- -- ------ - ------- --- ----------<br>------------- ------ ------ ---- ---- ------- ----- -- ----<br>-------- ------- -- ---------- --- - new ----- ----- ----<br>---- --- --- ----- --- ---- ---- ------- ----- ---- -------<br>--- --- -- ----- -- --- ---- -- --- ---- -- ------ ------<br>--- ----- -- ----,62298.60000002384,62297.90000009537,62280.337,62266.700000047684,62297.057,62330.376,,24,new
screen,html.Screen,2_1_0_1_25,2022-03-21T20:51:46.176Z,,,,,,,,,,,,,,,,,53,,,,,,,,,,,,,15.343000000000757,,response,,,99,,,,Space,keypress(Space),,,,,,,,---- -- ----- -- ------ - ------- --- ----------<br>------------- ------ ------ ---- ---- ------- ----- -- ----<br>-------- ------- -- ---------- --- - --- study ----- ----<br>---- --- --- ----- --- ---- ---- ------- ----- ---- -------<br>--- --- -- ----- -- --- ---- -- --- ---- -- ------ ------<br>--- ----- -- ----,62329.5,62329,62313.657,62298.700000047684,,62347.094,,25,study
screen,html.Screen,2_1_0_1_26,2022-03-21T20:51:46.222Z,,,,,,,,,,,,,,,,,53,,,,,,,,,,,,,27.70600007152825,,response,,,99,,,,Space,keypress(Space),,,,,,,,---- -- ----- -- ------ - ------- --- ----------<br>------------- ------ ------ ---- ---- ------- ----- -- ----<br>-------- ------- -- ---------- --- - --- ----- finds ----<br>---- --- --- ----- --- ---- ---- ------- ----- ---- -------<br>--- --- -- ----- -- --- ---- -- --- ---- -- ------ ------<br>--- ----- -- ----,62375.40000009537,62374.800000071526,62330.376,62329.700000047684,62347.094,62380.449,,26,finds
screen,html.Screen,2_1_0_1_27,2022-03-21T20:51:46.252Z,,,,,,,,,,,,,,,,,53,,,,,,,,,,,,,24.651000023841334,,response,,,99,,,,Space,keypress(Space),,,,,,,,---- -- ----- -- ------ - ------- --- ----------<br>------------- ------ ------ ---- ---- ------- ----- -- ----<br>-------- ------- -- ---------- --- - --- ----- ----- that<br>---- --- --- ----- --- ---- ---- ------- ----- ---- -------<br>--- --- -- ----- -- --- ---- -- --- ---- -- ------ ------<br>--- ----- -- ----,62405.700000047684,62405.10000002384,62363.738,62375.60000002384,62380.449,62413.763,,27,that
screen,html.Screen,2_1_0_1_28,2022-03-21T20:51:46.282Z,,,,,,,,,,,,,,,,,53,,,,,,,,,,,,,21.037000071526563,,response,,,99,,,,Space,keypress(Space),,,,,,,,---- -- ----- -- ------ - ------- --- ----------<br>------------- ------ ------ ---- ---- ------- ----- -- ----<br>-------- ------- -- ---------- --- - --- ----- ----- ----<br>it's --- --- ----- --- ---- ---- ------- ----- ---- -------<br>--- --- -- ----- -- --- ---- -- --- ---- -- ------ ------<br>--- ----- -- ----,62435.40000009537,62434.800000071526,62397.132,62405.90000009537,62413.763,62447.123,,28,it's
screen,html.Screen,2_1_0_1_29,2022-03-21T20:51:46.313Z,,,,,,,,,,,,,,,,,53,,,,,,,,,,,,,18.77700009536784,,response,,,99,,,,Space,keypress(Space),,,,,,,,---- -- ----- -- ------ - ------- --- ----------<br>------------- ------ ------ ---- ---- ------- ----- -- ----<br>-------- ------- -- ---------- --- - --- ----- ----- ----<br>---- not --- ----- --- ---- ---- ------- ----- ---- -------<br>--- --- -- ----- -- --- ---- -- --- ---- -- ------ ------<br>--- ----- -- ----,62466.5,62465.90000009537,62430.454,62435.60000002384,62447.123,62480.482,,29,not
screen,html.Screen,2_1_0_1_30,2022-03-21T20:51:46.344Z,,,,,,,,,,,,,,,,,53,,,,,,,,,,,,,16.418000095363823,,response,,,99,,,,Space,keypress(Space),,,,,,,,---- -- ----- -- ------ - ------- --- ----------<br>------------- ------ ------ ---- ---- ------- ----- -- ----<br>-------- ------- -- ---------- --- - --- ----- ----- ----<br>---- --- how ----- --- ---- ---- ------- ----- ---- -------<br>--- --- -- ----- -- --- ---- -- --- ---- -- ------ ------<br>--- ----- -- ----,62497.60000002384,62496.90000009537,62463.815,62466.800000071526,62480.482,62513.895,,30,how
screen,html.Screen,2_1_0_1_31,2022-03-21T20:51:46.374Z,,,,,,,,,,,,,,,,,53,,,,,,,,,,,,,13.20500002384506,,response,,,99,,,,Space,keypress(Space),,,,,,,,---- -- ----- -- ------ - ------- --- ----------<br>------------- ------ ------ ---- ---- ------- ----- -- ----<br>-------- ------- -- ---------- --- - --- ----- ----- ----<br>---- --- --- close --- ---- ---- ------- ----- ---- -------<br>--- --- -- ----- -- --- ---- -- --- ---- -- ------ ------<br>--- ----- -- ----,62527.800000071526,62527.10000002384,62497.135,62497.700000047684,62513.895,62547.216,,31,close
screen,html.Screen,2_1_0_1_32,2022-03-21T20:51:46.405Z,,,,,,,,,,,,,,,,,53,,,,,,,,,,,,,10.78399999999965,,response,,,99,,,,Space,keypress(Space),,,,,,,,---- -- ----- -- ------ - ------- --- ----------<br>------------- ------ ------ ---- ---- ------- ----- -- ----<br>-------- ------- -- ---------- --- - --- ----- ----- ----<br>---- --- --- ----- you ---- ---- ------- ----- ---- -------<br>--- --- -- ----- -- --- ---- -- --- ---- -- ------ ------<br>--- ----- -- ----,62558.700000047684,62558,62530.496,62527.90000009537,62547.216,62580.619,,32,you
screen,html.Screen,2_1_0_1_33,2022-03-21T20:51:46.452Z,,,,,,,,,,,,,,,,,53,,,,,,,,,,,,,24.48100002384308,,response,,,99,,,,Space,keypress(Space),,,,,,,,---- -- ----- -- ------ - ------- --- ----------<br>------------- ------ ------ ---- ---- ------- ----- -- ----<br>-------- ------- -- ---------- --- - --- ----- ----- ----<br>---- --- --- ----- --- feel ---- ------- ----- ---- -------<br>--- --- -- ----- -- --- ---- -- --- ---- -- ------ ------<br>--- ----- -- ----,62605.800000071526,62605.10000002384,62563.897,62558.800000071526,62580.619,62613.915,,33,feel
screen,html.Screen,2_1_0_1_34,2022-03-21T20:51:46.483Z,,,,,,,,,,,,,,,,,53,,,,,,,,,,,,,22.3850000715247,,response,,,99,,,,Space,keypress(Space),,,,,,,,---- -- ----- -- ------ - ------- --- ----------<br>------------- ------ ------ ---- ---- ------- ----- -- ----<br>-------- ------- -- ---------- --- - --- ----- ----- ----<br>---- --- --- ----- --- ---- that ------- ----- ---- -------<br>--- --- -- ----- -- --- ---- -- --- ---- -- ------ ------<br>--- ----- -- ----,62637,62636.300000071526,62597.268,62606,62613.915,62647.283,,34,that
screen,html.Screen,2_1_0_1_35,2022-03-21T20:51:46.515Z,,,,,,,,,,,,,,,,,53,,,,,,,,,,,,,20.41700004768063,,response,,,99,,,,Space,keypress(Space),,,,,,,,---- -- ----- -- ------ - ------- --- ----------<br>------------- ------ ------ ---- ---- ------- ----- -- ----<br>-------- ------- -- ---------- --- - --- ----- ----- ----<br>---- --- --- ----- --- ---- ---- matters ----- ---- -------<br>--- --- -- ----- -- --- ---- -- --- ---- -- ------ ------<br>--- ----- -- ----,62668.300000071526,62667.700000047684,62630.625,62637.200000047684,62647.283,62680.706,,35,matters
screen,html.Screen,2_1_0_1_36,2022-03-21T20:51:46.545Z,,,,,,,,,,,,,,,,,53,,,,,,,,,,,,,17.09400007152726,,response,,,99,,,,Space,keypress(Space),,,,,,,,"---- -- ----- -- ------ - ------- --- ----------<br>------------- ------ ------ ---- ---- ------- ----- -- ----<br>-------- ------- -- ---------- --- - --- ----- ----- ----<br>---- --- --- ----- --- ---- ---- ------- most, ---- -------<br>--- --- -- ----- -- --- ---- -- --- ---- -- ------ ------<br>--- ----- -- ----",62698.40000009537,62697.800000071526,62663.992,62668.40000009537,62680.706,62714.062,,36,"most,"
screen,html.Screen,2_1_0_1_37,2022-03-21T20:51:46.575Z,,,,,,,,,,,,,,,,,53,,,,,,,,,,,,,13.93800000000192,,response,,,99,,,,Space,keypress(Space),,,,,,,,---- -- ----- -- ------ - ------- --- ----------<br>------------- ------ ------ ---- ---- ------- ----- -- ----<br>-------- ------- -- ---------- --- - --- ----- ----- ----<br>---- --- --- ----- --- ---- ---- ------- ----- it's -------<br>--- --- -- ----- -- --- ---- -- --- ---- -- ------ ------<br>--- ----- -- ----,62728.60000002384,62728,62697.347,62698.700000047684,62714.062,62747.372,,37,it's
screen,html.Screen,2_1_0_1_38,2022-03-21T20:51:46.606Z,,,,,,,,,,,,,,,,,53,,,,,,,,,,,,,11.627999999996973,,response,,,99,,,,Space,keypress(Space),,,,,,,,---- -- ----- -- ------ - ------- --- ----------<br>------------- ------ ------ ---- ---- ------- ----- -- ----<br>-------- ------- -- ---------- --- - --- ----- ----- ----<br>---- --- --- ----- --- ---- ---- ------- ----- ---- whether<br>--- --- -- ----- -- --- ---- -- --- ---- -- ------ ------<br>--- ----- -- ----,62759.700000047684,62759,62730.698,62728.800000071526,62747.372,62780.719,,38,whether
screen,html.Screen,2_1_0_1_39,2022-03-21T20:51:46.637Z,,,,,,,,,,,,,,,,,53,,,,,,,,,,,,,9.281000000002678,,response,,,99,,,,Space,keypress(Space),,,,,,,,---- -- ----- -- ------ - ------- --- ----------<br>------------- ------ ------ ---- ---- ------- ----- -- ----<br>-------- ------- -- ---------- --- - --- ----- ----- ----<br>---- --- --- ----- --- ---- ---- ------- ----- ---- -------<br>you --- -- ----- -- --- ---- -- --- ---- -- ------ ------<br>--- ----- -- ----,62790.60000002384,62790,62764.066,62759.90000009537,62780.719,62814.138,,39,you
screen,html.Screen,2_1_0_1_40,2022-03-21T20:51:46.684Z,,,,,,,,,,,,,,,,,53,,,,,,,,,,,,,23.062000047684705,,response,,,99,,,,Space,keypress(Space),,,,,,,,---- -- ----- -- ------ - ------- --- ----------<br>------------- ------ ------ ---- ---- ------- ----- -- ----<br>-------- ------- -- ---------- --- - --- ----- ----- ----<br>---- --- --- ----- --- ---- ---- ------- ----- ---- -------<br>--- are -- ----- -- --- ---- -- --- ---- -- ------ ------<br>--- ----- -- ----,62837.90000009537,62837.200000047684,62797.386,62790.90000009537,62814.138,62847.458,,40,are
screen,html.Screen,2_1_0_1_41,2022-03-21T20:51:46.715Z,,,,,,,,,,,,,,,,,53,,,,,,,,,,,,,20.442000095368712,,response,,,99,,,,Space,keypress(Space),,,,,,,,---- -- ----- -- ------ - ------- --- ----------<br>------------- ------ ------ ---- ---- ------- ----- -- ----<br>-------- ------- -- ---------- --- - --- ----- ----- ----<br>---- --- --- ----- --- ---- ---- ------- ----- ---- -------<br>--- --- as ----- -- --- ---- -- --- ---- -- ------ ------<br>--- ----- -- ----,62868.60000002384,62867.90000009537,62830.776,62838,62847.458,62880.798,,41,as
screen,html.Screen,2_1_0_1_42,2022-03-21T20:51:46.745Z,,,,,,,,,,,,,,,,,53,,,,,,,,,,,,,17.50200007152307,,response,,,99,,,,Space,keypress(Space),,,,,,,,---- -- ----- -- ------ - ------- --- ----------<br>------------- ------ ------ ---- ---- ------- ----- -- ----<br>-------- ------- -- ---------- --- - --- ----- ----- ----<br>---- --- --- ----- --- ---- ---- ------- ----- ---- -------<br>--- --- -- close -- --- ---- -- --- ---- -- ------ ------<br>--- ----- -- ----,62898.800000071526,62898.300000071526,62864.145,62868.700000047684,62880.798,62914.168,,42,close
screen,html.Screen,2_1_0_1_43,2022-03-21T20:51:46.776Z,,,,,,,,,,,,,,,,,53,,,,,,,,,,,,,14.932000023844012,,response,,,99,,,,Space,keypress(Space),,,,,,,,---- -- ----- -- ------ - ------- --- ----------<br>------------- ------ ------ ---- ---- ------- ----- -- ----<br>-------- ------- -- ---------- --- - --- ----- ----- ----<br>---- --- --- ----- --- ---- ---- ------- ----- ---- -------<br>--- --- -- ----- as --- ---- -- --- ---- -- ------ ------<br>--- ----- -- ----,62929.800000071526,62929.10000002384,62897.469,62899,62914.168,62947.527,,43,as
screen,html.Screen,2_1_0_1_44,2022-03-21T20:51:46.807Z,,,,,,,,,,,,,,,,,53,,,,,,,,,,,,,12.673000047681853,,response,,,99,,,,Space,keypress(Space),,,,,,,,---- -- ----- -- ------ - ------- --- ----------<br>------------- ------ ------ ---- ---- ------- ----- -- ----<br>-------- ------- -- ---------- --- - --- ----- ----- ----<br>---- --- --- ----- --- ---- ---- ------- ----- ---- -------<br>--- --- -- ----- -- you ---- -- --- ---- -- ------ ------<br>--- ----- -- ----,62960.90000009537,62960.200000047684,62930.817,62930,62947.527,62980.941,,44,you
screen,html.Screen,2_1_0_1_45,2022-03-21T20:51:46.839Z,,,,,,,,,,,,,,,,,53,,,,,,,,,,,,,11.259000047684822,,response,,,99,,,,Space,keypress(Space),,,,,,,,---- -- ----- -- ------ - ------- --- ----------<br>------------- ------ ------ ---- ---- ------- ----- -- ----<br>-------- ------- -- ---------- --- - --- ----- ----- ----<br>---- --- --- ----- --- ---- ---- ------- ----- ---- -------<br>--- --- -- ----- -- --- want -- --- ---- -- ------ ------<br>--- ----- -- ----,62992.800000071526,62992.200000047684,62964.219,62961.10000002384,62980.941,63014.308,,45,want
screen,html.Screen,2_1_0_1_46,2022-03-21T20:51:46.870Z,,,,,,,,,,,,,,,,,53,,,,,,,,,,,,,9.092000095370167,,response,,,99,,,,Space,keypress(Space),,,,,,,,---- -- ----- -- ------ - ------- --- ----------<br>------------- ------ ------ ---- ---- ------- ----- -- ----<br>-------- ------- -- ---------- --- - --- ----- ----- ----<br>---- --- --- ----- --- ---- ---- ------- ----- ---- -------<br>--- --- -- ----- -- --- ---- to --- ---- -- ------ ------<br>--- ----- -- ----,63023.90000009537,63023.40000009537,62997.542,62993,63014.308,63047.552,,46,to
screen,html.Screen,2_1_0_1_47,2022-03-21T20:51:46.901Z,,,,,,,,,,,,,,,,,53,,,,,,,,,,,,,6.148000047680398,,response,,,99,,,,Space,keypress(Space),,,,,,,,"---- -- ----- -- ------ - ------- --- ----------<br>------------- ------ ------ ---- ---- ------- ----- -- ----<br>-------- ------- -- ---------- --- - --- ----- ----- ----<br>---- --- --- ----- --- ---- ---- ------- ----- ---- -------<br>--- --- -- ----- -- --- ---- -- be, ---- -- ------ ------<br>--- ----- -- ----",63054.200000047684,63053.700000047684,63030.943,63024.10000002384,63047.552,63081.026,,47,"be,"
screen,html.Screen,2_1_0_1_48,2022-03-21T20:51:46.946Z,,,,,,,,,,,,,,,,,53,,,,,,,,,,,,,18.074000023843837,,response,,,99,,,,Space,keypress(Space),,,,,,,,---- -- ----- -- ------ - ------- --- ----------<br>------------- ------ ------ ---- ---- ------- ----- -- ----<br>-------- ------- -- ---------- --- - --- ----- ----- ----<br>---- --- --- ----- --- ---- ---- ------- ----- ---- -------<br>--- --- -- ----- -- --- ---- -- --- even -- ------ ------<br>--- ----- -- ----,63099.700000047684,63099.10000002384,63064.309,63054.5,63081.026,63114.385,,48,even
screen,html.Screen,2_1_0_1_49,2022-03-21T20:51:46.976Z,,,,,,,,,,,,,,,,,53,,,,,,,,,,,,,14.915000071523536,,response,,,99,,,,Space,keypress(Space),,,,,,,,---- -- ----- -- ------ - ------- --- ----------<br>------------- ------ ------ ---- ---- ------- ----- -- ----<br>-------- ------- -- ---------- --- - --- ----- ----- ----<br>---- --- --- ----- --- ---- ---- ------- ----- ---- -------<br>--- --- -- ----- -- --- ---- -- --- ---- if ------ ------<br>--- ----- -- ----,63130,63129.300000071526,63097.621,63099.90000009537,63114.385,63147.713,,49,if
screen,html.Screen,2_1_0_1_50,2022-03-21T20:51:47.007Z,,,,,,,,,,,,,,,,,53,,,,,,,,,,,,,12.286999999996624,,response,,,99,,,,Space,keypress(Space),,,,,,,,---- -- ----- -- ------ - ------- --- ----------<br>------------- ------ ------ ---- ---- ------- ----- -- ----<br>-------- ------- -- ---------- --- - --- ----- ----- ----<br>---- --- --- ----- --- ---- ---- ------- ----- ---- -------<br>--- --- -- ----- -- --- ---- -- --- ---- -- that's ------<br>--- ----- -- ----,63160.700000047684,63160,63130.983,63130.200000047684,63147.713,63181.077,,50,that's
screen,html.Screen,2_1_0_1_51,2022-03-21T20:51:47.038Z,,,,,,,,,,,,,,,,,53,,,,,,,,,,,,,9.823000095369935,,response,,,99,,,,Space,keypress(Space),,,,,,,,---- -- ----- -- ------ - ------- --- ----------<br>------------- ------ ------ ---- ---- ------- ----- -- ----<br>-------- ------- -- ---------- --- - --- ----- ----- ----<br>---- --- --- ----- --- ---- ---- ------- ----- ---- -------<br>--- --- -- ----- -- --- ---- -- --- ---- -- ------ really<br>--- ----- -- ----,63191.700000047684,63190.90000009537,63164.381,63160.90000009537,63181.077,63214.455,,51,really
screen,html.Screen,2_1_0_1_52,2022-03-21T20:51:47.069Z,,,,,,,,,,,,,,,,,53,,,,,,,,,,,,,7.8450000715238275,,response,,,99,,,,Space,keypress(Space),,,,,,,,---- -- ----- -- ------ - ------- --- ----------<br>------------- ------ ------ ---- ---- ------- ----- -- ----<br>-------- ------- -- ---------- --- - --- ----- ----- ----<br>---- --- --- ----- --- ---- ---- ------- ----- ---- -------<br>--- --- -- ----- -- --- ---- -- --- ---- -- ------ ------<br>not ----- -- ----,63223,63222.300000071526,63197.742,63192,63214.455,63247.771,,52,not
screen,html.Screen,2_1_0_1_53,2022-03-21T20:51:47.100Z,,,,,,,,,,,,,,,,,53,,,,,,,,,,,,,5.72899999999936,,response,,,99,,,,Space,keypress(Space),,,,,,,,---- -- ----- -- ------ - ------- --- ----------<br>------------- ------ ------ ---- ---- ------- ----- -- ----<br>-------- ------- -- ---------- --- - --- ----- ----- ----<br>---- --- --- ----- --- ---- ---- ------- ----- ---- -------<br>--- --- -- ----- -- --- ---- -- --- ---- -- ------ ------<br>--- close -- ----,63254.10000002384,63253.5,63231.105,63223.200000047684,63247.771,63281.132,,53,close
screen,html.Screen,2_1_0_1_54,2022-03-21T20:51:47.132Z,,,,,,,,,,,,,,,,,53,,,,,,,,,,,,,3.5680000476859277,,response,,,99,,,,Space,keypress(Space),,,,,,,,---- -- ----- -- ------ - ------- --- ----------<br>------------- ------ ------ ---- ---- ------- ----- -- ----<br>-------- ------- -- ---------- --- - --- ----- ----- ----<br>---- --- --- ----- --- ---- ---- ------- ----- ---- -------<br>--- --- -- ----- -- --- ---- -- --- ---- -- ------ ------<br>--- ----- at ----,63285.40000009537,63284.700000047684,63264.425,63254.300000071526,63281.132,63314.551,,54,at
screen,html.Screen,2_1_0_1_55,2022-03-21T20:51:47.975Z,,,,,,,,,,,,,,,,,53,,,,,,,,,,,,,813.849000095368,,response,,,99,,,,Space,keypress(Space),,,,,,,,---- -- ----- -- ------ - ------- --- ----------<br>------------- ------ ------ ---- ---- ------- ----- -- ----<br>-------- ------- -- ---------- --- - --- ----- ----- ----<br>---- --- --- ----- --- ---- ---- ------- ----- ---- -------<br>--- --- -- ----- -- --- ---- -- --- ---- -- ------ ------<br>--- ----- -- all.,64129.200000047684,64128.40000009537,63297.821,63285.700000047684,63314.551,64131.783,,55,all.
Item 99,flow.Loop,2_1_0_1,2022-03-21T20:51:47.976Z,,,,,,,,,,,,,,,,,,,,,,,,,,,,,,3499.4920000953643,,completion,,,,E,,,,,,,,silence,,,,,64129.60000002384,64128.40000009537,60612.321,60613.300000071526,60628.908,64131.783,,,
Question 1,html.Screen,2_1_0_2,2022-03-21T20:51:49.661Z,,,,,,,,,,,,,,,,,,,,,,,,,,,,false,FALSE,1682.5170000715225,,response,,,99,E,,,TRUE,click #choice-1,,,,silence,,,,,65815.10000002384,65814.30000007153,64115.139,64129.700000047684,64131.783,65816.465,,,
Question 2,html.Screen,2_1_0_3,2022-03-21T20:51:50.445Z,,,,,,,,,,,,,,,,,,,,,,,,,,,,false,TRUE,781.9350000953709,,response,,,99,E,,,FALSE,click #choice-2,,,,silence,,,,,66599,66598.40000009537,65799.843,65816.20000004768,65816.465,66600.472,,,
Item 99,flow.Sequence,2_1_0,2022-03-21T20:51:50.446Z,,,,,,,,,,,,,,,,,,,,,,,,,,,,,,15977.493000095368,,completion,,,,,,,,,,,,,,,,,66599.20000004768,66598.40000009537,50604.251,50615.800000071526,50620.907,66600.472,,,
Holding screen,html.Screen,2_1_1_0,2022-03-21T20:52:00.439Z,,,,,,,,,,,,,,,,,,,,,,,,,,,,,,10007.964000000007,,timeout,,,,,,,,,,,,,,,,,76592.40000009537,76591.863,66583.808,66599.30000007153,66600.472,76608.436,,,
screen,html.Screen,2_1_1_1_0,2022-03-21T20:52:00.888Z,,,,,,,,,,,,,,,,,54,,,,,,,,,,,,,432.4640000953659,,response,,,100,,,,Space,keypress(Space),,,,,,,,At --- ---- --- ------ ----- ------- ---- -- --- ------- --<br>------- ---------- ------ -- ----- -- ----- -- ---- ------<br>--- ----- --- --- ------ -------- ----- --- ------ ----- --<br>----- ----- ---------- --- --- ------ ------ ---- -- ------<br>------- --- ------ ----- --- ---- ------- -- ---- --- --<br>------- ------,77041.60000002384,77040.90000009537,76591.863,76592.70000004768,76608.436,77042.19,,0,At
screen,html.Screen,2_1_1_1_1,2022-03-21T20:52:01.393Z,,,,,,,,,,,,,,,,,54,,,,,,,,,,,,,504.11000007152325,,response,,,100,,,,Space,keypress(Space),,,,,,,,-- the ---- --- ------ ----- ------- ---- -- --- ------- --<br>------- ---------- ------ -- ----- -- ----- -- ---- ------<br>--- ----- --- --- ------ -------- ----- --- ------ ----- --<br>----- ----- ---------- --- --- ------ ------ ---- -- ------<br>------- --- ------ ----- --- ---- ------- -- ---- --- --<br>------- ------,77547,77546.30000007153,77025.545,77041.80000007153,77042.19,77559.255,,1,the
screen,html.Screen,2_1_1_1_2,2022-03-21T20:52:01.424Z,,,,,,,,,,,,,,,,,54,,,,,,,,,,,,,17.94500004767906,,response,,,100,,,,Space,keypress(Space),,,,,,,,-- --- time --- ------ ----- ------- ---- -- --- ------- --<br>------- ---------- ------ -- ----- -- ----- -- ---- ------<br>--- ----- --- --- ------ -------- ----- --- ------ ----- --<br>----- ----- ---------- --- --- ------ ------ ---- -- ------<br>------- --- ------ ----- --- ---- ------- -- ---- --- --<br>------- ------,77577.80000007153,77577.20000004768,77542.644,77547.20000004768,77559.255,77592.728,,2,time
screen,html.Screen,2_1_1_1_3,2022-03-21T20:52:01.456Z,,,,,,,,,,,,,,,,,54,,,,,,,,,,,,,16.271999999997206,,response,,,100,,,,Space,keypress(Space),,,,,,,,-- --- ---- the ------ ----- ------- ---- -- --- ------- --<br>------- ---------- ------ -- ----- -- ----- -- ---- ------<br>--- ----- --- --- ------ -------- ----- --- ------ ----- --<br>----- ----- ---------- --- --- ------ ------ ---- -- ------<br>------- --- ------ ----- --- ---- ------- -- ---- --- --<br>------- ------,77609.60000002384,77609,77576.007,77578,77592.728,77626.063,,3,the
screen,html.Screen,2_1_1_1_4,2022-03-21T20:52:01.488Z,,,,,,,,,,,,,,,,,54,,,,,,,,,,,,,14.837000095372787,,response,,,100,,,,Space,keypress(Space),,,,,,,,-- --- ---- --- French ----- ------- ---- -- --- ------- --<br>------- ---------- ------ -- ----- -- ----- -- ---- ------<br>--- ----- --- --- ------ -------- ----- --- ------ ----- --<br>----- ----- ---------- --- --- ------ ------ ---- -- ------<br>------- --- ------ ----- --- ---- ------- -- ---- --- --<br>------- ------,77641.5,77640.90000009537,77609.313,77609.80000007153,77626.063,77659.437,,4,French
screen,html.Screen,2_1_1_1_5,2022-03-21T20:52:01.535Z,,,,,,,,,,,,,,,,,54,,,,,,,,,,,,,28.463000095362077,,response,,,100,,,,Space,keypress(Space),,,,,,,,-- --- ---- --- ------ crown ------- ---- -- --- ------- --<br>------- ---------- ------ -- ----- -- ----- -- ---- ------<br>--- ----- --- --- ------ -------- ----- --- ------ ----- --<br>----- ----- ---------- --- --- ------ ------ ---- -- ------<br>------- --- ------ ----- --- ---- ------- -- ---- --- --<br>------- ------,77688.5,77687.90000009537,77642.671,77641.60000002384,77659.437,77692.765,,5,crown
screen,html.Screen,2_1_1_1_6,2022-03-21T20:52:01.567Z,,,,,,,,,,,,,,,,,54,,,,,,,,,,,,,26.83500002384244,,response,,,100,,,,Space,keypress(Space),,,,,,,,-- --- ---- --- ------ ----- secured ---- -- --- ------- --<br>------- ---------- ------ -- ----- -- ----- -- ---- ------<br>--- ----- --- --- ------ -------- ----- --- ------ ----- --<br>----- ----- ---------- --- --- ------ ------ ---- -- ------<br>------- --- ------ ----- --- ---- ------- -- ---- --- --<br>------- ------,77720.20000004768,77719.60000002384,77676.078,77688.80000007153,77692.765,77725.999,,6,secured
screen,html.Screen,2_1_1_1_7,2022-03-21T20:52:01.597Z,,,,,,,,,,,,,,,,,54,,,,,,,,,,,,,23.801000071529415,,response,,,100,,,,Space,keypress(Space),,,,,,,,-- --- ---- --- ------ ----- ------- much -- --- ------- --<br>------- ---------- ------ -- ----- -- ----- -- ---- ------<br>--- ----- --- --- ------ -------- ----- --- ------ ----- --<br>----- ----- ---------- --- --- ------ ------ ---- -- ------<br>------- --- ------ ----- --- ---- ------- -- ---- --- --<br>------- ------,77750.40000009537,77749.80000007153,77709.486,77720.40000009537,77725.999,77759.385,,7,much
screen,html.Screen,2_1_1_1_8,2022-03-21T20:52:01.628Z,,,,,,,,,,,,,,,,,54,,,,,,,,,,,,,22.01500009537267,,response,,,100,,,,Space,keypress(Space),,,,,,,,-- --- ---- --- ------ ----- ------- ---- of --- ------- --<br>------- ---------- ------ -- ----- -- ----- -- ---- ------<br>--- ----- --- --- ------ -------- ----- --- ------ ----- --<br>----- ----- ---------- --- --- ------ ------ ---- -- ------<br>------- --- ------ ----- --- ---- ------- -- ---- --- --<br>------- ------,77781.90000009537,77781.40000009537,77742.828,77750.60000002384,77759.385,77792.779,,8,of
screen,html.Screen,2_1_1_1_9,2022-03-21T20:52:01.659Z,,,,,,,,,,,,,,,,,54,,,,,,,,,,,,,19.52100007153058,,response,,,100,,,,Space,keypress(Space),,,,,,,,-- --- ---- --- ------ ----- ------- ---- -- its ------- --<br>------- ---------- ------ -- ----- -- ----- -- ---- ------<br>--- ----- --- --- ------ -------- ----- --- ------ ----- --<br>----- ----- ---------- --- --- ------ ------ ---- -- ------<br>------- --- ------ ----- --- ---- ------- -- ---- --- --<br>------- ------,77812.90000009537,77812.30000007153,77776.155,77782.10000002384,77792.779,77826.232,,9,its
screen,html.Screen,2_1_1_1_10,2022-03-21T20:52:01.690Z,,,,,,,,,,,,,,,,,54,,,,,,,,,,,,,17.068000071521965,,response,,,100,,,,Space,keypress(Space),,,,,,,,-- --- ---- --- ------ ----- ------- ---- -- --- revenue --<br>------- ---------- ------ -- ----- -- ----- -- ---- ------<br>--- ----- --- --- ------ -------- ----- --- ------ ----- --<br>----- ----- ---------- --- --- ------ ------ ---- -- ------<br>------- --- ------ ----- --- ---- ------- -- ---- --- --<br>------- ------,77843.80000007153,77843.30000007153,77809.521,77813.10000002384,77826.232,77859.524,,10,revenue
screen,html.Screen,2_1_1_1_11,2022-03-21T20:52:01.722Z,,,,,,,,,,,,,,,,,54,,,,,,,,,,,,,15.47599999999511,,response,,,100,,,,Space,keypress(Space),,,,,,,,-- --- ---- --- ------ ----- ------- ---- -- --- ------- by<br>------- ---------- ------ -- ----- -- ----- -- ---- ------<br>--- ----- --- --- ------ -------- ----- --- ------ ----- --<br>----- ----- ---------- --- --- ------ ------ ---- -- ------<br>------- --- ------ ----- --- ---- ------- -- ---- --- --<br>------- ------,77875.5,77875,77842.831,77844,77859.524,77892.954,,11,by
screen,html.Screen,2_1_1_1_12,2022-03-21T20:52:01.753Z,,,,,,,,,,,,,,,,,54,,,,,,,,,,,,,12.84600007152767,,response,,,100,,,,Space,keypress(Space),,,,,,,,-- --- ---- --- ------ ----- ------- ---- -- --- ------- --<br>issuing ---------- ------ -- ----- -- ----- -- ---- ------<br>--- ----- --- --- ------ -------- ----- --- ------ ----- --<br>----- ----- ---------- --- --- ------ ------ ---- -- ------<br>------- --- ------ ----- --- ---- ------- -- ---- --- --<br>------- ------,77906.5,77905.80000007153,77876.199,77875.80000007153,77892.954,77926.309,,12,issuing
screen,html.Screen,2_1_1_1_13,2022-03-21T20:52:01.785Z,,,,,,,,,,,,,,,,,54,,,,,,,,,,,,,11.591000095373602,,response,,,100,,,,Space,keypress(Space),,,,,,,,-- --- ---- --- ------ ----- ------- ---- -- --- ------- --<br>------- government ------ -- ----- -- ----- -- ---- ------<br>--- ----- --- --- ------ -------- ----- --- ------ ----- --<br>----- ----- ---------- --- --- ------ ------ ---- -- ------<br>------- --- ------ ----- --- ---- ------- -- ---- --- --<br>------- ------,77938.5,77937.90000009537,77909.612,77906.60000002384,77926.309,77959.663,,13,government
screen,html.Screen,2_1_1_1_14,2022-03-21T20:52:01.816Z,,,,,,,,,,,,,,,,,54,,,,,,,,,,,,,9.937000023841392,,response,,,100,,,,Space,keypress(Space),,,,,,,,-- --- ---- --- ------ ----- ------- ---- -- --- ------- --<br>------- ---------- bonds. -- ----- -- ----- -- ---- ------<br>--- ----- --- --- ------ -------- ----- --- ------ ----- --<br>----- ----- ---------- --- --- ------ ------ ---- -- ------<br>------- --- ------ ----- --- ---- ------- -- ---- --- --<br>------- ------,77970.20000004768,77969.60000002384,77942.96,77938.70000004768,77959.663,77993.027,,14,bonds.
screen,html.Screen,2_1_1_1_15,2022-03-21T20:52:01.862Z,,,,,,,,,,,,,,,,,54,,,,,,,,,,,,,22.37300009536557,,response,,,100,,,,Space,keypress(Space),,,,,,,,-- --- ---- --- ------ ----- ------- ---- -- --- ------- --<br>------- ---------- ------ In ----- -- ----- -- ---- ------<br>--- ----- --- --- ------ -------- ----- --- ------ ----- --<br>----- ----- ---------- --- --- ------ ------ ---- -- ------<br>------- --- ------ ----- --- ---- ------- -- ---- --- --<br>------- ------,78016,78015.40000009537,77976.307,77970.30000007153,77993.027,78026.342,,15,In
screen,html.Screen,2_1_1_1_16,2022-03-21T20:52:01.894Z,,,,,,,,,,,,,,,,,54,,,,,,,,,,,,,20.958000071521383,,response,,,100,,,,Space,keypress(Space),,,,,,,,"-- --- ---- --- ------ ----- ------- ---- -- --- ------- --<br>------- ---------- ------ -- 1727, -- ----- -- ---- ------<br>--- ----- --- --- ------ -------- ----- --- ------ ----- --<br>----- ----- ---------- --- --- ------ ------ ---- -- ------<br>------- --- ------ ----- --- ---- ------- -- ---- --- --<br>------- ------",78047.90000009537,78047.30000007153,78009.692,78016.20000004768,78026.342,78059.76,,16,"1727,"
screen,html.Screen,2_1_1_1_17,2022-03-21T20:52:01.926Z,,,,,,,,,,,,,,,,,54,,,,,,,,,,,,,19.340000023847097,,response,,,100,,,,Space,keypress(Space),,,,,,,,-- --- ---- --- ------ ----- ------- ---- -- --- ------- --<br>------- ---------- ------ -- ----- in ----- -- ---- ------<br>--- ----- --- --- ------ -------- ----- --- ------ ----- --<br>----- ----- ---------- --- --- ------ ------ ---- -- ------<br>------- --- ------ ----- --- ---- ------- -- ---- --- --<br>------- ------,78079.70000004768,78079.10000002384,78043.037,78048,78059.76,78093.006,,17,in
screen,html.Screen,2_1_1_1_18,2022-03-21T20:52:01.957Z,,,,,,,,,,,,,,,,,54,,,,,,,,,,,,,16.994000000006054,,response,,,100,,,,Space,keypress(Space),,,,,,,,-- --- ---- --- ------ ----- ------- ---- -- --- ------- --<br>------- ---------- ------ -- ----- -- order -- ---- ------<br>--- ----- --- --- ------ -------- ----- --- ------ ----- --<br>----- ----- ---------- --- --- ------ ------ ---- -- ------<br>------- --- ------ ----- --- ---- ------- -- ---- --- --<br>------- ------,78110.60000002384,78110,78076.403,78079.80000007153,78093.006,78126.442,,18,order
screen,html.Screen,2_1_1_1_19,2022-03-21T20:52:01.989Z,,,,,,,,,,,,,,,,,54,,,,,,,,,,,,,15.55800000000454,,response,,,100,,,,Space,keypress(Space),,,,,,,,-- --- ---- --- ------ ----- ------- ---- -- --- ------- --<br>------- ---------- ------ -- ----- -- ----- to ---- ------<br>--- ----- --- --- ------ -------- ----- --- ------ ----- --<br>----- ----- ---------- --- --- ------ ------ ---- -- ------<br>------- --- ------ ----- --- ---- ------- -- ---- --- --<br>------- ------,78142.60000002384,78142,78109.728,78110.70000004768,78126.442,78159.835,,19,to
screen,html.Screen,2_1_1_1_20,2022-03-21T20:52:02.021Z,,,,,,,,,,,,,,,,,54,,,,,,,,,,,,,13.765000023835455,,response,,,100,,,,Space,keypress(Space),,,,,,,,-- --- ---- --- ------ ----- ------- ---- -- --- ------- --<br>------- ---------- ------ -- ----- -- ----- -- save ------<br>--- ----- --- --- ------ -------- ----- --- ------ ----- --<br>----- ----- ---------- --- --- ------ ------ ---- -- ------<br>------- --- ------ ----- --- ---- ------- -- ---- --- --<br>------- ------,78174.30000007153,78173.60000002384,78143.132,78142.70000004768,78159.835,78193.185,,20,save
screen,html.Screen,2_1_1_1_21,2022-03-21T20:52:02.051Z,,,,,,,,,,,,,,,,,54,,,,,,,,,,,,,11.315000000002328,,response,,,100,,,,Space,keypress(Space),,,,,,,,"-- --- ---- --- ------ ----- ------- ---- -- --- ------- --<br>------- ---------- ------ -- ----- -- ----- -- ---- money,<br>--- ----- --- --- ------ -------- ----- --- ------ ----- --<br>----- ----- ---------- --- --- ------ ------ ---- -- ------<br>------- --- ------ ----- --- ---- ------- -- ---- --- --<br>------- ------",78205.20000004768,78204.5,78176.453,78174.5,78193.185,78226.543,,21,"money,"
screen,html.Screen,2_1_1_1_22,2022-03-21T20:52:02.083Z,,,,,,,,,,,,,,,,,54,,,,,,,,,,,,,9.85700009536231,,response,,,100,,,,Space,keypress(Space),,,,,,,,-- --- ---- --- ------ ----- ------- ---- -- --- ------- --<br>------- ---------- ------ -- ----- -- ----- -- ---- ------<br>the ----- --- --- ------ -------- ----- --- ------ ----- --<br>----- ----- ---------- --- --- ------ ------ ---- -- ------<br>------- --- ------ ----- --- ---- ------- -- ---- --- --<br>------- ------,78237,78236.40000009537,78209.836,78205.30000007153,78226.543,78259.915,,22,the
screen,html.Screen,2_1_1_1_23,2022-03-21T20:52:02.115Z,,,,,,,,,,,,,,,,,54,,,,,,,,,,,,,8.285000047690119,,response,,,100,,,,Space,keypress(Space),,,,,,,,-- --- ---- --- ------ ----- ------- ---- -- --- ------- --<br>------- ---------- ------ -- ----- -- ----- -- ---- ------<br>--- state --- --- ------ -------- ----- --- ------ ----- --<br>----- ----- ---------- --- --- ------ ------ ---- -- ------<br>------- --- ------ ----- --- ---- ------- -- ---- --- --<br>------- ------,78268.90000009537,78268.20000004768,78243.2,78237.10000002384,78259.915,78293.279,,23,state
screen,html.Screen,2_1_1_1_24,2022-03-21T20:52:02.161Z,,,,,,,,,,,,,,,,,54,,,,,,,,,,,,,21.02100007153058,,response,,,100,,,,Space,keypress(Space),,,,,,,,-- --- ---- --- ------ ----- ------- ---- -- --- ------- --<br>------- ---------- ------ -- ----- -- ----- -- ---- ------<br>--- ----- cut --- ------ -------- ----- --- ------ ----- --<br>----- ----- ---------- --- --- ------ ------ ---- -- ------<br>------- --- ------ ----- --- ---- ------- -- ---- --- --<br>------- ------,78314.90000009537,78314.30000007153,78276.567,78269.10000002384,78293.279,78326.642,,24,cut
screen,html.Screen,2_1_1_1_25,2022-03-21T20:52:02.193Z,,,,,,,,,,,,,,,,,54,,,,,,,,,,,,,19.25800009536033,,response,,,100,,,,Space,keypress(Space),,,,,,,,-- --- ---- --- ------ ----- ------- ---- -- --- ------- --<br>------- ---------- ------ -- ----- -- ----- -- ---- ------<br>--- ----- --- the ------ -------- ----- --- ------ ----- --<br>----- ----- ---------- --- --- ------ ------ ---- -- ------<br>------- --- ------ ----- --- ---- ------- -- ---- --- --<br>------- ------,78346.5,78345.90000009537,78309.93,78315.10000002384,78326.642,78359.907,,25,the
screen,html.Screen,2_1_1_1_26,2022-03-21T20:52:02.225Z,,,,,,,,,,,,,,,,,54,,,,,,,,,,,,,17.893000071519054,,response,,,100,,,,Space,keypress(Space),,,,,,,,-- --- ---- --- ------ ----- ------- ---- -- --- ------- --<br>------- ---------- ------ -- ----- -- ----- -- ---- ------<br>--- ----- --- --- bonds' -------- ----- --- ------ ----- --<br>----- ----- ---------- --- --- ------ ------ ---- -- ------<br>------- --- ------ ----- --- ---- ------- -- ---- --- --<br>------- ------,78378.40000009537,78377.80000007153,78343.292,78346.70000004768,78359.907,78393.352,,26,bonds'
screen,html.Screen,2_1_1_1_27,2022-03-21T20:52:02.257Z,,,,,,,,,,,,,,,,,54,,,,,,,,,,,,,16.44800007152662,,response,,,100,,,,Space,keypress(Space),,,,,,,,-- --- ---- --- ------ ----- ------- ---- -- --- ------- --<br>------- ---------- ------ -- ----- -- ----- -- ---- ------<br>--- ----- --- --- ------ interest ----- --- ------ ----- --<br>----- ----- ---------- --- --- ------ ------ ---- -- ------<br>------- --- ------ ----- --- ---- ------- -- ---- --- --<br>------- ------,78410.40000009537,78409.80000007153,78376.638,78378.60000002384,78393.352,78426.709,,27,interest
screen,html.Screen,2_1_1_1_28,2022-03-21T20:52:02.288Z,,,,,,,,,,,,,,,,,54,,,,,,,,,,,,,13.991000047681155,,response,,,100,,,,Space,keypress(Space),,,,,,,,-- --- ---- --- ------ ----- ------- ---- -- --- ------- --<br>------- ---------- ------ -- ----- -- ----- -- ---- ------<br>--- ----- --- --- ------ -------- rate. --- ------ ----- --<br>----- ----- ---------- --- --- ------ ------ ---- -- ------<br>------- --- ------ ----- --- ---- ------- -- ---- --- --<br>------- ------,78441.30000007153,78440.70000004768,78409.956,78410.60000002384,78426.709,78460.071,,28,rate.
screen,html.Screen,2_1_1_1_29,2022-03-21T20:52:02.319Z,,,,,,,,,,,,,,,,,54,,,,,,,,,,,,,12.429000000003725,,response,,,100,,,,Space,keypress(Space),,,,,,,,-- --- ---- --- ------ ----- ------- ---- -- --- ------- --<br>------- ---------- ------ -- ----- -- ----- -- ---- ------<br>--- ----- --- --- ------ -------- ----- The ------ ----- --<br>----- ----- ---------- --- --- ------ ------ ---- -- ------<br>------- --- ------ ----- --- ---- ------- -- ---- --- --<br>------- ------,78473,78472.5,78443.356,78441.5,78460.071,78493.447,,29,The
screen,html.Screen,2_1_1_1_30,2022-03-21T20:52:02.351Z,,,,,,,,,,,,,,,,,54,,,,,,,,,,,,,11.052999999999884,,response,,,100,,,,Space,keypress(Space),,,,,,,,-- --- ---- --- ------ ----- ------- ---- -- --- ------- --<br>------- ---------- ------ -- ----- -- ----- -- ---- ------<br>--- ----- --- --- ------ -------- ----- --- market ----- --<br>----- ----- ---------- --- --- ------ ------ ---- -- ------<br>------- --- ------ ----- --- ---- ------- -- ---- --- --<br>------- ------,78505.10000002384,78504.5,78476.721,78473.20000004768,78493.447,78526.753,,30,market
screen,html.Screen,2_1_1_1_31,2022-03-21T20:52:02.382Z,,,,,,,,,,,,,,,,,54,,,,,,,,,,,,,8.347000023844885,,response,,,100,,,,Space,keypress(Space),,,,,,,,-- --- ---- --- ------ ----- ------- ---- -- --- ------- --<br>------- ---------- ------ -- ----- -- ----- -- ---- ------<br>--- ----- --- --- ------ -------- ----- --- ------ value --<br>----- ----- ---------- --- --- ------ ------ ---- -- ------<br>------- --- ------ ----- --- ---- ------- -- ---- --- --<br>------- ------,78535.70000004768,78535.10000002384,78510.087,78505.30000007153,78526.753,78560.159,,31,value
screen,html.Screen,2_1_1_1_32,2022-03-21T20:52:02.414Z,,,,,,,,,,,,,,,,,54,,,,,,,,,,,,,6.941000023842207,,response,,,100,,,,Space,keypress(Space),,,,,,,,-- --- ---- --- ------ ----- ------- ---- -- --- ------- --<br>------- ---------- ------ -- ----- -- ----- -- ---- ------<br>--- ----- --- --- ------ -------- ----- --- ------ ----- of<br>----- ----- ---------- --- --- ------ ------ ---- -- ------<br>------- --- ------ ----- --- ---- ------- -- ---- --- --<br>------- ------,78567.80000007153,78567.10000002384,78543.469,78537.40000009537,78560.159,78593.494,,32,of
screen,html.Screen,2_1_1_1_33,2022-03-21T20:52:02.445Z,,,,,,,,,,,,,,,,,54,,,,,,,,,,,,,4.406000095361378,,response,,,100,,,,Space,keypress(Space),,,,,,,,-- --- ---- --- ------ ----- ------- ---- -- --- ------- --<br>------- ---------- ------ -- ----- -- ----- -- ---- ------<br>--- ----- --- --- ------ -------- ----- --- ------ ----- --<br>these ----- ---------- --- --- ------ ------ ---- -- ------<br>------- --- ------ ----- --- ---- ------- -- ---- --- --<br>------- ------,78598.40000009537,78597.90000009537,78576.812,78568.10000002384,78593.494,78626.88,,33,these
screen,html.Screen,2_1_1_1_34,2022-03-21T20:52:02.477Z,,,,,,,,,,,,,,,,,54,,,,,,,,,,,,,3.020000095362775,,response,,,100,,,,Space,keypress(Space),,,,,,,,-- --- ---- --- ------ ----- ------- ---- -- --- ------- --<br>------- ---------- ------ -- ----- -- ----- -- ---- ------<br>--- ----- --- --- ------ -------- ----- --- ------ ----- --<br>----- bonds ---------- --- --- ------ ------ ---- -- ------<br>------- --- ------ ----- --- ---- ------- -- ---- --- --<br>------- ------,78630.5,78629.90000009537,78610.164,78598.60000002384,78626.88,78660.25,,34,bonds
screen,html.Screen,2_1_1_1_35,2022-03-21T20:52:02.524Z,,,,,,,,,,,,,,,,,54,,,,,,,,,,,,,16.350000023841858,,response,,,100,,,,Space,keypress(Space),,,,,,,,"-- --- ---- --- ------ ----- ------- ---- -- --- ------- --<br>------- ---------- ------ -- ----- -- ----- -- ---- ------<br>--- ----- --- --- ------ -------- ----- --- ------ ----- --<br>----- ----- plummeted, --- --- ------ ------ ---- -- ------<br>------- --- ------ ----- --- ---- ------- -- ---- --- --<br>------- ------",78677.20000004768,78676.60000002384,78643.538,78630.70000004768,78660.25,78693.605,,35,"plummeted,"
screen,html.Screen,2_1_1_1_36,2022-03-21T20:52:02.555Z,,,,,,,,,,,,,,,,,54,,,,,,,,,,,,,14.695000071529648,,response,,,100,,,,Space,keypress(Space),,,,,,,,-- --- ---- --- ------ ----- ------- ---- -- --- ------- --<br>------- ---------- ------ -- ----- -- ----- -- ---- ------<br>--- ----- --- --- ------ -------- ----- --- ------ ----- --<br>----- ----- ---------- and --- ------ ------ ---- -- ------<br>------- --- ------ ----- --- ---- ------- -- ---- --- --<br>------- ------,78708.90000009537,78708.30000007153,78676.865,78677.40000009537,78693.605,78726.94,,36,and
screen,html.Screen,2_1_1_1_37,2022-03-21T20:52:02.587Z,,,,,,,,,,,,,,,,,54,,,,,,,,,,,,,13.360000071523245,,response,,,100,,,,Space,keypress(Space),,,,,,,,-- --- ---- --- ------ ----- ------- ---- -- --- ------- --<br>------- ---------- ------ -- ----- -- ----- -- ---- ------<br>--- ----- --- --- ------ -------- ----- --- ------ ----- --<br>----- ----- ---------- --- the ------ ------ ---- -- ------<br>------- --- ------ ----- --- ---- ------- -- ---- --- --<br>------- ------,78740.80000007153,78740.30000007153,78710.199,78709.10000002384,78726.94,78760.308,,37,the
screen,html.Screen,2_1_1_1_38,2022-03-21T20:52:02.618Z,,,,,,,,,,,,,,,,,54,,,,,,,,,,,,,10.792000023837318,,response,,,100,,,,Space,keypress(Space),,,,,,,,-- --- ---- --- ------ ----- ------- ---- -- --- ------- --<br>------- ---------- ------ -- ----- -- ----- -- ---- ------<br>--- ----- --- --- ------ -------- ----- --- ------ ----- --<br>----- ----- ---------- --- --- market ------ ---- -- ------<br>------- --- ------ ----- --- ---- ------- -- ---- --- --<br>------- ------,78771.70000004768,78771.10000002384,78743.563,78741.10000002384,78760.308,78793.658,,38,market
screen,html.Screen,2_1_1_1_39,2022-03-21T20:52:02.650Z,,,,,,,,,,,,,,,,,54,,,,,,,,,,,,,9.342000000004191,,response,,,100,,,,Space,keypress(Space),,,,,,,,-- --- ---- --- ------ ----- ------- ---- -- --- ------- --<br>------- ---------- ------ -- ----- -- ----- -- ---- ------<br>--- ----- --- --- ------ -------- ----- --- ------ ----- --<br>----- ----- ---------- --- --- ------ became ---- -- ------<br>------- --- ------ ----- --- ---- ------- -- ---- --- --<br>------- ------,78803.60000002384,78803,78776.957,78771.90000009537,78793.658,78827.022,,39,became
screen,html.Screen,2_1_1_1_40,2022-03-21T20:52:02.681Z,,,,,,,,,,,,,,,,,54,,,,,,,,,,,,,6.878000095370226,,response,,,100,,,,Space,keypress(Space),,,,,,,,-- --- ---- --- ------ ----- ------- ---- -- --- ------- --<br>------- ---------- ------ -- ----- -- ----- -- ---- ------<br>--- ----- --- --- ------ -------- ----- --- ------ ----- --<br>----- ----- ---------- --- --- ------ ------ wary -- ------<br>------- --- ------ ----- --- ---- ------- -- ---- --- --<br>------- ------,78834.40000009537,78833.90000009537,78810.318,78803.80000007153,78827.022,78860.383,,40,wary
screen,html.Screen,2_1_1_1_41,2022-03-21T20:52:02.713Z,,,,,,,,,,,,,,,,,54,,,,,,,,,,,,,5.317000047682086,,response,,,100,,,,Space,keypress(Space),,,,,,,,-- --- ---- --- ------ ----- ------- ---- -- --- ------- --<br>------- ---------- ------ -- ----- -- ----- -- ---- ------<br>--- ----- --- --- ------ -------- ----- --- ------ ----- --<br>----- ----- ---------- --- --- ------ ------ ---- of ------<br>------- --- ------ ----- --- ---- ------- -- ---- --- --<br>------- ------,78866.20000004768,78865.70000004768,78843.689,78834.60000002384,78860.383,78893.759,,41,of
screen,html.Screen,2_1_1_1_42,2022-03-21T20:52:02.745Z,,,,,,,,,,,,,,,,,54,,,,,,,,,,,,,4.041000071520102,,response,,,100,,,,Space,keypress(Space),,,,,,,,-- --- ---- --- ------ ----- ------- ---- -- --- ------- --<br>------- ---------- ------ -- ----- -- ----- -- ---- ------<br>--- ----- --- --- ------ -------- ----- --- ------ ----- --<br>----- ----- ---------- --- --- ------ ------ ---- -- French<br>------- --- ------ ----- --- ---- ------- -- ---- --- --<br>------- ------,78898.30000007153,78897.80000007153,78877.067,78866.40000009537,78893.759,78927.077,,42,French
screen,html.Screen,2_1_1_1_43,2022-03-21T20:52:02.775Z,,,,,,,,,,,,,,,,,54,,,,,,,,,,,,,1.3230000953626586,,response,,,100,,,,Space,keypress(Space),,,,,,,,-- --- ---- --- ------ ----- ------- ---- -- --- ------- --<br>------- ---------- ------ -- ----- -- ----- -- ---- ------<br>--- ----- --- --- ------ -------- ----- --- ------ ----- --<br>----- ----- ---------- --- --- ------ ------ ---- -- ------<br>credit. --- ------ ----- --- ---- ------- -- ---- --- --<br>------- ------,78929,78928.40000009537,78910.424,78898.5,78927.077,78960.424,,43,credit.
screen,html.Screen,2_1_1_1_44,2022-03-21T20:52:02.807Z,,,,,,,,,,,,,,,,,54,,,,,,,,,,,,,16.47200007153151,,response,,,100,,,,Space,keypress(Space),,,,,,,,-- --- ---- --- ------ ----- ------- ---- -- --- ------- --<br>------- ---------- ------ -- ----- -- ----- -- ---- ------<br>--- ----- --- --- ------ -------- ----- --- ------ ----- --<br>----- ----- ---------- --- --- ------ ------ ---- -- ------<br>------- The ------ ----- --- ---- ------- -- ---- --- --<br>------- ------,78960.70000004768,78960.30000007153,78943.828,78929.10000002384,,78977.152,,44,The
screen,html.Screen,2_1_1_1_45,2022-03-21T20:52:02.854Z,,,,,,,,,,,,,,,,,54,,,,,,,,,,,,,30.24800009536557,,response,,,100,,,,Space,keypress(Space),,,,,,,,-- --- ---- --- ------ ----- ------- ---- -- --- ------- --<br>------- ---------- ------ -- ----- -- ----- -- ---- ------<br>--- ----- --- --- ------ -------- ----- --- ------ ----- --<br>----- ----- ---------- --- --- ------ ------ ---- -- ------<br>------- --- French ----- --- ---- ------- -- ---- --- --<br>------- ------,79007.90000009537,79007.40000009537,78960.424,78960.90000009537,78977.152,79010.503,,45,French
screen,html.Screen,2_1_1_1_46,2022-03-21T20:52:02.886Z,,,,,,,,,,,,,,,,,54,,,,,,,,,,,,,28.39700009537046,,response,,,100,,,,Space,keypress(Space),,,,,,,,-- --- ---- --- ------ ----- ------- ---- -- --- ------- --<br>------- ---------- ------ -- ----- -- ----- -- ---- ------<br>--- ----- --- --- ------ -------- ----- --- ------ ----- --<br>----- ----- ---------- --- --- ------ ------ ---- -- ------<br>------- --- ------ state --- ---- ------- -- ---- --- --<br>------- ------,79039.70000004768,79038.90000009537,78993.8,79008.10000002384,79010.503,79043.853,,46,state
screen,html.Screen,2_1_1_1_47,2022-03-21T20:52:02.917Z,,,,,,,,,,,,,,,,,54,,,,,,,,,,,,,26.146999999997206,,response,,,100,,,,Space,keypress(Space),,,,,,,,-- --- ---- --- ------ ----- ------- ---- -- --- ------- --<br>------- ---------- ------ -- ----- -- ----- -- ---- ------<br>--- ----- --- --- ------ -------- ----- --- ------ ----- --<br>----- ----- ---------- --- --- ------ ------ ---- -- ------<br>------- --- ------ ----- was ---- ------- -- ---- --- --<br>------- ------,79070.60000002384,79070,79027.192,79039.80000007153,79043.853,79077.079,,47,was
screen,html.Screen,2_1_1_1_48,2022-03-21T20:52:02.949Z,,,,,,,,,,,,,,,,,54,,,,,,,,,,,,,24.62100004768581,,response,,,100,,,,Space,keypress(Space),,,,,,,,-- --- ---- --- ------ ----- ------- ---- -- --- ------- --<br>------- ---------- ------ -- ----- -- ----- -- ---- ------<br>--- ----- --- --- ------ -------- ----- --- ------ ----- --<br>----- ----- ---------- --- --- ------ ------ ---- -- ------<br>------- --- ------ ----- --- left ------- -- ---- --- --<br>------- ------,79102.20000004768,79101.70000004768,79060.564,79070.70000004768,79077.079,79110.469,,48,left
screen,html.Screen,2_1_1_1_49,2022-03-21T20:52:02.980Z,,,,,,,,,,,,,,,,,54,,,,,,,,,,,,,22.231000047686393,,response,,,100,,,,Space,keypress(Space),,,,,,,,-- --- ---- --- ------ ----- ------- ---- -- --- ------- --<br>------- ---------- ------ -- ----- -- ----- -- ---- ------<br>--- ----- --- --- ------ -------- ----- --- ------ ----- --<br>----- ----- ---------- --- --- ------ ------ ---- -- ------<br>------- --- ------ ----- --- ---- without -- ---- --- --<br>------- ------,79133.30000007153,79132.70000004768,79093.876,79102.40000009537,79110.469,79143.972,,49,without
screen,html.Screen,2_1_1_1_50,2022-03-21T20:52:03.011Z,,,,,,,,,,,,,,,,,54,,,,,,,,,,,,,20.528000000005704,,response,,,100,,,,Space,keypress(Space),,,,,,,,-- --- ---- --- ------ ----- ------- ---- -- --- ------- --<br>------- ---------- ------ -- ----- -- ----- -- ---- ------<br>--- ----- --- --- ------ -------- ----- --- ------ ----- --<br>----- ----- ---------- --- --- ------ ------ ---- -- ------<br>------- --- ------ ----- --- ---- ------- an ---- --- --<br>------- ------,79165,79164.5,79127.25,79133.40000009537,79143.972,79177.326,,50,an
screen,html.Screen,2_1_1_1_51,2022-03-21T20:52:03.043Z,,,,,,,,,,,,,,,,,54,,,,,,,,,,,,,18.974000071524642,,response,,,100,,,,Space,keypress(Space),,,,,,,,-- --- ---- --- ------ ----- ------- ---- -- --- ------- --<br>------- ---------- ------ -- ----- -- ----- -- ---- ------<br>--- ----- --- --- ------ -------- ----- --- ------ ----- --<br>----- ----- ---------- --- --- ------ ------ ---- -- ------<br>------- --- ------ ----- --- ---- ------- -- easy --- --<br>------- ------,79196.90000009537,79196.30000007153,79160.609,79165.30000007153,79177.326,79210.686,,51,easy
screen,html.Screen,2_1_1_1_52,2022-03-21T20:52:03.074Z,,,,,,,,,,,,,,,,,54,,,,,,,,,,,,,16.514000047682202,,response,,,100,,,,Space,keypress(Space),,,,,,,,-- --- ---- --- ------ ----- ------- ---- -- --- ------- --<br>------- ---------- ------ -- ----- -- ----- -- ---- ------<br>--- ----- --- --- ------ -------- ----- --- ------ ----- --<br>----- ----- ---------- --- --- ------ ------ ---- -- ------<br>------- --- ------ ----- --- ---- ------- -- ---- way --<br>------- ------,79227.80000007153,79227.20000004768,79193.973,79197.10000002384,79210.686,79244.041,,52,way
screen,html.Screen,2_1_1_1_53,2022-03-21T20:52:03.105Z,,,,,,,,,,,,,,,,,54,,,,,,,,,,,,,14.359000095369993,,response,,,100,,,,Space,keypress(Space),,,,,,,,-- --- ---- --- ------ ----- ------- ---- -- --- ------- --<br>------- ---------- ------ -- ----- -- ----- -- ---- ------<br>--- ----- --- --- ------ -------- ----- --- ------ ----- --<br>----- ----- ---------- --- --- ------ ------ ---- -- ------<br>------- --- ------ ----- --- ---- ------- -- ---- --- of<br>------- ------,79259,79258.40000009537,79227.289,79227.90000009537,79244.041,79277.406,,53,of
screen,html.Screen,2_1_1_1_54,2022-03-21T20:52:03.137Z,,,,,,,,,,,,,,,,,54,,,,,,,,,,,,,12.593999999997322,,response,,,100,,,,Space,keypress(Space),,,,,,,,-- --- ---- --- ------ ----- ------- ---- -- --- ------- --<br>------- ---------- ------ -- ----- -- ----- -- ---- ------<br>--- ----- --- --- ------ -------- ----- --- ------ ----- --<br>----- ----- ---------- --- --- ------ ------ ---- -- ------<br>------- --- ------ ----- --- ---- ------- -- ---- --- --<br>raising ------,79290.60000002384,79290,79260.648,79259.20000004768,79277.406,79310.764,,54,raising
screen,html.Screen,2_1_1_1_55,2022-03-21T20:52:03.184Z,,,,,,,,,,,,,,,,,54,,,,,,,,,,,,,26.636000095371855,,response,,,100,,,,Space,keypress(Space),,,,,,,,-- --- ---- --- ------ ----- ------- ---- -- --- ------- --<br>------- ---------- ------ -- ----- -- ----- -- ---- ------<br>--- ----- --- --- ------ -------- ----- --- ------ ----- --<br>----- ----- ---------- --- --- ------ ------ ---- -- ------<br>------- --- ------ ----- --- ---- ------- -- ---- --- --<br>------- money.,79337.80000007153,79337.40000009537,79294.047,79290.70000004768,79310.764,79344.107,,55,money.
Item 100,flow.Loop,2_1_1_1,2022-03-21T20:52:03.185Z,,,,,,,,,,,,,,,,,,,,,,,,,,,,,,2728.964000095366,,completion,,,,E,,,,,,,,silence,,,,,79338.20000004768,79337.40000009537,76591.863,76592.60000002384,76608.436,79344.107,,,
Question 1,html.Screen,2_1_1_2,2022-03-21T20:52:05.781Z,,,,,,,,,,,,,,,,,,,,,,,,,,,,true,TRUE,2590.193000071522,,response,,,100,E,,,TRUE,click #choice-1,,,,silence,,,,,81935,81934.30000007153,79327.42,79338.40000009537,79344.107,81946.083,,,
Question 2,html.Screen,2_1_1_3,2022-03-21T20:52:06.205Z,,,,,,,,,,,,,,,,,,,,,,,,,,,,true,FALSE,412.21700007152685,,response,,,100,E,,,FALSE,click #choice-2,,,,silence,,,,,82359,82358.30000007153,81929.526,81935.10000002384,81946.083,82363.185,,,
Item 100,flow.Sequence,2_1_1,2022-03-21T20:52:06.205Z,,,,,,,,,,,,,,,,,,,,,,,,,,,,,,15757.828000071531,,completion,,,,,,,,,,,,,,,,,82359.10000002384,82358.30000007153,66583.808,66599.30000007153,66600.472,82363.185,,,
End of Practice,html.Page,2_1_2,2022-03-21T20:52:07.710Z,,,,,,,,,,,,,,,,,,,,,,,,,,,,,,1499.8150000000023,,form submission,,,,,,,,,,,,,,,,,83863.30000007153,83863,82346.529,82359.30000007153,82363.185,83864.362,,,
Practice,flow.Sequence,2_1,2022-03-21T20:52:07.710Z,,,,,,,,,,,,,,,,,,,,,,,,,,,,,,33242.093,,completion,,,,,,,,,,,,,,,,,83863.60000002384,83863,50604.251,50615.60000002384,50620.907,83864.362,,,
Trap_instruction,html.Page,2_2_0,2022-03-21T20:52:09.134Z,,,,,,,,,,,,,,,,,,,,,,,,,,,,,,1422.6380000000063,,form submission,,,,,,,,,,,,,,,,,85287.30000007153,85287,83847.735,83863.60000002384,83864.362,85298.861,,,
trap_trial,html.Screen,2_2_1,2022-03-21T20:52:16.677Z,,,,,,,,,,,,,,,,,,,,,,,,,,,,true,1,7531.439000071521,,response,,,,,,,1,click #choice-1,,,,,,,,,92831,92830.30000007153,85282.221,85287.40000009537,85298.861,92838.277,,,
end of trap trial,html.Page,2_2_2,2022-03-21T20:52:18.774Z,,,,,,,,,,,,,,,,,,,,,,,,,,,,,,2088.82300002384,,form submission,,,,,,,,,,,,,,,,,94927.5,94927.10000002384,92821.652,92831.20000004768,92838.277,94940.011,,,
Trap 1,flow.Sequence,2_2,2022-03-21T20:52:18.774Z,,,,,,,,,,,,,,,,,,,,,,,,,,,,,,11062.738000023848,,completion,,,,,,,,,,,,,,,,,94927.70000004768,94927.10000002384,83847.735,83863.60000002384,83864.362,94940.011,,,
Standby,html.Page,2_3_0,2022-03-21T20:52:26.777Z,,,,,,,,,,,,,,,,,,,,,,,,,,,,,,8006.464000000007,,timeout,,,,,,,,,,,,,,,,,102930.60000002384,102929.807,94923.307,94927.80000007153,94940.011,102946.475,,,
Holding screen,html.Screen,2_3_1_0_0,2022-03-21T20:52:33.782Z,,,,,,,,,,,,,,,,,,,,,,,,,,,,,,7005.562999999995,,timeout,,,,,,,,,,,,,,,,,109936.10000002384,109935.464,102929.807,102930.90000009537,102946.475,109952.038,,,
screen,html.Screen,2_3_1_0_1_0,2022-03-21T20:52:34.616Z,,,,,,,,,,,,,,,,,19,,,,,,,,,,,,,816.7620000715251,,response,,,17,E,,,Space,keypress(Space),,,,silence,,,,"Interestingly, --- -------- -------- ---------- ---- -------<br>-- ---------- -- --- ----- ------ ----- ---- --------- ----<br>------- ------ -------- -- ------ ---------- ------ ---<br>------ -- -- ---- -- ---------- -------- ------ ---- -------<br>---- --- --------- ------- ----- --------- ---- ----- --<br>------ -------- -- ------ -- ---- ------------",110769.60000002384,110768.80000007153,109935.464,109936.5,109952.038,110769.427,,0,"Interestingly,"
screen,html.Screen,2_3_1_0_1_1,2022-03-21T20:52:35.126Z,,,,,,,,,,,,,,,,,19,,,,,,,,,,,,,509.87300007152953,,response,,,17,E,,,Space,keypress(Space),,,,silence,,,,-------------- the -------- -------- ---------- ---- -------<br>-- ---------- -- --- ----- ------ ----- ---- --------- ----<br>------- ------ -------- -- ------ ---------- ------ ---<br>------ -- -- ---- -- ---------- -------- ------ ---- -------<br>---- --- --------- ------- ----- --------- ---- ----- --<br>------ -------- -- ------ -- ---- ------------,111280,111279.30000007153,110769.421,110769.90000009537,110769.427,111286.487,,1,the
screen,html.Screen,2_3_1_0_1_2,2022-03-21T20:52:35.158Z,,,,,,,,,,,,,,,,,19,,,,,,,,,,,,,24.713000047690002,,response,,,17,E,,,Space,keypress(Space),,,,silence,,,,-------------- --- heaviest -------- ---------- ---- -------<br>-- ---------- -- --- ----- ------ ----- ---- --------- ----<br>------- ------ -------- -- ------ ---------- ------ ---<br>------ -- -- ---- -- ---------- -------- ------ ---- -------<br>---- --- --------- ------- ----- --------- ---- ----- --<br>------ -------- -- ------ -- ---- ------------,111311.80000007153,111311.20000004768,111269.823,111280.30000007153,111286.487,111319.829,,2,heaviest
screen,html.Screen,2_3_1_0_1_3,2022-03-21T20:52:35.190Z,,,,,,,,,,,,,,,,,19,,,,,,,,,,,,,23.171000000002095,,response,,,17,E,,,Space,keypress(Space),,,,silence,,,,-------------- --- -------- isotopes ---------- ---- -------<br>-- ---------- -- --- ----- ------ ----- ---- --------- ----<br>------- ------ -------- -- ------ ---------- ------ ---<br>------ -- -- ---- -- ---------- -------- ------ ---- -------<br>---- --- --------- ------- ----- --------- ---- ----- --<br>------ -------- -- ------ -- ---- ------------,111343.60000002384,111343,111303.213,111312,111319.829,111353.256,,3,isotopes
screen,html.Screen,2_3_1_0_1_4,2022-03-21T20:52:35.221Z,,,,,,,,,,,,,,,,,19,,,,,,,,,,,,,20.644000095373485,,response,,,17,E,,,Space,keypress(Space),,,,silence,,,,-------------- --- -------- -------- physicists ---- -------<br>-- ---------- -- --- ----- ------ ----- ---- --------- ----<br>------- ------ -------- -- ------ ---------- ------ ---<br>------ -- -- ---- -- ---------- -------- ------ ---- -------<br>---- --- --------- ------- ----- --------- ---- ----- --<br>------ -------- -- ------ -- ---- ------------,111374.5,111373.90000009537,111336.544,111343.80000007153,111353.256,111386.612,,4,physicists
screen,html.Screen,2_3_1_0_1_5,2022-03-21T20:52:35.253Z,,,,,,,,,,,,,,,,,19,,,,,,,,,,,,,19.18800007153186,,response,,,17,E,,,Space,keypress(Space),,,,silence,,,,-------------- --- -------- -------- ---------- have -------<br>-- ---------- -- --- ----- ------ ----- ---- --------- ----<br>------- ------ -------- -- ------ ---------- ------ ---<br>------ -- -- ---- -- ---------- -------- ------ ---- -------<br>---- --- --------- ------- ----- --------- ---- ----- --<br>------ -------- -- ------ -- ---- ------------,111406.20000004768,111405.80000007153,111369.901,111374.70000004768,111386.612,111419.98,,5,have
screen,html.Screen,2_3_1_0_1_6,2022-03-21T20:52:35.284Z,,,,,,,,,,,,,,,,,19,,,,,,,,,,,,,17.620000023845932,,response,,,17,E,,,Space,keypress(Space),,,,silence,,,,-------------- --- -------- -------- ---------- ---- managed<br>-- ---------- -- --- ----- ------ ----- ---- --------- ----<br>------- ------ -------- -- ------ ---------- ------ ---<br>------ -- -- ---- -- ---------- -------- ------ ---- -------<br>---- --- --------- ------- ----- --------- ---- ----- --<br>------ -------- -- ------ -- ---- ------------,111438.10000002384,111437.60000002384,111403.263,111406.40000009537,111419.98,111453.345,,6,managed
screen,html.Screen,2_3_1_0_1_7,2022-03-21T20:52:35.316Z,,,,,,,,,,,,,,,,,19,,,,,,,,,,,,,16.154999999998836,,response,,,17,E,,,Space,keypress(Space),,,,silence,,,,-------------- --- -------- -------- ---------- ---- -------<br>to ---------- -- --- ----- ------ ----- ---- --------- ----<br>------- ------ -------- -- ------ ---------- ------ ---<br>------ -- -- ---- -- ---------- -------- ------ ---- -------<br>---- --- --------- ------- ----- --------- ---- ----- --<br>------ -------- -- ------ -- ---- ------------,111470,111469.5,111436.627,111438.30000007153,111453.345,111486.743,,7,to
screen,html.Screen,2_3_1_0_1_8,2022-03-21T20:52:35.347Z,,,,,,,,,,,,,,,,,19,,,,,,,,,,,,,13.557000071523362,,response,,,17,E,,,Space,keypress(Space),,,,silence,,,,-------------- --- -------- -------- ---------- ---- -------<br>-- synthesize -- --- ----- ------ ----- ---- --------- ----<br>------- ------ -------- -- ------ ---------- ------ ---<br>------ -- -- ---- -- ---------- -------- ------ ---- -------<br>---- --- --------- ------- ----- --------- ---- ----- --<br>------ -------- -- ------ -- ---- ------------,111501,111500.30000007153,111469.995,111470.20000004768,111486.743,111520.084,,8,synthesize
screen,html.Screen,2_3_1_0_1_9,2022-03-21T20:52:35.379Z,,,,,,,,,,,,,,,,,19,,,,,,,,,,,,,12.116000047681155,,response,,,17,E,,,Space,keypress(Space),,,,silence,,,,-------------- --- -------- -------- ---------- ---- -------<br>-- ---------- so --- ----- ------ ----- ---- --------- ----<br>------- ------ -------- -- ------ ---------- ------ ---<br>------ -- -- ---- -- ---------- -------- ------ ---- -------<br>---- --- --------- ------- ----- --------- ---- ----- --<br>------ -------- -- ------ -- ---- ------------,111532.70000004768,111532.20000004768,111503.381,111501.10000002384,111520.084,111553.442,,9,so
screen,html.Screen,2_3_1_0_1_10,2022-03-21T20:52:35.426Z,,,,,,,,,,,,,,,,,19,,,,,,,,,,,,,25.658000023846398,,response,,,17,E,,,Space,keypress(Space),,,,silence,,,,-------------- --- -------- -------- ---------- ---- -------<br>-- ---------- -- far ----- ------ ----- ---- --------- ----<br>------- ------ -------- -- ------ ---------- ------ ---<br>------ -- -- ---- -- ---------- -------- ------ ---- -------<br>---- --- --------- ------- ----- --------- ---- ----- --<br>------ -------- -- ------ -- ---- ------------,111579.70000004768,111579.10000002384,111536.75,111532.90000009537,111553.442,111586.658,,10,far
screen,html.Screen,2_3_1_0_1_11,2022-03-21T20:52:35.458Z,,,,,,,,,,,,,,,,,19,,,,,,,,,,,,,24.34200000000419,,response,,,17,E,,,Space,keypress(Space),,,,silence,,,,-------------- --- -------- -------- ---------- ---- -------<br>-- ---------- -- --- don't ------ ----- ---- --------- ----<br>------- ------ -------- -- ------ ---------- ------ ---<br>------ -- -- ---- -- ---------- -------- ------ ---- -------<br>---- --- --------- ------- ----- --------- ---- ----- --<br>------ -------- -- ------ -- ---- ------------,111611.5,111611,111570.095,111579.90000009537,111586.658,111620.043,,11,don't
screen,html.Screen,2_3_1_0_1_12,2022-03-21T20:52:35.490Z,,,,,,,,,,,,,,,,,19,,,,,,,,,,,,,22.75700007152045,,response,,,17,E,,,Space,keypress(Space),,,,silence,,,,-------------- --- -------- -------- ---------- ---- -------<br>-- ---------- -- --- ----- behave ----- ---- --------- ----<br>------- ------ -------- -- ------ ---------- ------ ---<br>------ -- -- ---- -- ---------- -------- ------ ---- -------<br>---- --- --------- ------- ----- --------- ---- ----- --<br>------ -------- -- ------ -- ---- ------------,111643.40000009537,111642.80000007153,111603.455,111611.80000007153,111620.043,111653.525,,12,behave
screen,html.Screen,2_3_1_0_1_13,2022-03-21T20:52:35.521Z,,,,,,,,,,,,,,,,,19,,,,,,,,,,,,,20.07500002384768,,response,,,17,E,,,Space,keypress(Space),,,,silence,,,,-------------- --- -------- -------- ---------- ---- -------<br>-- ---------- -- --- ----- ------ quite ---- --------- ----<br>------- ------ -------- -- ------ ---------- ------ ---<br>------ -- -- ---- -- ---------- -------- ------ ---- -------<br>---- --- --------- ------- ----- --------- ---- ----- --<br>------ -------- -- ------ -- ---- ------------,111674.20000004768,111673.60000002384,111636.812,111643.60000002384,111653.525,111686.885,,13,quite
screen,html.Screen,2_3_1_0_1_14,2022-03-21T20:52:35.552Z,,,,,,,,,,,,,,,,,19,,,,,,,,,,,,,18.715000023847097,,response,,,17,E,,,Space,keypress(Space),,,,silence,,,,-------------- --- -------- -------- ---------- ---- -------<br>-- ---------- -- --- ----- ------ ----- like --------- ----<br>------- ------ -------- -- ------ ---------- ------ ---<br>------ -- -- ---- -- ---------- -------- ------ ---- -------<br>---- --- --------- ------- ----- --------- ---- ----- --<br>------ -------- -- ------ -- ---- ------------,111706.10000002384,111705.60000002384,111670.173,111674.40000009537,111686.885,111720.248,,14,like
screen,html.Screen,2_3_1_0_1_15,2022-03-21T20:52:35.583Z,,,,,,,,,,,,,,,,,19,,,,,,,,,,,,,16.152000095360563,,response,,,17,E,,,Space,keypress(Space),,,,silence,,,,-------------- --- -------- -------- ---------- ---- -------<br>-- ---------- -- --- ----- ------ ----- ---- science's ----<br>------- ------ -------- -- ------ ---------- ------ ---<br>------ -- -- ---- -- ---------- -------- ------ ---- -------<br>---- --- --------- ------- ----- --------- ---- ----- --<br>------ -------- -- ------ -- ---- ------------,111736.90000009537,111736.40000009537,111703.533,111706.20000004768,111720.248,111753.614,,15,science's
screen,html.Screen,2_3_1_0_1_16,2022-03-21T20:52:35.615Z,,,,,,,,,,,,,,,,,19,,,,,,,,,,,,,14.686000071524177,,response,,,17,E,,,Space,keypress(Space),,,,silence,,,,-------------- --- -------- -------- ---------- ---- -------<br>-- ---------- -- --- ----- ------ ----- ---- --------- best<br>------- ------ -------- -- ------ ---------- ------ ---<br>------ -- -- ---- -- ---------- -------- ------ ---- -------<br>---- --- --------- ------- ----- --------- ---- ----- --<br>------ -------- -- ------ -- ---- ------------,111768.90000009537,111768.30000007153,111736.73,111737.20000004768,111753.614,111786.971,,16,best
screen,html.Screen,2_3_1_0_1_17,2022-03-21T20:52:35.647Z,,,,,,,,,,,,,,,,,19,,,,,,,,,,,,,13.22900004767871,,response,,,17,E,,,Space,keypress(Space),,,,silence,,,,-------------- --- -------- -------- ---------- ---- -------<br>-- ---------- -- --- ----- ------ ----- ---- --------- ----<br>current ------ -------- -- ------ ---------- ------ ---<br>------ -- -- ---- -- ---------- -------- ------ ---- -------<br>---- --- --------- ------- ----- --------- ---- ----- --<br>------ -------- -- ------ -- ---- ------------,111800.60000002384,111800.20000004768,111770.258,111769.10000002384,111786.971,111820.339,,17,current
screen,html.Screen,2_3_1_0_1_18,2022-03-21T20:52:35.678Z,,,,,,,,,,,,,,,,,19,,,,,,,,,,,,,10.961000071518356,,response,,,17,E,,,Space,keypress(Space),,,,silence,,,,-------------- --- -------- -------- ---------- ---- -------<br>-- ---------- -- --- ----- ------ ----- ---- --------- ----<br>------- models -------- -- ------ ---------- ------ ---<br>------ -- -- ---- -- ---------- -------- ------ ---- -------<br>---- --- --------- ------- ----- --------- ---- ----- --<br>------ -------- -- ------ -- ---- ------------,111831.80000007153,111831.30000007153,111803.616,111800.90000009537,111820.339,111853.697,,18,models
screen,html.Screen,2_3_1_0_1_19,2022-03-21T20:52:35.710Z,,,,,,,,,,,,,,,,,19,,,,,,,,,,,,,9.103000071525457,,response,,,17,E,,,Space,keypress(Space),,,,silence,,,,"-------------- --- -------- -------- ---------- ---- -------<br>-- ---------- -- --- ----- ------ ----- ---- --------- ----<br>------- ------ predict, -- ------ ---------- ------ ---<br>------ -- -- ---- -- ---------- -------- ------ ---- -------<br>---- --- --------- ------- ----- --------- ---- ----- --<br>------ -------- -- ------ -- ---- ------------",111863.40000009537,111862.80000007153,111836.995,111832,111853.697,111887.061,,19,"predict,"
screen,html.Screen,2_3_1_0_1_20,2022-03-21T20:52:35.756Z,,,,,,,,,,,,,,,,,19,,,,,,,,,,,,,22.539000023840345,,response,,,17,E,,,Space,keypress(Space),,,,silence,,,,-------------- --- -------- -------- ---------- ---- -------<br>-- ---------- -- --- ----- ------ ----- ---- --------- ----<br>------- ------ -------- so ------ ---------- ------ ---<br>------ -- -- ---- -- ---------- -------- ------ ---- -------<br>---- --- --------- ------- ----- --------- ---- ----- --<br>------ -------- -- ------ -- ---- ------------,111910.10000002384,111909.60000002384,111870.353,111863.60000002384,111887.061,111920.283,,20,so
screen,html.Screen,2_3_1_0_1_21,2022-03-21T20:52:35.788Z,,,,,,,,,,,,,,,,,19,,,,,,,,,,,,,21.21700000000419,,response,,,17,E,,,Space,keypress(Space),,,,silence,,,,-------------- --- -------- -------- ---------- ---- -------<br>-- ---------- -- --- ----- ------ ----- ---- --------- ----<br>------- ------ -------- -- stable ---------- ------ ---<br>------ -- -- ---- -- ---------- -------- ------ ---- -------<br>---- --- --------- ------- ----- --------- ---- ----- --<br>------ -------- -- ------ -- ---- ------------,111942.10000002384,111941.5,111903.698,111910.40000009537,111920.283,111953.771,,21,stable
screen,html.Screen,2_3_1_0_1_22,2022-03-21T20:52:35.819Z,,,,,,,,,,,,,,,,,19,,,,,,,,,,,,,18.52900007153221,,response,,,17,E,,,Space,keypress(Space),,,,silence,,,,-------------- --- -------- -------- ---------- ---- -------<br>-- ---------- -- --- ----- ------ ----- ---- --------- ----<br>------- ------ -------- -- ------ superheavy ------ ---<br>------ -- -- ---- -- ---------- -------- ------ ---- -------<br>---- --- --------- ------- ----- --------- ---- ----- --<br>------ -------- -- ------ -- ---- ------------,111972.90000009537,111972.30000007153,111937.062,111942.30000007153,111953.771,111987.076,,22,superheavy
screen,html.Screen,2_3_1_0_1_23,2022-03-21T20:52:35.850Z,,,,,,,,,,,,,,,,,19,,,,,,,,,,,,,16.024000023840927,,response,,,17,E,,,Space,keypress(Space),,,,silence,,,,-------------- --- -------- -------- ---------- ---- -------<br>-- ---------- -- --- ----- ------ ----- ---- --------- ----<br>------- ------ -------- -- ------ ---------- nuclei ---<br>------ -- -- ---- -- ---------- -------- ------ ---- -------<br>---- --- --------- ------- ----- --------- ---- ----- --<br>------ -------- -- ------ -- ---- ------------,112003.70000004768,112003.10000002384,111970.418,111973,111987.076,112020.49,,23,nuclei
screen,html.Screen,2_3_1_0_1_24,2022-03-21T20:52:35.881Z,,,,,,,,,,,,,,,,,19,,,,,,,,,,,,,13.710000047678477,,response,,,17,E,,,Space,keypress(Space),,,,silence,,,,-------------- --- -------- -------- ---------- ---- -------<br>-- ---------- -- --- ----- ------ ----- ---- --------- ----<br>------- ------ -------- -- ------ ---------- ------ are<br>------ -- -- ---- -- ---------- -------- ------ ---- -------<br>---- --- --------- ------- ----- --------- ---- ----- --<br>------ -------- -- ------ -- ---- ------------,112034.70000004768,112034.20000004768,112003.745,112004,112020.49,112053.859,,24,are
screen,html.Screen,2_3_1_0_1_25,2022-03-21T20:52:35.912Z,,,,,,,,,,,,,,,,,19,,,,,,,,,,,,,11.14100000000326,,response,,,17,E,,,Space,keypress(Space),,,,silence,,,,-------------- --- -------- -------- ---------- ---- -------<br>-- ---------- -- --- ----- ------ ----- ---- --------- ----<br>------- ------ -------- -- ------ ---------- ------ ---<br>likely -- -- ---- -- ---------- -------- ------ ---- -------<br>---- --- --------- ------- ----- --------- ---- ----- --<br>------ -------- -- ------ -- ---- ------------,112065.60000002384,112065,112037.137,112034.80000007153,112053.859,112087.234,,25,likely
screen,html.Screen,2_3_1_0_1_26,2022-03-21T20:52:35.943Z,,,,,,,,,,,,,,,,,19,,,,,,,,,,,,,8.866000023845118,,response,,,17,E,,,Space,keypress(Space),,,,silence,,,,-------------- --- -------- -------- ---------- ---- -------<br>-- ---------- -- --- ----- ------ ----- ---- --------- ----<br>------- ------ -------- -- ------ ---------- ------ ---<br>------ to -- ---- -- ---------- -------- ------ ---- -------<br>---- --- --------- ------- ----- --------- ---- ----- --<br>------ -------- -- ------ -- ---- ------------,112096.70000004768,112096.10000002384,112070.494,112065.90000009537,112087.234,112120.596,,26,to
screen,html.Screen,2_3_1_0_1_27,2022-03-21T20:52:35.974Z,,,,,,,,,,,,,,,,,19,,,,,,,,,,,,,6.204000071520568,,response,,,17,E,,,Space,keypress(Space),,,,silence,,,,-------------- --- -------- -------- ---------- ---- -------<br>-- ---------- -- --- ----- ------ ----- ---- --------- ----<br>------- ------ -------- -- ------ ---------- ------ ---<br>------ -- be ---- -- ---------- -------- ------ ---- -------<br>---- --- --------- ------- ----- --------- ---- ----- --<br>------ -------- -- ------ -- ---- ------------,112127.40000009537,112126.80000007153,112103.877,112096.90000009537,112120.596,112153.959,,27,be
screen,html.Screen,2_3_1_0_1_28,2022-03-21T20:52:36.019Z,,,,,,,,,,,,,,,,,19,,,,,,,,,,,,,18.44100009536487,,response,,,17,E,,,Space,keypress(Space),,,,silence,,,,-------------- --- -------- -------- ---------- ---- -------<br>-- ---------- -- --- ----- ------ ----- ---- --------- ----<br>------- ------ -------- -- ------ ---------- ------ ---<br>------ -- -- full -- ---------- -------- ------ ---- -------<br>---- --- --------- ------- ----- --------- ---- ----- --<br>------ -------- -- ------ -- ---- ------------,112173.10000002384,112172.40000009537,112137.186,112127.60000002384,112153.959,112187.27,,28,full
screen,html.Screen,2_3_1_0_1_29,2022-03-21T20:52:36.050Z,,,,,,,,,,,,,,,,,19,,,,,,,,,,,,,15.5300000715215,,response,,,17,E,,,Space,keypress(Space),,,,silence,,,,-------------- --- -------- -------- ---------- ---- -------<br>-- ---------- -- --- ----- ------ ----- ---- --------- ----<br>------- ------ -------- -- ------ ---------- ------ ---<br>------ -- -- ---- of ---------- -------- ------ ---- -------<br>---- --- --------- ------- ----- --------- ---- ----- --<br>------ -------- -- ------ -- ---- ------------,112203.5,112202.80000007153,112170.598,112173.20000004768,112187.27,112220.675,,29,of
screen,html.Screen,2_3_1_0_1_30,2022-03-21T20:52:36.080Z,,,,,,,,,,,,,,,,,19,,,,,,,,,,,,,12.725000095364521,,response,,,17,E,,,Space,keypress(Space),,,,silence,,,,-------------- --- -------- -------- ---------- ---- -------<br>-- ---------- -- --- ----- ------ ----- ---- --------- ----<br>------- ------ -------- -- ------ ---------- ------ ---<br>------ -- -- ---- -- surprises. -------- ------ ---- -------<br>---- --- --------- ------- ----- --------- ---- ----- --<br>------ -------- -- ------ -- ---- ------------,112234,112233.40000009537,112203.967,112203.80000007153,112220.675,112254.042,,30,surprises.
screen,html.Screen,2_3_1_0_1_31,2022-03-21T20:52:36.111Z,,,,,,,,,,,,,,,,,19,,,,,,,,,,,,,9.758000071524293,,response,,,17,E,,,Space,keypress(Space),,,,silence,,,,-------------- --- -------- -------- ---------- ---- -------<br>-- ---------- -- --- ----- ------ ----- ---- --------- ----<br>------- ------ -------- -- ------ ---------- ------ ---<br>------ -- -- ---- -- ---------- Chemists ------ ---- -------<br>---- --- --------- ------- ----- --------- ---- ----- --<br>------ -------- -- ------ -- ---- ------------,112264.5,112263.80000007153,112237.326,112234.20000004768,112254.042,112287.402,,31,Chemists
screen,html.Screen,2_3_1_0_1_32,2022-03-21T20:52:36.141Z,,,,,,,,,,,,,,,,,19,,,,,,,,,,,,,6.798000047681853,,response,,,17,E,,,Space,keypress(Space),,,,silence,,,,-------------- --- -------- -------- ---------- ---- -------<br>-- ---------- -- --- ----- ------ ----- ---- --------- ----<br>------- ------ -------- -- ------ ---------- ------ ---<br>------ -- -- ---- -- ---------- -------- cannot ---- -------<br>---- --- --------- ------- ----- --------- ---- ----- --<br>------ -------- -- ------ -- ---- ------------,112294.80000007153,112294.20000004768,112270.683,112264.60000002384,112287.402,112320.761,,32,cannot
screen,html.Screen,2_3_1_0_1_33,2022-03-21T20:52:36.172Z,,,,,,,,,,,,,,,,,19,,,,,,,,,,,,,4.639000095368829,,response,,,17,E,,,Space,keypress(Space),,,,silence,,,,-------------- --- -------- -------- ---------- ---- -------<br>-- ---------- -- --- ----- ------ ----- ---- --------- ----<br>------- ------ -------- -- ------ ---------- ------ ---<br>------ -- -- ---- -- ---------- -------- ------ even -------<br>---- --- --------- ------- ----- --------- ---- ----- --<br>------ -------- -- ------ -- ---- ------------,112326,112325.40000009537,112304.043,112295,112320.761,112354.118,,33,even
screen,html.Screen,2_3_1_0_1_34,2022-03-21T20:52:36.219Z,,,,,,,,,,,,,,,,,19,,,,,,,,,,,,,18.28200009536522,,response,,,17,E,,,Space,keypress(Space),,,,silence,,,,-------------- --- -------- -------- ---------- ---- -------<br>-- ---------- -- --- ----- ------ ----- ---- --------- ----<br>------- ------ -------- -- ------ ---------- ------ ---<br>------ -- -- ---- -- ---------- -------- ------ ---- predict<br>---- --- --------- ------- ----- --------- ---- ----- --<br>------ -------- -- ------ -- ---- ------------,112373,112372.40000009537,112337.403,112326.20000004768,112354.118,112387.431,,34,predict
screen,html.Screen,2_3_1_0_1_35,2022-03-21T20:52:36.250Z,,,,,,,,,,,,,,,,,19,,,,,,,,,,,,,15.769000047686859,,response,,,17,E,,,Space,keypress(Space),,,,silence,,,,-------------- --- -------- -------- ---------- ---- -------<br>-- ---------- -- --- ----- ------ ----- ---- --------- ----<br>------- ------ -------- -- ------ ---------- ------ ---<br>------ -- -- ---- -- ---------- -------- ------ ---- -------<br>with --- --------- ------- ----- --------- ---- ----- --<br>------ -------- -- ------ -- ---- ------------,112403.80000007153,112403.20000004768,112370.766,112373.20000004768,112387.431,112420.835,,35,with
screen,html.Screen,2_3_1_0_1_36,2022-03-21T20:52:36.280Z,,,,,,,,,,,,,,,,,19,,,,,,,,,,,,,12.46500007151917,,response,,,17,E,,,Space,keypress(Space),,,,silence,,,,-------------- --- -------- -------- ---------- ---- -------<br>-- ---------- -- --- ----- ------ ----- ---- --------- ----<br>------- ------ -------- -- ------ ---------- ------ ---<br>------ -- -- ---- -- ---------- -------- ------ ---- -------<br>---- any --------- ------- ----- --------- ---- ----- --<br>------ -------- -- ------ -- ---- ------------,112434,112433.30000007153,112404.017,112404,112420.835,112454.196,,36,any
screen,html.Screen,2_3_1_0_1_37,2022-03-21T20:52:36.311Z,,,,,,,,,,,,,,,,,19,,,,,,,,,,,,,9.904000023845583,,response,,,17,E,,,Space,keypress(Space),,,,silence,,,,-------------- --- -------- -------- ---------- ---- -------<br>-- ---------- -- --- ----- ------ ----- ---- --------- ----<br>------- ------ -------- -- ------ ---------- ------ ---<br>------ -- -- ---- -- ---------- -------- ------ ---- -------<br>---- --- certainty ------- ----- --------- ---- ----- --<br>------ -------- -- ------ -- ---- ------------,112464.70000004768,112464.10000002384,112437.479,112434.20000004768,112454.196,112487.559,,37,certainty
screen,html.Screen,2_3_1_0_1_38,2022-03-21T20:52:36.341Z,,,,,,,,,,,,,,,,,19,,,,,,,,,,,,,6.841000095373602,,response,,,17,E,,,Space,keypress(Space),,,,silence,,,,-------------- --- -------- -------- ---------- ---- -------<br>-- ---------- -- --- ----- ------ ----- ---- --------- ----<br>------- ------ -------- -- ------ ---------- ------ ---<br>------ -- -- ---- -- ---------- -------- ------ ---- -------<br>---- --- --------- whether ----- --------- ---- ----- --<br>------ -------- -- ------ -- ---- ------------,112495,112494.40000009537,112470.843,112464.90000009537,112487.559,112520.927,,38,whether
screen,html.Screen,2_3_1_0_1_39,2022-03-21T20:52:36.373Z,,,,,,,,,,,,,,,,,19,,,,,,,,,,,,,5.073000000003958,,response,,,17,E,,,Space,keypress(Space),,,,silence,,,,-------------- --- -------- -------- ---------- ---- -------<br>-- ---------- -- --- ----- ------ ----- ---- --------- ----<br>------- ------ -------- -- ------ ---------- ------ ---<br>------ -- -- ---- -- ---------- -------- ------ ---- -------<br>---- --- --------- ------- these --------- ---- ----- --<br>------ -------- -- ------ -- ---- ------------,112526.5,112526,112504.207,112495.20000004768,112520.927,112554.279,,39,these
screen,html.Screen,2_3_1_0_1_40,2022-03-21T20:52:36.405Z,,,,,,,,,,,,,,,,,19,,,,,,,,,,,,,3.3210000238468638,,response,,,17,E,,,Space,keypress(Space),,,,silence,,,,-------------- --- -------- -------- ---------- ---- -------<br>-- ---------- -- --- ----- ------ ----- ---- --------- ----<br>------- ------ -------- -- ------ ---------- ------ ---<br>------ -- -- ---- -- ---------- -------- ------ ---- -------<br>---- --- --------- ------- ----- materials ---- ----- --<br>------ -------- -- ------ -- ---- ------------,112558.20000004768,112557.60000002384,112537.579,112526.70000004768,112554.279,112587.646,,40,materials
screen,html.Screen,2_3_1_0_1_41,2022-03-21T20:52:36.437Z,,,,,,,,,,,,,,,,,19,,,,,,,,,,,,,2.1540000715322094,,response,,,17,E,,,Space,keypress(Space),,,,silence,,,,-------------- --- -------- -------- ---------- ---- -------<br>-- ---------- -- --- ----- ------ ----- ---- --------- ----<br>------- ------ -------- -- ------ ---------- ------ ---<br>------ -- -- ---- -- ---------- -------- ------ ---- -------<br>---- --- --------- ------- ----- --------- will ----- --<br>------ -------- -- ------ -- ---- ------------,112590.40000009537,112589.80000007153,112570.921,112558.5,112587.646,112621.004,,41,will
