sender,sender_type,sender_id,timestamp,meta,,Blues,Classical,Country,Dance,Electronic,Folk,Gospel,Hip-Hop,Jazz,Latin,Musical/Film,New-age,Pop,Prolific_id,Provo_ID,R&B,Rap,Reggae,Religious,Rock,Soul,Swing,Traditional,age,artist_name,correct,correctResponse,duration,education,ended_on,gender,headphone_check_performance,item,list,music_frequency,position_correct,response,response_action,snippet_file,song_name,song_rating,sound,stimulus_1,stimulus_2,stimulus_3,text,time_commit,time_end,time_render,time_run,time_show,time_switch,url,word,word_ID
Prolific ID,html.Form,0,2022-03-21T21:00:50.894Z,"{""labjs_version"":""20.2.2"",""labjs_build"":{""flavor"":""production"",""commit"":""a25486e0c714a0ae2ce03ff94b7bb6896854dcfa""},""location"":""https://run.pavlovia.org/mvasilev/prolific3_music_f/?__pilotToken=3c59dc048e8850243be8079a5c74d079&__oauthToken=cc604b6e7d449fc5fe7a311b47aeaf3d810b53f5795c726b331b83656855f6f4"",""userAgent"":""Mozilla/5.0 (Windows NT 10.0; Win64; x64) AppleWebKit/537.36 (KHTML, like Gecko) Chrome/99.0.4844.74 Safari/537.36"",""platform"":""Win32"",""language"":""de-DE"",""locale"":""en-US"",""timeZone"":""Europe/London"",""timezoneOffset"":0,""screen_width"":2560,""screen_height"":1440,""scroll_width"":3200,""scroll_height"":1621,""window_innerWidth"":3200,""window_innerHeight"":1668,""devicePixelRatio"":0.800000011920929}",,,,,,,,,,,,,,,xyz123456789,,,,,,,,,,,,,,2412.500000047683,,form submission,,,,,,,,,,,,,,,,,11560.600000023842,11560.200000047684,9130.974,9132.5,9147.7,11566.134,"{""__pilotToken"":""3c59dc048e8850243be8079a5c74d079"",""__oauthToken"":""cc604b6e7d449fc5fe7a311b47aeaf3d810b53f5795c726b331b83656855f6f4""}",,
Introduction,html.Screen,1_0,2022-03-21T21:00:52.438Z,,,,,,,,,,,,,,,,,,,,,,,,,,,,,,1536.9660000238418,,response,,,,,,,continue,click button,,,,,,,,,13104.200000047684,13103.100000023842,11549.629,11561,11566.134,13117.524,,,
Volume calibration,html.Screen,1_1,2022-03-21T21:00:53.920Z,,,,,,,,,,,,,,,,,,,,,,,,,,,,,,1465.5760000238424,,response,,,,,,,continue,click button,,,,,,,,,14586.400000095367,14583.100000023842,13100.877,13104.300000071526,13117.524,14585.389,,,
Task instructions,html.Screen,1_2,2022-03-21T21:00:55.478Z,,,,,,,,,,,,,,,,,,,,,,,,,,,,,,1557.7110000238426,,response,,,,,,,continue,click button,,,,,,,,,16143.800000071526,16143.100000023842,14568.73,14586.5,14585.389,16153.227,,,
Sounds,html.Screen,1_3_0_0,2022-03-21T21:00:59.728Z,,,,,,,,,,,,,,,,,,,,,,,,,,,,,,4253.514999999998,,timeout,,,,,,2,,,,,,,O,S,I,,20394.400000095367,20390.097,16136.662,16144,16153.227,20406.742,,,
Judgement,html.Screen,1_3_0_1,2022-03-21T21:01:00.774Z,,,,,,,,,,,,,,,,,,,,,,,,,,,,true,2,1032.3580000238435,,response,,,,,,2,2,click #choice-2,,,,,O,S,I,,21440,21439.100000023842,20390.097,20394.800000071526,20406.742,21440.895,,,
Trial,flow.Sequence,1_3_0,2022-03-21T21:01:00.774Z,,,,,,,,,,,,,,,,,,,,,,,,,,,,,,5285.873000023841,,completion,,,,,,2,,,,,,,O,S,I,,21440.300000071526,21439.100000023842,16136.662,16144,16153.227,21440.895,,,
Sounds,html.Screen,1_3_1_0,2022-03-21T21:01:05.012Z,,,,,,,,,,,,,,,,,,,,,,,,,,,,,,4253.5,,timeout,,,,,,2,,,,,,,I,S,O,,25678.5,25677.695,21424.271,21440.400000095367,21440.895,25694.395,,,
Judgement,html.Screen,1_3_1_1,2022-03-21T21:01:05.486Z,,,,,,,,,,,,,,,,,,,,,,,,,,,,true,2,456.7050000238414,,response,,,,,,2,2,click #choice-2,,,,,I,S,O,,26151.900000095367,26151.100000023842,25677.695,25678.700000047684,25694.395,26161.387,,,
Trial,flow.Sequence,1_3_1,2022-03-21T21:01:05.486Z,,,,,,,,,,,,,,,,,,,,,,,,,,,,,,4710.205000023841,,completion,,,,,,2,,,,,,,I,S,O,,26152.200000047684,26151.100000023842,21424.271,21440.400000095367,21440.895,26161.387,,,
Sounds,html.Screen,1_3_2_0,2022-03-21T21:01:09.733Z,,,,,,,,,,,,,,,,,,,,,,,,,,,,,,4253.41,,timeout,,,,,,1,,,,,,,S,O,I,,30399.100000023842,30398.166,26144.741,26152.400000095367,26161.387,30414.797,,,
Judgement,html.Screen,1_3_2_1,2022-03-21T21:01:10.229Z,,,,,,,,,,,,,,,,,,,,,,,,,,,,true,1,480.20300000000134,,response,,,,,,1,1,click #choice-1,,,,,S,O,I,,30895.700000047684,30895,30398.166,30399.300000071526,30414.797,30898.534,,,
Trial,flow.Sequence,1_3_2,2022-03-21T21:01:10.230Z,,,,,,,,,,,,,,,,,,,,,,,,,,,,,,4733.613000000001,,completion,,,,,,1,,,,,,,S,O,I,,30895.900000095367,30895,26144.741,26152.300000071526,26161.387,30898.534,,,
Sounds,html.Screen,1_3_3_0,2022-03-21T21:01:14.470Z,,,,,,,,,,,,,,,,,,,,,,,,,,,,,,4253.508000000002,,timeout,,,,,,3,,,,,,,I,O,S,,35136.5,35135.289,30881.871,30896,30898.534,35152.042,,,
Judgement,html.Screen,1_3_3_1,2022-03-21T21:01:15.246Z,,,,,,,,,,,,,,,,,,,,,,,,,,,,true,3,759.0580000238406,,response,,,,,,3,3,click #choice-3,,,,,I,O,S,,35912,35911.10000002384,35135.289,35136.800000071526,35152.042,35919.16,,,
Trial,flow.Sequence,1_3_3,2022-03-21T21:01:15.246Z,,,,,,,,,,,,,,,,,,,,,,,,,,,,,,5012.566000023842,,completion,,,,,,3,,,,,,,I,O,S,,35912.10000002384,35911.10000002384,30881.871,30896,30898.534,35919.16,,,
Sounds,html.Screen,1_3_4_0,2022-03-21T21:01:19.491Z,,,,,,,,,,,,,,,,,,,,,,,,,,,,,,4253.581999999995,,timeout,,,,,,1,,,,,,,S,I,O,,40156.800000071526,40156.057,35902.617,35912.200000047684,35919.16,40172.742,,,
Judgement,html.Screen,1_3_4_1,2022-03-21T21:01:19.950Z,,,,,,,,,,,,,,,,,,,,,,,,,,,,true,1,442.3580000238435,,response,,,,,,1,1,click #choice-1,,,,,S,I,O,,40615.800000071526,40615.10000002384,40156.057,40157,40172.742,40623.042,,,
Trial,flow.Sequence,1_3_4,2022-03-21T21:01:19.950Z,,,,,,,,,,,,,,,,,,,,,,,,,,,,,,4695.940000023838,,completion,,,,,,1,,,,,,,S,I,O,,40616,40615.10000002384,35902.617,35912.200000047684,35919.16,40623.042,,,
Sounds,html.Screen,1_3_5_0,2022-03-21T21:01:24.194Z,,,,,,,,,,,,,,,,,,,,,,,,,,,,,,4253.493000000002,,timeout,,,,,,3,,,,,,,O,I,S,,44860.60000002384,44859.823,40606.414,40616.10000002384,40623.042,44876.535,,,
Judgement,html.Screen,1_3_5_1,2022-03-21T21:01:24.878Z,,,,,,,,,,,,,,,,,,,,,,,,,,,,true,3,666.6650000476802,,response,,,,,,3,3,click #choice-3,,,,,O,I,S,,45544.200000047684,45543.200000047684,44859.823,44860.800000071526,44876.535,45560.376,,,
Trial,flow.Sequence,1_3_5,2022-03-21T21:01:24.878Z,,,,,,,,,,,,,,,,,,,,,,,,,,,,,,4920.158000047682,,completion,,,,,,3,,,,,,,O,I,S,,45544.40000009537,45543.200000047684,40606.414,40616.10000002384,40623.042,45560.376,,,
Task,flow.Loop,1_3,2022-03-21T21:01:24.883Z,,,,,,,,,,,,,,,,,,,,,,,,,,,,,,29389.973000047685,,completion,,1,,,,,,,,,,,,,,,45549.200000047684,45543.200000047684,16136.662,16143.900000095367,16153.227,45560.376,,,
Trap,html.Screen,1_4,2022-03-21T21:01:24.884Z,,,,,,,,,,,,,,,,,,,,,,,,,,,,,,NaN,,skipped,,,,,,,,,,,,,,,,,45550.60000002384,45543.200000047684,,45550.5,,45560.376,,,
Thanks,html.Screen,1_5,2022-03-21T21:01:26.606Z,,,,,,,,,,,,,,,,,,,,,,,,,,,,,,1710.8240000476872,,response,,,,,,,continue,click button,,,,,,,,,47271.90000009537,47271.200000047684,45543.666,45550.700000047684,45560.376,48112.43,,,
Headphone screening,flow.Sequence,1,2022-03-21T21:01:26.606Z,,,,,,,,,,,,,,,,,,,,,,,,,,,,,,35705.066000047686,,completion,,,,,,,,,,,,,,,,,47272.10000002384,47271.200000047684,11549.629,11561,11566.134,48112.43,,,
Instructions,html.Page,2_0,2022-03-21T21:01:28.502Z,,,,,,,,,,,,,,,,,,,,,,,,,,,,,,1055.5699999999997,,form submission,,,,,,,,,,,,,,,,,49168.40000009537,49168,48095.664,48110.60000002384,48112.43,49179.885,,,
Holding screen,html.Screen,2_1_0_0,2022-03-21T21:01:38.515Z,,,,,,,,,,,,,,,,,,,,,,,,,,,,,,10008.208999999995,,timeout,,,,,,,,,,,,,,,,,59180.800000071526,59171.403,49163.318,49168.700000047684,49179.885,59188.094,,,
screen,html.Screen,2_1_0_1_0,2022-03-21T21:01:40.268Z,,,,,,,,,,,,,,,,,53,,,,,,,,,,,,,1741.6060000476864,,response,,,99,,,,Space,keypress(Space),,,,,,,,When -- ----- -- ------ - ------- --- ----------<br>------------- ------ ------ ---- ---- ------- ----- -- ----<br>-------- ------- -- ---------- --- - --- ----- ----- ----<br>---- --- --- ----- --- ---- ---- ------- ----- ---- -------<br>--- --- -- ----- -- --- ---- -- --- ---- -- ------ ------<br>--- ----- -- ----,60934.5,60929.700000047684,59171.403,59181.200000047684,59188.094,60939.495,,0,When
screen,html.Screen,2_1_0_1_1,2022-03-21T21:01:40.536Z,,,,,,,,,,,,,,,,,53,,,,,,,,,,,,,261.60500002383924,,response,,,99,,,,Space,keypress(Space),,,,,,,,---- it ----- -- ------ - ------- --- ----------<br>------------- ------ ------ ---- ---- ------- ----- -- ----<br>-------- ------- -- ---------- --- - --- ----- ----- ----<br>---- --- --- ----- --- ---- ---- ------- ----- ---- -------<br>--- --- -- ----- -- --- ---- -- --- ---- -- ------ ------<br>--- ----- -- ----,61201.90000009537,61201.10000002384,60922.806,60934.800000071526,60939.495,61223.063,,1,it
screen,html.Screen,2_1_0_1_2,2022-03-21T21:01:40.768Z,,,,,,,,,,,,,,,,,53,,,,,,,,,,,,,210.1370000476818,,response,,,99,,,,Space,keypress(Space),,,,,,,,---- -- comes -- ------ - ------- --- ----------<br>------------- ------ ------ ---- ---- ------- ----- -- ----<br>-------- ------- -- ---------- --- - --- ----- ----- ----<br>---- --- --- ----- --- ---- ---- ------- ----- ---- -------<br>--- --- -- ----- -- --- ---- -- --- ---- -- ------ ------<br>--- ----- -- ----,61433.800000071526,61433.200000047684,61206.253,61202.10000002384,61223.063,61439.704,,2,comes
screen,html.Screen,2_1_0_1_3,2022-03-21T21:01:41.039Z,,,,,,,,,,,,,,,,,53,,,,,,,,,,,,,265.2960000000021,,response,,,99,,,,Space,keypress(Space),,,,,,,,---- -- ----- to ------ - ------- --- ----------<br>------------- ------ ------ ---- ---- ------- ----- -- ----<br>-------- ------- -- ---------- --- - --- ----- ----- ----<br>---- --- --- ----- --- ---- ---- ------- ----- ---- -------<br>--- --- -- ----- -- --- ---- -- --- ---- -- ------ ------<br>--- ----- -- ----,61705.5,61705,61423.162,61434,61439.704,61723.5,,3,to
screen,html.Screen,2_1_0_1_4,2022-03-21T21:01:41.545Z,,,,,,,,,,,,,,,,,53,,,,,,,,,,,,,486.7000000476837,,response,,,99,,,,Space,keypress(Space),,,,,,,,---- -- ----- -- having - ------- --- ----------<br>------------- ------ ------ ---- ---- ------- ----- -- ----<br>-------- ------- -- ---------- --- - --- ----- ----- ----<br>---- --- --- ----- --- ---- ---- ------- ----- ---- -------<br>--- --- -- ----- -- --- ---- -- --- ---- -- ------ ------<br>--- ----- -- ----,62211,62210.200000047684,61706.79,61705.60000002384,61723.5,62240.576,,4,having
screen,html.Screen,2_1_0_1_5,2022-03-21T21:01:41.576Z,,,,,,,,,,,,,,,,,53,,,,,,,,,,,,,1.0240000238409266,,response,,,99,,,,Space,keypress(Space),,,,,,,,---- -- ----- -- ------ a ------- --- ----------<br>------------- ------ ------ ---- ---- ------- ----- -- ----<br>-------- ------- -- ---------- --- - --- ----- ----- ----<br>---- --- --- ----- --- ---- ---- ------- ----- ---- -------<br>--- --- -- ----- -- --- ---- -- --- ---- -- ------ ------<br>--- ----- -- ----,62242.10000002384,62241.60000002384,62223.816,62211.200000047684,62240.576,62273.887,,5,a
screen,html.Screen,2_1_0_1_6,2022-03-21T21:01:41.608Z,,,,,,,,,,,,,,,,,53,,,,,,,,,,,,,16.27000009537005,,response,,,99,,,,Space,keypress(Space),,,,,,,,---- -- ----- -- ------ - lasting --- ----------<br>------------- ------ ------ ---- ---- ------- ----- -- ----<br>-------- ------- -- ---------- --- - --- ----- ----- ----<br>---- --- --- ----- --- ---- ---- ------- ----- ---- -------<br>--- --- -- ----- -- --- ---- -- --- ---- -- ------ ------<br>--- ----- -- ----,62274.300000071526,62273.40000009537,62257.13,62242.300000071526,,62290.617,,6,lasting
screen,html.Screen,2_1_0_1_7,2022-03-21T21:01:41.639Z,,,,,,,,,,,,,,,,,53,,,,,,,,,,,,,14.183000071527204,,response,,,99,,,,Space,keypress(Space),,,,,,,,---- -- ----- -- ------ - ------- and ----------<br>------------- ------ ------ ---- ---- ------- ----- -- ----<br>-------- ------- -- ---------- --- - --- ----- ----- ----<br>---- --- --- ----- --- ---- ---- ------- ----- ---- -------<br>--- --- -- ----- -- --- ---- -- --- ---- -- ------ ------<br>--- ----- -- ----,62305.60000002384,62304.800000071526,62273.887,62274.60000002384,62290.617,62323.972,,7,and
screen,html.Screen,2_1_0_1_8,2022-03-21T21:01:41.686Z,,,,,,,,,,,,,,,,,53,,,,,,,,,,,,,27.42800009536586,,response,,,99,,,,Space,keypress(Space),,,,,,,,---- -- ----- -- ------ - ------- --- fulfilling<br>------------- ------ ------ ---- ---- ------- ----- -- ----<br>-------- ------- -- ---------- --- - --- ----- ----- ----<br>---- --- --- ----- --- ---- ---- ------- ----- ---- -------<br>--- --- -- ----- -- --- ---- -- --- ---- -- ------ ------<br>--- ----- -- ----,62352.200000047684,62351.40000009537,62307.263,62305.800000071526,62323.972,62374.003,,8,fulfilling
screen,html.Screen,2_1_0_1_9,2022-03-21T21:01:41.718Z,,,,,,,,,,,,,,,,,53,,,,,,,,,,,,,9.697000047686743,,response,,,99,,,,Space,keypress(Space),,,,,,,,"---- -- ----- -- ------ - ------- --- ----------<br>relationship, ------ ------ ---- ---- ------- ----- -- ----<br>-------- ------- -- ---------- --- - --- ----- ----- ----<br>---- --- --- ----- --- ---- ---- ------- ----- ---- -------<br>--- --- -- ----- -- --- ---- -- --- ---- -- ------ ------<br>--- ----- -- ----",62384.5,62383.700000047684,62357.303,62352.40000009537,62374.003,62407.399,,9,"relationship,"
screen,html.Screen,2_1_0_1_10,2022-03-21T21:01:41.749Z,,,,,,,,,,,,,,,,,53,,,,,,,,,,,,,7.301000047686102,,response,,,99,,,,Space,keypress(Space),,,,,,,,---- -- ----- -- ------ - ------- --- ----------<br>------------- common ------ ---- ---- ------- ----- -- ----<br>-------- ------- -- ---------- --- - --- ----- ----- ----<br>---- --- --- ----- --- ---- ---- ------- ----- ---- -------<br>--- --- -- ----- -- --- ---- -- --- ---- -- ------ ------<br>--- ----- -- ----,62415.40000009537,62414.700000047684,62390.654,62384.700000047684,62407.399,62440.746,,10,common
screen,html.Screen,2_1_0_1_11,2022-03-21T21:01:41.781Z,,,,,,,,,,,,,,,,,53,,,,,,,,,,,,,5.554000071526389,,response,,,99,,,,Space,keypress(Space),,,,,,,,---- -- ----- -- ------ - ------- --- ----------<br>------------- ------ wisdom ---- ---- ------- ----- -- ----<br>-------- ------- -- ---------- --- - --- ----- ----- ----<br>---- --- --- ----- --- ---- ---- ------- ----- ---- -------<br>--- --- -- ----- -- --- ---- -- --- ---- -- ------ ------<br>--- ----- -- ----,62447,62446.300000071526,62424.041,62415.700000047684,62440.746,62474.103,,11,wisdom
screen,html.Screen,2_1_0_1_12,2022-03-21T21:01:41.811Z,,,,,,,,,,,,,,,,,53,,,,,,,,,,,,,2.6970000715227798,,response,,,99,,,,Space,keypress(Space),,,,,,,,---- -- ----- -- ------ - ------- --- ----------<br>------------- ------ ------ says ---- ------- ----- -- ----<br>-------- ------- -- ---------- --- - --- ----- ----- ----<br>---- --- --- ----- --- ---- ---- ------- ----- ---- -------<br>--- --- -- ----- -- --- ---- -- --- ---- -- ------ ------<br>--- ----- -- ----,62477.40000009537,62476.800000071526,62457.395,62447.200000047684,62474.103,62507.452,,12,says
screen,html.Screen,2_1_0_1_13,2022-03-21T21:01:41.844Z,,,,,,,,,,,,,,,,,53,,,,,,,,,,,,,1.8480000715280767,,response,,,99,,,,Space,keypress(Space),,,,,,,,---- -- ----- -- ------ - ------- --- ----------<br>------------- ------ ------ ---- that ------- ----- -- ----<br>-------- ------- -- ---------- --- - --- ----- ----- ----<br>---- --- --- ----- --- ---- ---- ------- ----- ---- -------<br>--- --- -- ----- -- --- ---- -- --- ---- -- ------ ------<br>--- ----- -- ----,62509.90000009537,62509.300000071526,62490.74,62477.60000002384,62507.452,62540.775,,13,that
screen,html.Screen,2_1_0_1_14,2022-03-21T21:01:41.875Z,,,,,,,,,,,,,,,,,53,,,,,,,,,,,,,16.323000095369935,,response,,,99,,,,Space,keypress(Space),,,,,,,,---- -- ----- -- ------ - ------- --- ----------<br>------------- ------ ------ ---- ---- feeling ----- -- ----<br>-------- ------- -- ---------- --- - --- ----- ----- ----<br>---- --- --- ----- --- ---- ---- ------- ----- ---- -------<br>--- --- -- ----- -- --- ---- -- --- ---- -- ------ ------<br>--- ----- -- ----,62541,62540.40000009537,62524.077,62510.10000002384,,62557.499,,14,feeling
screen,html.Screen,2_1_0_1_15,2022-03-21T21:01:41.907Z,,,,,,,,,,,,,,,,,53,,,,,,,,,,,,,14.601000023838424,,response,,,99,,,,Space,keypress(Space),,,,,,,,---- -- ----- -- ------ - ------- --- ----------<br>------------- ------ ------ ---- ---- ------- close -- ----<br>-------- ------- -- ---------- --- - --- ----- ----- ----<br>---- --- --- ----- --- ---- ---- ------- ----- ---- -------<br>--- --- -- ----- -- --- ---- -- --- ---- -- ------ ------<br>--- ----- -- ----,62572.800000071526,62572.10000002384,62540.775,62541.200000047684,62557.499,62590.859,,15,close
screen,html.Screen,2_1_0_1_16,2022-03-21T21:01:41.936Z,,,,,,,,,,,,,,,,,53,,,,,,,,,,,,,10.941000071528833,,response,,,99,,,,Space,keypress(Space),,,,,,,,---- -- ----- -- ------ - ------- --- ----------<br>------------- ------ ------ ---- ---- ------- ----- to ----<br>-------- ------- -- ---------- --- - --- ----- ----- ----<br>---- --- --- ----- --- ---- ---- ------- ----- ---- -------<br>--- --- -- ----- -- --- ---- -- --- ---- -- ------ ------<br>--- ----- -- ----,62602.40000009537,62601.800000071526,62574.128,62572.90000009537,62590.859,62624.167,,16,to
screen,html.Screen,2_1_0_1_17,2022-03-21T21:01:41.982Z,,,,,,,,,,,,,,,,,53,,,,,,,,,,,,,23.633000071524293,,response,,,99,,,,Space,keypress(Space),,,,,,,,---- -- ----- -- ------ - ------- --- ----------<br>------------- ------ ------ ---- ---- ------- ----- -- your<br>-------- ------- -- ---------- --- - --- ----- ----- ----<br>---- --- --- ----- --- ---- ---- ------- ----- ---- -------<br>--- --- -- ----- -- --- ---- -- --- ---- -- ------ ------<br>--- ----- -- ----,62648.40000009537,62647.800000071526,62607.501,62602.60000002384,62624.167,62657.424,,17,your
screen,html.Screen,2_1_0_1_18,2022-03-21T21:01:42.013Z,,,,,,,,,,,,,,,,,53,,,,,,,,,,,,,20.876000071526505,,response,,,99,,,,Space,keypress(Space),,,,,,,,---- -- ----- -- ------ - ------- --- ----------<br>------------- ------ ------ ---- ---- ------- ----- -- ----<br>romantic ------- -- ---------- --- - --- ----- ----- ----<br>---- --- --- ----- --- ---- ---- ------- ----- ---- -------<br>--- --- -- ----- -- --- ---- -- --- ---- -- ------ ------<br>--- ----- -- ----,62678.90000009537,62678.300000071526,62640.817,62648.5,62657.424,62690.841,,18,romantic
screen,html.Screen,2_1_0_1_19,2022-03-21T21:01:42.044Z,,,,,,,,,,,,,,,,,53,,,,,,,,,,,,,18.559000095367082,,response,,,99,,,,Space,keypress(Space),,,,,,,,---- -- ----- -- ------ - ------- --- ----------<br>------------- ------ ------ ---- ---- ------- ----- -- ----<br>-------- partner -- ---------- --- - --- ----- ----- ----<br>---- --- --- ----- --- ---- ---- ------- ----- ---- -------<br>--- --- -- ----- -- --- ---- -- --- ---- -- ------ ------<br>--- ----- -- ----,62710.10000002384,62709.40000009537,62674.178,62679.10000002384,62690.841,62724.286,,19,partner
screen,html.Screen,2_1_0_1_20,2022-03-21T21:01:42.074Z,,,,,,,,,,,,,,,,,53,,,,,,,,,,,,,15.414000047683658,,response,,,99,,,,Space,keypress(Space),,,,,,,,---- -- ----- -- ------ - ------- --- ----------<br>------------- ------ ------ ---- ---- ------- ----- -- ----<br>-------- ------- is ---------- --- - --- ----- ----- ----<br>---- --- --- ----- --- ---- ---- ------- ----- ---- -------<br>--- --- -- ----- -- --- ---- -- --- ---- -- ------ ------<br>--- ----- -- ----,62740.300000071526,62739.700000047684,62707.575,62710.200000047684,62724.286,62757.657,,20,is
screen,html.Screen,2_1_0_1_21,2022-03-21T21:01:42.105Z,,,,,,,,,,,,,,,,,53,,,,,,,,,,,,,13.343000000000757,,response,,,99,,,,Space,keypress(Space),,,,,,,,---- -- ----- -- ------ - ------- --- ----------<br>------------- ------ ------ ---- ---- ------- ----- -- ----<br>-------- ------- -- paramount. --- - --- ----- ----- ----<br>---- --- --- ----- --- ---- ---- ------- ----- ---- -------<br>--- --- -- ----- -- --- ---- -- --- ---- -- ------ ------<br>--- ----- -- ----,62771.60000002384,62771,62740.937,62740.5,62757.657,62791.02,,21,paramount.
screen,html.Screen,2_1_0_1_22,2022-03-21T21:01:42.137Z,,,,,,,,,,,,,,,,,53,,,,,,,,,,,,,11.08000002384506,,response,,,99,,,,Space,keypress(Space),,,,,,,,---- -- ----- -- ------ - ------- --- ----------<br>------------- ------ ------ ---- ---- ------- ----- -- ----<br>-------- ------- -- ---------- But - --- ----- ----- ----<br>---- --- --- ----- --- ---- ---- ------- ----- ---- -------<br>--- --- -- ----- -- --- ---- -- --- ---- -- ------ ------<br>--- ----- -- ----,62802.800000071526,62802.10000002384,62774.305,62771.90000009537,62791.02,62824.382,,22,But
screen,html.Screen,2_1_0_1_23,2022-03-21T21:01:42.166Z,,,,,,,,,,,,,,,,,53,,,,,,,,,,,,,7.418000071527786,,response,,,99,,,,Space,keypress(Space),,,,,,,,---- -- ----- -- ------ - ------- --- ----------<br>------------- ------ ------ ---- ---- ------- ----- -- ----<br>-------- ------- -- ---------- --- a --- ----- ----- ----<br>---- --- --- ----- --- ---- ---- ------- ----- ---- -------<br>--- --- -- ----- -- --- ---- -- --- ---- -- ------ ------<br>--- ----- -- ----,62832.40000009537,62831.800000071526,62807.679,62802.90000009537,62824.382,62857.741,,23,a
screen,html.Screen,2_1_0_1_24,2022-03-21T21:01:42.212Z,,,,,,,,,,,,,,,,,53,,,,,,,,,,,,,20.05900007152377,,response,,,99,,,,Space,keypress(Space),,,,,,,,---- -- ----- -- ------ - ------- --- ----------<br>------------- ------ ------ ---- ---- ------- ----- -- ----<br>-------- ------- -- ---------- --- - new ----- ----- ----<br>---- --- --- ----- --- ---- ---- ------- ----- ---- -------<br>--- --- -- ----- -- --- ---- -- --- ---- -- ------ ------<br>--- ----- -- ----,62878.5,62877.800000071526,62841.023,62832.60000002384,62857.741,62891.096,,24,new
screen,html.Screen,2_1_0_1_25,2022-03-21T21:01:42.242Z,,,,,,,,,,,,,,,,,53,,,,,,,,,,,,,16.504000023844128,,response,,,99,,,,Space,keypress(Space),,,,,,,,---- -- ----- -- ------ - ------- --- ----------<br>------------- ------ ------ ---- ---- ------- ----- -- ----<br>-------- ------- -- ---------- --- - --- study ----- ----<br>---- --- --- ----- --- ---- ---- ------- ----- ---- -------<br>--- --- -- ----- -- --- ---- -- --- ---- -- ------ ------<br>--- ----- -- ----,62908.40000009537,62907.60000002384,62874.401,62878.60000002384,62891.096,62924.453,,25,study
screen,html.Screen,2_1_0_1_26,2022-03-21T21:01:42.274Z,,,,,,,,,,,,,,,,,53,,,,,,,,,,,,,14.747000047682377,,response,,,99,,,,Space,keypress(Space),,,,,,,,---- -- ----- -- ------ - ------- --- ----------<br>------------- ------ ------ ---- ---- ------- ----- -- ----<br>-------- ------- -- ---------- --- - --- ----- finds ----<br>---- --- --- ----- --- ---- ---- ------- ----- ---- -------<br>--- --- -- ----- -- --- ---- -- --- ---- -- ------ ------<br>--- ----- -- ----,62939.700000047684,62939.200000047684,62907.742,62908.5,62924.453,62957.821,,26,finds
screen,html.Screen,2_1_0_1_27,2022-03-21T21:01:42.303Z,,,,,,,,,,,,,,,,,53,,,,,,,,,,,,,11.079000095363881,,response,,,99,,,,Space,keypress(Space),,,,,,,,---- -- ----- -- ------ - ------- --- ----------<br>------------- ------ ------ ---- ---- ------- ----- -- ----<br>-------- ------- -- ---------- --- - --- ----- ----- that<br>---- --- --- ----- --- ---- ---- ------- ----- ---- -------<br>--- --- -- ----- -- --- ---- -- --- ---- -- ------ ------<br>--- ----- -- ----,62969.60000002384,62968.90000009537,62941.102,62939.90000009537,62957.821,62991.18,,27,that
screen,html.Screen,2_1_0_1_28,2022-03-21T21:01:42.334Z,,,,,,,,,,,,,,,,,53,,,,,,,,,,,,,8.22000009536714,,response,,,99,,,,Space,keypress(Space),,,,,,,,---- -- ----- -- ------ - ------- --- ----------<br>------------- ------ ------ ---- ---- ------- ----- -- ----<br>-------- ------- -- ---------- --- - --- ----- ----- ----<br>it's --- --- ----- --- ---- ---- ------- ----- ---- -------<br>--- --- -- ----- -- --- ---- -- --- ---- -- ------ ------<br>--- ----- -- ----,62999.90000009537,62999.40000009537,62974.487,62969.800000071526,62991.18,63024.539,,28,it's
screen,html.Screen,2_1_0_1_29,2022-03-21T21:01:42.364Z,,,,,,,,,,,,,,,,,53,,,,,,,,,,,,,5.5610000238448265,,response,,,99,,,,Space,keypress(Space),,,,,,,,---- -- ----- -- ------ - ------- --- ----------<br>------------- ------ ------ ---- ---- ------- ----- -- ----<br>-------- ------- -- ---------- --- - --- ----- ----- ----<br>---- not --- ----- --- ---- ---- ------- ----- ---- -------<br>--- --- -- ----- -- --- ---- -- --- ---- -- ------ ------<br>--- ----- -- ----,63030.60000002384,63030.10000002384,63007.819,63000.10000002384,63024.539,63057.908,,29,not
screen,html.Screen,2_1_0_1_30,2022-03-21T21:01:42.411Z,,,,,,,,,,,,,,,,,53,,,,,,,,,,,,,19.192000023838773,,response,,,99,,,,Space,keypress(Space),,,,,,,,---- -- ----- -- ------ - ------- --- ----------<br>------------- ------ ------ ---- ---- ------- ----- -- ----<br>-------- ------- -- ---------- --- - --- ----- ----- ----<br>---- --- how ----- --- ---- ---- ------- ----- ---- -------<br>--- --- -- ----- -- --- ---- -- --- ---- -- ------ ------<br>--- ----- -- ----,63077.60000002384,63077.10000002384,63041.18,63030.800000071526,63057.908,63091.263,,30,how
screen,html.Screen,2_1_0_1_31,2022-03-21T21:01:42.442Z,,,,,,,,,,,,,,,,,53,,,,,,,,,,,,,15.837000023842847,,response,,,99,,,,Space,keypress(Space),,,,,,,,---- -- ----- -- ------ - ------- --- ----------<br>------------- ------ ------ ---- ---- ------- ----- -- ----<br>-------- ------- -- ---------- --- - --- ----- ----- ----<br>---- --- --- close --- ---- ---- ------- ----- ---- -------<br>--- --- -- ----- -- --- ---- -- --- ---- -- ------ ------<br>--- ----- -- ----,63107.700000047684,63107.10000002384,63074.539,63077.700000047684,63091.263,63124.621,,31,close
screen,html.Screen,2_1_0_1_32,2022-03-21T21:01:42.473Z,,,,,,,,,,,,,,,,,53,,,,,,,,,,,,,13.679000071526389,,response,,,99,,,,Space,keypress(Space),,,,,,,,---- -- ----- -- ------ - ------- --- ----------<br>------------- ------ ------ ---- ---- ------- ----- -- ----<br>-------- ------- -- ---------- --- - --- ----- ----- ----<br>---- --- --- ----- you ---- ---- ------- ----- ---- -------<br>--- --- -- ----- -- --- ---- -- --- ---- -- ------ ------<br>--- ----- -- ----,63139,63138.300000071526,63107.902,63108,63124.621,63157.987,,32,you
screen,html.Screen,2_1_0_1_33,2022-03-21T21:01:42.503Z,,,,,,,,,,,,,,,,,53,,,,,,,,,,,,,10.213000047682726,,response,,,99,,,,Space,keypress(Space),,,,,,,,---- -- ----- -- ------ - ------- --- ----------<br>------------- ------ ------ ---- ---- ------- ----- -- ----<br>-------- ------- -- ---------- --- - --- ----- ----- ----<br>---- --- --- ----- --- feel ---- ------- ----- ---- -------<br>--- --- -- ----- -- --- ---- -- --- ---- -- ------ ------<br>--- ----- -- ----,63168.90000009537,63168.200000047684,63141.271,63139.200000047684,63157.987,63191.296,,33,feel
screen,html.Screen,2_1_0_1_34,2022-03-21T21:01:42.535Z,,,,,,,,,,,,,,,,,53,,,,,,,,,,,,,8.703999999997905,,response,,,99,,,,Space,keypress(Space),,,,,,,,---- -- ----- -- ------ - ------- --- ----------<br>------------- ------ ------ ---- ---- ------- ----- -- ----<br>-------- ------- -- ---------- --- - --- ----- ----- ----<br>---- --- --- ----- --- ---- that ------- ----- ---- -------<br>--- --- -- ----- -- --- ---- -- --- ---- -- ------ ------<br>--- ----- -- ----,63200.800000071526,63200,63174.645,63169,63191.296,63224.723,,34,that
screen,html.Screen,2_1_0_1_35,2022-03-21T21:01:42.566Z,,,,,,,,,,,,,,,,,53,,,,,,,,,,,,,6.677000095369294,,response,,,99,,,,Space,keypress(Space),,,,,,,,---- -- ----- -- ------ - ------- --- ----------<br>------------- ------ ------ ---- ---- ------- ----- -- ----<br>-------- ------- -- ---------- --- - --- ----- ----- ----<br>---- --- --- ----- --- ---- ---- matters ----- ---- -------<br>--- --- -- ----- -- --- ---- -- --- ---- -- ------ ------<br>--- ----- -- ----,63232.200000047684,63231.40000009537,63207.99,63200.90000009537,63224.723,63258.066,,35,matters
screen,html.Screen,2_1_0_1_36,2022-03-21T21:01:42.598Z,,,,,,,,,,,,,,,,,53,,,,,,,,,,,,,5.434000000001106,,response,,,99,,,,Space,keypress(Space),,,,,,,,"---- -- ----- -- ------ - ------- --- ----------<br>------------- ------ ------ ---- ---- ------- ----- -- ----<br>-------- ------- -- ---------- --- - --- ----- ----- ----<br>---- --- --- ----- --- ---- ---- ------- most, ---- -------<br>--- --- -- ----- -- --- ---- -- --- ---- -- ------ ------<br>--- ----- -- ----",63264.200000047684,63263.5,63241.352,63232.40000009537,63258.066,63291.422,,36,"most,"
screen,html.Screen,2_1_0_1_37,2022-03-21T21:01:42.629Z,,,,,,,,,,,,,,,,,53,,,,,,,,,,,,,3.5780000000013388,,response,,,99,,,,Space,keypress(Space),,,,,,,,---- -- ----- -- ------ - ------- --- ----------<br>------------- ------ ------ ---- ---- ------- ----- -- ----<br>-------- ------- -- ---------- --- - --- ----- ----- ----<br>---- --- --- ----- --- ---- ---- ------- ----- it's -------<br>--- --- -- ----- -- --- ---- -- --- ---- -- ------ ------<br>--- ----- -- ----,63295.60000002384,63295,63274.716,63264.300000071526,63291.422,63324.781,,37,it's
screen,html.Screen,2_1_0_1_38,2022-03-21T21:01:42.662Z,,,,,,,,,,,,,,,,,53,,,,,,,,,,,,,2.3190000238391804,,response,,,99,,,,Space,keypress(Space),,,,,,,,---- -- ----- -- ------ - ------- --- ----------<br>------------- ------ ------ ---- ---- ------- ----- -- ----<br>-------- ------- -- ---------- --- - --- ----- ----- ----<br>---- --- --- ----- --- ---- ---- ------- ----- ---- whether<br>--- --- -- ----- -- --- ---- -- --- ---- -- ------ ------<br>--- ----- -- ----,63327.800000071526,63327.10000002384,63308.061,63295.90000009537,63324.781,63358.092,,38,whether
screen,html.Screen,2_1_0_1_39,2022-03-21T21:01:42.709Z,,,,,,,,,,,,,,,,,53,,,,,,,,,,,,,16.508000023844943,,response,,,99,,,,Space,keypress(Space),,,,,,,,---- -- ----- -- ------ - ------- --- ----------<br>------------- ------ ------ ---- ---- ------- ----- -- ----<br>-------- ------- -- ---------- --- - --- ----- ----- ----<br>---- --- --- ----- --- ---- ---- ------- ----- ---- -------<br>you --- -- ----- -- --- ---- -- --- ---- -- ------ ------<br>--- ----- -- ----,63375.200000047684,63374.60000002384,63341.424,63328,63358.092,63391.436,,39,you
screen,html.Screen,2_1_0_1_40,2022-03-21T21:01:42.741Z,,,,,,,,,,,,,,,,,53,,,,,,,,,,,,,14.86400007152406,,response,,,99,,,,Space,keypress(Space),,,,,,,,---- -- ----- -- ------ - ------- --- ----------<br>------------- ------ ------ ---- ---- ------- ----- -- ----<br>-------- ------- -- ---------- --- - --- ----- ----- ----<br>---- --- --- ----- --- ---- ---- ------- ----- ---- -------<br>--- are -- ----- -- --- ---- -- --- ---- -- ------ ------<br>--- ----- -- ----,63407,63406.300000071526,63374.622,63375.40000009537,63391.436,63424.798,,40,are
screen,html.Screen,2_1_0_1_41,2022-03-21T21:01:42.773Z,,,,,,,,,,,,,,,,,53,,,,,,,,,,,,,13.701999999997497,,response,,,99,,,,Space,keypress(Space),,,,,,,,---- -- ----- -- ------ - ------- --- ----------<br>------------- ------ ------ ---- ---- ------- ----- -- ----<br>-------- ------- -- ---------- --- - --- ----- ----- ----<br>---- --- --- ----- --- ---- ---- ------- ----- ---- -------<br>--- --- as ----- -- --- ---- -- --- ---- -- ------ ------<br>--- ----- -- ----,63439.10000002384,63438.5,63408.087,63407.200000047684,63424.798,63458.217,,41,as
screen,html.Screen,2_1_0_1_42,2022-03-21T21:01:42.804Z,,,,,,,,,,,,,,,,,53,,,,,,,,,,,,,10.9830000476868,,response,,,99,,,,Space,keypress(Space),,,,,,,,---- -- ----- -- ------ - ------- --- ----------<br>------------- ------ ------ ---- ---- ------- ----- -- ----<br>-------- ------- -- ---------- --- - --- ----- ----- ----<br>---- --- --- ----- --- ---- ---- ------- ----- ---- -------<br>--- --- -- close -- --- ---- -- --- ---- -- ------ ------<br>--- ----- -- ----,63469.90000009537,63469.200000047684,63441.5,63439.300000071526,63458.217,63491.582,,42,close
screen,html.Screen,2_1_0_1_43,2022-03-21T21:01:42.836Z,,,,,,,,,,,,,,,,,53,,,,,,,,,,,,,10.21800007152342,,response,,,99,,,,Space,keypress(Space),,,,,,,,---- -- ----- -- ------ - ------- --- ----------<br>------------- ------ ------ ---- ---- ------- ----- -- ----<br>-------- ------- -- ---------- --- - --- ----- ----- ----<br>---- --- --- ----- --- ---- ---- ------- ----- ---- -------<br>--- --- -- ----- as --- ---- -- --- ---- -- ------ ------<br>--- ----- -- ----,63502.5,63501.800000071526,63474.853,63470.10000002384,63491.582,63524.927,,43,as
screen,html.Screen,2_1_0_1_44,2022-03-21T21:01:42.868Z,,,,,,,,,,,,,,,,,53,,,,,,,,,,,,,8.273000047680398,,response,,,99,,,,Space,keypress(Space),,,,,,,,---- -- ----- -- ------ - ------- --- ----------<br>------------- ------ ------ ---- ---- ------- ----- -- ----<br>-------- ------- -- ---------- --- - --- ----- ----- ----<br>---- --- --- ----- --- ---- ---- ------- ----- ---- -------<br>--- --- -- ----- -- you ---- -- --- ---- -- ------ ------<br>--- ----- -- ----,63533.90000009537,63533.200000047684,63508.219,63502.60000002384,63524.927,63558.232,,44,you
screen,html.Screen,2_1_0_1_45,2022-03-21T21:01:42.900Z,,,,,,,,,,,,,,,,,53,,,,,,,,,,,,,7.168000095363823,,response,,,99,,,,Space,keypress(Space),,,,,,,,---- -- ----- -- ------ - ------- --- ----------<br>------------- ------ ------ ---- ---- ------- ----- -- ----<br>-------- ------- -- ---------- --- - --- ----- ----- ----<br>---- --- --- ----- --- ---- ---- ------- ----- ---- -------<br>--- --- -- ----- -- --- want -- --- ---- -- ------ ------<br>--- ----- -- ----,63566,63565.40000009537,63541.58,63534,63558.232,63591.599,,45,want
screen,html.Screen,2_1_0_1_46,2022-03-21T21:01:42.931Z,,,,,,,,,,,,,,,,,53,,,,,,,,,,,,,5.400999999998021,,response,,,99,,,,Space,keypress(Space),,,,,,,,---- -- ----- -- ------ - ------- --- ----------<br>------------- ------ ------ ---- ---- ------- ----- -- ----<br>-------- ------- -- ---------- --- - --- ----- ----- ----<br>---- --- --- ----- --- ---- ---- ------- ----- ---- -------<br>--- --- -- ----- -- --- ---- to --- ---- -- ------ ------<br>--- ----- -- ----,63597.60000002384,63597,63574.929,63566.200000047684,63591.599,63624.892,,46,to
screen,html.Screen,2_1_0_1_47,2022-03-21T21:01:42.963Z,,,,,,,,,,,,,,,,,53,,,,,,,,,,,,,4.008000095367606,,response,,,99,,,,Space,keypress(Space),,,,,,,,"---- -- ----- -- ------ - ------- --- ----------<br>------------- ------ ------ ---- ---- ------- ----- -- ----<br>-------- ------- -- ---------- --- - --- ----- ----- ----<br>---- --- --- ----- --- ---- ---- ------- ----- ---- -------<br>--- --- -- ----- -- --- ---- -- be, ---- -- ------ ------<br>--- ----- -- ----",63629.5,63628.90000009537,63608.305,63597.800000071526,63624.892,63658.315,,47,"be,"
screen,html.Screen,2_1_0_1_48,2022-03-21T21:01:42.995Z,,,,,,,,,,,,,,,,,53,,,,,,,,,,,,,2.3850000476813875,,response,,,99,,,,Space,keypress(Space),,,,,,,,---- -- ----- -- ------ - ------- --- ----------<br>------------- ------ ------ ---- ---- ------- ----- -- ----<br>-------- ------- -- ---------- --- - --- ----- ----- ----<br>---- --- --- ----- --- ---- ---- ------- ----- ---- -------<br>--- --- -- ----- -- --- ---- -- --- even -- ------ ------<br>--- ----- -- ----,63661.300000071526,63660.700000047684,63641.609,63629.800000071526,63658.315,63691.731,,48,even
screen,html.Screen,2_1_0_1_49,2022-03-21T21:01:43.027Z,,,,,,,,,,,,,,,,,53,,,,,,,,,,,,,1.1690000953676645,,response,,,99,,,,Space,keypress(Space),,,,,,,,---- -- ----- -- ------ - ------- --- ----------<br>------------- ------ ------ ---- ---- ------- ----- -- ----<br>-------- ------- -- ---------- --- - --- ----- ----- ----<br>---- --- --- ----- --- ---- ---- ------- ----- ---- -------<br>--- --- -- ----- -- --- ---- -- --- ---- if ------ ------<br>--- ----- -- ----,63693.5,63692.90000009537,63675.014,63661.5,63691.731,63725.06,,49,if
screen,html.Screen,2_1_0_1_50,2022-03-21T21:01:43.059Z,,,,,,,,,,,,,,,,,53,,,,,,,,,,,,,16.160000000003492,,response,,,99,,,,Space,keypress(Space),,,,,,,,---- -- ----- -- ------ - ------- --- ----------<br>------------- ------ ------ ---- ---- ------- ----- -- ----<br>-------- ------- -- ---------- --- - --- ----- ----- ----<br>---- --- --- ----- --- ---- ---- ------- ----- ---- -------<br>--- --- -- ----- -- --- ---- -- --- ---- -- that's ------<br>--- ----- -- ----,63725.300000071526,63724.5,63708.34,63693.700000047684,,63741.718,,50,that's
screen,html.Screen,2_1_0_1_51,2022-03-21T21:01:43.091Z,,,,,,,,,,,,,,,,,53,,,,,,,,,,,,,14.882000023841101,,response,,,99,,,,Space,keypress(Space),,,,,,,,---- -- ----- -- ------ - ------- --- ----------<br>------------- ------ ------ ---- ---- ------- ----- -- ----<br>-------- ------- -- ---------- --- - --- ----- ----- ----<br>---- --- --- ----- --- ---- ---- ------- ----- ---- -------<br>--- --- -- ----- -- --- ---- -- --- ---- -- ------ really<br>--- ----- -- ----,63757.40000009537,63756.60000002384,63725.06,63725.40000009537,63741.718,63775.129,,51,really
screen,html.Screen,2_1_0_1_52,2022-03-21T21:01:43.408Z,,,,,,,,,,,,,,,,,53,,,,,,,,,,,,,298.0710000476829,,response,,,99,,,,Space,keypress(Space),,,,,,,,---- -- ----- -- ------ - ------- --- ----------<br>------------- ------ ------ ---- ---- ------- ----- -- ----<br>-------- ------- -- ---------- --- - --- ----- ----- ----<br>---- --- --- ----- --- ---- ---- ------- ----- ---- -------<br>--- --- -- ----- -- --- ---- -- --- ---- -- ------ ------<br>not ----- -- ----,64073.90000009537,64073.200000047684,63758.37,63757.5,63775.129,64092.008,,52,not
screen,html.Screen,2_1_0_1_53,2022-03-21T21:01:43.909Z,,,,,,,,,,,,,,,,,53,,,,,,,,,,,,,482.1920000476821,,response,,,99,,,,Space,keypress(Space),,,,,,,,---- -- ----- -- ------ - ------- --- ----------<br>------------- ------ ------ ---- ---- ------- ----- -- ----<br>-------- ------- -- ---------- --- - --- ----- ----- ----<br>---- --- --- ----- --- ---- ---- ------- ----- ---- -------<br>--- --- -- ----- -- --- ---- -- --- ---- -- ------ ------<br>--- close -- ----,64575,64574.200000047684,64075.307,64074.200000047684,64092.008,64592.4,,53,close
screen,html.Screen,2_1_0_1_54,2022-03-21T21:01:43.941Z,,,,,,,,,,,,,,,,,53,,,,,,,,,,,,,13.80000004768226,,response,,,99,,,,Space,keypress(Space),,,,,,,,---- -- ----- -- ------ - ------- --- ----------<br>------------- ------ ------ ---- ---- ------- ----- -- ----<br>-------- ------- -- ---------- --- - --- ----- ----- ----<br>---- --- --- ----- --- ---- ---- ------- ----- ---- -------<br>--- --- -- ----- -- --- ---- -- --- ---- -- ------ ------<br>--- ----- at ----,64606.800000071526,64606.200000047684,64575.691,64575.200000047684,64592.4,64625.808,,54,at
screen,html.Screen,2_1_0_1_55,2022-03-21T21:01:43.989Z,,,,,,,,,,,,,,,,,53,,,,,,,,,,,,,28.39200004768645,,response,,,99,,,,Space,keypress(Space),,,,,,,,---- -- ----- -- ------ - ------- --- ----------<br>------------- ------ ------ ---- ---- ------- ----- -- ----<br>-------- ------- -- ---------- --- - --- ----- ----- ----<br>---- --- --- ----- --- ---- ---- ------- ----- ---- -------<br>--- --- -- ----- -- --- ---- -- --- ---- -- ------ ------<br>--- ----- -- all.,64654.90000009537,64654.200000047684,64609.092,64607,64625.808,64675.655,,55,all.
Item 99,flow.Loop,2_1_0_1,2022-03-21T21:01:43.989Z,,,,,,,,,,,,,,,,,,,,,,,,,,,,,,5466.106000047686,,completion,,,,F,,,,,,,,silence,,,,,64655.200000047684,64654.200000047684,59171.403,59181.10000002384,59188.094,64675.655,,,
Question 1,html.Screen,2_1_0_2,2022-03-21T21:01:44.717Z,,,,,,,,,,,,,,,,,,,,,,,,,,,,false,FALSE,707.3450000000012,,response,,,99,F,,,TRUE,click #choice-1,,,,silence,,,,,65383.700000047684,65383,64659.145,64655.40000009537,64675.655,65392.957,,,
Question 2,html.Screen,2_1_0_3,2022-03-21T21:01:45.230Z,,,,,,,,,,,,,,,,,,,,,,,,,,,,false,TRUE,502.24300004768156,,response,,,99,F,,,FALSE,click #choice-2,,,,silence,,,,,65895.90000009537,65895.20000004768,65376.395,65383.800000071526,65392.957,65910.101,,,
Item 99,flow.Sequence,2_1_0,2022-03-21T21:01:45.230Z,,,,,,,,,,,,,,,,,,,,,,,,,,,,,,16715.31500004768,,completion,,,,,,,,,,,,,,,,,65896.10000002384,65895.20000004768,49163.318,49168.700000047684,49179.885,65910.101,,,
Holding screen,html.Screen,2_1_1_0,2022-03-21T21:01:55.237Z,,,,,,,,,,,,,,,,,,,,,,,,,,,,,,10008.148000000001,,timeout,,,,,,,,,,,,,,,,,75904.40000009537,75901.555,65893.492,65896.30000007153,65910.101,75918.249,,,
screen,html.Screen,2_1_1_1_0,2022-03-21T21:01:56.519Z,,,,,,,,,,,,,,,,,54,,,,,,,,,,,,,1267.0510000715294,,response,,,100,,,,Space,keypress(Space),,,,,,,,At --- ---- --- ------ ----- ------- ---- -- --- ------- --<br>------- ---------- ------ -- ----- -- ----- -- ---- ------<br>--- ----- --- --- ------ -------- ----- --- ------ ----- --<br>----- ----- ---------- --- --- ------ ------ ---- -- ------<br>------- --- ------ ----- --- ---- ------- -- ---- --- --<br>------- ------,77186,77185.30000007153,75901.555,75904.60000002384,75918.249,77202.665,,0,At
screen,html.Screen,2_1_1_1_1,2022-03-21T21:01:57.027Z,,,,,,,,,,,,,,,,,54,,,,,,,,,,,,,490.73500009537383,,response,,,100,,,,Space,keypress(Space),,,,,,,,-- the ---- --- ------ ----- ------- ---- -- --- ------- --<br>------- ---------- ------ -- ----- -- ----- -- ---- ------<br>--- ----- --- --- ------ -------- ----- --- ------ ----- --<br>----- ----- ---------- --- --- ------ ------ ---- -- ------<br>------- --- ------ ----- --- ---- ------- -- ---- --- --<br>------- ------,77694.10000002384,77693.40000009537,77185.881,77186.20000004768,77202.665,77719.721,,1,the
screen,html.Screen,2_1_1_1_2,2022-03-21T21:01:57.058Z,,,,,,,,,,,,,,,,,54,,,,,,,,,,,,,4.179000095362426,,response,,,100,,,,Space,keypress(Space),,,,,,,,-- --- time --- ------ ----- ------- ---- -- --- ------- --<br>------- ---------- ------ -- ----- -- ----- -- ---- ------<br>--- ----- --- --- ------ -------- ----- --- ------ ----- --<br>----- ----- ---------- --- --- ------ ------ ---- -- ------<br>------- --- ------ ----- --- ---- ------- -- ---- --- --<br>------- ------,77724.60000002384,77723.90000009537,77702.993,77694.20000004768,77719.721,77753.067,,2,time
screen,html.Screen,2_1_1_1_3,2022-03-21T21:01:57.090Z,,,,,,,,,,,,,,,,,54,,,,,,,,,,,,,2.833000095371972,,response,,,100,,,,Space,keypress(Space),,,,,,,,-- --- ---- the ------ ----- ------- ---- -- --- ------- --<br>------- ---------- ------ -- ----- -- ----- -- ---- ------<br>--- ----- --- --- ------ -------- ----- --- ------ ----- --<br>----- ----- ---------- --- --- ------ ------ ---- -- ------<br>------- --- ------ ----- --- ---- ------- -- ---- --- --<br>------- ------,77756.40000009537,77755.90000009537,77736.355,77724.80000007153,77753.067,77786.436,,3,the
screen,html.Screen,2_1_1_1_4,2022-03-21T21:01:57.122Z,,,,,,,,,,,,,,,,,54,,,,,,,,,,,,,1.6640000238403445,,response,,,100,,,,Space,keypress(Space),,,,,,,,-- --- ---- --- French ----- ------- ---- -- --- ------- --<br>------- ---------- ------ -- ----- -- ----- -- ---- ------<br>--- ----- --- --- ------ -------- ----- --- ------ ----- --<br>----- ----- ---------- --- --- ------ ------ ---- -- ------<br>------- --- ------ ----- --- ---- ------- -- ---- --- --<br>------- ------,77788.70000004768,77788.10000002384,77769.719,77756.60000002384,77786.436,77819.73,,4,French
screen,html.Screen,2_1_1_1_5,2022-03-21T21:01:57.154Z,,,,,,,,,,,,,,,,,54,,,,,,,,,,,,,0.17000009537150618,,response,,,100,,,,Space,keypress(Space),,,,,,,,-- --- ---- --- ------ crown ------- ---- -- --- ------- --<br>------- ---------- ------ -- ----- -- ----- -- ---- ------<br>--- ----- --- --- ------ -------- ----- --- ------ ----- --<br>----- ----- ---------- --- --- ------ ------ ---- -- ------<br>------- --- ------ ----- --- ---- ------- -- ---- --- --<br>------- ------,77820.70000004768,77819.90000009537,77803.076,77788.80000007153,77819.73,77853.159,,5,crown
screen,html.Screen,2_1_1_1_6,2022-03-21T21:01:57.185Z,,,,,,,,,,,,,,,,,54,,,,,,,,,,,,,15.096000000005006,,response,,,100,,,,Space,keypress(Space),,,,,,,,-- --- ---- --- ------ ----- secured ---- -- --- ------- --<br>------- ---------- ------ -- ----- -- ----- -- ---- ------<br>--- ----- --- --- ------ -------- ----- --- ------ ----- --<br>----- ----- ---------- --- --- ------ ------ ---- -- ------<br>------- --- ------ ----- --- ---- ------- -- ---- --- --<br>------- ------,77852.20000004768,77851.5,77836.404,77820.90000009537,,77869.834,,6,secured
screen,html.Screen,2_1_1_1_7,2022-03-21T21:01:57.217Z,,,,,,,,,,,,,,,,,54,,,,,,,,,,,,,13.56600009536487,,response,,,100,,,,Space,keypress(Space),,,,,,,,-- --- ---- --- ------ ----- ------- much -- --- ------- --<br>------- ---------- ------ -- ----- -- ----- -- ---- ------<br>--- ----- --- --- ------ -------- ----- --- ------ ----- --<br>----- ----- ---------- --- --- ------ ------ ---- -- ------<br>------- --- ------ ----- --- ---- ------- -- ---- --- --<br>------- ------,77884,77883.40000009537,77853.159,77852.5,77869.834,77903.184,,7,much
screen,html.Screen,2_1_1_1_8,2022-03-21T21:01:57.265Z,,,,,,,,,,,,,,,,,54,,,,,,,,,,,,,28.016000047689886,,response,,,100,,,,Space,keypress(Space),,,,,,,,-- --- ---- --- ------ ----- ------- ---- of --- ------- --<br>------- ---------- ------ -- ----- -- ----- -- ---- ------<br>--- ----- --- --- ------ -------- ----- --- ------ ----- --<br>----- ----- ---------- --- --- ------ ------ ---- -- ------<br>------- --- ------ ----- --- ---- ------- -- ---- --- --<br>------- ------,77931.80000007153,77931.20000004768,77886.478,77884.20000004768,77903.184,77936.472,,8,of
screen,html.Screen,2_1_1_1_9,2022-03-21T21:01:57.297Z,,,,,,,,,,,,,,,,,54,,,,,,,,,,,,,26.828000071531278,,response,,,100,,,,Space,keypress(Space),,,,,,,,-- --- ---- --- ------ ----- ------- ---- -- its ------- --<br>------- ---------- ------ -- ----- -- ----- -- ---- ------<br>--- ----- --- --- ------ -------- ----- --- ------ ----- --<br>----- ----- ---------- --- --- ------ ------ ---- -- ------<br>------- --- ------ ----- --- ---- ------- -- ---- --- --<br>------- ------,77963.90000009537,77963.30000007153,77919.831,77932,77936.472,77969.712,,9,its
screen,html.Screen,2_1_1_1_10,2022-03-21T21:01:57.329Z,,,,,,,,,,,,,,,,,54,,,,,,,,,,,,,25.288000000000466,,response,,,100,,,,Space,keypress(Space),,,,,,,,-- --- ---- --- ------ ----- ------- ---- -- --- revenue --<br>------- ---------- ------ -- ----- -- ----- -- ---- ------<br>--- ----- --- --- ------ -------- ----- --- ------ ----- --<br>----- ----- ---------- --- --- ------ ------ ---- -- ------<br>------- --- ------ ----- --- ---- ------- -- ---- --- --<br>------- ------,77995.5,77995,77953.221,77964.10000002384,77969.712,78003.123,,10,revenue
screen,html.Screen,2_1_1_1_11,2022-03-21T21:01:57.361Z,,,,,,,,,,,,,,,,,54,,,,,,,,,,,,,23.87699999999313,,response,,,100,,,,Space,keypress(Space),,,,,,,,-- --- ---- --- ------ ----- ------- ---- -- --- ------- by<br>------- ---------- ------ -- ----- -- ----- -- ---- ------<br>--- ----- --- --- ------ -------- ----- --- ------ ----- --<br>----- ----- ---------- --- --- ------ ------ ---- -- ------<br>------- --- ------ ----- --- ---- ------- -- ---- --- --<br>------- ------,78027.5,78027,77986.577,77995.70000004768,78003.123,78036.445,,11,by
screen,html.Screen,2_1_1_1_12,2022-03-21T21:01:57.390Z,,,,,,,,,,,,,,,,,54,,,,,,,,,,,,,20.35500007151859,,response,,,100,,,,Space,keypress(Space),,,,,,,,-- --- ---- --- ------ ----- ------- ---- -- --- ------- --<br>issuing ---------- ------ -- ----- -- ----- -- ---- ------<br>--- ----- --- --- ------ -------- ----- --- ------ ----- --<br>----- ----- ---------- --- --- ------ ------ ---- -- ------<br>------- --- ------ ----- --- ---- ------- -- ---- --- --<br>------- ------,78057.30000007153,78056.80000007153,78019.917,78027.80000007153,78036.445,78069.985,,12,issuing
screen,html.Screen,2_1_1_1_13,2022-03-21T21:01:57.422Z,,,,,,,,,,,,,,,,,54,,,,,,,,,,,,,18.715000047683134,,response,,,100,,,,Space,keypress(Space),,,,,,,,-- --- ---- --- ------ ----- ------- ---- -- --- ------- --<br>------- government ------ -- ----- -- ----- -- ---- ------<br>--- ----- --- --- ------ -------- ----- --- ------ ----- --<br>----- ----- ---------- --- --- ------ ------ ---- -- ------<br>------- --- ------ ----- --- ---- ------- -- ---- --- --<br>------- ------,78089.30000007153,78088.70000004768,78053.226,78057.5,78069.985,78103.289,,13,government
screen,html.Screen,2_1_1_1_14,2022-03-21T21:01:57.454Z,,,,,,,,,,,,,,,,,54,,,,,,,,,,,,,17.41100004767941,,response,,,100,,,,Space,keypress(Space),,,,,,,,-- --- ---- --- ------ ----- ------- ---- -- --- ------- --<br>------- ---------- bonds. -- ----- -- ----- -- ---- ------<br>--- ----- --- --- ------ -------- ----- --- ------ ----- --<br>----- ----- ---------- --- --- ------ ------ ---- -- ------<br>------- --- ------ ----- --- ---- ------- -- ---- --- --<br>------- ------,78121.20000004768,78120.70000004768,78086.635,78089.40000009537,78103.289,78136.652,,14,bonds.
screen,html.Screen,2_1_1_1_15,2022-03-21T21:01:57.486Z,,,,,,,,,,,,,,,,,54,,,,,,,,,,,,,15.748000095365569,,response,,,100,,,,Space,keypress(Space),,,,,,,,-- --- ---- --- ------ ----- ------- ---- -- --- ------- --<br>------- ---------- ------ In ----- -- ----- -- ---- ------<br>--- ----- --- --- ------ -------- ----- --- ------ ----- --<br>----- ----- ---------- --- --- ------ ------ ---- -- ------<br>------- --- ------ ----- --- ---- ------- -- ---- --- --<br>------- ------,78153,78152.40000009537,78119.965,78121.40000009537,78136.652,78170.011,,15,In
screen,html.Screen,2_1_1_1_16,2022-03-21T21:01:57.518Z,,,,,,,,,,,,,,,,,54,,,,,,,,,,,,,14.189000047685113,,response,,,100,,,,Space,keypress(Space),,,,,,,,"-- --- ---- --- ------ ----- ------- ---- -- --- ------- --<br>------- ---------- ------ -- 1727, -- ----- -- ---- ------<br>--- ----- --- --- ------ -------- ----- --- ------ ----- --<br>----- ----- ---------- --- --- ------ ------ ---- -- ------<br>------- --- ------ ----- --- ---- ------- -- ---- --- --<br>------- ------",78184.80000007153,78184.20000004768,78153.314,78153.20000004768,78170.011,78203.305,,16,"1727,"
screen,html.Screen,2_1_1_1_17,2022-03-21T21:01:57.549Z,,,,,,,,,,,,,,,,,54,,,,,,,,,,,,,12.195000000006985,,response,,,100,,,,Space,keypress(Space),,,,,,,,-- --- ---- --- ------ ----- ------- ---- -- --- ------- --<br>------- ---------- ------ -- ----- in ----- -- ---- ------<br>--- ----- --- --- ------ -------- ----- --- ------ ----- --<br>----- ----- ---------- --- --- ------ ------ ---- -- ------<br>------- --- ------ ----- --- ---- ------- -- ---- --- --<br>------- ------,78216.10000002384,78215.5,78186.675,78184.90000009537,78203.305,78236.727,,17,in
screen,html.Screen,2_1_1_1_18,2022-03-21T21:01:57.580Z,,,,,,,,,,,,,,,,,54,,,,,,,,,,,,,9.17300009536848,,response,,,100,,,,Space,keypress(Space),,,,,,,,-- --- ---- --- ------ ----- ------- ---- -- --- ------- --<br>------- ---------- ------ -- ----- -- order -- ---- ------<br>--- ----- --- --- ------ -------- ----- --- ------ ----- --<br>----- ----- ---------- --- --- ------ ------ ---- -- ------<br>------- --- ------ ----- --- ---- ------- -- ---- --- --<br>------- ------,78246.40000009537,78245.90000009537,78220.033,78216.30000007153,78236.727,78270.09,,18,order
screen,html.Screen,2_1_1_1_19,2022-03-21T21:01:57.626Z,,,,,,,,,,,,,,,,,54,,,,,,,,,,,,,22.51000002384535,,response,,,100,,,,Space,keypress(Space),,,,,,,,-- --- ---- --- ------ ----- ------- ---- -- --- ------- --<br>------- ---------- ------ -- ----- -- ----- to ---- ------<br>--- ----- --- --- ------ -------- ----- --- ------ ----- --<br>----- ----- ---------- --- --- ------ ------ ---- -- ------<br>------- --- ------ ----- --- ---- ------- -- ---- --- --<br>------- ------,78293.30000007153,78292.60000002384,78253.389,78246.60000002384,78270.09,78303.332,,19,to
screen,html.Screen,2_1_1_1_20,2022-03-21T21:01:57.656Z,,,,,,,,,,,,,,,,,54,,,,,,,,,,,,,19.468000071530696,,response,,,100,,,,Space,keypress(Space),,,,,,,,-- --- ---- --- ------ ----- ------- ---- -- --- ------- --<br>------- ---------- ------ -- ----- -- ----- -- save ------<br>--- ----- --- --- ------ -------- ----- --- ------ ----- --<br>----- ----- ---------- --- --- ------ ------ ---- -- ------<br>------- --- ------ ----- --- ---- ------- -- ---- --- --<br>------- ------,78323.40000009537,78322.80000007153,78286.798,78293.40000009537,78303.332,78336.892,,20,save
screen,html.Screen,2_1_1_1_21,2022-03-21T21:01:57.689Z,,,,,,,,,,,,,,,,,54,,,,,,,,,,,,,18.00800009536033,,response,,,100,,,,Space,keypress(Space),,,,,,,,"-- --- ---- --- ------ ----- ------- ---- -- --- ------- --<br>------- ---------- ------ -- ----- -- ----- -- ---- money,<br>--- ----- --- --- ------ -------- ----- --- ------ ----- --<br>----- ----- ---------- --- --- ------ ------ ---- -- ------<br>------- --- ------ ----- --- ---- ------- -- ---- --- --<br>------- ------",78355.60000002384,78354.90000009537,78320.157,78323.60000002384,78336.892,78370.215,,21,"money,"
screen,html.Screen,2_1_1_1_22,2022-03-21T21:01:57.720Z,,,,,,,,,,,,,,,,,54,,,,,,,,,,,,,16.085000071529066,,response,,,100,,,,Space,keypress(Space),,,,,,,,-- --- ---- --- ------ ----- ------- ---- -- --- ------- --<br>------- ---------- ------ -- ----- -- ----- -- ---- ------<br>the ----- --- --- ------ -------- ----- --- ------ ----- --<br>----- ----- ---------- --- --- ------ ------ ---- -- ------<br>------- --- ------ ----- --- ---- ------- -- ---- --- --<br>------- ------,78387,78386.30000007153,78353.493,78355.80000007153,78370.215,78403.617,,22,the
screen,html.Screen,2_1_1_1_23,2022-03-21T21:01:57.750Z,,,,,,,,,,,,,,,,,54,,,,,,,,,,,,,12.88300000000163,,response,,,100,,,,Space,keypress(Space),,,,,,,,-- --- ---- --- ------ ----- ------- ---- -- --- ------- --<br>------- ---------- ------ -- ----- -- ----- -- ---- ------<br>--- state --- --- ------ -------- ----- --- ------ ----- --<br>----- ----- ---------- --- --- ------ ------ ---- -- ------<br>------- --- ------ ----- --- ---- ------- -- ---- --- --<br>------- ------,78417.10000002384,78416.5,78386.855,78387.20000004768,78403.617,78436.977,,23,state
screen,html.Screen,2_1_1_1_24,2022-03-21T21:01:57.780Z,,,,,,,,,,,,,,,,,54,,,,,,,,,,,,,9.523000000001048,,response,,,100,,,,Space,keypress(Space),,,,,,,,-- --- ---- --- ------ ----- ------- ---- -- --- ------- --<br>------- ---------- ------ -- ----- -- ----- -- ---- ------<br>--- ----- cut --- ------ -------- ----- --- ------ ----- --<br>----- ----- ---------- --- --- ------ ------ ---- -- ------<br>------- --- ------ ----- --- ---- ------- -- ---- --- --<br>------- ------,78447.30000007153,78446.5,78420.215,78417.30000007153,78436.977,78470.341,,24,cut
screen,html.Screen,2_1_1_1_25,2022-03-21T21:01:57.811Z,,,,,,,,,,,,,,,,,54,,,,,,,,,,,,,7.158999999999651,,response,,,100,,,,Space,keypress(Space),,,,,,,,-- --- ---- --- ------ ----- ------- ---- -- --- ------- --<br>------- ---------- ------ -- ----- -- ----- -- ---- ------<br>--- ----- --- the ------ -------- ----- --- ------ ----- --<br>----- ----- ---------- --- --- ------ ------ ---- -- ------<br>------- --- ------ ----- --- ---- ------- -- ---- --- --<br>------- ------,78478.20000004768,78477.5,78453.623,78447.5,78470.341,78503.704,,25,the
screen,html.Screen,2_1_1_1_26,2022-03-21T21:01:57.858Z,,,,,,,,,,,,,,,,,54,,,,,,,,,,,,,20.396000023843953,,response,,,100,,,,Space,keypress(Space),,,,,,,,-- --- ---- --- ------ ----- ------- ---- -- --- ------- --<br>------- ---------- ------ -- ----- -- ----- -- ---- ------<br>--- ----- --- --- bonds' -------- ----- --- ------ ----- --<br>----- ----- ---------- --- --- ------ ------ ---- -- ------<br>------- --- ------ ----- --- ---- ------- -- ---- --- --<br>------- ------,78524.80000007153,78524.10000002384,78486.987,78478.40000009537,78503.704,78553.758,,26,bonds'
screen,html.Screen,2_1_1_1_27,2022-03-21T21:01:57.890Z,,,,,,,,,,,,,,,,,54,,,,,,,,,,,,,2.342000023840228,,response,,,100,,,,Space,keypress(Space),,,,,,,,-- --- ---- --- ------ ----- ------- ---- -- --- ------- --<br>------- ---------- ------ -- ----- -- ----- -- ---- ------<br>--- ----- --- --- ------ interest ----- --- ------ ----- --<br>----- ----- ---------- --- --- ------ ------ ---- -- ------<br>------- --- ------ ----- --- ---- ------- -- ---- --- --<br>------- ------,78556.70000004768,78556.10000002384,78536.977,78525,78553.758,78587.055,,27,interest
screen,html.Screen,2_1_1_1_28,2022-03-21T21:01:57.921Z,,,,,,,,,,,,,,,,,54,,,,,,,,,,,,,0.7450000715325586,,response,,,100,,,,Space,keypress(Space),,,,,,,,-- --- ---- --- ------ ----- ------- ---- -- --- ------- --<br>------- ---------- ------ -- ----- -- ----- -- ---- ------<br>--- ----- --- --- ------ -------- rate. --- ------ ----- --<br>----- ----- ---------- --- --- ------ ------ ---- -- ------<br>------- --- ------ ----- --- ---- ------- -- ---- --- --<br>------- ------,78588.30000007153,78587.80000007153,78570.34,78556.90000009537,78587.055,78620.46,,28,rate.
screen,html.Screen,2_1_1_1_29,2022-03-21T21:01:57.953Z,,,,,,,,,,,,,,,,,54,,,,,,,,,,,,,15.545000071520917,,response,,,100,,,,Space,keypress(Space),,,,,,,,-- --- ---- --- ------ ----- ------- ---- -- --- ------- --<br>------- ---------- ------ -- ----- -- ----- -- ---- ------<br>--- ----- --- --- ------ -------- ----- The ------ ----- --<br>----- ----- ---------- --- --- ------ ------ ---- -- ------<br>------- --- ------ ----- --- ---- ------- -- ---- --- --<br>------- ------,78620,78619.30000007153,78603.755,78588.40000009537,,78637.087,,29,The
screen,html.Screen,2_1_1_1_30,2022-03-21T21:01:57.986Z,,,,,,,,,,,,,,,,,54,,,,,,,,,,,,,14.613000047684181,,response,,,100,,,,Space,keypress(Space),,,,,,,,-- --- ---- --- ------ ----- ------- ---- -- --- ------- --<br>------- ---------- ------ -- ----- -- ----- -- ---- ------<br>--- ----- --- --- ------ -------- ----- --- market ----- --<br>----- ----- ---------- --- --- ------ ------ ---- -- ------<br>------- --- ------ ----- --- ---- ------- -- ---- --- --<br>------- ------,78652.5,78651.70000004768,78620.46,78620.20000004768,78637.087,78670.5,,30,market
screen,html.Screen,2_1_1_1_31,2022-03-21T21:01:58.017Z,,,,,,,,,,,,,,,,,54,,,,,,,,,,,,,13,,response,,,100,,,,Space,keypress(Space),,,,,,,,-- --- ---- --- ------ ----- ------- ---- -- --- ------- --<br>------- ---------- ------ -- ----- -- ----- -- ---- ------<br>--- ----- --- --- ------ -------- ----- --- ------ value --<br>----- ----- ---------- --- --- ------ ------ ---- -- ------<br>------- --- ------ ----- --- ---- ------- -- ---- --- --<br>------- ------,78684.30000007153,78683.5,78653.782,78652.60000002384,78670.5,78703.863,,31,value
screen,html.Screen,2_1_1_1_32,2022-03-21T21:01:58.049Z,,,,,,,,,,,,,,,,,54,,,,,,,,,,,,,11.737000023844303,,response,,,100,,,,Space,keypress(Space),,,,,,,,-- --- ---- --- ------ ----- ------- ---- -- --- ------- --<br>------- ---------- ------ -- ----- -- ----- -- ---- ------<br>--- ----- --- --- ------ -------- ----- --- ------ ----- of<br>----- ----- ---------- --- --- ------ ------ ---- -- ------<br>------- --- ------ ----- --- ---- ------- -- ---- --- --<br>------- ------,78716.30000007153,78715.60000002384,78687.143,78684.5,78703.863,78737.215,,32,of
screen,html.Screen,2_1_1_1_33,2022-03-21T21:01:58.081Z,,,,,,,,,,,,,,,,,54,,,,,,,,,,,,,10.185000095370924,,response,,,100,,,,Space,keypress(Space),,,,,,,,-- --- ---- --- ------ ----- ------- ---- -- --- ------- --<br>------- ---------- ------ -- ----- -- ----- -- ---- ------<br>--- ----- --- --- ------ -------- ----- --- ------ ----- --<br>these ----- ---------- --- --- ------ ------ ---- -- ------<br>------- --- ------ ----- --- ---- ------- -- ---- --- --<br>------- ------,78748.20000004768,78747.40000009537,78720.508,78716.5,78737.215,78770.58,,33,these
screen,html.Screen,2_1_1_1_34,2022-03-21T21:01:58.114Z,,,,,,,,,,,,,,,,,54,,,,,,,,,,,,,9.220000071523828,,response,,,100,,,,Space,keypress(Space),,,,,,,,-- --- ---- --- ------ ----- ------- ---- -- --- ------- --<br>------- ---------- ------ -- ----- -- ----- -- ---- ------<br>--- ----- --- --- ------ -------- ----- --- ------ ----- --<br>----- bonds ---------- --- --- ------ ------ ---- -- ------<br>------- --- ------ ----- --- ---- ------- -- ---- --- --<br>------- ------,78780.60000002384,78779.80000007153,78753.819,78748.30000007153,78770.58,78803.948,,34,bonds
screen,html.Screen,2_1_1_1_35,2022-03-21T21:01:58.144Z,,,,,,,,,,,,,,,,,54,,,,,,,,,,,,,6.1520000238379,,response,,,100,,,,Space,keypress(Space),,,,,,,,"-- --- ---- --- ------ ----- ------- ---- -- --- ------- --<br>------- ---------- ------ -- ----- -- ----- -- ---- ------<br>--- ----- --- --- ------ -------- ----- --- ------ ----- --<br>----- ----- plummeted, --- --- ------ ------ ---- -- ------<br>------- --- ------ ----- --- ---- ------- -- ---- --- --<br>------- ------",78810.70000004768,78810.10000002384,78787.232,78780.80000007153,78803.948,78837.306,,35,"plummeted,"
screen,html.Screen,2_1_1_1_36,2022-03-21T21:01:58.175Z,,,,,,,,,,,,,,,,,54,,,,,,,,,,,,,4.394000047686859,,response,,,100,,,,Space,keypress(Space),,,,,,,,-- --- ---- --- ------ ----- ------- ---- -- --- ------- --<br>------- ---------- ------ -- ----- -- ----- -- ---- ------<br>--- ----- --- --- ------ -------- ----- --- ------ ----- --<br>----- ----- ---------- and --- ------ ------ ---- -- ------<br>------- --- ------ ----- --- ---- ------- -- ---- --- --<br>------- ------,78842.40000009537,78841.70000004768,78820.584,78811,78837.306,78870.687,,36,and
screen,html.Screen,2_1_1_1_37,2022-03-21T21:01:58.207Z,,,,,,,,,,,,,,,,,54,,,,,,,,,,,,,2.7130000953620765,,response,,,100,,,,Space,keypress(Space),,,,,,,,-- --- ---- --- ------ ----- ------- ---- -- --- ------- --<br>------- ---------- ------ -- ----- -- ----- -- ---- ------<br>--- ----- --- --- ------ -------- ----- --- ------ ----- --<br>----- ----- ---------- --- the ------ ------ ---- -- ------<br>------- --- ------ ----- --- ---- ------- -- ---- --- --<br>------- ------,78874.10000002384,78873.40000009537,78853.95,78842.70000004768,78870.687,78903.929,,37,the
screen,html.Screen,2_1_1_1_38,2022-03-21T21:01:58.254Z,,,,,,,,,,,,,,,,,54,,,,,,,,,,,,,16.570999999996275,,response,,,100,,,,Space,keypress(Space),,,,,,,,-- --- ---- --- ------ ----- ------- ---- -- --- ------- --<br>------- ---------- ------ -- ----- -- ----- -- ---- ------<br>--- ----- --- --- ------ -------- ----- --- ------ ----- --<br>----- ----- ---------- --- --- market ------ ---- -- ------<br>------- --- ------ ----- --- ---- ------- -- ---- --- --<br>------- ------,78921.10000002384,78920.5,78887.314,78874.30000007153,78903.929,78937.388,,38,market
screen,html.Screen,2_1_1_1_39,2022-03-21T21:01:58.285Z,,,,,,,,,,,,,,,,,54,,,,,,,,,,,,,13.512000095361145,,response,,,100,,,,Space,keypress(Space),,,,,,,,-- --- ---- --- ------ ----- ------- ---- -- --- ------- --<br>------- ---------- ------ -- ----- -- ----- -- ---- ------<br>--- ----- --- --- ------ -------- ----- --- ------ ----- --<br>----- ----- ---------- --- --- ------ became ---- -- ------<br>------- --- ------ ----- --- ---- ------- -- ---- --- --<br>------- ------,78951.5,78950.90000009537,78920.666,78921.20000004768,78937.388,78970.691,,39,became
screen,html.Screen,2_1_1_1_40,2022-03-21T21:01:58.315Z,,,,,,,,,,,,,,,,,54,,,,,,,,,,,,,10.609000071519404,,response,,,100,,,,Space,keypress(Space),,,,,,,,-- --- ---- --- ------ ----- ------- ---- -- --- ------- --<br>------- ---------- ------ -- ----- -- ----- -- ---- ------<br>--- ----- --- --- ------ -------- ----- --- ------ ----- --<br>----- ----- ---------- --- --- ------ ------ wary -- ------<br>------- --- ------ ----- --- ---- ------- -- ---- --- --<br>------- ------,78981.90000009537,78981.30000007153,78954.024,78951.70000004768,78970.691,79004.098,,40,wary
screen,html.Screen,2_1_1_1_41,2022-03-21T21:01:58.346Z,,,,,,,,,,,,,,,,,54,,,,,,,,,,,,,8.202000071527436,,response,,,100,,,,Space,keypress(Space),,,,,,,,-- --- ---- --- ------ ----- ------- ---- -- --- ------- --<br>------- ---------- ------ -- ----- -- ----- -- ---- ------<br>--- ----- --- --- ------ -------- ----- --- ------ ----- --<br>----- ----- ---------- --- --- ------ ------ ---- of ------<br>------- --- ------ ----- --- ---- ------- -- ---- --- --<br>------- ------,79013.10000002384,79012.30000007153,78987.39,78982,79004.098,79037.461,,41,of
screen,html.Screen,2_1_1_1_42,2022-03-21T21:01:58.378Z,,,,,,,,,,,,,,,,,54,,,,,,,,,,,,,6.739000047688023,,response,,,100,,,,Space,keypress(Space),,,,,,,,-- --- ---- --- ------ ----- ------- ---- -- --- ------- --<br>------- ---------- ------ -- ----- -- ----- -- ---- ------<br>--- ----- --- --- ------ -------- ----- --- ------ ----- --<br>----- ----- ---------- --- --- ------ ------ ---- -- French<br>------- --- ------ ----- --- ---- ------- -- ---- --- --<br>------- ------,79044.90000009537,79044.20000004768,79020.764,79013.30000007153,79037.461,79070.786,,42,French
screen,html.Screen,2_1_1_1_43,2022-03-21T21:01:58.409Z,,,,,,,,,,,,,,,,,54,,,,,,,,,,,,,4.814000023849076,,response,,,100,,,,Space,keypress(Space),,,,,,,,-- --- ---- --- ------ ----- ------- ---- -- --- ------- --<br>------- ---------- ------ -- ----- -- ----- -- ---- ------<br>--- ----- --- --- ------ -------- ----- --- ------ ----- --<br>----- ----- ---------- --- --- ------ ------ ---- -- ------<br>credit. --- ------ ----- --- ---- ------- -- ---- --- --<br>------- ------,79076.30000007153,79075.60000002384,79054.109,79045.10000002384,79070.786,79104.181,,43,credit.
screen,html.Screen,2_1_1_1_44,2022-03-21T21:01:58.440Z,,,,,,,,,,,,,,,,,54,,,,,,,,,,,,,2.119000071528717,,response,,,100,,,,Space,keypress(Space),,,,,,,,-- --- ---- --- ------ ----- ------- ---- -- --- ------- --<br>------- ---------- ------ -- ----- -- ----- -- ---- ------<br>--- ----- --- --- ------ -------- ----- --- ------ ----- --<br>----- ----- ---------- --- --- ------ ------ ---- -- ------<br>------- The ------ ----- --- ---- ------- -- ---- --- --<br>------- ------,79107,79106.30000007153,79087.462,79076.40000009537,79104.181,79137.493,,44,The
screen,html.Screen,2_1_1_1_45,2022-03-21T21:01:58.472Z,,,,,,,,,,,,,,,,,54,,,,,,,,,,,,,0.7070000476815039,,response,,,100,,,,Space,keypress(Space),,,,,,,,-- --- ---- --- ------ ----- ------- ---- -- --- ------- --<br>------- ---------- ------ -- ----- -- ----- -- ---- ------<br>--- ----- --- --- ------ -------- ----- --- ------ ----- --<br>----- ----- ---------- --- --- ------ ------ ---- -- ------<br>------- --- French ----- --- ---- ------- -- ---- --- --<br>------- ------,79138.70000004768,79138.20000004768,79120.836,79107.20000004768,79137.493,79170.849,,45,French
screen,html.Screen,2_1_1_1_46,2022-03-21T21:01:58.516Z,,,,,,,,,,,,,,,,,54,,,,,,,,,,,,,11.251000023839879,,response,,,100,,,,Space,keypress(Space),,,,,,,,-- --- ---- --- ------ ----- ------- ---- -- --- ------- --<br>------- ---------- ------ -- ----- -- ----- -- ---- ------<br>--- ----- --- --- ------ -------- ----- --- ------ ----- --<br>----- ----- ---------- --- --- ------ ------ ---- -- ------<br>------- --- ------ state --- ---- ------- -- ---- --- --<br>------- ------,79182.90000009537,79182.10000002384,79154.19,79138.80000007153,79170.849,79204.263,,46,state
screen,html.Screen,2_1_1_1_47,2022-03-21T21:01:58.548Z,,,,,,,,,,,,,,,,,54,,,,,,,,,,,,,9.537000071519287,,response,,,100,,,,Space,keypress(Space),,,,,,,,-- --- ---- --- ------ ----- ------- ---- -- --- ------- --<br>------- ---------- ------ -- ----- -- ----- -- ---- ------<br>--- ----- --- --- ------ -------- ----- --- ------ ----- --<br>----- ----- ---------- --- --- ------ ------ ---- -- ------<br>------- --- ------ ----- was ---- ------- -- ---- --- --<br>------- ------,79214.5,79213.80000007153,79187.548,79183,79204.263,79237.627,,47,was
screen,html.Screen,2_1_1_1_48,2022-03-21T21:01:58.578Z,,,,,,,,,,,,,,,,,54,,,,,,,,,,,,,6.573000047690584,,response,,,100,,,,Space,keypress(Space),,,,,,,,-- --- ---- --- ------ ----- ------- ---- -- --- ------- --<br>------- ---------- ------ -- ----- -- ----- -- ---- ------<br>--- ----- --- --- ------ -------- ----- --- ------ ----- --<br>----- ----- ---------- --- --- ------ ------ ---- -- ------<br>------- --- ------ ----- --- left ------- -- ---- --- --<br>------- ------,79244.80000007153,79244.20000004768,79220.922,79214.70000004768,79237.627,79270.987,,48,left
screen,html.Screen,2_1_1_1_49,2022-03-21T21:01:58.609Z,,,,,,,,,,,,,,,,,54,,,,,,,,,,,,,4.613000023848144,,response,,,100,,,,Space,keypress(Space),,,,,,,,-- --- ---- --- ------ ----- ------- ---- -- --- ------- --<br>------- ---------- ------ -- ----- -- ----- -- ---- ------<br>--- ----- --- --- ------ -------- ----- --- ------ ----- --<br>----- ----- ---------- --- --- ------ ------ ---- -- ------<br>------- --- ------ ----- --- ---- without -- ---- --- --<br>------- ------,79276.30000007153,79275.60000002384,79254.269,79245.10000002384,79270.987,79304.35,,49,without
screen,html.Screen,2_1_1_1_50,2022-03-21T21:01:58.641Z,,,,,,,,,,,,,,,,,54,,,,,,,,,,,,,3.1499999999941792,,response,,,100,,,,Space,keypress(Space),,,,,,,,-- --- ---- --- ------ ----- ------- ---- -- --- ------- --<br>------- ---------- ------ -- ----- -- ----- -- ---- ------<br>--- ----- --- --- ------ -------- ----- --- ------ ----- --<br>----- ----- ---------- --- --- ------ ------ ---- -- ------<br>------- --- ------ ----- --- ---- ------- an ---- --- --<br>------- ------,79308.30000007153,79307.5,79287.642,79276.5,79304.35,79337.712,,50,an
screen,html.Screen,2_1_1_1_51,2022-03-21T21:01:58.673Z,,,,,,,,,,,,,,,,,54,,,,,,,,,,,,,1.8880000238423236,,response,,,100,,,,Space,keypress(Space),,,,,,,,-- --- ---- --- ------ ----- ------- ---- -- --- ------- --<br>------- ---------- ------ -- ----- -- ----- -- ---- ------<br>--- ----- --- --- ------ -------- ----- --- ------ ----- --<br>----- ----- ---------- --- --- ------ ------ ---- -- ------<br>------- --- ------ ----- --- ---- ------- -- easy --- --<br>------- ------,79340.10000002384,79339.60000002384,79320.945,79308.40000009537,79337.712,79371.013,,51,easy
screen,html.Screen,2_1_1_1_52,2022-03-21T21:01:58.705Z,,,,,,,,,,,,,,,,,54,,,,,,,,,,,,,0.4869999999937136,,response,,,100,,,,Space,keypress(Space),,,,,,,,-- --- ---- --- ------ ----- ------- ---- -- --- ------- --<br>------- ---------- ------ -- ----- -- ----- -- ---- ------<br>--- ----- --- --- ------ -------- ----- --- ------ ----- --<br>----- ----- ---------- --- --- ------ ------ ---- -- ------<br>------- --- ------ ----- --- ---- ------- -- ---- way --<br>------- ------,79372.10000002384,79371.5,79354.353,79340.30000007153,79371.013,79404.428,,52,way
screen,html.Screen,2_1_1_1_53,2022-03-21T21:01:58.738Z,,,,,,,,,,,,,,,,,54,,,,,,,,,,,,,16.093000047680107,,response,,,100,,,,Space,keypress(Space),,,,,,,,-- --- ---- --- ------ ----- ------- ---- -- --- ------- --<br>------- ---------- ------ -- ----- -- ----- -- ---- ------<br>--- ----- --- --- ------ -------- ----- --- ------ ----- --<br>----- ----- ---------- --- --- ------ ------ ---- -- ------<br>------- --- ------ ----- --- ---- ------- -- ---- --- of<br>------- ------,79404.40000009537,79403.70000004768,79387.607,79372.30000007153,,79421.105,,53,of
screen,html.Screen,2_1_1_1_54,2022-03-21T21:01:58.769Z,,,,,,,,,,,,,,,,,54,,,,,,,,,,,,,14.395000000004075,,response,,,100,,,,Space,keypress(Space),,,,,,,,-- --- ---- --- ------ ----- ------- ---- -- --- ------- --<br>------- ---------- ------ -- ----- -- ----- -- ---- ------<br>--- ----- --- --- ------ -------- ----- --- ------ ----- --<br>----- ----- ---------- --- --- ------ ------ ---- -- ------<br>------- --- ------ ----- --- ---- ------- -- ---- --- --<br>raising ------,79436.30000007153,79435.5,79404.428,79404.60000002384,79421.105,79454.466,,54,raising
screen,html.Screen,2_1_1_1_55,2022-03-21T21:01:58.815Z,,,,,,,,,,,,,,,,,54,,,,,,,,,,,,,27.13400002384151,,response,,,100,,,,Space,keypress(Space),,,,,,,,-- --- ---- --- ------ ----- ------- ---- -- --- ------- --<br>------- ---------- ------ -- ----- -- ----- -- ---- ------<br>--- ----- --- --- ------ -------- ----- --- ------ ----- --<br>----- ----- ---------- --- --- ------ ------ ---- -- ------<br>------- --- ------ ----- --- ---- ------- -- ---- --- --<br>------- money.,79482.20000004768,79481.60000002384,79437.755,79436.5,79454.466,79504.51,,55,money.
Item 100,flow.Loop,2_1_1_1,2022-03-21T21:01:58.816Z,,,,,,,,,,,,,,,,,,,,,,,,,,,,,,3563.3510000238457,,completion,,,,F,,,,,,,,silence,,,,,79482.5,79481.60000002384,75901.555,75904.60000002384,75918.249,79504.51,,,
Question 1,html.Screen,2_1_1_2,2022-03-21T21:01:59.853Z,,,,,,,,,,,,,,,,,,,,,,,,,,,,true,TRUE,1014.4900000000052,,response,,,100,F,,,TRUE,click #choice-1,,,,silence,,,,,80519.80000007153,80519,79487.794,79482.60000002384,79504.51,80521.816,,,
Question 2,html.Screen,2_1_1_3,2022-03-21T21:02:00.317Z,,,,,,,,,,,,,,,,,,,,,,,,,,,,true,FALSE,461.2840000238357,,response,,,100,F,,,FALSE,click #choice-2,,,,silence,,,,,80983.60000002384,80983.10000002384,80505.315,80519.90000009537,80521.816,80988.985,,,
Item 100,flow.Sequence,2_1_1,2022-03-21T21:02:00.317Z,,,,,,,,,,,,,,,,,,,,,,,,,,,,,,15072.999000023847,,completion,,,,,,,,,,,,,,,,,80983.90000009537,80983.10000002384,65893.492,65896.10000002384,65910.101,80988.985,,,
End of Practice,html.Page,2_1_2,2022-03-21T21:02:01.517Z,,,,,,,,,,,,,,,,,,,,,,,,,,,,,,1194.815000071525,,form submission,,,,,,,,,,,,,,,,,82184.20000004768,82183.80000007153,80972.317,80983.90000009537,80988.985,82189.928,,,
Practice,flow.Sequence,2_1,2022-03-21T21:02:01.517Z,,,,,,,,,,,,,,,,,,,,,,,,,,,,,,33003.91500007152,,completion,,,,,,,,,,,,,,,,,82184.40000009537,82183.80000007153,49163.318,49168.60000002384,49179.885,82189.928,,,
Trap_instruction,html.Page,2_2_0,2022-03-21T21:02:02.741Z,,,,,,,,,,,,,,,,,,,,,,,,,,,,,,1217.7720000476838,,form submission,,,,,,,,,,,,,,,,,83408,83407.70000004768,82173.353,82184.5,82189.928,83407.544,,,
trap_trial,html.Screen,2_2_1,2022-03-21T21:02:05.165Z,,,,,,,,,,,,,,,,,,,,,,,,,,,,true,1,2423.6560000476893,,response,,,,,,,1,click #choice-1,,,,,,,,,85831.90000009537,85831.20000004768,83390.93,83408.10000002384,83407.544,85842.848,,,
end of trap trial,html.Page,2_2_2,2022-03-21T21:02:06.310Z,,,,,,,,,,,,,,,,,,,,,,,,,,,,,,1133.4520000715274,,form submission,,,,,,,,,,,,,,,,,86976.70000004768,86976.30000007153,85826.23,85832,85842.848,86977.151,,,
Trap 1,flow.Sequence,2_2,2022-03-21T21:02:06.310Z,,,,,,,,,,,,,,,,,,,,,,,,,,,,,,4786.372000071526,,completion,,,,,,,,,,,,,,,,,86976.90000009537,86976.30000007153,82173.353,82184.40000009537,82189.928,86977.151,,,
Standby,html.Page,2_3_0,2022-03-21T21:02:14.301Z,,,,,,,,,,,,,,,,,,,,,,,,,,,,,,8006.4419999999955,,timeout,,,,,,,,,,,,,,,,,94967.60000002384,94966.944,86960.441,86976.90000009537,86977.151,94983.593,,,
Holding screen,html.Screen,2_3_1_0_0,2022-03-21T21:02:21.306Z,,,,,,,,,,,,,,,,,,,,,,,,,,,,,,7005.516000000003,,timeout,,,,,,,,,,,,,,,,,101973.30000007153,101972.584,94966.944,94967.90000009537,94983.593,101989.109,,,
screen,html.Screen,2_3_1_0_1_0,2022-03-21T21:02:22.103Z,,,,,,,,,,,,,,,,,19,,,,,,,,,,,,,780.4910000238451,,response,,,17,F,,,Space,keypress(Space),,,,lyrical,,,,"Interestingly, --- -------- -------- ---------- ---- -------<br>-- ---------- -- --- ----- ------ ----- ---- --------- ----<br>------- ------ -------- -- ------ ---------- ------ ---<br>------ -- -- ---- -- ---------- -------- ------ ---- -------<br>---- --- --------- ------- ----- --------- ---- ----- --<br>------ -------- -- ------ -- ---- ------------",102770.30000007153,102769.60000002384,101972.584,101973.60000002384,101989.109,102773.221,,0,"Interestingly,"
screen,html.Screen,2_3_1_0_1_1,2022-03-21T21:02:22.617Z,,,,,,,,,,,,,,,,,19,,,,,,,,,,,,,510.1790000953624,,response,,,17,F,,,Space,keypress(Space),,,,lyrical,,,,-------------- the -------- -------- ---------- ---- -------<br>-- ---------- -- --- ----- ------ ----- ---- --------- ----<br>------- ------ -------- -- ------ ---------- ------ ---<br>------ -- -- ---- -- ---------- -------- ------ ---- -------<br>---- --- --------- ------- ----- --------- ---- ----- --<br>------ -------- -- ------ -- ---- ------------,103284.10000002384,103283.40000009537,102756.503,102770.70000004768,102773.221,103307.019,,1,the
screen,html.Screen,2_3_1_0_1_2,2022-03-21T21:02:22.648Z,,,,,,,,,,,,,,,,,19,,,,,,,,,,,,,6.980999999999767,,response,,,17,F,,,Space,keypress(Space),,,,lyrical,,,,-------------- --- heaviest -------- ---------- ---- -------<br>-- ---------- -- --- ----- ------ ----- ---- --------- ----<br>------- ------ -------- -- ------ ---------- ------ ---<br>------ -- -- ---- -- ---------- -------- ------ ---- -------<br>---- --- --------- ------- ----- --------- ---- ----- --<br>------ -------- -- ------ -- ---- ------------,103314.90000009537,103314,103290.307,103284.30000007153,103307.019,103340.394,,2,heaviest
screen,html.Screen,2_3_1_0_1_3,2022-03-21T21:02:22.679Z,,,,,,,,,,,,,,,,,19,,,,,,,,,,,,,4.806000047683483,,response,,,17,F,,,Space,keypress(Space),,,,lyrical,,,,-------------- --- -------- isotopes ---------- ---- -------<br>-- ---------- -- --- ----- ------ ----- ---- --------- ----<br>------- ------ -------- -- ------ ---------- ------ ---<br>------ -- -- ---- -- ---------- -------- ------ ---- -------<br>---- --- --------- ------- ----- --------- ---- ----- --<br>------ -------- -- ------ -- ---- ------------,103345.90000009537,103345.20000004768,103323.669,103315.10000002384,103340.394,103373.731,,3,isotopes
screen,html.Screen,2_3_1_0_1_4,2022-03-21T21:02:22.711Z,,,,,,,,,,,,,,,,,19,,,,,,,,,,,,,3.1690000953676645,,response,,,17,F,,,Space,keypress(Space),,,,lyrical,,,,-------------- --- -------- -------- physicists ---- -------<br>-- ---------- -- --- ----- ------ ----- ---- --------- ----<br>------- ------ -------- -- ------ ---------- ------ ---<br>------ -- -- ---- -- ---------- -------- ------ ---- -------<br>---- --- --------- ------- ----- --------- ---- ----- --<br>------ -------- -- ------ -- ---- ------------,103377.60000002384,103376.90000009537,103357.031,103346.10000002384,103373.731,103407.105,,4,physicists
screen,html.Screen,2_3_1_0_1_5,2022-03-21T21:02:22.743Z,,,,,,,,,,,,,,,,,19,,,,,,,,,,,,,1.7950000953715062,,response,,,17,F,,,Space,keypress(Space),,,,lyrical,,,,-------------- --- -------- -------- ---------- have -------<br>-- ---------- -- --- ----- ------ ----- ---- --------- ----<br>------- ------ -------- -- ------ ---------- ------ ---<br>------ -- -- ---- -- ---------- -------- ------ ---- -------<br>---- --- --------- ------- ----- --------- ---- ----- --<br>------ -------- -- ------ -- ---- ------------,103409.5,103408.90000009537,103390.403,103377.80000007153,103407.105,103440.417,,5,have
screen,html.Screen,2_3_1_0_1_6,2022-03-21T21:02:22.774Z,,,,,,,,,,,,,,,,,19,,,,,,,,,,,,,16.44400004768977,,response,,,17,F,,,Space,keypress(Space),,,,lyrical,,,,-------------- --- -------- -------- ---------- ---- managed<br>-- ---------- -- --- ----- ------ ----- ---- --------- ----<br>------- ------ -------- -- ------ ---------- ------ ---<br>------ -- -- ---- -- ---------- -------- ------ ---- -------<br>---- --- --------- ------- ----- --------- ---- ----- --<br>------ -------- -- ------ -- ---- ------------,103440.90000009537,103440.20000004768,103423.756,103409.60000002384,,103457.094,,6,managed
screen,html.Screen,2_3_1_0_1_7,2022-03-21T21:02:22.805Z,,,,,,,,,,,,,,,,,19,,,,,,,,,,,,,14.206000071528251,,response,,,17,F,,,Space,keypress(Space),,,,lyrical,,,,-------------- --- -------- -------- ---------- ---- -------<br>to ---------- -- --- ----- ------ ----- ---- --------- ----<br>------- ------ -------- -- ------ ---------- ------ ---<br>------ -- -- ---- -- ---------- -------- ------ ---- -------<br>---- --- --------- ------- ----- --------- ---- ----- --<br>------ -------- -- ------ -- ---- ------------,103471.90000009537,103471.30000007153,103440.417,103441.10000002384,103457.094,103490.535,,7,to
screen,html.Screen,2_3_1_0_1_8,2022-03-21T21:02:22.837Z,,,,,,,,,,,,,,,,,19,,,,,,,,,,,,,12.464999999996508,,response,,,17,F,,,Space,keypress(Space),,,,lyrical,,,,-------------- --- -------- -------- ---------- ---- -------<br>-- synthesize -- --- ----- ------ ----- ---- --------- ----<br>------- ------ -------- -- ------ ---------- ------ ---<br>------ -- -- ---- -- ---------- -------- ------ ---- -------<br>---- --- --------- ------- ----- --------- ---- ----- --<br>------ -------- -- ------ -- ---- ------------,103503.60000002384,103503,103473.749,103472.10000002384,103490.535,103523.81,,8,synthesize
screen,html.Screen,2_3_1_0_1_9,2022-03-21T21:02:22.869Z,,,,,,,,,,,,,,,,,19,,,,,,,,,,,,,11.490000071527902,,response,,,17,F,,,Space,keypress(Space),,,,lyrical,,,,-------------- --- -------- -------- ---------- ---- -------<br>-- ---------- so --- ----- ------ ----- ---- --------- ----<br>------- ------ -------- -- ------ ---------- ------ ---<br>------ -- -- ---- -- ---------- -------- ------ ---- -------<br>---- --- --------- ------- ----- --------- ---- ----- --<br>------ -------- -- ------ -- ---- ------------,103535.90000009537,103535.30000007153,103507.107,103503.80000007153,103523.81,103557.196,,9,so
screen,html.Screen,2_3_1_0_1_10,2022-03-21T21:02:22.900Z,,,,,,,,,,,,,,,,,19,,,,,,,,,,,,,9.004000047687441,,response,,,17,F,,,Space,keypress(Space),,,,lyrical,,,,-------------- --- -------- -------- ---------- ---- -------<br>-- ---------- -- far ----- ------ ----- ---- --------- ----<br>------- ------ -------- -- ------ ---------- ------ ---<br>------ -- -- ---- -- ---------- -------- ------ ---- -------<br>---- --- --------- ------- ----- --------- ---- ----- --<br>------ -------- -- ------ -- ---- ------------,103566.80000007153,103566.20000004768,103540.535,103536.10000002384,103557.196,103590.622,,10,far
screen,html.Screen,2_3_1_0_1_11,2022-03-21T21:02:22.947Z,,,,,,,,,,,,,,,,,19,,,,,,,,,,,,,22.47800002383883,,response,,,17,F,,,Space,keypress(Space),,,,lyrical,,,,-------------- --- -------- -------- ---------- ---- -------<br>-- ---------- -- --- don't ------ ----- ---- --------- ----<br>------- ------ -------- -- ------ ---------- ------ ---<br>------ -- -- ---- -- ---------- -------- ------ ---- -------<br>---- --- --------- ------- ----- --------- ---- ----- --<br>------ -------- -- ------ -- ---- ------------,103613.60000002384,103613.10000002384,103573.902,103567,103590.622,103623.838,,11,don't
screen,html.Screen,2_3_1_0_1_12,2022-03-21T21:02:22.979Z,,,,,,,,,,,,,,,,,19,,,,,,,,,,,,,21.262000023838482,,response,,,17,F,,,Space,keypress(Space),,,,lyrical,,,,-------------- --- -------- -------- ---------- ---- -------<br>-- ---------- -- --- ----- behave ----- ---- --------- ----<br>------- ------ -------- -- ------ ---------- ------ ---<br>------ -- -- ---- -- ---------- -------- ------ ---- -------<br>---- --- --------- ------- ----- --------- ---- ----- --<br>------ -------- -- ------ -- ---- ------------,103645.80000007153,103645.10000002384,103607.243,103613.80000007153,103623.838,103657.254,,12,behave
screen,html.Screen,2_3_1_0_1_13,2022-03-21T21:02:23.011Z,,,,,,,,,,,,,,,,,19,,,,,,,,,,,,,19.646000095366617,,response,,,17,F,,,Space,keypress(Space),,,,lyrical,,,,-------------- --- -------- -------- ---------- ---- -------<br>-- ---------- -- --- ----- ------ quite ---- --------- ----<br>------- ------ -------- -- ------ ---------- ------ ---<br>------ -- -- ---- -- ---------- -------- ------ ---- -------<br>---- --- --------- ------- ----- --------- ---- ----- --<br>------ -------- -- ------ -- ---- ------------,103677.5,103676.90000009537,103640.605,103646,103657.254,103690.66,,13,quite
screen,html.Screen,2_3_1_0_1_14,2022-03-21T21:02:23.042Z,,,,,,,,,,,,,,,,,19,,,,,,,,,,,,,17.64000007152208,,response,,,17,F,,,Space,keypress(Space),,,,lyrical,,,,-------------- --- -------- -------- ---------- ---- -------<br>-- ---------- -- --- ----- ------ ----- like --------- ----<br>------- ------ -------- -- ------ ---------- ------ ---<br>------ -- -- ---- -- ---------- -------- ------ ---- -------<br>---- --- --------- ------- ----- --------- ---- ----- --<br>------ -------- -- ------ -- ---- ------------,103708.90000009537,103708.30000007153,103673.95,103677.70000004768,103690.66,103723.975,,14,like
screen,html.Screen,2_3_1_0_1_15,2022-03-21T21:02:23.074Z,,,,,,,,,,,,,,,,,19,,,,,,,,,,,,,16.125000023836037,,response,,,17,F,,,Space,keypress(Space),,,,lyrical,,,,-------------- --- -------- -------- ---------- ---- -------<br>-- ---------- -- --- ----- ------ ----- ---- science's ----<br>------- ------ -------- -- ------ ---------- ------ ---<br>------ -- -- ---- -- ---------- -------- ------ ---- -------<br>---- --- --------- ------- ----- --------- ---- ----- --<br>------ -------- -- ------ -- ---- ------------,103740.70000004768,103740.10000002384,103707.309,103709,103723.975,103757.376,,15,science's
screen,html.Screen,2_3_1_0_1_16,2022-03-21T21:02:23.106Z,,,,,,,,,,,,,,,,,19,,,,,,,,,,,,,14.623999999996158,,response,,,17,F,,,Space,keypress(Space),,,,lyrical,,,,-------------- --- -------- -------- ---------- ---- -------<br>-- ---------- -- --- ----- ------ ----- ---- --------- best<br>------- ------ -------- -- ------ ---------- ------ ---<br>------ -- -- ---- -- ---------- -------- ------ ---- -------<br>---- --- --------- ------- ----- --------- ---- ----- --<br>------ -------- -- ------ -- ---- ------------,103772.60000002384,103772,103740.628,103740.90000009537,103757.376,103790.619,,16,best
screen,html.Screen,2_3_1_0_1_17,2022-03-21T21:02:23.138Z,,,,,,,,,,,,,,,,,19,,,,,,,,,,,,,13.380999999993946,,response,,,17,F,,,Space,keypress(Space),,,,lyrical,,,,-------------- --- -------- -------- ---------- ---- -------<br>-- ---------- -- --- ----- ------ ----- ---- --------- ----<br>current ------ -------- -- ------ ---------- ------ ---<br>------ -- -- ---- -- ---------- -------- ------ ---- -------<br>---- --- --------- ------- ----- --------- ---- ----- --<br>------ -------- -- ------ -- ---- ------------,103804.60000002384,103804,103773.996,103772.80000007153,103790.619,103824.106,,17,current
screen,html.Screen,2_3_1_0_1_18,2022-03-21T21:02:23.169Z,,,,,,,,,,,,,,,,,19,,,,,,,,,,,,,11.694000071525807,,response,,,17,F,,,Space,keypress(Space),,,,lyrical,,,,-------------- --- -------- -------- ---------- ---- -------<br>-- ---------- -- --- ----- ------ ----- ---- --------- ----<br>------- models -------- -- ------ ---------- ------ ---<br>------ -- -- ---- -- ---------- -------- ------ ---- -------<br>---- --- --------- ------- ----- --------- ---- ----- --<br>------ -------- -- ------ -- ---- ------------,103836.40000009537,103835.80000007153,103807.395,103804.80000007153,103824.106,103857.463,,18,models
screen,html.Screen,2_3_1_0_1_19,2022-03-21T21:02:23.201Z,,,,,,,,,,,,,,,,,19,,,,,,,,,,,,,9.73700004768034,,response,,,17,F,,,Space,keypress(Space),,,,lyrical,,,,"-------------- --- -------- -------- ---------- ---- -------<br>-- ---------- -- --- ----- ------ ----- ---- --------- ----<br>------- ------ predict, -- ------ ---------- ------ ---<br>------ -- -- ---- -- ---------- -------- ------ ---- -------<br>---- --- --------- ------- ----- --------- ---- ----- --<br>------ -------- -- ------ -- ---- ------------",103867.80000007153,103867.20000004768,103840.754,103836.60000002384,103857.463,103890.825,,19,"predict,"
screen,html.Screen,2_3_1_0_1_20,2022-03-21T21:02:23.233Z,,,,,,,,,,,,,,,,,19,,,,,,,,,,,,,8.075000095370342,,response,,,17,F,,,Space,keypress(Space),,,,lyrical,,,,-------------- --- -------- -------- ---------- ---- -------<br>-- ---------- -- --- ----- ------ ----- ---- --------- ----<br>------- ------ -------- so ------ ---------- ------ ---<br>------ -- -- ---- -- ---------- -------- ------ ---- -------<br>---- --- --------- ------- ----- --------- ---- ----- --<br>------ -------- -- ------ -- ---- ------------,103899.5,103898.90000009537,103874.112,103868.10000002384,103890.825,103924.167,,20,so
screen,html.Screen,2_3_1_0_1_21,2022-03-21T21:02:23.264Z,,,,,,,,,,,,,,,,,19,,,,,,,,,,,,,5.733000095366151,,response,,,17,F,,,Space,keypress(Space),,,,lyrical,,,,-------------- --- -------- -------- ---------- ---- -------<br>-- ---------- -- --- ----- ------ ----- ---- --------- ----<br>------- ------ -------- -- stable ---------- ------ ---<br>------ -- -- ---- -- ---------- -------- ------ ---- -------<br>---- --- --------- ------- ----- --------- ---- ----- --<br>------ -------- -- ------ -- ---- ------------,103930.60000002384,103929.90000009537,103907.473,103899.70000004768,103924.167,103957.533,,21,stable
screen,html.Screen,2_3_1_0_1_22,2022-03-21T21:02:23.297Z,,,,,,,,,,,,,,,,,19,,,,,,,,,,,,,4.067000023846049,,response,,,17,F,,,Space,keypress(Space),,,,lyrical,,,,-------------- --- -------- -------- ---------- ---- -------<br>-- ---------- -- --- ----- ------ ----- ---- --------- ----<br>------- ------ -------- -- ------ superheavy ------ ---<br>------ -- -- ---- -- ---------- -------- ------ ---- -------<br>---- --- --------- ------- ----- --------- ---- ----- --<br>------ -------- -- ------ -- ---- ------------,103963.40000009537,103961.60000002384,103940.857,103930.70000004768,103957.533,103990.831,,22,superheavy
screen,html.Screen,2_3_1_0_1_23,2022-03-21T21:02:23.342Z,,,,,,,,,,,,,,,,,19,,,,,,,,,,,,,17.969000071519986,,response,,,17,F,,,Space,keypress(Space),,,,lyrical,,,,-------------- --- -------- -------- ---------- ---- -------<br>-- ---------- -- --- ----- ------ ----- ---- --------- ----<br>------- ------ -------- -- ------ ---------- nuclei ---<br>------ -- -- ---- -- ---------- -------- ------ ---- -------<br>---- --- --------- ------- ----- --------- ---- ----- --<br>------ -------- -- ------ -- ---- ------------,104009.20000004768,104008.80000007153,103974.156,103963.60000002384,103990.831,104024.271,,23,nuclei
screen,html.Screen,2_3_1_0_1_24,2022-03-21T21:02:23.375Z,,,,,,,,,,,,,,,,,19,,,,,,,,,,,,,16.829000023848494,,response,,,17,F,,,Space,keypress(Space),,,,lyrical,,,,-------------- --- -------- -------- ---------- ---- -------<br>-- ---------- -- --- ----- ------ ----- ---- --------- ----<br>------- ------ -------- -- ------ ---------- ------ are<br>------ -- -- ---- -- ---------- -------- ------ ---- -------<br>---- --- --------- ------- ----- --------- ---- ----- --<br>------ -------- -- ------ -- ---- ------------,104041.60000002384,104041.10000002384,104007.508,104009.30000007153,104024.271,104057.636,,24,are
screen,html.Screen,2_3_1_0_1_25,2022-03-21T21:02:23.406Z,,,,,,,,,,,,,,,,,19,,,,,,,,,,,,,14.264000095368829,,response,,,17,F,,,Space,keypress(Space),,,,lyrical,,,,-------------- --- -------- -------- ---------- ---- -------<br>-- ---------- -- --- ----- ------ ----- ---- --------- ----<br>------- ------ -------- -- ------ ---------- ------ ---<br>likely -- -- ---- -- ---------- -------- ------ ---- -------<br>---- --- --------- ------- ----- --------- ---- ----- --<br>------ -------- -- ------ -- ---- ------------,104072.5,104071.90000009537,104040.874,104041.80000007153,104057.636,104090.976,,25,likely
screen,html.Screen,2_3_1_0_1_26,2022-03-21T21:02:23.436Z,,,,,,,,,,,,,,,,,19,,,,,,,,,,,,,11.324000071530463,,response,,,17,F,,,Space,keypress(Space),,,,lyrical,,,,-------------- --- -------- -------- ---------- ---- -------<br>-- ---------- -- --- ----- ------ ----- ---- --------- ----<br>------- ------ -------- -- ------ ---------- ------ ---<br>------ to -- ---- -- ---------- -------- ------ ---- -------<br>---- --- --------- ------- ----- --------- ---- ----- --<br>------ -------- -- ------ -- ---- ------------,104102.80000007153,104102.30000007153,104074.247,104072.60000002384,104090.976,104124.349,,26,to
screen,html.Screen,2_3_1_0_1_27,2022-03-21T21:02:23.468Z,,,,,,,,,,,,,,,,,19,,,,,,,,,,,,,9.751000023839879,,response,,,17,F,,,Space,keypress(Space),,,,lyrical,,,,-------------- --- -------- -------- ---------- ---- -------<br>-- ---------- -- --- ----- ------ ----- ---- --------- ----<br>------- ------ -------- -- ------ ---------- ------ ---<br>------ -- be ---- -- ---------- -------- ------ ---- -------<br>---- --- --------- ------- ----- --------- ---- ----- --<br>------ -------- -- ------ -- ---- ------------,104134.60000002384,104134.10000002384,104107.641,104103.10000002384,104124.349,104157.723,,27,be
screen,html.Screen,2_3_1_0_1_28,2022-03-21T21:02:23.500Z,,,,,,,,,,,,,,,,,19,,,,,,,,,,,,,8.37700002384372,,response,,,17,F,,,Space,keypress(Space),,,,lyrical,,,,-------------- --- -------- -------- ---------- ---- -------<br>-- ---------- -- --- ----- ------ ----- ---- --------- ----<br>------- ------ -------- -- ------ ---------- ------ ---<br>------ -- -- full -- ---------- -------- ------ ---- -------<br>---- --- --------- ------- ----- --------- ---- ----- --<br>------ -------- -- ------ -- ---- ------------,104166.70000004768,104166.10000002384,104141.001,104134.80000007153,104157.723,104191.068,,28,full
screen,html.Screen,2_3_1_0_1_29,2022-03-21T21:02:23.532Z,,,,,,,,,,,,,,,,,19,,,,,,,,,,,,,6.9320000000006985,,response,,,17,F,,,Space,keypress(Space),,,,lyrical,,,,-------------- --- -------- -------- ---------- ---- -------<br>-- ---------- -- --- ----- ------ ----- ---- --------- ----<br>------- ------ -------- -- ------ ---------- ------ ---<br>------ -- -- ---- of ---------- -------- ------ ---- -------<br>---- --- --------- ------- ----- --------- ---- ----- --<br>------ -------- -- ------ -- ---- ------------,104198.5,104198,104174.356,104166.90000009537,104191.068,104224.428,,29,of
screen,html.Screen,2_3_1_0_1_30,2022-03-21T21:02:23.563Z,,,,,,,,,,,,,,,,,19,,,,,,,,,,,,,4.572000000000116,,response,,,17,F,,,Space,keypress(Space),,,,lyrical,,,,-------------- --- -------- -------- ---------- ---- -------<br>-- ---------- -- --- ----- ------ ----- ---- --------- ----<br>------- ------ -------- -- ------ ---------- ------ ---<br>------ -- -- ---- -- surprises. -------- ------ ---- -------<br>---- --- --------- ------- ----- --------- ---- ----- --<br>------ -------- -- ------ -- ---- ------------,104229.60000002384,104229,104207.725,104198.80000007153,104224.428,104257.784,,30,surprises.
screen,html.Screen,2_3_1_0_1_31,2022-03-21T21:02:23.594Z,,,,,,,,,,,,,,,,,19,,,,,,,,,,,,,2.316000023842207,,response,,,17,F,,,Space,keypress(Space),,,,lyrical,,,,-------------- --- -------- -------- ---------- ---- -------<br>-- ---------- -- --- ----- ------ ----- ---- --------- ----<br>------- ------ -------- -- ------ ---------- ------ ---<br>------ -- -- ---- -- ---------- Chemists ------ ---- -------<br>---- --- --------- ------- ----- --------- ---- ----- --<br>------ -------- -- ------ -- ---- ------------,104260.60000002384,104260.10000002384,104241.073,104229.80000007153,104257.784,104291.15,,31,Chemists
screen,html.Screen,2_3_1_0_1_32,2022-03-21T21:02:23.626Z,,,,,,,,,,,,,,,,,19,,,,,,,,,,,,,1.0500000476895366,,response,,,17,F,,,Space,keypress(Space),,,,lyrical,,,,-------------- --- -------- -------- ---------- ---- -------<br>-- ---------- -- --- ----- ------ ----- ---- --------- ----<br>------- ------ -------- -- ------ ---------- ------ ---<br>------ -- -- ---- -- ---------- -------- cannot ---- -------<br>---- --- --------- ------- ----- --------- ---- ----- --<br>------ -------- -- ------ -- ---- ------------,104292.80000007153,104292.20000004768,104274.437,104260.90000009537,104291.15,104324.525,,32,cannot
screen,html.Screen,2_3_1_0_1_33,2022-03-21T21:02:23.673Z,,,,,,,,,,,,,,,,,19,,,,,,,,,,,,,14.375000095373252,,response,,,17,F,,,Space,keypress(Space),,,,lyrical,,,,-------------- --- -------- -------- ---------- ---- -------<br>-- ---------- -- --- ----- ------ ----- ---- --------- ----<br>------- ------ -------- -- ------ ---------- ------ ---<br>------ -- -- ---- -- ---------- -------- ------ even -------<br>---- --- --------- ------- ----- --------- ---- ----- --<br>------ -------- -- ------ -- ---- ------------,104339.60000002384,104338.90000009537,104307.77,104292.90000009537,104324.525,104357.849,,33,even
screen,html.Screen,2_3_1_0_1_34,2022-03-21T21:02:23.704Z,,,,,,,,,,,,,,,,,19,,,,,,,,,,,,,12.451000071523595,,response,,,17,F,,,Space,keypress(Space),,,,lyrical,,,,-------------- --- -------- -------- ---------- ---- -------<br>-- ---------- -- --- ----- ------ ----- ---- --------- ----<br>------- ------ -------- -- ------ ---------- ------ ---<br>------ -- -- ---- -- ---------- -------- ------ ---- predict<br>---- --- --------- ------- ----- --------- ---- ----- --<br>------ -------- -- ------ -- ---- ------------,104370.90000009537,104370.30000007153,104341.152,104339.80000007153,104357.849,104391.169,,34,predict
screen,html.Screen,2_3_1_0_1_35,2022-03-21T21:02:23.736Z,,,,,,,,,,,,,,,,,19,,,,,,,,,,,,,10.831000000005588,,response,,,17,F,,,Space,keypress(Space),,,,lyrical,,,,-------------- --- -------- -------- ---------- ---- -------<br>-- ---------- -- --- ----- ------ ----- ---- --------- ----<br>------- ------ -------- -- ------ ---------- ------ ---<br>------ -- -- ---- -- ---------- -------- ------ ---- -------<br>with --- --------- ------- ----- --------- ---- ----- --<br>------ -------- -- ------ -- ---- ------------,104402.60000002384,104402,104374.542,104371.10000002384,104391.169,104424.585,,35,with
screen,html.Screen,2_3_1_0_1_36,2022-03-21T21:02:23.768Z,,,,,,,,,,,,,,,,,19,,,,,,,,,,,,,9.315000095361029,,response,,,17,F,,,Space,keypress(Space),,,,lyrical,,,,-------------- --- -------- -------- ---------- ---- -------<br>-- ---------- -- --- ----- ------ ----- ---- --------- ----<br>------- ------ -------- -- ------ ---------- ------ ---<br>------ -- -- ---- -- ---------- -------- ------ ---- -------<br>---- any --------- ------- ----- --------- ---- ----- --<br>------ -------- -- ------ -- ---- ------------,104434.5,104433.90000009537,104407.872,104402.80000007153,104424.585,104457.98,,36,any
screen,html.Screen,2_3_1_0_1_37,2022-03-21T21:02:23.800Z,,,,,,,,,,,,,,,,,19,,,,,,,,,,,,,7.820000071529648,,response,,,17,F,,,Space,keypress(Space),,,,lyrical,,,,-------------- --- -------- -------- ---------- ---- -------<br>-- ---------- -- --- ----- ------ ----- ---- --------- ----<br>------- ------ -------- -- ------ ---------- ------ ---<br>------ -- -- ---- -- ---------- -------- ------ ---- -------<br>---- --- certainty ------- ----- --------- ---- ----- --<br>------ -------- -- ------ -- ---- ------------,104466.40000009537,104465.80000007153,104441.256,104434.70000004768,104457.98,104491.317,,37,certainty
screen,html.Screen,2_3_1_0_1_38,2022-03-21T21:02:23.832Z,,,,,,,,,,,,,,,,,19,,,,,,,,,,,,,6.68300000000454,,response,,,17,F,,,Space,keypress(Space),,,,lyrical,,,,-------------- --- -------- -------- ---------- ---- -------<br>-- ---------- -- --- ----- ------ ----- ---- --------- ----<br>------- ------ -------- -- ------ ---------- ------ ---<br>------ -- -- ---- -- ---------- -------- ------ ---- -------<br>---- --- --------- whether ----- --------- ---- ----- --<br>------ -------- -- ------ -- ---- ------------,104498.60000002384,104498,104474.631,104466.60000002384,104491.317,104524.693,,38,whether
screen,html.Screen,2_3_1_0_1_39,2022-03-21T21:02:23.862Z,,,,,,,,,,,,,,,,,19,,,,,,,,,,,,,3.6070000715262722,,response,,,17,F,,,Space,keypress(Space),,,,lyrical,,,,-------------- --- -------- -------- ---------- ---- -------<br>-- ---------- -- --- ----- ------ ----- ---- --------- ----<br>------- ------ -------- -- ------ ---------- ------ ---<br>------ -- -- ---- -- ---------- -------- ------ ---- -------<br>---- --- --------- ------- these --------- ---- ----- --<br>------ -------- -- ------ -- ---- ------------,104529,104528.30000007153,104507.959,104498.80000007153,104524.693,104558.032,,39,these
screen,html.Screen,2_3_1_0_1_40,2022-03-21T21:02:23.894Z,,,,,,,,,,,,,,,,,19,,,,,,,,,,,,,1.9679999999934807,,response,,,17,F,,,Space,keypress(Space),,,,lyrical,,,,-------------- --- -------- -------- ---------- ---- -------<br>-- ---------- -- --- ----- ------ ----- ---- --------- ----<br>------- ------ -------- -- ------ ---------- ------ ---<br>------ -- -- ---- -- ---------- -------- ------ ---- -------<br>---- --- --------- ------- ----- materials ---- ----- --<br>------ -------- -- ------ -- ---- ------------,104560.60000002384,104560,104541.312,104529.10000002384,104558.032,104591.406,,40,materials
screen,html.Screen,2_3_1_0_1_41,2022-03-21T21:02:23.926Z,,,,,,,,,,,,,,,,,19,,,,,,,,,,,,,0.3940000715228962,,response,,,17,F,,,Space,keypress(Space),,,,lyrical,,,,-------------- --- -------- -------- ---------- ---- -------<br>-- ---------- -- --- ----- ------ ----- ---- --------- ----<br>------- ------ -------- -- ------ ---------- ------ ---<br>------ -- -- ---- -- ---------- -------- ------ ---- -------<br>---- --- --------- ------- ----- --------- will ----- --<br>------ -------- -- ------ -- ---- ------------,104592.5,104591.80000007153,104574.587,104560.80000007153,104591.406,104624.769,,41,will
