sender,sender_type,sender_id,timestamp,meta,,Blues,Classical,Country,Dance,Electronic,Folk,Gospel,Hip-Hop,Jazz,Latin,Musical/Film,New-age,Pop,Prolific_id,Provo_ID,R&B,Rap,Reggae,Religious,Rock,Soul,Swing,Traditional,age,artist_name,correct,correctResponse,duration,education,ended_on,gender,headphone_check_performance,item,list,music_frequency,position_correct,response,response_action,snippet_file,song_name,song_rating,sound,stimulus_1,stimulus_2,stimulus_3,text,time_commit,time_end,time_render,time_run,time_show,time_switch,url,word,word_ID
Prolific ID,html.Form,0,2022-03-21T21:21:32.902Z,"{""labjs_version"":""20.2.2"",""labjs_build"":{""flavor"":""production"",""commit"":""a25486e0c714a0ae2ce03ff94b7bb6896854dcfa""},""location"":""https://run.pavlovia.org/mvasilev/prolific3_music_h/?__pilotToken=3c59dc048e8850243be8079a5c74d079&__oauthToken=cc604b6e7d449fc5fe7a311b47aeaf3d810b53f5795c726b331b83656855f6f4"",""userAgent"":""Mozilla/5.0 (Windows NT 10.0; Win64; x64) AppleWebKit/537.36 (KHTML, like Gecko) Chrome/99.0.4844.74 Safari/537.36"",""platform"":""Win32"",""language"":""de-DE"",""locale"":""en-US"",""timeZone"":""Europe/London"",""timezoneOffset"":0,""screen_width"":2560,""screen_height"":1440,""scroll_width"":3200,""scroll_height"":1621,""window_innerWidth"":3200,""window_innerHeight"":1668,""devicePixelRatio"":0.800000011920929}",,,,,,,,,,,,,,,xyz123456789,,,,,,,,,,,,,,2901.8540000476823,,form submission,,,,,,,,,,,,,,,,,19346.200000047684,19345.700000047684,16427.127,10568.5,16443.846,19363.006,"{""__pilotToken"":""3c59dc048e8850243be8079a5c74d079"",""__oauthToken"":""cc604b6e7d449fc5fe7a311b47aeaf3d810b53f5795c726b331b83656855f6f4""}",,
Introduction,html.Screen,1_0,2022-03-21T21:21:34.525Z,,,,,,,,,,,,,,,,,,,,,,,,,,,,,,1605.293999952315,,response,,,,,,,continue,click button,,,,,,,,,20969,20968.299999952316,19346.319,19346.600000023842,19363.006,20980.821,,,
Volume calibration,html.Screen,1_1,2022-03-21T21:21:35.687Z,,,,,,,,,,,,,,,,,,,,,,,,,,,,,,1147.5789999761582,,response,,,,,,,continue,click button,,,,,,,,,22131.799999952316,22128.399999976158,20964.276,20969.200000047684,20980.821,22131.84,,,
Task instructions,html.Screen,1_2,2022-03-21T21:21:36.756Z,,,,,,,,,,,,,,,,,,,,,,,,,,,,,,1068.4599999523161,,response,,,,,,,continue,click button,,,,,,,,,23201,23200.299999952316,22115.181,22131.899999976158,22131.84,23216.055,,,
Sounds,html.Screen,1_3_0_0,2022-03-21T21:21:41.010Z,,,,,,,,,,,,,,,,,,,,,,,,,,,,,,4253.473999999998,,timeout,,,,,,1,,,,,,,S,O,I,,27454.600000023842,27452.804,23199.356,23201.100000023842,23216.055,27469.529,,,
Judgement,html.Screen,1_3_0_1,2022-03-21T21:21:41.541Z,,,,,,,,,,,,,,,,,,,,,,,,,,,,false,1,514.8709999761595,,response,,,,,,1,2,click #choice-2,,,,,S,O,I,,27985.100000023842,27984.399999976158,27452.804,27454.700000047684,27469.529,27986.561,,,
Trial,flow.Sequence,1_3_0,2022-03-21T21:21:41.541Z,,,,,,,,,,,,,,,,,,,,,,,,,,,,,,4768.344999976158,,completion,,,,,,1,,,,,,,S,O,I,,27985.299999952316,27984.399999976158,23199.356,23201.100000023842,23216.055,27986.561,,,
Sounds,html.Screen,1_3_1_0,2022-03-21T21:21:45.780Z,,,,,,,,,,,,,,,,,,,,,,,,,,,,,,4253.504999999997,,timeout,,,,,,2,,,,,,,O,S,I,,32224.100000023842,32223.335,27969.942,27985.600000023842,27986.561,32240.066,,,
Judgement,html.Screen,1_3_1_1,2022-03-21T21:21:46.261Z,,,,,,,,,,,,,,,,,,,,,,,,,,,,true,2,464.2339999523174,,response,,,,,,2,2,click #choice-2,,,,,O,S,I,,32705,32704.299999952316,32223.335,32224.399999976158,32240.066,32707.073,,,
Trial,flow.Sequence,1_3_1,2022-03-21T21:21:46.261Z,,,,,,,,,,,,,,,,,,,,,,,,,,,,,,4717.738999952315,,completion,,,,,,2,,,,,,,O,S,I,,32705.5,32704.299999952316,27969.942,27985.399999976158,27986.561,32707.073,,,
Sounds,html.Screen,1_3_2_0,2022-03-21T21:21:50.500Z,,,,,,,,,,,,,,,,,,,,,,,,,,,,,,4253.426000000003,,timeout,,,,,,3,,,,,,,I,O,S,,36944.700000047684,36943.819,32690.425,32705.600000023842,32707.073,36960.499,,,
Judgement,html.Screen,1_3_2_1,2022-03-21T21:21:51.093Z,,,,,,,,,,,,,,,,,,,,,,,,,,,,true,3,575.9009999761547,,response,,,,,,3,3,click #choice-3,,,,,I,O,S,,37537.200000047684,37536.39999997616,36943.819,36944.89999997616,36960.499,37544.298,,,
Trial,flow.Sequence,1_3_2,2022-03-21T21:21:51.093Z,,,,,,,,,,,,,,,,,,,,,,,,,,,,,,4829.326999976158,,completion,,,,,,3,,,,,,,I,O,S,,37537.5,37536.39999997616,32690.425,32705.600000023842,32707.073,37544.298,,,
Sounds,html.Screen,1_3_3_0,2022-03-21T21:21:55.338Z,,,,,,,,,,,,,,,,,,,,,,,,,,,,,,4253.493999999999,,timeout,,,,,,2,,,,,,,I,S,O,,41782.200000047684,41781.088,37527.656,37537.60000002384,37544.298,41797.792,,,
Judgement,html.Screen,1_3_3_1,2022-03-21T21:21:55.805Z,,,,,,,,,,,,,,,,,,,,,,,,,,,,true,2,450.60799997615686,,response,,,,,,2,2,click #choice-2,,,,,I,S,O,,42249.10000002384,42248.39999997616,41781.088,41782.5,41797.792,42264.829,,,
Trial,flow.Sequence,1_3_3,2022-03-21T21:21:55.805Z,,,,,,,,,,,,,,,,,,,,,,,,,,,,,,4704.101999976156,,completion,,,,,,2,,,,,,,I,S,O,,42249.299999952316,42248.39999997616,37527.656,37537.60000002384,37544.298,42264.829,,,
Sounds,html.Screen,1_3_4_0,2022-03-21T21:22:00.058Z,,,,,,,,,,,,,,,,,,,,,,,,,,,,,,4253.429000000004,,timeout,,,,,,1,,,,,,,S,I,O,,46502.299999952316,46501.564,42248.111,42249.39999997616,42264.829,46518.258,,,
Judgement,html.Screen,1_3_4_1,2022-03-21T21:22:00.500Z,,,,,,,,,,,,,,,,,,,,,,,,,,,,true,1,425.9420000476821,,response,,,,,,1,1,click #choice-1,,,,,S,I,O,,46944.89999997616,46944.200000047684,46501.564,46502.60000002384,46518.258,46951.783,,,
Trial,flow.Sequence,1_3_4,2022-03-21T21:22:00.500Z,,,,,,,,,,,,,,,,,,,,,,,,,,,,,,4679.371000047686,,completion,,,,,,1,,,,,,,S,I,O,,46944.89999997616,46944.200000047684,42248.111,42249.299999952316,42264.829,46951.783,,,
Sounds,html.Screen,1_3_5_0,2022-03-21T21:22:04.745Z,,,,,,,,,,,,,,,,,,,,,,,,,,,,,,4253.639999999999,,timeout,,,,,,3,,,,,,,O,I,S,,51189.39999997616,51188.68,46935.187,46945.10000002384,46951.783,51205.423,,,
Judgement,html.Screen,1_3_5_1,2022-03-21T21:22:05.389Z,,,,,,,,,,,,,,,,,,,,,,,,,,,,true,3,626.8769999523138,,response,,,,,,3,3,click #choice-3,,,,,O,I,S,,51833.10000002384,51832.299999952316,51188.68,51189.700000047684,51205.423,51839.202,,,
Trial,flow.Sequence,1_3_5,2022-03-21T21:22:05.389Z,,,,,,,,,,,,,,,,,,,,,,,,,,,,,,4880.516999952313,,completion,,,,,,3,,,,,,,O,I,S,,51833.299999952316,51832.299999952316,46935.187,46945,46951.783,51839.202,,,
Task,flow.Loop,1_3,2022-03-21T21:22:05.394Z,,,,,,,,,,,,,,,,,,,,,,,,,,,,,,28616.244999952316,,completion,,0.8333333333333334,,,,,,,,,,,,,,,51838.10000002384,51832.299999952316,23199.356,23201.100000023842,23216.055,51839.202,,,
Trap,html.Screen,1_4,2022-03-21T21:22:05.395Z,,,,,,,,,,,,,,,,,,,,,,,,,,,,,,NaN,,skipped,,,,,,,,,,,,,,,,,51839.39999997616,51832.299999952316,,51839.299999952316,,51839.202,,,
Thanks,html.Screen,1_5,2022-03-21T21:22:07.636Z,,,,,,,,,,,,,,,,,,,,,,,,,,,,,,2241.1979999761606,,response,,,,,,,continue,click button,,,,,,,,,54081,54080.39999997616,51822.527,51839.5,51839.202,55158.442,,,
Headphone screening,flow.Sequence,1,2022-03-21T21:22:07.637Z,,,,,,,,,,,,,,,,,,,,,,,,,,,,,,34717.39399997616,,completion,,,,,,,,,,,,,,,,,54081.299999952316,54080.39999997616,19346.319,19346.5,19363.006,55158.442,,,
Instructions,html.Page,2_0,2022-03-21T21:22:10.125Z,,,,,,,,,,,,,,,,,,,,,,,,,,,,,,1410.758000047681,,form submission,,,,,,,,,,,,,,,,,56569.700000047684,56569.200000047684,55141.856,55145.5,55158.442,56576.316,,,
Holding screen,html.Screen,2_1_0_0,2022-03-21T21:22:20.124Z,,,,,,,,,,,,,,,,,,,,,,,,,,,,,,10007.996000000006,,timeout,,,,,,,,,,,,,,,,,66568.5,66567.772,56559.632,56569.89999997616,56576.316,66584.312,,,
screen,html.Screen,2_1_0_1_0,2022-03-21T21:22:20.714Z,,,,,,,,,,,,,,,,,53,,,,,,,,,,,,,570.0879999761528,,response,,,99,,,,Space,keypress(Space),,,,,,,,When -- ----- -- ------ - ------- --- ----------<br>------------- ------ ------ ---- ---- ------- ----- -- ----<br>-------- ------- -- ---------- --- - --- ----- ----- ----<br>---- --- --- ----- --- ---- ---- ------- ----- ---- -------<br>--- --- -- ----- -- --- ---- -- --- ---- -- ------ ------<br>--- ----- -- ----,67158.89999997616,67154.39999997616,66567.772,66568.89999997616,66584.312,67184.911,,0,When
screen,html.Screen,2_1_0_1_1,2022-03-21T21:22:21.211Z,,,,,,,,,,,,,,,,,53,,,,,,,,,,,,,469.98899997616536,,response,,,99,,,,Space,keypress(Space),,,,,,,,---- it ----- -- ------ - ------- --- ----------<br>------------- ------ ------ ---- ---- ------- ----- -- ----<br>-------- ------- -- ---------- --- - --- ----- ----- ----<br>---- --- --- ----- --- ---- ---- ------- ----- ---- -------<br>--- --- -- ----- -- --- ---- -- --- ---- -- ------ ------<br>--- ----- -- ----,67655.5,67654.89999997616,67168.208,67159.20000004768,67184.911,67668.673,,1,it
screen,html.Screen,2_1_0_1_2,2022-03-21T21:22:21.243Z,,,,,,,,,,,,,,,,,53,,,,,,,,,,,,,18.126999952321057,,response,,,99,,,,Space,keypress(Space),,,,,,,,---- -- comes -- ------ - ------- --- ----------<br>------------- ------ ------ ---- ---- ------- ----- -- ----<br>-------- ------- -- ---------- --- - --- ----- ----- ----<br>---- --- --- ----- --- ---- ---- ------- ----- ---- -------<br>--- --- -- ----- -- --- ---- -- --- ---- -- ------ ------<br>--- ----- -- ----,67687.39999997616,67686.79999995232,67651.962,67655.70000004768,67668.673,67702.022,,2,comes
screen,html.Screen,2_1_0_1_3,2022-03-21T21:22:21.290Z,,,,,,,,,,,,,,,,,53,,,,,,,,,,,,,31.978000000002794,,response,,,99,,,,Space,keypress(Space),,,,,,,,---- -- ----- to ------ - ------- --- ----------<br>------------- ------ ------ ---- ---- ------- ----- -- ----<br>-------- ------- -- ---------- --- - --- ----- ----- ----<br>---- --- --- ----- --- ---- ---- ------- ----- ---- -------<br>--- --- -- ----- -- --- ---- -- --- ---- -- ------ ------<br>--- ----- -- ----,67734.60000002384,67734,67685.309,67687.70000004768,67702.022,67735.184,,3,to
screen,html.Screen,2_1_0_1_4,2022-03-21T21:22:21.321Z,,,,,,,,,,,,,,,,,53,,,,,,,,,,,,,29.715999976164312,,response,,,99,,,,Space,keypress(Space),,,,,,,,---- -- ----- -- having - ------- --- ----------<br>------------- ------ ------ ---- ---- ------- ----- -- ----<br>-------- ------- -- ---------- --- - --- ----- ----- ----<br>---- --- --- ----- --- ---- ---- ------- ----- ---- -------<br>--- --- -- ----- -- --- ---- -- --- ---- -- ------ ------<br>--- ----- -- ----,67765.5,67764.89999997616,67718.672,67734.79999995232,67735.184,67768.715,,4,having
screen,html.Screen,2_1_0_1_5,2022-03-21T21:22:21.353Z,,,,,,,,,,,,,,,,,53,,,,,,,,,,,,,28.285000000003492,,response,,,99,,,,Space,keypress(Space),,,,,,,,---- -- ----- -- ------ a ------- --- ----------<br>------------- ------ ------ ---- ---- ------- ----- -- ----<br>-------- ------- -- ---------- --- - --- ----- ----- ----<br>---- --- --- ----- --- ---- ---- ------- ----- ---- -------<br>--- --- -- ----- -- --- ---- -- --- ---- -- ------ ------<br>--- ----- -- ----,67797.5,67797,67752.083,67765.70000004768,67768.715,67802.083,,5,a
screen,html.Screen,2_1_0_1_6,2022-03-21T21:22:21.385Z,,,,,,,,,,,,,,,,,53,,,,,,,,,,,,,26.716999952317565,,response,,,99,,,,Space,keypress(Space),,,,,,,,---- -- ----- -- ------ - lasting --- ----------<br>------------- ------ ------ ---- ---- ------- ----- -- ----<br>-------- ------- -- ---------- --- - --- ----- ----- ----<br>---- --- --- ----- --- ---- ---- ------- ----- ---- -------<br>--- --- -- ----- -- --- ---- -- --- ---- -- ------ ------<br>--- ----- -- ----,67829.5,67828.79999995232,67785.425,67797.79999995232,67802.083,67835.27,,6,lasting
screen,html.Screen,2_1_0_1_7,2022-03-21T21:22:21.417Z,,,,,,,,,,,,,,,,,53,,,,,,,,,,,,,25.629999976154068,,response,,,99,,,,Space,keypress(Space),,,,,,,,---- -- ----- -- ------ - ------- and ----------<br>------------- ------ ------ ---- ---- ------- ----- -- ----<br>-------- ------- -- ---------- --- - --- ----- ----- ----<br>---- --- --- ----- --- ---- ---- ------- ----- ---- -------<br>--- --- -- ----- -- --- ---- -- --- ---- -- ------ ------<br>--- ----- -- ----,67861.5,67860.89999997616,67818.788,67829.70000004768,67835.27,67885.449,,7,and
screen,html.Screen,2_1_0_1_8,2022-03-21T21:22:21.448Z,,,,,,,,,,,,,,,,,53,,,,,,,,,,,,,6.15100002384861,,response,,,99,,,,Space,keypress(Space),,,,,,,,---- -- ----- -- ------ - ------- --- fulfilling<br>------------- ------ ------ ---- ---- ------- ----- -- ----<br>-------- ------- -- ---------- --- - --- ----- ----- ----<br>---- --- --- ----- --- ---- ---- ------- ----- ---- -------<br>--- --- -- ----- -- --- ---- -- --- ---- -- ------ ------<br>--- ----- -- ----,67892.20000004768,67891.60000002384,67868.756,67861.70000004768,67885.449,67918.817,,8,fulfilling
screen,html.Screen,2_1_0_1_9,2022-03-21T21:22:21.480Z,,,,,,,,,,,,,,,,,53,,,,,,,,,,,,,4.883000047688256,,response,,,99,,,,Space,keypress(Space),,,,,,,,"---- -- ----- -- ------ - ------- --- ----------<br>relationship, ------ ------ ---- ---- ------- ----- -- ----<br>-------- ------- -- ---------- --- - --- ----- ----- ----<br>---- --- --- ----- --- ---- ---- ------- ----- ---- -------<br>--- --- -- ----- -- --- ---- -- --- ---- -- ------ ------<br>--- ----- -- ----",67924.29999995232,67923.70000004768,67902.167,67892.5,67918.817,67952.225,,9,"relationship,"
screen,html.Screen,2_1_0_1_10,2022-03-21T21:22:21.512Z,,,,,,,,,,,,,,,,,53,,,,,,,,,,,,,3.375000023836037,,response,,,99,,,,Space,keypress(Space),,,,,,,,---- -- ----- -- ------ - ------- --- ----------<br>------------- common ------ ---- ---- ------- ----- -- ----<br>-------- ------- -- ---------- --- - --- ----- ----- ----<br>---- --- --- ----- --- ---- ---- ------- ----- ---- -------<br>--- --- -- ----- -- --- ---- -- --- ---- -- ------ ------<br>--- ----- -- ----,67956.5,67955.60000002384,67935.517,67924.60000002384,67952.225,67985.534,,10,common
screen,html.Screen,2_1_0_1_11,2022-03-21T21:22:21.544Z,,,,,,,,,,,,,,,,,53,,,,,,,,,,,,,2.166000047684065,,response,,,99,,,,Space,keypress(Space),,,,,,,,---- -- ----- -- ------ - ------- --- ----------<br>------------- ------ wisdom ---- ---- ------- ----- -- ----<br>-------- ------- -- ---------- --- - --- ----- ----- ----<br>---- --- --- ----- --- ---- ---- ------- ----- ---- -------<br>--- --- -- ----- -- --- ---- -- --- ---- -- ------ ------<br>--- ----- -- ----,67988.29999995232,67987.70000004768,67968.876,67956.70000004768,67985.534,68018.896,,11,wisdom
screen,html.Screen,2_1_0_1_12,2022-03-21T21:22:21.575Z,,,,,,,,,,,,,,,,,53,,,,,,,,,,,,,0.20400002384849358,,response,,,99,,,,Space,keypress(Space),,,,,,,,---- -- ----- -- ------ - ------- --- ----------<br>------------- ------ ------ says ---- ------- ----- -- ----<br>-------- ------- -- ---------- --- - --- ----- ----- ----<br>---- --- --- ----- --- ---- ---- ------- ----- ---- -------<br>--- --- -- ----- -- --- ---- -- --- ---- -- ------ ------<br>--- ----- -- ----,68019.89999997616,68019.10000002384,68002.198,67988.5,68018.896,68052.253,,12,says
screen,html.Screen,2_1_0_1_13,2022-03-21T21:22:21.607Z,,,,,,,,,,,,,,,,,53,,,,,,,,,,,,,15.442999999999302,,response,,,99,,,,Space,keypress(Space),,,,,,,,---- -- ----- -- ------ - ------- --- ----------<br>------------- ------ ------ ---- that ------- ----- -- ----<br>-------- ------- -- ---------- --- - --- ----- ----- ----<br>---- --- --- ----- --- ---- ---- ------- ----- ---- -------<br>--- --- -- ----- -- --- ---- -- --- ---- -- ------ ------<br>--- ----- -- ----,68051.70000004768,68051,68035.557,68020.10000002384,,68068.989,,13,that
screen,html.Screen,2_1_0_1_14,2022-03-21T21:22:21.654Z,,,,,,,,,,,,,,,,,53,,,,,,,,,,,,,28.61100002384046,,response,,,99,,,,Space,keypress(Space),,,,,,,,---- -- ----- -- ------ - ------- --- ----------<br>------------- ------ ------ ---- ---- feeling ----- -- ----<br>-------- ------- -- ---------- --- - --- ----- ----- ----<br>---- --- --- ----- --- ---- ---- ------- ----- ---- -------<br>--- --- -- ----- -- --- ---- -- --- ---- -- ------ ------<br>--- ----- -- ----,68098.29999995232,68097.60000002384,68052.253,68051.89999997616,68068.989,68119.025,,14,feeling
screen,html.Screen,2_1_0_1_15,2022-03-21T21:22:21.686Z,,,,,,,,,,,,,,,,,53,,,,,,,,,,,,,10.575000023847679,,response,,,99,,,,Space,keypress(Space),,,,,,,,---- -- ----- -- ------ - ------- --- ----------<br>------------- ------ ------ ---- ---- ------- close -- ----<br>-------- ------- -- ---------- --- - --- ----- ----- ----<br>---- --- --- ----- --- ---- ---- ------- ----- ---- -------<br>--- --- -- ----- -- --- ---- -- --- ---- -- ------ ------<br>--- ----- -- ----,68130.20000004768,68129.60000002384,68102.335,68098.5,68119.025,68152.389,,15,close
screen,html.Screen,2_1_0_1_16,2022-03-21T21:22:21.718Z,,,,,,,,,,,,,,,,,53,,,,,,,,,,,,,9.211000023846282,,response,,,99,,,,Space,keypress(Space),,,,,,,,---- -- ----- -- ------ - ------- --- ----------<br>------------- ------ ------ ---- ---- ------- ----- to ----<br>-------- ------- -- ---------- --- - --- ----- ----- ----<br>---- --- --- ----- --- ---- ---- ------- ----- ---- -------<br>--- --- -- ----- -- --- ---- -- --- ---- -- ------ ------<br>--- ----- -- ----,68162.20000004768,68161.60000002384,68135.638,68130.39999997616,68152.389,68185.687,,16,to
screen,html.Screen,2_1_0_1_17,2022-03-21T21:22:21.750Z,,,,,,,,,,,,,,,,,53,,,,,,,,,,,,,7.913000023836503,,response,,,99,,,,Space,keypress(Space),,,,,,,,---- -- ----- -- ------ - ------- --- ----------<br>------------- ------ ------ ---- ---- ------- ----- -- your<br>-------- ------- -- ---------- --- - --- ----- ----- ----<br>---- --- --- ----- --- ---- ---- ------- ----- ---- -------<br>--- --- -- ----- -- --- ---- -- --- ---- -- ------ ------<br>--- ----- -- ----,68194.20000004768,68193.60000002384,68169.026,68162.39999997616,68185.687,68219.128,,17,your
screen,html.Screen,2_1_0_1_18,2022-03-21T21:22:21.782Z,,,,,,,,,,,,,,,,,53,,,,,,,,,,,,,6.472000023844885,,response,,,99,,,,Space,keypress(Space),,,,,,,,---- -- ----- -- ------ - ------- --- ----------<br>------------- ------ ------ ---- ---- ------- ----- -- ----<br>romantic ------- -- ---------- --- - --- ----- ----- ----<br>---- --- --- ----- --- ---- ---- ------- ----- ---- -------<br>--- --- -- ----- -- --- ---- -- --- ---- -- ------ ------<br>--- ----- -- ----,68226.20000004768,68225.60000002384,68202.394,68194.39999997616,68219.128,68252.384,,18,romantic
screen,html.Screen,2_1_0_1_19,2022-03-21T21:22:21.814Z,,,,,,,,,,,,,,,,,53,,,,,,,,,,,,,5.716000023836386,,response,,,99,,,,Space,keypress(Space),,,,,,,,---- -- ----- -- ------ - ------- --- ----------<br>------------- ------ ------ ---- ---- ------- ----- -- ----<br>-------- partner -- ---------- --- - --- ----- ----- ----<br>---- --- --- ----- --- ---- ---- ------- ----- ---- -------<br>--- --- -- ----- -- --- ---- -- --- ---- -- ------ ------<br>--- ----- -- ----,68258.60000002384,68258.10000002384,68235.735,68226.39999997616,68252.384,68285.838,,19,partner
screen,html.Screen,2_1_0_1_20,2022-03-21T21:22:21.845Z,,,,,,,,,,,,,,,,,53,,,,,,,,,,,,,3.762000023838482,,response,,,99,,,,Space,keypress(Space),,,,,,,,---- -- ----- -- ------ - ------- --- ----------<br>------------- ------ ------ ---- ---- ------- ----- -- ----<br>-------- ------- is ---------- --- - --- ----- ----- ----<br>---- --- --- ----- --- ---- ---- ------- ----- ---- -------<br>--- --- -- ----- -- --- ---- -- --- ---- -- ------ ------<br>--- ----- -- ----,68289.89999997616,68289.60000002384,68269.138,68258.79999995232,68285.838,68319.187,,20,is
screen,html.Screen,2_1_0_1_21,2022-03-21T21:22:21.878Z,,,,,,,,,,,,,,,,,53,,,,,,,,,,,,,2.5130000476783607,,response,,,99,,,,Space,keypress(Space),,,,,,,,---- -- ----- -- ------ - ------- --- ----------<br>------------- ------ ------ ---- ---- ------- ----- -- ----<br>-------- ------- -- paramount. --- - --- ----- ----- ----<br>---- --- --- ----- --- ---- ---- ------- ----- ---- -------<br>--- --- -- ----- -- --- ---- -- --- ---- -- ------ ------<br>--- ----- -- ----,68322.20000004768,68321.70000004768,68302.478,68290,68319.187,68352.543,,21,paramount.
screen,html.Screen,2_1_0_1_22,2022-03-21T21:22:21.910Z,,,,,,,,,,,,,,,,,53,,,,,,,,,,,,,1.0570000238367356,,response,,,99,,,,Space,keypress(Space),,,,,,,,---- -- ----- -- ------ - ------- --- ----------<br>------------- ------ ------ ---- ---- ------- ----- -- ----<br>-------- ------- -- ---------- But - --- ----- ----- ----<br>---- --- --- ----- --- ---- ---- ------- ----- ---- -------<br>--- --- -- ----- -- --- ---- -- --- ---- -- ------ ------<br>--- ----- -- ----,68354.10000002384,68353.60000002384,68335.836,68322.29999995232,68352.543,68385.846,,22,But
screen,html.Screen,2_1_0_1_23,2022-03-21T21:22:21.942Z,,,,,,,,,,,,,,,,,53,,,,,,,,,,,,,16.494000047678128,,response,,,99,,,,Space,keypress(Space),,,,,,,,---- -- ----- -- ------ - ------- --- ----------<br>------------- ------ ------ ---- ---- ------- ----- -- ----<br>-------- ------- -- ---------- --- a --- ----- ----- ----<br>---- --- --- ----- --- ---- ---- ------- ----- ---- -------<br>--- --- -- ----- -- --- ---- -- --- ---- -- ------ ------<br>--- ----- -- ----,68386.29999995232,68385.70000004768,68369.206,68354.20000004768,,68402.587,,23,a
screen,html.Screen,2_1_0_1_24,2022-03-21T21:22:21.973Z,,,,,,,,,,,,,,,,,53,,,,,,,,,,,,,14.013000023842324,,response,,,99,,,,Space,keypress(Space),,,,,,,,---- -- ----- -- ------ - ------- --- ----------<br>------------- ------ ------ ---- ---- ------- ----- -- ----<br>-------- ------- -- ---------- --- - new ----- ----- ----<br>---- --- --- ----- --- ---- ---- ------- ----- ---- -------<br>--- --- -- ----- -- --- ---- -- --- ---- -- ------ ------<br>--- ----- -- ----,68417.20000004768,68416.60000002384,68385.846,68386.5,68402.587,68435.949,,24,new
screen,html.Screen,2_1_0_1_25,2022-03-21T21:22:22.005Z,,,,,,,,,,,,,,,,,53,,,,,,,,,,,,,12.65100002384861,,response,,,99,,,,Space,keypress(Space),,,,,,,,---- -- ----- -- ------ - ------- --- ----------<br>------------- ------ ------ ---- ---- ------- ----- -- ----<br>-------- ------- -- ---------- --- - --- study ----- ----<br>---- --- --- ----- --- ---- ---- ------- ----- ---- -------<br>--- --- -- ----- -- --- ---- -- --- ---- -- ------ ------<br>--- ----- -- ----,68449.20000004768,68448.60000002384,68419.268,68417.5,68435.949,68469.31,,25,study
screen,html.Screen,2_1_0_1_26,2022-03-21T21:22:22.035Z,,,,,,,,,,,,,,,,,53,,,,,,,,,,,,,9.790000023844186,,response,,,99,,,,Space,keypress(Space),,,,,,,,---- -- ----- -- ------ - ------- --- ----------<br>------------- ------ ------ ---- ---- ------- ----- -- ----<br>-------- ------- -- ---------- --- - --- ----- finds ----<br>---- --- --- ----- --- ---- ---- ------- ----- ---- -------<br>--- --- -- ----- -- --- ---- -- --- ---- -- ------ ------<br>--- ----- -- ----,68479.70000004768,68479.10000002384,68452.477,68449.39999997616,68469.31,68502.651,,26,finds
screen,html.Screen,2_1_0_1_27,2022-03-21T21:22:22.082Z,,,,,,,,,,,,,,,,,53,,,,,,,,,,,,,23.049000047685695,,response,,,99,,,,Space,keypress(Space),,,,,,,,---- -- ----- -- ------ - ------- --- ----------<br>------------- ------ ------ ---- ---- ------- ----- -- ----<br>-------- ------- -- ---------- --- - --- ----- ----- that<br>---- --- --- ----- --- ---- ---- ------- ----- ---- -------<br>--- --- -- ----- -- --- ---- -- --- ---- -- ------ ------<br>--- ----- -- ----,68526.20000004768,68525.70000004768,68485.954,68479.89999997616,68502.651,68536.063,,27,that
screen,html.Screen,2_1_0_1_28,2022-03-21T21:22:22.113Z,,,,,,,,,,,,,,,,,53,,,,,,,,,,,,,21.037000023847213,,response,,,99,,,,Space,keypress(Space),,,,,,,,---- -- ----- -- ------ - ------- --- ----------<br>------------- ------ ------ ---- ---- ------- ----- -- ----<br>-------- ------- -- ---------- --- - --- ----- ----- ----<br>it's --- --- ----- --- ---- ---- ------- ----- ---- -------<br>--- --- -- ----- -- --- ---- -- --- ---- -- ------ ------<br>--- ----- -- ----,68557.70000004768,68557.10000002384,68519.33,68526.5,68536.063,68569.421,,28,it's
screen,html.Screen,2_1_0_1_29,2022-03-21T21:22:22.143Z,,,,,,,,,,,,,,,,,53,,,,,,,,,,,,,17.679000023839762,,response,,,99,,,,Space,keypress(Space),,,,,,,,---- -- ----- -- ------ - ------- --- ----------<br>------------- ------ ------ ---- ---- ------- ----- -- ----<br>-------- ------- -- ---------- --- - --- ----- ----- ----<br>---- not --- ----- --- ---- ---- ------- ----- ---- -------<br>--- --- -- ----- -- --- ---- -- --- ---- -- ------ ------<br>--- ----- -- ----,68587.60000002384,68587.10000002384,68552.696,68557.89999997616,68569.421,68602.782,,29,not
screen,html.Screen,2_1_0_1_30,2022-03-21T21:22:22.176Z,,,,,,,,,,,,,,,,,53,,,,,,,,,,,,,15.117999976151623,,response,,,99,,,,Space,keypress(Space),,,,,,,,---- -- ----- -- ------ - ------- --- ----------<br>------------- ------ ------ ---- ---- ------- ----- -- ----<br>-------- ------- -- ---------- --- - --- ----- ----- ----<br>---- --- how ----- --- ---- ---- ------- ----- ---- -------<br>--- --- -- ----- -- --- ---- -- --- ---- -- ------ ------<br>--- ----- -- ----,68620.10000002384,68617.89999997616,68586.061,68587.79999995232,68602.782,68636.115,,30,how
screen,html.Screen,2_1_0_1_31,2022-03-21T21:22:22.205Z,,,,,,,,,,,,,,,,,53,,,,,,,,,,,,,12.684999952311045,,response,,,99,,,,Space,keypress(Space),,,,,,,,---- -- ----- -- ------ - ------- --- ----------<br>------------- ------ ------ ---- ---- ------- ----- -- ----<br>-------- ------- -- ---------- --- - --- ----- ----- ----<br>---- --- --- close --- ---- ---- ------- ----- ---- -------<br>--- --- -- ----- -- --- ---- -- --- ---- -- ------ ------<br>--- ----- -- ----,68649.60000002384,68648.79999995232,68619.416,68620.29999995232,68636.115,68669.485,,31,close
screen,html.Screen,2_1_0_1_32,2022-03-21T21:22:22.236Z,,,,,,,,,,,,,,,,,53,,,,,,,,,,,,,10.615000023841276,,response,,,99,,,,Space,keypress(Space),,,,,,,,---- -- ----- -- ------ - ------- --- ----------<br>------------- ------ ------ ---- ---- ------- ----- -- ----<br>-------- ------- -- ---------- --- - --- ----- ----- ----<br>---- --- --- ----- you ---- ---- ------- ----- ---- -------<br>--- --- -- ----- -- --- ---- -- --- ---- -- ------ ------<br>--- ----- -- ----,68680.70000004768,68680.10000002384,68652.776,68649.70000004768,68669.485,68702.859,,32,you
screen,html.Screen,2_1_0_1_33,2022-03-21T21:22:22.269Z,,,,,,,,,,,,,,,,,53,,,,,,,,,,,,,10.14100000000326,,response,,,99,,,,Space,keypress(Space),,,,,,,,---- -- ----- -- ------ - ------- --- ----------<br>------------- ------ ------ ---- ---- ------- ----- -- ----<br>-------- ------- -- ---------- --- - --- ----- ----- ----<br>---- --- --- ----- --- feel ---- ------- ----- ---- -------<br>--- --- -- ----- -- --- ---- -- --- ---- -- ------ ------<br>--- ----- -- ----,68713.70000004768,68713,68686.139,68680.89999997616,68702.859,68736.217,,33,feel
screen,html.Screen,2_1_0_1_34,2022-03-21T21:22:22.314Z,,,,,,,,,,,,,,,,,53,,,,,,,,,,,,,21.483000047679525,,response,,,99,,,,Space,keypress(Space),,,,,,,,---- -- ----- -- ------ - ------- --- ----------<br>------------- ------ ------ ---- ---- ------- ----- -- ----<br>-------- ------- -- ---------- --- - --- ----- ----- ----<br>---- --- --- ----- --- ---- that ------- ----- ---- -------<br>--- --- -- ----- -- --- ---- -- --- ---- -- ------ ------<br>--- ----- -- ----,68758.20000004768,68757.70000004768,68719.501,68713.89999997616,68736.217,68769.575,,34,that
screen,html.Screen,2_1_0_1_35,2022-03-21T21:22:22.345Z,,,,,,,,,,,,,,,,,53,,,,,,,,,,,,,19.125000047686626,,response,,,99,,,,Space,keypress(Space),,,,,,,,---- -- ----- -- ------ - ------- --- ----------<br>------------- ------ ------ ---- ---- ------- ----- -- ----<br>-------- ------- -- ---------- --- - --- ----- ----- ----<br>---- --- --- ----- --- ---- ---- matters ----- ---- -------<br>--- --- -- ----- -- --- ---- -- --- ---- -- ------ ------<br>--- ----- -- ----,68789.39999997616,68788.70000004768,68752.856,68758.39999997616,68769.575,68802.94,,35,matters
screen,html.Screen,2_1_0_1_36,2022-03-21T21:22:22.377Z,,,,,,,,,,,,,,,,,53,,,,,,,,,,,,,18.05999999999767,,response,,,99,,,,Space,keypress(Space),,,,,,,,"---- -- ----- -- ------ - ------- --- ----------<br>------------- ------ ------ ---- ---- ------- ----- -- ----<br>-------- ------- -- ---------- --- - --- ----- ----- ----<br>---- --- --- ----- --- ---- ---- ------- most, ---- -------<br>--- --- -- ----- -- --- ---- -- --- ---- -- ------ ------<br>--- ----- -- ----",68821.5,68821,68786.23,68789.60000002384,68802.94,68836.293,,36,"most,"
screen,html.Screen,2_1_0_1_37,2022-03-21T21:22:22.408Z,,,,,,,,,,,,,,,,,53,,,,,,,,,,,,,15.407000047678594,,response,,,99,,,,Space,keypress(Space),,,,,,,,---- -- ----- -- ------ - ------- --- ----------<br>------------- ------ ------ ---- ---- ------- ----- -- ----<br>-------- ------- -- ---------- --- - --- ----- ----- ----<br>---- --- --- ----- --- ---- ---- ------- ----- it's -------<br>--- --- -- ----- -- --- ---- -- --- ---- -- ------ ------<br>--- ----- -- ----,68852.39999997616,68851.70000004768,68819.576,68821.79999995232,68836.293,68869.663,,37,it's
screen,html.Screen,2_1_0_1_38,2022-03-21T21:22:22.440Z,,,,,,,,,,,,,,,,,53,,,,,,,,,,,,,14.136999952315819,,response,,,99,,,,Space,keypress(Space),,,,,,,,---- -- ----- -- ------ - ------- --- ----------<br>------------- ------ ------ ---- ---- ------- ----- -- ----<br>-------- ------- -- ---------- --- - --- ----- ----- ----<br>---- --- --- ----- --- ---- ---- ------- ----- ---- whether<br>--- --- -- ----- -- --- ---- -- --- ---- -- ------ ------<br>--- ----- -- ----,68884.39999997616,68883.79999995232,68852.877,68852.5,68869.663,68903.014,,38,whether
screen,html.Screen,2_1_0_1_39,2022-03-21T21:22:22.471Z,,,,,,,,,,,,,,,,,53,,,,,,,,,,,,,11.68600004768814,,response,,,99,,,,Space,keypress(Space),,,,,,,,---- -- ----- -- ------ - ------- --- ----------<br>------------- ------ ------ ---- ---- ------- ----- -- ----<br>-------- ------- -- ---------- --- - --- ----- ----- ----<br>---- --- --- ----- --- ---- ---- ------- ----- ---- -------<br>you --- -- ----- -- --- ---- -- --- ---- -- ------ ------<br>--- ----- -- ----,68915.39999997616,68914.70000004768,68886.307,68884.70000004768,68903.014,68936.33,,39,you
screen,html.Screen,2_1_0_1_40,2022-03-21T21:22:22.502Z,,,,,,,,,,,,,,,,,53,,,,,,,,,,,,,9.069999976156396,,response,,,99,,,,Space,keypress(Space),,,,,,,,---- -- ----- -- ------ - ------- --- ----------<br>------------- ------ ------ ---- ---- ------- ----- -- ----<br>-------- ------- -- ---------- --- - --- ----- ----- ----<br>---- --- --- ----- --- ---- ---- ------- ----- ---- -------<br>--- are -- ----- -- --- ---- -- --- ---- -- ------ ------<br>--- ----- -- ----,68946.10000002384,68945.39999997616,68919.665,68915.5,68936.33,68969.746,,40,are
screen,html.Screen,2_1_0_1_41,2022-03-21T21:22:22.534Z,,,,,,,,,,,,,,,,,53,,,,,,,,,,,,,7.653999976158957,,response,,,99,,,,Space,keypress(Space),,,,,,,,---- -- ----- -- ------ - ------- --- ----------<br>------------- ------ ------ ---- ---- ------- ----- -- ----<br>-------- ------- -- ---------- --- - --- ----- ----- ----<br>---- --- --- ----- --- ---- ---- ------- ----- ---- -------<br>--- --- as ----- -- --- ---- -- --- ---- -- ------ ------<br>--- ----- -- ----,68978.20000004768,68977.39999997616,68953.03,68946.29999995232,68969.746,69003.106,,41,as
screen,html.Screen,2_1_0_1_42,2022-03-21T21:22:22.565Z,,,,,,,,,,,,,,,,,53,,,,,,,,,,,,,5.594000047683949,,response,,,99,,,,Space,keypress(Space),,,,,,,,---- -- ----- -- ------ - ------- --- ----------<br>------------- ------ ------ ---- ---- ------- ----- -- ----<br>-------- ------- -- ---------- --- - --- ----- ----- ----<br>---- --- --- ----- --- ---- ---- ------- ----- ---- -------<br>--- --- -- close -- --- ---- -- --- ---- -- ------ ------<br>--- ----- -- ----,69009.39999997616,69008.70000004768,68986.346,68978.39999997616,69003.106,69036.416,,42,close
screen,html.Screen,2_1_0_1_43,2022-03-21T21:22:22.611Z,,,,,,,,,,,,,,,,,53,,,,,,,,,,,,,18.383999952318845,,response,,,99,,,,Space,keypress(Space),,,,,,,,---- -- ----- -- ------ - ------- --- ----------<br>------------- ------ ------ ---- ---- ------- ----- -- ----<br>-------- ------- -- ---------- --- - --- ----- ----- ----<br>---- --- --- ----- --- ---- ---- ------- ----- ---- -------<br>--- --- -- ----- as --- ---- -- --- ---- -- ------ ------<br>--- ----- -- ----,69055.5,69054.79999995232,69019.749,69009.60000002384,69036.416,69086.452,,43,as
screen,html.Screen,2_1_0_1_44,2022-03-21T21:22:22.642Z,,,,,,,,,,,,,,,,,53,,,,,,,,,,,,,15.610999976153835,,response,,,99,,,,Space,keypress(Space),,,,,,,,---- -- ----- -- ------ - ------- --- ----------<br>------------- ------ ------ ---- ---- ------- ----- -- ----<br>-------- ------- -- ---------- --- - --- ----- ----- ----<br>---- --- --- ----- --- ---- ---- ------- ----- ---- -------<br>--- --- -- ----- -- you ---- -- --- ---- -- ------ ------<br>--- ----- -- ----,69086.20000004768,69085.39999997616,69069.789,69055.70000004768,,69103.13,,44,you
screen,html.Screen,2_1_0_1_45,2022-03-21T21:22:22.674Z,,,,,,,,,,,,,,,,,53,,,,,,,,,,,,,14.369999999995343,,response,,,99,,,,Space,keypress(Space),,,,,,,,---- -- ----- -- ------ - ------- --- ----------<br>------------- ------ ------ ---- ---- ------- ----- -- ----<br>-------- ------- -- ---------- --- - --- ----- ----- ----<br>---- --- --- ----- --- ---- ---- ------- ----- ---- -------<br>--- --- -- ----- -- --- want -- --- ---- -- ------ ------<br>--- ----- -- ----,69118.10000002384,69117.5,69086.452,69086.29999995232,69103.13,69136.49,,45,want
screen,html.Screen,2_1_0_1_46,2022-03-21T21:22:22.706Z,,,,,,,,,,,,,,,,,53,,,,,,,,,,,,,13.009999999994761,,response,,,99,,,,Space,keypress(Space),,,,,,,,---- -- ----- -- ------ - ------- --- ----------<br>------------- ------ ------ ---- ---- ------- ----- -- ----<br>-------- ------- -- ---------- --- - --- ----- ----- ----<br>---- --- --- ----- --- ---- ---- ------- ----- ---- -------<br>--- --- -- ----- -- --- ---- to --- ---- -- ------ ------<br>--- ----- -- ----,69150.20000004768,69149.5,69119.798,69118.29999995232,69136.49,69169.913,,46,to
screen,html.Screen,2_1_0_1_47,2022-03-21T21:22:22.736Z,,,,,,,,,,,,,,,,,53,,,,,,,,,,,,,9.986999976157676,,response,,,99,,,,Space,keypress(Space),,,,,,,,"---- -- ----- -- ------ - ------- --- ----------<br>------------- ------ ------ ---- ---- ------- ----- -- ----<br>-------- ------- -- ---------- --- - --- ----- ----- ----<br>---- --- --- ----- --- ---- ---- ------- ----- ---- -------<br>--- --- -- ----- -- --- ---- -- be, ---- -- ------ ------<br>--- ----- -- ----",69180.70000004768,69179.89999997616,69153.146,69150.39999997616,69169.913,69203.259,,47,"be,"
screen,html.Screen,2_1_0_1_48,2022-03-21T21:22:22.767Z,,,,,,,,,,,,,,,,,53,,,,,,,,,,,,,7.540999952310813,,response,,,99,,,,Space,keypress(Space),,,,,,,,---- -- ----- -- ------ - ------- --- ----------<br>------------- ------ ------ ---- ---- ------- ----- -- ----<br>-------- ------- -- ---------- --- - --- ----- ----- ----<br>---- --- --- ----- --- ---- ---- ------- ----- ---- -------<br>--- --- -- ----- -- --- ---- -- --- even -- ------ ------<br>--- ----- -- ----,69211.5,69210.79999995232,69186.567,69180.79999995232,69203.259,69236.615,,48,even
screen,html.Screen,2_1_0_1_49,2022-03-21T21:22:22.799Z,,,,,,,,,,,,,,,,,53,,,,,,,,,,,,,6.384999999994761,,response,,,99,,,,Space,keypress(Space),,,,,,,,---- -- ----- -- ------ - ------- --- ----------<br>------------- ------ ------ ---- ---- ------- ----- -- ----<br>-------- ------- -- ---------- --- - --- ----- ----- ----<br>---- --- --- ----- --- ---- ---- ------- ----- ---- -------<br>--- --- -- ----- -- --- ---- -- --- ---- if ------ ------<br>--- ----- -- ----,69243.70000004768,69243,69219.934,69211.79999995232,69236.615,69270.005,,49,if
screen,html.Screen,2_1_0_1_50,2022-03-21T21:22:23.079Z,,,,,,,,,,,,,,,,,53,,,,,,,,,,,,,252.49499999999534,,response,,,99,,,,Space,keypress(Space),,,,,,,,---- -- ----- -- ------ - ------- --- ----------<br>------------- ------ ------ ---- ---- ------- ----- -- ----<br>-------- ------- -- ---------- --- - --- ----- ----- ----<br>---- --- --- ----- --- ---- ---- ------- ----- ---- -------<br>--- --- -- ----- -- --- ---- -- --- ---- -- that's ------<br>--- ----- -- ----,69523.10000002384,69522.5,69253.271,69243.89999997616,69270.005,69536.818,,50,that's
screen,html.Screen,2_1_0_1_51,2022-03-21T21:22:23.603Z,,,,,,,,,,,,,,,,,53,,,,,,,,,,,,,509.78200002384256,,response,,,99,,,,Space,keypress(Space),,,,,,,,---- -- ----- -- ------ - ------- --- ----------<br>------------- ------ ------ ---- ---- ------- ----- -- ----<br>-------- ------- -- ---------- --- - --- ----- ----- ----<br>---- --- --- ----- --- ---- ---- ------- ----- ---- -------<br>--- --- -- ----- -- --- ---- -- --- ---- -- ------ really<br>--- ----- -- ----,70047.20000004768,70046.60000002384,69520.152,69523.39999997616,69536.818,70053.866,,51,really
screen,html.Screen,2_1_0_1_52,2022-03-21T21:22:23.618Z,,,,,,,,,,,,,,,,,53,,,,,,,,,,,,,7.6340000000054715,,response,,,99,,,,Space,keypress(Space),,,,,,,,---- -- ----- -- ------ - ------- --- ----------<br>------------- ------ ------ ---- ---- ------- ----- -- ----<br>-------- ------- -- ---------- --- - --- ----- ----- ----<br>---- --- --- ----- --- ---- ---- ------- ----- ---- -------<br>--- --- -- ----- -- --- ---- -- --- ---- -- ------ ------<br>not ----- -- ----,70062.20000004768,70061.5,70037.23,70047.39999997616,70053.866,70087.314,,52,not
screen,html.Screen,2_1_0_1_53,2022-03-21T21:22:23.648Z,,,,,,,,,,,,,,,,,53,,,,,,,,,,,,,4.5859999761596555,,response,,,99,,,,Space,keypress(Space),,,,,,,,---- -- ----- -- ------ - ------- --- ----------<br>------------- ------ ------ ---- ---- ------- ----- -- ----<br>-------- ------- -- ---------- --- - --- ----- ----- ----<br>---- --- --- ----- --- ---- ---- ------- ----- ---- -------<br>--- --- -- ----- -- --- ---- -- --- ---- -- ------ ------<br>--- close -- ----,70092.5,70091.89999997616,70070.632,70062.39999997616,70087.314,70120.67,,53,close
screen,html.Screen,2_1_0_1_54,2022-03-21T21:22:23.680Z,,,,,,,,,,,,,,,,,53,,,,,,,,,,,,,3.3300000000017462,,response,,,99,,,,Space,keypress(Space),,,,,,,,---- -- ----- -- ------ - ------- --- ----------<br>------------- ------ ------ ---- ---- ------- ----- -- ----<br>-------- ------- -- ---------- --- - --- ----- ----- ----<br>---- --- --- ----- --- ---- ---- ------- ----- ---- -------<br>--- --- -- ----- -- --- ---- -- --- ---- -- ------ ------<br>--- ----- at ----,70124.60000002384,70124,70103.953,70092.70000004768,70120.67,70154.031,,54,at
screen,html.Screen,2_1_0_1_55,2022-03-21T21:22:23.712Z,,,,,,,,,,,,,,,,,53,,,,,,,,,,,,,1.9689999999973224,,response,,,99,,,,Space,keypress(Space),,,,,,,,---- -- ----- -- ------ - ------- --- ----------<br>------------- ------ ------ ---- ---- ------- ----- -- ----<br>-------- ------- -- ---------- --- - --- ----- ----- ----<br>---- --- --- ----- --- ---- ---- ------- ----- ---- -------<br>--- --- -- ----- -- --- ---- -- --- ---- -- ------ ------<br>--- ----- -- all.,70156.60000002384,70156,70137.315,70124.79999995232,70154.031,70187.397,,55,all.
Item 99,flow.Loop,2_1_0_1,2022-03-21T21:22:23.712Z,,,,,,,,,,,,,,,,,,,,,,,,,,,,,,3571.6879999999946,,completion,,,,H,,,,,,,,silence,,,,,70156.89999997616,70156,66567.772,66568.79999995232,66584.312,70187.397,,,
Question 1,html.Screen,2_1_0_2,2022-03-21T21:22:24.732Z,,,,,,,,,,,,,,,,,,,,,,,,,,,,false,FALSE,988.9029999523191,,response,,,99,H,,,TRUE,click #choice-1,,,,silence,,,,,71176.89999997616,71176.29999995232,70170.678,70157.10000002384,70187.397,71204.823,,,
Question 2,html.Screen,2_1_0_3,2022-03-21T21:22:25.228Z,,,,,,,,,,,,,,,,,,,,,,,,,,,,false,TRUE,467.4769999523123,,response,,,99,H,,,FALSE,click #choice-2,,,,silence,,,,,71672.89999997616,71672.29999995232,71188.207,71177,71204.823,71688.553,,,
Item 99,flow.Sequence,2_1_0,2022-03-21T21:22:25.229Z,,,,,,,,,,,,,,,,,,,,,,,,,,,,,,15095.983999952317,,completion,,,,,,,,,,,,,,,,,71673.20000004768,71672.29999995232,56559.632,56569.799999952316,56576.316,71688.553,,,
Holding screen,html.Screen,2_1_1_0,2022-03-21T21:22:35.237Z,,,,,,,,,,,,,,,,,,,,,,,,,,,,,,10007.929000000004,,timeout,,,,,,,,,,,,,,,,,81681.10000002384,81679.855,71671.898,71673.20000004768,71688.553,81696.482,,,
screen,html.Screen,2_1_1_1_0,2022-03-21T21:22:35.784Z,,,,,,,,,,,,,,,,,54,,,,,,,,,,,,,530.6180000238382,,response,,,100,,,,Space,keypress(Space),,,,,,,,At --- ---- --- ------ ----- ------- ---- -- --- ------- --<br>------- ---------- ------ -- ----- -- ----- -- ---- ------<br>--- ----- --- --- ------ -------- ----- --- ------ ----- --<br>----- ----- ---------- --- --- ------ ------ ---- -- ------<br>------- --- ------ ----- --- ---- ------- -- ---- --- --<br>------- ------,82227.79999995232,82227.10000002384,81679.855,81681.39999997616,81696.482,82230.404,,0,At
screen,html.Screen,2_1_1_1_1,2022-03-21T21:22:36.291Z,,,,,,,,,,,,,,,,,54,,,,,,,,,,,,,504.2960000476887,,response,,,100,,,,Space,keypress(Space),,,,,,,,-- the ---- --- ------ ----- ------- ---- -- --- ------- --<br>------- ---------- ------ -- ----- -- ----- -- ---- ------<br>--- ----- --- --- ------ -------- ----- --- ------ ----- --<br>----- ----- ---------- --- --- ------ ------ ---- -- ------<br>------- --- ------ ----- --- ---- ------- -- ---- --- --<br>------- ------,82735.39999997616,82734.70000004768,82213.723,82228,82230.404,82747.413,,1,the
screen,html.Screen,2_1_1_1_2,2022-03-21T21:22:36.322Z,,,,,,,,,,,,,,,,,54,,,,,,,,,,,,,18.38699995231582,,response,,,100,,,,Space,keypress(Space),,,,,,,,-- --- time --- ------ ----- ------- ---- -- --- ------- --<br>------- ---------- ------ -- ----- -- ----- -- ---- ------<br>--- ----- --- --- ------ -------- ----- --- ------ ----- --<br>----- ----- ---------- --- --- ------ ------ ---- -- ------<br>------- --- ------ ----- --- ---- ------- -- ---- --- --<br>------- ------,82766.5,82765.79999995232,82730.809,82735.70000004768,82747.413,82780.877,,2,time
screen,html.Screen,2_1_1_1_3,2022-03-21T21:22:36.353Z,,,,,,,,,,,,,,,,,54,,,,,,,,,,,,,15.922999952323153,,response,,,100,,,,Space,keypress(Space),,,,,,,,-- --- ---- the ------ ----- ------- ---- -- --- ------- --<br>------- ---------- ------ -- ----- -- ----- -- ---- ------<br>--- ----- --- --- ------ -------- ----- --- ------ ----- --<br>----- ----- ---------- --- --- ------ ------ ---- -- ------<br>------- --- ------ ----- --- ---- ------- -- ---- --- --<br>------- ------,82797.5,82796.79999995232,82764.173,82766.70000004768,82780.877,82814.244,,3,the
screen,html.Screen,2_1_1_1_4,2022-03-21T21:22:36.387Z,,,,,,,,,,,,,,,,,54,,,,,,,,,,,,,14.55599995231023,,response,,,100,,,,Space,keypress(Space),,,,,,,,-- --- ---- --- French ----- ------- ---- -- --- ------- --<br>------- ---------- ------ -- ----- -- ----- -- ---- ------<br>--- ----- --- --- ------ -------- ----- --- ------ ----- --<br>----- ----- ---------- --- --- ------ ------ ---- -- ------<br>------- --- ------ ----- --- ---- ------- -- ---- --- --<br>------- ------,82831.10000002384,82828.79999995232,82797.482,82797.79999995232,82814.244,82847.625,,4,French
screen,html.Screen,2_1_1_1_5,2022-03-21T21:22:36.417Z,,,,,,,,,,,,,,,,,54,,,,,,,,,,,,,13.075000047683716,,response,,,100,,,,Space,keypress(Space),,,,,,,,-- --- ---- --- ------ crown ------- ---- -- --- ------- --<br>------- ---------- ------ -- ----- -- ----- -- ---- ------<br>--- ----- --- --- ------ -------- ----- --- ------ ----- --<br>----- ----- ---------- --- --- ------ ------ ---- -- ------<br>------- --- ------ ----- --- ---- ------- -- ---- --- --<br>------- ------,82861.5,82860.70000004768,82830.852,82831.20000004768,82847.625,82880.971,,5,crown
screen,html.Screen,2_1_1_1_6,2022-03-21T21:22:36.450Z,,,,,,,,,,,,,,,,,54,,,,,,,,,,,,,12.22900004767871,,response,,,100,,,,Space,keypress(Space),,,,,,,,-- --- ---- --- ------ ----- secured ---- -- --- ------- --<br>------- ---------- ------ -- ----- -- ----- -- ---- ------<br>--- ----- --- --- ------ -------- ----- --- ------ ----- --<br>----- ----- ---------- --- --- ------ ------ ---- -- ------<br>------- --- ------ ----- --- ---- ------- -- ---- --- --<br>------- ------,82893.89999997616,82893.20000004768,82864.253,82861.60000002384,82880.971,82914.325,,6,secured
screen,html.Screen,2_1_1_1_7,2022-03-21T21:22:36.496Z,,,,,,,,,,,,,,,,,54,,,,,,,,,,,,,24.574999976161052,,response,,,100,,,,Space,keypress(Space),,,,,,,,-- --- ---- --- ------ ----- ------- much -- --- ------- --<br>------- ---------- ------ -- ----- -- ----- -- ---- ------<br>--- ----- --- --- ------ -------- ----- --- ------ ----- --<br>----- ----- ---------- --- --- ------ ------ ---- -- ------<br>------- --- ------ ----- --- ---- ------- -- ---- --- --<br>------- ------,82939.70000004768,82938.89999997616,82897.626,82894.10000002384,82914.325,82964.387,,7,much
screen,html.Screen,2_1_1_1_8,2022-03-21T21:22:36.527Z,,,,,,,,,,,,,,,,,54,,,,,,,,,,,,,6.213000023839413,,response,,,100,,,,Space,keypress(Space),,,,,,,,-- --- ---- --- ------ ----- ------- ---- of --- ------- --<br>------- ---------- ------ -- ----- -- ----- -- ---- ------<br>--- ----- --- --- ------ -------- ----- --- ------ ----- --<br>----- ----- ---------- --- --- ------ ------ ---- -- ------<br>------- --- ------ ----- --- ---- ------- -- ---- --- --<br>------- ------,82971.29999995232,82970.60000002384,82947.659,82939.89999997616,82964.387,82997.733,,8,of
screen,html.Screen,2_1_1_1_9,2022-03-21T21:22:36.560Z,,,,,,,,,,,,,,,,,54,,,,,,,,,,,,,5.5669999523233855,,response,,,100,,,,Space,keypress(Space),,,,,,,,-- --- ---- --- ------ ----- ------- ---- -- its ------- --<br>------- ---------- ------ -- ----- -- ----- -- ---- ------<br>--- ----- --- --- ------ -------- ----- --- ------ ----- --<br>----- ----- ---------- --- --- ------ ------ ---- -- ------<br>------- --- ------ ----- --- ---- ------- -- ---- --- --<br>------- ------,83003.79999995232,83003.29999995232,82980.979,82971.5,82997.733,83031.095,,9,its
screen,html.Screen,2_1_1_1_10,2022-03-21T21:22:36.591Z,,,,,,,,,,,,,,,,,54,,,,,,,,,,,,,3.804999976156978,,response,,,100,,,,Space,keypress(Space),,,,,,,,-- --- ---- --- ------ ----- ------- ---- -- --- revenue --<br>------- ---------- ------ -- ----- -- ----- -- ---- ------<br>--- ----- --- --- ------ -------- ----- --- ------ ----- --<br>----- ----- ---------- --- --- ------ ------ ---- -- ------<br>------- --- ------ ----- --- ---- ------- -- ---- --- --<br>------- ------,83035.60000002384,83034.89999997616,83014.372,83004.10000002384,83031.095,83064.451,,10,revenue
screen,html.Screen,2_1_1_1_11,2022-03-21T21:22:36.623Z,,,,,,,,,,,,,,,,,54,,,,,,,,,,,,,2.348999952315353,,response,,,100,,,,Space,keypress(Space),,,,,,,,-- --- ---- --- ------ ----- ------- ---- -- --- ------- by<br>------- ---------- ------ -- ----- -- ----- -- ---- ------<br>--- ----- --- --- ------ -------- ----- --- ------ ----- --<br>----- ----- ---------- --- --- ------ ------ ---- -- ------<br>------- --- ------ ----- --- ---- ------- -- ---- --- --<br>------- ------,83067.60000002384,83066.79999995232,83047.74,83035.79999995232,83064.451,83097.81,,11,by
screen,html.Screen,2_1_1_1_12,2022-03-21T21:22:36.655Z,,,,,,,,,,,,,,,,,54,,,,,,,,,,,,,0.9899999523186125,,response,,,100,,,,Space,keypress(Space),,,,,,,,-- --- ---- --- ------ ----- ------- ---- -- --- ------- --<br>issuing ---------- ------ -- ----- -- ----- -- ---- ------<br>--- ----- --- --- ------ -------- ----- --- ------ ----- --<br>----- ----- ---------- --- --- ------ ------ ---- -- ------<br>------- --- ------ ----- --- ---- ------- -- ---- --- --<br>------- ------,83099.39999997616,83098.79999995232,83081.05,83067.79999995232,83097.81,83131.161,,12,issuing
screen,html.Screen,2_1_1_1_13,2022-03-21T21:22:36.686Z,,,,,,,,,,,,,,,,,54,,,,,,,,,,,,,15.547000000005937,,response,,,100,,,,Space,keypress(Space),,,,,,,,-- --- ---- --- ------ ----- ------- ---- -- --- ------- --<br>------- government ------ -- ----- -- ----- -- ---- ------<br>--- ----- --- --- ------ -------- ----- --- ------ ----- --<br>----- ----- ---------- --- --- ------ ------ ---- -- ------<br>------- --- ------ ----- --- ---- ------- -- ---- --- --<br>------- ------,83130.5,83130,83114.453,83099.70000004768,,83147.848,,13,government
screen,html.Screen,2_1_1_1_14,2022-03-21T21:22:36.717Z,,,,,,,,,,,,,,,,,54,,,,,,,,,,,,,13.051999976160005,,response,,,100,,,,Space,keypress(Space),,,,,,,,-- --- ---- --- ------ ----- ------- ---- -- --- ------- --<br>------- ---------- bonds. -- ----- -- ----- -- ---- ------<br>--- ----- --- --- ------ -------- ----- --- ------ ----- --<br>----- ----- ---------- --- --- ------ ------ ---- -- ------<br>------- --- ------ ----- --- ---- ------- -- ---- --- --<br>------- ------,83161.5,83160.89999997616,83131.161,83130.70000004768,83147.848,83181.221,,14,bonds.
screen,html.Screen,2_1_1_1_15,2022-03-21T21:22:36.749Z,,,,,,,,,,,,,,,,,54,,,,,,,,,,,,,11.379000023836852,,response,,,100,,,,Space,keypress(Space),,,,,,,,-- --- ---- --- ------ ----- ------- ---- -- --- ------- --<br>------- ---------- ------ In ----- -- ----- -- ---- ------<br>--- ----- --- --- ------ -------- ----- --- ------ ----- --<br>----- ----- ---------- --- --- ------ ------ ---- -- ------<br>------- --- ------ ----- --- ---- ------- -- ---- --- --<br>------- ------,83193.20000004768,83192.60000002384,83164.487,83161.79999995232,83181.221,83214.57,,15,In
screen,html.Screen,2_1_1_1_16,2022-03-21T21:22:36.779Z,,,,,,,,,,,,,,,,,54,,,,,,,,,,,,,8.2299999523093,,response,,,100,,,,Space,keypress(Space),,,,,,,,"-- --- ---- --- ------ ----- ------- ---- -- --- ------- --<br>------- ---------- ------ -- 1727, -- ----- -- ---- ------<br>--- ----- --- --- ------ -------- ----- --- ------ ----- --<br>----- ----- ---------- --- --- ------ ------ ---- -- ------<br>------- --- ------ ----- --- ---- ------- -- ---- --- --<br>------- ------",83223.5,83222.79999995232,83197.862,83193.39999997616,83214.57,83247.944,,16,"1727,"
screen,html.Screen,2_1_1_1_17,2022-03-21T21:22:36.825Z,,,,,,,,,,,,,,,,,54,,,,,,,,,,,,,21.055999999996857,,response,,,100,,,,Space,keypress(Space),,,,,,,,-- --- ---- --- ------ ----- ------- ---- -- --- ------- --<br>------- ---------- ------ -- ----- in ----- -- ---- ------<br>--- ----- --- --- ------ -------- ----- --- ------ ----- --<br>----- ----- ---------- --- --- ------ ------ ---- -- ------<br>------- --- ------ ----- --- ---- ------- -- ---- --- --<br>------- ------,83269.5,83269,83231.21,83223.60000002384,83247.944,83281.288,,17,in
screen,html.Screen,2_1_1_1_18,2022-03-21T21:22:36.857Z,,,,,,,,,,,,,,,,,54,,,,,,,,,,,,,19.711999999999534,,response,,,100,,,,Space,keypress(Space),,,,,,,,-- --- ---- --- ------ ----- ------- ---- -- --- ------- --<br>------- ---------- ------ -- ----- -- order -- ---- ------<br>--- ----- --- --- ------ -------- ----- --- ------ ----- --<br>----- ----- ---------- --- --- ------ ------ ---- -- ------<br>------- --- ------ ----- --- ---- ------- -- ---- --- --<br>------- ------,83301.60000002384,83301,83264.574,83269.70000004768,83281.288,83314.646,,18,order
screen,html.Screen,2_1_1_1_19,2022-03-21T21:22:36.888Z,,,,,,,,,,,,,,,,,54,,,,,,,,,,,,,17.05400004769035,,response,,,100,,,,Space,keypress(Space),,,,,,,,-- --- ---- --- ------ ----- ------- ---- -- --- ------- --<br>------- ---------- ------ -- ----- -- ----- to ---- ------<br>--- ----- --- --- ------ -------- ----- --- ------ ----- --<br>----- ----- ---------- --- --- ------ ------ ---- -- ------<br>------- --- ------ ----- --- ---- ------- -- ---- --- --<br>------- ------,83332.20000004768,83331.70000004768,83297.932,83301.89999997616,83314.646,83347.999,,19,to
screen,html.Screen,2_1_1_1_20,2022-03-21T21:22:36.919Z,,,,,,,,,,,,,,,,,54,,,,,,,,,,,,,14.1010000238457,,response,,,100,,,,Space,keypress(Space),,,,,,,,-- --- ---- --- ------ ----- ------- ---- -- --- ------- --<br>------- ---------- ------ -- ----- -- ----- -- save ------<br>--- ----- --- --- ------ -------- ----- --- ------ ----- --<br>----- ----- ---------- --- --- ------ ------ ---- -- ------<br>------- --- ------ ----- --- ---- ------- -- ---- --- --<br>------- ------,83362.79999995232,83362.10000002384,83331.246,83332.39999997616,83347.999,83381.374,,20,save
screen,html.Screen,2_1_1_1_21,2022-03-21T21:22:36.949Z,,,,,,,,,,,,,,,,,54,,,,,,,,,,,,,11.326000047687558,,response,,,100,,,,Space,keypress(Space),,,,,,,,"-- --- ---- --- ------ ----- ------- ---- -- --- ------- --<br>------- ---------- ------ -- ----- -- ----- -- ---- money,<br>--- ----- --- --- ------ -------- ----- --- ------ ----- --<br>----- ----- ---------- --- --- ------ ------ ---- -- ------<br>------- --- ------ ----- --- ---- ------- -- ---- --- --<br>------- ------",83393.20000004768,83392.70000004768,83364.587,83363,83381.374,83414.737,,21,"money,"
screen,html.Screen,2_1_1_1_22,2022-03-21T21:22:36.980Z,,,,,,,,,,,,,,,,,54,,,,,,,,,,,,,9.363000023848144,,response,,,100,,,,Space,keypress(Space),,,,,,,,-- --- ---- --- ------ ----- ------- ---- -- --- ------- --<br>------- ---------- ------ -- ----- -- ----- -- ---- ------<br>the ----- --- --- ------ -------- ----- --- ------ ----- --<br>----- ----- ---------- --- --- ------ ------ ---- -- ------<br>------- --- ------ ----- --- ---- ------- -- ---- --- --<br>------- ------,83424.60000002384,83424.10000002384,83398.024,83393.5,83414.737,83448.083,,22,the
screen,html.Screen,2_1_1_1_23,2022-03-21T21:22:37.012Z,,,,,,,,,,,,,,,,,54,,,,,,,,,,,,,7.5170000238431385,,response,,,100,,,,Space,keypress(Space),,,,,,,,-- --- ---- --- ------ ----- ------- ---- -- --- ------- --<br>------- ---------- ------ -- ----- -- ----- -- ---- ------<br>--- state --- --- ------ -------- ----- --- ------ ----- --<br>----- ----- ---------- --- --- ------ ------ ---- -- ------<br>------- --- ------ ----- --- ---- ------- -- ---- --- --<br>------- ------,83456.20000004768,83455.60000002384,83431.4,83424.79999995232,83448.083,83481.451,,23,state
screen,html.Screen,2_1_1_1_24,2022-03-21T21:22:37.043Z,,,,,,,,,,,,,,,,,54,,,,,,,,,,,,,5.448999976157211,,response,,,100,,,,Space,keypress(Space),,,,,,,,-- --- ---- --- ------ ----- ------- ---- -- --- ------- --<br>------- ---------- ------ -- ----- -- ----- -- ---- ------<br>--- ----- cut --- ------ -------- ----- --- ------ ----- --<br>----- ----- ---------- --- --- ------ ------ ---- -- ------<br>------- --- ------ ----- --- ---- ------- -- ---- --- --<br>------- ------,83487.60000002384,83486.89999997616,83464.732,83456.5,83481.451,83514.813,,24,cut
screen,html.Screen,2_1_1_1_25,2022-03-21T21:22:37.090Z,,,,,,,,,,,,,,,,,54,,,,,,,,,,,,,18.287000023847213,,response,,,100,,,,Space,keypress(Space),,,,,,,,-- --- ---- --- ------ ----- ------- ---- -- --- ------- --<br>------- ---------- ------ -- ----- -- ----- -- ---- ------<br>--- ----- --- the ------ -------- ----- --- ------ ----- --<br>----- ----- ---------- --- --- ------ ------ ---- -- ------<br>------- --- ------ ----- --- ---- ------- -- ---- --- --<br>------- ------,83533.70000004768,83533.10000002384,83498.092,83487.79999995232,83514.813,83548.119,,25,the
screen,html.Screen,2_1_1_1_26,2022-03-21T21:22:37.120Z,,,,,,,,,,,,,,,,,54,,,,,,,,,,,,,15.68099995231023,,response,,,100,,,,Space,keypress(Space),,,,,,,,-- --- ---- --- ------ ----- ------- ---- -- --- ------- --<br>------- ---------- ------ -- ----- -- ----- -- ---- ------<br>--- ----- --- --- bonds' -------- ----- --- ------ ----- --<br>----- ----- ---------- --- --- ------ ------ ---- -- ------<br>------- --- ------ ----- --- ---- ------- -- ---- --- --<br>------- ------,83564.29999995232,83563.79999995232,83531.417,83533.89999997616,83548.119,83581.518,,26,bonds'
screen,html.Screen,2_1_1_1_27,2022-03-21T21:22:37.151Z,,,,,,,,,,,,,,,,,54,,,,,,,,,,,,,12.682000047687325,,response,,,100,,,,Space,keypress(Space),,,,,,,,-- --- ---- --- ------ ----- ------- ---- -- --- ------- --<br>------- ---------- ------ -- ----- -- ----- -- ---- ------<br>--- ----- --- --- ------ interest ----- --- ------ ----- --<br>----- ----- ---------- --- --- ------ ------ ---- -- ------<br>------- --- ------ ----- --- ---- ------- -- ---- --- --<br>------- ------,83594.79999995232,83594.20000004768,83564.811,83564.5,83581.518,83614.89,,27,interest
screen,html.Screen,2_1_1_1_28,2022-03-21T21:22:37.182Z,,,,,,,,,,,,,,,,,54,,,,,,,,,,,,,10.610000000000582,,response,,,100,,,,Space,keypress(Space),,,,,,,,-- --- ---- --- ------ ----- ------- ---- -- --- ------- --<br>------- ---------- ------ -- ----- -- ----- -- ---- ------<br>--- ----- --- --- ------ -------- rate. --- ------ ----- --<br>----- ----- ---------- --- --- ------ ------ ---- -- ------<br>------- --- ------ ----- --- ---- ------- -- ---- --- --<br>------- ------,83626.10000002384,83625.5,83598.187,83595,83614.89,83648.251,,28,rate.
screen,html.Screen,2_1_1_1_29,2022-03-21T21:22:37.214Z,,,,,,,,,,,,,,,,,54,,,,,,,,,,,,,9.1489999761543,,response,,,100,,,,Space,keypress(Space),,,,,,,,-- --- ---- --- ------ ----- ------- ---- -- --- ------- --<br>------- ---------- ------ -- ----- -- ----- -- ---- ------<br>--- ----- --- --- ------ -------- ----- The ------ ----- --<br>----- ----- ---------- --- --- ------ ------ ---- -- ------<br>------- --- ------ ----- --- ---- ------- -- ---- --- --<br>------- ------,83658,83657.39999997616,83631.53,83626.29999995232,83648.251,83681.611,,29,The
screen,html.Screen,2_1_1_1_30,2022-03-21T21:22:37.244Z,,,,,,,,,,,,,,,,,54,,,,,,,,,,,,,6.18899995231186,,response,,,100,,,,Space,keypress(Space),,,,,,,,-- --- ---- --- ------ ----- ------- ---- -- --- ------- --<br>------- ---------- ------ -- ----- -- ----- -- ---- ------<br>--- ----- --- --- ------ -------- ----- --- market ----- --<br>----- ----- ---------- --- --- ------ ------ ---- -- ------<br>------- --- ------ ----- --- ---- ------- -- ---- --- --<br>------- ------,83688.39999997616,83687.79999995232,83664.888,83658.10000002384,83681.611,83714.968,,30,market
screen,html.Screen,2_1_1_1_31,2022-03-21T21:22:37.275Z,,,,,,,,,,,,,,,,,54,,,,,,,,,,,,,3.8319999523228034,,response,,,100,,,,Space,keypress(Space),,,,,,,,-- --- ---- --- ------ ----- ------- ---- -- --- ------- --<br>------- ---------- ------ -- ----- -- ----- -- ---- ------<br>--- ----- --- --- ------ -------- ----- --- ------ value --<br>----- ----- ---------- --- --- ------ ------ ---- -- ------<br>------- --- ------ ----- --- ---- ------- -- ---- --- --<br>------- ------,83719.39999997616,83718.79999995232,83698.25,83688.60000002384,83714.968,83748.349,,31,value
screen,html.Screen,2_1_1_1_32,2022-03-21T21:22:37.308Z,,,,,,,,,,,,,,,,,54,,,,,,,,,,,,,2.950999952314305,,response,,,100,,,,Space,keypress(Space),,,,,,,,-- --- ---- --- ------ ----- ------- ---- -- --- ------- --<br>------- ---------- ------ -- ----- -- ----- -- ---- ------<br>--- ----- --- --- ------ -------- ----- --- ------ ----- of<br>----- ----- ---------- --- --- ------ ------ ---- -- ------<br>------- --- ------ ----- --- ---- ------- -- ---- --- --<br>------- ------,83751.79999995232,83751.29999995232,83731.607,83719.60000002384,83748.349,83781.683,,32,of
screen,html.Screen,2_1_1_1_33,2022-03-21T21:22:37.339Z,,,,,,,,,,,,,,,,,54,,,,,,,,,,,,,1.3169999999954598,,response,,,100,,,,Space,keypress(Space),,,,,,,,-- --- ---- --- ------ ----- ------- ---- -- --- ------- --<br>------- ---------- ------ -- ----- -- ----- -- ---- ------<br>--- ----- --- --- ------ -------- ----- --- ------ ----- --<br>these ----- ---------- --- --- ------ ------ ---- -- ------<br>------- --- ------ ----- --- ---- ------- -- ---- --- --<br>------- ------,83783.60000002384,83783,83764.983,83752.10000002384,83781.683,83815.004,,33,these
screen,html.Screen,2_1_1_1_34,2022-03-21T21:22:37.386Z,,,,,,,,,,,,,,,,,54,,,,,,,,,,,,,14.196000047682901,,response,,,100,,,,Space,keypress(Space),,,,,,,,-- --- ---- --- ------ ----- ------- ---- -- --- ------- --<br>------- ---------- ------ -- ----- -- ----- -- ---- ------<br>--- ----- --- --- ------ -------- ----- --- ------ ----- --<br>----- bonds ---------- --- --- ------ ------ ---- -- ------<br>------- --- ------ ----- --- ---- ------- -- ---- --- --<br>------- ------,83829.79999995232,83829.20000004768,83798.291,83783.89999997616,83815.004,83848.419,,34,bonds
screen,html.Screen,2_1_1_1_35,2022-03-21T21:22:37.416Z,,,,,,,,,,,,,,,,,54,,,,,,,,,,,,,10.681000023847446,,response,,,100,,,,Space,keypress(Space),,,,,,,,"-- --- ---- --- ------ ----- ------- ---- -- --- ------- --<br>------- ---------- ------ -- ----- -- ----- -- ---- ------<br>--- ----- --- --- ------ -------- ----- --- ------ ----- --<br>----- ----- plummeted, --- --- ------ ------ ---- -- ------<br>------- --- ------ ----- --- ---- ------- -- ---- --- --<br>------- ------",83859.79999995232,83859.10000002384,83831.695,83830,83848.419,83881.775,,35,"plummeted,"
screen,html.Screen,2_1_1_1_36,2022-03-21T21:22:37.446Z,,,,,,,,,,,,,,,,,54,,,,,,,,,,,,,8.024999952322105,,response,,,100,,,,Space,keypress(Space),,,,,,,,-- --- ---- --- ------ ----- ------- ---- -- --- ------- --<br>------- ---------- ------ -- ----- -- ----- -- ---- ------<br>--- ----- --- --- ------ -------- ----- --- ------ ----- --<br>----- ----- ---------- and --- ------ ------ ---- -- ------<br>------- --- ------ ----- --- ---- ------- -- ---- --- --<br>------- ------,83890.39999997616,83889.79999995232,83865.054,83859.89999997616,83881.775,83915.134,,36,and
screen,html.Screen,2_1_1_1_37,2022-03-21T21:22:37.477Z,,,,,,,,,,,,,,,,,54,,,,,,,,,,,,,5.765999976152671,,response,,,100,,,,Space,keypress(Space),,,,,,,,-- --- ---- --- ------ ----- ------- ---- -- --- ------- --<br>------- ---------- ------ -- ----- -- ----- -- ---- ------<br>--- ----- --- --- ------ -------- ----- --- ------ ----- --<br>----- ----- ---------- --- the ------ ------ ---- -- ------<br>------- --- ------ ----- --- ---- ------- -- ---- --- --<br>------- ------,83921.60000002384,83920.89999997616,83898.381,83890.60000002384,83915.134,83948.427,,37,the
screen,html.Screen,2_1_1_1_38,2022-03-21T21:22:37.511Z,,,,,,,,,,,,,,,,,54,,,,,,,,,,,,,4.173000023845816,,response,,,100,,,,Space,keypress(Space),,,,,,,,-- --- ---- --- ------ ----- ------- ---- -- --- ------- --<br>------- ---------- ------ -- ----- -- ----- -- ---- ------<br>--- ----- --- --- ------ -------- ----- --- ------ ----- --<br>----- ----- ---------- --- --- market ------ ---- -- ------<br>------- --- ------ ----- --- ---- ------- -- ---- --- --<br>------- ------,83955.29999995232,83952.60000002384,83931.774,83921.79999995232,83948.427,83981.835,,38,market
screen,html.Screen,2_1_1_1_39,2022-03-21T21:22:37.541Z,,,,,,,,,,,,,,,,,54,,,,,,,,,,,,,2.9649999523098813,,response,,,100,,,,Space,keypress(Space),,,,,,,,-- --- ---- --- ------ ----- ------- ---- -- --- ------- --<br>------- ---------- ------ -- ----- -- ----- -- ---- ------<br>--- ----- --- --- ------ -------- ----- --- ------ ----- --<br>----- ----- ---------- --- --- ------ became ---- -- ------<br>------- --- ------ ----- --- ---- ------- -- ---- --- --<br>------- ------,83985.39999997616,83984.79999995232,83965.04,83955.29999995232,83981.835,84015.166,,39,became
screen,html.Screen,2_1_1_1_40,2022-03-21T21:22:37.571Z,,,,,,,,,,,,,,,,,54,,,,,,,,,,,,,16.32799995232199,,response,,,100,,,,Space,keypress(Space),,,,,,,,-- --- ---- --- ------ ----- ------- ---- -- --- ------- --<br>------- ---------- ------ -- ----- -- ----- -- ---- ------<br>--- ----- --- --- ------ -------- ----- --- ------ ----- --<br>----- ----- ---------- --- --- ------ ------ wary -- ------<br>------- --- ------ ----- --- ---- ------- -- ---- --- --<br>------- ------,84015.39999997616,84014.79999995232,83998.472,83985.60000002384,,84031.894,,40,wary
screen,html.Screen,2_1_1_1_41,2022-03-21T21:22:37.618Z,,,,,,,,,,,,,,,,,54,,,,,,,,,,,,,29.206000023841625,,response,,,100,,,,Space,keypress(Space),,,,,,,,-- --- ---- --- ------ ----- ------- ---- -- --- ------- --<br>------- ---------- ------ -- ----- -- ----- -- ---- ------<br>--- ----- --- --- ------ -------- ----- --- ------ ----- --<br>----- ----- ---------- --- --- ------ ------ ---- of ------<br>------- --- ------ ----- --- ---- ------- -- ---- --- --<br>------- ------,84061.60000002384,84061.10000002384,84015.166,84015.60000002384,84031.894,84065.213,,41,of
screen,html.Screen,2_1_1_1_42,2022-03-21T21:22:37.648Z,,,,,,,,,,,,,,,,,54,,,,,,,,,,,,,26.186999976154766,,response,,,100,,,,Space,keypress(Space),,,,,,,,-- --- ---- --- ------ ----- ------- ---- -- --- ------- --<br>------- ---------- ------ -- ----- -- ----- -- ---- ------<br>--- ----- --- --- ------ -------- ----- --- ------ ----- --<br>----- ----- ---------- --- --- ------ ------ ---- -- French<br>------- --- ------ ----- --- ---- ------- -- ---- --- --<br>------- ------,84092,84091.39999997616,84048.531,84061.79999995232,84065.213,84098.482,,42,French
screen,html.Screen,2_1_1_1_43,2022-03-21T21:22:37.678Z,,,,,,,,,,,,,,,,,54,,,,,,,,,,,,,23.51799999999639,,response,,,100,,,,Space,keypress(Space),,,,,,,,-- --- ---- --- ------ ----- ------- ---- -- --- ------- --<br>------- ---------- ------ -- ----- -- ----- -- ---- ------<br>--- ----- --- --- ------ -------- ----- --- ------ ----- --<br>----- ----- ---------- --- --- ------ ------ ---- -- ------<br>credit. --- ------ ----- --- ---- ------- -- ---- --- --<br>------- ------,84122.5,84122,84081.935,84092.10000002384,84098.482,84131.985,,43,credit.
screen,html.Screen,2_1_1_1_44,2022-03-21T21:22:37.709Z,,,,,,,,,,,,,,,,,54,,,,,,,,,,,,,20.814999952315702,,response,,,100,,,,Space,keypress(Space),,,,,,,,-- --- ---- --- ------ ----- ------- ---- -- --- ------- --<br>------- ---------- ------ -- ----- -- ----- -- ---- ------<br>--- ----- --- --- ------ -------- ----- --- ------ ----- --<br>----- ----- ---------- --- --- ------ ------ ---- -- ------<br>------- The ------ ----- --- ---- ------- -- ---- --- --<br>------- ------,84153.39999997616,84152.79999995232,84115.273,84122.70000004768,84131.985,84165.271,,44,The
screen,html.Screen,2_1_1_1_45,2022-03-21T21:22:37.741Z,,,,,,,,,,,,,,,,,54,,,,,,,,,,,,,19.729000000006636,,response,,,100,,,,Space,keypress(Space),,,,,,,,-- --- ---- --- ------ ----- ------- ---- -- --- ------- --<br>------- ---------- ------ -- ----- -- ----- -- ---- ------<br>--- ----- --- --- ------ -------- ----- --- ------ ----- --<br>----- ----- ---------- --- --- ------ ------ ---- -- ------<br>------- --- French ----- --- ---- ------- -- ---- --- --<br>------- ------,84185.60000002384,84185,84148.618,84153.5,84165.271,84198.683,,45,French
screen,html.Screen,2_1_1_1_46,2022-03-21T21:22:37.772Z,,,,,,,,,,,,,,,,,54,,,,,,,,,,,,,16.917000023837318,,response,,,100,,,,Space,keypress(Space),,,,,,,,-- --- ---- --- ------ ----- ------- ---- -- --- ------- --<br>------- ---------- ------ -- ----- -- ----- -- ---- ------<br>--- ----- --- --- ------ -------- ----- --- ------ ----- --<br>----- ----- ---------- --- --- ------ ------ ---- -- ------<br>------- --- ------ state --- ---- ------- -- ---- --- --<br>------- ------,84216.10000002384,84215.60000002384,84181.978,84185.79999995232,84198.683,84232.047,,46,state
screen,html.Screen,2_1_1_1_47,2022-03-21T21:22:37.803Z,,,,,,,,,,,,,,,,,54,,,,,,,,,,,,,14.352999976152205,,response,,,100,,,,Space,keypress(Space),,,,,,,,-- --- ---- --- ------ ----- ------- ---- -- --- ------- --<br>------- ---------- ------ -- ----- -- ----- -- ---- ------<br>--- ----- --- --- ------ -------- ----- --- ------ ----- --<br>----- ----- ---------- --- --- ------ ------ ---- -- ------<br>------- --- ------ ----- was ---- ------- -- ---- --- --<br>------- ------,84246.89999997616,84246.39999997616,84215.338,84216.20000004768,84232.047,84265.407,,47,was
screen,html.Screen,2_1_1_1_48,2022-03-21T21:22:37.849Z,,,,,,,,,,,,,,,,,54,,,,,,,,,,,,,27.19300002383534,,response,,,100,,,,Space,keypress(Space),,,,,,,,-- --- ---- --- ------ ----- ------- ---- -- --- ------- --<br>------- ---------- ------ -- ----- -- ----- -- ---- ------<br>--- ----- --- --- ------ -------- ----- --- ------ ----- --<br>----- ----- ---------- --- --- ------ ------ ---- -- ------<br>------- --- ------ ----- --- left ------- -- ---- --- --<br>------- ------,84293.29999995232,84292.60000002384,84248.702,84247.20000004768,84265.407,84298.7,,48,left
screen,html.Screen,2_1_1_1_49,2022-03-21T21:22:37.881Z,,,,,,,,,,,,,,,,,54,,,,,,,,,,,,,26.199999976161052,,response,,,100,,,,Space,keypress(Space),,,,,,,,-- --- ---- --- ------ ----- ------- ---- -- --- ------- --<br>------- ---------- ------ -- ----- -- ----- -- ---- ------<br>--- ----- --- --- ------ -------- ----- --- ------ ----- --<br>----- ----- ---------- --- --- ------ ------ ---- -- ------<br>------- --- ------ ----- --- ---- without -- ---- --- --<br>------- ------,84325.60000002384,84324.89999997616,84282.056,84293.39999997616,84298.7,84348.821,,49,without
screen,html.Screen,2_1_1_1_50,2022-03-21T21:22:37.912Z,,,,,,,,,,,,,,,,,54,,,,,,,,,,,,,6.578999976161867,,response,,,100,,,,Space,keypress(Space),,,,,,,,-- --- ---- --- ------ ----- ------- ---- -- --- ------- --<br>------- ---------- ------ -- ----- -- ----- -- ---- ------<br>--- ----- --- --- ------ -------- ----- --- ------ ----- --<br>----- ----- ---------- --- --- ------ ------ ---- -- ------<br>------- --- ------ ----- --- ---- ------- an ---- --- --<br>------- ------,84356,84355.39999997616,84332.1,84325.79999995232,84348.821,84382.168,,50,an
screen,html.Screen,2_1_1_1_51,2022-03-21T21:22:37.943Z,,,,,,,,,,,,,,,,,54,,,,,,,,,,,,,4.73199997615302,,response,,,100,,,,Space,keypress(Space),,,,,,,,-- --- ---- --- ------ ----- ------- ---- -- --- ------- --<br>------- ---------- ------ -- ----- -- ----- -- ---- ------<br>--- ----- --- --- ------ -------- ----- --- ------ ----- --<br>----- ----- ---------- --- --- ------ ------ ---- -- ------<br>------- --- ------ ----- --- ---- ------- -- easy --- --<br>------- ------,84387.60000002384,84386.89999997616,84365.458,84356.20000004768,84382.168,84415.54,,51,easy
screen,html.Screen,2_1_1_1_52,2022-03-21T21:22:37.975Z,,,,,,,,,,,,,,,,,54,,,,,,,,,,,,,3.1600000476901187,,response,,,100,,,,Space,keypress(Space),,,,,,,,-- --- ---- --- ------ ----- ------- ---- -- --- ------- --<br>------- ---------- ------ -- ----- -- ----- -- ---- ------<br>--- ----- --- --- ------ -------- ----- --- ------ ----- --<br>----- ----- ---------- --- --- ------ ------ ---- -- ------<br>------- --- ------ ----- --- ---- ------- -- ---- way --<br>------- ------,84419.29999995232,84418.70000004768,84398.779,84387.79999995232,84415.54,84448.852,,52,way
screen,html.Screen,2_1_1_1_53,2022-03-21T21:22:38.007Z,,,,,,,,,,,,,,,,,54,,,,,,,,,,,,,1.5479999761591898,,response,,,100,,,,Space,keypress(Space),,,,,,,,-- --- ---- --- ------ ----- ------- ---- -- --- ------- --<br>------- ---------- ------ -- ----- -- ----- -- ---- ------<br>--- ----- --- --- ------ -------- ----- --- ------ ----- --<br>----- ----- ---------- --- --- ------ ------ ---- -- ------<br>------- --- ------ ----- --- ---- ------- -- ---- --- of<br>------- ------,84451.10000002384,84450.39999997616,84432.181,84419.60000002384,84448.852,84482.157,,53,of
screen,html.Screen,2_1_1_1_54,2022-03-21T21:22:38.038Z,,,,,,,,,,,,,,,,,54,,,,,,,,,,,,,16.159000047686277,,response,,,100,,,,Space,keypress(Space),,,,,,,,-- --- ---- --- ------ ----- ------- ---- -- --- ------- --<br>------- ---------- ------ -- ----- -- ----- -- ---- ------<br>--- ----- --- --- ------ -------- ----- --- ------ ----- --<br>----- ----- ---------- --- --- ------ ------ ---- -- ------<br>------- --- ------ ----- --- ---- ------- -- ---- --- --<br>raising ------,84482.29999995232,84481.70000004768,84465.541,84451.20000004768,,84498.941,,54,raising
screen,html.Screen,2_1_1_1_55,2022-03-21T21:22:38.069Z,,,,,,,,,,,,,,,,,54,,,,,,,,,,,,,13.55899999999383,,response,,,100,,,,Space,keypress(Space),,,,,,,,-- --- ---- --- ------ ----- ------- ---- -- --- ------- --<br>------- ---------- ------ -- ----- -- ----- -- ---- ------<br>--- ----- --- --- ------ -------- ----- --- ------ ----- --<br>----- ----- ---------- --- --- ------ ------ ---- -- ------<br>------- --- ------ ----- --- ---- ------- -- ---- --- --<br>------- money.,84513.20000004768,84512.5,84482.157,84482.5,84498.941,84532.187,,55,money.
Item 100,flow.Loop,2_1_1_1,2022-03-21T21:22:38.069Z,,,,,,,,,,,,,,,,,,,,,,,,,,,,,,2816.0179999999964,,completion,,,,H,,,,,,,,silence,,,,,84513.60000002384,84512.5,81679.855,81681.29999995232,81696.482,84532.187,,,
Question 1,html.Screen,2_1_1_2,2022-03-21T21:22:39.869Z,,,,,,,,,,,,,,,,,,,,,,,,,,,,false,TRUE,1780.112999952311,,response,,,100,H,,,FALSE,click #choice-2,,,,silence,,,,,86313,86312.29999995232,84515.574,84513.79999995232,84532.187,86317.021,,,
Question 2,html.Screen,2_1_1_3,2022-03-21T21:22:40.485Z,,,,,,,,,,,,,,,,,,,,,,,,,,,,false,FALSE,611.2789999523229,,response,,,100,H,,,TRUE,click #choice-1,,,,silence,,,,,86928.89999997616,86928.29999995232,86300.351,86313.10000002384,86317.021,86934.176,,,
Item 100,flow.Sequence,2_1_1,2022-03-21T21:22:40.485Z,,,,,,,,,,,,,,,,,,,,,,,,,,,,,,15239.746999952316,,completion,,,,,,,,,,,,,,,,,86929.10000002384,86928.29999995232,71671.898,71673.20000004768,71688.553,86934.176,,,
End of Practice,html.Page,2_1_2,2022-03-21T21:22:41.845Z,,,,,,,,,,,,,,,,,,,,,,,,,,,,,,1354.7239999761514,,form submission,,,,,,,,,,,,,,,,,88289.29999995232,88288.89999997616,86917.516,86929.10000002384,86934.176,88301.975,,,
Practice,flow.Sequence,2_1,2022-03-21T21:22:41.845Z,,,,,,,,,,,,,,,,,,,,,,,,,,,,,,31712.58399997616,,completion,,,,,,,,,,,,,,,,,88289.39999997616,88288.89999997616,56559.632,56569.799999952316,56576.316,88301.975,,,
Trap_instruction,html.Page,2_2_0,2022-03-21T21:22:43.413Z,,,,,,,,,,,,,,,,,,,,,,,,,,,,,,1555.125000023836,,form submission,,,,,,,,,,,,,,,,,89857.60000002384,89857.10000002384,88285.264,88289.60000002384,88301.975,89869.782,,,
trap_trial,html.Screen,2_2_1,2022-03-21T21:22:45.613Z,,,,,,,,,,,,,,,,,,,,,,,,,,,,true,1,2186.5179999523098,,response,,,,,,,1,click #choice-1,,,,,,,,,92057,92056.29999995232,89853.219,89857.70000004768,89869.782,92071.671,,,
end of trap trial,html.Page,2_2_2,2022-03-21T21:22:47.453Z,,,,,,,,,,,,,,,,,,,,,,,,,,,,,,1825.328999999998,,form submission,,,,,,,,,,,,,,,,,93897.29999995232,93897,92055.017,92057.20000004768,92071.671,93906.375,,,
Trap 1,flow.Sequence,2_2,2022-03-21T21:22:47.453Z,,,,,,,,,,,,,,,,,,,,,,,,,,,,,,5595.024999999994,,completion,,,,,,,,,,,,,,,,,93897.39999997616,93897,88285.264,88289.5,88301.975,93906.375,,,
Standby,html.Page,2_3_0,2022-03-21T21:22:55.453Z,,,,,,,,,,,,,,,,,,,,,,,,,,,,,,8006.516000000003,,timeout,,,,,,,,,,,,,,,,,101896.70000004768,101896.28,93889.751,93897.5,93906.375,101912.891,,,
Holding screen,html.Screen,2_3_1_0_0,2022-03-21T21:23:02.463Z,,,,,,,,,,,,,,,,,,,,,,,,,,,,,,7005.7149999999965,,timeout,,,,,,,,,,,,,,,,,108907.5,108901.922,101896.28,101896.89999997616,101912.891,108918.606,,,
screen,html.Screen,2_3_1_0_1_0,2022-03-21T21:23:03.095Z,,,,,,,,,,,,,,,,,19,,,,,,,,,,,,,620.2939999761584,,response,,,17,H,,,Space,keypress(Space),,,,speech,,,,"Interestingly, --- -------- -------- ---------- ---- -------<br>-- ---------- -- --- ----- ------ ----- ---- --------- ----<br>------- ------ -------- -- ------ ---------- ------ ---<br>------ -- -- ---- -- ---------- -------- ------ ---- -------<br>---- --- --------- ------- ----- --------- ---- ----- --<br>------ -------- -- ------ -- ---- ------------",109539.60000002384,109538.89999997616,108901.922,108907.79999995232,108918.606,109552.321,,0,"Interestingly,"
screen,html.Screen,2_3_1_0_1_1,2022-03-21T21:23:03.596Z,,,,,,,,,,,,,,,,,19,,,,,,,,,,,,,487.2790000238456,,response,,,17,H,,,Space,keypress(Space),,,,speech,,,,-------------- the -------- -------- ---------- ---- -------<br>-- ---------- -- --- ----- ------ ----- ---- --------- ----<br>------- ------ -------- -- ------ ---------- ------ ---<br>------ -- -- ---- -- ---------- -------- ------ ---- -------<br>---- --- --------- ------- ----- --------- ---- ----- --<br>------ -------- -- ------ -- ---- ------------,110040.29999995232,110039.60000002384,109535.749,109539.89999997616,109552.321,110052.764,,1,the
screen,html.Screen,2_3_1_0_1_2,2022-03-21T21:23:03.626Z,,,,,,,,,,,,,,,,,19,,,,,,,,,,,,,16.93600004768814,,response,,,17,H,,,Space,keypress(Space),,,,speech,,,,-------------- --- heaviest -------- ---------- ---- -------<br>-- ---------- -- --- ----- ------ ----- ---- --------- ----<br>------- ------ -------- -- ------ ---------- ------ ---<br>------ -- -- ---- -- ---------- -------- ------ ---- -------<br>---- --- --------- ------- ----- --------- ---- ----- --<br>------ -------- -- ------ -- ---- ------------,110070.29999995232,110069.70000004768,110036.187,110040.39999997616,110052.764,110086.224,,2,heaviest
screen,html.Screen,2_3_1_0_1_3,2022-03-21T21:23:03.657Z,,,,,,,,,,,,,,,,,19,,,,,,,,,,,,,14.376000023839879,,response,,,17,H,,,Space,keypress(Space),,,,speech,,,,-------------- --- -------- isotopes ---------- ---- -------<br>-- ---------- -- --- ----- ------ ----- ---- --------- ----<br>------- ------ -------- -- ------ ---------- ------ ---<br>------ -- -- ---- -- ---------- -------- ------ ---- -------<br>---- --- --------- ------- ----- --------- ---- ----- --<br>------ -------- -- ------ -- ---- ------------,110101.10000002384,110100.60000002384,110069.473,110070.5,110086.224,110119.583,,3,isotopes
screen,html.Screen,2_3_1_0_1_4,2022-03-21T21:23:03.704Z,,,,,,,,,,,,,,,,,19,,,,,,,,,,,,,27.716999952317565,,response,,,17,H,,,Space,keypress(Space),,,,speech,,,,-------------- --- -------- -------- physicists ---- -------<br>-- ---------- -- --- ----- ------ ----- ---- --------- ----<br>------- ------ -------- -- ------ ---------- ------ ---<br>------ -- -- ---- -- ---------- -------- ------ ---- -------<br>---- --- --------- ------- ----- --------- ---- ----- --<br>------ -------- -- ------ -- ---- ------------,110147.89999997616,110147.29999995232,110102.872,110101.29999995232,110119.583,110152.789,,4,physicists
screen,html.Screen,2_3_1_0_1_5,2022-03-21T21:23:03.737Z,,,,,,,,,,,,,,,,,19,,,,,,,,,,,,,26.31100002383755,,response,,,17,H,,,Space,keypress(Space),,,,speech,,,,-------------- --- -------- -------- ---------- have -------<br>-- ---------- -- --- ----- ------ ----- ---- --------- ----<br>------- ------ -------- -- ------ ---------- ------ ---<br>------ -- -- ---- -- ---------- -------- ------ ---- -------<br>---- --- --------- ------- ----- --------- ---- ----- --<br>------ -------- -- ------ -- ---- ------------,110181,110179.10000002384,110136.233,110148,110152.789,110186.149,,5,have
screen,html.Screen,2_3_1_0_1_6,2022-03-21T21:23:03.767Z,,,,,,,,,,,,,,,,,19,,,,,,,,,,,,,24.750999976153253,,response,,,17,H,,,Space,keypress(Space),,,,speech,,,,-------------- --- -------- -------- ---------- ---- managed<br>-- ---------- -- --- ----- ------ ----- ---- --------- ----<br>------- ------ -------- -- ------ ---------- ------ ---<br>------ -- -- ---- -- ---------- -------- ------ ---- -------<br>---- --- --------- ------- ----- --------- ---- ----- --<br>------ -------- -- ------ -- ---- ------------,110211.5,110210.89999997616,110169.619,110181.20000004768,110186.149,110219.63,,6,managed
screen,html.Screen,2_3_1_0_1_7,2022-03-21T21:23:03.798Z,,,,,,,,,,,,,,,,,19,,,,,,,,,,,,,22.4700000238372,,response,,,17,H,,,Space,keypress(Space),,,,speech,,,,-------------- --- -------- -------- ---------- ---- -------<br>to ---------- -- --- ----- ------ ----- ---- --------- ----<br>------- ------ -------- -- ------ ---------- ------ ---<br>------ -- -- ---- -- ---------- -------- ------ ---- -------<br>---- --- --------- ------- ----- --------- ---- ----- --<br>------ -------- -- ------ -- ---- ------------,110242.70000004768,110242.10000002384,110202.98,110211.60000002384,110219.63,110253.042,,7,to
screen,html.Screen,2_3_1_0_1_8,2022-03-21T21:23:03.830Z,,,,,,,,,,,,,,,,,19,,,,,,,,,,,,,20.45799999999872,,response,,,17,H,,,Space,keypress(Space),,,,speech,,,,-------------- --- -------- -------- ---------- ---- -------<br>-- synthesize -- --- ----- ------ ----- ---- --------- ----<br>------- ------ -------- -- ------ ---------- ------ ---<br>------ -- -- ---- -- ---------- -------- ------ ---- -------<br>---- --- --------- ------- ----- --------- ---- ----- --<br>------ -------- -- ------ -- ---- ------------,110274.20000004768,110273.5,110236.343,110242.79999995232,110253.042,110303.017,,8,synthesize
screen,html.Screen,2_3_1_0_1_9,2022-03-21T21:23:03.862Z,,,,,,,,,,,,,,,,,19,,,,,,,,,,,,,2.0830000238347566,,response,,,17,H,,,Space,keypress(Space),,,,speech,,,,-------------- --- -------- -------- ---------- ---- -------<br>-- ---------- so --- ----- ------ ----- ---- --------- ----<br>------- ------ -------- -- ------ ---------- ------ ---<br>------ -- -- ---- -- ---------- -------- ------ ---- -------<br>---- --- --------- ------- ----- --------- ---- ----- --<br>------ -------- -- ------ -- ---- ------------,110305.79999995232,110305.10000002384,110286.346,110274.29999995232,110303.017,110336.37,,9,so
screen,html.Screen,2_3_1_0_1_10,2022-03-21T21:23:03.894Z,,,,,,,,,,,,,,,,,19,,,,,,,,,,,,,0.9299999523209408,,response,,,17,H,,,Space,keypress(Space),,,,speech,,,,-------------- --- -------- -------- ---------- ---- -------<br>-- ---------- -- far ----- ------ ----- ---- --------- ----<br>------- ------ -------- -- ------ ---------- ------ ---<br>------ -- -- ---- -- ---------- -------- ------ ---- -------<br>---- --- --------- ------- ----- --------- ---- ----- --<br>------ -------- -- ------ -- ---- ------------,110337.79999995232,110337.29999995232,110319.675,110306.10000002384,110336.37,110369.788,,10,far
screen,html.Screen,2_3_1_0_1_11,2022-03-21T21:23:03.925Z,,,,,,,,,,,,,,,,,19,,,,,,,,,,,,,15.95799999999872,,response,,,17,H,,,Space,keypress(Space),,,,speech,,,,-------------- --- -------- -------- ---------- ---- -------<br>-- ---------- -- --- don't ------ ----- ---- --------- ----<br>------- ------ -------- -- ------ ---------- ------ ---<br>------ -- -- ---- -- ---------- -------- ------ ---- -------<br>---- --- --------- ------- ----- --------- ---- ----- --<br>------ -------- -- ------ -- ---- ------------,110369.60000002384,110369,110353.042,110338,,110386.471,,11,don't
screen,html.Screen,2_3_1_0_1_12,2022-03-21T21:23:03.956Z,,,,,,,,,,,,,,,,,19,,,,,,,,,,,,,13.028999999994994,,response,,,17,H,,,Space,keypress(Space),,,,speech,,,,-------------- --- -------- -------- ---------- ---- -------<br>-- ---------- -- --- ----- behave ----- ---- --------- ----<br>------- ------ -------- -- ------ ---------- ------ ---<br>------ -- -- ---- -- ---------- -------- ------ ---- -------<br>---- --- --------- ------- ----- --------- ---- ----- --<br>------ -------- -- ------ -- ---- ------------,110400.10000002384,110399.5,110369.788,110369.79999995232,110386.471,110419.838,,12,behave
screen,html.Screen,2_3_1_0_1_13,2022-03-21T21:23:03.988Z,,,,,,,,,,,,,,,,,19,,,,,,,,,,,,,11.561999976154766,,response,,,17,H,,,Space,keypress(Space),,,,speech,,,,-------------- --- -------- -------- ---------- ---- -------<br>-- ---------- -- --- ----- ------ quite ---- --------- ----<br>------- ------ -------- -- ------ ---------- ------ ---<br>------ -- -- ---- -- ---------- -------- ------ ---- -------<br>---- --- --------- ------- ----- --------- ---- ----- --<br>------ -------- -- ------ -- ---- ------------,110431.79999995232,110431.39999997616,110403.127,110400.29999995232,110419.838,110453.183,,13,quite
screen,html.Screen,2_3_1_0_1_14,2022-03-21T21:23:04.020Z,,,,,,,,,,,,,,,,,19,,,,,,,,,,,,,10.017000047679176,,response,,,17,H,,,Space,keypress(Space),,,,speech,,,,-------------- --- -------- -------- ---------- ---- -------<br>-- ---------- -- --- ----- ------ ----- like --------- ----<br>------- ------ -------- -- ------ ---------- ------ ---<br>------ -- -- ---- -- ---------- -------- ------ ---- -------<br>---- --- --------- ------- ----- --------- ---- ----- --<br>------ -------- -- ------ -- ---- ------------,110463.89999997616,110463.20000004768,110436.479,110432.10000002384,110453.183,110486.561,,14,like
screen,html.Screen,2_3_1_0_1_15,2022-03-21T21:23:04.068Z,,,,,,,,,,,,,,,,,19,,,,,,,,,,,,,24.639000047682202,,response,,,17,H,,,Space,keypress(Space),,,,speech,,,,-------------- --- -------- -------- ---------- ---- -------<br>-- ---------- -- --- ----- ------ ----- ---- science's ----<br>------- ------ -------- -- ------ ---------- ------ ---<br>------ -- -- ---- -- ---------- -------- ------ ---- -------<br>---- --- --------- ------- ----- --------- ---- ----- --<br>------ -------- -- ------ -- ---- ------------,110511.70000004768,110511.20000004768,110469.832,110464,110486.561,110519.748,,15,science's
screen,html.Screen,2_3_1_0_1_16,2022-03-21T21:23:04.099Z,,,,,,,,,,,,,,,,,19,,,,,,,,,,,,,23.25199999999313,,response,,,17,H,,,Space,keypress(Space),,,,speech,,,,-------------- --- -------- -------- ---------- ---- -------<br>-- ---------- -- --- ----- ------ ----- ---- --------- best<br>------- ------ -------- -- ------ ---------- ------ ---<br>------ -- -- ---- -- ---------- -------- ------ ---- -------<br>---- --- --------- ------- ----- --------- ---- ----- --<br>------ -------- -- ------ -- ---- ------------,110543.70000004768,110543,110503.218,110511.89999997616,110519.748,110553.111,,16,best
screen,html.Screen,2_3_1_0_1_17,2022-03-21T21:23:04.131Z,,,,,,,,,,,,,,,,,19,,,,,,,,,,,,,21.68899995231186,,response,,,17,H,,,Space,keypress(Space),,,,speech,,,,-------------- --- -------- -------- ---------- ---- -------<br>-- ---------- -- --- ----- ------ ----- ---- --------- ----<br>current ------ -------- -- ------ ---------- ------ ---<br>------ -- -- ---- -- ---------- -------- ------ ---- -------<br>---- --- --------- ------- ----- --------- ---- ----- --<br>------ -------- -- ------ -- ---- ------------,110575.39999997616,110574.79999995232,110536.566,110543.79999995232,110553.111,110603.268,,17,current
screen,html.Screen,2_3_1_0_1_18,2022-03-21T21:23:04.164Z,,,,,,,,,,,,,,,,,19,,,,,,,,,,,,,4.031999952319893,,response,,,17,H,,,Space,keypress(Space),,,,speech,,,,-------------- --- -------- -------- ---------- ---- -------<br>-- ---------- -- --- ----- ------ ----- ---- --------- ----<br>------- models -------- -- ------ ---------- ------ ---<br>------ -- -- ---- -- ---------- -------- ------ ---- -------<br>---- --- --------- ------- ----- --------- ---- ----- --<br>------ -------- -- ------ -- ---- ------------,110607.89999997616,110607.29999995232,110586.6,110575.70000004768,110603.268,110636.632,,18,models
screen,html.Screen,2_3_1_0_1_19,2022-03-21T21:23:04.195Z,,,,,,,,,,,,,,,,,19,,,,,,,,,,,,,2.267999976160354,,response,,,17,H,,,Space,keypress(Space),,,,speech,,,,"-------------- --- -------- -------- ---------- ---- -------<br>-- ---------- -- --- ----- ------ ----- ---- --------- ----<br>------- ------ predict, -- ------ ---------- ------ ---<br>------ -- -- ---- -- ---------- -------- ------ ---- -------<br>---- --- --------- ------- ----- --------- ---- ----- --<br>------ -------- -- ------ -- ---- ------------",110639.5,110638.89999997616,110619.99,110608.20000004768,110636.632,110669.998,,19,"predict,"
screen,html.Screen,2_3_1_0_1_20,2022-03-21T21:23:04.227Z,,,,,,,,,,,,,,,,,19,,,,,,,,,,,,,0.7020000476768473,,response,,,17,H,,,Space,keypress(Space),,,,speech,,,,-------------- --- -------- -------- ---------- ---- -------<br>-- ---------- -- --- ----- ------ ----- ---- --------- ----<br>------- ------ -------- so ------ ---------- ------ ---<br>------ -- -- ---- -- ---------- -------- ------ ---- -------<br>---- --- --------- ------- ----- --------- ---- ----- --<br>------ -------- -- ------ -- ---- ------------,110671.20000004768,110670.70000004768,110653.293,110639.60000002384,110669.998,110703.349,,20,so
screen,html.Screen,2_3_1_0_1_21,2022-03-21T21:23:04.259Z,,,,,,,,,,,,,,,,,19,,,,,,,,,,,,,15.642999952309765,,response,,,17,H,,,Space,keypress(Space),,,,speech,,,,-------------- --- -------- -------- ---------- ---- -------<br>-- ---------- -- --- ----- ------ ----- ---- --------- ----<br>------- ------ -------- -- stable ---------- ------ ---<br>------ -- -- ---- -- ---------- -------- ------ ---- -------<br>---- --- --------- ------- ----- --------- ---- ----- --<br>------ -------- -- ------ -- ---- ------------,110702.89999997616,110702.29999995232,110686.657,110671.5,,110720.091,,21,stable
screen,html.Screen,2_3_1_0_1_22,2022-03-21T21:23:04.291Z,,,,,,,,,,,,,,,,,19,,,,,,,,,,,,,14.208999952315935,,response,,,17,H,,,Space,keypress(Space),,,,speech,,,,-------------- --- -------- -------- ---------- ---- -------<br>-- ---------- -- --- ----- ------ ----- ---- --------- ----<br>------- ------ -------- -- ------ superheavy ------ ---<br>------ -- -- ---- -- ---------- -------- ------ ---- -------<br>---- --- --------- ------- ----- --------- ---- ----- --<br>------ -------- -- ------ -- ---- ------------,110735,110734.29999995232,110703.349,110703.10000002384,110720.091,110753.398,,22,superheavy
screen,html.Screen,2_3_1_0_1_23,2022-03-21T21:23:04.321Z,,,,,,,,,,,,,,,,,19,,,,,,,,,,,,,11.501999976157094,,response,,,17,H,,,Space,keypress(Space),,,,speech,,,,-------------- --- -------- -------- ---------- ---- -------<br>-- ---------- -- --- ----- ------ ----- ---- --------- ----<br>------- ------ -------- -- ------ ---------- nuclei ---<br>------ -- -- ---- -- ---------- -------- ------ ---- -------<br>---- --- --------- ------- ----- --------- ---- ----- --<br>------ -------- -- ------ -- ---- ------------,110765.60000002384,110764.89999997616,110736.688,110735.10000002384,110753.398,110786.812,,23,nuclei
screen,html.Screen,2_3_1_0_1_24,2022-03-21T21:23:04.354Z,,,,,,,,,,,,,,,,,19,,,,,,,,,,,,,10.38800004767836,,response,,,17,H,,,Space,keypress(Space),,,,speech,,,,-------------- --- -------- -------- ---------- ---- -------<br>-- ---------- -- --- ----- ------ ----- ---- --------- ----<br>------- ------ -------- -- ------ ---------- ------ are<br>------ -- -- ---- -- ---------- -------- ------ ---- -------<br>---- --- --------- ------- ----- --------- ---- ----- --<br>------ -------- -- ------ -- ---- ------------,110797.79999995232,110797.20000004768,110770.102,110765.79999995232,110786.812,110820.174,,24,are
screen,html.Screen,2_3_1_0_1_25,2022-03-21T21:23:04.385Z,,,,,,,,,,,,,,,,,19,,,,,,,,,,,,,8.42600002384279,,response,,,17,H,,,Space,keypress(Space),,,,speech,,,,-------------- --- -------- -------- ---------- ---- -------<br>-- ---------- -- --- ----- ------ ----- ---- --------- ----<br>------- ------ -------- -- ------ ---------- ------ ---<br>likely -- -- ---- -- ---------- -------- ------ ---- -------<br>---- --- --------- ------- ----- --------- ---- ----- --<br>------ -------- -- ------ -- ---- ------------,110829,110828.60000002384,110803.455,110798,110820.174,110853.527,,25,likely
screen,html.Screen,2_3_1_0_1_26,2022-03-21T21:23:04.417Z,,,,,,,,,,,,,,,,,19,,,,,,,,,,,,,7.472999999998137,,response,,,17,H,,,Space,keypress(Space),,,,speech,,,,-------------- --- -------- -------- ---------- ---- -------<br>-- ---------- -- --- ----- ------ ----- ---- --------- ----<br>------- ------ -------- -- ------ ---------- ------ ---<br>------ to -- ---- -- ---------- -------- ------ ---- -------<br>---- --- --------- ------- ----- --------- ---- ----- --<br>------ -------- -- ------ -- ---- ------------,110861.5,110861,110836.809,110829.10000002384,110853.527,110886.888,,26,to
screen,html.Screen,2_3_1_0_1_27,2022-03-21T21:23:04.449Z,,,,,,,,,,,,,,,,,19,,,,,,,,,,,,,5.611999999993714,,response,,,17,H,,,Space,keypress(Space),,,,speech,,,,-------------- --- -------- -------- ---------- ---- -------<br>-- ---------- -- --- ----- ------ ----- ---- --------- ----<br>------- ------ -------- -- ------ ---------- ------ ---<br>------ -- be ---- -- ---------- -------- ------ ---- -------<br>---- --- --------- ------- ----- --------- ---- ----- --<br>------ -------- -- ------ -- ---- ------------,110893,110892.5,110870.081,110861.70000004768,110886.888,110920.253,,27,be
screen,html.Screen,2_3_1_0_1_28,2022-03-21T21:23:04.496Z,,,,,,,,,,,,,,,,,19,,,,,,,,,,,,,19.64699997616117,,response,,,17,H,,,Space,keypress(Space),,,,speech,,,,-------------- --- -------- -------- ---------- ---- -------<br>-- ---------- -- --- ----- ------ ----- ---- --------- ----<br>------- ------ -------- -- ------ ---------- ------ ---<br>------ -- -- full -- ---------- -------- ------ ---- -------<br>---- --- --------- ------- ----- --------- ---- ----- --<br>------ -------- -- ------ -- ---- ------------,110940.29999995232,110939.89999997616,110903.541,110893.20000004768,110920.253,110953.619,,28,full
screen,html.Screen,2_3_1_0_1_29,2022-03-21T21:23:04.528Z,,,,,,,,,,,,,,,,,19,,,,,,,,,,,,,18.081000047677662,,response,,,17,H,,,Space,keypress(Space),,,,speech,,,,-------------- --- -------- -------- ---------- ---- -------<br>-- ---------- -- --- ----- ------ ----- ---- --------- ----<br>------- ------ -------- -- ------ ---------- ------ ---<br>------ -- -- ---- of ---------- -------- ------ ---- -------<br>---- --- --------- ------- ----- --------- ---- ----- --<br>------ -------- -- ------ -- ---- ------------,110971.89999997616,110971.70000004768,110936.898,110940.39999997616,110953.619,110986.976,,29,of
screen,html.Screen,2_3_1_0_1_30,2022-03-21T21:23:04.560Z,,,,,,,,,,,,,,,,,19,,,,,,,,,,,,,16.724000047688605,,response,,,17,H,,,Space,keypress(Space),,,,speech,,,,-------------- --- -------- -------- ---------- ---- -------<br>-- ---------- -- --- ----- ------ ----- ---- --------- ----<br>------- ------ -------- -- ------ ---------- ------ ---<br>------ -- -- ---- -- surprises. -------- ------ ---- -------<br>---- --- --------- ------- ----- --------- ---- ----- --<br>------ -------- -- ------ -- ---- ------------,111004.39999997616,111003.70000004768,110970.26,110972.10000002384,110986.976,111020.338,,30,surprises.
screen,html.Screen,2_3_1_0_1_31,2022-03-21T21:23:04.592Z,,,,,,,,,,,,,,,,,19,,,,,,,,,,,,,15.161999999996624,,response,,,17,H,,,Space,keypress(Space),,,,speech,,,,-------------- --- -------- -------- ---------- ---- -------<br>-- ---------- -- --- ----- ------ ----- ---- --------- ----<br>------- ------ -------- -- ------ ---------- ------ ---<br>------ -- -- ---- -- ---------- Chemists ------ ---- -------<br>---- --- --------- ------- ----- --------- ---- ----- --<br>------ -------- -- ------ -- ---- ------------,111036.10000002384,111035.5,111003.614,111004.5,111020.338,111053.699,,31,Chemists
screen,html.Screen,2_3_1_0_1_32,2022-03-21T21:23:04.624Z,,,,,,,,,,,,,,,,,19,,,,,,,,,,,,,13.600999952323036,,response,,,17,H,,,Space,keypress(Space),,,,speech,,,,-------------- --- -------- -------- ---------- ---- -------<br>-- ---------- -- --- ----- ------ ----- ---- --------- ----<br>------- ------ -------- -- ------ ---------- ------ ---<br>------ -- -- ---- -- ---------- -------- cannot ---- -------<br>---- --- --------- ------- ----- --------- ---- ----- --<br>------ -------- -- ------ -- ---- ------------,111067.89999997616,111067.29999995232,111036.935,111036.29999995232,111053.699,111087.037,,32,cannot
screen,html.Screen,2_3_1_0_1_33,2022-03-21T21:23:04.656Z,,,,,,,,,,,,,,,,,19,,,,,,,,,,,,,12.163000047687092,,response,,,17,H,,,Space,keypress(Space),,,,speech,,,,-------------- --- -------- -------- ---------- ---- -------<br>-- ---------- -- --- ----- ------ ----- ---- --------- ----<br>------- ------ -------- -- ------ ---------- ------ ---<br>------ -- -- ---- -- ---------- -------- ------ even -------<br>---- --- --------- ------- ----- --------- ---- ----- --<br>------ -------- -- ------ -- ---- ------------,111099.79999995232,111099.20000004768,111070.354,111068.39999997616,111087.037,111120.391,,33,even
screen,html.Screen,2_3_1_0_1_34,2022-03-21T21:23:04.688Z,,,,,,,,,,,,,,,,,19,,,,,,,,,,,,,10.60899999999674,,response,,,17,H,,,Space,keypress(Space),,,,speech,,,,-------------- --- -------- -------- ---------- ---- -------<br>-- ---------- -- --- ----- ------ ----- ---- --------- ----<br>------- ------ -------- -- ------ ---------- ------ ---<br>------ -- -- ---- -- ---------- -------- ------ ---- predict<br>---- --- --------- ------- ----- --------- ---- ----- --<br>------ -------- -- ------ -- ---- ------------,111131.70000004768,111131,111103.712,111100,111120.391,111153.78,,34,predict
screen,html.Screen,2_3_1_0_1_35,2022-03-21T21:23:04.719Z,,,,,,,,,,,,,,,,,19,,,,,,,,,,,,,9.220000000001164,,response,,,17,H,,,Space,keypress(Space),,,,speech,,,,-------------- --- -------- -------- ---------- ---- -------<br>-- ---------- -- --- ----- ------ ----- ---- --------- ----<br>------- ------ -------- -- ------ ---------- ------ ---<br>------ -- -- ---- -- ---------- -------- ------ ---- -------<br>with --- --------- ------- ----- --------- ---- ----- --<br>------ -------- -- ------ -- ---- ------------,111163.60000002384,111163,111137.045,111131.89999997616,111153.78,111187.115,,35,with
screen,html.Screen,2_3_1_0_1_36,2022-03-21T21:23:04.751Z,,,,,,,,,,,,,,,,,19,,,,,,,,,,,,,7.585000047678477,,response,,,17,H,,,Space,keypress(Space),,,,speech,,,,-------------- --- -------- -------- ---------- ---- -------<br>-- ---------- -- --- ----- ------ ----- ---- --------- ----<br>------- ------ -------- -- ------ ---------- ------ ---<br>------ -- -- ---- -- ---------- -------- ------ ---- -------<br>---- any --------- ------- ----- --------- ---- ----- --<br>------ -------- -- ------ -- ---- ------------,111195.70000004768,111194.70000004768,111170.414,111163.79999995232,111187.115,111220.438,,36,any
screen,html.Screen,2_3_1_0_1_37,2022-03-21T21:23:04.782Z,,,,,,,,,,,,,,,,,19,,,,,,,,,,,,,5.262000047689071,,response,,,17,H,,,Space,keypress(Space),,,,speech,,,,-------------- --- -------- -------- ---------- ---- -------<br>-- ---------- -- --- ----- ------ ----- ---- --------- ----<br>------- ------ -------- -- ------ ---------- ------ ---<br>------ -- -- ---- -- ---------- -------- ------ ---- -------<br>---- --- certainty ------- ----- --------- ---- ----- --<br>------ -------- -- ------ -- ---- ------------,111226.39999997616,111225.70000004768,111203.734,111195.79999995232,111220.438,111253.865,,37,certainty
screen,html.Screen,2_3_1_0_1_38,2022-03-21T21:23:04.814Z,,,,,,,,,,,,,,,,,19,,,,,,,,,,,,,3.4349999523110455,,response,,,17,H,,,Space,keypress(Space),,,,speech,,,,-------------- --- -------- -------- ---------- ---- -------<br>-- ---------- -- --- ----- ------ ----- ---- --------- ----<br>------- ------ -------- -- ------ ---------- ------ ---<br>------ -- -- ---- -- ---------- -------- ------ ---- -------<br>---- --- --------- whether ----- --------- ---- ----- --<br>------ -------- -- ------ -- ---- ------------,111257.79999995232,111257.29999995232,111237.097,111226.60000002384,111253.865,111287.196,,38,whether
screen,html.Screen,2_3_1_0_1_39,2022-03-21T21:23:04.845Z,,,,,,,,,,,,,,,,,19,,,,,,,,,,,,,2.004000047687441,,response,,,17,H,,,Space,keypress(Space),,,,speech,,,,-------------- --- -------- -------- ---------- ---- -------<br>-- ---------- -- --- ----- ------ ----- ---- --------- ----<br>------- ------ -------- -- ------ ---------- ------ ---<br>------ -- -- ---- -- ---------- -------- ------ ---- -------<br>---- --- --------- ------- these --------- ---- ----- --<br>------ -------- -- ------ -- ---- ------------,111289.60000002384,111289.20000004768,111270.489,111257.89999997616,111287.196,111320.536,,39,these
screen,html.Screen,2_3_1_0_1_40,2022-03-21T21:23:04.892Z,,,,,,,,,,,,,,,,,19,,,,,,,,,,,,,14.664000047690934,,response,,,17,H,,,Space,keypress(Space),,,,speech,,,,-------------- --- -------- -------- ---------- ---- -------<br>-- ---------- -- --- ----- ------ ----- ---- --------- ----<br>------- ------ -------- -- ------ ---------- ------ ---<br>------ -- -- ---- -- ---------- -------- ------ ---- -------<br>---- --- --------- ------- ----- materials ---- ----- --<br>------ -------- -- ------ -- ---- ------------,111335.89999997616,111335.20000004768,111303.87,111289.60000002384,111320.536,111353.961,,40,materials
screen,html.Screen,2_3_1_0_1_41,2022-03-21T21:23:04.923Z,,,,,,,,,,,,,,,,,19,,,,,,,,,,,,,13.139000023846165,,response,,,17,H,,,Space,keypress(Space),,,,speech,,,,-------------- --- -------- -------- ---------- ---- -------<br>-- ---------- -- --- ----- ------ ----- ---- --------- ----<br>------- ------ -------- -- ------ ---------- ------ ---<br>------ -- -- ---- -- ---------- -------- ------ ---- -------<br>---- --- --------- ------- ----- --------- will ----- --<br>------ -------- -- ------ -- ---- ------------,111367.29999995232,111367.10000002384,111337.223,111336.10000002384,111353.961,111387.306,,41,will
