sender,sender_type,sender_id,timestamp,meta,,Blues,Classical,Country,Dance,Electronic,Folk,Gospel,Hip-Hop,Jazz,Latin,Musical/Film,New-age,Pop,Prolific_id,Provo_ID,R&B,Rap,Reggae,Religious,Rock,Soul,Swing,Traditional,age,artist_name,correct,correctResponse,duration,education,ended_on,gender,headphone_check_performance,item,list,music_frequency,position_correct,response,response_action,snippet_file,song_name,song_rating,sound,stimulus_1,stimulus_2,stimulus_3,text,time_commit,time_end,time_render,time_run,time_show,time_switch,url,word,word_ID
Prolific ID,html.Form,0,2022-03-19T22:16:33.899Z,"{""labjs_version"":""20.2.2"",""labjs_build"":{""flavor"":""production"",""commit"":""a25486e0c714a0ae2ce03ff94b7bb6896854dcfa""},""location"":""https://run.pavlovia.org/mvasilev/prolific3_music_d/?__pilotToken=b6d767d2f8ed5d21a44b0e5886680cb9&__oauthToken=cc604b6e7d449fc5fe7a311b47aeaf3d810b53f5795c726b331b83656855f6f4"",""userAgent"":""Mozilla/5.0 (Windows NT 10.0; Win64; x64) AppleWebKit/537.36 (KHTML, like Gecko) Chrome/99.0.4844.74 Safari/537.36"",""platform"":""Win32"",""language"":""de-DE"",""locale"":""en-US"",""timeZone"":""Europe/London"",""timezoneOffset"":0,""screen_width"":2560,""screen_height"":1440,""scroll_width"":3200,""scroll_height"":1621,""window_innerWidth"":3200,""window_innerHeight"":1668,""devicePixelRatio"":0.800000011920929}",,,,,,,,,,,,,,,xyz123456789,,,,,,,,,,,,,,4510.610999904633,,form submission,,,,,,,,,,,,,,,,,13865.599999904633,13865.099999904633,9337.774,9340.199999928474,9354.489,13874.881,"{""__pilotToken"":""b6d767d2f8ed5d21a44b0e5886680cb9"",""__oauthToken"":""cc604b6e7d449fc5fe7a311b47aeaf3d810b53f5795c726b331b83656855f6f4""}",,
Introduction,html.Screen,1_0,2022-03-19T22:16:35.882Z,,,,,,,,,,,,,,,,,,,,,,,,,,,,,,1972.9189999523169,,response,,,,,,,continue,click button,,,,,,,,,15848.699999928474,15847.799999952316,13858.111,13865.899999976158,13874.881,15859.696,,,
Volume calibration,html.Screen,1_1,2022-03-19T22:16:37.701Z,,,,,,,,,,,,,,,,,,,,,,,,,,,,,,1804.2039999761582,,response,,,,,,,continue,click button,,,,,,,,,17667.199999928474,17663.899999976158,15843.048,15848.799999952316,15859.696,17677.767,,,
Task instructions,html.Screen,1_2,2022-03-19T22:16:38.930Z,,,,,,,,,,,,,,,,,,,,,,,,,,,,,,1218.1329999761583,,response,,,,,,,continue,click button,,,,,,,,,18896.599999904633,18895.899999976158,17661.183,17667.399999976158,17677.767,18912.204,,,
Sounds,html.Screen,1_3_0_0,2022-03-19T22:16:43.187Z,,,,,,,,,,,,,,,,,,,,,,,,,,,,,,4253.343999999997,,timeout,,,,,,1,,,,,,,S,I,O,,23153.299999952316,23148.941,18895.522,18896.899999976158,18912.204,23165.548,,,
Judgement,html.Screen,1_3_0_1,2022-03-19T22:16:43.858Z,,,,,,,,,,,,,,,,,,,,,,,,,,,,true,1,658.2519999523174,,response,,,,,,1,1,click #choice-1,,,,,S,I,O,,23824.5,23823.799999952316,23148.941,23153.599999904633,23165.548,23832.794,,,
Trial,flow.Sequence,1_3_0,2022-03-19T22:16:43.858Z,,,,,,,,,,,,,,,,,,,,,,,,,,,,,,4911.595999952315,,completion,,,,,,1,,,,,,,S,I,O,,23824.799999952316,23823.799999952316,18895.522,18896.899999976158,18912.204,23832.794,,,
Sounds,html.Screen,1_3_1_0,2022-03-19T22:16:48.104Z,,,,,,,,,,,,,,,,,,,,,,,,,,,,,,4253.447,,timeout,,,,,,3,,,,,,,I,O,S,,28070.5,28069.59,23816.116,23825,23832.794,28086.241,,,
Judgement,html.Screen,1_3_1_1,2022-03-19T22:16:48.602Z,,,,,,,,,,,,,,,,,,,,,,,,,,,,true,3,481.5589999523145,,response,,,,,,3,3,click #choice-3,,,,,I,O,S,,28568.399999976158,28567.799999952316,28069.59,28070.699999928474,28086.241,28569.968,,,
Trial,flow.Sequence,1_3_1,2022-03-19T22:16:48.602Z,,,,,,,,,,,,,,,,,,,,,,,,,,,,,,4735.005999952315,,completion,,,,,,3,,,,,,,I,O,S,,28568.799999952316,28567.799999952316,23816.116,23824.899999976158,23832.794,28569.968,,,
Sounds,html.Screen,1_3_2_0,2022-03-19T22:16:52.841Z,,,,,,,,,,,,,,,,,,,,,,,,,,,,,,4253.470000000001,,timeout,,,,,,2,,,,,,,I,S,O,,32807.5,32806.741,28553.312,28568.899999976158,28569.968,32823.438,,,
Judgement,html.Screen,1_3_2_1,2022-03-19T22:16:53.378Z,,,,,,,,,,,,,,,,,,,,,,,,,,,,true,2,520.3619999523144,,response,,,,,,2,2,click #choice-2,,,,,I,S,O,,33344.699999928474,33343.799999952316,32806.741,32807.799999952316,32823.438,33357.221,,,
Trial,flow.Sequence,1_3_2,2022-03-19T22:16:53.378Z,,,,,,,,,,,,,,,,,,,,,,,,,,,,,,4773.8319999523155,,completion,,,,,,2,,,,,,,I,S,O,,33345,33343.799999952316,28553.312,28568.899999976158,28569.968,33357.221,,,
Sounds,html.Screen,1_3_3_0,2022-03-19T22:16:57.628Z,,,,,,,,,,,,,,,,,,,,,,,,,,,,,,4253.421999999999,,timeout,,,,,,2,,,,,,,O,S,I,,37594.799999952316,37593.938,33340.504,33345,33357.221,37610.643,,,
Judgement,html.Screen,1_3_3_1,2022-03-19T22:16:58.106Z,,,,,,,,,,,,,,,,,,,,,,,,,,,,true,2,461.25699997616175,,response,,,,,,2,2,click #choice-2,,,,,O,S,I,,38072.59999990463,38071.89999997616,37593.938,37595,37610.643,38077.644,,,
Trial,flow.Sequence,1_3_3,2022-03-19T22:16:58.106Z,,,,,,,,,,,,,,,,,,,,,,,,,,,,,,4714.67899997616,,completion,,,,,,2,,,,,,,O,S,I,,38072.699999928474,38071.89999997616,33340.504,33345,33357.221,38077.644,,,
Sounds,html.Screen,1_3_4_0,2022-03-19T22:17:02.349Z,,,,,,,,,,,,,,,,,,,,,,,,,,,,,,4253.4649999999965,,timeout,,,,,,3,,,,,,,O,I,S,,42315.199999928474,42314.424,38060.984,38072.89999997616,38077.644,42331.109,,,
Judgement,html.Screen,1_3_4_1,2022-03-19T22:17:02.890Z,,,,,,,,,,,,,,,,,,,,,,,,,,,,true,3,524.7909999761614,,response,,,,,,3,3,click #choice-3,,,,,O,I,S,,42856.699999928474,42855.89999997616,42314.424,42315.39999997616,42331.109,42864.842,,,
Trial,flow.Sequence,1_3_4,2022-03-19T22:17:02.890Z,,,,,,,,,,,,,,,,,,,,,,,,,,,,,,4778.255999976158,,completion,,,,,,3,,,,,,,O,I,S,,42856.89999997616,42855.89999997616,38060.984,38072.799999952316,38077.644,42864.842,,,
Sounds,html.Screen,1_3_5_0,2022-03-19T22:17:07.136Z,,,,,,,,,,,,,,,,,,,,,,,,,,,,,,4253.419000000002,,timeout,,,,,,1,,,,,,,S,O,I,,47102.39999997616,47101.61,42848.185,42857,42864.842,47118.261,,,
Judgement,html.Screen,1_3_5_1,2022-03-19T22:17:07.962Z,,,,,,,,,,,,,,,,,,,,,,,,,,,,true,1,809.6389999761595,,response,,,,,,1,1,click #choice-1,,,,,S,O,I,,47928.39999997616,47927.89999997616,47101.61,47102.59999990463,47118.261,47935.564,,,
Trial,flow.Sequence,1_3_5,2022-03-19T22:17:07.962Z,,,,,,,,,,,,,,,,,,,,,,,,,,,,,,5063.057999976161,,completion,,,,,,1,,,,,,,S,O,I,,47928.59999990463,47927.89999997616,42848.185,42856.89999997616,42864.842,47935.564,,,
Task,flow.Loop,1_3,2022-03-19T22:17:07.967Z,,,,,,,,,,,,,,,,,,,,,,,,,,,,,,29015.695999976157,,completion,,1,,,,,,,,,,,,,,,47933.299999952316,47927.89999997616,18895.522,18896.899999976158,18912.204,47935.564,,,
Trap,html.Screen,1_4,2022-03-19T22:17:07.968Z,,,,,,,,,,,,,,,,,,,,,,,,,,,,,,NaN,,skipped,,,,,,,,,,,,,,,,,47934.5,47927.89999997616,,47934.39999997616,,47935.564,,,
Thanks,html.Screen,1_5,2022-03-19T22:17:09.962Z,,,,,,,,,,,,,,,,,,,,,,,,,,,,,,1992.2359999523178,,response,,,,,,,continue,click button,,,,,,,,,49928.59999990463,49927.799999952316,47918.937,47934.59999990463,47935.564,51038.086,,,
Headphone screening,flow.Sequence,1,2022-03-19T22:17:09.962Z,,,,,,,,,,,,,,,,,,,,,,,,,,,,,,36052.918999952315,,completion,,,,,,,,,,,,,,,,,49928.699999928474,49927.799999952316,13858.111,13865.899999976158,13874.881,51038.086,,,
Instructions,html.Page,2_0,2022-03-19T22:17:12.235Z,,,,,,,,,,,,,,,,,,,,,,,,,,,,,,1162.913999999997,,form submission,,,,,,,,,,,,,,,,,52201.5,52201,51021.275,51035.299999952316,51038.086,52205.676,,,
Holding screen,html.Screen,2_1_0_0,2022-03-19T22:17:22.231Z,,,,,,,,,,,,,,,,,,,,,,,,,,,,,,10008.196000000004,,timeout,,,,,,,,,,,,,,,,,62197.799999952316,62197.135,52189.054,52201.699999928474,52205.676,62213.872,,,
screen,html.Screen,2_1_0_1_0,2022-03-19T22:17:24.176Z,,,,,,,,,,,,,,,,,53,,,,,,,,,,,,,1923.7279999046295,,response,,,99,,,,Space,keypress(Space),,,,,,,,When -- ----- -- ------ - ------- --- ----------<br>------------- ------ ------ ---- ---- ------- ----- -- ----<br>-------- ------- -- ---------- --- - --- ----- ----- ----<br>---- --- --- ----- --- ---- ---- ------- ----- ---- -------<br>--- --- -- ----- -- --- ---- -- --- ---- -- ------ ------<br>--- ----- -- ----,64142,64137.59999990463,62197.135,62198.09999990463,62213.872,64148.615,,0,When
screen,html.Screen,2_1_0_1_1,2022-03-19T22:17:24.673Z,,,,,,,,,,,,,,,,,53,,,,,,,,,,,,,490.1849999523183,,response,,,99,,,,Space,keypress(Space),,,,,,,,---- it ----- -- ------ - ------- --- ----------<br>------------- ------ ------ ---- ---- ------- ----- -- ----<br>-------- ------- -- ---------- --- - --- ----- ----- ----<br>---- --- --- ----- --- ---- ---- ------- ----- ---- -------<br>--- --- -- ----- -- --- ---- -- --- ---- -- ------ ------<br>--- ----- -- ----,64639.59999990463,64638.799999952316,64132.03,64142.299999952316,64148.615,64665.8,,1,it
screen,html.Screen,2_1_0_1_2,2022-03-19T22:17:24.718Z,,,,,,,,,,,,,,,,,53,,,,,,,,,,,,,18.399999928471516,,response,,,99,,,,Space,keypress(Space),,,,,,,,---- -- comes -- ------ - ------- --- ----------<br>------------- ------ ------ ---- ---- ------- ----- -- ----<br>-------- ------- -- ---------- --- - --- ----- ----- ----<br>---- --- --- ----- --- ---- ---- ------- ----- ---- -------<br>--- --- -- ----- -- --- ---- -- --- ---- -- ------ ------<br>--- ----- -- ----,64684.799999952316,64684.199999928474,64649.121,64639.799999952316,64665.8,64715.823,,2,comes
screen,html.Screen,2_1_0_1_3,2022-03-19T22:17:24.750Z,,,,,,,,,,,,,,,,,53,,,,,,,,,,,,,0.476999952319602,,response,,,99,,,,Space,keypress(Space),,,,,,,,---- -- ----- to ------ - ------- --- ----------<br>------------- ------ ------ ---- ---- ------- ----- -- ----<br>-------- ------- -- ---------- --- - --- ----- ----- ----<br>---- --- --- ----- --- ---- ---- ------- ----- ---- -------<br>--- --- -- ----- -- --- ---- -- --- ---- -- ------ ------<br>--- ----- -- ----,64717,64716.299999952316,64699.156,64685,64715.823,64749.24,,3,to
screen,html.Screen,2_1_0_1_4,2022-03-19T22:17:24.781Z,,,,,,,,,,,,,,,,,53,,,,,,,,,,,,,13.88099997615791,,response,,,99,,,,Space,keypress(Space),,,,,,,,---- -- ----- -- having - ------- --- ----------<br>------------- ------ ------ ---- ---- ------- ----- -- ----<br>-------- ------- -- ---------- --- - --- ----- ----- ----<br>---- --- --- ----- --- ---- ---- ------- ----- ---- -------<br>--- --- -- ----- -- --- ---- -- --- ---- -- ------ ------<br>--- ----- -- ----,64747.09999990463,64746.39999997616,64732.519,64717.09999990463,,64765.918,,4,having
screen,html.Screen,2_1_0_1_5,2022-03-19T22:17:24.812Z,,,,,,,,,,,,,,,,,53,,,,,,,,,,,,,11.881999952318438,,response,,,99,,,,Space,keypress(Space),,,,,,,,---- -- ----- -- ------ a ------- --- ----------<br>------------- ------ ------ ---- ---- ------- ----- -- ----<br>-------- ------- -- ---------- --- - --- ----- ----- ----<br>---- --- --- ----- --- ---- ---- ------- ----- ---- -------<br>--- --- -- ----- -- --- ---- -- --- ---- -- ------ ------<br>--- ----- -- ----,64778.39999997616,64777.799999952316,64749.24,64747.299999952316,64765.918,64799.283,,5,a
screen,html.Screen,2_1_0_1_6,2022-03-19T22:17:24.843Z,,,,,,,,,,,,,,,,,53,,,,,,,,,,,,,9.616999976155057,,response,,,99,,,,Space,keypress(Space),,,,,,,,---- -- ----- -- ------ - lasting --- ----------<br>------------- ------ ------ ---- ---- ------- ----- -- ----<br>-------- ------- -- ---------- --- - --- ----- ----- ----<br>---- --- --- ----- --- ---- ---- ------- ----- ---- -------<br>--- --- -- ----- -- --- ---- -- --- ---- -- ------ ------<br>--- ----- -- ----,64809.5,64808.89999997616,64782.57,64780.5,64799.283,64832.636,,6,lasting
screen,html.Screen,2_1_0_1_7,2022-03-19T22:17:24.874Z,,,,,,,,,,,,,,,,,53,,,,,,,,,,,,,7.263999976159539,,response,,,99,,,,Space,keypress(Space),,,,,,,,---- -- ----- -- ------ - ------- and ----------<br>------------- ------ ------ ---- ---- ------- ----- -- ----<br>-------- ------- -- ---------- --- - --- ----- ----- ----<br>---- --- --- ----- --- ---- ---- ------- ----- ---- -------<br>--- --- -- ----- -- --- ---- -- --- ---- -- ------ ------<br>--- ----- -- ----,64840.59999990463,64839.89999997616,64815.917,64809.699999928474,64832.636,64865.997,,7,and
screen,html.Screen,2_1_0_1_8,2022-03-19T22:17:24.904Z,,,,,,,,,,,,,,,,,53,,,,,,,,,,,,,4.102999904629542,,response,,,99,,,,Space,keypress(Space),,,,,,,,---- -- ----- -- ------ - ------- --- fulfilling<br>------------- ------ ------ ---- ---- ------- ----- -- ----<br>-------- ------- -- ---------- --- - --- ----- ----- ----<br>---- --- --- ----- --- ---- ---- ------- ----- ---- -------<br>--- --- -- ----- -- --- ---- -- --- ---- -- ------ ------<br>--- ----- -- ----,64870.799999952316,64870.09999990463,64849.295,64840.89999997616,64865.997,64899.36,,8,fulfilling
screen,html.Screen,2_1_0_1_9,2022-03-19T22:17:24.936Z,,,,,,,,,,,,,,,,,53,,,,,,,,,,,,,2.53999997615756,,response,,,99,,,,Space,keypress(Space),,,,,,,,"---- -- ----- -- ------ - ------- --- ----------<br>relationship, ------ ------ ---- ---- ------- ----- -- ----<br>-------- ------- -- ---------- --- - --- ----- ----- ----<br>---- --- --- ----- --- ---- ---- ------- ----- ---- -------<br>--- --- -- ----- -- --- ---- -- --- ---- -- ------ ------<br>--- ----- -- ----",64902.59999990463,64901.89999997616,64882.643,64871,64899.36,64932.716,,9,"relationship,"
screen,html.Screen,2_1_0_1_10,2022-03-19T22:17:24.968Z,,,,,,,,,,,,,,,,,53,,,,,,,,,,,,,1.083999952315935,,response,,,99,,,,Space,keypress(Space),,,,,,,,---- -- ----- -- ------ - ------- --- ----------<br>------------- common ------ ---- ---- ------- ----- -- ----<br>-------- ------- -- ---------- --- - --- ----- ----- ----<br>---- --- --- ----- --- ---- ---- ------- ----- ---- -------<br>--- --- -- ----- -- --- ---- -- --- ---- -- ------ ------<br>--- ----- -- ----,64934.59999990463,64933.799999952316,64916,64902.799999952316,64932.716,64966.078,,10,common
screen,html.Screen,2_1_0_1_11,2022-03-19T22:17:25.016Z,,,,,,,,,,,,,,,,,53,,,,,,,,,,,,,15.421999999998661,,response,,,99,,,,Space,keypress(Space),,,,,,,,---- -- ----- -- ------ - ------- --- ----------<br>------------- ------ wisdom ---- ---- ------- ----- -- ----<br>-------- ------- -- ---------- --- - --- ----- ----- ----<br>---- --- --- ----- --- ---- ---- ------- ----- ---- -------<br>--- --- -- ----- -- --- ---- -- --- ---- -- ------ ------<br>--- ----- -- ----,64982.299999952316,64981.5,64949.327,64934.799999952316,64966.078,64999.442,,11,wisdom
screen,html.Screen,2_1_0_1_12,2022-03-19T22:17:25.046Z,,,,,,,,,,,,,,,,,53,,,,,,,,,,,,,12.657999904629833,,response,,,99,,,,Space,keypress(Space),,,,,,,,---- -- ----- -- ------ - ------- --- ----------<br>------------- ------ ------ says ---- ------- ----- -- ----<br>-------- ------- -- ---------- --- - --- ----- ----- ----<br>---- --- --- ----- --- ---- ---- ------- ----- ---- -------<br>--- --- -- ----- -- --- ---- -- --- ---- -- ------ ------<br>--- ----- -- ----,65012.799999952316,65012.09999990463,64982.715,64982.5,64999.442,65032.794,,12,says
screen,html.Screen,2_1_0_1_13,2022-03-19T22:17:25.078Z,,,,,,,,,,,,,,,,,53,,,,,,,,,,,,,11.105999976156454,,response,,,99,,,,Space,keypress(Space),,,,,,,,---- -- ----- -- ------ - ------- --- ----------<br>------------- ------ ------ ---- that ------- ----- -- ----<br>-------- ------- -- ---------- --- - --- ----- ----- ----<br>---- --- --- ----- --- ---- ---- ------- ----- ---- -------<br>--- --- -- ----- -- --- ---- -- --- ---- -- ------ ------<br>--- ----- -- ----,65044.5,65043.89999997616,65016.075,65013,65032.794,65066.158,,13,that
screen,html.Screen,2_1_0_1_14,2022-03-19T22:17:25.108Z,,,,,,,,,,,,,,,,,53,,,,,,,,,,,,,8.041999928471341,,response,,,99,,,,Space,keypress(Space),,,,,,,,---- -- ----- -- ------ - ------- --- ----------<br>------------- ------ ------ ---- ---- feeling ----- -- ----<br>-------- ------- -- ---------- --- - --- ----- ----- ----<br>---- --- --- ----- --- ---- ---- ------- ----- ---- -------<br>--- --- -- ----- -- --- ---- -- --- ---- -- ------ ------<br>--- ----- -- ----,65074.799999952316,65074.199999928474,65049.44,65044.699999928474,65066.158,65099.515,,14,feeling
screen,html.Screen,2_1_0_1_15,2022-03-19T22:17:25.141Z,,,,,,,,,,,,,,,,,53,,,,,,,,,,,,,7.284999952316866,,response,,,99,,,,Space,keypress(Space),,,,,,,,---- -- ----- -- ------ - ------- --- ----------<br>------------- ------ ------ ---- ---- ------- close -- ----<br>-------- ------- -- ---------- --- - --- ----- ----- ----<br>---- --- --- ----- --- ---- ---- ------- ----- ---- -------<br>--- --- -- ----- -- --- ---- -- --- ---- -- ------ ------<br>--- ----- -- ----,65107.5,65106.799999952316,65082.808,65075,65099.515,65132.875,,15,close
screen,html.Screen,2_1_0_1_16,2022-03-19T22:17:25.172Z,,,,,,,,,,,,,,,,,53,,,,,,,,,,,,,4.924999952316284,,response,,,99,,,,Space,keypress(Space),,,,,,,,---- -- ----- -- ------ - ------- --- ----------<br>------------- ------ ------ ---- ---- ------- ----- to ----<br>-------- ------- -- ---------- --- - --- ----- ----- ----<br>---- --- --- ----- --- ---- ---- ------- ----- ---- -------<br>--- --- -- ----- -- --- ---- -- --- ---- -- ------ ------<br>--- ----- -- ----,65138.699999928474,65137.799999952316,65116.12,65107.799999952316,65132.875,65166.246,,16,to
screen,html.Screen,2_1_0_1_17,2022-03-19T22:17:25.204Z,,,,,,,,,,,,,,,,,53,,,,,,,,,,,,,3.3539999046333833,,response,,,99,,,,Space,keypress(Space),,,,,,,,---- -- ----- -- ------ - ------- --- ----------<br>------------- ------ ------ ---- ---- ------- ----- -- your<br>-------- ------- -- ---------- --- - --- ----- ----- ----<br>---- --- --- ----- --- ---- ---- ------- ----- ---- -------<br>--- --- -- ----- -- --- ---- -- --- ---- -- ------ ------<br>--- ----- -- ----,65170.299999952316,65169.59999990463,65149.538,65138.799999952316,65166.246,65199.601,,17,your
screen,html.Screen,2_1_0_1_18,2022-03-19T22:17:25.235Z,,,,,,,,,,,,,,,,,53,,,,,,,,,,,,,1.2989999761557556,,response,,,99,,,,Space,keypress(Space),,,,,,,,---- -- ----- -- ------ - ------- --- ----------<br>------------- ------ ------ ---- ---- ------- ----- -- ----<br>romantic ------- -- ---------- --- - --- ----- ----- ----<br>---- --- --- ----- --- ---- ---- ------- ----- ---- -------<br>--- --- -- ----- -- --- ---- -- --- ---- -- ------ ------<br>--- ----- -- ----,65201.39999997616,65200.89999997616,65182.841,65170.39999997616,65199.601,65232.913,,18,romantic
screen,html.Screen,2_1_0_1_19,2022-03-19T22:17:25.267Z,,,,,,,,,,,,,,,,,53,,,,,,,,,,,,,16.49799992847693,,response,,,99,,,,Space,keypress(Space),,,,,,,,---- -- ----- -- ------ - ------- --- ----------<br>------------- ------ ------ ---- ---- ------- ----- -- ----<br>-------- partner -- ---------- --- - --- ----- ----- ----<br>---- --- --- ----- --- ---- ---- ------- ----- ---- -------<br>--- --- -- ----- -- --- ---- -- --- ---- -- ------ ------<br>--- ----- -- ----,65233.59999990463,65232.699999928474,65216.202,65201.699999928474,,65249.644,,19,partner
screen,html.Screen,2_1_0_1_20,2022-03-19T22:17:25.299Z,,,,,,,,,,,,,,,,,53,,,,,,,,,,,,,14.655999952316051,,response,,,99,,,,Space,keypress(Space),,,,,,,,---- -- ----- -- ------ - ------- --- ----------<br>------------- ------ ------ ---- ---- ------- ----- -- ----<br>-------- ------- is ---------- --- - --- ----- ----- ----<br>---- --- --- ----- --- ---- ---- ------- ----- ---- -------<br>--- --- -- ----- -- --- ---- -- --- ---- -- ------ ------<br>--- ----- -- ----,65265,65264.299999952316,65232.913,65233.799999952316,65249.644,65282.984,,20,is
screen,html.Screen,2_1_0_1_21,2022-03-19T22:17:25.346Z,,,,,,,,,,,,,,,,,53,,,,,,,,,,,,,28.9159999761614,,response,,,99,,,,Space,keypress(Space),,,,,,,,---- -- ----- -- ------ - ------- --- ----------<br>------------- ------ ------ ---- ---- ------- ----- -- ----<br>-------- ------- -- paramount. --- - --- ----- ----- ----<br>---- --- --- ----- --- ---- ---- ------- ----- ---- -------<br>--- --- -- ----- -- --- ---- -- --- ---- -- ------ ------<br>--- ----- -- ----,65312.39999997616,65311.89999997616,65266.242,65265.299999952316,65282.984,65316.163,,21,paramount.
screen,html.Screen,2_1_0_1_22,2022-03-19T22:17:25.377Z,,,,,,,,,,,,,,,,,53,,,,,,,,,,,,,26.736999976157676,,response,,,99,,,,Space,keypress(Space),,,,,,,,---- -- ----- -- ------ - ------- --- ----------<br>------------- ------ ------ ---- ---- ------- ----- -- ----<br>-------- ------- -- ---------- But - --- ----- ----- ----<br>---- --- --- ----- --- ---- ---- ------- ----- ---- -------<br>--- --- -- ----- -- --- ---- -- --- ---- -- ------ ------<br>--- ----- -- ----,65343.5,65342.89999997616,65299.655,65312.39999997616,65316.163,65349.59,,22,But
screen,html.Screen,2_1_0_1_23,2022-03-19T22:17:25.408Z,,,,,,,,,,,,,,,,,53,,,,,,,,,,,,,24.309999976161635,,response,,,99,,,,Space,keypress(Space),,,,,,,,---- -- ----- -- ------ - ------- --- ----------<br>------------- ------ ------ ---- ---- ------- ----- -- ----<br>-------- ------- -- ---------- --- a --- ----- ----- ----<br>---- --- --- ----- --- ---- ---- ------- ----- ---- -------<br>--- --- -- ----- -- --- ---- -- --- ---- -- ------ ------<br>--- ----- -- ----,65374.59999990463,65373.89999997616,65333.045,65343.699999928474,65349.59,65383.021,,23,a
screen,html.Screen,2_1_0_1_24,2022-03-19T22:17:25.440Z,,,,,,,,,,,,,,,,,53,,,,,,,,,,,,,22.778999952315644,,response,,,99,,,,Space,keypress(Space),,,,,,,,---- -- ----- -- ------ - ------- --- ----------<br>------------- ------ ------ ---- ---- ------- ----- -- ----<br>-------- ------- -- ---------- --- - new ----- ----- ----<br>---- --- --- ----- --- ---- ---- ------- ----- ---- -------<br>--- --- -- ----- -- --- ---- -- --- ---- -- ------ ------<br>--- ----- -- ----,65406.39999997616,65405.799999952316,65366.352,65374.799999952316,65383.021,65416.418,,24,new
screen,html.Screen,2_1_0_1_25,2022-03-19T22:17:25.472Z,,,,,,,,,,,,,,,,,53,,,,,,,,,,,,,20.981999976160296,,response,,,99,,,,Space,keypress(Space),,,,,,,,---- -- ----- -- ------ - ------- --- ----------<br>------------- ------ ------ ---- ---- ------- ----- -- ----<br>-------- ------- -- ---------- --- - --- study ----- ----<br>---- --- --- ----- --- ---- ---- ------- ----- ---- -------<br>--- --- -- ----- -- --- ---- -- --- ---- -- ------ ------<br>--- ----- -- ----,65438,65437.39999997616,65399.715,65406.59999990463,65416.418,65449.796,,25,study
screen,html.Screen,2_1_0_1_26,2022-03-19T22:17:25.502Z,,,,,,,,,,,,,,,,,53,,,,,,,,,,,,,18.303999904630473,,response,,,99,,,,Space,keypress(Space),,,,,,,,---- -- ----- -- ------ - ------- --- ----------<br>------------- ------ ------ ---- ---- ------- ----- -- ----<br>-------- ------- -- ---------- --- - --- ----- finds ----<br>---- --- --- ----- --- ---- ---- ------- ----- ---- -------<br>--- --- -- ----- -- --- ---- -- --- ---- -- ------ ------<br>--- ----- -- ----,65468.699999928474,65468.09999990463,65433.078,65438.299999952316,65449.796,65483.165,,26,finds
screen,html.Screen,2_1_0_1_27,2022-03-19T22:17:25.535Z,,,,,,,,,,,,,,,,,53,,,,,,,,,,,,,17.534999928473553,,response,,,99,,,,Space,keypress(Space),,,,,,,,---- -- ----- -- ------ - ------- --- ----------<br>------------- ------ ------ ---- ---- ------- ----- -- ----<br>-------- ------- -- ---------- --- - --- ----- ----- that<br>---- --- --- ----- --- ---- ---- ------- ----- ---- -------<br>--- --- -- ----- -- --- ---- -- --- ---- -- ------ ------<br>--- ----- -- ----,65501.299999952316,65500.699999928474,65466.337,65468.89999997616,65483.165,65516.527,,27,that
screen,html.Screen,2_1_0_1_28,2022-03-19T22:17:25.565Z,,,,,,,,,,,,,,,,,53,,,,,,,,,,,,,14.472999999998137,,response,,,99,,,,Space,keypress(Space),,,,,,,,---- -- ----- -- ------ - ------- --- ----------<br>------------- ------ ------ ---- ---- ------- ----- -- ----<br>-------- ------- -- ---------- --- - --- ----- ----- ----<br>it's --- --- ----- --- ---- ---- ------- ----- ---- -------<br>--- --- -- ----- -- --- ---- -- --- ---- -- ------ ------<br>--- ----- -- ----,65531.699999928474,65531,65499.798,65501.5,65516.527,65549.882,,28,it's
screen,html.Screen,2_1_0_1_29,2022-03-19T22:17:25.596Z,,,,,,,,,,,,,,,,,53,,,,,,,,,,,,,11.517999976160354,,response,,,99,,,,Space,keypress(Space),,,,,,,,---- -- ----- -- ------ - ------- --- ----------<br>------------- ------ ------ ---- ---- ------- ----- -- ----<br>-------- ------- -- ---------- --- - --- ----- ----- ----<br>---- not --- ----- --- ---- ---- ------- ----- ---- -------<br>--- --- -- ----- -- --- ---- -- --- ---- -- ------ ------<br>--- ----- -- ----,65562.09999990463,65561.39999997616,65533.163,65531.799999952316,65549.882,65583.241,,29,not
screen,html.Screen,2_1_0_1_30,2022-03-19T22:17:25.642Z,,,,,,,,,,,,,,,,,53,,,,,,,,,,,,,24.558999952321756,,response,,,99,,,,Space,keypress(Space),,,,,,,,---- -- ----- -- ------ - ------- --- ----------<br>------------- ------ ------ ---- ---- ------- ----- -- ----<br>-------- ------- -- ---------- --- - --- ----- ----- ----<br>---- --- how ----- --- ---- ---- ------- ----- ---- -------<br>--- --- -- ----- -- --- ---- -- --- ---- -- ------ ------<br>--- ----- -- ----,65608.5,65607.79999995232,65566.519,65562.19999992847,65583.241,65616.568,,30,how
screen,html.Screen,2_1_0_1_31,2022-03-19T22:17:25.674Z,,,,,,,,,,,,,,,,,53,,,,,,,,,,,,,22.83199997615884,,response,,,99,,,,Space,keypress(Space),,,,,,,,---- -- ----- -- ------ - ------- --- ----------<br>------------- ------ ------ ---- ---- ------- ----- -- ----<br>-------- ------- -- ---------- --- - --- ----- ----- ----<br>---- --- --- close --- ---- ---- ------- ----- ---- -------<br>--- --- -- ----- -- --- ---- -- --- ---- -- ------ ------<br>--- ----- -- ----,65640,65639.39999997616,65599.902,65608.69999992847,65616.568,65649.966,,31,close
screen,html.Screen,2_1_0_1_32,2022-03-19T22:17:25.704Z,,,,,,,,,,,,,,,,,53,,,,,,,,,,,,,19.933999976157793,,response,,,99,,,,Space,keypress(Space),,,,,,,,---- -- ----- -- ------ - ------- --- ----------<br>------------- ------ ------ ---- ---- ------- ----- -- ----<br>-------- ------- -- ---------- --- - --- ----- ----- ----<br>---- --- --- ----- you ---- ---- ------- ----- ---- -------<br>--- --- -- ----- -- --- ---- -- --- ---- -- ------ ------<br>--- ----- -- ----,65670.59999990463,65669.89999997616,65633.258,65640.19999992847,65649.966,65683.316,,32,you
screen,html.Screen,2_1_0_1_33,2022-03-19T22:17:25.737Z,,,,,,,,,,,,,,,,,53,,,,,,,,,,,,,19.383999928468256,,response,,,99,,,,Space,keypress(Space),,,,,,,,---- -- ----- -- ------ - ------- --- ----------<br>------------- ------ ------ ---- ---- ------- ----- -- ----<br>-------- ------- -- ---------- --- - --- ----- ----- ----<br>---- --- --- ----- --- feel ---- ------- ----- ---- -------<br>--- --- -- ----- -- --- ---- -- --- ---- -- ------ ------<br>--- ----- -- ----,65703.39999997616,65702.69999992847,65666.561,65670.79999995232,65683.316,65716.683,,33,feel
screen,html.Screen,2_1_0_1_34,2022-03-19T22:17:25.768Z,,,,,,,,,,,,,,,,,53,,,,,,,,,,,,,17.31699999999546,,response,,,99,,,,Space,keypress(Space),,,,,,,,---- -- ----- -- ------ - ------- --- ----------<br>------------- ------ ------ ---- ---- ------- ----- -- ----<br>-------- ------- -- ---------- --- - --- ----- ----- ----<br>---- --- --- ----- --- ---- that ------- ----- ---- -------<br>--- --- -- ----- -- --- ---- -- --- ---- -- ------ ------<br>--- ----- -- ----,65734.5,65734,65699.962,65703.59999990463,65716.683,65750.041,,34,that
screen,html.Screen,2_1_0_1_35,2022-03-19T22:17:25.799Z,,,,,,,,,,,,,,,,,53,,,,,,,,,,,,,14.55899990463513,,response,,,99,,,,Space,keypress(Space),,,,,,,,---- -- ----- -- ------ - ------- --- ----------<br>------------- ------ ------ ---- ---- ------- ----- -- ----<br>-------- ------- -- ---------- --- - --- ----- ----- ----<br>---- --- --- ----- --- ---- ---- matters ----- ---- -------<br>--- --- -- ----- -- --- ---- -- --- ---- -- ------ ------<br>--- ----- -- ----,65765.19999992847,65764.59999990463,65733.284,65734.69999992847,65750.041,65783.397,,35,matters
screen,html.Screen,2_1_0_1_36,2022-03-19T22:17:25.829Z,,,,,,,,,,,,,,,,,53,,,,,,,,,,,,,11.402999952319078,,response,,,99,,,,Space,keypress(Space),,,,,,,,"---- -- ----- -- ------ - ------- --- ----------<br>------------- ------ ------ ---- ---- ------- ----- -- ----<br>-------- ------- -- ---------- --- - --- ----- ----- ----<br>---- --- --- ----- --- ---- ---- ------- most, ---- -------<br>--- --- -- ----- -- --- ---- -- --- ---- -- ------ ------<br>--- ----- -- ----",65795.39999997616,65794.79999995232,65766.679,65765.39999997616,65783.397,65816.76,,36,"most,"
screen,html.Screen,2_1_0_1_37,2022-03-19T22:17:25.860Z,,,,,,,,,,,,,,,,,53,,,,,,,,,,,,,9.240000000005239,,response,,,99,,,,Space,keypress(Space),,,,,,,,---- -- ----- -- ------ - ------- --- ----------<br>------------- ------ ------ ---- ---- ------- ----- -- ----<br>-------- ------- -- ---------- --- - --- ----- ----- ----<br>---- --- --- ----- --- ---- ---- ------- ----- it's -------<br>--- --- -- ----- -- --- ---- -- --- ---- -- ------ ------<br>--- ----- -- ----,65826.69999992847,65826,65799.89,65795.69999992847,65816.76,65850.111,,37,it's
screen,html.Screen,2_1_0_1_38,2022-03-19T22:17:25.907Z,,,,,,,,,,,,,,,,,53,,,,,,,,,,,,,23.18899995231186,,response,,,99,,,,Space,keypress(Space),,,,,,,,---- -- ----- -- ------ - ------- --- ----------<br>------------- ------ ------ ---- ---- ------- ----- -- ----<br>-------- ------- -- ---------- --- - --- ----- ----- ----<br>---- --- --- ----- --- ---- ---- ------- ----- ---- whether<br>--- --- -- ----- -- --- ---- -- --- ---- -- ------ ------<br>--- ----- -- ----,65874,65873.29999995232,65833.415,65826.89999997616,65850.111,65900.144,,38,whether
screen,html.Screen,2_1_0_1_39,2022-03-19T22:17:25.939Z,,,,,,,,,,,,,,,,,53,,,,,,,,,,,,,4.855999999999767,,response,,,99,,,,Space,keypress(Space),,,,,,,,---- -- ----- -- ------ - ------- --- ----------<br>------------- ------ ------ ---- ---- ------- ----- -- ----<br>-------- ------- -- ---------- --- - --- ----- ----- ----<br>---- --- --- ----- --- ---- ---- ------- ----- ---- -------<br>you --- -- ----- -- --- ---- -- --- ---- -- ------ ------<br>--- ----- -- ----,65905.5,65905,65883.449,65874.19999992847,65900.144,65933.528,,39,you
screen,html.Screen,2_1_0_1_40,2022-03-19T22:17:25.971Z,,,,,,,,,,,,,,,,,53,,,,,,,,,,,,,3.27199995231058,,response,,,99,,,,Space,keypress(Space),,,,,,,,---- -- ----- -- ------ - ------- --- ----------<br>------------- ------ ------ ---- ---- ------- ----- -- ----<br>-------- ------- -- ---------- --- - --- ----- ----- ----<br>---- --- --- ----- --- ---- ---- ------- ----- ---- -------<br>--- are -- ----- -- --- ---- -- --- ---- -- ------ ------<br>--- ----- -- ----,65937.29999995232,65936.79999995232,65916.764,65905.69999992847,65933.528,65966.832,,40,are
screen,html.Screen,2_1_0_1_41,2022-03-19T22:17:26.003Z,,,,,,,,,,,,,,,,,53,,,,,,,,,,,,,2.0679999761632644,,response,,,99,,,,Space,keypress(Space),,,,,,,,---- -- ----- -- ------ - ------- --- ----------<br>------------- ------ ------ ---- ---- ------- ----- -- ----<br>-------- ------- -- ---------- --- - --- ----- ----- ----<br>---- --- --- ----- --- ---- ---- ------- ----- ---- -------<br>--- --- as ----- -- --- ---- -- --- ---- -- ------ ------<br>--- ----- -- ----,65969.5,65968.89999997616,65950.175,65937.59999990463,65966.832,66000.197,,41,as
screen,html.Screen,2_1_0_1_42,2022-03-19T22:17:26.035Z,,,,,,,,,,,,,,,,,53,,,,,,,,,,,,,0.5029999284743099,,response,,,99,,,,Space,keypress(Space),,,,,,,,---- -- ----- -- ------ - ------- --- ----------<br>------------- ------ ------ ---- ---- ------- ----- -- ----<br>-------- ------- -- ---------- --- - --- ----- ----- ----<br>---- --- --- ----- --- ---- ---- ------- ----- ---- -------<br>--- --- -- close -- --- ---- -- --- ---- -- ------ ------<br>--- ----- -- ----,66001.29999995232,66000.69999992847,65983.552,65969.69999992847,66000.197,66033.595,,42,close
screen,html.Screen,2_1_0_1_43,2022-03-19T22:17:26.067Z,,,,,,,,,,,,,,,,,53,,,,,,,,,,,,,15.65899999999965,,response,,,99,,,,Space,keypress(Space),,,,,,,,---- -- ----- -- ------ - ------- --- ----------<br>------------- ------ ------ ---- ---- ------- ----- -- ----<br>-------- ------- -- ---------- --- - --- ----- ----- ----<br>---- --- --- ----- --- ---- ---- ------- ----- ---- -------<br>--- --- -- ----- as --- ---- -- --- ---- -- ------ ------<br>--- ----- -- ----,66033.19999992847,66032.5,66016.841,66001.39999997616,,66050.23,,43,as
screen,html.Screen,2_1_0_1_44,2022-03-19T22:17:26.098Z,,,,,,,,,,,,,,,,,53,,,,,,,,,,,,,13.9699999284785,,response,,,99,,,,Space,keypress(Space),,,,,,,,---- -- ----- -- ------ - ------- --- ----------<br>------------- ------ ------ ---- ---- ------- ----- -- ----<br>-------- ------- -- ---------- --- - --- ----- ----- ----<br>---- --- --- ----- --- ---- ---- ------- ----- ---- -------<br>--- --- -- ----- -- you ---- -- --- ---- -- ------ ------<br>--- ----- -- ----,66064.79999995232,66064.19999992847,66033.595,66033.39999997616,66050.23,66083.596,,44,you
screen,html.Screen,2_1_0_1_45,2022-03-19T22:17:26.129Z,,,,,,,,,,,,,,,,,53,,,,,,,,,,,,,11.003999904627563,,response,,,99,,,,Space,keypress(Space),,,,,,,,---- -- ----- -- ------ - ------- --- ----------<br>------------- ------ ------ ---- ---- ------- ----- -- ----<br>-------- ------- -- ---------- --- - --- ----- ----- ----<br>---- --- --- ----- --- ---- ---- ------- ----- ---- -------<br>--- --- -- ----- -- --- want -- --- ---- -- ------ ------<br>--- ----- -- ----,66095.39999997616,66094.59999990463,66066.886,66065,66083.596,66117.008,,45,want
screen,html.Screen,2_1_0_1_46,2022-03-19T22:17:26.161Z,,,,,,,,,,,,,,,,,53,,,,,,,,,,,,,9.49199999999837,,response,,,99,,,,Space,keypress(Space),,,,,,,,---- -- ----- -- ------ - ------- --- ----------<br>------------- ------ ------ ---- ---- ------- ----- -- ----<br>-------- ------- -- ---------- --- - --- ----- ----- ----<br>---- --- --- ----- --- ---- ---- ------- ----- ---- -------<br>--- --- -- ----- -- --- ---- to --- ---- -- ------ ------<br>--- ----- -- ----,66127.19999992847,66126.5,66100.246,66095.5,66117.008,66150.348,,46,to
screen,html.Screen,2_1_0_1_47,2022-03-19T22:17:26.192Z,,,,,,,,,,,,,,,,,53,,,,,,,,,,,,,7.851999928476289,,response,,,99,,,,Space,keypress(Space),,,,,,,,"---- -- ----- -- ------ - ------- --- ----------<br>------------- ------ ------ ---- ---- ------- ----- -- ----<br>-------- ------- -- ---------- --- - --- ----- ----- ----<br>---- --- --- ----- --- ---- ---- ------- ----- ---- -------<br>--- --- -- ----- -- --- ---- -- be, ---- -- ------ ------<br>--- ----- -- ----",66158.89999997616,66158.19999992847,66133.643,66127.39999997616,66150.348,66183.726,,47,"be,"
screen,html.Screen,2_1_0_1_48,2022-03-19T22:17:26.225Z,,,,,,,,,,,,,,,,,53,,,,,,,,,,,,,6.774000000004889,,response,,,99,,,,Space,keypress(Space),,,,,,,,---- -- ----- -- ------ - ------- --- ----------<br>------------- ------ ------ ---- ---- ------- ----- -- ----<br>-------- ------- -- ---------- --- - --- ----- ----- ----<br>---- --- --- ----- --- ---- ---- ------- ----- ---- -------<br>--- --- -- ----- -- --- ---- -- --- even -- ------ ------<br>--- ----- -- ----,66191.09999990463,66190.5,66166.963,66159.09999990463,66183.726,66217.026,,48,even
screen,html.Screen,2_1_0_1_49,2022-03-19T22:17:26.257Z,,,,,,,,,,,,,,,,,53,,,,,,,,,,,,,5.573999904634547,,response,,,99,,,,Space,keypress(Space),,,,,,,,---- -- ----- -- ------ - ------- --- ----------<br>------------- ------ ------ ---- ---- ------- ----- -- ----<br>-------- ------- -- ---------- --- - --- ----- ----- ----<br>---- --- --- ----- --- ---- ---- ------- ----- ---- -------<br>--- --- -- ----- -- --- ---- -- --- ---- if ------ ------<br>--- ----- -- ----,66223.29999995232,66222.59999990463,66200.321,66191.39999997616,66217.026,66250.438,,49,if
screen,html.Screen,2_1_0_1_50,2022-03-19T22:17:26.303Z,,,,,,,,,,,,,,,,,53,,,,,,,,,,,,,18.36199995232164,,response,,,99,,,,Space,keypress(Space),,,,,,,,---- -- ----- -- ------ - ------- --- ----------<br>------------- ------ ------ ---- ---- ------- ----- -- ----<br>-------- ------- -- ---------- --- - --- ----- ----- ----<br>---- --- --- ----- --- ---- ---- ------- ----- ---- -------<br>--- --- -- ----- -- --- ---- -- --- ---- -- that's ------<br>--- ----- -- ----,66269.5,66268.79999995232,66233.738,66223.5,66250.438,66300.483,,50,that's
screen,html.Screen,2_1_0_1_51,2022-03-19T22:17:26.334Z,,,,,,,,,,,,,,,,,53,,,,,,,,,,,,,16.515999952316633,,response,,,99,,,,Space,keypress(Space),,,,,,,,---- -- ----- -- ------ - ------- --- ----------<br>------------- ------ ------ ---- ---- ------- ----- -- ----<br>-------- ------- -- ---------- --- - --- ----- ----- ----<br>---- --- --- ----- --- ---- ---- ------- ----- ---- -------<br>--- --- -- ----- -- --- ---- -- --- ---- -- ------ really<br>--- ----- -- ----,66300.79999995232,66300.29999995232,66283.784,66269.69999992847,,66317.173,,51,really
screen,html.Screen,2_1_0_1_52,2022-03-19T22:17:26.366Z,,,,,,,,,,,,,,,,,53,,,,,,,,,,,,,14.926999904637341,,response,,,99,,,,Space,keypress(Space),,,,,,,,---- -- ----- -- ------ - ------- --- ----------<br>------------- ------ ------ ---- ---- ------- ----- -- ----<br>-------- ------- -- ---------- --- - --- ----- ----- ----<br>---- --- --- ----- --- ---- ---- ------- ----- ---- -------<br>--- --- -- ----- -- --- ---- -- --- ---- -- ------ ------<br>not ----- -- ----,66332.79999995232,66332.09999990463,66300.483,66300.89999997616,66317.173,66350.522,,52,not
screen,html.Screen,2_1_0_1_53,2022-03-19T22:17:26.397Z,,,,,,,,,,,,,,,,,53,,,,,,,,,,,,,12.67799992847722,,response,,,99,,,,Space,keypress(Space),,,,,,,,---- -- ----- -- ------ - ------- --- ----------<br>------------- ------ ------ ---- ---- ------- ----- -- ----<br>-------- ------- -- ---------- --- - --- ----- ----- ----<br>---- --- --- ----- --- ---- ---- ------- ----- ---- -------<br>--- --- -- ----- -- --- ---- -- --- ---- -- ------ ------<br>--- close -- ----,66363.79999995232,66363.19999992847,66333.809,66333,66350.522,66383.889,,53,close
screen,html.Screen,2_1_0_1_54,2022-03-19T22:17:26.430Z,,,,,,,,,,,,,,,,,53,,,,,,,,,,,,,11.81099992847885,,response,,,99,,,,Space,keypress(Space),,,,,,,,---- -- ----- -- ------ - ------- --- ----------<br>------------- ------ ------ ---- ---- ------- ----- -- ----<br>-------- ------- -- ---------- --- - --- ----- ----- ----<br>---- --- --- ----- --- ---- ---- ------- ----- ---- -------<br>--- --- -- ----- -- --- ---- -- --- ---- -- ------ ------<br>--- ----- at ----,66396.29999995232,66395.69999992847,66367.179,66364.09999990463,66383.889,66417.245,,54,at
screen,html.Screen,2_1_0_1_55,2022-03-19T22:17:26.461Z,,,,,,,,,,,,,,,,,53,,,,,,,,,,,,,9.654999976162799,,response,,,99,,,,Space,keypress(Space),,,,,,,,---- -- ----- -- ------ - ------- --- ----------<br>------------- ------ ------ ---- ---- ------- ----- -- ----<br>-------- ------- -- ---------- --- - --- ----- ----- ----<br>---- --- --- ----- --- ---- ---- ------- ----- ---- -------<br>--- --- -- ----- -- --- ---- -- --- ---- -- ------ ------<br>--- ----- -- all.,66427.5,66426.89999997616,66400.535,66396.59999990463,66417.245,66450.529,,55,all.
Item 99,flow.Loop,2_1_0_1,2022-03-19T22:17:26.462Z,,,,,,,,,,,,,,,,,,,,,,,,,,,,,,4213.027999976155,,completion,,,,D,,,,,,,,silence,,,,,66428,66426.89999997616,62197.135,62198.09999990463,62213.872,66450.529,,,
Question 1,html.Screen,2_1_0_2,2022-03-19T22:17:27.426Z,,,,,,,,,,,,,,,,,,,,,,,,,,,,false,FALSE,941.2709999523213,,response,,,99,D,,,TRUE,click #choice-1,,,,silence,,,,,67392.79999995232,67391.79999995232,66433.898,66428.19999992847,66450.529,67401.284,,,
Question 2,html.Screen,2_1_0_3,2022-03-19T22:17:27.818Z,,,,,,,,,,,,,,,,,,,,,,,,,,,,false,TRUE,382.51599995231663,,response,,,99,D,,,FALSE,click #choice-2,,,,silence,,,,,67784.39999997616,67783.79999995232,67384.651,67392.89999997616,67401.284,67784.96,,,
Item 99,flow.Sequence,2_1_0,2022-03-19T22:17:27.818Z,,,,,,,,,,,,,,,,,,,,,,,,,,,,,,15578.123999952317,,completion,,,,,,,,,,,,,,,,,67784.69999992847,67783.79999995232,52189.054,52201.699999928474,52205.676,67784.96,,,
Holding screen,html.Screen,2_1_1_0,2022-03-19T22:17:37.811Z,,,,,,,,,,,,,,,,,,,,,,,,,,,,,,10008.009999999995,,timeout,,,,,,,,,,,,,,,,,77777.09999990463,77776.374,67768.302,67785.69999992847,67784.96,77792.97,,,
screen,html.Screen,2_1_1_1_0,2022-03-19T22:17:38.308Z,,,,,,,,,,,,,,,,,54,,,,,,,,,,,,,480.52999999999884,,response,,,100,,,,Space,keypress(Space),,,,,,,,At --- ---- --- ------ ----- ------- ---- -- --- ------- --<br>------- ---------- ------ -- ----- -- ----- -- ---- ------<br>--- ----- --- --- ------ -------- ----- --- ------ ----- --<br>----- ----- ---------- --- --- ------ ------ ---- -- ------<br>------- --- ------ ----- --- ---- ------- -- ---- --- --<br>------- ------,78274.19999992847,78273.5,77776.374,77777.29999995232,77792.97,78276.778,,0,At
screen,html.Screen,2_1_1_1_1,2022-03-19T22:17:38.813Z,,,,,,,,,,,,,,,,,54,,,,,,,,,,,,,501.82199990462686,,response,,,100,,,,Space,keypress(Space),,,,,,,,-- the ---- --- ------ ----- ------- ---- -- --- ------- --<br>------- ---------- ------ -- ----- -- ----- -- ---- ------<br>--- ----- --- --- ------ -------- ----- --- ------ ----- --<br>----- ----- ---------- --- --- ------ ------ ---- -- ------<br>------- --- ------ ----- --- ---- ------- -- ---- --- --<br>------- ------,78779.29999995232,78778.59999990463,78260.1,78274.39999997616,78276.778,78793.848,,1,the
screen,html.Screen,2_1_1_1_2,2022-03-19T22:17:38.844Z,,,,,,,,,,,,,,,,,54,,,,,,,,,,,,,16.152000000001863,,response,,,100,,,,Space,keypress(Space),,,,,,,,-- --- time --- ------ ----- ------- ---- -- --- ------- --<br>------- ---------- ------ -- ----- -- ----- -- ---- ------<br>--- ----- --- --- ------ -------- ----- --- ------ ----- --<br>----- ----- ---------- --- --- ------ ------ ---- -- ------<br>------- --- ------ ----- --- ---- ------- -- ---- --- --<br>------- ------,78810.59999990463,78810,78777.184,78779.5,78793.848,78827.262,,2,time
screen,html.Screen,2_1_1_1_3,2022-03-19T22:17:38.876Z,,,,,,,,,,,,,,,,,54,,,,,,,,,,,,,15.137999976155697,,response,,,100,,,,Space,keypress(Space),,,,,,,,-- --- ---- the ------ ----- ------- ---- -- --- ------- --<br>------- ---------- ------ -- ----- -- ----- -- ---- ------<br>--- ----- --- --- ------ -------- ----- --- ------ ----- --<br>----- ----- ---------- --- --- ------ ------ ---- -- ------<br>------- --- ------ ----- --- ---- ------- -- ---- --- --<br>------- ------,78843,78842.39999997616,78810.5,78810.79999995232,78827.262,78860.62,,3,the
screen,html.Screen,2_1_1_1_4,2022-03-19T22:17:38.908Z,,,,,,,,,,,,,,,,,54,,,,,,,,,,,,,13.279999976162799,,response,,,100,,,,Space,keypress(Space),,,,,,,,-- --- ---- --- French ----- ------- ---- -- --- ------- --<br>------- ---------- ------ -- ----- -- ----- -- ---- ------<br>--- ----- --- --- ------ -------- ----- --- ------ ----- --<br>----- ----- ---------- --- --- ------ ------ ---- -- ------<br>------- --- ------ ----- --- ---- ------- -- ---- --- --<br>------- ------,78874.5,78873.89999997616,78843.864,78843.09999990463,78860.62,78893.986,,4,French
screen,html.Screen,2_1_1_1_5,2022-03-19T22:17:38.940Z,,,,,,,,,,,,,,,,,54,,,,,,,,,,,,,12.213999928470002,,response,,,100,,,,Space,keypress(Space),,,,,,,,-- --- ---- --- ------ crown ------- ---- -- --- ------- --<br>------- ---------- ------ -- ----- -- ----- -- ---- ------<br>--- ----- --- --- ------ -------- ----- --- ------ ----- --<br>----- ----- ---------- --- --- ------ ------ ---- -- ------<br>------- --- ------ ----- --- ---- ------- -- ---- --- --<br>------- ------,78906.69999992847,78906.19999992847,78877.278,78874.59999990463,78893.986,78927.34,,5,crown
screen,html.Screen,2_1_1_1_6,2022-03-19T22:17:38.971Z,,,,,,,,,,,,,,,,,54,,,,,,,,,,,,,9.75999990463606,,response,,,100,,,,Space,keypress(Space),,,,,,,,-- --- ---- --- ------ ----- secured ---- -- --- ------- --<br>------- ---------- ------ -- ----- -- ----- -- ---- ------<br>--- ----- --- --- ------ -------- ----- --- ------ ----- --<br>----- ----- ---------- --- --- ------ ------ ---- -- ------<br>------- --- ------ ----- --- ---- ------- -- ---- --- --<br>------- ------,78937.69999992847,78937.09999990463,78910.628,78907,78927.34,78960.704,,6,secured
screen,html.Screen,2_1_1_1_7,2022-03-19T22:17:39.019Z,,,,,,,,,,,,,,,,,54,,,,,,,,,,,,,24.195999976160238,,response,,,100,,,,Space,keypress(Space),,,,,,,,-- --- ---- --- ------ ----- ------- much -- --- ------- --<br>------- ---------- ------ -- ----- -- ----- -- ---- ------<br>--- ----- --- --- ------ -------- ----- --- ------ ----- --<br>----- ----- ---------- --- --- ------ ------ ---- -- ------<br>------- --- ------ ----- --- ---- ------- -- ---- --- --<br>------- ------,78985.5,78984.89999997616,78943.987,78937.89999997616,78960.704,78993.996,,7,much
screen,html.Screen,2_1_1_1_8,2022-03-19T22:17:39.050Z,,,,,,,,,,,,,,,,,54,,,,,,,,,,,,,22.004000000000815,,response,,,100,,,,Space,keypress(Space),,,,,,,,-- --- ---- --- ------ ----- ------- ---- of --- ------- --<br>------- ---------- ------ -- ----- -- ----- -- ---- ------<br>--- ----- --- --- ------ -------- ----- --- ------ ----- --<br>----- ----- ---------- --- --- ------ ------ ---- -- ------<br>------- --- ------ ----- --- ---- ------- -- ---- --- --<br>------- ------,79016.59999990463,79016,78977.344,78985.59999990463,78993.996,79027.372,,8,of
screen,html.Screen,2_1_1_1_9,2022-03-19T22:17:39.082Z,,,,,,,,,,,,,,,,,54,,,,,,,,,,,,,20.427999952313257,,response,,,100,,,,Space,keypress(Space),,,,,,,,-- --- ---- --- ------ ----- ------- ---- -- its ------- --<br>------- ---------- ------ -- ----- -- ----- -- ---- ------<br>--- ----- --- --- ------ -------- ----- --- ------ ----- --<br>----- ----- ---------- --- --- ------ ------ ---- -- ------<br>------- --- ------ ----- --- ---- ------- -- ---- --- --<br>------- ------,79048.29999995232,79047.79999995232,79010.706,79016.79999995232,79027.372,79060.784,,9,its
screen,html.Screen,2_1_1_1_10,2022-03-19T22:17:39.113Z,,,,,,,,,,,,,,,,,54,,,,,,,,,,,,,18.315999904632918,,response,,,100,,,,Space,keypress(Space),,,,,,,,-- --- ---- --- ------ ----- ------- ---- -- --- revenue --<br>------- ---------- ------ -- ----- -- ----- -- ---- ------<br>--- ----- --- --- ------ -------- ----- --- ------ ----- --<br>----- ----- ---------- --- --- ------ ------ ---- -- ------<br>------- --- ------ ----- --- ---- ------- -- ---- --- --<br>------- ------,79079.69999992847,79079.09999990463,79044.063,79048.5,79060.784,79094.027,,10,revenue
screen,html.Screen,2_1_1_1_11,2022-03-19T22:17:39.145Z,,,,,,,,,,,,,,,,,54,,,,,,,,,,,,,17.27299995231442,,response,,,100,,,,Space,keypress(Space),,,,,,,,-- --- ---- --- ------ ----- ------- ---- -- --- ------- by<br>------- ---------- ------ -- ----- -- ----- -- ---- ------<br>--- ----- --- --- ------ -------- ----- --- ------ ----- --<br>----- ----- ---------- --- --- ------ ------ ---- -- ------<br>------- --- ------ ----- --- ---- ------- -- ---- --- --<br>------- ------,79111.79999995232,79111.29999995232,79077.379,79079.89999997616,79094.027,79127.466,,11,by
screen,html.Screen,2_1_1_1_12,2022-03-19T22:17:39.177Z,,,,,,,,,,,,,,,,,54,,,,,,,,,,,,,15.63399990463222,,response,,,100,,,,Space,keypress(Space),,,,,,,,-- --- ---- --- ------ ----- ------- ---- -- --- ------- --<br>issuing ---------- ------ -- ----- -- ----- -- ---- ------<br>--- ----- --- --- ------ -------- ----- --- ------ ----- --<br>----- ----- ---------- --- --- ------ ------ ---- -- ------<br>------- --- ------ ----- --- ---- ------- -- ---- --- --<br>------- ------,79143.69999992847,79143.09999990463,79110.745,79111.89999997616,79127.466,79160.864,,12,issuing
screen,html.Screen,2_1_1_1_13,2022-03-19T22:17:39.208Z,,,,,,,,,,,,,,,,,54,,,,,,,,,,,,,13.035999976156745,,response,,,100,,,,Space,keypress(Space),,,,,,,,-- --- ---- --- ------ ----- ------- ---- -- --- ------- --<br>------- government ------ -- ----- -- ----- -- ---- ------<br>--- ----- --- --- ------ -------- ----- --- ------ ----- --<br>----- ----- ---------- --- --- ------ ------ ---- -- ------<br>------- --- ------ ----- --- ---- ------- -- ---- --- --<br>------- ------,79174.5,79173.89999997616,79144.14,79143.79999995232,79160.864,79194.233,,13,government
screen,html.Screen,2_1_1_1_14,2022-03-19T22:17:39.240Z,,,,,,,,,,,,,,,,,54,,,,,,,,,,,,,11.566999952323386,,response,,,100,,,,Space,keypress(Space),,,,,,,,-- --- ---- --- ------ ----- ------- ---- -- --- ------- --<br>------- ---------- bonds. -- ----- -- ----- -- ---- ------<br>--- ----- --- --- ------ -------- ----- --- ------ ----- --<br>----- ----- ---------- --- --- ------ ------ ---- -- ------<br>------- --- ------ ----- --- ---- ------- -- ---- --- --<br>------- ------,79206.39999997616,79205.79999995232,79177.46,79174.69999992847,79194.233,79227.574,,14,bonds.
screen,html.Screen,2_1_1_1_15,2022-03-19T22:17:39.272Z,,,,,,,,,,,,,,,,,54,,,,,,,,,,,,,10.125999928481178,,response,,,100,,,,Space,keypress(Space),,,,,,,,-- --- ---- --- ------ ----- ------- ---- -- --- ------- --<br>------- ---------- ------ In ----- -- ----- -- ---- ------<br>--- ----- --- --- ------ -------- ----- --- ------ ----- --<br>----- ----- ---------- --- --- ------ ------ ---- -- ------<br>------- --- ------ ----- --- ---- ------- -- ---- --- --<br>------- ------,79238.19999992847,79237.69999992847,79210.867,79206.69999992847,79227.574,79260.948,,15,In
screen,html.Screen,2_1_1_1_16,2022-03-19T22:17:39.303Z,,,,,,,,,,,,,,,,,54,,,,,,,,,,,,,8.15199990462861,,response,,,100,,,,Space,keypress(Space),,,,,,,,"-- --- ---- --- ------ ----- ------- ---- -- --- ------- --<br>------- ---------- ------ -- 1727, -- ----- -- ---- ------<br>--- ----- --- --- ------ -------- ----- --- ------ ----- --<br>----- ----- ---------- --- --- ------ ------ ---- -- ------<br>------- --- ------ ----- --- ---- ------- -- ---- --- --<br>------- ------",79269.59999990463,79269.09999990463,79244.223,79238.39999997616,79260.948,79294.308,,16,"1727,"
screen,html.Screen,2_1_1_1_17,2022-03-19T22:17:39.335Z,,,,,,,,,,,,,,,,,54,,,,,,,,,,,,,6.69199999999546,,response,,,100,,,,Space,keypress(Space),,,,,,,,-- --- ---- --- ------ ----- ------- ---- -- --- ------- --<br>------- ---------- ------ -- ----- in ----- -- ---- ------<br>--- ----- --- --- ------ -------- ----- --- ------ ----- --<br>----- ----- ---------- --- --- ------ ------ ---- -- ------<br>------- --- ------ ----- --- ---- ------- -- ---- --- --<br>------- ------,79301.59999990463,79301,79277.551,79269.89999997616,79294.308,79327.626,,17,in
screen,html.Screen,2_1_1_1_18,2022-03-19T22:17:39.382Z,,,,,,,,,,,,,,,,,54,,,,,,,,,,,,,20.673999952312442,,response,,,100,,,,Space,keypress(Space),,,,,,,,-- --- ---- --- ------ ----- ------- ---- -- --- ------- --<br>------- ---------- ------ -- ----- -- order -- ---- ------<br>--- ----- --- --- ------ -------- ----- --- ------ ----- --<br>----- ----- ---------- --- --- ------ ------ ---- -- ------<br>------- --- ------ ----- --- ---- ------- -- ---- --- --<br>------- ------,79348.79999995232,79348.29999995232,79310.948,79301.79999995232,79327.626,79361.03,,18,order
screen,html.Screen,2_1_1_1_19,2022-03-19T22:17:39.414Z,,,,,,,,,,,,,,,,,54,,,,,,,,,,,,,18.569999904633733,,response,,,100,,,,Space,keypress(Space),,,,,,,,-- --- ---- --- ------ ----- ------- ---- -- --- ------- --<br>------- ---------- ------ -- ----- -- ----- to ---- ------<br>--- ----- --- --- ------ -------- ----- --- ------ ----- --<br>----- ----- ---------- --- --- ------ ------ ---- -- ------<br>------- --- ------ ----- --- ---- ------- -- ---- --- --<br>------- ------,79380.19999992847,79379.59999990463,79344.307,79349,79361.03,79394.386,,19,to
screen,html.Screen,2_1_1_1_20,2022-03-19T22:17:39.446Z,,,,,,,,,,,,,,,,,54,,,,,,,,,,,,,17.313999928475823,,response,,,100,,,,Space,keypress(Space),,,,,,,,-- --- ---- --- ------ ----- ------- ---- -- --- ------- --<br>------- ---------- ------ -- ----- -- ----- -- save ------<br>--- ----- --- --- ------ -------- ----- --- ------ ----- --<br>----- ----- ---------- --- --- ------ ------ ---- -- ------<br>------- --- ------ ----- --- ---- ------- -- ---- --- --<br>------- ------,79412.29999995232,79411.69999992847,79377.624,79380.39999997616,79394.386,79427.71,,20,save
screen,html.Screen,2_1_1_1_21,2022-03-19T22:17:39.476Z,,,,,,,,,,,,,,,,,54,,,,,,,,,,,,,14.589999952309881,,response,,,100,,,,Space,keypress(Space),,,,,,,,"-- --- ---- --- ------ ----- ------- ---- -- --- ------- --<br>------- ---------- ------ -- ----- -- ----- -- ---- money,<br>--- ----- --- --- ------ -------- ----- --- ------ ----- --<br>----- ----- ---------- --- --- ------ ------ ---- -- ------<br>------- --- ------ ----- --- ---- ------- -- ---- --- --<br>------- ------",79442.89999997616,79442.29999995232,79411.03,79412.5,79427.71,79461.101,,21,"money,"
screen,html.Screen,2_1_1_1_22,2022-03-19T22:17:39.508Z,,,,,,,,,,,,,,,,,54,,,,,,,,,,,,,12.998999904637458,,response,,,100,,,,Space,keypress(Space),,,,,,,,-- --- ---- --- ------ ----- ------- ---- -- --- ------- --<br>------- ---------- ------ -- ----- -- ----- -- ---- ------<br>the ----- --- --- ------ -------- ----- --- ------ ----- --<br>----- ----- ---------- --- --- ------ ------ ---- -- ------<br>------- --- ------ ----- --- ---- ------- -- ---- --- --<br>------- ------,79474.79999995232,79474.09999990463,79444.387,79443.09999990463,79461.101,79494.459,,22,the
screen,html.Screen,2_1_1_1_23,2022-03-19T22:17:39.539Z,,,,,,,,,,,,,,,,,54,,,,,,,,,,,,,10.440999976155581,,response,,,100,,,,Space,keypress(Space),,,,,,,,-- --- ---- --- ------ ----- ------- ---- -- --- ------- --<br>------- ---------- ------ -- ----- -- ----- -- ---- ------<br>--- state --- --- ------ -------- ----- --- ------ ----- --<br>----- ----- ---------- --- --- ------ ------ ---- -- ------<br>------- --- ------ ----- --- ---- ------- -- ---- --- --<br>------- ------,79505.5,79504.89999997616,79477.705,79475,79494.459,79527.838,,23,state
screen,html.Screen,2_1_1_1_24,2022-03-19T22:17:39.571Z,,,,,,,,,,,,,,,,,54,,,,,,,,,,,,,8.86199992847105,,response,,,100,,,,Space,keypress(Space),,,,,,,,-- --- ---- --- ------ ----- ------- ---- -- --- ------- --<br>------- ---------- ------ -- ----- -- ----- -- ---- ------<br>--- ----- cut --- ------ -------- ----- --- ------ ----- --<br>----- ----- ---------- --- --- ------ ------ ---- -- ------<br>------- --- ------ ----- --- ---- ------- -- ---- --- --<br>------- ------,79537.19999992847,79536.69999992847,79511.105,79505.59999990463,79527.838,79561.176,,24,cut
screen,html.Screen,2_1_1_1_25,2022-03-19T22:17:39.601Z,,,,,,,,,,,,,,,,,54,,,,,,,,,,,,,5.523999928467674,,response,,,100,,,,Space,keypress(Space),,,,,,,,-- --- ---- --- ------ ----- ------- ---- -- --- ------- --<br>------- ---------- ------ -- ----- -- ----- -- ---- ------<br>--- ----- --- the ------ -------- ----- --- ------ ----- --<br>----- ----- ---------- --- --- ------ ------ ---- -- ------<br>------- --- ------ ----- --- ---- ------- -- ---- --- --<br>------- ------,79567.29999995232,79566.69999992847,79544.476,79537.39999997616,79561.176,79594.564,,25,the
screen,html.Screen,2_1_1_1_26,2022-03-19T22:17:39.633Z,,,,,,,,,,,,,,,,,54,,,,,,,,,,,,,4.235999952317798,,response,,,100,,,,Space,keypress(Space),,,,,,,,-- --- ---- --- ------ ----- ------- ---- -- --- ------- --<br>------- ---------- ------ -- ----- -- ----- -- ---- ------<br>--- ----- --- --- bonds' -------- ----- --- ------ ----- --<br>----- ----- ---------- --- --- ------ ------ ---- -- ------<br>------- --- ------ ----- --- ---- ------- -- ---- --- --<br>------- ------,79599.39999997616,79598.79999995232,79577.84,79567.5,79594.564,79627.922,,26,bonds'
screen,html.Screen,2_1_1_1_27,2022-03-19T22:17:39.664Z,,,,,,,,,,,,,,,,,54,,,,,,,,,,,,,2.377999952310347,,response,,,100,,,,Space,keypress(Space),,,,,,,,-- --- ---- --- ------ ----- ------- ---- -- --- ------- --<br>------- ---------- ------ -- ----- -- ----- -- ---- ------<br>--- ----- --- --- ------ interest ----- --- ------ ----- --<br>----- ----- ---------- --- --- ------ ------ ---- -- ------<br>------- --- ------ ----- --- ---- ------- -- ---- --- --<br>------- ------,79630.89999997616,79630.29999995232,79611.19,79599.59999990463,79627.922,79661.268,,27,interest
screen,html.Screen,2_1_1_1_28,2022-03-19T22:17:39.712Z,,,,,,,,,,,,,,,,,54,,,,,,,,,,,,,16.431999928478035,,response,,,100,,,,Space,keypress(Space),,,,,,,,-- --- ---- --- ------ ----- ------- ---- -- --- ------- --<br>------- ---------- ------ -- ----- -- ----- -- ---- ------<br>--- ----- --- --- ------ -------- rate. --- ------ ----- --<br>----- ----- ---------- --- --- ------ ------ ---- -- ------<br>------- --- ------ ----- --- ---- ------- -- ---- --- --<br>------- ------,79678.39999997616,79677.69999992847,79644.561,79631.09999990463,79661.268,79694.564,,28,rate.
screen,html.Screen,2_1_1_1_29,2022-03-19T22:17:39.743Z,,,,,,,,,,,,,,,,,54,,,,,,,,,,,,,14.235999952317798,,response,,,100,,,,Space,keypress(Space),,,,,,,,-- --- ---- --- ------ ----- ------- ---- -- --- ------- --<br>------- ---------- ------ -- ----- -- ----- -- ---- ------<br>--- ----- --- --- ------ -------- ----- The ------ ----- --<br>----- ----- ---------- --- --- ------ ------ ---- -- ------<br>------- --- ------ ----- --- ---- ------- -- ---- --- --<br>------- ------,79709.39999997616,79708.79999995232,79677.915,79678.59999990463,79694.564,79727.991,,29,The
screen,html.Screen,2_1_1_1_30,2022-03-19T22:17:39.774Z,,,,,,,,,,,,,,,,,54,,,,,,,,,,,,,12.009000000005472,,response,,,100,,,,Space,keypress(Space),,,,,,,,-- --- ---- --- ------ ----- ------- ---- -- --- ------- --<br>------- ---------- ------ -- ----- -- ----- -- ---- ------<br>--- ----- --- --- ------ -------- ----- --- market ----- --<br>----- ----- ---------- --- --- ------ ------ ---- -- ------<br>------- --- ------ ----- --- ---- ------- -- ---- --- --<br>------- ------,79740.59999990463,79740,79711.276,79709.59999990463,79727.991,79761.359,,30,market
screen,html.Screen,2_1_1_1_31,2022-03-19T22:17:39.805Z,,,,,,,,,,,,,,,,,54,,,,,,,,,,,,,9.540999976161402,,response,,,100,,,,Space,keypress(Space),,,,,,,,-- --- ---- --- ------ ----- ------- ---- -- --- ------- --<br>------- ---------- ------ -- ----- -- ----- -- ---- ------<br>--- ----- --- --- ------ -------- ----- --- ------ value --<br>----- ----- ---------- --- --- ------ ------ ---- -- ------<br>------- --- ------ ----- --- ---- ------- -- ---- --- --<br>------- ------,79771.59999990463,79770.89999997616,79744.631,79740.79999995232,79761.359,79794.713,,31,value
screen,html.Screen,2_1_1_1_32,2022-03-19T22:17:39.836Z,,,,,,,,,,,,,,,,,54,,,,,,,,,,,,,7.586999952312908,,response,,,100,,,,Space,keypress(Space),,,,,,,,-- --- ---- --- ------ ----- ------- ---- -- --- ------- --<br>------- ---------- ------ -- ----- -- ----- -- ---- ------<br>--- ----- --- --- ------ -------- ----- --- ------ ----- of<br>----- ----- ---------- --- --- ------ ------ ---- -- ------<br>------- --- ------ ----- --- ---- ------- -- ---- --- --<br>------- ------,79803,79802.29999995232,79777.94,79771.69999992847,79794.713,79828.079,,32,of
screen,html.Screen,2_1_1_1_33,2022-03-19T22:17:39.869Z,,,,,,,,,,,,,,,,,54,,,,,,,,,,,,,5.620999928476522,,response,,,100,,,,Space,keypress(Space),,,,,,,,-- --- ---- --- ------ ----- ------- ---- -- --- ------- --<br>------- ---------- ------ -- ----- -- ----- -- ---- ------<br>--- ----- --- --- ------ -------- ----- --- ------ ----- --<br>these ----- ---------- --- --- ------ ------ ---- -- ------<br>------- --- ------ ----- --- ---- ------- -- ---- --- --<br>------- ------,79835.69999992847,79833.69999992847,79811.365,79803.09999990463,79828.079,79861.448,,33,these
screen,html.Screen,2_1_1_1_34,2022-03-19T22:17:39.899Z,,,,,,,,,,,,,,,,,54,,,,,,,,,,,,,3.551999999996042,,response,,,100,,,,Space,keypress(Space),,,,,,,,-- --- ---- --- ------ ----- ------- ---- -- --- ------- --<br>------- ---------- ------ -- ----- -- ----- -- ---- ------<br>--- ----- --- --- ------ -------- ----- --- ------ ----- --<br>----- bonds ---------- --- --- ------ ------ ---- -- ------<br>------- --- ------ ----- --- ---- ------- -- ---- --- --<br>------- ------,79865.59999990463,79865,79844.722,79835.89999997616,79861.448,79894.689,,34,bonds
screen,html.Screen,2_1_1_1_35,2022-03-19T22:17:39.931Z,,,,,,,,,,,,,,,,,54,,,,,,,,,,,,,2.3110000000015134,,response,,,100,,,,Space,keypress(Space),,,,,,,,"-- --- ---- --- ------ ----- ------- ---- -- --- ------- --<br>------- ---------- ------ -- ----- -- ----- -- ---- ------<br>--- ----- --- --- ------ -------- ----- --- ------ ----- --<br>----- ----- plummeted, --- --- ------ ------ ---- -- ------<br>------- --- ------ ----- --- ---- ------- -- ---- --- --<br>------- ------",79897.59999990463,79897,79878.02,79865.79999995232,79894.689,79928.16,,35,"plummeted,"
screen,html.Screen,2_1_1_1_36,2022-03-19T22:17:39.963Z,,,,,,,,,,,,,,,,,54,,,,,,,,,,,,,0.6399999523127917,,response,,,100,,,,Space,keypress(Space),,,,,,,,-- --- ---- --- ------ ----- ------- ---- -- --- ------- --<br>------- ---------- ------ -- ----- -- ----- -- ---- ------<br>--- ----- --- --- ------ -------- ----- --- ------ ----- --<br>----- ----- ---------- and --- ------ ------ ---- -- ------<br>------- --- ------ ----- --- ---- ------- -- ---- --- --<br>------- ------,79929.29999995232,79928.79999995232,79911.437,79897.79999995232,79928.16,79961.516,,36,and
screen,html.Screen,2_1_1_1_37,2022-03-19T22:17:40.010Z,,,,,,,,,,,,,,,,,54,,,,,,,,,,,,,14.383999976154882,,response,,,100,,,,Space,keypress(Space),,,,,,,,-- --- ---- --- ------ ----- ------- ---- -- --- ------- --<br>------- ---------- ------ -- ----- -- ----- -- ---- ------<br>--- ----- --- --- ------ -------- ----- --- ------ ----- --<br>----- ----- ---------- --- the ------ ------ ---- -- ------<br>------- --- ------ ----- --- ---- ------- -- ---- --- --<br>------- ------,79976.59999990463,79975.89999997616,79944.79,79929.39999997616,79961.516,79994.876,,37,the
screen,html.Screen,2_1_1_1_38,2022-03-19T22:17:40.040Z,,,,,,,,,,,,,,,,,54,,,,,,,,,,,,,10.823999928470585,,response,,,100,,,,Space,keypress(Space),,,,,,,,-- --- ---- --- ------ ----- ------- ---- -- --- ------- --<br>------- ---------- ------ -- ----- -- ----- -- ---- ------<br>--- ----- --- --- ------ -------- ----- --- ------ ----- --<br>----- ----- ---------- --- --- market ------ ---- -- ------<br>------- --- ------ ----- --- ---- ------- -- ---- --- --<br>------- ------,80006.19999992847,80005.69999992847,79978.156,79976.79999995232,79994.876,80028.185,,38,market
screen,html.Screen,2_1_1_1_39,2022-03-19T22:17:40.071Z,,,,,,,,,,,,,,,,,54,,,,,,,,,,,,,8.514999928476755,,response,,,100,,,,Space,keypress(Space),,,,,,,,-- --- ---- --- ------ ----- ------- ---- -- --- ------- --<br>------- ---------- ------ -- ----- -- ----- -- ---- ------<br>--- ----- --- --- ------ -------- ----- --- ------ ----- --<br>----- ----- ---------- --- --- ------ became ---- -- ------<br>------- --- ------ ----- --- ---- ------- -- ---- --- --<br>------- ------,80037.29999995232,80036.69999992847,80011.519,80006.5,80028.185,80061.598,,39,became
screen,html.Screen,2_1_1_1_40,2022-03-19T22:17:40.101Z,,,,,,,,,,,,,,,,,54,,,,,,,,,,,,,5.301999976160005,,response,,,100,,,,Space,keypress(Space),,,,,,,,-- --- ---- --- ------ ----- ------- ---- -- --- ------- --<br>------- ---------- ------ -- ----- -- ----- -- ---- ------<br>--- ----- --- --- ------ -------- ----- --- ------ ----- --<br>----- ----- ---------- --- --- ------ ------ wary -- ------<br>------- --- ------ ----- --- ---- ------- -- ---- --- --<br>------- ------,80067.5,80066.89999997616,80044.837,80037.5,80061.598,80094.954,,40,wary
screen,html.Screen,2_1_1_1_41,2022-03-19T22:17:40.133Z,,,,,,,,,,,,,,,,,54,,,,,,,,,,,,,3.645999904634664,,response,,,100,,,,Space,keypress(Space),,,,,,,,-- --- ---- --- ------ ----- ------- ---- -- --- ------- --<br>------- ---------- ------ -- ----- -- ----- -- ---- ------<br>--- ----- --- --- ------ -------- ----- --- ------ ----- --<br>----- ----- ---------- --- --- ------ ------ ---- of ------<br>------- --- ------ ----- --- ---- ------- -- ---- --- --<br>------- ------,80099.29999995232,80098.59999990463,80078.236,80067.59999990463,80094.954,80128.317,,41,of
screen,html.Screen,2_1_1_1_42,2022-03-19T22:17:40.165Z,,,,,,,,,,,,,,,,,54,,,,,,,,,,,,,2.0829999761626823,,response,,,100,,,,Space,keypress(Space),,,,,,,,-- --- ---- --- ------ ----- ------- ---- -- --- ------- --<br>------- ---------- ------ -- ----- -- ----- -- ---- ------<br>--- ----- --- --- ------ -------- ----- --- ------ ----- --<br>----- ----- ---------- --- --- ------ ------ ---- -- French<br>------- --- ------ ----- --- ---- ------- -- ---- --- --<br>------- ------,80131,80130.39999997616,80111.56,80099.5,80128.317,80161.627,,42,French
screen,html.Screen,2_1_1_1_43,2022-03-19T22:17:40.196Z,,,,,,,,,,,,,,,,,54,,,,,,,,,,,,,0.5729999284812948,,response,,,100,,,,Space,keypress(Space),,,,,,,,-- --- ---- --- ------ ----- ------- ---- -- --- ------- --<br>------- ---------- ------ -- ----- -- ----- -- ---- ------<br>--- ----- --- --- ------ -------- ----- --- ------ ----- --<br>----- ----- ---------- --- --- ------ ------ ---- -- ------<br>credit. --- ------ ----- --- ---- ------- -- ---- --- --<br>------- ------,80162.89999997616,80162.19999992847,80144.975,80131.19999992847,80161.627,80195.037,,43,credit.
screen,html.Screen,2_1_1_1_44,2022-03-19T22:17:40.226Z,,,,,,,,,,,,,,,,,54,,,,,,,,,,,,,13.468999952310696,,response,,,100,,,,Space,keypress(Space),,,,,,,,-- --- ---- --- ------ ----- ------- ---- -- --- ------- --<br>------- ---------- ------ -- ----- -- ----- -- ---- ------<br>--- ----- --- --- ------ -------- ----- --- ------ ----- --<br>----- ----- ---------- --- --- ------ ------ ---- -- ------<br>------- The ------ ----- --- ---- ------- -- ---- --- --<br>------- ------,80192.39999997616,80191.79999995232,80178.331,80163.09999990463,,80211.711,,44,The
screen,html.Screen,2_1_1_1_45,2022-03-19T22:17:40.272Z,,,,,,,,,,,,,,,,,54,,,,,,,,,,,,,26.289000000004307,,response,,,100,,,,Space,keypress(Space),,,,,,,,-- --- ---- --- ------ ----- ------- ---- -- --- ------- --<br>------- ---------- ------ -- ----- -- ----- -- ---- ------<br>--- ----- --- --- ------ -------- ----- --- ------ ----- --<br>----- ----- ---------- --- --- ------ ------ ---- -- ------<br>------- --- French ----- --- ---- ------- -- ---- --- --<br>------- ------,80238.59999990463,80238,80195.037,80192.5,80211.711,80245.065,,45,French
screen,html.Screen,2_1_1_1_46,2022-03-19T22:17:40.304Z,,,,,,,,,,,,,,,,,54,,,,,,,,,,,,,24.834999976155814,,response,,,100,,,,Space,keypress(Space),,,,,,,,-- --- ---- --- ------ ----- ------- ---- -- --- ------- --<br>------- ---------- ------ -- ----- -- ----- -- ---- ------<br>--- ----- --- --- ------ -------- ----- --- ------ ----- --<br>----- ----- ---------- --- --- ------ ------ ---- -- ------<br>------- --- ------ state --- ---- ------- -- ---- --- --<br>------- ------,80270.59999990463,80269.89999997616,80228.313,80238.69999992847,80245.065,80278.337,,46,state
screen,html.Screen,2_1_1_1_47,2022-03-19T22:17:40.336Z,,,,,,,,,,,,,,,,,54,,,,,,,,,,,,,23.46299995231675,,response,,,100,,,,Space,keypress(Space),,,,,,,,-- --- ---- --- ------ ----- ------- ---- -- --- ------- --<br>------- ---------- ------ -- ----- -- ----- -- ---- ------<br>--- ----- --- --- ------ -------- ----- --- ------ ----- --<br>----- ----- ---------- --- --- ------ ------ ---- -- ------<br>------- --- ------ ----- was ---- ------- -- ---- --- --<br>------- ------,80302.5,80301.79999995232,80261.759,80270.69999992847,80278.337,80311.696,,47,was
screen,html.Screen,2_1_1_1_48,2022-03-19T22:17:40.367Z,,,,,,,,,,,,,,,,,54,,,,,,,,,,,,,21.203999976161867,,response,,,100,,,,Space,keypress(Space),,,,,,,,-- --- ---- --- ------ ----- ------- ---- -- --- ------- --<br>------- ---------- ------ -- ----- -- ----- -- ---- ------<br>--- ----- --- --- ------ -------- ----- --- ------ ----- --<br>----- ----- ---------- --- --- ------ ------ ---- -- ------<br>------- --- ------ ----- --- left ------- -- ---- --- --<br>------- ------,80333.59999990463,80332.89999997616,80295.073,80302.69999992847,80311.696,80345.153,,48,left
screen,html.Screen,2_1_1_1_49,2022-03-19T22:17:40.397Z,,,,,,,,,,,,,,,,,54,,,,,,,,,,,,,17.946999904626864,,response,,,100,,,,Space,keypress(Space),,,,,,,,-- --- ---- --- ------ ----- ------- ---- -- --- ------- --<br>------- ---------- ------ -- ----- -- ----- -- ---- ------<br>--- ----- --- --- ------ -------- ----- --- ------ ----- --<br>----- ----- ---------- --- --- ------ ------ ---- -- ------<br>------- --- ------ ----- --- ---- without -- ---- --- --<br>------- ------,80363.79999995232,80363.09999990463,80328.433,80333.69999992847,80345.153,80378.52,,49,without
screen,html.Screen,2_1_1_1_50,2022-03-19T22:17:40.430Z,,,,,,,,,,,,,,,,,54,,,,,,,,,,,,,16.879999976154068,,response,,,100,,,,Space,keypress(Space),,,,,,,,-- --- ---- --- ------ ----- ------- ---- -- --- ------- --<br>------- ---------- ------ -- ----- -- ----- -- ---- ------<br>--- ----- --- --- ------ -------- ----- --- ------ ----- --<br>----- ----- ---------- --- --- ------ ------ ---- -- ------<br>------- --- ------ ----- --- ---- ------- an ---- --- --<br>------- ------,80396.09999990463,80395.39999997616,80361.798,80364,80378.52,80411.837,,50,an
screen,html.Screen,2_1_1_1_51,2022-03-19T22:17:40.460Z,,,,,,,,,,,,,,,,,54,,,,,,,,,,,,,13.96299995231675,,response,,,100,,,,Space,keypress(Space),,,,,,,,-- --- ---- --- ------ ----- ------- ---- -- --- ------- --<br>------- ---------- ------ -- ----- -- ----- -- ---- ------<br>--- ----- --- --- ------ -------- ----- --- ------ ----- --<br>----- ----- ---------- --- --- ------ ------ ---- -- ------<br>------- --- ------ ----- --- ---- ------- -- easy --- --<br>------- ------,80426.29999995232,80425.79999995232,80395.111,80396.19999992847,80411.837,80445.25,,51,easy
screen,html.Screen,2_1_1_1_52,2022-03-19T22:17:40.491Z,,,,,,,,,,,,,,,,,54,,,,,,,,,,,,,11.549999952316284,,response,,,100,,,,Space,keypress(Space),,,,,,,,-- --- ---- --- ------ ----- ------- ---- -- --- ------- --<br>------- ---------- ------ -- ----- -- ----- -- ---- ------<br>--- ----- --- --- ------ -------- ----- --- ------ ----- --<br>----- ----- ---------- --- --- ------ ------ ---- -- ------<br>------- --- ------ ----- --- ---- ------- -- ---- way --<br>------- ------,80457.39999997616,80456.79999995232,80428.471,80426.5,80445.25,80478.597,,52,way
screen,html.Screen,2_1_1_1_53,2022-03-19T22:17:40.537Z,,,,,,,,,,,,,,,,,54,,,,,,,,,,,,,24.403000000005704,,response,,,100,,,,Space,keypress(Space),,,,,,,,-- --- ---- --- ------ ----- ------- ---- -- --- ------- --<br>------- ---------- ------ -- ----- -- ----- -- ---- ------<br>--- ----- --- --- ------ -------- ----- --- ------ ----- --<br>----- ----- ---------- --- --- ------ ------ ---- -- ------<br>------- --- ------ ----- --- ---- ------- -- ---- --- of<br>------- ------,80503.59999990463,80503,80461.88,80457.59999990463,80478.597,80511.901,,53,of
screen,html.Screen,2_1_1_1_54,2022-03-19T22:17:40.569Z,,,,,,,,,,,,,,,,,54,,,,,,,,,,,,,22.798999928476405,,response,,,100,,,,Space,keypress(Space),,,,,,,,-- --- ---- --- ------ ----- ------- ---- -- --- ------- --<br>------- ---------- ------ -- ----- -- ----- -- ---- ------<br>--- ----- --- --- ------ -------- ----- --- ------ ----- --<br>----- ----- ---------- --- --- ------ ------ ---- -- ------<br>------- --- ------ ----- --- ---- ------- -- ---- --- --<br>raising ------,80535.29999995232,80534.69999992847,80495.239,80503.79999995232,80511.901,80545.327,,54,raising
screen,html.Screen,2_1_1_1_55,2022-03-19T22:17:40.599Z,,,,,,,,,,,,,,,,,54,,,,,,,,,,,,,20.07299997615337,,response,,,100,,,,Space,keypress(Space),,,,,,,,-- --- ---- --- ------ ----- ------- ---- -- --- ------- --<br>------- ---------- ------ -- ----- -- ----- -- ---- ------<br>--- ----- --- --- ------ -------- ----- --- ------ ----- --<br>----- ----- ---------- --- --- ------ ------ ---- -- ------<br>------- --- ------ ----- --- ---- ------- -- ---- --- --<br>------- money.,80565.89999997616,80565.39999997616,80528.619,80535.5,80545.327,80578.654,,55,money.
Item 100,flow.Loop,2_1_1_1,2022-03-19T22:17:40.600Z,,,,,,,,,,,,,,,,,,,,,,,,,,,,,,2772.429999976157,,completion,,,,D,,,,,,,,silence,,,,,80566.19999992847,80565.39999997616,77776.374,77777.29999995232,77792.97,80578.654,,,
Question 1,html.Screen,2_1_1_2,2022-03-19T22:17:41.514Z,,,,,,,,,,,,,,,,,,,,,,,,,,,,true,TRUE,901.2459999761631,,response,,,100,D,,,TRUE,click #choice-1,,,,silence,,,,,81480.5,81479.89999997616,80561.959,80566.39999997616,80578.654,81496.041,,,
Question 2,html.Screen,2_1_1_3,2022-03-19T22:17:42.018Z,,,,,,,,,,,,,,,,,,,,,,,,,,,,true,FALSE,487.658999928477,,response,,,100,D,,,FALSE,click #choice-2,,,,silence,,,,,81984.19999992847,81983.69999992847,81479.379,81480.59999990463,81496.041,81996.395,,,
Item 100,flow.Sequence,2_1_1,2022-03-19T22:17:42.018Z,,,,,,,,,,,,,,,,,,,,,,,,,,,,,,14198.739999928468,,completion,,,,,,,,,,,,,,,,,81984.39999997616,81983.69999992847,67768.302,67784.69999992847,67784.96,81996.395,,,
End of Practice,html.Page,2_1_2,2022-03-19T22:17:43.658Z,,,,,,,,,,,,,,,,,,,,,,,,,,,,,,1628.104999999996,,form submission,,,,,,,,,,,,,,,,,83624.89999997616,83624.5,81979.766,81984.39999997616,81996.395,83631.017,,,
Practice,flow.Sequence,2_1,2022-03-19T22:17:43.659Z,,,,,,,,,,,,,,,,,,,,,,,,,,,,,,31418.824,,completion,,,,,,,,,,,,,,,,,83625.09999990463,83624.5,52189.054,52201.699999928474,52205.676,83631.017,,,
Trap_instruction,html.Page,2_2_0,2022-03-19T22:17:44.938Z,,,,,,,,,,,,,,,,,,,,,,,,,,,,,,1273.382999976151,,form submission,,,,,,,,,,,,,,,,,84904.69999992847,84904.39999997616,83614.423,83625.19999992847,83631.017,84915.338,,,
trap_trial,html.Screen,2_2_1,2022-03-19T22:17:49.586Z,,,,,,,,,,,,,,,,,,,,,,,,,,,,true,1,4636.561999976155,,response,,,,,,,1,click #choice-1,,,,,,,,,89552.59999990463,89551.89999997616,84898.765,84904.89999997616,84915.338,89552.486,,,
end of trap trial,html.Page,2_2_2,2022-03-19T22:17:50.858Z,,,,,,,,,,,,,,,,,,,,,,,,,,,,,,1272.1139999046281,,form submission,,,,,,,,,,,,,,,,,90824.89999997616,90824.59999990463,89535.866,89552.59999990463,89552.486,90836.908,,,
Trap 1,flow.Sequence,2_2,2022-03-19T22:17:50.859Z,,,,,,,,,,,,,,,,,,,,,,,,,,,,,,7193.5829999046255,,completion,,,,,,,,,,,,,,,,,90825.09999990463,90824.59999990463,83614.423,83625.09999990463,83631.017,90836.908,,,
Standby,html.Page,2_3_0,2022-03-19T22:17:58.862Z,,,,,,,,,,,,,,,,,,,,,,,,,,,,,,8006.4619999999995,,timeout,,,,,,,,,,,,,,,,,98828.19999992847,98826.709,90820.263,90825.19999992847,90836.908,98843.37,,,
Holding screen,html.Screen,2_3_1_0_0,2022-03-19T22:18:05.866Z,,,,,,,,,,,,,,,,,,,,,,,,,,,,,,7005.633000000002,,timeout,,,,,,,,,,,,,,,,,105833,105832.357,98826.709,98828.5,98843.37,105849.003,,,
screen,html.Screen,2_3_1_0_1_0,2022-03-19T22:18:06.396Z,,,,,,,,,,,,,,,,,40,,,,,,,,,,,,,512.3969999761612,,response,,,9,D,,,Space,keypress(Space),,,,speech,,,,Police -- ------- ---- ---- ---- - -------- ----- --- --<br>----- ----- ------ -- ---- -- --- - ---- -- - ----- -----<br>------ ---- ------ ---- - -------- ------- -- --- --------<br>-------- ----------- ---- ------ ---- ------ ---- --- ---<br>-------- --- -----,106362.29999995232,106361.39999997616,105832.357,105833.29999995232,105849.003,106366.081,,0,Police
screen,html.Screen,2_3_1_0_1_1,2022-03-19T22:18:06.896Z,,,,,,,,,,,,,,,,,40,,,,,,,,,,,,,495.9189999999944,,response,,,9,D,,,Space,keypress(Space),,,,speech,,,,------ in ------- ---- ---- ---- - -------- ----- --- --<br>----- ----- ------ -- ---- -- --- - ---- -- - ----- -----<br>------ ---- ------ ---- - -------- ------- -- --- --------<br>-------- ----------- ---- ------ ---- ------ ---- --- ---<br>-------- --- -----,106862.79999995232,106862,106349.457,106362.5,106366.081,106883.24,,1,in
screen,html.Screen,2_3_1_0_1_2,2022-03-19T22:18:06.929Z,,,,,,,,,,,,,,,,,40,,,,,,,,,,,,,11.259999999994761,,response,,,9,D,,,Space,keypress(Space),,,,speech,,,,------ -- Georgia ---- ---- ---- - -------- ----- --- --<br>----- ----- ------ -- ---- -- --- - ---- -- - ----- -----<br>------ ---- ------ ---- - -------- ------- -- --- --------<br>-------- ----------- ---- ------ ---- ------ ---- --- ---<br>-------- --- -----,106895.19999992847,106894.5,106866.53,106863.09999990463,106883.24,106916.551,,2,Georgia
screen,html.Screen,2_3_1_0_1_3,2022-03-19T22:18:06.975Z,,,,,,,,,,,,,,,,,40,,,,,,,,,,,,,24.648999928467674,,response,,,9,D,,,Space,keypress(Space),,,,speech,,,,------ -- ------- have ---- ---- - -------- ----- --- --<br>----- ----- ------ -- ---- -- --- - ---- -- - ----- -----<br>------ ---- ------ ---- - -------- ------- -- --- --------<br>-------- ----------- ---- ------ ---- ------ ---- --- ---<br>-------- --- -----,106941.89999997616,106941.19999992847,106899.89,106895.39999997616,106916.551,106949.929,,3,have
screen,html.Screen,2_3_1_0_1_4,2022-03-19T22:18:07.006Z,,,,,,,,,,,,,,,,,40,,,,,,,,,,,,,22.170999904628843,,response,,,9,D,,,Space,keypress(Space),,,,speech,,,,------ -- ------- ---- shut ---- - -------- ----- --- --<br>----- ----- ------ -- ---- -- --- - ---- -- - ----- -----<br>------ ---- ------ ---- - -------- ------- -- --- --------<br>-------- ----------- ---- ------ ---- ------ ---- --- ---<br>-------- --- -----,106972.69999992847,106972.09999990463,106933.251,106942.09999990463,106949.929,106983.264,,4,shut
screen,html.Screen,2_3_1_0_1_5,2022-03-19T22:18:07.037Z,,,,,,,,,,,,,,,,,40,,,,,,,,,,,,,19.93599992847885,,response,,,9,D,,,Space,keypress(Space),,,,speech,,,,------ -- ------- ---- ---- down - -------- ----- --- --<br>----- ----- ------ -- ---- -- --- - ---- -- - ----- -----<br>------ ---- ------ ---- - -------- ------- -- --- --------<br>-------- ----------- ---- ------ ---- ------ ---- --- ---<br>-------- --- -----,107003.79999995232,107003.19999992847,106966.603,106972.79999995232,106983.264,107016.687,,5,down
screen,html.Screen,2_3_1_0_1_6,2022-03-19T22:18:07.069Z,,,,,,,,,,,,,,,,,40,,,,,,,,,,,,,18.11299995231093,,response,,,9,D,,,Space,keypress(Space),,,,speech,,,,------ -- ------- ---- ---- ---- a -------- ----- --- --<br>----- ----- ------ -- ---- -- --- - ---- -- - ----- -----<br>------ ---- ------ ---- - -------- ------- -- --- --------<br>-------- ----------- ---- ------ ---- ------ ---- --- ---<br>-------- --- -----,107035.39999997616,107034.79999995232,106999.991,107004,107016.687,107050.005,,6,a
screen,html.Screen,2_3_1_0_1_7,2022-03-19T22:18:07.101Z,,,,,,,,,,,,,,,,,40,,,,,,,,,,,,,16.894999976153485,,response,,,9,D,,,Space,keypress(Space),,,,speech,,,,------ -- ------- ---- ---- ---- - lemonade ----- --- --<br>----- ----- ------ -- ---- -- --- - ---- -- - ----- -----<br>------ ---- ------ ---- - -------- ------- -- --- --------<br>-------- ----------- ---- ------ ---- ------ ---- --- ---<br>-------- --- -----,107067.5,107066.89999997616,107033.329,107035.69999992847,107050.005,107083.413,,7,lemonade
screen,html.Screen,2_3_1_0_1_8,2022-03-19T22:18:07.133Z,,,,,,,,,,,,,,,,,40,,,,,,,,,,,,,14.886999952315819,,response,,,9,D,,,Space,keypress(Space),,,,speech,,,,------ -- ------- ---- ---- ---- - -------- stand --- --<br>----- ----- ------ -- ---- -- --- - ---- -- - ----- -----<br>------ ---- ------ ---- - -------- ------- -- --- --------<br>-------- ----------- ---- ------ ---- ------ ---- --- ---<br>-------- --- -----,107099,107098.29999995232,107066.696,107067.79999995232,107083.413,107116.767,,8,stand
screen,html.Screen,2_3_1_0_1_9,2022-03-19T22:18:07.163Z,,,,,,,,,,,,,,,,,40,,,,,,,,,,,,,12.13299997615104,,response,,,9,D,,,Space,keypress(Space),,,,speech,,,,------ -- ------- ---- ---- ---- - -------- ----- run --<br>----- ----- ------ -- ---- -- --- - ---- -- - ----- -----<br>------ ---- ------ ---- - -------- ------- -- --- --------<br>-------- ----------- ---- ------ ---- ------ ---- --- ---<br>-------- --- -----,107129.39999997616,107128.89999997616,107100.017,107099.29999995232,107116.767,107150.144,,9,run
screen,html.Screen,2_3_1_0_1_10,2022-03-19T22:18:07.194Z,,,,,,,,,,,,,,,,,40,,,,,,,,,,,,,9.75599997615791,,response,,,9,D,,,Space,keypress(Space),,,,speech,,,,------ -- ------- ---- ---- ---- - -------- ----- --- by<br>----- ----- ------ -- ---- -- --- - ---- -- - ----- -----<br>------ ---- ------ ---- - -------- ------- -- --- --------<br>-------- ----------- ---- ------ ---- ------ ---- --- ---<br>-------- --- -----,107160.5,107159.89999997616,107133.415,107129.59999990463,107150.144,107183.484,,10,by
screen,html.Screen,2_3_1_0_1_11,2022-03-19T22:18:07.241Z,,,,,,,,,,,,,,,,,40,,,,,,,,,,,,,23.315999952319544,,response,,,9,D,,,Space,keypress(Space),,,,speech,,,,------ -- ------- ---- ---- ---- - -------- ----- --- --<br>three ----- ------ -- ---- -- --- - ---- -- - ----- -----<br>------ ---- ------ ---- - -------- ------- -- --- --------<br>-------- ----------- ---- ------ ---- ------ ---- --- ---<br>-------- --- -----,107207.39999997616,107206.79999995232,107166.766,107160.59999990463,107183.484,107216.792,,11,three
screen,html.Screen,2_3_1_0_1_12,2022-03-19T22:18:07.271Z,,,,,,,,,,,,,,,,,40,,,,,,,,,,,,,19.907999928473146,,response,,,9,D,,,Space,keypress(Space),,,,speech,,,,------ -- ------- ---- ---- ---- - -------- ----- --- --<br>----- girls ------ -- ---- -- --- - ---- -- - ----- -----<br>------ ---- ------ ---- - -------- ------- -- --- --------<br>-------- ----------- ---- ------ ---- ------ ---- --- ---<br>-------- --- -----,107237.5,107236.69999992847,107200.084,107207.69999992847,107216.792,107250.212,,12,girls
screen,html.Screen,2_3_1_0_1_13,2022-03-19T22:18:07.302Z,,,,,,,,,,,,,,,,,40,,,,,,,,,,,,,18.08799995231675,,response,,,9,D,,,Space,keypress(Space),,,,speech,,,,------ -- ------- ---- ---- ---- - -------- ----- --- --<br>----- ----- trying -- ---- -- --- - ---- -- - ----- -----<br>------ ---- ------ ---- - -------- ------- -- --- --------<br>-------- ----------- ---- ------ ---- ------ ---- --- ---<br>-------- --- -----,107269.09999990463,107268.29999995232,107233.489,107237.59999990463,107250.212,107283.554,,13,trying
screen,html.Screen,2_3_1_0_1_14,2022-03-19T22:18:07.333Z,,,,,,,,,,,,,,,,,40,,,,,,,,,,,,,15.445999999996275,,response,,,9,D,,,Space,keypress(Space),,,,speech,,,,------ -- ------- ---- ---- ---- - -------- ----- --- --<br>----- ----- ------ to ---- -- --- - ---- -- - ----- -----<br>------ ---- ------ ---- - -------- ------- -- --- --------<br>-------- ----------- ---- ------ ---- ------ ---- --- ---<br>-------- --- -----,107299.69999992847,107299,107266.784,107269.19999992847,107283.554,107316.927,,14,to
screen,html.Screen,2_3_1_0_1_15,2022-03-19T22:18:07.365Z,,,,,,,,,,,,,,,,,40,,,,,,,,,,,,,13.4729999761621,,response,,,9,D,,,Space,keypress(Space),,,,speech,,,,------ -- ------- ---- ---- ---- - -------- ----- --- --<br>----- ----- ------ -- save -- --- - ---- -- - ----- -----<br>------ ---- ------ ---- - -------- ------- -- --- --------<br>-------- ----------- ---- ------ ---- ------ ---- --- ---<br>-------- --- -----,107331.09999990463,107330.39999997616,107300.167,107299.89999997616,107316.927,107350.302,,15,save
screen,html.Screen,2_3_1_0_1_16,2022-03-19T22:18:07.396Z,,,,,,,,,,,,,,,,,40,,,,,,,,,,,,,11.698000000003958,,response,,,9,D,,,Space,keypress(Space),,,,speech,,,,------ -- ------- ---- ---- ---- - -------- ----- --- --<br>----- ----- ------ -- ---- up --- - ---- -- - ----- -----<br>------ ---- ------ ---- - -------- ------- -- --- --------<br>-------- ----------- ---- ------ ---- ------ ---- --- ---<br>-------- --- -----,107362.59999990463,107362,107333.569,107331.19999992847,107350.302,107383.635,,16,up
screen,html.Screen,2_3_1_0_1_17,2022-03-19T22:18:07.428Z,,,,,,,,,,,,,,,,,40,,,,,,,,,,,,,10.564999928479665,,response,,,9,D,,,Space,keypress(Space),,,,speech,,,,------ -- ------- ---- ---- ---- - -------- ----- --- --<br>----- ----- ------ -- ---- -- for - ---- -- - ----- -----<br>------ ---- ------ ---- - -------- ------- -- --- --------<br>-------- ----------- ---- ------ ---- ------ ---- --- ---<br>-------- --- -----,107394.79999995232,107394.19999992847,107366.936,107362.79999995232,107383.635,107417.014,,17,for
screen,html.Screen,2_3_1_0_1_18,2022-03-19T22:18:07.458Z,,,,,,,,,,,,,,,,,40,,,,,,,,,,,,,7.085999904636992,,response,,,9,D,,,Space,keypress(Space),,,,speech,,,,------ -- ------- ---- ---- ---- - -------- ----- --- --<br>----- ----- ------ -- ---- -- --- a ---- -- - ----- -----<br>------ ---- ------ ---- - -------- ------- -- --- --------<br>-------- ----------- ---- ------ ---- ------ ---- --- ---<br>-------- --- -----,107424.69999992847,107424.09999990463,107400.287,107395.09999990463,107417.014,107450.364,,18,a
screen,html.Screen,2_3_1_0_1_19,2022-03-19T22:18:07.490Z,,,,,,,,,,,,,,,,,40,,,,,,,,,,,,,5.435999952314887,,response,,,9,D,,,Space,keypress(Space),,,,speech,,,,------ -- ------- ---- ---- ---- - -------- ----- --- --<br>----- ----- ------ -- ---- -- --- - trip -- - ----- -----<br>------ ---- ------ ---- - -------- ------- -- --- --------<br>-------- ----------- ---- ------ ---- ------ ---- --- ---<br>-------- --- -----,107456.39999997616,107455.79999995232,107433.659,107424.89999997616,107450.364,107483.668,,19,trip
screen,html.Screen,2_3_1_0_1_20,2022-03-19T22:18:07.536Z,,,,,,,,,,,,,,,,,40,,,,,,,,,,,,,18.031999928469304,,response,,,9,D,,,Space,keypress(Space),,,,speech,,,,------ -- ------- ---- ---- ---- - -------- ----- --- --<br>----- ----- ------ -- ---- -- --- - ---- to - ----- -----<br>------ ---- ------ ---- - -------- ------- -- --- --------<br>-------- ----------- ---- ------ ---- ------ ---- --- ---<br>-------- --- -----,107502.29999995232,107501.69999992847,107467.01,107456.59999990463,107483.668,107517.097,,20,to
screen,html.Screen,2_3_1_0_1_21,2022-03-19T22:18:07.568Z,,,,,,,,,,,,,,,,,40,,,,,,,,,,,,,16.802999976163846,,response,,,9,D,,,Space,keypress(Space),,,,speech,,,,------ -- ------- ---- ---- ---- - -------- ----- --- --<br>----- ----- ------ -- ---- -- --- - ---- -- a ----- -----<br>------ ---- ------ ---- - -------- ------- -- --- --------<br>-------- ----------- ---- ------ ---- ------ ---- --- ---<br>-------- --- -----,107534.5,107533.89999997616,107500.373,107502.59999990463,107517.097,107550.443,,21,a
screen,html.Screen,2_3_1_0_1_22,2022-03-19T22:18:07.598Z,,,,,,,,,,,,,,,,,40,,,,,,,,,,,,,13.557000000000698,,response,,,9,D,,,Space,keypress(Space),,,,speech,,,,------ -- ------- ---- ---- ---- - -------- ----- --- --<br>----- ----- ------ -- ---- -- --- - ---- -- - water -----<br>------ ---- ------ ---- - -------- ------- -- --- --------<br>-------- ----------- ---- ------ ---- ------ ---- --- ---<br>-------- --- -----,107564.69999992847,107564,107533.689,107534.69999992847,107550.443,107583.755,,22,water
screen,html.Screen,2_3_1_0_1_23,2022-03-19T22:18:07.630Z,,,,,,,,,,,,,,,,,40,,,,,,,,,,,,,12.44499992846977,,response,,,9,D,,,Space,keypress(Space),,,,speech,,,,"------ -- ------- ---- ---- ---- - -------- ----- --- --<br>----- ----- ------ -- ---- -- --- - ---- -- - ----- park,<br>------ ---- ------ ---- - -------- ------- -- --- --------<br>-------- ----------- ---- ------ ---- ------ ---- --- ---<br>-------- --- -----",107596.89999997616,107596.19999992847,107567.102,107564.79999995232,107583.755,107617.182,,23,"park,"
screen,html.Screen,2_3_1_0_1_24,2022-03-19T22:18:07.662Z,,,,,,,,,,,,,,,,,40,,,,,,,,,,,,,10.817999999999302,,response,,,9,D,,,Space,keypress(Space),,,,speech,,,,------ -- ------- ---- ---- ---- - -------- ----- --- --<br>----- ----- ------ -- ---- -- --- - ---- -- - ----- -----<br>saying ---- ------ ---- - -------- ------- -- --- --------<br>-------- ----------- ---- ------ ---- ------ ---- --- ---<br>-------- --- -----,107628.69999992847,107628,107600.413,107597.19999992847,107617.182,107650.477,,24,saying
screen,html.Screen,2_3_1_0_1_25,2022-03-19T22:18:07.693Z,,,,,,,,,,,,,,,,,40,,,,,,,,,,,,,8.222999928475474,,response,,,9,D,,,Space,keypress(Space),,,,speech,,,,------ -- ------- ---- ---- ---- - -------- ----- --- --<br>----- ----- ------ -- ---- -- --- - ---- -- - ----- -----<br>------ they ------ ---- - -------- ------- -- --- --------<br>-------- ----------- ---- ------ ---- ------ ---- --- ---<br>-------- --- -----,107659.39999997616,107658.69999992847,107633.808,107628.89999997616,107650.477,107683.795,,25,they
screen,html.Screen,2_3_1_0_1_26,2022-03-19T22:18:07.724Z,,,,,,,,,,,,,,,,,40,,,,,,,,,,,,,6.304999904634315,,response,,,9,D,,,Space,keypress(Space),,,,speech,,,,------ -- ------- ---- ---- ---- - -------- ----- --- --<br>----- ----- ------ -- ---- -- --- - ---- -- - ----- -----<br>------ ---- didn't ---- - -------- ------- -- --- --------<br>-------- ----------- ---- ------ ---- ------ ---- --- ---<br>-------- --- -----,107690.79999995232,107690.09999990463,107667.182,107659.59999990463,107683.795,107717.252,,26,didn't
screen,html.Screen,2_3_1_0_1_27,2022-03-19T22:18:07.756Z,,,,,,,,,,,,,,,,,40,,,,,,,,,,,,,4.547999952323153,,response,,,9,D,,,Space,keypress(Space),,,,speech,,,,------ -- ------- ---- ---- ---- - -------- ----- --- --<br>----- ----- ------ -- ---- -- --- - ---- -- - ----- -----<br>------ ---- ------ have - -------- ------- -- --- --------<br>-------- ----------- ---- ------ ---- ------ ---- --- ---<br>-------- --- -----,107722.59999990463,107721.79999995232,107700.491,107691,107717.252,107750.556,,27,have
screen,html.Screen,2_3_1_0_1_28,2022-03-19T22:18:07.787Z,,,,,,,,,,,,,,,,,40,,,,,,,,,,,,,2.5439999046357116,,response,,,9,D,,,Space,keypress(Space),,,,speech,,,,------ -- ------- ---- ---- ---- - -------- ----- --- --<br>----- ----- ------ -- ---- -- --- - ---- -- - ----- -----<br>------ ---- ------ ---- a -------- ------- -- --- --------<br>-------- ----------- ---- ------ ---- ------ ---- --- ---<br>-------- --- -----,107753.79999995232,107753.09999990463,107733.895,107722.89999997616,107750.556,107783.974,,28,a
screen,html.Screen,2_3_1_0_1_29,2022-03-19T22:18:07.819Z,,,,,,,,,,,,,,,,,40,,,,,,,,,,,,,1.025999999998021,,response,,,9,D,,,Space,keypress(Space),,,,speech,,,,------ -- ------- ---- ---- ---- - -------- ----- --- --<br>----- ----- ------ -- ---- -- --- - ---- -- - ----- -----<br>------ ---- ------ ---- - business ------- -- --- --------<br>-------- ----------- ---- ------ ---- ------ ---- --- ---<br>-------- --- -----,107785.5,107785,107767.277,107754,107783.974,107817.347,,29,business
screen,html.Screen,2_3_1_0_1_30,2022-03-19T22:18:07.866Z,,,,,,,,,,,,,,,,,40,,,,,,,,,,,,,14.653000000005704,,response,,,9,D,,,Space,keypress(Space),,,,speech,,,,------ -- ------- ---- ---- ---- - -------- ----- --- --<br>----- ----- ------ -- ---- -- --- - ---- -- - ----- -----<br>------ ---- ------ ---- - -------- license -- --- --------<br>-------- ----------- ---- ------ ---- ------ ---- --- ---<br>-------- --- -----,107832.59999990463,107832,107800.575,107785.69999992847,107817.347,107850.695,,30,license
screen,html.Screen,2_3_1_0_1_31,2022-03-19T22:18:07.896Z,,,,,,,,,,,,,,,,,40,,,,,,,,,,,,,11.1049999523093,,response,,,9,D,,,Space,keypress(Space),,,,speech,,,,------ -- ------- ---- ---- ---- - -------- ----- --- --<br>----- ----- ------ -- ---- -- --- - ---- -- - ----- -----<br>------ ---- ------ ---- - -------- ------- or --- --------<br>-------- ----------- ---- ------ ---- ------ ---- --- ---<br>-------- --- -----,107862.39999997616,107861.79999995232,107833.973,107832.79999995232,107850.695,107884.053,,31,or
screen,html.Screen,2_3_1_0_1_32,2022-03-19T22:18:07.928Z,,,,,,,,,,,,,,,,,40,,,,,,,,,,,,,9.546999904632685,,response,,,9,D,,,Space,keypress(Space),,,,speech,,,,------ -- ------- ---- ---- ---- - -------- ----- --- --<br>----- ----- ------ -- ---- -- --- - ---- -- - ----- -----<br>------ ---- ------ ---- - -------- ------- -- the --------<br>-------- ----------- ---- ------ ---- ------ ---- --- ---<br>-------- --- -----,107894.19999992847,107893.59999990463,107867.341,107862.59999990463,107884.053,107917.42,,32,the
screen,html.Screen,2_3_1_0_1_33,2022-03-19T22:18:07.959Z,,,,,,,,,,,,,,,,,40,,,,,,,,,,,,,6.87999995231803,,response,,,9,D,,,Space,keypress(Space),,,,speech,,,,------ -- ------- ---- ---- ---- - -------- ----- --- --<br>----- ----- ------ -- ---- -- --- - ---- -- - ----- -----<br>------ ---- ------ ---- - -------- ------- -- --- required<br>-------- ----------- ---- ------ ---- ------ ---- --- ---<br>-------- --- -----,107925,107924.29999995232,107900.691,107894.39999997616,107917.42,107950.775,,33,required
screen,html.Screen,2_3_1_0_1_34,2022-03-19T22:18:07.991Z,,,,,,,,,,,,,,,,,40,,,,,,,,,,,,,5.924999928480247,,response,,,9,D,,,Space,keypress(Space),,,,speech,,,,------ -- ------- ---- ---- ---- - -------- ----- --- --<br>----- ----- ------ -- ---- -- --- - ---- -- - ----- -----<br>------ ---- ------ ---- - -------- ------- -- --- --------<br>permits. ----------- ---- ------ ---- ------ ---- --- ---<br>-------- --- -----,107957.29999995232,107956.69999992847,107934.061,107925.29999995232,107950.775,107984.132,,34,permits.
screen,html.Screen,2_3_1_0_1_35,2022-03-19T22:18:08.021Z,,,,,,,,,,,,,,,,,40,,,,,,,,,,,,,2.9679999046347803,,response,,,9,D,,,Space,keypress(Space),,,,speech,,,,------ -- ------- ---- ---- ---- - -------- ----- --- --<br>----- ----- ------ -- ---- -- --- - ---- -- - ----- -----<br>------ ---- ------ ---- - -------- ------- -- --- --------<br>-------- Morningstar ---- ------ ---- ------ ---- --- ---<br>-------- --- -----,107987.69999992847,107987.09999990463,107967.382,107957.5,107984.132,108017.441,,35,Morningstar
screen,html.Screen,2_3_1_0_1_36,2022-03-19T22:18:08.053Z,,,,,,,,,,,,,,,,,40,,,,,,,,,,,,,1.1589999046263983,,response,,,9,D,,,Space,keypress(Space),,,,speech,,,,------ -- ------- ---- ---- ---- - -------- ----- --- --<br>----- ----- ------ -- ---- -- --- - ---- -- - ----- -----<br>------ ---- ------ ---- - -------- ------- -- --- --------<br>-------- ----------- says ------ ---- ------ ---- --- ---<br>-------- --- -----,108019.09999990463,108018.59999990463,108000.782,107987.79999995232,108017.441,108050.854,,36,says
screen,html.Screen,2_3_1_0_1_37,2022-03-19T22:18:08.098Z,,,,,,,,,,,,,,,,,40,,,,,,,,,,,,,13.445999952309649,,response,,,9,D,,,Space,keypress(Space),,,,speech,,,,------ -- ------- ---- ---- ---- - -------- ----- --- --<br>----- ----- ------ -- ---- -- --- - ---- -- - ----- -----<br>------ ---- ------ ---- - -------- ------- -- --- --------<br>-------- ----------- ---- police ---- ------ ---- --- ---<br>-------- --- -----,108065,108064.29999995232,108034.093,108019.29999995232,108050.854,108084.215,,37,police
screen,html.Screen,2_3_1_0_1_38,2022-03-19T22:18:08.130Z,,,,,,,,,,,,,,,,,40,,,,,,,,,,,,,12.084999952319777,,response,,,9,D,,,Space,keypress(Space),,,,speech,,,,------ -- ------- ---- ---- ---- - -------- ----- --- --<br>----- ----- ------ -- ---- -- --- - ---- -- - ----- -----<br>------ ---- ------ ---- - -------- ------- -- --- --------<br>-------- ----------- ---- ------ also ------ ---- --- ---<br>-------- --- -----,108097,108096.29999995232,108067.454,108065.19999992847,108084.215,108117.53,,38,also
screen,html.Screen,2_3_1_0_1_39,2022-03-19T22:18:08.162Z,,,,,,,,,,,,,,,,,40,,,,,,,,,,,,,10.369999976159306,,response,,,9,D,,,Space,keypress(Space),,,,speech,,,,------ -- ------- ---- ---- ---- - -------- ----- --- --<br>----- ----- ------ -- ---- -- --- - ---- -- - ----- -----<br>------ ---- ------ ---- - -------- ------- -- --- --------<br>-------- ----------- ---- ------ ---- didn't ---- --- ---<br>-------- --- -----,108128.59999990463,108127.89999997616,108100.818,108097.19999992847,108117.53,108150.938,,39,didn't
screen,html.Screen,2_3_1_0_1_40,2022-03-19T22:18:08.192Z,,,,,,,,,,,,,,,,,40,,,,,,,,,,,,,6.961999976163497,,response,,,9,D,,,Space,keypress(Space),,,,speech,,,,------ -- ------- ---- ---- ---- - -------- ----- --- --<br>----- ----- ------ -- ---- -- --- - ---- -- - ----- -----<br>------ ---- ------ ---- - -------- ------- -- --- --------<br>-------- ----------- ---- ------ ---- ------ know --- ---<br>-------- --- -----,108158.59999990463,108157.89999997616,108134.218,108128.79999995232,108150.938,108184.298,,40,know
screen,html.Screen,2_3_1_0_1_41,2022-03-19T22:18:08.507Z,,,,,,,,,,,,,,,,,40,,,,,,,,,,,,,288.6019999761629,,response,,,9,D,,,Space,keypress(Space),,,,speech,,,,------ -- ------- ---- ---- ---- - -------- ----- --- --<br>----- ----- ------ -- ---- -- --- - ---- -- - ----- -----<br>------ ---- ------ ---- - -------- ------- -- --- --------<br>-------- ----------- ---- ------ ---- ------ ---- how ---<br>-------- --- -----,108473.69999992847,108472.89999997616,108167.533,108158.79999995232,108184.298,108484.479,,41,how
screen,html.Screen,2_3_1_0_1_42,2022-03-19T22:18:09.015Z,,,,,,,,,,,,,,,,,40,,,,,,,,,,,,,496.82099995230965,,response,,,9,D,,,Space,keypress(Space),,,,speech,,,,------ -- ------- ---- ---- ---- - -------- ----- --- --<br>----- ----- ------ -- ---- -- --- - ---- -- - ----- -----<br>------ ---- ------ ---- - -------- ------- -- --- --------<br>-------- ----------- ---- ------ ---- ------ ---- --- the<br>-------- --- -----,108982,108981.29999995232,108467.849,108473.89999997616,108484.479,108984.841,,42,the
screen,html.Screen,2_3_1_0_1_43,2022-03-19T22:18:09.047Z,,,,,,,,,,,,,,,,,40,,,,,,,,,,,,,27.75899990463222,,response,,,9,D,,,Space,keypress(Space),,,,speech,,,,------ -- ------- ---- ---- ---- - -------- ----- --- --<br>----- ----- ------ -- ---- -- --- - ---- -- - ----- -----<br>------ ---- ------ ---- - -------- ------- -- --- --------<br>-------- ----------- ---- ------ ---- ------ ---- --- ---<br>lemonade --- -----,109013.29999995232,109012.59999990463,108968.22,108982.19999992847,108984.841,109018.205,,43,lemonade
screen,html.Screen,2_3_1_0_1_44,2022-03-19T22:18:09.077Z,,,,,,,,,,,,,,,,,40,,,,,,,,,,,,,24.894999904630822,,response,,,9,D,,,Space,keypress(Space),,,,speech,,,,------ -- ------- ---- ---- ---- - -------- ----- --- --<br>----- ----- ------ -- ---- -- --- - ---- -- - ----- -----<br>------ ---- ------ ---- - -------- ------- -- --- --------<br>-------- ----------- ---- ------ ---- ------ ---- --- ---<br>-------- was -----,109043.79999995232,109043.09999990463,109001.629,109013.5,109018.205,109051.543,,44,was
screen,html.Screen,2_3_1_0_1_45,2022-03-19T22:18:09.108Z,,,,,,,,,,,,,,,,,40,,,,,,,,,,,,,22.456999999994878,,response,,,9,D,,,Space,keypress(Space),,,,speech,,,,------ -- ------- ---- ---- ---- - -------- ----- --- --<br>----- ----- ------ -- ---- -- --- - ---- -- - ----- -----<br>------ ---- ------ ---- - -------- ------- -- --- --------<br>-------- ----------- ---- ------ ---- ------ ---- --- ---<br>-------- --- made.,109074.69999992847,109074,109034.98,109044,109051.543,109084.985,,45,made.
Item 9,flow.Loop,2_3_1_0_1,2022-03-19T22:18:09.108Z,,,,,,,,,,,,,,,,,,,,,,,,,,,,,,3224.997000000003,,completion,,,,,,,,,,,,,,,,,109075,109074,105832.357,105833.19999992847,105849.003,109084.985,,,
Question 1,html.Screen,2_3_1_0_2,2022-03-19T22:18:09.922Z,,,,,,,,,,,,,,,,,,,,,,,,,,,,false,FALSE,802.7149999284738,,response,,,9,D,,,TRUE,click #choice-1,,,,speech,,,,,109888.29999995232,109887.69999992847,109068.302,109075.19999992847,109084.985,109902.175,,,
Question 2,html.Screen,2_3_1_0_3,2022-03-19T22:18:10.706Z,,,,,,,,,,,,,,,,,,,,,,,,,,,,true,FALSE,769.5249999284715,,response,,,9,D,,,FALSE,click #choice-2,,,,speech,,,,,110672.39999997616,110671.69999992847,109885.578,109888.39999997616,109902.175,110686.185,,,
Item 9,flow.Sequence,2_3_1_0,2022-03-19T22:18:10.706Z,,,,,,,,,,,,,,,,,,,,,,,,,,,,,,11828.329999928479,,completion,,,,,,,,,,,,,,,,,110672.5,110671.69999992847,98826.709,98828.5,98843.37,110686.185,,,
Holding screen,html.Screen,2_3_1_1_0,2022-03-19T22:18:17.713Z,,,,,,,,,,,,,,,,,,,,,,,,,,,,,,7005.7149999999965,,timeout,,,,,,,,,,,,,,,,,117679.89999997616,117675.2,110669.589,110672.59999990463,110686.185,117691.9,,,
screen,html.Screen,2_3_1_1_1_0,2022-03-19T22:18:18.292Z,,,,,,,,,,,,,,,,,19,,,,,,,,,,,,,565.3999999523221,,response,,,17,D,,,Space,keypress(Space),,,,speech,,,,"Interestingly, --- -------- -------- ---------- ---- -------<br>-- ---------- -- --- ----- ------ ----- ---- --------- ----<br>------- ------ -------- -- ------ ---------- ------ ---<br>------ -- -- ---- -- ---------- -------- ------ ---- -------<br>---- --- --------- ------- ----- --------- ---- ----- --<br>------ -------- -- ------ -- ---- ------------",118258.19999992847,118257.29999995232,117675.2,117680.09999990463,117691.9,118275.777,,0,"Interestingly,"
