sender,sender_type,sender_id,timestamp,meta,,Blues,Classical,Country,Dance,Electronic,Folk,Gospel,Hip-Hop,Jazz,Latin,Musical/Film,New-age,Pop,Prolific_id,Provo_ID,R&B,Rap,Reggae,Religious,Rock,Soul,Swing,Traditional,age,artist_name,correct,correctResponse,distraction,duration,education,ended_on,familiarity,gender,headphone_check_performance,item,list,music_frequency,offensiveness,pleasantness,position_correct,preference,response,response_action,snippet_file,song_name,song_rating,sound,stimulus_1,stimulus_2,stimulus_3,text,time_commit,time_end,time_render,time_run,time_show,time_switch,url,word,word_ID
Prolific ID,html.Form,0,2022-04-27T12:54:31.491Z,"{""labjs_version"":""20.2.2"",""labjs_build"":{""flavor"":""production"",""commit"":""a25486e0c714a0ae2ce03ff94b7bb6896854dcfa""},""location"":""https://run.pavlovia.org/mvasilev/prolific3_music_c/"",""userAgent"":""Mozilla/5.0 (Windows NT 10.0; Win64; x64) AppleWebKit/537.36 (KHTML, like Gecko) Chrome/100.0.4896.127 Safari/537.36"",""platform"":""Win32"",""language"":""en-US"",""locale"":""en-US"",""timeZone"":""Europe/London"",""timezoneOffset"":-60,""screen_width"":1920,""screen_height"":1080,""scroll_width"":1920,""scroll_height"":903,""window_innerWidth"":1920,""window_innerHeight"":951,""devicePixelRatio"":1}",,,,,,,,,,,,,,,60d0709ffc9b494cf65a266c,,,,,,,,,,,,,,,44959.23300000075,,form submission,,,,,,,,,,,,,,,,,,,,,64744.5,64743.800000000745,19732.89,19741.599999999627,19784.567,64754.637,{},,
Introduction,html.Screen,1_0,2022-04-27T12:54:49.067Z,,,,,,,,,,,,,,,,,,,,,,,,,,,,,,,17559.563000001115,,response,,,,,,,,,,,continue,click button,,,,,,,,,82320.30000000075,82314.20000000112,64737.932,64745.09999999963,64754.637,82322.621,,,
Volume calibration,html.Screen,1_1,2022-04-27T12:55:06.756Z,,,,,,,,,,,,,,,,,,,,,,,,,,,,,,,17679.379,,response,,,,,,,,,,,continue,click button,,,,,,,,,100009.70000000112,100002,82305.981,82320.59999999963,82322.621,100007.352,,,
Task instructions,html.Screen,1_2,2022-04-27T12:55:10.579Z,,,,,,,,,,,,,,,,,,,,,,,,,,,,,,,3822.948000000746,,response,,,,,,,,,,,continue,click button,,,,,,,,,103832.20000000112,103830.30000000075,99990.648,100010,100007.352,103840.951,,,
Sounds,html.Screen,1_3_0_0,2022-04-27T12:55:14.825Z,,,,,,,,,,,,,,,,,,,,,,,,,,,,,,,4250.289999999994,,timeout,,,,,,,,,3,,,,,,,,I,O,S,,108078.59999999963,108074.608,103824.3,103832.59999999963,103840.951,108091.241,,,
Judgement,html.Screen,1_3_0_1,2022-04-27T12:55:15.668Z,,,,,,,,,,,,,,,,,,,,,,,,,,,,true,3,,827.8589999996329,,response,,,,,,,,,3,,3,click #choice-3,,,,,I,O,S,,108921.09999999963,108919.09999999963,108074.608,108078.80000000075,108091.241,108924.668,,,
Trial,flow.Sequence,1_3_0,2022-04-27T12:55:15.668Z,,,,,,,,,,,,,,,,,,,,,,,,,,,,,,,5078.1489999996265,,completion,,,,,,,,,3,,,,,,,,I,O,S,,108921.59999999963,108919.09999999963,103824.3,103832.5,103840.951,108924.668,,,
Sounds,html.Screen,1_3_1_0,2022-04-27T12:55:19.906Z,,,,,,,,,,,,,,,,,,,,,,,,,,,,,,,4250.3139999999985,,timeout,,,,,,,,,1,,,,,,,,S,O,I,,113159.5,113158.317,108907.949,108921.90000000037,108924.668,113174.982,,,
Judgement,html.Screen,1_3_1_1,2022-04-27T12:55:20.432Z,,,,,,,,,,,,,,,,,,,,,,,,,,,,true,1,,508.0179999999964,,response,,,,,,,,,1,,1,click #choice-1,,,,,S,O,I,,113684.90000000037,113683,113158.317,113159.70000000112,113174.982,113691.672,,,
Trial,flow.Sequence,1_3_1,2022-04-27T12:55:20.432Z,,,,,,,,,,,,,,,,,,,,,,,,,,,,,,,4758.331999999995,,completion,,,,,,,,,1,,,,,,,,S,O,I,,113685.80000000075,113683,108907.949,108921.80000000075,108924.668,113691.672,,,
Sounds,html.Screen,1_3_2_0,2022-04-27T12:55:24.674Z,,,,,,,,,,,,,,,,,,,,,,,,,,,,,,,4250.299999999988,,timeout,,,,,,,,,2,,,,,,,,O,S,I,,117926.59999999963,117925.304,113674.973,113686,113691.672,117941.972,,,
Judgement,html.Screen,1_3_2_1,2022-04-27T12:55:25.084Z,,,,,,,,,,,,,,,,,,,,,,,,,,,,true,2,,392.32800000075076,,response,,,,,,,,,2,,2,click #choice-2,,,,,O,S,I,,118336.5,118334.30000000075,117925.304,117926.70000000112,117941.972,118342.097,,,
Trial,flow.Sequence,1_3_2,2022-04-27T12:55:25.084Z,,,,,,,,,,,,,,,,,,,,,,,,,,,,,,,4642.628000000739,,completion,,,,,,,,,2,,,,,,,,O,S,I,,118337,118334.30000000075,113674.973,113686,113691.672,118342.097,,,
Sounds,html.Screen,1_3_3_0,2022-04-27T12:55:29.324Z,,,,,,,,,,,,,,,,,,,,,,,,,,,,,,,4250.257000000012,,timeout,,,,,,,,,1,,,,,,,,S,I,O,,122577.09999999963,122575.686,118325.356,118337.30000000075,118342.097,122592.354,,,
Judgement,html.Screen,1_3_3_1,2022-04-27T12:55:29.865Z,,,,,,,,,,,,,,,,,,,,,,,,,,,,true,1,,524.0460000003659,,response,,,,,,,,,1,,1,click #choice-1,,,,,S,I,O,,123118.40000000037,123116.40000000037,122575.686,122577.30000000075,122592.354,123125.708,,,
Trial,flow.Sequence,1_3_3,2022-04-27T12:55:29.866Z,,,,,,,,,,,,,,,,,,,,,,,,,,,,,,,4774.303000000378,,completion,,,,,,,,,1,,,,,,,,S,I,O,,123118.90000000037,123116.40000000037,118325.356,118337.30000000075,118342.097,123125.708,,,
Sounds,html.Screen,1_3_4_0,2022-04-27T12:55:34.108Z,,,,,,,,,,,,,,,,,,,,,,,,,,,,,,,4250.346999999994,,timeout,,,,,,,,,3,,,,,,,,O,I,S,,127360.70000000112,127359.364,123109.078,123119.09999999963,123125.708,127376.055,,,
Judgement,html.Screen,1_3_4_1,2022-04-27T12:55:34.477Z,,,,,,,,,,,,,,,,,,,,,,,,,,,,true,3,,352.3450000003795,,response,,,,,,,,,3,,3,click #choice-3,,,,,O,I,S,,127730.30000000075,127728.40000000037,127359.364,127361,127376.055,127742.772,,,
Trial,flow.Sequence,1_3_4,2022-04-27T12:55:34.478Z,,,,,,,,,,,,,,,,,,,,,,,,,,,,,,,4602.692000000374,,completion,,,,,,,,,3,,,,,,,,O,I,S,,127730.59999999963,127728.40000000037,123109.078,123119,123125.708,127742.772,,,
Sounds,html.Screen,1_3_5_0,2022-04-27T12:55:38.724Z,,,,,,,,,,,,,,,,,,,,,,,,,,,,,,,4250.304000000004,,timeout,,,,,,,,,2,,,,,,,,I,S,O,,131977.20000000112,131976.421,127726.021,127731,127742.772,131993.076,,,
Judgement,html.Screen,1_3_5_1,2022-04-27T12:55:38.849Z,,,,,,,,,,,,,,,,,,,,,,,,,,,,true,2,,107.02399999962654,,response,,,,,,,,,2,,2,click #choice-2,,,,,I,S,O,,132102.20000000112,132100.09999999963,131976.421,131977.40000000037,131993.076,132109.848,,,
Trial,flow.Sequence,1_3_5,2022-04-27T12:55:38.850Z,,,,,,,,,,,,,,,,,,,,,,,,,,,,,,,4357.32799999963,,completion,,,,,,,,,2,,,,,,,,I,S,O,,132102.59999999963,132100.09999999963,127726.021,127730.90000000037,127742.772,132109.848,,,
Task,flow.Loop,1_3,2022-04-27T12:55:38.860Z,,,,,,,,,,,,,,,,,,,,,,,,,,,,,,,28259.148999999627,,completion,,,1,,,,,,,,,,,,,,,,,,132112.80000000075,132100.09999999963,103824.3,103832.5,103840.951,132109.848,,,
Trap,html.Screen,1_4,2022-04-27T12:55:38.862Z,,,,,,,,,,,,,,,,,,,,,,,,,,,,,,,NaN,,skipped,,,,,,,,,,,,,,,,,,,,,132115.40000000037,132100.09999999963,,132115.09999999963,,132109.848,,,
Thanks,html.Screen,1_5,2022-04-27T12:55:42.051Z,,,,,,,,,,,,,,,,,,,,,,,,,,,,,,,3191.952000000747,,response,,,,,,,,,,,continue,click button,,,,,,,,,135303.90000000037,135301.80000000075,132093.064,132115.59999999963,132109.848,137243.463,,,
Headphone screening,flow.Sequence,1,2022-04-27T12:55:42.051Z,,,,,,,,,,,,,,,,,,,,,,,,,,,,,,,70547.16300000074,,completion,,,,,,,,,,,,,,,,,,,,,135304.20000000112,135301.80000000075,64737.932,64745,64754.637,137243.463,,,
Instructions,html.Page,2_0,2022-04-27T12:55:49.499Z,,,,,,,,,,,,,,,,,,,,,,,,,,,,,,,5507.737000001129,,form submission,,,,,,,,,,,,,,,,,,,,,142751.90000000037,142751.20000000112,137226.777,137239.90000000037,137243.463,142760.603,,,
Holding screen,html.Screen,2_1_0_0,2022-04-27T12:55:59.494Z,,,,,,,,,,,,,,,,,,,,,,,,,,,,,,,10000.745999999985,,timeout,,,,,,,,,,,,,,,,,,,,,152746.5,152744.633,142743.869,142752.20000000112,142760.603,152761.349,,,
screen,html.Screen,2_1_0_1_0,2022-04-27T12:56:04.535Z,,,,,,,,,,,,,,,,,53,,,,,,,,,,,,,,5022.451000000758,,response,,,,99,,,,,,,Space,keypress(Space),,,,,,,,When -- ----- -- ------ - ------- --- ----------<br>------------- ------ ------ ---- ---- ------- ----- -- ----<br>-------- ------- -- ---------- --- - --- ----- ----- ----<br>---- --- --- ----- --- ---- ---- ------- ----- ---- -------<br>--- --- -- ----- -- --- ---- -- --- ---- -- ------ ------<br>--- ----- -- ----,157787.70000000112,157783.80000000075,152744.633,152746.90000000037,152761.349,157795.011,,0,When
screen,html.Screen,2_1_0_1_1,2022-04-27T12:56:04.995Z,,,,,,,,,,,,,,,,,53,,,,,,,,,,,,,,452.189000001119,,response,,,,99,,,,,,,Space,keypress(Space),,,,,,,,---- it ----- -- ------ - ------- --- ----------<br>------------- ------ ------ ---- ---- ------- ----- -- ----<br>-------- ------- -- ---------- --- - --- ----- ----- ----<br>---- --- --- ----- --- ---- ---- ------- ----- ---- -------<br>--- --- -- ----- -- --- ---- -- --- ---- -- ------ ------<br>--- ----- -- ----,158247.90000000037,158247.20000000112,157777.782,157787.90000000037,157795.011,158261.745,,1,it
screen,html.Screen,2_1_0_1_2,2022-04-27T12:56:05.398Z,,,,,,,,,,,,,,,,,53,,,,,,,,,,,,,,388.8549999996321,,response,,,,99,,,,,,,Space,keypress(Space),,,,,,,,---- -- comes -- ------ - ------- --- ----------<br>------------- ------ ------ ---- ---- ------- ----- -- ----<br>-------- ------- -- ---------- --- - --- ----- ----- ----<br>---- --- --- ----- --- ---- ---- ------- ----- ---- -------<br>--- --- -- ----- -- --- ---- -- --- ---- -- ------ ------<br>--- ----- -- ----,158651.40000000037,158650.59999999963,158245.01,158248.09999999963,158261.745,158661.76,,2,comes
screen,html.Screen,2_1_0_1_3,2022-04-27T12:56:05.759Z,,,,,,,,,,,,,,,,,53,,,,,,,,,,,,,,349.33999999961816,,response,,,,99,,,,,,,Space,keypress(Space),,,,,,,,---- -- ----- to ------ - ------- --- ----------<br>------------- ------ ------ ---- ---- ------- ----- -- ----<br>-------- ------- -- ---------- --- - --- ----- ----- ----<br>---- --- --- ----- --- ---- ---- ------- ----- ---- -------<br>--- --- -- ----- -- --- ---- -- --- ---- -- ------ ------<br>--- ----- -- ----,159011.80000000075,159011.09999999963,158645.033,158651.59999999963,158661.76,159028.478,,3,to
screen,html.Screen,2_1_0_1_4,2022-04-27T12:56:06.159Z,,,,,,,,,,,,,,,,,53,,,,,,,,,,,,,,382.42200000036974,,response,,,,99,,,,,,,Space,keypress(Space),,,,,,,,---- -- ----- -- having - ------- --- ----------<br>------------- ------ ------ ---- ---- ------- ----- -- ----<br>-------- ------- -- ---------- --- - --- ----- ----- ----<br>---- --- --- ----- --- ---- ---- ------- ----- ---- -------<br>--- --- -- ----- -- --- ---- -- --- ---- -- ------ ------<br>--- ----- -- ----,159411.80000000075,159410.90000000037,159011.805,159012,159028.478,159428.515,,4,having
screen,html.Screen,2_1_0_1_5,2022-04-27T12:56:06.566Z,,,,,,,,,,,,,,,,,53,,,,,,,,,,,,,,389.7850000007311,,response,,,,99,,,,,,,Space,keypress(Space),,,,,,,,---- -- ----- -- ------ a ------- --- ----------<br>------------- ------ ------ ---- ---- ------- ----- -- ----<br>-------- ------- -- ---------- --- - --- ----- ----- ----<br>---- --- --- ----- --- ---- ---- ------- ----- ---- -------<br>--- --- -- ----- -- --- ---- -- --- ---- -- ------ ------<br>--- ----- -- ----,159819.09999999963,159818.30000000075,159411.788,159412,159428.515,159828.492,,5,a
screen,html.Screen,2_1_0_1_6,2022-04-27T12:56:06.930Z,,,,,,,,,,,,,,,,,53,,,,,,,,,,,,,,353.8080000007467,,response,,,,99,,,,,,,Space,keypress(Space),,,,,,,,---- -- ----- -- ------ - lasting --- ----------<br>------------- ------ ------ ---- ---- ------- ----- -- ----<br>-------- ------- -- ---------- --- - --- ----- ----- ----<br>---- --- --- ----- --- ---- ---- ------- ----- ---- -------<br>--- --- -- ----- -- --- ---- -- --- ---- -- ------ ------<br>--- ----- -- ----,160183,160182.30000000075,159811.817,159819.30000000075,159828.492,160195.198,,6,lasting
screen,html.Screen,2_1_0_1_7,2022-04-27T12:56:07.322Z,,,,,,,,,,,,,,,,,53,,,,,,,,,,,,,,379.1020000007411,,response,,,,99,,,,,,,Space,keypress(Space),,,,,,,,---- -- ----- -- ------ - ------- and ----------<br>------------- ------ ------ ---- ---- ------- ----- -- ----<br>-------- ------- -- ---------- --- - --- ----- ----- ----<br>---- --- --- ----- --- ---- ---- ------- ----- ---- -------<br>--- --- -- ----- -- --- ---- -- --- ---- -- ------ ------<br>--- ----- -- ----,160575.30000000075,160574.30000000075,160178.505,160183.30000000075,160195.198,160578.559,,7,and
screen,html.Screen,2_1_0_1_8,2022-04-27T12:56:07.746Z,,,,,,,,,,,,,,,,,53,,,,,,,,,,,,,,419.34100000036415,,response,,,,99,,,,,,,Space,keypress(Space),,,,,,,,---- -- ----- -- ------ - ------- --- fulfilling<br>------------- ------ ------ ---- ---- ------- ----- -- ----<br>-------- ------- -- ---------- --- - --- ----- ----- ----<br>---- --- --- ----- --- ---- ---- ------- ----- ---- -------<br>--- --- -- ----- -- --- ---- -- --- ---- -- ------ ------<br>--- ----- -- ----,160998.70000000112,160997.90000000037,160561.855,160575.59999999963,160578.559,161011.958,,8,fulfilling
screen,html.Screen,2_1_0_1_9,2022-04-27T12:56:08.122Z,,,,,,,,,,,,,,,,,53,,,,,,,,,,,,,,362.1419999996142,,response,,,,99,,,,,,,Space,keypress(Space),,,,,,,,"---- -- ----- -- ------ - ------- --- ----------<br>relationship, ------ ------ ---- ---- ------- ----- -- ----<br>-------- ------- -- ---------- --- - --- ----- ----- ----<br>---- --- --- ----- --- ---- ---- ------- ----- ---- -------<br>--- --- -- ----- -- --- ---- -- --- ---- -- ------ ------<br>--- ----- -- ----",161375,161374.09999999963,160995.216,160998.80000000075,161011.958,161378.627,,9,"relationship,"
screen,html.Screen,2_1_0_1_10,2022-04-27T12:56:08.478Z,,,,,,,,,,,,,,,,,53,,,,,,,,,,,,,,351.27300000036485,,response,,,,99,,,,,,,Space,keypress(Space),,,,,,,,---- -- ----- -- ------ - ------- --- ----------<br>------------- common ------ ---- ---- ------- ----- -- ----<br>-------- ------- -- ---------- --- - --- ----- ----- ----<br>---- --- --- ----- --- ---- ---- ------- ----- ---- -------<br>--- --- -- ----- -- --- ---- -- --- ---- -- ------ ------<br>--- ----- -- ----,161730.80000000075,161729.90000000037,161361.951,161375.20000000112,161378.627,161745.34,,10,common
screen,html.Screen,2_1_0_1_11,2022-04-27T12:56:08.822Z,,,,,,,,,,,,,,,,,53,,,,,,,,,,,,,,328.75999999963096,,response,,,,99,,,,,,,Space,keypress(Space),,,,,,,,---- -- ----- -- ------ - ------- --- ----------<br>------------- ------ wisdom ---- ---- ------- ----- -- ----<br>-------- ------- -- ---------- --- - --- ----- ----- ----<br>---- --- --- ----- --- ---- ---- ------- ----- ---- -------<br>--- --- -- ----- -- --- ---- -- --- ---- -- ------ ------<br>--- ----- -- ----,162075.30000000075,162074.09999999963,161728.63,161731,161745.34,162078.677,,11,wisdom
screen,html.Screen,2_1_0_1_12,2022-04-27T12:56:09.210Z,,,,,,,,,,,,,,,,,53,,,,,,,,,,,,,,383.32300000000396,,response,,,,99,,,,,,,Space,keypress(Space),,,,,,,,---- -- ----- -- ------ - ------- --- ----------<br>------------- ------ ------ says ---- ------- ----- -- ----<br>-------- ------- -- ---------- --- - --- ----- ----- ----<br>---- --- --- ----- --- ---- ---- ------- ----- ---- -------<br>--- --- -- ----- -- --- ---- -- --- ---- -- ------ ------<br>--- ----- -- ----,162462.70000000112,162462,162061.972,162075.5,162078.677,162478.722,,12,says
screen,html.Screen,2_1_0_1_13,2022-04-27T12:56:09.542Z,,,,,,,,,,,,,,,,,53,,,,,,,,,,,,,,315.3779999996186,,response,,,,99,,,,,,,Space,keypress(Space),,,,,,,,---- -- ----- -- ------ - ------- --- ----------<br>------------- ------ ------ ---- that ------- ----- -- ----<br>-------- ------- -- ---------- --- - --- ----- ----- ----<br>---- --- --- ----- --- ---- ---- ------- ----- ---- -------<br>--- --- -- ----- -- --- ---- -- --- ---- -- ------ ------<br>--- ----- -- ----,162795,162794.09999999963,162462.018,162462.90000000037,162478.722,162812.082,,13,that
screen,html.Screen,2_1_0_1_14,2022-04-27T12:56:09.906Z,,,,,,,,,,,,,,,,,53,,,,,,,,,,,,,,346.0179999996326,,response,,,,99,,,,,,,Space,keypress(Space),,,,,,,,---- -- ----- -- ------ - ------- --- ----------<br>------------- ------ ------ ---- ---- feeling ----- -- ----<br>-------- ------- -- ---------- --- - --- ----- ----- ----<br>---- --- --- ----- --- ---- ---- ------- ----- ---- -------<br>--- --- -- ----- -- --- ---- -- --- ---- -- ------ ------<br>--- ----- -- ----,163158.90000000037,163158.09999999963,162795.385,162795.30000000075,162812.082,163162.1,,14,feeling
screen,html.Screen,2_1_0_1_15,2022-04-27T12:56:10.270Z,,,,,,,,,,,,,,,,,53,,,,,,,,,,,,,,360.3000000003667,,response,,,,99,,,,,,,Space,keypress(Space),,,,,,,,---- -- ----- -- ------ - ------- --- ----------<br>------------- ------ ------ ---- ---- ------- close -- ----<br>-------- ------- -- ---------- --- - --- ----- ----- ----<br>---- --- --- ----- --- ---- ---- ------- ----- ---- -------<br>--- --- -- ----- -- --- ---- -- --- ---- -- ------ ------<br>--- ----- -- ----,163523.20000000112,163522.40000000037,163145.408,163159,163162.1,163528.796,,15,close
screen,html.Screen,2_1_0_1_16,2022-04-27T12:56:10.609Z,,,,,,,,,,,,,,,,,53,,,,,,,,,,,,,,332.10400000037043,,response,,,,99,,,,,,,Space,keypress(Space),,,,,,,,---- -- ----- -- ------ - ------- --- ----------<br>------------- ------ ------ ---- ---- ------- ----- to ----<br>-------- ------- -- ---------- --- - --- ----- ----- ----<br>---- --- --- ----- --- ---- ---- ------- ----- ---- -------<br>--- --- -- ----- -- --- ---- -- --- ---- -- ------ ------<br>--- ----- -- ----,163861.70000000112,163860.90000000037,163512.086,163523.5,163528.796,163878.831,,16,to
screen,html.Screen,2_1_0_1_17,2022-04-27T12:56:10.969Z,,,,,,,,,,,,,,,,,53,,,,,,,,,,,,,,342.2689999996219,,response,,,,99,,,,,,,Space,keypress(Space),,,,,,,,---- -- ----- -- ------ - ------- --- ----------<br>------------- ------ ------ ---- ---- ------- ----- -- your<br>-------- ------- -- ---------- --- - --- ----- ----- ----<br>---- --- --- ----- --- ---- ---- ------- ----- ---- -------<br>--- --- -- ----- -- --- ---- -- --- ---- -- ------ ------<br>--- ----- -- ----,164221.80000000075,164221.09999999963,163862.119,163861.90000000037,163878.831,164228.858,,17,your
screen,html.Screen,2_1_0_1_18,2022-04-27T12:56:11.301Z,,,,,,,,,,,,,,,,,53,,,,,,,,,,,,,,324.0420000003651,,response,,,,99,,,,,,,Space,keypress(Space),,,,,,,,---- -- ----- -- ------ - ------- --- ----------<br>------------- ------ ------ ---- ---- ------- ----- -- ----<br>romantic ------- -- ---------- --- - --- ----- ----- ----<br>---- --- --- ----- --- ---- ---- ------- ----- ---- -------<br>--- --- -- ----- -- --- ---- -- --- ---- -- ------ ------<br>--- ----- -- ----,164553.80000000075,164552.90000000037,164212.16,164222,164228.858,164562.203,,18,romantic
screen,html.Screen,2_1_0_1_19,2022-04-27T12:56:11.665Z,,,,,,,,,,,,,,,,,53,,,,,,,,,,,,,,354.6970000003639,,response,,,,99,,,,,,,Space,keypress(Space),,,,,,,,---- -- ----- -- ------ - ------- --- ----------<br>------------- ------ ------ ---- ---- ------- ----- -- ----<br>-------- partner -- ---------- --- - --- ----- ----- ----<br>---- --- --- ----- --- ---- ---- ------- ----- ---- -------<br>--- --- -- ----- -- --- ---- -- --- ---- -- ------ ------<br>--- ----- -- ----,164917.70000000112,164916.90000000037,164545.507,164554,164562.203,164928.909,,19,partner
screen,html.Screen,2_1_0_1_20,2022-04-27T12:56:11.969Z,,,,,,,,,,,,,,,,,53,,,,,,,,,,,,,,292.0909999999858,,response,,,,99,,,,,,,Space,keypress(Space),,,,,,,,---- -- ----- -- ------ - ------- --- ----------<br>------------- ------ ------ ---- ---- ------- ----- -- ----<br>-------- ------- is ---------- --- - --- ----- ----- ----<br>---- --- --- ----- --- ---- ---- ------- ----- ---- -------<br>--- --- -- ----- -- --- ---- -- --- ---- -- ------ ------<br>--- ----- -- ----,165221.80000000075,165221,164912.209,164917.90000000037,164928.909,165228.936,,20,is
screen,html.Screen,2_1_0_1_21,2022-04-27T12:56:12.273Z,,,,,,,,,,,,,,,,,53,,,,,,,,,,,,,,296.6639999996405,,response,,,,99,,,,,,,Space,keypress(Space),,,,,,,,---- -- ----- -- ------ - ------- --- ----------<br>------------- ------ ------ ---- ---- ------- ----- -- ----<br>-------- ------- -- paramount. --- - --- ----- ----- ----<br>---- --- --- ----- --- ---- ---- ------- ----- ---- -------<br>--- --- -- ----- -- --- ---- -- --- ---- -- ------ ------<br>--- ----- -- ----,165526.40000000037,165525.59999999963,165212.228,165222.09999999963,165228.936,165528.902,,21,paramount.
screen,html.Screen,2_1_0_1_22,2022-04-27T12:56:12.621Z,,,,,,,,,,,,,,,,,53,,,,,,,,,,,,,,344.2980000011157,,response,,,,99,,,,,,,Space,keypress(Space),,,,,,,,---- -- ----- -- ------ - ------- --- ----------<br>------------- ------ ------ ---- ---- ------- ----- -- ----<br>-------- ------- -- ---------- But - --- ----- ----- ----<br>---- --- --- ----- --- ---- ---- ------- ----- ---- -------<br>--- --- -- ----- -- --- ---- -- --- ---- -- ------ ------<br>--- ----- -- ----,165874,165873.20000000112,165512.241,165526.59999999963,165528.902,165878.962,,22,But
screen,html.Screen,2_1_0_1_23,2022-04-27T12:56:12.941Z,,,,,,,,,,,,,,,,,53,,,,,,,,,,,,,,314.03800000000047,,response,,,,99,,,,,,,Space,keypress(Space),,,,,,,,---- -- ----- -- ------ - ------- --- ----------<br>------------- ------ ------ ---- ---- ------- ----- -- ----<br>-------- ------- -- ---------- --- a --- ----- ----- ----<br>---- --- --- ----- --- ---- ---- ------- ----- ---- -------<br>--- --- -- ----- -- --- ---- -- --- ---- -- ------ ------<br>--- ----- -- ----,166194,166193,165862.293,165874.30000000075,165878.962,166213.306,,23,a
screen,html.Screen,2_1_0_1_24,2022-04-27T12:56:13.309Z,,,,,,,,,,,,,,,,,53,,,,,,,,,,,,,,347.99400000073365,,response,,,,99,,,,,,,Space,keypress(Space),,,,,,,,---- -- ----- -- ------ - ------- --- ----------<br>------------- ------ ------ ---- ---- ------- ----- -- ----<br>-------- ------- -- ---------- --- - new ----- ----- ----<br>---- --- --- ----- --- ---- ---- ------- ----- ---- -------<br>--- --- -- ----- -- --- ---- -- --- ---- -- ------ ------<br>--- ----- -- ----,166562.09999999963,166561.30000000075,166178.982,166194.09999999963,166213.306,166579.024,,24,new
screen,html.Screen,2_1_0_1_25,2022-04-27T12:56:13.649Z,,,,,,,,,,,,,,,,,53,,,,,,,,,,,,,,321.87600000036764,,response,,,,99,,,,,,,Space,keypress(Space),,,,,,,,---- -- ----- -- ------ - ------- --- ----------<br>------------- ------ ------ ---- ---- ------- ----- -- ----<br>-------- ------- -- ---------- --- - --- study ----- ----<br>---- --- --- ----- --- ---- ---- ------- ----- ---- -------<br>--- --- -- ----- -- --- ---- -- --- ---- -- ------ ------<br>--- ----- -- ----,166901.70000000112,166900.90000000037,166562.322,166562.40000000037,166579.024,166912.415,,25,study
screen,html.Screen,2_1_0_1_26,2022-04-27T12:56:13.985Z,,,,,,,,,,,,,,,,,53,,,,,,,,,,,,,,324.3850000007369,,response,,,,99,,,,,,,Space,keypress(Space),,,,,,,,---- -- ----- -- ------ - ------- --- ----------<br>------------- ------ ------ ---- ---- ------- ----- -- ----<br>-------- ------- -- ---------- --- - --- ----- finds ----<br>---- --- --- ----- --- ---- ---- ------- ----- ---- -------<br>--- --- -- ----- -- --- ---- -- --- ---- -- ------ ------<br>--- ----- -- ----,167237.59999999963,167236.80000000075,166895.692,166901.90000000037,166912.415,167245.725,,26,finds
screen,html.Screen,2_1_0_1_27,2022-04-27T12:56:14.329Z,,,,,,,,,,,,,,,,,53,,,,,,,,,,,,,,335.2749999999942,,response,,,,99,,,,,,,Space,keypress(Space),,,,,,,,---- -- ----- -- ------ - ------- --- ----------<br>------------- ------ ------ ---- ---- ------- ----- -- ----<br>-------- ------- -- ---------- --- - --- ----- ----- that<br>---- --- --- ----- --- ---- ---- ------- ----- ---- -------<br>--- --- -- ----- -- --- ---- -- --- ---- -- ------ ------<br>--- ----- -- ----,167582.20000000112,167581,167229.024,167237.70000000112,167245.725,167595.782,,27,that
screen,html.Screen,2_1_0_1_28,2022-04-27T12:56:14.648Z,,,,,,,,,,,,,,,,,53,,,,,,,,,,,,,,304.618000000366,,response,,,,99,,,,,,,Space,keypress(Space),,,,,,,,---- -- ----- -- ------ - ------- --- ----------<br>------------- ------ ------ ---- ---- ------- ----- -- ----<br>-------- ------- -- ---------- --- - --- ----- ----- ----<br>it's --- --- ----- --- ---- ---- ------- ----- ---- -------<br>--- --- -- ----- -- --- ---- -- --- ---- -- ------ ------<br>--- ----- -- ----,167901.20000000112,167900.40000000037,167579.078,167582.40000000037,167595.782,167912.428,,28,it's
screen,html.Screen,2_1_0_1_29,2022-04-27T12:56:14.960Z,,,,,,,,,,,,,,,,,53,,,,,,,,,,,,,,299.27200000110315,,response,,,,99,,,,,,,Space,keypress(Space),,,,,,,,---- -- ----- -- ------ - ------- --- ----------<br>------------- ------ ------ ---- ---- ------- ----- -- ----<br>-------- ------- -- ---------- --- - --- ----- ----- ----<br>---- not --- ----- --- ---- ---- ------- ----- ---- -------<br>--- --- -- ----- -- --- ---- -- --- ---- -- ------ ------<br>--- ----- -- ----,168212.5,168211.70000000112,167895.782,167901.40000000037,167912.428,168229.173,,29,not
screen,html.Screen,2_1_0_1_30,2022-04-27T12:56:15.284Z,,,,,,,,,,,,,,,,,53,,,,,,,,,,,,,,306.6270000007353,,response,,,,99,,,,,,,Space,keypress(Space),,,,,,,,---- -- ----- -- ------ - ------- --- ----------<br>------------- ------ ------ ---- ---- ------- ----- -- ----<br>-------- ------- -- ---------- --- - --- ----- ----- ----<br>---- --- how ----- --- ---- ---- ------- ----- ---- -------<br>--- --- -- ----- -- --- ---- -- --- ---- -- ------ ------<br>--- ----- -- ----,168536.70000000112,168535.80000000075,168212.459,168212.70000000112,168229.173,168545.847,,30,how
screen,html.Screen,2_1_0_1_31,2022-04-27T12:56:15.594Z,,,,,,,,,,,,,,,,,53,,,,,,,,,,,,,,298.15299999999115,,response,,,,99,,,,,,,Space,keypress(Space),,,,,,,,---- -- ----- -- ------ - ------- --- ----------<br>------------- ------ ------ ---- ---- ------- ----- -- ----<br>-------- ------- -- ---------- --- - --- ----- ----- ----<br>---- --- --- close --- ---- ---- ------- ----- ---- -------<br>--- --- -- ----- -- --- ---- -- --- ---- -- ------ ------<br>--- ----- -- ----,168846.5,168844,168529.169,168536.80000000075,168545.847,168862.559,,31,close
screen,html.Screen,2_1_0_1_32,2022-04-27T12:56:15.912Z,,,,,,,,,,,,,,,,,53,,,,,,,,,,,,,,301.9409999999916,,response,,,,99,,,,,,,Space,keypress(Space),,,,,,,,---- -- ----- -- ------ - ------- --- ----------<br>------------- ------ ------ ---- ---- ------- ----- -- ----<br>-------- ------- -- ---------- --- - --- ----- ----- ----<br>---- --- --- ----- you ---- ---- ------- ----- ---- -------<br>--- --- -- ----- -- --- ---- -- --- ---- -- ------ ------<br>--- ----- -- ----,169165.30000000075,169164.5,168845.808,168846.80000000075,168862.559,169179.23,,32,you
screen,html.Screen,2_1_0_1_33,2022-04-27T12:56:16.212Z,,,,,,,,,,,,,,,,,53,,,,,,,,,,,,,,285.0700000007346,,response,,,,99,,,,,,,Space,keypress(Space),,,,,,,,---- -- ----- -- ------ - ------- --- ----------<br>------------- ------ ------ ---- ---- ------- ----- -- ----<br>-------- ------- -- ---------- --- - --- ----- ----- ----<br>---- --- --- ----- --- feel ---- ------- ----- ---- -------<br>--- --- -- ----- -- --- ---- -- --- ---- -- ------ ------<br>--- ----- -- ----,169465.20000000112,169464.30000000075,169162.528,169165.59999999963,169179.23,169479.267,,33,feel
screen,html.Screen,2_1_0_1_34,2022-04-27T12:56:16.552Z,,,,,,,,,,,,,,,,,53,,,,,,,,,,,,,,324.73300000000745,,response,,,,99,,,,,,,Space,keypress(Space),,,,,,,,---- -- ----- -- ------ - ------- --- ----------<br>------------- ------ ------ ---- ---- ------- ----- -- ----<br>-------- ------- -- ---------- --- - --- ----- ----- ----<br>---- --- --- ----- --- ---- that ------- ----- ---- -------<br>--- --- -- ----- -- --- ---- -- --- ---- -- ------ ------<br>--- ----- -- ----,169804.90000000037,169804,169462.541,169465.5,169479.267,169812.6,,34,that
screen,html.Screen,2_1_0_1_35,2022-04-27T12:56:16.852Z,,,,,,,,,,,,,,,,,53,,,,,,,,,,,,,,291.49999999962165,,response,,,,99,,,,,,,Space,keypress(Space),,,,,,,,---- -- ----- -- ------ - ------- --- ----------<br>------------- ------ ------ ---- ---- ------- ----- -- ----<br>-------- ------- -- ---------- --- - --- ----- ----- ----<br>---- --- --- ----- --- ---- ---- matters ----- ---- -------<br>--- --- -- ----- -- --- ---- -- --- ---- -- ------ ------<br>--- ----- -- ----,170105.09999999963,170104.09999999963,169795.89,169805.09999999963,169812.6,170112.653,,35,matters
screen,html.Screen,2_1_0_1_36,2022-04-27T12:56:17.176Z,,,,,,,,,,,,,,,,,53,,,,,,,,,,,,,,315.4469999996363,,response,,,,99,,,,,,,Space,keypress(Space),,,,,,,,"---- -- ----- -- ------ - ------- --- ----------<br>------------- ------ ------ ---- ---- ------- ----- -- ----<br>-------- ------- -- ---------- --- - --- ----- ----- ----<br>---- --- --- ----- --- ---- ---- ------- most, ---- -------<br>--- --- -- ----- -- --- ---- -- --- ---- -- ------ ------<br>--- ----- -- ----",170429,170428.09999999963,170095.923,170105.30000000075,170112.653,170445.956,,36,"most,"
screen,html.Screen,2_1_0_1_37,2022-04-27T12:56:17.496Z,,,,,,,,,,,,,,,,,53,,,,,,,,,,,,,,301.84400000073947,,response,,,,99,,,,,,,Space,keypress(Space),,,,,,,,---- -- ----- -- ------ - ------- --- ----------<br>------------- ------ ------ ---- ---- ------- ----- -- ----<br>-------- ------- -- ---------- --- - --- ----- ----- ----<br>---- --- --- ----- --- ---- ---- ------- ----- it's -------<br>--- --- -- ----- -- --- ---- -- --- ---- -- ------ ------<br>--- ----- -- ----,170748.59999999963,170747.80000000075,170429.286,170429.20000000112,170445.956,170762.686,,37,it's
screen,html.Screen,2_1_0_1_38,2022-04-27T12:56:17.813Z,,,,,,,,,,,,,,,,,53,,,,,,,,,,,,,,302.21400000038557,,response,,,,99,,,,,,,Space,keypress(Space),,,,,,,,---- -- ----- -- ------ - ------- --- ----------<br>------------- ------ ------ ---- ---- ------- ----- -- ----<br>-------- ------- -- ---------- --- - --- ----- ----- ----<br>---- --- --- ----- --- ---- ---- ------- ----- ---- whether<br>--- --- -- ----- -- --- ---- -- --- ---- -- ------ ------<br>--- ----- -- ----,171066,171064.90000000037,170745.947,170748.90000000037,170762.686,171079.439,,38,whether
screen,html.Screen,2_1_0_1_39,2022-04-27T12:56:18.120Z,,,,,,,,,,,,,,,,,53,,,,,,,,,,,,,,292.4610000003595,,response,,,,99,,,,,,,Space,keypress(Space),,,,,,,,---- -- ----- -- ------ - ------- --- ----------<br>------------- ------ ------ ---- ---- ------- ----- -- ----<br>-------- ------- -- ---------- --- - --- ----- ----- ----<br>---- --- --- ----- --- ---- ---- ------- ----- ---- -------<br>you --- -- ----- -- --- ---- -- --- ---- -- ------ ------<br>--- ----- -- ----,171372.80000000075,171371.90000000037,171062.654,171066.30000000075,171079.439,171379.364,,39,you
screen,html.Screen,2_1_0_1_40,2022-04-27T12:56:18.415Z,,,,,,,,,,,,,,,,,53,,,,,,,,,,,,,,288.1359999999986,,response,,,,99,,,,,,,Space,keypress(Space),,,,,,,,---- -- ----- -- ------ - ------- --- ----------<br>------------- ------ ------ ---- ---- ------- ----- -- ----<br>-------- ------- -- ---------- --- - --- ----- ----- ----<br>---- --- --- ----- --- ---- ---- ------- ----- ---- -------<br>--- are -- ----- -- --- ---- -- --- ---- -- ------ ------<br>--- ----- -- ----,171668.40000000037,171667.5,171362.687,171373.09999999963,171379.364,171679.401,,40,are
screen,html.Screen,2_1_0_1_41,2022-04-27T12:56:18.686Z,,,,,,,,,,,,,,,,,53,,,,,,,,,,,,,,259.299000001105,,response,,,,99,,,,,,,Space,keypress(Space),,,,,,,,---- -- ----- -- ------ - ------- --- ----------<br>------------- ------ ------ ---- ---- ------- ----- -- ----<br>-------- ------- -- ---------- --- - --- ----- ----- ----<br>---- --- --- ----- --- ---- ---- ------- ----- ---- -------<br>--- --- as ----- -- --- ---- -- --- ---- -- ------ ------<br>--- ----- -- ----,171939.5,171938.70000000112,171662.752,171668.70000000112,171679.401,171946.167,,41,as
screen,html.Screen,2_1_0_1_42,2022-04-27T12:56:18.971Z,,,,,,,,,,,,,,,,,53,,,,,,,,,,,,,,276.93299999964074,,response,,,,99,,,,,,,Space,keypress(Space),,,,,,,,---- -- ----- -- ------ - ------- --- ----------<br>------------- ------ ------ ---- ---- ------- ----- -- ----<br>-------- ------- -- ---------- --- - --- ----- ----- ----<br>---- --- --- ----- --- ---- ---- ------- ----- ---- -------<br>--- --- -- close -- --- ---- -- --- ---- -- ------ ------<br>--- ----- -- ----,172223.90000000037,172223.09999999963,171929.388,171939.70000000112,171946.167,172229.45,,42,close
screen,html.Screen,2_1_0_1_43,2022-04-27T12:56:19.223Z,,,,,,,,,,,,,,,,,53,,,,,,,,,,,,,,245.25000000110595,,response,,,,99,,,,,,,Space,keypress(Space),,,,,,,,---- -- ----- -- ------ - ------- --- ----------<br>------------- ------ ------ ---- ---- ------- ----- -- ----<br>-------- ------- -- ---------- --- - --- ----- ----- ----<br>---- --- --- ----- --- ---- ---- ------- ----- ---- -------<br>--- --- -- ----- as --- ---- -- --- ---- -- ------ ------<br>--- ----- -- ----,172475.59999999963,172474.70000000112,172212.746,172224.09999999963,172229.45,172479.477,,43,as
screen,html.Screen,2_1_0_1_44,2022-04-27T12:56:19.483Z,,,,,,,,,,,,,,,,,53,,,,,,,,,,,,,,255.32300000073155,,response,,,,99,,,,,,,Space,keypress(Space),,,,,,,,---- -- ----- -- ------ - ------- --- ----------<br>------------- ------ ------ ---- ---- ------- ----- -- ----<br>-------- ------- -- ---------- --- - --- ----- ----- ----<br>---- --- --- ----- --- ---- ---- ------- ----- ---- -------<br>--- --- -- ----- -- you ---- -- --- ---- -- ------ ------<br>--- ----- -- ----,172735.70000000112,172734.80000000075,172462.79,172475.80000000075,172479.477,172746.142,,44,you
screen,html.Screen,2_1_0_1_45,2022-04-27T12:56:19.759Z,,,,,,,,,,,,,,,,,53,,,,,,,,,,,,,,264.9579999996349,,response,,,,99,,,,,,,Space,keypress(Space),,,,,,,,---- -- ----- -- ------ - ------- --- ----------<br>------------- ------ ------ ---- ---- ------- ----- -- ----<br>-------- ------- -- ---------- --- - --- ----- ----- ----<br>---- --- --- ----- --- ---- ---- ------- ----- ---- -------<br>--- --- -- ----- -- --- want -- --- ---- -- ------ ------<br>--- ----- -- ----,173012,173011.09999999963,172729.519,172736,172746.142,173032.475,,45,want
screen,html.Screen,2_1_0_1_46,2022-04-27T12:56:20.023Z,,,,,,,,,,,,,,,,,53,,,,,,,,,,,,,,243.02499999999418,,response,,,,99,,,,,,,Space,keypress(Space),,,,,,,,---- -- ----- -- ------ - ------- --- ----------<br>------------- ------ ------ ---- ---- ------- ----- -- ----<br>-------- ------- -- ---------- --- - --- ----- ----- ----<br>---- --- --- ----- --- ---- ---- ------- ----- ---- -------<br>--- --- -- ----- -- --- ---- to --- ---- -- ------ ------<br>--- ----- -- ----,173276.40000000037,173275.5,172996.168,173012.20000000112,173032.475,173279.565,,46,to
screen,html.Screen,2_1_0_1_47,2022-04-27T12:56:20.291Z,,,,,,,,,,,,,,,,,53,,,,,,,,,,,,,,263.8350000003702,,response,,,,99,,,,,,,Space,keypress(Space),,,,,,,,"---- -- ----- -- ------ - ------- --- ----------<br>------------- ------ ------ ---- ---- ------- ----- -- ----<br>-------- ------- -- ---------- --- - --- ----- ----- ----<br>---- --- --- ----- --- ---- ---- ------- ----- ---- -------<br>--- --- -- ----- -- --- ---- -- be, ---- -- ------ ------<br>--- ----- -- ----",173544.30000000075,173543.40000000037,173262.887,173276.59999999963,173279.565,173546.363,,47,"be,"
screen,html.Screen,2_1_0_1_48,2022-04-27T12:56:20.555Z,,,,,,,,,,,,,,,,,53,,,,,,,,,,,,,,260.43700000073295,,response,,,,99,,,,,,,Space,keypress(Space),,,,,,,,---- -- ----- -- ------ - ------- --- ----------<br>------------- ------ ------ ---- ---- ------- ----- -- ----<br>-------- ------- -- ---------- --- - --- ----- ----- ----<br>---- --- --- ----- --- ---- ---- ------- ----- ---- -------<br>--- --- -- ----- -- --- ---- -- --- even -- ------ ------<br>--- ----- -- ----,173807.59999999963,173806.80000000075,173529.507,173544.40000000037,173546.363,173812.931,,48,even
screen,html.Screen,2_1_0_1_49,2022-04-27T12:56:20.816Z,,,,,,,,,,,,,,,,,53,,,,,,,,,,,,,,254.86900000073365,,response,,,,99,,,,,,,Space,keypress(Space),,,,,,,,---- -- ----- -- ------ - ------- --- ----------<br>------------- ------ ------ ---- ---- ------- ----- -- ----<br>-------- ------- -- ---------- --- - --- ----- ----- ----<br>---- --- --- ----- --- ---- ---- ------- ----- ---- -------<br>--- --- -- ----- -- --- ---- -- --- ---- if ------ ------<br>--- ----- -- ----,174068.90000000037,174067.80000000075,173796.227,173807.80000000075,173812.931,174079.599,,49,if
screen,html.Screen,2_1_0_1_50,2022-04-27T12:56:21.091Z,,,,,,,,,,,,,,,,,53,,,,,,,,,,,,,,263.50099999964004,,response,,,,99,,,,,,,Space,keypress(Space),,,,,,,,---- -- ----- -- ------ - ------- --- ----------<br>------------- ------ ------ ---- ---- ------- ----- -- ----<br>-------- ------- -- ---------- --- - --- ----- ----- ----<br>---- --- --- ----- --- ---- ---- ------- ----- ---- -------<br>--- --- -- ----- -- --- ---- -- --- ---- -- that's ------<br>--- ----- -- ----,174344,174343.09999999963,174062.92,174069.09999999963,174079.599,174346.322,,50,that's
screen,html.Screen,2_1_0_1_51,2022-04-27T12:56:21.407Z,,,,,,,,,,,,,,,,,53,,,,,,,,,,,,,,312.878000001132,,response,,,,99,,,,,,,Space,keypress(Space),,,,,,,,---- -- ----- -- ------ - ------- --- ----------<br>------------- ------ ------ ---- ---- ------- ----- -- ----<br>-------- ------- -- ---------- --- - --- ----- ----- ----<br>---- --- --- ----- --- ---- ---- ------- ----- ---- -------<br>--- --- -- ----- -- --- ---- -- --- ---- -- ------ really<br>--- ----- -- ----,174659.90000000037,174659.20000000112,174329.607,174344.09999999963,174346.322,174662.994,,51,really
screen,html.Screen,2_1_0_1_52,2022-04-27T12:56:21.743Z,,,,,,,,,,,,,,,,,53,,,,,,,,,,,,,,331.9060000003665,,response,,,,99,,,,,,,Space,keypress(Space),,,,,,,,---- -- ----- -- ------ - ------- --- ----------<br>------------- ------ ------ ---- ---- ------- ----- -- ----<br>-------- ------- -- ---------- --- - --- ----- ----- ----<br>---- --- --- ----- --- ---- ---- ------- ----- ---- -------<br>--- --- -- ----- -- --- ---- -- --- ---- -- ------ ------<br>not ----- -- ----,174996,174994.90000000037,174646.313,174660.20000000112,174662.994,175013.008,,52,not
screen,html.Screen,2_1_0_1_53,2022-04-27T12:56:22.066Z,,,,,,,,,,,,,,,,,53,,,,,,,,,,,,,,305.59199999962584,,response,,,,99,,,,,,,Space,keypress(Space),,,,,,,,---- -- ----- -- ------ - ------- --- ----------<br>------------- ------ ------ ---- ---- ------- ----- -- ----<br>-------- ------- -- ---------- --- - --- ----- ----- ----<br>---- --- --- ----- --- ---- ---- ------- ----- ---- -------<br>--- --- -- ----- -- --- ---- -- --- ---- -- ------ ------<br>--- close -- ----,175319.5,175318.59999999963,174996.307,174996.09999999963,175013.008,175329.683,,53,close
screen,html.Screen,2_1_0_1_54,2022-04-27T12:56:22.382Z,,,,,,,,,,,,,,,,,53,,,,,,,,,,,,,,304.11700000075507,,response,,,,99,,,,,,,Space,keypress(Space),,,,,,,,---- -- ----- -- ------ - ------- --- ----------<br>------------- ------ ------ ---- ---- ------- ----- -- ----<br>-------- ------- -- ---------- --- - --- ----- ----- ----<br>---- --- --- ----- --- ---- ---- ------- ----- ---- -------<br>--- --- -- ----- -- --- ---- -- --- ---- -- ------ ------<br>--- ----- at ----,175634.90000000037,175633.80000000075,175313.035,175319.59999999963,175329.683,175646.374,,54,at
screen,html.Screen,2_1_0_1_55,2022-04-27T12:56:22.966Z,,,,,,,,,,,,,,,,,53,,,,,,,,,,,,,,571.4260000007343,,response,,,,99,,,,,,,Space,keypress(Space),,,,,,,,---- -- ----- -- ------ - ------- --- ----------<br>------------- ------ ------ ---- ---- ------- ----- -- ----<br>-------- ------- -- ---------- --- - --- ----- ----- ----<br>---- --- --- ----- --- ---- ---- ------- ----- ---- -------<br>--- --- -- ----- -- --- ---- -- --- ---- -- ------ ------<br>--- ----- -- all.,176218.59999999963,176217.80000000075,175629.661,175635.09999999963,175646.374,176229.759,,55,all.
Item 99,flow.Loop,2_1_0_1,2022-04-27T12:56:22.966Z,,,,,,,,,,,,,,,,,,,,,,,,,,,,,,,23456.451000000758,,completion,,,,,C,,,,,,,,,,,silence,,,,,176219.09999999963,176217.80000000075,152744.633,152746.80000000075,152761.349,176229.759,,,
Question 1,html.Screen,2_1_0_2,2022-04-27T12:56:26.866Z,,,,,,,,,,,,,,,,,,,,,,,,,,,,true,FALSE,,3887.041000000754,,response,,,,99,C,,,,,,FALSE,click #choice-2,,,,silence,,,,,180118.80000000075,180116.80000000075,176212.984,176219.20000000112,176229.759,180130.693,,,
Question 2,html.Screen,2_1_0_3,2022-04-27T12:56:33.373Z,,,,,,,,,,,,,,,,,,,,,,,,,,,,true,TRUE,,6492.807000000001,,response,,,,99,C,,,,,,TRUE,click #choice-1,,,,silence,,,,,186625.5,186623.5,180113.358,180119,180130.693,186630.564,,,
Item 99,flow.Sequence,2_1_0,2022-04-27T12:56:33.373Z,,,,,,,,,,,,,,,,,,,,,,,,,,,,,,,43862.897,,completion,,,,,,,,,,,,,,,,,,,,,186625.90000000037,186623.5,142743.869,142752.20000000112,142760.603,186630.564,,,
Holding screen,html.Screen,2_1_1_0,2022-04-27T12:56:43.363Z,,,,,,,,,,,,,,,,,,,,,,,,,,,,,,,10000.74099999998,,timeout,,,,,,,,,,,,,,,,,,,,,196615.5,196614.655,186613.851,186626.30000000075,186630.564,196631.305,,,
screen,html.Screen,2_1_1_1_0,2022-04-27T12:56:48.568Z,,,,,,,,,,,,,,,,,54,,,,,,,,,,,,,,5188.7949999996345,,response,,,,100,,,,,,,Space,keypress(Space),,,,,,,,At --- ---- --- ------ ----- ------- ---- -- --- ------- --<br>------- ---------- ------ -- ----- -- ----- -- ---- ------<br>--- ----- --- --- ------ -------- ----- --- ------ ----- --<br>----- ----- ---------- --- --- ------ ------ ---- -- ------<br>------- --- ------ ----- --- ---- ------- -- ---- --- --<br>------- ------,201820.90000000037,201820.09999999963,196614.655,196615.70000000112,196631.305,201831.775,,0,At
screen,html.Screen,2_1_1_1_1,2022-04-27T12:56:48.880Z,,,,,,,,,,,,,,,,,54,,,,,,,,,,,,,,300.4250000011234,,response,,,,100,,,,,,,Space,keypress(Space),,,,,,,,-- the ---- --- ------ ----- ------- ---- -- --- ------- --<br>------- ---------- ------ -- ----- -- ----- -- ---- ------<br>--- ----- --- --- ------ -------- ----- --- ------ ----- --<br>----- ----- ---------- --- --- ------ ------ ---- -- ------<br>------- --- ------ ----- --- ---- ------- -- ---- --- --<br>------- ------,202133,202132.20000000112,201814.43,201821,201831.775,202148.388,,1,the
screen,html.Screen,2_1_1_1_2,2022-04-27T12:56:49.116Z,,,,,,,,,,,,,,,,,54,,,,,,,,,,,,,,219.3120000011113,,response,,,,100,,,,,,,Space,keypress(Space),,,,,,,,-- --- time --- ------ ----- ------- ---- -- --- ------- --<br>------- ---------- ------ -- ----- -- ----- -- ---- ------<br>--- ----- --- --- ------ -------- ----- --- ------ ----- --<br>----- ----- ---------- --- --- ------ ------ ---- -- ------<br>------- --- ------ ----- --- ---- ------- -- ---- --- --<br>------- ------,202368.5,202367.70000000112,202131.692,202133.20000000112,202148.388,202381.709,,2,time
screen,html.Screen,2_1_1_1_3,2022-04-27T12:56:49.400Z,,,,,,,,,,,,,,,,,54,,,,,,,,,,,,,,270.19100000036997,,response,,,,100,,,,,,,Space,keypress(Space),,,,,,,,-- --- ---- the ------ ----- ------- ---- -- --- ------- --<br>------- ---------- ------ -- ----- -- ----- -- ---- ------<br>--- ----- --- --- ------ -------- ----- --- ------ ----- --<br>----- ----- ---------- --- --- ------ ------ ---- -- ------<br>------- --- ------ ----- --- ---- ------- -- ---- --- --<br>------- ------,202652.70000000112,202651.90000000037,202365.021,202368.70000000112,202381.709,202665.122,,3,the
screen,html.Screen,2_1_1_1_4,2022-04-27T12:56:49.699Z,,,,,,,,,,,,,,,,,54,,,,,,,,,,,,,,285.877999999997,,response,,,,100,,,,,,,Space,keypress(Space),,,,,,,,-- --- ---- --- French ----- ------- ---- -- --- ------- --<br>------- ---------- ------ -- ----- -- ----- -- ---- ------<br>--- ----- --- --- ------ -------- ----- --- ------ ----- --<br>----- ----- ---------- --- --- ------ ------ ---- -- ------<br>------- --- ------ ----- --- ---- ------- -- ---- --- --<br>------- ------,202951.80000000075,202951,202648.429,202652.90000000037,202665.122,202965.09,,4,French
screen,html.Screen,2_1_1_1_5,2022-04-27T12:56:49.999Z,,,,,,,,,,,,,,,,,54,,,,,,,,,,,,,,285.4100000000035,,response,,,,100,,,,,,,Space,keypress(Space),,,,,,,,-- --- ---- --- ------ crown ------- ---- -- --- ------- --<br>------- ---------- ------ -- ----- -- ----- -- ---- ------<br>--- ----- --- --- ------ -------- ----- --- ------ ----- --<br>----- ----- ---------- --- --- ------ ------ ---- -- ------<br>------- --- ------ ----- --- ---- ------- -- ---- --- --<br>------- ------,203251.5,203250.5,202948.415,202952,202965.09,203265.149,,5,crown
screen,html.Screen,2_1_1_1_6,2022-04-27T12:56:50.318Z,,,,,,,,,,,,,,,,,54,,,,,,,,,,,,,,305.3509999999951,,response,,,,100,,,,,,,Space,keypress(Space),,,,,,,,-- --- ---- --- ------ ----- secured ---- -- --- ------- --<br>------- ---------- ------ -- ----- -- ----- -- ---- ------<br>--- ----- --- --- ------ -------- ----- --- ------ ----- --<br>----- ----- ---------- --- --- ------ ------ ---- -- ------<br>------- --- ------ ----- --- ---- ------- -- ---- --- --<br>------- ------,203571.20000000112,203570.5,203248.444,203251.59999999963,203265.149,203581.87,,6,secured
screen,html.Screen,2_1_1_1_7,2022-04-27T12:56:50.639Z,,,,,,,,,,,,,,,,,54,,,,,,,,,,,,,,308.83000000112224,,response,,,,100,,,,,,,Space,keypress(Space),,,,,,,,-- --- ---- --- ------ ----- ------- much -- --- ------- --<br>------- ---------- ------ -- ----- -- ----- -- ---- ------<br>--- ----- --- --- ------ -------- ----- --- ------ ----- --<br>----- ----- ---------- --- --- ------ ------ ---- -- ------<br>------- --- ------ ----- --- ---- ------- -- ---- --- --<br>------- ------,203891.5,203890.70000000112,203565.148,203571.40000000037,203581.87,203898.515,,7,much
screen,html.Screen,2_1_1_1_8,2022-04-27T12:56:50.939Z,,,,,,,,,,,,,,,,,54,,,,,,,,,,,,,,292.2850000007311,,response,,,,100,,,,,,,Space,keypress(Space),,,,,,,,-- --- ---- --- ------ ----- ------- ---- of --- ------- --<br>------- ---------- ------ -- ----- -- ----- -- ---- ------<br>--- ----- --- --- ------ -------- ----- --- ------ ----- --<br>----- ----- ---------- --- --- ------ ------ ---- -- ------<br>------- --- ------ ----- --- ---- ------- -- ---- --- --<br>------- ------,204191.5,204190.80000000075,203881.853,203891.70000000112,203898.515,204198.548,,8,of
screen,html.Screen,2_1_1_1_9,2022-04-27T12:56:51.223Z,,,,,,,,,,,,,,,,,54,,,,,,,,,,,,,,276.1520000011078,,response,,,,100,,,,,,,Space,keypress(Space),,,,,,,,-- --- ---- --- ------ ----- ------- ---- -- its ------- --<br>------- ---------- ------ -- ----- -- ----- -- ---- ------<br>--- ----- --- --- ------ -------- ----- --- ------ ----- --<br>----- ----- ---------- --- --- ------ ------ ---- -- ------<br>------- --- ------ ----- --- ---- ------- -- ---- --- --<br>------- ------,204475.5,204474.70000000112,204181.857,204191.70000000112,204198.548,204481.903,,9,its
screen,html.Screen,2_1_1_1_10,2022-04-27T12:56:51.511Z,,,,,,,,,,,,,,,,,54,,,,,,,,,,,,,,280.9970000003814,,response,,,,100,,,,,,,Space,keypress(Space),,,,,,,,-- --- ---- --- ------ ----- ------- ---- -- --- revenue --<br>------- ---------- ------ -- ----- -- ----- -- ---- ------<br>--- ----- --- --- ------ -------- ----- --- ------ ----- --<br>----- ----- ---------- --- --- ------ ------ ---- -- ------<br>------- --- ------ ----- --- ---- ------- -- ---- --- --<br>------- ------,204763.70000000112,204762.90000000037,204465.216,204475.70000000112,204481.903,204797.664,,10,revenue
screen,html.Screen,2_1_1_1_11,2022-04-27T12:56:51.827Z,,,,,,,,,,,,,,,,,54,,,,,,,,,,,,,,280.83600000001024,,response,,,,100,,,,,,,Space,keypress(Space),,,,,,,,-- --- ---- --- ------ ----- ------- ---- -- --- ------- by<br>------- ---------- ------ -- ----- -- ----- -- ---- ------<br>--- ----- --- --- ------ -------- ----- --- ------ ----- --<br>----- ----- ---------- --- --- ------ ------ ---- -- ------<br>------- --- ------ ----- --- ---- ------- -- ---- --- --<br>------- ------,205079.40000000037,205078.5,204748.541,204763.90000000037,204797.664,205081.948,,11,by
screen,html.Screen,2_1_1_1_12,2022-04-27T12:56:52.127Z,,,,,,,,,,,,,,,,,54,,,,,,,,,,,,,,296.8520000007411,,response,,,,100,,,,,,,Space,keypress(Space),,,,,,,,-- --- ---- --- ------ ----- ------- ---- -- --- ------- --<br>issuing ---------- ------ -- ----- -- ----- -- ---- ------<br>--- ----- --- --- ------ -------- ----- --- ------ ----- --<br>----- ----- ---------- --- --- ------ ------ ---- -- ------<br>------- --- ------ ----- --- ---- ------- -- ---- --- --<br>------- ------,205379.59999999963,205378.80000000075,205065.249,205079.5,205081.948,205381.947,,12,issuing
screen,html.Screen,2_1_1_1_13,2022-04-27T12:56:52.415Z,,,,,,,,,,,,,,,,,54,,,,,,,,,,,,,,284.6529999996419,,response,,,,100,,,,,,,Space,keypress(Space),,,,,,,,-- --- ---- --- ------ ----- ------- ---- -- --- ------- --<br>------- government ------ -- ----- -- ----- -- ---- ------<br>--- ----- --- --- ------ -------- ----- --- ------ ----- --<br>----- ----- ---------- --- --- ------ ------ ---- -- ------<br>------- --- ------ ----- --- ---- ------- -- ---- --- --<br>------- ------,205667.40000000037,205666.59999999963,205365.285,205379.80000000075,205381.947,205682.015,,13,government
screen,html.Screen,2_1_1_1_14,2022-04-27T12:56:52.714Z,,,,,,,,,,,,,,,,,54,,,,,,,,,,,,,,284.0849999996135,,response,,,,100,,,,,,,Space,keypress(Space),,,,,,,,-- --- ---- --- ------ ----- ------- ---- -- --- ------- --<br>------- ---------- bonds. -- ----- -- ----- -- ---- ------<br>--- ----- --- --- ------ -------- ----- --- ------ ----- --<br>----- ----- ---------- --- --- ------ ------ ---- -- ------<br>------- --- ------ ----- --- ---- ------- -- ---- --- --<br>------- ------,205967,205966.09999999963,205665.29,205667.59999999963,205682.015,205982.029,,14,bonds.
screen,html.Screen,2_1_1_1_15,2022-04-27T12:56:53.015Z,,,,,,,,,,,,,,,,,54,,,,,,,,,,,,,,284.871000000363,,response,,,,100,,,,,,,Space,keypress(Space),,,,,,,,-- --- ---- --- ------ ----- ------- ---- -- --- ------- --<br>------- ---------- ------ In ----- -- ----- -- ---- ------<br>--- ----- --- --- ------ -------- ----- --- ------ ----- --<br>----- ----- ---------- --- --- ------ ------ ---- -- ------<br>------- --- ------ ----- --- ---- ------- -- ---- --- --<br>------- ------,206267.59999999963,206266.90000000037,205965.329,205967.30000000075,205982.029,206282.07,,15,In
screen,html.Screen,2_1_1_1_16,2022-04-27T12:56:53.303Z,,,,,,,,,,,,,,,,,54,,,,,,,,,,,,,,272.6300000011106,,response,,,,100,,,,,,,Space,keypress(Space),,,,,,,,"-- --- ---- --- ------ ----- ------- ---- -- --- ------- --<br>------- ---------- ------ -- 1727, -- ----- -- ---- ------<br>--- ----- --- --- ------ -------- ----- --- ------ ----- --<br>----- ----- ---------- --- --- ------ ------ ---- -- ------<br>------- --- ------ ----- --- ---- ------- -- ---- --- --<br>------- ------",206555.5,206554.70000000112,206265.346,206267.90000000037,206282.07,206565.416,,16,"1727,"
screen,html.Screen,2_1_1_1_17,2022-04-27T12:56:53.583Z,,,,,,,,,,,,,,,,,54,,,,,,,,,,,,,,269.28400000112015,,response,,,,100,,,,,,,Space,keypress(Space),,,,,,,,-- --- ---- --- ------ ----- ------- ---- -- --- ------- --<br>------- ---------- ------ -- ----- in ----- -- ---- ------<br>--- ----- --- --- ------ -------- ----- --- ------ ----- --<br>----- ----- ---------- --- --- ------ ------ ---- -- ------<br>------- --- ------ ----- --- ---- ------- -- ---- --- --<br>------- ------,206835.70000000112,206834.70000000112,206548.695,206555.70000000112,206565.416,206848.74,,17,in
screen,html.Screen,2_1_1_1_18,2022-04-27T12:56:53.854Z,,,,,,,,,,,,,,,,,54,,,,,,,,,,,,,,257.16000000038184,,response,,,,100,,,,,,,Space,keypress(Space),,,,,,,,-- --- ---- --- ------ ----- ------- ---- -- --- ------- --<br>------- ---------- ------ -- ----- -- order -- ---- ------<br>--- ----- --- --- ------ -------- ----- --- ------ ----- --<br>----- ----- ---------- --- --- ------ ------ ---- -- ------<br>------- --- ------ ----- --- ---- ------- -- ---- --- --<br>------- ------,207106.90000000037,207105.90000000037,206832.051,206835.90000000037,206848.74,207115.44,,18,order
screen,html.Screen,2_1_1_1_19,2022-04-27T12:56:54.126Z,,,,,,,,,,,,,,,,,54,,,,,,,,,,,,,,262.26000000111526,,response,,,,100,,,,,,,Space,keypress(Space),,,,,,,,-- --- ---- --- ------ ----- ------- ---- -- --- ------- --<br>------- ---------- ------ -- ----- -- ----- to ---- ------<br>--- ----- --- --- ------ -------- ----- --- ------ ----- --<br>----- ----- ---------- --- --- ------ ------ ---- -- ------<br>------- --- ------ ----- --- ---- ------- -- ---- --- --<br>------- ------,207378.59999999963,207377.70000000112,207098.765,207107.09999999963,207115.44,207382.147,,19,to
screen,html.Screen,2_1_1_1_20,2022-04-27T12:56:54.398Z,,,,,,,,,,,,,,,,,54,,,,,,,,,,,,,,267.95299999963026,,response,,,,100,,,,,,,Space,keypress(Space),,,,,,,,-- --- ---- --- ------ ----- ------- ---- -- --- ------- --<br>------- ---------- ------ -- ----- -- ----- -- save ------<br>--- ----- --- --- ------ -------- ----- --- ------ ----- --<br>----- ----- ---------- --- --- ------ ------ ---- -- ------<br>------- --- ------ ----- --- ---- ------- -- ---- --- --<br>------- ------,207650.90000000037,207650.09999999963,207365.402,207378.70000000112,207382.147,207665.745,,20,save
screen,html.Screen,2_1_1_1_21,2022-04-27T12:56:54.658Z,,,,,,,,,,,,,,,,,54,,,,,,,,,,,,,,243.95500000112224,,response,,,,100,,,,,,,Space,keypress(Space),,,,,,,,"-- --- ---- --- ------ ----- ------- ---- -- --- ------- --<br>------- ---------- ------ -- ----- -- ----- -- ---- money,<br>--- ----- --- --- ------ -------- ----- --- ------ ----- --<br>----- ----- ---------- --- --- ------ ------ ---- -- ------<br>------- --- ------ ----- --- ---- ------- -- ---- --- --<br>------- ------",207910.40000000037,207909.70000000112,207648.787,207651,207665.745,207915.495,,21,"money,"
screen,html.Screen,2_1_1_1_22,2022-04-27T12:56:54.918Z,,,,,,,,,,,,,,,,,54,,,,,,,,,,,,,,254.30500000074971,,response,,,,100,,,,,,,Space,keypress(Space),,,,,,,,-- --- ---- --- ------ ----- ------- ---- -- --- ------- --<br>------- ---------- ------ -- ----- -- ----- -- ---- ------<br>the ----- --- --- ------ -------- ----- --- ------ ----- --<br>----- ----- ---------- --- --- ------ ------ ---- -- ------<br>------- --- ------ ----- --- ---- ------- -- ---- --- --<br>------- ------,208170.59999999963,208169.80000000075,207898.771,207910.5,207915.495,208182.203,,22,the
screen,html.Screen,2_1_1_1_23,2022-04-27T12:56:55.157Z,,,,,,,,,,,,,,,,,54,,,,,,,,,,,,,,227.39699999961886,,response,,,,100,,,,,,,Space,keypress(Space),,,,,,,,-- --- ---- --- ------ ----- ------- ---- -- --- ------- --<br>------- ---------- ------ -- ----- -- ----- -- ---- ------<br>--- state --- --- ------ -------- ----- --- ------ ----- --<br>----- ----- ---------- --- --- ------ ------ ---- -- ------<br>------- --- ------ ----- --- ---- ------- -- ---- --- --<br>------- ------,208410.30000000075,208409.59999999963,208165.509,208170.80000000075,208182.203,208415.527,,23,state
screen,html.Screen,2_1_1_1_24,2022-04-27T12:56:55.394Z,,,,,,,,,,,,,,,,,54,,,,,,,,,,,,,,230.17300000111572,,response,,,,100,,,,,,,Space,keypress(Space),,,,,,,,-- --- ---- --- ------ ----- ------- ---- -- --- ------- --<br>------- ---------- ------ -- ----- -- ----- -- ---- ------<br>--- ----- cut --- ------ -------- ----- --- ------ ----- --<br>----- ----- ---------- --- --- ------ ------ ---- -- ------<br>------- --- ------ ----- --- ---- ------- -- ---- --- --<br>------- ------,208646.5,208645.70000000112,208398.834,208410.5,208415.527,208648.881,,24,cut
screen,html.Screen,2_1_1_1_25,2022-04-27T12:56:55.594Z,,,,,,,,,,,,,,,,,54,,,,,,,,,,,,,,196.61900000000605,,response,,,,100,,,,,,,Space,keypress(Space),,,,,,,,-- --- ---- --- ------ ----- ------- ---- -- --- ------- --<br>------- ---------- ------ -- ----- -- ----- -- ---- ------<br>--- ----- --- the ------ -------- ----- --- ------ ----- --<br>----- ----- ---------- --- --- ------ ------ ---- -- ------<br>------- --- ------ ----- --- ---- ------- -- ---- --- --<br>------- ------,208846.40000000037,208845.5,208632.166,208646.70000000112,208648.881,208848.927,,25,the
screen,html.Screen,2_1_1_1_26,2022-04-27T12:56:55.804Z,,,,,,,,,,,,,,,,,54,,,,,,,,,,,,,,205.87300000074902,,response,,,,100,,,,,,,Space,keypress(Space),,,,,,,,-- --- ---- --- ------ ----- ------- ---- -- --- ------- --<br>------- ---------- ------ -- ----- -- ----- -- ---- ------<br>--- ----- --- --- bonds' -------- ----- --- ------ ----- --<br>----- ----- ---------- --- --- ------ ------ ---- -- ------<br>------- --- ------ ----- --- ---- ------- -- ---- --- --<br>------- ------,209056.40000000037,209054.80000000075,208832.19,208846.59999999963,208848.927,209065.617,,26,bonds'
screen,html.Screen,2_1_1_1_27,2022-04-27T12:56:56.234Z,,,,,,,,,,,,,,,,,54,,,,,,,,,,,,,,420.28300000037416,,response,,,,100,,,,,,,Space,keypress(Space),,,,,,,,-- --- ---- --- ------ ----- ------- ---- -- --- ------- --<br>------- ---------- ------ -- ----- -- ----- -- ---- ------<br>--- ----- --- --- ------ interest ----- --- ------ ----- --<br>----- ----- ---------- --- --- ------ ------ ---- -- ------<br>------- --- ------ ----- --- ---- ------- -- ---- --- --<br>------- ------,209486.70000000112,209485.90000000037,209048.903,209056.59999999963,209065.617,209498.961,,27,interest
screen,html.Screen,2_1_1_1_28,2022-04-27T12:56:56.453Z,,,,,,,,,,,,,,,,,54,,,,,,,,,,,,,,206.53899999998976,,response,,,,100,,,,,,,Space,keypress(Space),,,,,,,,-- --- ---- --- ------ ----- ------- ---- -- --- ------- --<br>------- ---------- ------ -- ----- -- ----- -- ---- ------<br>--- ----- --- --- ------ -------- rate. --- ------ ----- --<br>----- ----- ---------- --- --- ------ ------ ---- -- ------<br>------- --- ------ ----- --- ---- ------- -- ---- --- --<br>------- ------,209706.30000000075,209705.5,209482.233,209486.90000000037,209498.961,209715.61,,28,rate.
screen,html.Screen,2_1_1_1_29,2022-04-27T12:56:56.678Z,,,,,,,,,,,,,,,,,54,,,,,,,,,,,,,,214.39000000001397,,response,,,,100,,,,,,,Space,keypress(Space),,,,,,,,-- --- ---- --- ------ ----- ------- ---- -- --- ------- --<br>------- ---------- ------ -- ----- -- ----- -- ---- ------<br>--- ----- --- --- ------ -------- ----- The ------ ----- --<br>----- ----- ---------- --- --- ------ ------ ---- -- ------<br>------- --- ------ ----- --- ---- ------- -- ---- --- --<br>------- ------,209930.80000000075,209930,209698.929,209706.5,209715.61,209950.374,,29,The
screen,html.Screen,2_1_1_1_30,2022-04-27T12:56:56.914Z,,,,,,,,,,,,,,,,,54,,,,,,,,,,,,,,215.32600000110688,,response,,,,100,,,,,,,Space,keypress(Space),,,,,,,,-- --- ---- --- ------ ----- ------- ---- -- --- ------- --<br>------- ---------- ------ -- ----- -- ----- -- ---- ------<br>--- ----- --- --- ------ -------- ----- --- market ----- --<br>----- ----- ---------- --- --- ------ ------ ---- -- ------<br>------- --- ------ ----- --- ---- ------- -- ---- --- --<br>------- ------,210166.5,210165.70000000112,209915.63,209931,209950.374,210182.349,,30,market
screen,html.Screen,2_1_1_1_31,2022-04-27T12:56:57.394Z,,,,,,,,,,,,,,,,,54,,,,,,,,,,,,,,463.35100000113016,,response,,,,100,,,,,,,Space,keypress(Space),,,,,,,,-- --- ---- --- ------ ----- ------- ---- -- --- ------- --<br>------- ---------- ------ -- ----- -- ----- -- ---- ------<br>--- ----- --- --- ------ -------- ----- --- ------ value --<br>----- ----- ---------- --- --- ------ ------ ---- -- ------<br>------- --- ------ ----- --- ---- ------- -- ---- --- --<br>------- ------,210646.5,210645.70000000112,210165.666,210166.70000000112,210182.349,210649.088,,31,value
screen,html.Screen,2_1_1_1_32,2022-04-27T12:56:57.733Z,,,,,,,,,,,,,,,,,54,,,,,,,,,,,,,,335.8120000003837,,response,,,,100,,,,,,,Space,keypress(Space),,,,,,,,-- --- ---- --- ------ ----- ------- ---- -- --- ------- --<br>------- ---------- ------ -- ----- -- ----- -- ---- ------<br>--- ----- --- --- ------ -------- ----- --- ------ ----- of<br>----- ----- ---------- --- --- ------ ------ ---- -- ------<br>------- --- ------ ----- --- ---- ------- -- ---- --- --<br>------- ------,210985.80000000075,210984.90000000037,210632.302,210646.80000000075,210649.088,210999.077,,32,of
screen,html.Screen,2_1_1_1_33,2022-04-27T12:56:58.033Z,,,,,,,,,,,,,,,,,54,,,,,,,,,,,,,,285.52299999963725,,response,,,,100,,,,,,,Space,keypress(Space),,,,,,,,-- --- ---- --- ------ ----- ------- ---- -- --- ------- --<br>------- ---------- ------ -- ----- -- ----- -- ---- ------<br>--- ----- --- --- ------ -------- ----- --- ------ ----- --<br>these ----- ---------- --- --- ------ ------ ---- -- ------<br>------- --- ------ ----- --- ---- ------- -- ---- --- --<br>------- ------,211285.5,211284.59999999963,210982.347,210985.90000000037,210999.077,211299.091,,33,these
screen,html.Screen,2_1_1_1_34,2022-04-27T12:56:58.297Z,,,,,,,,,,,,,,,,,54,,,,,,,,,,,,,,249.70900000075926,,response,,,,100,,,,,,,Space,keypress(Space),,,,,,,,-- --- ---- --- ------ ----- ------- ---- -- --- ------- --<br>------- ---------- ------ -- ----- -- ----- -- ---- ------<br>--- ----- --- --- ------ -------- ----- --- ------ ----- --<br>----- bonds ---------- --- --- ------ ------ ---- -- ------<br>------- --- ------ ----- --- ---- ------- -- ---- --- --<br>------- ------,211549.70000000112,211548.80000000075,211282.368,211285.59999999963,211299.091,211565.799,,34,bonds
screen,html.Screen,2_1_1_1_35,2022-04-27T12:56:58.536Z,,,,,,,,,,,,,,,,,54,,,,,,,,,,,,,,222.8009999996284,,response,,,,100,,,,,,,Space,keypress(Space),,,,,,,,"-- --- ---- --- ------ ----- ------- ---- -- --- ------- --<br>------- ---------- ------ -- ----- -- ----- -- ---- ------<br>--- ----- --- --- ------ -------- ----- --- ------ ----- --<br>----- ----- plummeted, --- --- ------ ------ ---- -- ------<br>------- --- ------ ----- --- ---- ------- -- ---- --- --<br>------- ------",211789.30000000075,211788.59999999963,211549.031,211549.80000000075,211565.799,211799.106,,35,"plummeted,"
screen,html.Screen,2_1_1_1_36,2022-04-27T12:56:58.777Z,,,,,,,,,,,,,,,,,54,,,,,,,,,,,,,,229.89400000000023,,response,,,,100,,,,,,,Space,keypress(Space),,,,,,,,-- --- ---- --- ------ ----- ------- ---- -- --- ------- --<br>------- ---------- ------ -- ----- -- ----- -- ---- ------<br>--- ----- --- --- ------ -------- ----- --- ------ ----- --<br>----- ----- ---------- and --- ------ ------ ---- -- ------<br>------- --- ------ ----- --- ---- ------- -- ---- --- --<br>------- ------,212029.80000000075,212029,211782.428,211789.5,211799.106,212032.447,,36,and
screen,html.Screen,2_1_1_1_37,2022-04-27T12:56:59.021Z,,,,,,,,,,,,,,,,,54,,,,,,,,,,,,,,240.25300000113202,,response,,,,100,,,,,,,Space,keypress(Space),,,,,,,,-- --- ---- --- ------ ----- ------- ---- -- --- ------- --<br>------- ---------- ------ -- ----- -- ----- -- ---- ------<br>--- ----- --- --- ------ -------- ----- --- ------ ----- --<br>----- ----- ---------- --- the ------ ------ ---- -- ------<br>------- --- ------ ----- --- ---- ------- -- ---- --- --<br>------- ------,212273.5,212272.70000000112,212015.774,212029.90000000037,212032.447,212282.489,,37,the
screen,html.Screen,2_1_1_1_38,2022-04-27T12:56:59.276Z,,,,,,,,,,,,,,,,,54,,,,,,,,,,,,,,246.2110000011162,,response,,,,100,,,,,,,Space,keypress(Space),,,,,,,,-- --- ---- --- ------ ----- ------- ---- -- --- ------- --<br>------- ---------- ------ -- ----- -- ----- -- ---- ------<br>--- ----- --- --- ------ -------- ----- --- ------ ----- --<br>----- ----- ---------- --- --- market ------ ---- -- ------<br>------- --- ------ ----- --- ---- ------- -- ---- --- --<br>------- ------,212529.30000000075,212528.70000000112,212265.813,212273.70000000112,212282.489,212532.54,,38,market
screen,html.Screen,2_1_1_1_39,2022-04-27T12:56:59.517Z,,,,,,,,,,,,,,,,,54,,,,,,,,,,,,,,236.16000000110944,,response,,,,100,,,,,,,Space,keypress(Space),,,,,,,,-- --- ---- --- ------ ----- ------- ---- -- --- ------- --<br>------- ---------- ------ -- ----- -- ----- -- ---- ------<br>--- ----- --- --- ------ -------- ----- --- ------ ----- --<br>----- ----- ---------- --- --- ------ became ---- -- ------<br>------- --- ------ ----- --- ---- ------- -- ---- --- --<br>------- ------,212769.40000000037,212768.70000000112,212515.836,212529.5,212532.54,212782.545,,39,became
screen,html.Screen,2_1_1_1_40,2022-04-27T12:56:59.753Z,,,,,,,,,,,,,,,,,54,,,,,,,,,,,,,,222.05499999961467,,response,,,,100,,,,,,,Space,keypress(Space),,,,,,,,-- --- ---- --- ------ ----- ------- ---- -- --- ------- --<br>------- ---------- ------ -- ----- -- ----- -- ---- ------<br>--- ----- --- --- ------ -------- ----- --- ------ ----- --<br>----- ----- ---------- --- --- ------ ------ wary -- ------<br>------- --- ------ ----- --- ---- ------- -- ---- --- --<br>------- ------,213005.70000000112,213004.59999999963,212765.854,212769.59999999963,212782.545,213015.89,,40,wary
screen,html.Screen,2_1_1_1_41,2022-04-27T12:56:59.997Z,,,,,,,,,,,,,,,,,54,,,,,,,,,,,,,,232.51000000035856,,response,,,,100,,,,,,,Space,keypress(Space),,,,,,,,-- --- ---- --- ------ ----- ------- ---- -- --- ------- --<br>------- ---------- ------ -- ----- -- ----- -- ---- ------<br>--- ----- --- --- ------ -------- ----- --- ------ ----- --<br>----- ----- ---------- --- --- ------ ------ ---- of ------<br>------- --- ------ ----- --- ---- ------- -- ---- --- --<br>------- ------,213249.5,213248.40000000037,212999.197,213005.90000000037,213015.89,213265.913,,41,of
screen,html.Screen,2_1_1_1_42,2022-04-27T12:57:00.465Z,,,,,,,,,,,,,,,,,54,,,,,,,,,,,,,,450.8870000007446,,response,,,,100,,,,,,,Space,keypress(Space),,,,,,,,-- --- ---- --- ------ ----- ------- ---- -- --- ------- --<br>------- ---------- ------ -- ----- -- ----- -- ---- ------<br>--- ----- --- --- ------ -------- ----- --- ------ ----- --<br>----- ----- ---------- --- --- ------ ------ ---- -- French<br>------- --- ------ ----- --- ---- ------- -- ---- --- --<br>------- ------,213717.40000000037,213716.80000000075,213249.177,213249.70000000112,213265.913,213732.588,,42,French
screen,html.Screen,2_1_1_1_43,2022-04-27T12:57:00.697Z,,,,,,,,,,,,,,,,,54,,,,,,,,,,,,,,216.21200000075623,,response,,,,100,,,,,,,Space,keypress(Space),,,,,,,,-- --- ---- --- ------ ----- ------- ---- -- --- ------- --<br>------- ---------- ------ -- ----- -- ----- -- ---- ------<br>--- ----- --- --- ------ -------- ----- --- ------ ----- --<br>----- ----- ---------- --- --- ------ ------ ---- -- ------<br>credit. --- ------ ----- --- ---- ------- -- ---- --- --<br>------- ------,213949.70000000112,213948.80000000075,213715.863,213717.59999999963,213732.588,213965.969,,43,credit.
screen,html.Screen,2_1_1_1_44,2022-04-27T12:57:00.948Z,,,,,,,,,,,,,,,,,54,,,,,,,,,,,,,,234.33100000073318,,response,,,,100,,,,,,,Space,keypress(Space),,,,,,,,-- --- ---- --- ------ ----- ------- ---- -- --- ------- --<br>------- ---------- ------ -- ----- -- ----- -- ---- ------<br>--- ----- --- --- ------ -------- ----- --- ------ ----- --<br>----- ----- ---------- --- --- ------ ------ ---- -- ------<br>------- The ------ ----- --- ---- ------- -- ---- --- --<br>------- ------,214201.09999999963,214200.30000000075,213949.247,213949.90000000037,213965.969,214215.991,,44,The
screen,html.Screen,2_1_1_1_45,2022-04-27T12:57:01.196Z,,,,,,,,,,,,,,,,,54,,,,,,,,,,,,,,232.50899999999092,,response,,,,100,,,,,,,Space,keypress(Space),,,,,,,,-- --- ---- --- ------ ----- ------- ---- -- --- ------- --<br>------- ---------- ------ -- ----- -- ----- -- ---- ------<br>--- ----- --- --- ------ -------- ----- --- ------ ----- --<br>----- ----- ---------- --- --- ------ ------ ---- -- ------<br>------- --- French ----- --- ---- ------- -- ---- --- --<br>------- ------,214449.30000000075,214448.5,214199.294,214201.30000000075,214215.991,214466.018,,45,French
screen,html.Screen,2_1_1_1_46,2022-04-27T12:57:01.441Z,,,,,,,,,,,,,,,,,54,,,,,,,,,,,,,,226.68200000110664,,response,,,,100,,,,,,,Space,keypress(Space),,,,,,,,-- --- ---- --- ------ ----- ------- ---- -- --- ------- --<br>------- ---------- ------ -- ----- -- ----- -- ---- ------<br>--- ----- --- --- ------ -------- ----- --- ------ ----- --<br>----- ----- ---------- --- --- ------ ------ ---- -- ------<br>------- --- ------ state --- ---- ------- -- ---- --- --<br>------- ------,214693.5,214692.70000000112,214449.291,214449.5,214466.018,214699.333,,46,state
screen,html.Screen,2_1_1_1_47,2022-04-27T12:57:01.692Z,,,,,,,,,,,,,,,,,54,,,,,,,,,,,,,,244.86700000110432,,response,,,,100,,,,,,,Space,keypress(Space),,,,,,,,-- --- ---- --- ------ ----- ------- ---- -- --- ------- --<br>------- ---------- ------ -- ----- -- ----- -- ---- ------<br>--- ----- --- --- ------ -------- ----- --- ------ ----- --<br>----- ----- ---------- --- --- ------ ------ ---- -- ------<br>------- --- ------ ----- was ---- ------- -- ---- --- --<br>------- ------,214945.09999999963,214944.20000000112,214682.627,214693.70000000112,214699.333,214949.364,,47,was
screen,html.Screen,2_1_1_1_48,2022-04-27T12:57:01.947Z,,,,,,,,,,,,,,,,,54,,,,,,,,,,,,,,250.1359999999986,,response,,,,100,,,,,,,Space,keypress(Space),,,,,,,,-- --- ---- --- ------ ----- ------- ---- -- --- ------- --<br>------- ---------- ------ -- ----- -- ----- -- ---- ------<br>--- ----- --- --- ------ -------- ----- --- ------ ----- --<br>----- ----- ---------- --- --- ------ ------ ---- -- ------<br>------- --- ------ ----- --- left ------- -- ---- --- --<br>------- ------,215200.30000000075,215199.5,214932.661,214945.30000000075,214949.364,215216.076,,48,left
screen,html.Screen,2_1_1_1_49,2022-04-27T12:57:02.195Z,,,,,,,,,,,,,,,,,54,,,,,,,,,,,,,,231.3240000003716,,response,,,,100,,,,,,,Space,keypress(Space),,,,,,,,-- --- ---- --- ------ ----- ------- ---- -- --- ------- --<br>------- ---------- ------ -- ----- -- ----- -- ---- ------<br>--- ----- --- --- ------ -------- ----- --- ------ ----- --<br>----- ----- ---------- --- --- ------ ------ ---- -- ------<br>------- --- ------ ----- --- ---- without -- ---- --- --<br>------- ------,215448.30000000075,215447.40000000037,215199.345,215200.5,215216.076,215480.891,,49,without
screen,html.Screen,2_1_1_1_50,2022-04-27T12:57:02.460Z,,,,,,,,,,,,,,,,,54,,,,,,,,,,,,,,231.30900000111433,,response,,,,100,,,,,,,Space,keypress(Space),,,,,,,,-- --- ---- --- ------ ----- ------- ---- -- --- ------- --<br>------- ---------- ------ -- ----- -- ----- -- ---- ------<br>--- ----- --- --- ------ -------- ----- --- ------ ----- --<br>----- ----- ---------- --- --- ------ ------ ---- -- ------<br>------- --- ------ ----- --- ---- ------- an ---- --- --<br>------- ------,215712.90000000037,215712.20000000112,215432.737,215448.59999999963,215480.891,215716.088,,50,an
screen,html.Screen,2_1_1_1_51,2022-04-27T12:57:02.703Z,,,,,,,,,,,,,,,,,54,,,,,,,,,,,,,,239.51199999963865,,response,,,,100,,,,,,,Space,keypress(Space),,,,,,,,-- --- ---- --- ------ ----- ------- ---- -- --- ------- --<br>------- ---------- ------ -- ----- -- ----- -- ---- ------<br>--- ----- --- --- ------ -------- ----- --- ------ ----- --<br>----- ----- ---------- --- --- ------ ------ ---- -- ------<br>------- --- ------ ----- --- ---- ------- -- easy --- --<br>------- ------,215956.30000000075,215955.59999999963,215699.394,215713.09999999963,215716.088,215966.11,,51,easy
screen,html.Screen,2_1_1_1_52,2022-04-27T12:57:02.967Z,,,,,,,,,,,,,,,,,54,,,,,,,,,,,,,,253.48999999964144,,response,,,,100,,,,,,,Space,keypress(Space),,,,,,,,-- --- ---- --- ------ ----- ------- ---- -- --- ------- --<br>------- ---------- ------ -- ----- -- ----- -- ---- ------<br>--- ----- --- --- ------ -------- ----- --- ------ ----- --<br>----- ----- ---------- --- --- ------ ------ ---- -- ------<br>------- --- ------ ----- --- ---- ------- -- ---- way --<br>------- ------,216220.30000000075,216219.59999999963,215949.41,215956.59999999963,215966.11,216232.774,,52,way
screen,html.Screen,2_1_1_1_53,2022-04-27T12:57:03.224Z,,,,,,,,,,,,,,,,,54,,,,,,,,,,,,,,243.2259999999951,,response,,,,100,,,,,,,Space,keypress(Space),,,,,,,,-- --- ---- --- ------ ----- ------- ---- -- --- ------- --<br>------- ---------- ------ -- ----- -- ----- -- ---- ------<br>--- ----- --- --- ------ -------- ----- --- ------ ----- --<br>----- ----- ---------- --- --- ------ ------ ---- -- ------<br>------- --- ------ ----- --- ---- ------- -- ---- --- of<br>------- ------,216476.80000000075,216476,216216.082,216220.5,216232.774,216482.802,,53,of
screen,html.Screen,2_1_1_1_54,2022-04-27T12:57:03.488Z,,,,,,,,,,,,,,,,,54,,,,,,,,,,,,,,256.89800000112155,,response,,,,100,,,,,,,Space,keypress(Space),,,,,,,,-- --- ---- --- ------ ----- ------- ---- -- --- ------- --<br>------- ---------- ------ -- ----- -- ----- -- ---- ------<br>--- ----- --- --- ------ -------- ----- --- ------ ----- --<br>----- ----- ---------- --- --- ------ ------ ---- -- ------<br>------- --- ------ ----- --- ---- ------- -- ---- --- --<br>raising ------,216740.5,216739.70000000112,216466.116,216477,216482.802,216749.486,,54,raising
screen,html.Screen,2_1_1_1_55,2022-04-27T12:57:04.047Z,,,,,,,,,,,,,,,,,54,,,,,,,,,,,,,,550.0139999999956,,response,,,,100,,,,,,,Space,keypress(Space),,,,,,,,-- --- ---- --- ------ ----- ------- ---- -- --- ------- --<br>------- ---------- ------ -- ----- -- ----- -- ---- ------<br>--- ----- --- --- ------ -------- ----- --- ------ ----- --<br>----- ----- ---------- --- --- ------ ------ ---- -- ------<br>------- --- ------ ----- --- ---- ------- -- ---- --- --<br>------- money.,217300.20000000112,217299.5,216732.803,216740.70000000112,216749.486,217316.189,,55,money.
Item 100,flow.Loop,2_1_1_1,2022-04-27T12:57:04.048Z,,,,,,,,,,,,,,,,,,,,,,,,,,,,,,,20668.195000000007,,completion,,,,,C,,,,,,,,,,,silence,,,,,217300.59999999963,217299.5,196614.655,196615.70000000112,196631.305,217316.189,,,
Question 1,html.Screen,2_1_1_2,2022-04-27T12:57:06.885Z,,,,,,,,,,,,,,,,,,,,,,,,,,,,true,TRUE,,2819.810999999987,,response,,,,100,C,,,,,,TRUE,click #choice-1,,,,silence,,,,,220137.80000000075,220136,217299.476,217300.70000000112,217316.189,220149.785,,,
Question 2,html.Screen,2_1_1_3,2022-04-27T12:57:08.636Z,,,,,,,,,,,,,,,,,,,,,,,,,,,,false,FALSE,,1737.314999999624,,response,,,,100,C,,,,,,TRUE,click #choice-1,,,,silence,,,,,221889.09999999963,221887.09999999963,220133.1,220137.90000000037,220149.785,221899.896,,,
Item 100,flow.Sequence,2_1_1,2022-04-27T12:57:08.636Z,,,,,,,,,,,,,,,,,,,,,,,,,,,,,,,35256.535999999614,,completion,,,,,,,,,,,,,,,,,,,,,221889.30000000075,221887.09999999963,186613.851,186626.09999999963,186630.564,221899.896,,,
End of Practice,html.Page,2_1_2,2022-04-27T12:57:11.270Z,,,,,,,,,,,,,,,,,,,,,,,,,,,,,,,2622.5040000003646,,form submission,,,,,,,,,,,,,,,,,,,,,224522.90000000037,224522.40000000037,221883.219,221889.5,221899.896,224533.392,,,
Practice,flow.Sequence,2_1,2022-04-27T12:57:11.270Z,,,,,,,,,,,,,,,,,,,,,,,,,,,,,,,81761.79700000037,,completion,,,,,,,,,,,,,,,,,,,,,224523.20000000112,224522.40000000037,142743.869,142752.09999999963,142760.603,224533.392,,,
Trap_instruction,html.Page,2_2_0,2022-04-27T12:57:13.618Z,,,,,,,,,,,,,,,,,,,,,,,,,,,,,,,2337.207999999635,,form submission,,,,,,,,,,,,,,,,,,,,,226871,226870.59999999963,224516.704,224523.5,224533.392,226883.625,,,
trap_trial,html.Screen,2_2_1,2022-04-27T12:57:15.625Z,,,,,,,,,,,,,,,,,,,,,,,,,,,,true,1,,1992.375,,response,,,,,,,,,,,1,click #choice-1,,,,,,,,,228878.09999999963,228876,226866.897,226871.30000000075,226883.625,228883.81,,,
end of trap trial,html.Page,2_2_2,2022-04-27T12:57:16.726Z,,,,,,,,,,,,,,,,,,,,,,,,,,,,,,,1094.6900000000023,,form submission,,,,,,,,,,,,,,,,,,,,,229978.90000000037,229978.5,228867.087,228878.30000000075,228883.81,229983.851,,,
Trap 1,flow.Sequence,2_2,2022-04-27T12:57:16.726Z,,,,,,,,,,,,,,,,,,,,,,,,,,,,,,,5445.108000000007,,completion,,,,,,,,,,,,,,,,,,,,,229979.20000000112,229978.5,224516.704,224523.40000000037,224533.392,229983.851,,,
Standby,html.Page,2_3_0,2022-04-27T12:57:24.715Z,,,,,,,,,,,,,,,,,,,,,,,,,,,,,,,8000.589000000007,,timeout,,,,,,,,,,,,,,,,,,,,,237968.5,237967.775,229967.197,229979.40000000037,229983.851,237984.44,,,
Holding screen,html.Screen,2_3_1_0_0,2022-04-27T12:57:31.716Z,,,,,,,,,,,,,,,,,,,,,,,,,,,,,,,7000.608999999997,,timeout,,,,,,,,,,,,,,,,,,,,,244969,244968.322,237967.775,237968.80000000075,237984.44,244985.049,,,
screen,html.Screen,2_3_1_0_1_0,2022-04-27T12:57:38.716Z,,,,,,,,,,,,,,,,,19,,,,,,,,,,,,,,7000.439000000013,,timeout,,,,17,C,,,,,,,,,,,instrumental,,,,"Interestingly, --- -------- -------- ---------- ---- -------<br>-- ---------- -- --- ----- ------ ----- ---- --------- ----<br>------- ------ -------- -- ------ ---------- ------ ---<br>------ -- -- ---- -- ---------- -------- ------ ---- -------<br>---- --- --------- ------- ----- --------- ---- ----- --<br>------ -------- -- ------ -- ---- ------------",251969.59999999963,251968.819,244968.322,244969.30000000075,244985.049,251985.488,,0,"Interestingly,"
screen,html.Screen,2_3_1_0_1_1,2022-04-27T12:57:44.933Z,,,,,,,,,,,,,,,,,19,,,,,,,,,,,,,,6199.2120000011055,,response,,,,17,C,,,,,,Space,keypress(Space),,,,instrumental,,,,-------------- the -------- -------- ---------- ---- -------<br>-- ---------- -- --- ----- ------ ----- ---- --------- ----<br>------- ------ -------- -- ------ ---------- ------ ---<br>------ -- -- ---- -- ---------- -------- ------ ---- -------<br>---- --- --------- ------- ----- --------- ---- ----- --<br>------ -------- -- ------ -- ---- ------------,258186,258184.70000000112,251968.819,251969.90000000037,251985.488,258219.306,,1,the
screen,html.Screen,2_3_1_0_1_2,2022-04-27T12:57:45.321Z,,,,,,,,,,,,,,,,,19,,,,,,,,,,,,,,353.99400000073365,,response,,,,17,C,,,,,,Space,keypress(Space),,,,instrumental,,,,-------------- --- heaviest -------- ---------- ---- -------<br>-- ---------- -- --- ----- ------ ----- ---- --------- ----<br>------- ------ -------- -- ------ ---------- ------ ---<br>------ -- -- ---- -- ---------- -------- ------ ---- -------<br>---- --- --------- ------- ----- --------- ---- ----- --<br>------ -------- -- ------ -- ---- ------------,258574.20000000112,258573.30000000075,258203.772,258186.20000000112,258219.306,258585.966,,2,heaviest
screen,html.Screen,2_3_1_0_1_3,2022-04-27T12:57:45.584Z,,,,,,,,,,,,,,,,,19,,,,,,,,,,,,,,250.33400000075926,,response,,,,17,C,,,,,,Space,keypress(Space),,,,instrumental,,,,-------------- --- -------- isotopes ---------- ---- -------<br>-- ---------- -- --- ----- ------ ----- ---- --------- ----<br>------- ------ -------- -- ------ ---------- ------ ---<br>------ -- -- ---- -- ---------- -------- ------ ---- -------<br>---- --- --------- ------- ----- --------- ---- ----- --<br>------ -------- -- ------ -- ---- ------------,258837.20000000112,258836.30000000075,258569.307,258574.40000000037,258585.966,258852.688,,3,isotopes
screen,html.Screen,2_3_1_0_1_4,2022-04-27T12:57:45.856Z,,,,,,,,,,,,,,,,,19,,,,,,,,,,,,,,255.81200000000536,,response,,,,17,C,,,,,,Space,keypress(Space),,,,instrumental,,,,-------------- --- -------- -------- physicists ---- -------<br>-- ---------- -- --- ----- ------ ----- ---- --------- ----<br>------- ------ -------- -- ------ ---------- ------ ---<br>------ -- -- ---- -- ---------- -------- ------ ---- -------<br>---- --- --------- ------- ----- --------- ---- ----- --<br>------ -------- -- ------ -- ---- ------------,259109.30000000075,259108.5,258835.992,258837.30000000075,258852.688,259119.371,,4,physicists
screen,html.Screen,2_3_1_0_1_5,2022-04-27T12:57:46.235Z,,,,,,,,,,,,,,,,,19,,,,,,,,,,,,,,368.5290000003588,,response,,,,17,C,,,,,,Space,keypress(Space),,,,instrumental,,,,-------------- --- -------- -------- ---------- have -------<br>-- ---------- -- --- ----- ------ ----- ---- --------- ----<br>------- ------ -------- -- ------ ---------- ------ ---<br>------ -- -- ---- -- ---------- -------- ------ ---- -------<br>---- --- --------- ------- ----- --------- ---- ----- --<br>------ -------- -- ------ -- ---- ------------,259488.59999999963,259487.90000000037,259102.688,259109.5,259119.371,259502.795,,5,have
screen,html.Screen,2_3_1_0_1_6,2022-04-27T12:57:46.512Z,,,,,,,,,,,,,,,,,19,,,,,,,,,,,,,,261.50500000073225,,response,,,,17,C,,,,,,Space,keypress(Space),,,,instrumental,,,,-------------- --- -------- -------- ---------- ---- managed<br>-- ---------- -- --- ----- ------ ----- ---- --------- ----<br>------- ------ -------- -- ------ ---------- ------ ---<br>------ -- -- ---- -- ---------- -------- ------ ---- -------<br>---- --- --------- ------- ----- --------- ---- ----- --<br>------ -------- -- ------ -- ---- ------------,259765.20000000112,259764.30000000075,259486.064,259488.80000000075,259502.795,259769.419,,6,managed
screen,html.Screen,2_3_1_0_1_7,2022-04-27T12:57:46.760Z,,,,,,,,,,,,,,,,,19,,,,,,,,,,,,,,242.88100000075065,,response,,,,17,C,,,,,,Space,keypress(Space),,,,instrumental,,,,-------------- --- -------- -------- ---------- ---- -------<br>to ---------- -- --- ----- ------ ----- ---- --------- ----<br>------- ------ -------- -- ------ ---------- ------ ---<br>------ -- -- ---- -- ---------- -------- ------ ---- -------<br>---- --- --------- ------- ----- --------- ---- ----- --<br>------ -------- -- ------ -- ---- ------------,260013.09999999963,260012.30000000075,259752.747,259765.40000000037,259769.419,260019.413,,7,to
screen,html.Screen,2_3_1_0_1_8,2022-04-27T12:57:46.952Z,,,,,,,,,,,,,,,,,19,,,,,,,,,,,,,,184.98700000037206,,response,,,,17,C,,,,,,Space,keypress(Space),,,,instrumental,,,,-------------- --- -------- -------- ---------- ---- -------<br>-- synthesize -- --- ----- ------ ----- ---- --------- ----<br>------- ------ -------- -- ------ ---------- ------ ---<br>------ -- -- ---- -- ---------- -------- ------ ---- -------<br>---- --- --------- ------- ----- --------- ---- ----- --<br>------ -------- -- ------ -- ---- ------------,260205.09999999963,260204.40000000037,260002.74,260013.20000000112,260019.413,260219.446,,8,synthesize
screen,html.Screen,2_3_1_0_1_9,2022-04-27T12:57:47.144Z,,,,,,,,,,,,,,,,,19,,,,,,,,,,,,,,177.2540000011213,,response,,,,17,C,,,,,,Space,keypress(Space),,,,instrumental,,,,-------------- --- -------- -------- ---------- ---- -------<br>-- ---------- so --- ----- ------ ----- ---- --------- ----<br>------- ------ -------- -- ------ ---------- ------ ---<br>------ -- -- ---- -- ---------- -------- ------ ---- -------<br>---- --- --------- ------- ----- --------- ---- ----- --<br>------ -------- -- ------ -- ---- ------------,260397.5,260396.70000000112,260202.762,260205.40000000037,260219.446,260402.81,,9,so
screen,html.Screen,2_3_1_0_1_10,2022-04-27T12:57:47.340Z,,,,,,,,,,,,,,,,,19,,,,,,,,,,,,,,189.59000000037486,,response,,,,17,C,,,,,,Space,keypress(Space),,,,instrumental,,,,-------------- --- -------- -------- ---------- ---- -------<br>-- ---------- -- far ----- ------ ----- ---- --------- ----<br>------- ------ -------- -- ------ ---------- ------ ---<br>------ -- -- ---- -- ---------- -------- ------ ---- -------<br>---- --- --------- ------- ----- --------- ---- ----- --<br>------ -------- -- ------ -- ---- ------------,260593.09999999963,260592.40000000037,260386.115,260397.70000000112,260402.81,260602.784,,10,far
screen,html.Screen,2_3_1_0_1_11,2022-04-27T12:57:47.532Z,,,,,,,,,,,,,,,,,19,,,,,,,,,,,,,,181.51600000073086,,response,,,,17,C,,,,,,Space,keypress(Space),,,,instrumental,,,,-------------- --- -------- -------- ---------- ---- -------<br>-- ---------- -- --- don't ------ ----- ---- --------- ----<br>------- ------ -------- -- ------ ---------- ------ ---<br>------ -- -- ---- -- ---------- -------- ------ ---- -------<br>---- --- --------- ------- ----- --------- ---- ----- --<br>------ -------- -- ------ -- ---- ------------,260785.20000000112,260784.30000000075,260586.168,260593.30000000075,260602.784,260817.725,,11,don't
screen,html.Screen,2_3_1_0_1_12,2022-04-27T12:57:47.744Z,,,,,,,,,,,,,,,,,19,,,,,,,,,,,,,,178.57500000073924,,response,,,,17,C,,,,,,Space,keypress(Space),,,,instrumental,,,,-------------- --- -------- -------- ---------- ---- -------<br>-- ---------- -- --- ----- behave ----- ---- --------- ----<br>------- ------ -------- -- ------ ---------- ------ ---<br>------ -- -- ---- -- ---------- -------- ------ ---- -------<br>---- --- --------- ------- ----- --------- ---- ----- --<br>------ -------- -- ------ -- ---- ------------,260997,260996.30000000075,260769.485,260785.40000000037,260817.725,261002.837,,12,behave
screen,html.Screen,2_3_1_0_1_13,2022-04-27T12:57:47.960Z,,,,,,,,,,,,,,,,,19,,,,,,,,,,,,,,209.86300000111805,,response,,,,17,C,,,,,,Space,keypress(Space),,,,instrumental,,,,-------------- --- -------- -------- ---------- ---- -------<br>-- ---------- -- --- ----- ------ quite ---- --------- ----<br>------- ------ -------- -- ------ ---------- ------ ---<br>------ -- -- ---- -- ---------- -------- ------ ---- -------<br>---- --- --------- ------- ----- --------- ---- ----- --<br>------ -------- -- ------ -- ---- ------------,261213.40000000037,261212.70000000112,260986.132,260997.20000000112,261002.837,261219.502,,13,quite
screen,html.Screen,2_3_1_0_1_14,2022-04-27T12:57:48.180Z,,,,,,,,,,,,,,,,,19,,,,,,,,,,,,,,212.99799999999232,,response,,,,17,C,,,,,,Space,keypress(Space),,,,instrumental,,,,-------------- --- -------- -------- ---------- ---- -------<br>-- ---------- -- --- ----- ------ ----- like --------- ----<br>------- ------ -------- -- ------ ---------- ------ ---<br>------ -- -- ---- -- ---------- -------- ------ ---- -------<br>---- --- --------- ------- ----- --------- ---- ----- --<br>------ -------- -- ------ -- ---- ------------,261433.40000000037,261432.5,261202.864,261213.59999999963,261219.502,261436.192,,14,like
screen,html.Screen,2_3_1_0_1_15,2022-04-27T12:57:48.372Z,,,,,,,,,,,,,,,,,19,,,,,,,,,,,,,,188.10800000073505,,response,,,,17,C,,,,,,Space,keypress(Space),,,,instrumental,,,,-------------- --- -------- -------- ---------- ---- -------<br>-- ---------- -- --- ----- ------ ----- ---- science's ----<br>------- ------ -------- -- ------ ---------- ------ ---<br>------ -- -- ---- -- ---------- -------- ------ ---- -------<br>---- --- --------- ------- ----- --------- ---- ----- --<br>------ -------- -- ------ -- ---- ------------,261625.5,261624.30000000075,261419.542,261433.5,261436.192,261636.349,,15,science's
screen,html.Screen,2_3_1_0_1_16,2022-04-27T12:57:48.575Z,,,,,,,,,,,,,,,,,19,,,,,,,,,,,,,,191.25099999964004,,response,,,,17,C,,,,,,Space,keypress(Space),,,,instrumental,,,,-------------- --- -------- -------- ---------- ---- -------<br>-- ---------- -- --- ----- ------ ----- ---- --------- best<br>------- ------ -------- -- ------ ---------- ------ ---<br>------ -- -- ---- -- ---------- -------- ------ ---- -------<br>---- --- --------- ------- ----- --------- ---- ----- --<br>------ -------- -- ------ -- ---- ------------,261828.59999999963,261827.59999999963,261619.563,261625.70000000112,261636.349,261836.229,,16,best
screen,html.Screen,2_3_1_0_1_17,2022-04-27T12:57:48.783Z,,,,,,,,,,,,,,,,,19,,,,,,,,,,,,,,198.8709999996354,,response,,,,17,C,,,,,,Space,keypress(Space),,,,instrumental,,,,-------------- --- -------- -------- ---------- ---- -------<br>-- ---------- -- --- ----- ------ ----- ---- --------- ----<br>current ------ -------- -- ------ ---------- ------ ---<br>------ -- -- ---- -- ---------- -------- ------ ---- -------<br>---- --- --------- ------- ----- --------- ---- ----- --<br>------ -------- -- ------ -- ---- ------------,262036,262035.09999999963,261819.579,261828.90000000037,261836.229,262052.918,,17,current
screen,html.Screen,2_3_1_0_1_18,2022-04-27T12:57:49.015Z,,,,,,,,,,,,,,,,,19,,,,,,,,,,,,,,214.4820000003674,,response,,,,17,C,,,,,,Space,keypress(Space),,,,instrumental,,,,-------------- --- -------- -------- ---------- ---- -------<br>-- ---------- -- --- ----- ------ ----- ---- --------- ----<br>------- models -------- -- ------ ---------- ------ ---<br>------ -- -- ---- -- ---------- -------- ------ ---- -------<br>---- --- --------- ------- ----- --------- ---- ----- --<br>------ -------- -- ------ -- ---- ------------,262268.30000000075,262267.4000000004,262036.207,262036.09999999963,262052.918,262298.638,,18,models
screen,html.Screen,2_3_1_0_1_19,2022-04-27T12:57:49.211Z,,,,,,,,,,,,,,,,,19,,,,,,,,,,,,,,165.16200000076788,,response,,,,17,C,,,,,,Space,keypress(Space),,,,instrumental,,,,"-------------- --- -------- -------- ---------- ---- -------<br>-- ---------- -- --- ----- ------ ----- ---- --------- ----<br>------- ------ predict, -- ------ ---------- ------ ---<br>------ -- -- ---- -- ---------- -------- ------ ---- -------<br>---- --- --------- ------- ----- --------- ---- ----- --<br>------ -------- -- ------ -- ---- ------------",262464.80000000075,262463.80000000075,262252.936,262268.4000000004,262298.638,262469.701,,19,"predict,"
screen,html.Screen,2_3_1_0_1_20,2022-04-27T12:57:49.435Z,,,,,,,,,,,,,,,,,19,,,,,,,,,,,,,,217.49900000111666,,response,,,,17,C,,,,,,Space,keypress(Space),,,,instrumental,,,,-------------- --- -------- -------- ---------- ---- -------<br>-- ---------- -- --- ----- ------ ----- ---- --------- ----<br>------- ------ -------- so ------ ---------- ------ ---<br>------ -- -- ---- -- ---------- -------- ------ ---- -------<br>---- --- --------- ------- ----- --------- ---- ----- --<br>------ -------- -- ------ -- ---- ------------,262687.9000000004,262687.2000000011,262452.966,262464.9000000004,262469.701,262702.966,,20,so
screen,html.Screen,2_3_1_0_1_21,2022-04-27T12:57:49.659Z,,,,,,,,,,,,,,,,,19,,,,,,,,,,,,,,208.5339999999851,,response,,,,17,C,,,,,,Space,keypress(Space),,,,instrumental,,,,-------------- --- -------- -------- ---------- ---- -------<br>-- ---------- -- --- ----- ------ ----- ---- --------- ----<br>------- ------ -------- -- stable ---------- ------ ---<br>------ -- -- ---- -- ---------- -------- ------ ---- -------<br>---- --- --------- ------- ----- --------- ---- ----- --<br>------ -------- -- ------ -- ---- ------------,262912.30000000075,262911.5,262686.299,262688.0999999996,262702.966,262919.696,,21,stable
screen,html.Screen,2_3_1_0_1_22,2022-04-27T12:57:49.867Z,,,,,,,,,,,,,,,,,19,,,,,,,,,,,,,,199.5040000011213,,response,,,,17,C,,,,,,Space,keypress(Space),,,,instrumental,,,,-------------- --- -------- -------- ---------- ---- -------<br>-- ---------- -- --- ----- ------ ----- ---- --------- ----<br>------- ------ -------- -- ------ superheavy ------ ---<br>------ -- -- ---- -- ---------- -------- ------ ---- -------<br>---- --- --------- ------- ----- --------- ---- ----- --<br>------ -------- -- ------ -- ---- ------------,263120.0999999996,263119.2000000011,262902.963,262912.5,262919.696,263136.349,,22,superheavy
screen,html.Screen,2_3_1_0_1_23,2022-04-27T12:57:50.095Z,,,,,,,,,,,,,,,,,19,,,,,,,,,,,,,,210.95100000075763,,response,,,,17,C,,,,,,Space,keypress(Space),,,,instrumental,,,,-------------- --- -------- -------- ---------- ---- -------<br>-- ---------- -- --- ----- ------ ----- ---- --------- ----<br>------- ------ -------- -- ------ ---------- nuclei ---<br>------ -- -- ---- -- ---------- -------- ------ ---- -------<br>---- --- --------- ------- ----- --------- ---- ----- --<br>------ -------- -- ------ -- ---- ------------,263348.0999999996,263347.30000000075,263119.668,263120.2000000011,263136.349,263353.025,,23,nuclei
screen,html.Screen,2_3_1_0_1_24,2022-04-27T12:57:50.331Z,,,,,,,,,,,,,,,,,19,,,,,,,,,,,,,,230.1750000010943,,response,,,,17,C,,,,,,Space,keypress(Space),,,,instrumental,,,,-------------- --- -------- -------- ---------- ---- -------<br>-- ---------- -- --- ----- ------ ----- ---- --------- ----<br>------- ------ -------- -- ------ ---------- ------ are<br>------ -- -- ---- -- ---------- -------- ------ ---- -------<br>---- --- --------- ------- ----- --------- ---- ----- --<br>------ -------- -- ------ -- ---- ------------,263584.4000000004,263583.2000000011,263336.349,263348.4000000004,263353.025,263586.396,,24,are
screen,html.Screen,2_3_1_0_1_25,2022-04-27T12:57:50.583Z,,,,,,,,,,,,,,,,,19,,,,,,,,,,,,,,248.90400000073714,,response,,,,17,C,,,,,,Space,keypress(Space),,,,instrumental,,,,-------------- --- -------- -------- ---------- ---- -------<br>-- ---------- -- --- ----- ------ ----- ---- --------- ----<br>------- ------ -------- -- ------ ---------- ------ ---<br>likely -- -- ---- -- ---------- -------- ------ ---- -------<br>---- --- --------- ------- ----- --------- ---- ----- --<br>------ -------- -- ------ -- ---- ------------,263836.2000000011,263835.30000000075,263569.679,263584.5999999996,263586.396,263853.065,,25,likely
screen,html.Screen,2_3_1_0_1_26,2022-04-27T12:57:50.808Z,,,,,,,,,,,,,,,,,19,,,,,,,,,,,,,,206.93499999999767,,response,,,,17,C,,,,,,Space,keypress(Space),,,,instrumental,,,,-------------- --- -------- -------- ---------- ---- -------<br>-- ---------- -- --- ----- ------ ----- ---- --------- ----<br>------- ------ -------- -- ------ ---------- ------ ---<br>------ to -- ---- -- ---------- -------- ------ ---- -------<br>---- --- --------- ------- ----- --------- ---- ----- --<br>------ -------- -- ------ -- ---- ------------,264060.9000000004,264060,263836.345,263836.4000000004,263853.065,264069.751,,26,to
screen,html.Screen,2_3_1_0_1_27,2022-04-27T12:57:51.023Z,,,,,,,,,,,,,,,,,19,,,,,,,,,,,,,,205.7490000000107,,response,,,,17,C,,,,,,Space,keypress(Space),,,,instrumental,,,,-------------- --- -------- -------- ---------- ---- -------<br>-- ---------- -- --- ----- ------ ----- ---- --------- ----<br>------- ------ -------- -- ------ ---------- ------ ---<br>------ -- be ---- -- ---------- -------- ------ ---- -------<br>---- --- --------- ------- ----- --------- ---- ----- --<br>------ -------- -- ------ -- ---- ------------,264276.30000000075,264275.5,264053.078,264061,264069.751,264286.403,,27,be
screen,html.Screen,2_3_1_0_1_28,2022-04-27T12:57:51.255Z,,,,,,,,,,,,,,,,,19,,,,,,,,,,,,,,220.8970000007539,,response,,,,17,C,,,,,,Space,keypress(Space),,,,instrumental,,,,-------------- --- -------- -------- ---------- ---- -------<br>-- ---------- -- --- ----- ------ ----- ---- --------- ----<br>------- ------ -------- -- ------ ---------- ------ ---<br>------ -- -- full -- ---------- -------- ------ ---- -------<br>---- --- --------- ------- ----- --------- ---- ----- --<br>------ -------- -- ------ -- ---- ------------,264508.0999999996,264507.30000000075,264269.747,264276.5,264286.403,264519.786,,28,full
screen,html.Screen,2_3_1_0_1_29,2022-04-27T12:57:51.479Z,,,,,,,,,,,,,,,,,19,,,,,,,,,,,,,,211.51400000072317,,response,,,,17,C,,,,,,Space,keypress(Space),,,,instrumental,,,,-------------- --- -------- -------- ---------- ---- -------<br>-- ---------- -- --- ----- ------ ----- ---- --------- ----<br>------- ------ -------- -- ------ ---------- ------ ---<br>------ -- -- ---- of ---------- -------- ------ ---- -------<br>---- --- --------- ------- ----- --------- ---- ----- --<br>------ -------- -- ------ -- ---- ------------,264732,264731.30000000075,264503.107,264508.30000000075,264519.786,264736.462,,29,of
screen,html.Screen,2_3_1_0_1_30,2022-04-27T12:57:51.679Z,,,,,,,,,,,,,,,,,19,,,,,,,,,,,,,,194.73800000111805,,response,,,,17,C,,,,,,Space,keypress(Space),,,,instrumental,,,,-------------- --- -------- -------- ---------- ---- -------<br>-- ---------- -- --- ----- ------ ----- ---- --------- ----<br>------- ------ -------- -- ------ ---------- ------ ---<br>------ -- -- ---- -- surprises. -------- ------ ---- -------<br>---- --- --------- ------- ----- --------- ---- ----- --<br>------ -------- -- ------ -- ---- ------------,264932,264931.2000000011,264719.765,264732.2000000011,264736.462,264936.495,,30,surprises.
screen,html.Screen,2_3_1_0_1_31,2022-04-27T12:57:51.903Z,,,,,,,,,,,,,,,,,19,,,,,,,,,,,,,,218.90500000037719,,response,,,,17,C,,,,,,Space,keypress(Space),,,,instrumental,,,,-------------- --- -------- -------- ---------- ---- -------<br>-- ---------- -- --- ----- ------ ----- ---- --------- ----<br>------- ------ -------- -- ------ ---------- ------ ---<br>------ -- -- ---- -- ---------- Chemists ------ ---- -------<br>---- --- --------- ------- ----- --------- ---- ----- --<br>------ -------- -- ------ -- ---- ------------,265156.30000000075,265155.4000000004,264919.788,264932.0999999996,264936.495,265169.829,,31,Chemists
screen,html.Screen,2_3_1_0_1_32,2022-04-27T12:57:52.127Z,,,,,,,,,,,,,,,,,19,,,,,,,,,,,,,,209.47100000071805,,response,,,,17,C,,,,,,Space,keypress(Space),,,,instrumental,,,,-------------- --- -------- -------- ---------- ---- -------<br>-- ---------- -- --- ----- ------ ----- ---- --------- ----<br>------- ------ -------- -- ------ ---------- ------ ---<br>------ -- -- ---- -- ---------- -------- cannot ---- -------<br>---- --- --------- ------- ----- --------- ---- ----- --<br>------ -------- -- ------ -- ---- ------------,265380,265379.30000000075,265153.147,265156.4000000004,265169.829,265386.51,,32,cannot
screen,html.Screen,2_3_1_0_1_33,2022-04-27T12:57:52.363Z,,,,,,,,,,,,,,,,,19,,,,,,,,,,,,,,228.69000000110827,,response,,,,17,C,,,,,,Space,keypress(Space),,,,instrumental,,,,-------------- --- -------- -------- ---------- ---- -------<br>-- ---------- -- --- ----- ------ ----- ---- --------- ----<br>------- ------ -------- -- ------ ---------- ------ ---<br>------ -- -- ---- -- ---------- -------- ------ even -------<br>---- --- --------- ------- ----- --------- ---- ----- --<br>------ -------- -- ------ -- ---- ------------,265615.9000000004,265615.2000000011,265369.81,265380.2000000011,265386.51,265619.863,,33,even
screen,html.Screen,2_3_1_0_1_34,2022-04-27T12:57:52.606Z,,,,,,,,,,,,,,,,,19,,,,,,,,,,,,,,238.6369999999879,,response,,,,17,C,,,,,,Space,keypress(Space),,,,instrumental,,,,-------------- --- -------- -------- ---------- ---- -------<br>-- ---------- -- --- ----- ------ ----- ---- --------- ----<br>------- ------ -------- -- ------ ---------- ------ ---<br>------ -- -- ---- -- ---------- -------- ------ ---- predict<br>---- --- --------- ------- ----- --------- ---- ----- --<br>------ -------- -- ------ -- ---- ------------,265859.2000000011,265858.5,265603.197,265616.0999999996,265619.863,265869.89,,34,predict
screen,html.Screen,2_3_1_0_1_35,2022-04-27T12:57:52.838Z,,,,,,,,,,,,,,,,,19,,,,,,,,,,,,,,220.51000000035856,,response,,,,17,C,,,,,,Space,keypress(Space),,,,instrumental,,,,-------------- --- -------- -------- ---------- ---- -------<br>-- ---------- -- --- ----- ------ ----- ---- --------- ----<br>------- ------ -------- -- ------ ---------- ------ ---<br>------ -- -- ---- -- ---------- -------- ------ ---- -------<br>with --- --------- ------- ----- --------- ---- ----- --<br>------ -------- -- ------ -- ---- ------------,266091.4000000004,266090.4000000004,265853.187,265859.4000000004,265869.89,266103.251,,35,with
screen,html.Screen,2_3_1_0_1_36,2022-04-27T12:57:53.062Z,,,,,,,,,,,,,,,,,19,,,,,,,,,,,,,,210.9490000011283,,response,,,,17,C,,,,,,Space,keypress(Space),,,,instrumental,,,,-------------- --- -------- -------- ---------- ---- -------<br>-- ---------- -- --- ----- ------ ----- ---- --------- ----<br>------- ------ -------- -- ------ ---------- ------ ---<br>------ -- -- ---- -- ---------- -------- ------ ---- -------<br>---- any --------- ------- ----- --------- ---- ----- --<br>------ -------- -- ------ -- ---- ------------,266315.0999999996,266314.2000000011,266086.56,266091.5999999996,266103.251,266319.91,,36,any
screen,html.Screen,2_3_1_0_1_37,2022-04-27T12:57:53.270Z,,,,,,,,,,,,,,,,,19,,,,,,,,,,,,,,202.68999999965308,,response,,,,17,C,,,,,,Space,keypress(Space),,,,instrumental,,,,-------------- --- -------- -------- ---------- ---- -------<br>-- ---------- -- --- ----- ------ ----- ---- --------- ----<br>------- ------ -------- -- ------ ---------- ------ ---<br>------ -- -- ---- -- ---------- -------- ------ ---- -------<br>---- --- certainty ------- ----- --------- ---- ----- --<br>------ -------- -- ------ -- ---- ------------,266523.4000000004,266522.5999999996,266303.265,266315.30000000075,266319.91,266536.59,,37,certainty
screen,html.Screen,2_3_1_0_1_38,2022-04-27T12:57:53.502Z,,,,,,,,,,,,,,,,,19,,,,,,,,,,,,,,217.61000000109198,,response,,,,17,C,,,,,,Space,keypress(Space),,,,instrumental,,,,-------------- --- -------- -------- ---------- ---- -------<br>-- ---------- -- --- ----- ------ ----- ---- --------- ----<br>------- ------ -------- -- ------ ---------- ------ ---<br>------ -- -- ---- -- ---------- -------- ------ ---- -------<br>---- --- --------- whether ----- --------- ---- ----- --<br>------ -------- -- ------ -- ---- ------------,266755,266754.2000000011,266519.915,266523.5,266536.59,266769.953,,38,whether
