sender,sender_type,sender_id,timestamp,meta,,Blues,Classical,Country,Dance,Electronic,Folk,Gospel,Hip-Hop,Jazz,Latin,Musical/Film,New-age,Pop,Prolific_id,Provo_ID,R&B,Rap,Reggae,Religious,Rock,Soul,Swing,Traditional,age,artist_name,correct,correctResponse,distraction,duration,education,ended_on,familiarity,gender,headphone_check_performance,item,list,music_frequency,offensiveness,pleasantness,position_correct,preference,response,response_action,snippet_file,song_name,song_rating,sound,stimulus_1,stimulus_2,stimulus_3,text,time_commit,time_end,time_render,time_run,time_show,time_switch,url,word,word_ID
Prolific ID,html.Form,0,2022-04-27T12:49:57.460Z,"{""labjs_version"":""20.2.2"",""labjs_build"":{""flavor"":""production"",""commit"":""a25486e0c714a0ae2ce03ff94b7bb6896854dcfa""},""location"":""https://run.pavlovia.org/mvasilev/prolific3_music_c/"",""userAgent"":""Mozilla/5.0 (X11; CrOS x86_64 14469.59.0) AppleWebKit/537.36 (KHTML, like Gecko) Chrome/99.0.4844.94 Safari/537.36"",""platform"":""Linux x86_64"",""language"":""en-GB"",""locale"":""en-US"",""timeZone"":""Europe/Stockholm"",""timezoneOffset"":-120,""screen_width"":1366,""screen_height"":768,""scroll_width"":1228,""scroll_height"":574,""window_innerWidth"":1228,""window_innerHeight"":622,""devicePixelRatio"":1}",,,,,,,,,,,,,,,5b2240df023fe3000150533f,,,,,,,,,,,,,,,4532.849999999256,,form submission,,,,,,,,,,,,,,,,,,,,,23206.89999999944,23206.199999999255,18640.02,18642.89999999944,18673.35,23223.205,{},,
Introduction,html.Screen,1_0,2022-04-27T12:50:02.467Z,,,,,,,,,,,,,,,,,,,,,,,,,,,,,,,4988.6949999994395,,response,,,,,,,,,,,continue,click button,,,,,,,,,28213.699999999255,28211.89999999944,23189.871,23207.299999999814,23223.205,28239.601,,,
Volume calibration,html.Screen,1_1,2022-04-27T12:50:32.039Z,,,,,,,,,,,,,,,,,,,,,,,,,,,,,,,29544.098999999256,,response,,,,,,,,,,,continue,click button,,,,,,,,,57785.299999999814,57783.699999999255,28222.936,28213.89999999944,28239.601,57788.274,,,
Task instructions,html.Screen,1_2,2022-04-27T12:50:43.618Z,,,,,,,,,,,,,,,,,,,,,,,,,,,,,,,11574.425999999257,,response,,,,,,,,,,,continue,click button,,,,,,,,,69364.39999999944,69362.69999999925,57771.609,57785.5,57788.274,69371.04,,,
Sounds,html.Screen,1_3_0_0,2022-04-27T12:50:47.859Z,,,,,,,,,,,,,,,,,,,,,,,,,,,,,,,4249.632000000012,,timeout,,,,,,,,,2,,,,,,,,I,S,O,,73605.5,73604.007,69354.375,69364.59999999963,69371.04,73620.672,,,
Judgement,html.Screen,1_3_0_1,2022-04-27T12:50:51.330Z,,,,,,,,,,,,,,,,,,,,,,,,,,,,false,2,,3454.527999999249,,response,,,,,,,,,2,,3,click #choice-3,,,,,I,S,O,,77076.89999999944,77075.19999999925,73604.007,73605.79999999981,73620.672,77087.362,,,
Trial,flow.Sequence,1_3_0,2022-04-27T12:50:51.331Z,,,,,,,,,,,,,,,,,,,,,,,,,,,,,,,7704.159999999261,,completion,,,,,,,,,2,,,,,,,,I,S,O,,77077.19999999925,77075.19999999925,69354.375,69364.5,69371.04,77087.362,,,
Sounds,html.Screen,1_3_1_0,2022-04-27T12:50:55.575Z,,,,,,,,,,,,,,,,,,,,,,,,,,,,,,,4249.611000000004,,timeout,,,,,,,,,1,,,,,,,,S,O,I,,81321.29999999981,81320.308,77070.697,77077.29999999981,77087.362,81336.973,,,
Judgement,html.Screen,1_3_1_1,2022-04-27T12:50:56.798Z,,,,,,,,,,,,,,,,,,,,,,,,,,,,true,1,,1205.8269999998156,,response,,,,,,,,,1,,1,click #choice-1,,,,,S,O,I,,82544.5,82542.79999999981,81320.308,81321.5,81336.973,82553.773,,,
Trial,flow.Sequence,1_3_1,2022-04-27T12:50:56.798Z,,,,,,,,,,,,,,,,,,,,,,,,,,,,,,,5455.43799999982,,completion,,,,,,,,,1,,,,,,,,S,O,I,,82544.89999999944,82542.79999999981,77070.697,77077.29999999981,77087.362,82553.773,,,
Sounds,html.Screen,1_3_2_0,2022-04-27T12:51:01.041Z,,,,,,,,,,,,,,,,,,,,,,,,,,,,,,,4249.603000000003,,timeout,,,,,,,,,3,,,,,,,,O,I,S,,86787.89999999944,86786.711,82537.108,82545.29999999981,82553.773,86803.376,,,
Judgement,html.Screen,1_3_2_1,2022-04-27T12:51:01.845Z,,,,,,,,,,,,,,,,,,,,,,,,,,,,true,3,,786.5239999994374,,response,,,,,,,,,3,,3,click #choice-3,,,,,O,I,S,,87591.89999999944,87589.89999999944,86786.711,86788.09999999963,86803.376,87603.564,,,
Trial,flow.Sequence,1_3_2,2022-04-27T12:51:01.846Z,,,,,,,,,,,,,,,,,,,,,,,,,,,,,,,5036.12699999944,,completion,,,,,,,,,3,,,,,,,,O,I,S,,87592.19999999925,87589.89999999944,82537.108,82545,82553.773,87603.564,,,
Sounds,html.Screen,1_3_3_0,2022-04-27T12:51:06.091Z,,,,,,,,,,,,,,,,,,,,,,,,,,,,,,,4249.582999999999,,timeout,,,,,,,,,1,,,,,,,,S,I,O,,91837.59999999963,91836.482,87586.899,87592.29999999981,87603.564,91853.147,,,
Judgement,html.Screen,1_3_3_1,2022-04-27T12:51:06.716Z,,,,,,,,,,,,,,,,,,,,,,,,,,,,true,1,,608.252999999444,,response,,,,,,,,,1,,1,click #choice-1,,,,,S,I,O,,92462.89999999944,92461.39999999944,91836.482,91837.79999999981,91853.147,92469.977,,,
Trial,flow.Sequence,1_3_3,2022-04-27T12:51:06.716Z,,,,,,,,,,,,,,,,,,,,,,,,,,,,,,,4857.835999999443,,completion,,,,,,,,,1,,,,,,,,S,I,O,,92463.09999999963,92461.39999999944,87586.899,87592.29999999981,87603.564,92469.977,,,
Sounds,html.Screen,1_3_4_0,2022-04-27T12:51:10.957Z,,,,,,,,,,,,,,,,,,,,,,,,,,,,,,,4249.603000000003,,timeout,,,,,,,,,3,,,,,,,,I,O,S,,96703.89999999944,96702.915,92453.312,92463.19999999925,92469.977,96719.58,,,
Judgement,html.Screen,1_3_4_1,2022-04-27T12:51:11.636Z,,,,,,,,,,,,,,,,,,,,,,,,,,,,true,3,,661.4199999999983,,response,,,,,,,,,3,,3,click #choice-3,,,,,I,O,S,,97382.5,97381,96702.915,96704.09999999963,96719.58,97386.43,,,
Trial,flow.Sequence,1_3_4,2022-04-27T12:51:11.636Z,,,,,,,,,,,,,,,,,,,,,,,,,,,,,,,4911.023000000001,,completion,,,,,,,,,3,,,,,,,,I,O,S,,97382.69999999925,97381,92453.312,92463.19999999925,92469.977,97386.43,,,
Sounds,html.Screen,1_3_5_0,2022-04-27T12:51:15.874Z,,,,,,,,,,,,,,,,,,,,,,,,,,,,,,,4249.595000000001,,timeout,,,,,,,,,2,,,,,,,,O,S,I,,101620.19999999925,101619.36,97369.765,97382.89999999944,97386.43,101636.025,,,
Judgement,html.Screen,1_3_5_1,2022-04-27T12:51:16.517Z,,,,,,,,,,,,,,,,,,,,,,,,,,,,true,2,,626.2749999998196,,response,,,,,,,,,2,,2,click #choice-2,,,,,O,S,I,,102264,102262.29999999981,101619.36,101620.29999999981,101636.025,102269.545,,,
Trial,flow.Sequence,1_3_5,2022-04-27T12:51:16.518Z,,,,,,,,,,,,,,,,,,,,,,,,,,,,,,,4875.869999999821,,completion,,,,,,,,,2,,,,,,,,O,S,I,,102264.19999999925,102262.29999999981,97369.765,97382.79999999981,97386.43,102269.545,,,
Task,flow.Loop,1_3,2022-04-27T12:51:16.518Z,,,,,,,,,,,,,,,,,,,,,,,,,,,,,,,32891.25999999982,,completion,,,0.8333333333333334,,,,,,,,,,,,,,,,,,102264.79999999981,102262.29999999981,69354.375,69364.39999999944,69371.04,102269.545,,,
Trap,html.Screen,1_4,2022-04-27T12:51:16.520Z,,,,,,,,,,,,,,,,,,,,,,,,,,,,,,,NaN,,skipped,,,,,,,,,,,,,,,,,,,,,102266.59999999963,102262.29999999981,,102266.39999999944,,102269.545,,,
Thanks,html.Screen,1_5,2022-04-27T12:51:20.910Z,,,,,,,,,,,,,,,,,,,,,,,,,,,,,,,4385.854999999443,,response,,,,,,,,,,,continue,click button,,,,,,,,,106656.89999999944,106655.39999999944,102252.88,102266.69999999925,102269.545,112752.077,,,
Headphone screening,flow.Sequence,1,2022-04-27T12:51:20.910Z,,,,,,,,,,,,,,,,,,,,,,,,,,,,,,,83432.19499999944,,completion,,,,,,,,,,,,,,,,,,,,,106657.09999999963,106655.39999999944,23189.871,23207.299999999814,23223.205,112752.077,,,
Instructions,html.Page,2_0,2022-04-27T12:51:55.336Z,,,,,,,,,,,,,,,,,,,,,,,,,,,,,,,28330.12299999925,,form submission,,,,,,,,,,,,,,,,,,,,,141082.7999999998,141082.19999999925,112735.412,112750.19999999925,112752.077,141084.401,,,
Holding screen,html.Screen,2_1_0_0,2022-04-27T12:52:05.322Z,,,,,,,,,,,,,,,,,,,,,,,,,,,,,,,9999.510999999999,,timeout,,,,,,,,,,,,,,,,,,,,,151068.2999999998,151067.247,141067.736,141083,141084.401,151083.912,,,
screen,html.Screen,2_1_0_1_0,2022-04-27T12:52:06.997Z,,,,,,,,,,,,,,,,,53,,,,,,,,,,,,,,1657.3879999998026,,response,,,,99,,,,,,,Space,keypress(Space),,,,,,,,When -- ----- -- ------ - ------- --- ----------<br>------------- ------ ------ ---- ---- ------- ----- -- ----<br>-------- ------- -- ---------- --- - --- ----- ----- ----<br>---- --- --- ----- --- ---- ---- ------- ----- ---- -------<br>--- --- -- ----- -- --- ---- -- --- ---- -- ------ ------<br>--- ----- -- ----,152743.5,152741.2999999998,151067.247,151068.59999999963,151083.912,152750.467,,0,When
screen,html.Screen,2_1_0_1_1,2022-04-27T12:52:07.588Z,,,,,,,,,,,,,,,,,53,,,,,,,,,,,,,,582.6329999996233,,response,,,,99,,,,,,,Space,keypress(Space),,,,,,,,---- it ----- -- ------ - ------- --- ----------<br>------------- ------ ------ ---- ---- ------- ----- -- ----<br>-------- ------- -- ---------- --- - --- ----- ----- ----<br>---- --- --- ----- --- ---- ---- ------- ----- ---- -------<br>--- --- -- ----- -- --- ---- -- --- ---- -- ------ ------<br>--- ----- -- ----,153334.59999999963,153333.09999999963,152733.802,152743.59999999963,152750.467,153350.492,,1,it
screen,html.Screen,2_1_0_1_2,2022-04-27T12:52:08.206Z,,,,,,,,,,,,,,,,,53,,,,,,,,,,,,,,600.3079999998154,,response,,,,99,,,,,,,Space,keypress(Space),,,,,,,,---- -- comes -- ------ - ------- --- ----------<br>------------- ------ ------ ---- ---- ------- ----- -- ----<br>-------- ------- -- ---------- --- - --- ----- ----- ----<br>---- --- --- ----- --- ---- ---- ------- ----- ---- -------<br>--- --- -- ----- -- --- ---- -- --- ---- -- ------ ------<br>--- ----- -- ----,153952.2999999998,153950.7999999998,153333.827,153334.7999999998,153350.492,153967.13,,2,comes
screen,html.Screen,2_1_0_1_3,2022-04-27T12:52:08.558Z,,,,,,,,,,,,,,,,,53,,,,,,,,,,,,,,336.4699999996228,,response,,,,99,,,,,,,Space,keypress(Space),,,,,,,,---- -- ----- to ------ - ------- --- ----------<br>------------- ------ ------ ---- ---- ------- ----- -- ----<br>-------- ------- -- ---------- --- - --- ----- ----- ----<br>---- --- --- ----- --- ---- ---- ------- ----- ---- -------<br>--- --- -- ----- -- --- ---- -- --- ---- -- ------ ------<br>--- ----- -- ----,154305,154303.59999999963,153950.465,153952.39999999944,153967.13,154317.132,,3,to
screen,html.Screen,2_1_0_1_4,2022-04-27T12:52:08.978Z,,,,,,,,,,,,,,,,,53,,,,,,,,,,,,,,405.76799999942887,,response,,,,99,,,,,,,Space,keypress(Space),,,,,,,,---- -- ----- -- having - ------- --- ----------<br>------------- ------ ------ ---- ---- ------- ----- -- ----<br>-------- ------- -- ---------- --- - --- ----- ----- ----<br>---- --- --- ----- --- ---- ---- ------- ----- ---- -------<br>--- --- -- ----- -- --- ---- -- --- ---- -- ------ ------<br>--- ----- -- ----,154724.39999999944,154722.89999999944,154300.467,154305.09999999963,154317.132,154733.768,,4,having
screen,html.Screen,2_1_0_1_5,2022-04-27T12:52:09.308Z,,,,,,,,,,,,,,,,,53,,,,,,,,,,,,,,319.0319999998028,,response,,,,99,,,,,,,Space,keypress(Space),,,,,,,,---- -- ----- -- ------ a ------- --- ----------<br>------------- ------ ------ ---- ---- ------- ----- -- ----<br>-------- ------- -- ---------- --- - --- ----- ----- ----<br>---- --- --- ----- --- ---- ---- ------- ----- ---- -------<br>--- --- -- ----- -- --- ---- -- --- ---- -- ------ ------<br>--- ----- -- ----,155054.2999999998,155052.7999999998,154717.103,154724.59999999963,154733.768,155067.108,,5,a
screen,html.Screen,2_1_0_1_6,2022-04-27T12:52:09.680Z,,,,,,,,,,,,,,,,,53,,,,,,,,,,,,,,358.1919999998063,,response,,,,99,,,,,,,Space,keypress(Space),,,,,,,,---- -- ----- -- ------ - lasting --- ----------<br>------------- ------ ------ ---- ---- ------- ----- -- ----<br>-------- ------- -- ---------- --- - --- ----- ----- ----<br>---- --- --- ----- --- ---- ---- ------- ----- ---- -------<br>--- --- -- ----- -- --- ---- -- --- ---- -- ------ ------<br>--- ----- -- ----,155427,155425.2999999998,155050.443,155054.39999999944,155067.108,155433.742,,6,lasting
screen,html.Screen,2_1_0_1_7,2022-04-27T12:52:10.071Z,,,,,,,,,,,,,,,,,53,,,,,,,,,,,,,,381.9579999992566,,response,,,,99,,,,,,,Space,keypress(Space),,,,,,,,---- -- ----- -- ------ - ------- and ----------<br>------------- ------ ------ ---- ---- ------- ----- -- ----<br>-------- ------- -- ---------- --- - --- ----- ----- ----<br>---- --- --- ----- --- ---- ---- ------- ----- ---- -------<br>--- --- -- ----- -- --- ---- -- --- ---- -- ------ ------<br>--- ----- -- ----,155817.39999999944,155815.69999999925,155417.077,155427.19999999925,155433.742,155833.721,,7,and
screen,html.Screen,2_1_0_1_8,2022-04-27T12:52:10.502Z,,,,,,,,,,,,,,,,,53,,,,,,,,,,,,,,413.0789999998233,,response,,,,99,,,,,,,Space,keypress(Space),,,,,,,,---- -- ----- -- ------ - ------- --- fulfilling<br>------------- ------ ------ ---- ---- ------- ----- -- ----<br>-------- ------- -- ---------- --- - --- ----- ----- ----<br>---- --- --- ----- --- ---- ---- ------- ----- ---- -------<br>--- --- -- ----- -- --- ---- -- --- ---- -- ------ ------<br>--- ----- -- ----,156248.69999999925,156246.7999999998,155817.056,155817.59999999963,155833.721,156250.374,,8,fulfilling
screen,html.Screen,2_1_0_1_9,2022-04-27T12:52:10.932Z,,,,,,,,,,,,,,,,,53,,,,,,,,,,,,,,426.1259999999893,,response,,,,99,,,,,,,Space,keypress(Space),,,,,,,,"---- -- ----- -- ------ - ------- --- ----------<br>relationship, ------ ------ ---- ---- ------- ----- -- ----<br>-------- ------- -- ---------- --- - --- ----- ----- ----<br>---- --- --- ----- --- ---- ---- ------- ----- ---- -------<br>--- --- -- ----- -- --- ---- -- --- ---- -- ------ ------<br>--- ----- -- ----",156678.59999999963,156676.5,156233.709,156248.7999999998,156250.374,156683.678,,9,"relationship,"
screen,html.Screen,2_1_0_1_10,2022-04-27T12:52:11.392Z,,,,,,,,,,,,,,,,,53,,,,,,,,,,,,,,453.0219999992405,,response,,,,99,,,,,,,Space,keypress(Space),,,,,,,,---- -- ----- -- ------ - ------- --- ----------<br>------------- common ------ ---- ---- ------- ----- -- ----<br>-------- ------- -- ---------- --- - --- ----- ----- ----<br>---- --- --- ----- --- ---- ---- ------- ----- ---- -------<br>--- --- -- ----- -- --- ---- -- --- ---- -- ------ ------<br>--- ----- -- ----,157138.7999999998,157136.69999999925,156667.013,156678.7999999998,156683.678,157150.329,,10,common
screen,html.Screen,2_1_0_1_11,2022-04-27T12:52:11.813Z,,,,,,,,,,,,,,,,,53,,,,,,,,,,,,,,407.5709999994433,,response,,,,99,,,,,,,Space,keypress(Space),,,,,,,,---- -- ----- -- ------ - ------- --- ----------<br>------------- ------ wisdom ---- ---- ------- ----- -- ----<br>-------- ------- -- ---------- --- - --- ----- ----- ----<br>---- --- --- ----- --- ---- ---- ------- ----- ---- -------<br>--- --- -- ----- -- --- ---- -- --- ---- -- ------ ------<br>--- ----- -- ----,157559.69999999925,157557.89999999944,157133.664,157138.89999999944,157150.329,157566.989,,11,wisdom
screen,html.Screen,2_1_0_1_12,2022-04-27T12:52:12.213Z,,,,,,,,,,,,,,,,,53,,,,,,,,,,,,,,390.81099999981234,,response,,,,99,,,,,,,Space,keypress(Space),,,,,,,,---- -- ----- -- ------ - ------- --- ----------<br>------------- ------ ------ says ---- ------- ----- -- ----<br>-------- ------- -- ---------- --- - --- ----- ----- ----<br>---- --- --- ----- --- ---- ---- ------- ----- ---- -------<br>--- --- -- ----- -- --- ---- -- --- ---- -- ------ ------<br>--- ----- -- ----,157959.89999999944,157957.7999999998,157550.324,157559.7999999998,157566.989,157966.96,,12,says
screen,html.Screen,2_1_0_1_13,2022-04-27T12:52:12.611Z,,,,,,,,,,,,,,,,,53,,,,,,,,,,,,,,389.43999999944936,,response,,,,99,,,,,,,Space,keypress(Space),,,,,,,,---- -- ----- -- ------ - ------- --- ----------<br>------------- ------ ------ ---- that ------- ----- -- ----<br>-------- ------- -- ---------- --- - --- ----- ----- ----<br>---- --- --- ----- --- ---- ---- ------- ----- ---- -------<br>--- --- -- ----- -- --- ---- -- --- ---- -- ------ ------<br>--- ----- -- ----,158357.89999999944,158356.39999999944,157950.295,157960.09999999963,157966.96,158366.938,,13,that
screen,html.Screen,2_1_0_1_14,2022-04-27T12:52:13.000Z,,,,,,,,,,,,,,,,,53,,,,,,,,,,,,,,377.96199999944656,,response,,,,99,,,,,,,Space,keypress(Space),,,,,,,,---- -- ----- -- ------ - ------- --- ----------<br>------------- ------ ------ ---- ---- feeling ----- -- ----<br>-------- ------- -- ---------- --- - --- ----- ----- ----<br>---- --- --- ----- --- ---- ---- ------- ----- ---- -------<br>--- --- -- ----- -- --- ---- -- --- ---- -- ------ ------<br>--- ----- -- ----,158747,158744.89999999944,158350.273,158357.89999999944,158366.938,158750.263,,14,feeling
screen,html.Screen,2_1_0_1_15,2022-04-27T12:52:13.453Z,,,,,,,,,,,,,,,,,53,,,,,,,,,,,,,,447.43699999924866,,response,,,,99,,,,,,,Space,keypress(Space),,,,,,,,---- -- ----- -- ------ - ------- --- ----------<br>------------- ------ ------ ---- ---- ------- close -- ----<br>-------- ------- -- ---------- --- - --- ----- ----- ----<br>---- --- --- ----- --- ---- ---- ------- ----- ---- -------<br>--- --- -- ----- -- --- ---- -- --- ---- -- ------ ------<br>--- ----- -- ----,159199.2999999998,159197.69999999925,158733.598,158747.09999999963,158750.263,159216.902,,15,close
screen,html.Screen,2_1_0_1_16,2022-04-27T12:52:13.853Z,,,,,,,,,,,,,,,,,53,,,,,,,,,,,,,,380.99799999943934,,response,,,,99,,,,,,,Space,keypress(Space),,,,,,,,---- -- ----- -- ------ - ------- --- ----------<br>------------- ------ ------ ---- ---- ------- ----- to ----<br>-------- ------- -- ---------- --- - --- ----- ----- ----<br>---- --- --- ----- --- ---- ---- ------- ----- ---- -------<br>--- --- -- ----- -- --- ---- -- --- ---- -- ------ ------<br>--- ----- -- ----,159599.39999999944,159597.89999999944,159200.237,159199.39999999944,159216.902,159616.88,,16,to
screen,html.Screen,2_1_0_1_17,2022-04-27T12:52:14.249Z,,,,,,,,,,,,,,,,,53,,,,,,,,,,,,,,377.51999999943655,,response,,,,99,,,,,,,Space,keypress(Space),,,,,,,,---- -- ----- -- ------ - ------- --- ----------<br>------------- ------ ------ ---- ---- ------- ----- -- your<br>-------- ------- -- ---------- --- - --- ----- ----- ----<br>---- --- --- ----- --- ---- ---- ------- ----- ---- -------<br>--- --- -- ----- -- --- ---- -- --- ---- -- ------ ------<br>--- ----- -- ----,159995.7999999998,159994.39999999944,159600.215,159599.59999999963,159616.88,160000.2,,17,your
screen,html.Screen,2_1_0_1_18,2022-04-27T12:52:14.657Z,,,,,,,,,,,,,,,,,53,,,,,,,,,,,,,,402.19999999942956,,response,,,,99,,,,,,,Space,keypress(Space),,,,,,,,---- -- ----- -- ------ - ------- --- ----------<br>------------- ------ ------ ---- ---- ------- ----- -- ----<br>romantic ------- -- ---------- --- - --- ----- ----- ----<br>---- --- --- ----- --- ---- ---- ------- ----- ---- -------<br>--- --- -- ----- -- --- ---- -- --- ---- -- ------ ------<br>--- ----- -- ----,160403.89999999944,160402.39999999944,159983.535,159995.89999999944,160000.2,160416.849,,18,romantic
screen,html.Screen,2_1_0_1_19,2022-04-27T12:52:15.048Z,,,,,,,,,,,,,,,,,53,,,,,,,,,,,,,,376.1510000000126,,response,,,,99,,,,,,,Space,keypress(Space),,,,,,,,---- -- ----- -- ------ - ------- --- ----------<br>------------- ------ ------ ---- ---- ------- ----- -- ----<br>-------- partner -- ---------- --- - --- ----- ----- ----<br>---- --- --- ----- --- ---- ---- ------- ----- ---- -------<br>--- --- -- ----- -- --- ---- -- --- ---- -- ------ ------<br>--- ----- -- ----,160794.69999999925,160793,160400.184,160404,160416.849,160800.171,,19,partner
screen,html.Screen,2_1_0_1_20,2022-04-27T12:52:15.461Z,,,,,,,,,,,,,,,,,53,,,,,,,,,,,,,,406.12899999981164,,response,,,,99,,,,,,,Space,keypress(Space),,,,,,,,---- -- ----- -- ------ - ------- --- ----------<br>------------- ------ ------ ---- ---- ------- ----- -- ----<br>-------- ------- is ---------- --- - --- ----- ----- ----<br>---- --- --- ----- --- ---- ---- ------- ----- ---- -------<br>--- --- -- ----- -- --- ---- -- --- ---- -- ------ ------<br>--- ----- -- ----,161208,161206.2999999998,160783.506,160794.7999999998,160800.171,161216.815,,20,is
screen,html.Screen,2_1_0_1_21,2022-04-27T12:52:15.845Z,,,,,,,,,,,,,,,,,53,,,,,,,,,,,,,,372.78499999962514,,response,,,,99,,,,,,,Space,keypress(Space),,,,,,,,---- -- ----- -- ------ - ------- --- ----------<br>------------- ------ ------ ---- ---- ------- ----- -- ----<br>-------- ------- -- paramount. --- - --- ----- ----- ----<br>---- --- --- ----- --- ---- ---- ------- ----- ---- -------<br>--- --- -- ----- -- --- ---- -- --- ---- -- ------ ------<br>--- ----- -- ----,161591.2999999998,161589.59999999963,161200.15,161208.09999999963,161216.815,161600.137,,21,paramount.
screen,html.Screen,2_1_0_1_22,2022-04-27T12:52:16.371Z,,,,,,,,,,,,,,,,,53,,,,,,,,,,,,,,516.3630000000121,,response,,,,99,,,,,,,Space,keypress(Space),,,,,,,,---- -- ----- -- ------ - ------- --- ----------<br>------------- ------ ------ ---- ---- ------- ----- -- ----<br>-------- ------- -- ---------- But - --- ----- ----- ----<br>---- --- --- ----- --- ---- ---- ------- ----- ---- -------<br>--- --- -- ----- -- --- ---- -- --- ---- -- ------ ------<br>--- ----- -- ----,162118.09999999963,162116.5,161583.472,161591.5,161600.137,162133.43,,22,But
screen,html.Screen,2_1_0_1_23,2022-04-27T12:52:16.839Z,,,,,,,,,,,,,,,,,53,,,,,,,,,,,,,,450.4699999994482,,response,,,,99,,,,,,,Space,keypress(Space),,,,,,,,---- -- ----- -- ------ - ------- --- ----------<br>------------- ------ ------ ---- ---- ------- ----- -- ----<br>-------- ------- -- ---------- --- a --- ----- ----- ----<br>---- --- --- ----- --- ---- ---- ------- ----- ---- -------<br>--- --- -- ----- -- --- ---- -- --- ---- -- ------ ------<br>--- ----- -- ----,162585.39999999944,162583.89999999944,162116.765,162118.19999999925,162133.43,162600.087,,23,a
screen,html.Screen,2_1_0_1_24,2022-04-27T12:52:17.351Z,,,,,,,,,,,,,,,,,53,,,,,,,,,,,,,,493.3129999994417,,response,,,,99,,,,,,,Space,keypress(Space),,,,,,,,---- -- ----- -- ------ - ------- --- ----------<br>------------- ------ ------ ---- ---- ------- ----- -- ----<br>-------- ------- -- ---------- --- - new ----- ----- ----<br>---- --- --- ----- --- ---- ---- ------- ----- ---- -------<br>--- --- -- ----- -- --- ---- -- --- ---- -- ------ ------<br>--- ----- -- ----,163097.7999999998,163093.39999999944,162583.422,162585.5,162600.087,163100.054,,24,new
screen,html.Screen,2_1_0_1_25,2022-04-27T12:52:17.770Z,,,,,,,,,,,,,,,,,53,,,,,,,,,,,,,,414.74599999981,,response,,,,99,,,,,,,Space,keypress(Space),,,,,,,,---- -- ----- -- ------ - ------- --- ----------<br>------------- ------ ------ ---- ---- ------- ----- -- ----<br>-------- ------- -- ---------- --- - --- study ----- ----<br>---- --- --- ----- --- ---- ---- ------- ----- ---- -------<br>--- --- -- ----- -- --- ---- -- --- ---- -- ------ ------<br>--- ----- -- ----,163516.59999999963,163514.7999999998,163083.389,163097.89999999944,163100.054,163533.38,,25,study
screen,html.Screen,2_1_0_1_26,2022-04-27T12:52:18.205Z,,,,,,,,,,,,,,,,,53,,,,,,,,,,,,,,417.11999999999534,,response,,,,99,,,,,,,Space,keypress(Space),,,,,,,,---- -- ----- -- ------ - ------- --- ----------<br>------------- ------ ------ ---- ---- ------- ----- -- ----<br>-------- ------- -- ---------- --- - --- ----- finds ----<br>---- --- --- ----- --- ---- ---- ------- ----- ---- -------<br>--- --- -- ----- -- --- ---- -- --- ---- -- ------ ------<br>--- ----- -- ----,163951.7999999998,163950.5,163516.715,163516.7999999998,163533.38,163966.676,,26,finds
screen,html.Screen,2_1_0_1_27,2022-04-27T12:52:18.696Z,,,,,,,,,,,,,,,,,53,,,,,,,,,,,,,,474.22399999943445,,response,,,,99,,,,,,,Space,keypress(Space),,,,,,,,---- -- ----- -- ------ - ------- --- ----------<br>------------- ------ ------ ---- ---- ------- ----- -- ----<br>-------- ------- -- ---------- --- - --- ----- ----- that<br>---- --- --- ----- --- ---- ---- ------- ----- ---- -------<br>--- --- -- ----- -- --- ---- -- --- ---- -- ------ ------<br>--- ----- -- ----,164442.39999999944,164440.89999999944,163950.011,163951.89999999944,163966.676,164449.985,,27,that
screen,html.Screen,2_1_0_1_28,2022-04-27T12:52:19.098Z,,,,,,,,,,,,,,,,,53,,,,,,,,,,,,,,392.9149999994552,,response,,,,99,,,,,,,Space,keypress(Space),,,,,,,,---- -- ----- -- ------ - ------- --- ----------<br>------------- ------ ------ ---- ---- ------- ----- -- ----<br>-------- ------- -- ---------- --- - --- ----- ----- ----<br>it's --- --- ----- --- ---- ---- ------- ----- ---- -------<br>--- --- -- ----- -- --- ---- -- --- ---- -- ------ ------<br>--- ----- -- ----,164844.39999999944,164842.89999999944,164433.32,164442.5,164449.985,164849.976,,28,it's
screen,html.Screen,2_1_0_1_29,2022-04-27T12:52:19.481Z,,,,,,,,,,,,,,,,,53,,,,,,,,,,,,,,376.4239999994461,,response,,,,99,,,,,,,Space,keypress(Space),,,,,,,,---- -- ----- -- ------ - ------- --- ----------<br>------------- ------ ------ ---- ---- ------- ----- -- ----<br>-------- ------- -- ---------- --- - --- ----- ----- ----<br>---- not --- ----- --- ---- ---- ------- ----- ---- -------<br>--- --- -- ----- -- --- ---- -- --- ---- -- ------ ------<br>--- ----- -- ----,165228,165226.39999999944,164833.311,164844.5,164849.976,165233.292,,29,not
screen,html.Screen,2_1_0_1_30,2022-04-27T12:52:19.905Z,,,,,,,,,,,,,,,,,53,,,,,,,,,,,,,,416.80799999964074,,response,,,,99,,,,,,,Space,keypress(Space),,,,,,,,---- -- ----- -- ------ - ------- --- ----------<br>------------- ------ ------ ---- ---- ------- ----- -- ----<br>-------- ------- -- ---------- --- - --- ----- ----- ----<br>---- --- how ----- --- ---- ---- ------- ----- ---- -------<br>--- --- -- ----- -- --- ---- -- --- ---- -- ------ ------<br>--- ----- -- ----,165651.59999999963,165650.09999999963,165216.627,165228.19999999925,165233.292,165666.597,,30,how
screen,html.Screen,2_1_0_1_31,2022-04-27T12:52:20.304Z,,,,,,,,,,,,,,,,,53,,,,,,,,,,,,,,382.30299999943236,,response,,,,99,,,,,,,Space,keypress(Space),,,,,,,,---- -- ----- -- ------ - ------- --- ----------<br>------------- ------ ------ ---- ---- ------- ----- -- ----<br>-------- ------- -- ---------- --- - --- ----- ----- ----<br>---- --- --- close --- ---- ---- ------- ----- ---- -------<br>--- --- -- ----- -- --- ---- -- --- ---- -- ------ ------<br>--- ----- -- ----,166050.69999999925,166048.89999999944,165649.932,165651.89999999944,165666.597,166066.597,,31,close
screen,html.Screen,2_1_0_1_32,2022-04-27T12:52:20.743Z,,,,,,,,,,,,,,,,,53,,,,,,,,,,,,,,421.0029999996186,,response,,,,99,,,,,,,Space,keypress(Space),,,,,,,,---- -- ----- -- ------ - ------- --- ----------<br>------------- ------ ------ ---- ---- ------- ----- -- ----<br>-------- ------- -- ---------- --- - --- ----- ----- ----<br>---- --- --- ----- you ---- ---- ------- ----- ---- -------<br>--- --- -- ----- -- --- ---- -- --- ---- -- ------ ------<br>--- ----- -- ----,166489.39999999944,166487.59999999963,166049.932,166050.89999999944,166066.597,166499.904,,32,you
screen,html.Screen,2_1_0_1_33,2022-04-27T12:52:21.151Z,,,,,,,,,,,,,,,,,53,,,,,,,,,,,,,,395.59599999999045,,response,,,,99,,,,,,,Space,keypress(Space),,,,,,,,---- -- ----- -- ------ - ------- --- ----------<br>------------- ------ ------ ---- ---- ------- ----- -- ----<br>-------- ------- -- ---------- --- - --- ----- ----- ----<br>---- --- --- ----- --- feel ---- ------- ----- ---- -------<br>--- --- -- ----- -- --- ---- -- --- ---- -- ------ ------<br>--- ----- -- ----,166897.19999999925,166895.5,166483.239,166489.5,166499.904,166899.883,,33,feel
screen,html.Screen,2_1_0_1_34,2022-04-27T12:52:21.578Z,,,,,,,,,,,,,,,,,53,,,,,,,,,,,,,,423.71699999962584,,response,,,,99,,,,,,,Space,keypress(Space),,,,,,,,---- -- ----- -- ------ - ------- --- ----------<br>------------- ------ ------ ---- ---- ------- ----- -- ----<br>-------- ------- -- ---------- --- - --- ----- ----- ----<br>---- --- --- ----- --- ---- that ------- ----- ---- -------<br>--- --- -- ----- -- --- ---- -- --- ---- -- ------ ------<br>--- ----- -- ----,167325.09999999963,167323.59999999963,166883.218,166897.39999999944,166899.883,167333.191,,34,that
screen,html.Screen,2_1_0_1_35,2022-04-27T12:52:22.016Z,,,,,,,,,,,,,,,,,53,,,,,,,,,,,,,,427.90899999963585,,response,,,,99,,,,,,,Space,keypress(Space),,,,,,,,---- -- ----- -- ------ - ------- --- ----------<br>------------- ------ ------ ---- ---- ------- ----- -- ----<br>-------- ------- -- ---------- --- - --- ----- ----- ----<br>---- --- --- ----- --- ---- ---- matters ----- ---- -------<br>--- --- -- ----- -- --- ---- -- --- ---- -- ------ ------<br>--- ----- -- ----,167762.5,167761.09999999963,167316.526,167325.2999999998,167333.191,167766.516,,35,matters
screen,html.Screen,2_1_0_1_36,2022-04-27T12:52:22.455Z,,,,,,,,,,,,,,,,,53,,,,,,,,,,,,,,432.48399999999674,,response,,,,99,,,,,,,Space,keypress(Space),,,,,,,,"---- -- ----- -- ------ - ------- --- ----------<br>------------- ------ ------ ---- ---- ------- ----- -- ----<br>-------- ------- -- ---------- --- - --- ----- ----- ----<br>---- --- --- ----- --- ---- ---- ------- most, ---- -------<br>--- --- -- ----- -- --- ---- -- --- ---- -- ------ ------<br>--- ----- -- ----",168201.19999999925,168199,167749.851,167762.59999999963,167766.516,168216.479,,36,"most,"
screen,html.Screen,2_1_0_1_37,2022-04-27T12:52:22.910Z,,,,,,,,,,,,,,,,,53,,,,,,,,,,,,,,438.32099999982165,,response,,,,99,,,,,,,Space,keypress(Space),,,,,,,,---- -- ----- -- ------ - ------- --- ----------<br>------------- ------ ------ ---- ---- ------- ----- -- ----<br>-------- ------- -- ---------- --- - --- ----- ----- ----<br>---- --- --- ----- --- ---- ---- ------- ----- it's -------<br>--- --- -- ----- -- --- ---- -- --- ---- -- ------ ------<br>--- ----- -- ----,168656.89999999944,168654.7999999998,168199.814,168201.39999999944,168216.479,168666.469,,37,it's
screen,html.Screen,2_1_0_1_38,2022-04-27T12:52:23.343Z,,,,,,,,,,,,,,,,,53,,,,,,,,,,,,,,420.83099999980186,,response,,,,99,,,,,,,Space,keypress(Space),,,,,,,,---- -- ----- -- ------ - ------- --- ----------<br>------------- ------ ------ ---- ---- ------- ----- -- ----<br>-------- ------- -- ---------- --- - --- ----- ----- ----<br>---- --- --- ----- --- ---- ---- ------- ----- ---- whether<br>--- --- -- ----- -- --- ---- -- --- ---- -- ------ ------<br>--- ----- -- ----,169089.19999999925,169087.2999999998,168649.804,168657,168666.469,169099.787,,38,whether
screen,html.Screen,2_1_0_1_39,2022-04-27T12:52:23.760Z,,,,,,,,,,,,,,,,,53,,,,,,,,,,,,,,404.8129999996163,,response,,,,99,,,,,,,Space,keypress(Space),,,,,,,,---- -- ----- -- ------ - ------- --- ----------<br>------------- ------ ------ ---- ---- ------- ----- -- ----<br>-------- ------- -- ---------- --- - --- ----- ----- ----<br>---- --- --- ----- --- ---- ---- ------- ----- ---- -------<br>you --- -- ----- -- --- ---- -- --- ---- -- ------ ------<br>--- ----- -- ----,169506.5,169504.59999999963,169083.122,169089.2999999998,169099.787,169516.426,,39,you
screen,html.Screen,2_1_0_1_40,2022-04-27T12:52:24.151Z,,,,,,,,,,,,,,,,,53,,,,,,,,,,,,,,379.97399999943445,,response,,,,99,,,,,,,Space,keypress(Space),,,,,,,,---- -- ----- -- ------ - ------- --- ----------<br>------------- ------ ------ ---- ---- ------- ----- -- ----<br>-------- ------- -- ---------- --- - --- ----- ----- ----<br>---- --- --- ----- --- ---- ---- ------- ----- ---- -------<br>--- are -- ----- -- --- ---- -- --- ---- -- ------ ------<br>--- ----- -- ----,169898,169896.39999999944,169499.761,169506.69999999925,169516.426,169899.747,,40,are
screen,html.Screen,2_1_0_1_41,2022-04-27T12:52:24.592Z,,,,,,,,,,,,,,,,,53,,,,,,,,,,,,,,436.9529999992519,,response,,,,99,,,,,,,Space,keypress(Space),,,,,,,,---- -- ----- -- ------ - ------- --- ----------<br>------------- ------ ------ ---- ---- ------- ----- -- ----<br>-------- ------- -- ---------- --- - --- ----- ----- ----<br>---- --- --- ----- --- ---- ---- ------- ----- ---- -------<br>--- --- as ----- -- --- ---- -- --- ---- -- ------ ------<br>--- ----- -- ----,170338.39999999944,170336.69999999925,169883.082,169898.19999999925,169899.747,170349.723,,41,as
screen,html.Screen,2_1_0_1_42,2022-04-27T12:52:25.030Z,,,,,,,,,,,,,,,,,53,,,,,,,,,,,,,,425.17699999944307,,response,,,,99,,,,,,,Space,keypress(Space),,,,,,,,---- -- ----- -- ------ - ------- --- ----------<br>------------- ------ ------ ---- ---- ------- ----- -- ----<br>-------- ------- -- ---------- --- - --- ----- ----- ----<br>---- --- --- ----- --- ---- ---- ------- ----- ---- -------<br>--- --- -- close -- --- ---- -- --- ---- -- ------ ------<br>--- ----- -- ----,170776.69999999925,170774.89999999944,170333.058,170338.5,170349.723,170783.034,,42,close
screen,html.Screen,2_1_0_1_43,2022-04-27T12:52:25.403Z,,,,,,,,,,,,,,,,,53,,,,,,,,,,,,,,364.9659999999858,,response,,,,99,,,,,,,Space,keypress(Space),,,,,,,,---- -- ----- -- ------ - ------- --- ----------<br>------------- ------ ------ ---- ---- ------- ----- -- ----<br>-------- ------- -- ---------- --- - --- ----- ----- ----<br>---- --- --- ----- --- ---- ---- ------- ----- ---- -------<br>--- --- -- ----- as --- ---- -- --- ---- -- ------ ------<br>--- ----- -- ----,171149.69999999925,171148,170766.369,170776.89999999944,170783.034,171166.359,,43,as
screen,html.Screen,2_1_0_1_44,2022-04-27T12:52:25.805Z,,,,,,,,,,,,,,,,,53,,,,,,,,,,,,,,382.8409999992582,,response,,,,99,,,,,,,Space,keypress(Space),,,,,,,,---- -- ----- -- ------ - ------- --- ----------<br>------------- ------ ------ ---- ---- ------- ----- -- ----<br>-------- ------- -- ---------- --- - --- ----- ----- ----<br>---- --- --- ----- --- ---- ---- ------- ----- ---- -------<br>--- --- -- ----- -- you ---- -- --- ---- -- ------ ------<br>--- ----- -- ----,171551.19999999925,171549.19999999925,171149.694,171149.7999999998,171166.359,171566.329,,44,you
screen,html.Screen,2_1_0_1_45,2022-04-27T12:52:26.331Z,,,,,,,,,,,,,,,,,53,,,,,,,,,,,,,,509.37099999925704,,response,,,,99,,,,,,,Space,keypress(Space),,,,,,,,---- -- ----- -- ------ - ------- --- ----------<br>------------- ------ ------ ---- ---- ------- ----- -- ----<br>-------- ------- -- ---------- --- - --- ----- ----- ----<br>---- --- --- ----- --- ---- ---- ------- ----- ---- -------<br>--- --- -- ----- -- --- want -- --- ---- -- ------ ------<br>--- ----- -- ----,172077.2999999998,172075.69999999925,171549.664,171551.19999999925,171566.329,172082.977,,45,want
screen,html.Screen,2_1_0_1_46,2022-04-27T12:52:26.797Z,,,,,,,,,,,,,,,,,53,,,,,,,,,,,,,,458.5229999999865,,response,,,,99,,,,,,,Space,keypress(Space),,,,,,,,---- -- ----- -- ------ - ------- --- ----------<br>------------- ------ ------ ---- ---- ------- ----- -- ----<br>-------- ------- -- ---------- --- - --- ----- ----- ----<br>---- --- --- ----- --- ---- ---- ------- ----- ---- -------<br>--- --- -- ----- -- --- ---- to --- ---- -- ------ ------<br>--- ----- -- ----,172543.5,172541.5,172066.312,172077.59999999963,172082.977,172549.617,,46,to
screen,html.Screen,2_1_0_1_47,2022-04-27T12:52:27.137Z,,,,,,,,,,,,,,,,,53,,,,,,,,,,,,,,332.0829999992566,,response,,,,99,,,,,,,Space,keypress(Space),,,,,,,,"---- -- ----- -- ------ - ------- --- ----------<br>------------- ------ ------ ---- ---- ------- ----- -- ----<br>-------- ------- -- ---------- --- - --- ----- ----- ----<br>---- --- --- ----- --- ---- ---- ------- ----- ---- -------<br>--- --- -- ----- -- --- ---- -- be, ---- -- ------ ------<br>--- ----- -- ----",172883.59999999963,172881.69999999925,172532.952,172543.69999999925,172549.617,172899.607,,47,"be,"
screen,html.Screen,2_1_0_1_48,2022-04-27T12:52:27.670Z,,,,,,,,,,,,,,,,,53,,,,,,,,,,,,,,514.7929999994521,,response,,,,99,,,,,,,Space,keypress(Space),,,,,,,,---- -- ----- -- ------ - ------- --- ----------<br>------------- ------ ------ ---- ---- ------- ----- -- ----<br>-------- ------- -- ---------- --- - --- ----- ----- ----<br>---- --- --- ----- --- ---- ---- ------- ----- ---- -------<br>--- --- -- ----- -- --- ---- -- --- even -- ------ ------<br>--- ----- -- ----,173416.5,173414.39999999944,172882.942,172883.69999999925,172899.607,173432.91,,48,even
screen,html.Screen,2_1_0_1_49,2022-04-27T12:52:28.101Z,,,,,,,,,,,,,,,,,53,,,,,,,,,,,,,,413.4899999994377,,response,,,,99,,,,,,,Space,keypress(Space),,,,,,,,---- -- ----- -- ------ - ------- --- ----------<br>------------- ------ ------ ---- ---- ------- ----- -- ----<br>-------- ------- -- ---------- --- - --- ----- ----- ----<br>---- --- --- ----- --- ---- ---- ------- ----- ---- -------<br>--- --- -- ----- -- --- ---- -- --- ---- if ------ ------<br>--- ----- -- ----,173848,173846.39999999944,173416.245,173416.69999999925,173432.91,173849.562,,49,if
screen,html.Screen,2_1_0_1_50,2022-04-27T12:52:28.473Z,,,,,,,,,,,,,,,,,53,,,,,,,,,,,,,,368.33799999943585,,response,,,,99,,,,,,,Space,keypress(Space),,,,,,,,---- -- ----- -- ------ - ------- --- ----------<br>------------- ------ ------ ---- ---- ------- ----- -- ----<br>-------- ------- -- ---------- --- - --- ----- ----- ----<br>---- --- --- ----- --- ---- ---- ------- ----- ---- -------<br>--- --- -- ----- -- --- ---- -- --- ---- -- that's ------<br>--- ----- -- ----,174219.7999999998,174217.89999999944,173832.897,173848.09999999963,173849.562,174232.874,,50,that's
screen,html.Screen,2_1_0_1_51,2022-04-27T12:52:28.908Z,,,,,,,,,,,,,,,,,53,,,,,,,,,,,,,,419.82599999924423,,response,,,,99,,,,,,,Space,keypress(Space),,,,,,,,---- -- ----- -- ------ - ------- --- ----------<br>------------- ------ ------ ---- ---- ------- ----- -- ----<br>-------- ------- -- ---------- --- - --- ----- ----- ----<br>---- --- --- ----- --- ---- ---- ------- ----- ---- -------<br>--- --- -- ----- -- --- ---- -- --- ---- -- ------ really<br>--- ----- -- ----,174654.89999999944,174652.69999999925,174216.209,174220,174232.874,174666.19,,51,really
screen,html.Screen,2_1_0_1_52,2022-04-27T12:52:29.340Z,,,,,,,,,,,,,,,,,53,,,,,,,,,,,,,,418.7099999994389,,response,,,,99,,,,,,,Space,keypress(Space),,,,,,,,---- -- ----- -- ------ - ------- --- ----------<br>------------- ------ ------ ---- ---- ------- ----- -- ----<br>-------- ------- -- ---------- --- - --- ----- ----- ----<br>---- --- --- ----- --- ---- ---- ------- ----- ---- -------<br>--- --- -- ----- -- --- ---- -- --- ---- -- ------ ------<br>not ----- -- ----,175086.69999999925,175084.89999999944,174649.525,174655,174666.19,175099.496,,52,not
screen,html.Screen,2_1_0_1_53,2022-04-27T12:52:29.723Z,,,,,,,,,,,,,,,,,53,,,,,,,,,,,,,,368.7039999992412,,response,,,,99,,,,,,,Space,keypress(Space),,,,,,,,---- -- ----- -- ------ - ------- --- ----------<br>------------- ------ ------ ---- ---- ------- ----- -- ----<br>-------- ------- -- ---------- --- - --- ----- ----- ----<br>---- --- --- ----- --- ---- ---- ------- ----- ---- -------<br>--- --- -- ----- -- --- ---- -- --- ---- -- ------ ------<br>--- close -- ----,175469.2999999998,175468.19999999925,175082.831,175086.7999999998,175099.496,175482.822,,53,close
screen,html.Screen,2_1_0_1_54,2022-04-27T12:52:30.186Z,,,,,,,,,,,,,,,,,53,,,,,,,,,,,,,,448.17800000001444,,response,,,,99,,,,,,,Space,keypress(Space),,,,,,,,---- -- ----- -- ------ - ------- --- ----------<br>------------- ------ ------ ---- ---- ------- ----- -- ----<br>-------- ------- -- ---------- --- - --- ----- ----- ----<br>---- --- --- ----- --- ---- ---- ------- ----- ---- -------<br>--- --- -- ----- -- --- ---- -- --- ---- -- ------ ------<br>--- ----- at ----,175932.39999999944,175931,175466.157,175469.5,175482.822,175949.459,,54,at
screen,html.Screen,2_1_0_1_55,2022-04-27T12:52:30.965Z,,,,,,,,,,,,,,,,,53,,,,,,,,,,,,,,760.7409999992524,,response,,,,99,,,,,,,Space,keypress(Space),,,,,,,,---- -- ----- -- ------ - ------- --- ----------<br>------------- ------ ------ ---- ---- ------- ----- -- ----<br>-------- ------- -- ---------- --- - --- ----- ----- ----<br>---- --- --- ----- --- ---- ---- ------- ----- ---- -------<br>--- --- -- ----- -- --- ---- -- --- ---- -- ------ ------<br>--- ----- -- all.,176712.09999999963,176710.19999999925,175932.794,175932.5,175949.459,176716.087,,55,all.
Item 99,flow.Loop,2_1_0_1,2022-04-27T12:52:30.966Z,,,,,,,,,,,,,,,,,,,,,,,,,,,,,,,25626.287999999244,,completion,,,,,C,,,,,,,,,,,silence,,,,,176712.19999999925,176710.19999999925,151067.247,151068.5,151083.912,176716.087,,,
Question 1,html.Screen,2_1_0_2,2022-04-27T12:52:37.014Z,,,,,,,,,,,,,,,,,,,,,,,,,,,,true,FALSE,,6042.9130000000005,,response,,,,99,C,,,,,,FALSE,click #choice-2,,,,silence,,,,,182760.5,182759,176699.422,176712.2999999998,176716.087,182782.501,,,
Question 2,html.Screen,2_1_0_3,2022-04-27T12:52:41.692Z,,,,,,,,,,,,,,,,,,,,,,,,,,,,true,TRUE,,4654.298999999824,,response,,,,99,C,,,,,,TRUE,click #choice-1,,,,silence,,,,,187438.39999999944,187436.7999999998,182765.836,182760.59999999963,182782.501,187448.935,,,
Item 99,flow.Sequence,2_1_0,2022-04-27T12:52:41.692Z,,,,,,,,,,,,,,,,,,,,,,,,,,,,,,,46352.3989999998,,completion,,,,,,,,,,,,,,,,,,,,,187438.59999999963,187436.7999999998,141067.736,141082.89999999944,141084.401,187448.935,,,
Holding screen,html.Screen,2_1_1_0,2022-04-27T12:52:51.687Z,,,,,,,,,,,,,,,,,,,,,,,,,,,,,,,9999.508999999991,,timeout,,,,,,,,,,,,,,,,,,,,,197433.19999999925,197431.779,187432.27,187438.69999999925,187448.935,197448.444,,,
screen,html.Screen,2_1_1_1_0,2022-04-27T12:52:52.138Z,,,,,,,,,,,,,,,,,54,,,,,,,,,,,,,,433.4559999994526,,response,,,,100,,,,,,,Space,keypress(Space),,,,,,,,At --- ---- --- ------ ----- ------- ---- -- --- ------- --<br>------- ---------- ------ -- ----- -- ----- -- ---- ------<br>--- ----- --- --- ------ -------- ----- --- ------ ----- --<br>----- ----- ---------- --- --- ------ ------ ---- -- ------<br>------- --- ------ ----- --- ---- ------- -- ---- --- --<br>------- ------,197884.5,197881.89999999944,197431.779,197433.39999999944,197448.444,197898.451,,0,At
screen,html.Screen,2_1_1_1_1,2022-04-27T12:52:52.496Z,,,,,,,,,,,,,,,,,54,,,,,,,,,,,,,,342.64899999962654,,response,,,,100,,,,,,,Space,keypress(Space),,,,,,,,-- the ---- --- ------ ----- ------- ---- -- --- ------- --<br>------- ---------- ------ -- ----- -- ----- -- ---- ------<br>--- ----- --- --- ------ -------- ----- --- ------ ----- --<br>----- ----- ---------- --- --- ------ ------ ---- -- ------<br>------- --- ------ ----- --- ---- ------- -- ---- --- --<br>------- ------,198242.69999999925,198241.09999999963,197881.786,197884.59999999963,197898.451,198248.439,,1,the
screen,html.Screen,2_1_1_1_2,2022-04-27T12:52:52.857Z,,,,,,,,,,,,,,,,,54,,,,,,,,,,,,,,353.8609999998007,,response,,,,100,,,,,,,Space,keypress(Space),,,,,,,,-- --- time --- ------ ----- ------- ---- -- --- ------- --<br>------- ---------- ------ -- ----- -- ----- -- ---- ------<br>--- ----- --- --- ------ -------- ----- --- ------ ----- --<br>----- ----- ---------- --- --- ------ ------ ---- -- ------<br>------- --- ------ ----- --- ---- ------- -- ---- --- --<br>------- ------,198603.89999999944,198602.2999999998,198231.774,198242.7999999998,198248.439,198615.082,,2,time
screen,html.Screen,2_1_1_1_3,2022-04-27T12:52:53.172Z,,,,,,,,,,,,,,,,,54,,,,,,,,,,,,,,302.21799999981886,,response,,,,100,,,,,,,Space,keypress(Space),,,,,,,,-- --- ---- the ------ ----- ------- ---- -- --- ------- --<br>------- ---------- ------ -- ----- -- ----- -- ---- ------<br>--- ----- --- --- ------ -------- ----- --- ------ ----- --<br>----- ----- ---------- --- --- ------ ------ ---- -- ------<br>------- --- ------ ----- --- ---- ------- -- ---- --- --<br>------- ------,198919.09999999963,198917.2999999998,198598.417,198604,198615.082,198931.734,,3,the
screen,html.Screen,2_1_1_1_4,2022-04-27T12:52:53.585Z,,,,,,,,,,,,,,,,,54,,,,,,,,,,,,,,398.4659999992582,,response,,,,100,,,,,,,Space,keypress(Space),,,,,,,,-- --- ---- --- French ----- ------- ---- -- --- ------- --<br>------- ---------- ------ -- ----- -- ----- -- ---- ------<br>--- ----- --- --- ------ -------- ----- --- ------ ----- --<br>----- ----- ---------- --- --- ------ ------ ---- -- ------<br>------- --- ------ ----- --- ---- ------- -- ---- --- --<br>------- ------,199331.89999999944,199330.19999999925,198915.069,198919.19999999925,198931.734,199348.376,,4,French
screen,html.Screen,2_1_1_1_5,2022-04-27T12:52:53.916Z,,,,,,,,,,,,,,,,,54,,,,,,,,,,,,,,312.82399999926565,,response,,,,100,,,,,,,Space,keypress(Space),,,,,,,,-- --- ---- --- ------ crown ------- ---- -- --- ------- --<br>------- ---------- ------ -- ----- -- ----- -- ---- ------<br>--- ----- --- --- ------ -------- ----- --- ------ ----- --<br>----- ----- ---------- --- --- ------ ------ ---- -- ------<br>------- --- ------ ----- --- ---- ------- -- ---- --- --<br>------- ------,199662.7999999998,199661.19999999925,199331.711,199332,199348.376,199665.046,,5,crown
screen,html.Screen,2_1_1_1_6,2022-04-27T12:52:54.295Z,,,,,,,,,,,,,,,,,54,,,,,,,,,,,,,,374.75399999981164,,response,,,,100,,,,,,,Space,keypress(Space),,,,,,,,-- --- ---- --- ------ ----- secured ---- -- --- ------- --<br>------- ---------- ------ -- ----- -- ----- -- ---- ------<br>--- ----- --- --- ------ -------- ----- --- ------ ----- --<br>----- ----- ---------- --- --- ------ ------ ---- -- ------<br>------- --- ------ ----- --- ---- ------- -- ---- --- --<br>------- ------,200041.2999999998,200039.7999999998,199648.381,199662.89999999944,199665.046,200048.352,,6,secured
screen,html.Screen,2_1_1_1_7,2022-04-27T12:52:54.803Z,,,,,,,,,,,,,,,,,54,,,,,,,,,,,,,,499.44799999980023,,response,,,,100,,,,,,,Space,keypress(Space),,,,,,,,-- --- ---- --- ------ ----- ------- much -- --- ------- --<br>------- ---------- ------ -- ----- -- ----- -- ---- ------<br>--- ----- --- --- ------ -------- ----- --- ------ ----- --<br>----- ----- ---------- --- --- ------ ------ ---- -- ------<br>------- --- ------ ----- --- ---- ------- -- ---- --- --<br>------- ------,200550,200547.7999999998,200031.687,200041.39999999944,200048.352,200564.983,,7,much
screen,html.Screen,2_1_1_1_8,2022-04-27T12:52:55.393Z,,,,,,,,,,,,,,,,,54,,,,,,,,,,,,,,573.11699999962,,response,,,,100,,,,,,,Space,keypress(Space),,,,,,,,-- --- ---- --- ------ ----- ------- ---- of --- ------- --<br>------- ---------- ------ -- ----- -- ----- -- ---- ------<br>--- ----- --- --- ------ -------- ----- --- ------ ----- --<br>----- ----- ---------- --- --- ------ ------ ---- -- ------<br>------- --- ------ ----- --- ---- ------- -- ---- --- --<br>------- ------,201139.69999999925,201138.09999999963,200548.318,200550.09999999963,200564.983,201148.288,,8,of
screen,html.Screen,2_1_1_1_9,2022-04-27T12:52:55.724Z,,,,,,,,,,,,,,,,,54,,,,,,,,,,,,,,321.11199999944074,,response,,,,100,,,,,,,Space,keypress(Space),,,,,,,,-- --- ---- --- ------ ----- ------- ---- -- its ------- --<br>------- ---------- ------ -- ----- -- ----- -- ---- ------<br>--- ----- --- --- ------ -------- ----- --- ------ ----- --<br>----- ----- ---------- --- --- ------ ------ ---- -- ------<br>------- --- ------ ----- --- ---- ------- -- ---- --- --<br>------- ------,201471,201469.39999999944,201131.623,201139.7999999998,201148.288,201481.615,,9,its
screen,html.Screen,2_1_1_1_10,2022-04-27T12:52:56.141Z,,,,,,,,,,,,,,,,,54,,,,,,,,,,,,,,404.7849999994505,,response,,,,100,,,,,,,Space,keypress(Space),,,,,,,,-- --- ---- --- ------ ----- ------- ---- -- --- revenue --<br>------- ---------- ------ -- ----- -- ----- -- ---- ------<br>--- ----- --- --- ------ -------- ----- --- ------ ----- --<br>----- ----- ---------- --- --- ------ ------ ---- -- ------<br>------- --- ------ ----- --- ---- ------- -- ---- --- --<br>------- ------,201887.89999999944,201886.39999999944,201464.95,201471.09999999963,201481.615,201898.275,,10,revenue
screen,html.Screen,2_1_1_1_11,2022-04-27T12:52:56.593Z,,,,,,,,,,,,,,,,,54,,,,,,,,,,,,,,439.42499999926076,,response,,,,100,,,,,,,Space,keypress(Space),,,,,,,,-- --- ---- --- ------ ----- ------- ---- -- --- ------- by<br>------- ---------- ------ -- ----- -- ----- -- ---- ------<br>--- ----- --- --- ------ -------- ----- --- ------ ----- --<br>----- ----- ---------- --- --- ------ ------ ---- -- ------<br>------- --- ------ ----- --- ---- ------- -- ---- --- --<br>------- ------,202339.19999999925,202337.69999999925,201881.61,201888.09999999963,201898.275,202348.241,,11,by
screen,html.Screen,2_1_1_1_12,2022-04-27T12:52:56.953Z,,,,,,,,,,,,,,,,,54,,,,,,,,,,,,,,350.1589999994321,,response,,,,100,,,,,,,Space,keypress(Space),,,,,,,,-- --- ---- --- ------ ----- ------- ---- -- --- ------- --<br>issuing ---------- ------ -- ----- -- ----- -- ---- ------<br>--- ----- --- --- ------ -------- ----- --- ------ ----- --<br>----- ----- ---------- --- --- ------ ------ ---- -- ------<br>------- --- ------ ----- --- ---- ------- -- ---- --- --<br>------- ------,202699.7999999998,202698.39999999944,202331.576,202339.39999999944,202348.241,202714.909,,12,issuing
screen,html.Screen,2_1_1_1_13,2022-04-27T12:52:57.282Z,,,,,,,,,,,,,,,,,54,,,,,,,,,,,,,,312.0909999999858,,response,,,,100,,,,,,,Space,keypress(Space),,,,,,,,-- --- ---- --- ------ ----- ------- ---- -- --- ------- --<br>------- government ------ -- ----- -- ----- -- ---- ------<br>--- ----- --- --- ------ -------- ----- --- ------ ----- --<br>----- ----- ---------- --- --- ------ ------ ---- -- ------<br>------- --- ------ ----- --- ---- ------- -- ---- --- --<br>------- ------,203028.5,203027,202698.244,202700,202714.909,203031.552,,13,government
screen,html.Screen,2_1_1_1_14,2022-04-27T12:52:57.730Z,,,,,,,,,,,,,,,,,54,,,,,,,,,,,,,,444.04799999963143,,response,,,,100,,,,,,,Space,keypress(Space),,,,,,,,-- --- ---- --- ------ ----- ------- ---- -- --- ------- --<br>------- ---------- bonds. -- ----- -- ----- -- ---- ------<br>--- ----- --- --- ------ -------- ----- --- ------ ----- --<br>----- ----- ---------- --- --- ------ ------ ---- -- ------<br>------- --- ------ ----- --- ---- ------- -- ---- --- --<br>------- ------,203477,203475.59999999963,203014.887,203028.69999999925,203031.552,203481.528,,14,bonds.
screen,html.Screen,2_1_1_1_15,2022-04-27T12:52:58.182Z,,,,,,,,,,,,,,,,,54,,,,,,,,,,,,,,445.37199999945005,,response,,,,100,,,,,,,Space,keypress(Space),,,,,,,,-- --- ---- --- ------ ----- ------- ---- -- --- ------- --<br>------- ---------- ------ In ----- -- ----- -- ---- ------<br>--- ----- --- --- ------ -------- ----- --- ------ ----- --<br>----- ----- ---------- --- --- ------ ------ ---- -- ------<br>------- --- ------ ----- --- ---- ------- -- ---- --- --<br>------- ------,203928.59999999963,203926.89999999944,203464.863,203477.09999999963,203481.528,203931.496,,15,In
screen,html.Screen,2_1_1_1_16,2022-04-27T12:52:58.520Z,,,,,,,,,,,,,,,,,54,,,,,,,,,,,,,,332.90399999942747,,response,,,,100,,,,,,,Space,keypress(Space),,,,,,,,"-- --- ---- --- ------ ----- ------- ---- -- --- ------- --<br>------- ---------- ------ -- 1727, -- ----- -- ---- ------<br>--- ----- --- --- ------ -------- ----- --- ------ ----- --<br>----- ----- ---------- --- --- ------ ------ ---- -- ------<br>------- --- ------ ----- --- ---- ------- -- ---- --- --<br>------- ------",204266.19999999925,204264.39999999944,203914.831,203928.7999999998,203931.496,204281.489,,16,"1727,"
screen,html.Screen,2_1_1_1_17,2022-04-27T12:52:58.927Z,,,,,,,,,,,,,,,,,54,,,,,,,,,,,,,,390.5109999999986,,response,,,,100,,,,,,,Space,keypress(Space),,,,,,,,-- --- ---- --- ------ ----- ------- ---- -- --- ------- --<br>------- ---------- ------ -- ----- in ----- -- ---- ------<br>--- ----- --- --- ------ -------- ----- --- ------ ----- --<br>----- ----- ---------- --- --- ------ ------ ---- -- ------<br>------- --- ------ ----- --- ---- ------- -- ---- --- --<br>------- ------,204673.39999999944,204672,204264.824,204266.2999999998,204281.489,204681.466,,17,in
screen,html.Screen,2_1_1_1_18,2022-04-27T12:52:59.286Z,,,,,,,,,,,,,,,,,54,,,,,,,,,,,,,,349.1339999996417,,response,,,,100,,,,,,,Space,keypress(Space),,,,,,,,-- --- ---- --- ------ ----- ------- ---- -- --- ------- --<br>------- ---------- ------ -- ----- -- order -- ---- ------<br>--- ----- --- --- ------ -------- ----- --- ------ ----- --<br>----- ----- ---------- --- --- ------ ------ ---- -- ------<br>------- --- ------ ----- --- ---- ------- -- ---- --- --<br>------- ------,205032.89999999944,205030.59999999963,204664.801,204673.5,204681.466,205048.121,,18,order
screen,html.Screen,2_1_1_1_19,2022-04-27T12:53:00.087Z,,,,,,,,,,,,,,,,,54,,,,,,,,,,,,,,783.7789999994275,,response,,,,100,,,,,,,Space,keypress(Space),,,,,,,,-- --- ---- --- ------ ----- ------- ---- -- --- ------- --<br>------- ---------- ------ -- ----- -- ----- to ---- ------<br>--- ----- --- --- ------ -------- ----- --- ------ ----- --<br>----- ----- ---------- --- --- ------ ------ ---- -- ------<br>------- --- ------ ----- --- ---- ------- -- ---- --- --<br>------- ------,205833.69999999925,205831.89999999944,205031.456,205033.09999999963,205048.121,205848.074,,19,to
screen,html.Screen,2_1_1_1_20,2022-04-27T12:53:00.414Z,,,,,,,,,,,,,,,,,54,,,,,,,,,,,,,,311.2259999998205,,response,,,,100,,,,,,,Space,keypress(Space),,,,,,,,-- --- ---- --- ------ ----- ------- ---- -- --- ------- --<br>------- ---------- ------ -- ----- -- ----- -- save ------<br>--- ----- --- --- ------ -------- ----- --- ------ ----- --<br>----- ----- ---------- --- --- ------ ------ ---- -- ------<br>------- --- ------ ----- --- ---- ------- -- ---- --- --<br>------- ------,206160.7999999998,206159.2999999998,205831.409,205833.7999999998,205848.074,206164.737,,20,save
screen,html.Screen,2_1_1_1_21,2022-04-27T12:53:00.852Z,,,,,,,,,,,,,,,,,54,,,,,,,,,,,,,,431.9629999992612,,response,,,,100,,,,,,,Space,keypress(Space),,,,,,,,"-- --- ---- --- ------ ----- ------- ---- -- --- ------- --<br>------- ---------- ------ -- ----- -- ----- -- ---- money,<br>--- ----- --- --- ------ -------- ----- --- ------ ----- --<br>----- ----- ---------- --- --- ------ ------ ---- -- ------<br>------- --- ------ ----- --- ---- ------- -- ---- --- --<br>------- ------",206598.39999999944,206596.69999999925,206148.072,206160.89999999944,206164.737,206614.724,,21,"money,"
screen,html.Screen,2_1_1_1_22,2022-04-27T12:53:01.357Z,,,,,,,,,,,,,,,,,54,,,,,,,,,,,,,,487.4759999992675,,response,,,,100,,,,,,,Space,keypress(Space),,,,,,,,-- --- ---- --- ------ ----- ------- ---- -- --- ------- --<br>------- ---------- ------ -- ----- -- ----- -- ---- ------<br>the ----- --- --- ------ -------- ----- --- ------ ----- --<br>----- ----- ---------- --- --- ------ ------ ---- -- ------<br>------- --- ------ ----- --- ---- ------- -- ---- --- --<br>------- ------,207104,207102.19999999925,206598.059,206598.5,206614.724,207114.697,,22,the
screen,html.Screen,2_1_1_1_23,2022-04-27T12:53:01.689Z,,,,,,,,,,,,,,,,,54,,,,,,,,,,,,,,319.20299999945564,,response,,,,100,,,,,,,Space,keypress(Space),,,,,,,,-- --- ---- --- ------ ----- ------- ---- -- --- ------- --<br>------- ---------- ------ -- ----- -- ----- -- ---- ------<br>--- state --- --- ------ -------- ----- --- ------ ----- --<br>----- ----- ---------- --- --- ------ ------ ---- -- ------<br>------- --- ------ ----- --- ---- ------- -- ---- --- --<br>------- ------,207435.59999999963,207433.89999999944,207098.032,207104.09999999963,207114.697,207448.009,,23,state
screen,html.Screen,2_1_1_1_24,2022-04-27T12:53:02.143Z,,,,,,,,,,,,,,,,,54,,,,,,,,,,,,,,438.8909999994503,,response,,,,100,,,,,,,Space,keypress(Space),,,,,,,,-- --- ---- --- ------ ----- ------- ---- -- --- ------- --<br>------- ---------- ------ -- ----- -- ----- -- ---- ------<br>--- ----- cut --- ------ -------- ----- --- ------ ----- --<br>----- ----- ---------- --- --- ------ ------ ---- -- ------<br>------- --- ------ ----- --- ---- ------- -- ---- --- --<br>------- ------,207889.19999999925,207886.89999999944,207431.344,207435.7999999998,207448.009,207897.998,,24,cut
screen,html.Screen,2_1_1_1_25,2022-04-27T12:53:02.521Z,,,,,,,,,,,,,,,,,54,,,,,,,,,,,,,,368.60199999963515,,response,,,,100,,,,,,,Space,keypress(Space),,,,,,,,-- --- ---- --- ------ ----- ------- ---- -- --- ------- --<br>------- ---------- ------ -- ----- -- ----- -- ---- ------<br>--- ----- --- the ------ -------- ----- --- ------ ----- --<br>----- ----- ---------- --- --- ------ ------ ---- -- ------<br>------- --- ------ ----- --- ---- ------- -- ---- --- --<br>------- ------,208268.09999999963,208266.59999999963,207881.333,207889.2999999998,207897.998,208281.306,,25,the
screen,html.Screen,2_1_1_1_26,2022-04-27T12:53:02.881Z,,,,,,,,,,,,,,,,,54,,,,,,,,,,,,,,344.5939999994298,,response,,,,100,,,,,,,Space,keypress(Space),,,,,,,,-- --- ---- --- ------ ----- ------- ---- -- --- ------- --<br>------- ---------- ------ -- ----- -- ----- -- ---- ------<br>--- ----- --- --- bonds' -------- ----- --- ------ ----- --<br>----- ----- ---------- --- --- ------ ------ ---- -- ------<br>------- --- ------ ----- --- ---- ------- -- ---- --- --<br>------- ------,208627.5,208625.89999999944,208264.641,208268.19999999925,208281.306,208631.289,,26,bonds'
screen,html.Screen,2_1_1_1_27,2022-04-27T12:53:03.321Z,,,,,,,,,,,,,,,,,54,,,,,,,,,,,,,,434.510999999824,,response,,,,100,,,,,,,Space,keypress(Space),,,,,,,,-- --- ---- --- ------ ----- ------- ---- -- --- ------- --<br>------- ---------- ------ -- ----- -- ----- -- ---- ------<br>--- ----- --- --- ------ interest ----- --- ------ ----- --<br>----- ----- ---------- --- --- ------ ------ ---- -- ------<br>------- --- ------ ----- --- ---- ------- -- ---- --- --<br>------- ------,209067.59999999963,209065.7999999998,208614.624,208627.59999999963,208631.289,209081.266,,27,interest
screen,html.Screen,2_1_1_1_28,2022-04-27T12:53:03.733Z,,,,,,,,,,,,,,,,,54,,,,,,,,,,,,,,396.63399999943795,,response,,,,100,,,,,,,Space,keypress(Space),,,,,,,,-- --- ---- --- ------ ----- ------- ---- -- --- ------- --<br>------- ---------- ------ -- ----- -- ----- -- ---- ------<br>--- ----- --- --- ------ -------- rate. --- ------ ----- --<br>----- ----- ---------- --- --- ------ ------ ---- -- ------<br>------- --- ------ ----- --- ---- ------- -- ---- --- --<br>------- ------,209479.89999999944,209477.89999999944,209064.601,209067.69999999925,209081.266,209481.247,,28,rate.
screen,html.Screen,2_1_1_1_29,2022-04-27T12:53:04.298Z,,,,,,,,,,,,,,,,,54,,,,,,,,,,,,,,562.1529999994382,,response,,,,100,,,,,,,Space,keypress(Space),,,,,,,,-- --- ---- --- ------ ----- ------- ---- -- --- ------- --<br>------- ---------- ------ -- ----- -- ----- -- ---- ------<br>--- ----- --- --- ------ -------- ----- The ------ ----- --<br>----- ----- ---------- --- --- ------ ------ ---- -- ------<br>------- --- ------ ----- --- ---- ------- -- ---- --- --<br>------- ------,210045,210043.39999999944,209464.582,209480.09999999963,209481.247,210047.891,,29,The
screen,html.Screen,2_1_1_1_30,2022-04-27T12:53:05.038Z,,,,,,,,,,,,,,,,,54,,,,,,,,,,,,,,735.008999999438,,response,,,,100,,,,,,,Space,keypress(Space),,,,,,,,-- --- ---- --- ------ ----- ------- ---- -- --- ------- --<br>------- ---------- ------ -- ----- -- ----- -- ---- ------<br>--- ----- --- --- ------ -------- ----- --- market ----- --<br>----- ----- ---------- --- --- ------ ------ ---- -- ------<br>------- --- ------ ----- --- ---- ------- -- ---- --- --<br>------- ------,210784.59999999963,210782.89999999944,210031.226,210045.09999999963,210047.891,210797.849,,30,market
screen,html.Screen,2_1_1_1_31,2022-04-27T12:53:05.418Z,,,,,,,,,,,,,,,,,54,,,,,,,,,,,,,,359.25099999964004,,response,,,,100,,,,,,,Space,keypress(Space),,,,,,,,-- --- ---- --- ------ ----- ------- ---- -- --- ------- --<br>------- ---------- ------ -- ----- -- ----- -- ---- ------<br>--- ----- --- --- ------ -------- ----- --- ------ value --<br>----- ----- ---------- --- --- ------ ------ ---- -- ------<br>------- --- ------ ----- --- ---- ------- -- ---- --- --<br>------- ------,211164.2999999998,211157.09999999963,210781.184,210784.7999999998,210797.849,211181.177,,31,value
screen,html.Screen,2_1_1_1_32,2022-04-27T12:53:05.874Z,,,,,,,,,,,,,,,,,54,,,,,,,,,,,,,,437.5229999992589,,response,,,,100,,,,,,,Space,keypress(Space),,,,,,,,-- --- ---- --- ------ ----- ------- ---- -- --- ------- --<br>------- ---------- ------ -- ----- -- ----- -- ---- ------<br>--- ----- --- --- ------ -------- ----- --- ------ ----- of<br>----- ----- ---------- --- --- ------ ------ ---- -- ------<br>------- --- ------ ----- --- ---- ------- -- ---- --- --<br>------- ------,211620.19999999925,211618.69999999925,211164.512,211164.5,211181.177,211631.15,,32,of
screen,html.Screen,2_1_1_1_33,2022-04-27T12:53:06.376Z,,,,,,,,,,,,,,,,,54,,,,,,,,,,,,,,489.749999999447,,response,,,,100,,,,,,,Space,keypress(Space),,,,,,,,-- --- ---- --- ------ ----- ------- ---- -- --- ------- --<br>------- ---------- ------ -- ----- -- ----- -- ---- ------<br>--- ----- --- --- ------ -------- ----- --- ------ ----- --<br>these ----- ---------- --- --- ------ ------ ---- -- ------<br>------- --- ------ ----- --- ---- ------- -- ---- --- --<br>------- ------,212122.5,212120.89999999944,211614.485,211620.2999999998,211631.15,212131.117,,33,these
screen,html.Screen,2_1_1_1_34,2022-04-27T12:53:06.782Z,,,,,,,,,,,,,,,,,54,,,,,,,,,,,,,,395.5829999992566,,response,,,,100,,,,,,,Space,keypress(Space),,,,,,,,-- --- ---- --- ------ ----- ------- ---- -- --- ------- --<br>------- ---------- ------ -- ----- -- ----- -- ---- ------<br>--- ----- --- --- ------ -------- ----- --- ------ ----- --<br>----- bonds ---------- --- --- ------ ------ ---- -- ------<br>------- --- ------ ----- --- ---- ------- -- ---- --- --<br>------- ------,212528.5,212526.69999999925,212114.452,212122.7999999998,212131.117,212531.118,,34,bonds
screen,html.Screen,2_1_1_1_35,2022-04-27T12:53:07.222Z,,,,,,,,,,,,,,,,,54,,,,,,,,,,,,,,435.9819999996398,,response,,,,100,,,,,,,Space,keypress(Space),,,,,,,,"-- --- ---- --- ------ ----- ------- ---- -- --- ------- --<br>------- ---------- ------ -- ----- -- ----- -- ---- ------<br>--- ----- --- --- ------ -------- ----- --- ------ ----- --<br>----- ----- plummeted, --- --- ------ ------ ---- -- ------<br>------- --- ------ ----- --- ---- ------- -- ---- --- --<br>------- ------",212968.7999999998,212967.09999999963,212514.453,212528.69999999925,212531.118,212981.093,,35,"plummeted,"
screen,html.Screen,2_1_1_1_36,2022-04-27T12:53:07.620Z,,,,,,,,,,,,,,,,,54,,,,,,,,,,,,,,383.20699999982025,,response,,,,100,,,,,,,Space,keypress(Space),,,,,,,,-- --- ---- --- ------ ----- ------- ---- -- --- ------- --<br>------- ---------- ------ -- ----- -- ----- -- ---- ------<br>--- ----- --- --- ------ -------- ----- --- ------ ----- --<br>----- ----- ---------- and --- ------ ------ ---- -- ------<br>------- --- ------ ----- --- ---- ------- -- ---- --- --<br>------- ------,213366.39999999944,213364.2999999998,212964.428,212969,212981.093,213381.077,,36,and
screen,html.Screen,2_1_1_1_37,2022-04-27T12:53:08.732Z,,,,,,,,,,,,,,,,,54,,,,,,,,,,,,,,1096.2229999998235,,response,,,,100,,,,,,,Space,keypress(Space),,,,,,,,-- --- ---- --- ------ ----- ------- ---- -- --- ------- --<br>------- ---------- ------ -- ----- -- ----- -- ---- ------<br>--- ----- --- --- ------ -------- ----- --- ------ ----- --<br>----- ----- ---------- --- the ------ ------ ---- -- ------<br>------- --- ------ ----- --- ---- ------- -- ---- --- --<br>------- ------,214478.7999999998,214477.2999999998,213364.412,213366.59999999963,213381.077,214480.982,,37,the
screen,html.Screen,2_1_1_1_38,2022-04-27T12:53:09.108Z,,,,,,,,,,,,,,,,,54,,,,,,,,,,,,,,371.7179999992659,,response,,,,100,,,,,,,Space,keypress(Space),,,,,,,,-- --- ---- --- ------ ----- ------- ---- -- --- ------- --<br>------- ---------- ------ -- ----- -- ----- -- ---- ------<br>--- ----- --- --- ------ -------- ----- --- ------ ----- --<br>----- ----- ---------- --- --- market ------ ---- -- ------<br>------- --- ------ ----- --- ---- ------- -- ---- --- --<br>------- ------,214854.2999999998,214852.69999999925,214464.317,214479,214480.982,214864.341,,38,market
screen,html.Screen,2_1_1_1_39,2022-04-27T12:53:09.509Z,,,,,,,,,,,,,,,,,54,,,,,,,,,,,,,,389.5589999994554,,response,,,,100,,,,,,,Space,keypress(Space),,,,,,,,-- --- ---- --- ------ ----- ------- ---- -- --- ------- --<br>------- ---------- ------ -- ----- -- ----- -- ---- ------<br>--- ----- --- --- ------ -------- ----- --- ------ ----- --<br>----- ----- ---------- --- --- ------ became ---- -- ------<br>------- --- ------ ----- --- ---- ------- -- ---- --- --<br>------- ------,215255.5,215253.89999999944,214847.676,214854.5,214864.341,215264.322,,39,became
screen,html.Screen,2_1_1_1_40,2022-04-27T12:53:09.923Z,,,,,,,,,,,,,,,,,54,,,,,,,,,,,,,,403.67800000001444,,response,,,,100,,,,,,,Space,keypress(Space),,,,,,,,-- --- ---- --- ------ ----- ------- ---- -- --- ------- --<br>------- ---------- ------ -- ----- -- ----- -- ---- ------<br>--- ----- --- --- ------ -------- ----- --- ------ ----- --<br>----- ----- ---------- --- --- ------ ------ wary -- ------<br>------- --- ------ ----- --- ---- ------- -- ---- --- --<br>------- ------,215669.5,215668,215247.657,215255.69999999925,215264.322,215680.959,,40,wary
screen,html.Screen,2_1_1_1_41,2022-04-27T12:53:10.338Z,,,,,,,,,,,,,,,,,54,,,,,,,,,,,,,,401.7409999992524,,response,,,,100,,,,,,,Space,keypress(Space),,,,,,,,-- --- ---- --- ------ ----- ------- ---- -- --- ------- --<br>------- ---------- ------ -- ----- -- ----- -- ---- ------<br>--- ----- --- --- ------ -------- ----- --- ------ ----- --<br>----- ----- ---------- --- --- ------ ------ ---- of ------<br>------- --- ------ ----- --- ---- ------- -- ---- --- --<br>------- ------,216084.5,216082.69999999925,215664.294,215669.69999999925,215680.959,216097.606,,41,of
screen,html.Screen,2_1_1_1_42,2022-04-27T12:53:10.772Z,,,,,,,,,,,,,,,,,54,,,,,,,,,,,,,,419.89400000000023,,response,,,,100,,,,,,,Space,keypress(Space),,,,,,,,-- --- ---- --- ------ ----- ------- ---- -- --- ------- --<br>------- ---------- ------ -- ----- -- ----- -- ---- ------<br>--- ----- --- --- ------ -------- ----- --- ------ ----- --<br>----- ----- ---------- --- --- ------ ------ ---- -- French<br>------- --- ------ ----- --- ---- ------- -- ---- --- --<br>------- ------,216519,216517.5,216080.941,216084.69999999925,216097.606,216530.923,,42,French
screen,html.Screen,2_1_1_1_43,2022-04-27T12:53:11.190Z,,,,,,,,,,,,,,,,,54,,,,,,,,,,,,,,404.27699999924516,,response,,,,100,,,,,,,Space,keypress(Space),,,,,,,,-- --- ---- --- ------ ----- ------- ---- -- --- ------- --<br>------- ---------- ------ -- ----- -- ----- -- ---- ------<br>--- ----- --- --- ------ -------- ----- --- ------ ----- --<br>----- ----- ---------- --- --- ------ ------ ---- -- ------<br>credit. --- ------ ----- --- ---- ------- -- ---- --- --<br>------- ------,216936.7999999998,216935.19999999925,216514.258,216519.09999999963,216530.923,216947.581,,43,credit.
screen,html.Screen,2_1_1_1_44,2022-04-27T12:53:11.808Z,,,,,,,,,,,,,,,,,54,,,,,,,,,,,,,,604.9189999999944,,response,,,,100,,,,,,,Space,keypress(Space),,,,,,,,-- --- ---- --- ------ ----- ------- ---- -- --- ------- --<br>------- ---------- ------ -- ----- -- ----- -- ---- ------<br>--- ----- --- --- ------ -------- ----- --- ------ ----- --<br>----- ----- ---------- --- --- ------ ------ ---- -- ------<br>------- The ------ ----- --- ---- ------- -- ---- --- --<br>------- ------,217554.2999999998,217552.5,216930.916,216937,216947.581,217564.195,,44,The
screen,html.Screen,2_1_1_1_45,2022-04-27T12:53:12.258Z,,,,,,,,,,,,,,,,,54,,,,,,,,,,,,,,437.9049999996205,,response,,,,100,,,,,,,Space,keypress(Space),,,,,,,,-- --- ---- --- ------ ----- ------- ---- -- --- ------- --<br>------- ---------- ------ -- ----- -- ----- -- ---- ------<br>--- ----- --- --- ------ -------- ----- --- ------ ----- --<br>----- ----- ---------- --- --- ------ ------ ---- -- ------<br>------- --- French ----- --- ---- ------- -- ---- --- --<br>------- ------,218004.19999999925,218002.09999999963,217547.53,217554.39999999944,217564.195,218014.196,,45,French
screen,html.Screen,2_1_1_1_46,2022-04-27T12:53:12.721Z,,,,,,,,,,,,,,,,,54,,,,,,,,,,,,,,451.20399999944493,,response,,,,100,,,,,,,Space,keypress(Space),,,,,,,,-- --- ---- --- ------ ----- ------- ---- -- --- ------- --<br>------- ---------- ------ -- ----- -- ----- -- ---- ------<br>--- ----- --- --- ------ -------- ----- --- ------ ----- --<br>----- ----- ---------- --- --- ------ ------ ---- -- ------<br>------- --- ------ state --- ---- ------- -- ---- --- --<br>------- ------,218467.09999999963,218465.39999999944,217997.531,218004.39999999944,218014.196,218480.833,,46,state
screen,html.Screen,2_1_1_1_47,2022-04-27T12:53:13.121Z,,,,,,,,,,,,,,,,,54,,,,,,,,,,,,,,385.2669999996142,,response,,,,100,,,,,,,Space,keypress(Space),,,,,,,,-- --- ---- --- ------ ----- ------- ---- -- --- ------- --<br>------- ---------- ------ -- ----- -- ----- -- ---- ------<br>--- ----- --- --- ------ -------- ----- --- ------ ----- --<br>----- ----- ---------- --- --- ------ ------ ---- -- ------<br>------- --- ------ ----- was ---- ------- -- ---- --- --<br>------- ------,218867.69999999925,218866.09999999963,218464.168,218467.2999999998,218480.833,218880.82,,47,was
screen,html.Screen,2_1_1_1_48,2022-04-27T12:53:13.486Z,,,,,,,,,,,,,,,,,54,,,,,,,,,,,,,,350.679999999993,,response,,,,100,,,,,,,Space,keypress(Space),,,,,,,,-- --- ---- --- ------ ----- ------- ---- -- --- ------- --<br>------- ---------- ------ -- ----- -- ----- -- ---- ------<br>--- ----- --- --- ------ -------- ----- --- ------ ----- --<br>----- ----- ---------- --- --- ------ ------ ---- -- ------<br>------- --- ------ ----- --- left ------- -- ---- --- --<br>------- ------,219232.89999999944,219231.5,218864.155,218867.7999999998,218880.82,219247.463,,48,left
screen,html.Screen,2_1_1_1_49,2022-04-27T12:53:13.908Z,,,,,,,,,,,,,,,,,54,,,,,,,,,,,,,,405.13699999963865,,response,,,,100,,,,,,,Space,keypress(Space),,,,,,,,-- --- ---- --- ------ ----- ------- ---- -- --- ------- --<br>------- ---------- ------ -- ----- -- ----- -- ---- ------<br>--- ----- --- --- ------ -------- ----- --- ------ ----- --<br>----- ----- ---------- --- --- ------ ------ ---- -- ------<br>------- --- ------ ----- --- ---- without -- ---- --- --<br>------- ------,219654.09999999963,219652.59999999963,219230.798,219233.09999999963,219247.463,219664.115,,49,without
screen,html.Screen,2_1_1_1_50,2022-04-27T12:53:14.321Z,,,,,,,,,,,,,,,,,54,,,,,,,,,,,,,,401.4849999996368,,response,,,,100,,,,,,,Space,keypress(Space),,,,,,,,-- --- ---- --- ------ ----- ------- ---- -- --- ------- --<br>------- ---------- ------ -- ----- -- ----- -- ---- ------<br>--- ----- --- --- ------ -------- ----- --- ------ ----- --<br>----- ----- ---------- --- --- ------ ------ ---- -- ------<br>------- --- ------ ----- --- ---- ------- an ---- --- --<br>------- ------,220067.19999999925,220065.59999999963,219647.45,219654.2999999998,219664.115,220080.769,,50,an
screen,html.Screen,2_1_1_1_51,2022-04-27T12:53:14.753Z,,,,,,,,,,,,,,,,,54,,,,,,,,,,,,,,417.83099999962724,,response,,,,100,,,,,,,Space,keypress(Space),,,,,,,,-- --- ---- --- ------ ----- ------- ---- -- --- ------- --<br>------- ---------- ------ -- ----- -- ----- -- ---- ------<br>--- ----- --- --- ------ -------- ----- --- ------ ----- --<br>----- ----- ---------- --- --- ------ ------ ---- -- ------<br>------- --- ------ ----- --- ---- ------- -- easy --- --<br>------- ------,220500.09999999963,220498.59999999963,220064.104,220067.39999999944,220080.769,220514.082,,51,easy
screen,html.Screen,2_1_1_1_52,2022-04-27T12:53:15.337Z,,,,,,,,,,,,,,,,,54,,,,,,,,,,,,,,567.7179999998189,,response,,,,100,,,,,,,Space,keypress(Space),,,,,,,,-- --- ---- --- ------ ----- ------- ---- -- --- ------- --<br>------- ---------- ------ -- ----- -- ----- -- ---- ------<br>--- ----- --- --- ------ -------- ----- --- ------ ----- --<br>----- ----- ---------- --- --- ------ ------ ---- -- ------<br>------- --- ------ ----- --- ---- ------- -- ---- way --<br>------- ------,221083.59999999963,221081.7999999998,220497.417,220500.19999999925,220514.082,221097.372,,52,way
screen,html.Screen,2_1_1_1_53,2022-04-27T12:53:15.690Z,,,,,,,,,,,,,,,,,54,,,,,,,,,,,,,,337.627999999997,,response,,,,100,,,,,,,Space,keypress(Space),,,,,,,,-- --- ---- --- ------ ----- ------- ---- -- --- ------- --<br>------- ---------- ------ -- ----- -- ----- -- ---- ------<br>--- ----- --- --- ------ -------- ----- --- ------ ----- --<br>----- ----- ---------- --- --- ------ ------ ---- -- ------<br>------- --- ------ ----- --- ---- ------- -- ---- --- of<br>------- ------,221437.09999999963,221435,221080.707,221083.69999999925,221097.372,221447.37,,53,of
screen,html.Screen,2_1_1_1_54,2022-04-27T12:53:16.129Z,,,,,,,,,,,,,,,,,54,,,,,,,,,,,,,,426.9299999998184,,response,,,,100,,,,,,,Space,keypress(Space),,,,,,,,-- --- ---- --- ------ ----- ------- ---- -- --- ------- --<br>------- ---------- ------ -- ----- -- ----- -- ---- ------<br>--- ----- --- --- ------ -------- ----- --- ------ ----- --<br>----- ----- ---------- --- --- ------ ------ ---- -- ------<br>------- --- ------ ----- --- ---- ------- -- ---- --- --<br>raising ------,221875.5,221874.2999999998,221430.705,221437.2999999998,221447.37,221880.693,,54,raising
screen,html.Screen,2_1_1_1_55,2022-04-27T12:53:17.138Z,,,,,,,,,,,,,,,,,54,,,,,,,,,,,,,,1002.1069999998144,,response,,,,100,,,,,,,Space,keypress(Space),,,,,,,,-- --- ---- --- ------ ----- ------- ---- -- --- ------- --<br>------- ---------- ------ -- ----- -- ----- -- ---- ------<br>--- ----- --- --- ------ -------- ----- --- ------ ----- --<br>----- ----- ---------- --- --- ------ ------ ---- -- ------<br>------- --- ------ ----- --- ---- ------- -- ---- --- --<br>------- money.,222884.39999999944,222882.7999999998,221864.028,221875.7999999998,221880.693,222897.266,,55,money.
Item 100,flow.Loop,2_1_1_1,2022-04-27T12:53:17.138Z,,,,,,,,,,,,,,,,,,,,,,,,,,,,,,,25434.355999999825,,completion,,,,,C,,,,,,,,,,,silence,,,,,222884.69999999925,222882.7999999998,197431.779,197433.39999999944,197448.444,222897.266,,,
Question 1,html.Screen,2_1_1_2,2022-04-27T12:53:19.759Z,,,,,,,,,,,,,,,,,,,,,,,,,,,,true,TRUE,,2606.4339999992517,,response,,,,100,C,,,,,,TRUE,click #choice-1,,,,silence,,,,,225505.19999999925,225503.69999999925,222880.601,222884.7999999998,222897.266,225513.839,,,
Question 2,html.Screen,2_1_1_3,2022-04-27T12:53:22.395Z,,,,,,,,,,,,,,,,,,,,,,,,,,,,true,FALSE,,2625.9609999998065,,response,,,,100,C,,,,,,FALSE,click #choice-2,,,,silence,,,,,228141.2999999998,228139.7999999998,225497.174,225505.2999999998,225513.839,228147.053,,,
Item 100,flow.Sequence,2_1_1,2022-04-27T12:53:22.395Z,,,,,,,,,,,,,,,,,,,,,,,,,,,,,,,40690.864999999816,,completion,,,,,,,,,,,,,,,,,,,,,228141.59999999963,228139.7999999998,187432.27,187438.69999999925,187448.935,228147.053,,,
End of Practice,html.Page,2_1_2,2022-04-27T12:53:26.037Z,,,,,,,,,,,,,,,,,,,,,,,,,,,,,,,3636.1469999992405,,form submission,,,,,,,,,,,,,,,,,,,,,231783.89999999944,231783.19999999925,228130.388,228141.69999999925,228147.053,231796.893,,,
Practice,flow.Sequence,2_1,2022-04-27T12:53:26.038Z,,,,,,,,,,,,,,,,,,,,,,,,,,,,,,,90698.79899999924,,completion,,,,,,,,,,,,,,,,,,,,,231784.19999999925,231783.19999999925,141067.736,141082.89999999944,141084.401,231796.893,,,
Trap_instruction,html.Page,2_2_0,2022-04-27T12:53:32.911Z,,,,,,,,,,,,,,,,,,,,,,,,,,,,,,,6860.306999999244,,form submission,,,,,,,,,,,,,,,,,,,,,238657.5,238657.19999999925,231780.228,231784.5,231796.893,238696.485,,,
trap_trial,html.Screen,2_2_1,2022-04-27T12:54:02.931Z,,,,,,,,,,,,,,,,,,,,,,,,,,,,,,,29997.114,,timeout,,,,,,,,,,,,,,,,,,,,,268677.89999999944,268676.934,238646.49,238657.69999999925,238696.485,268693.599,,,
end of trap trial,html.Page,2_2_2,2022-04-27T12:54:07.449Z,,,,,,,,,,,,,,,,,,,,,,,,,,,,,,,4502.1009999992675,,form submission,,,,,,,,,,,,,,,,,,,,,273196.0999999996,273195.69999999925,268676.934,268678,268693.599,273211.428,,,
Trap 1,flow.Sequence,2_2,2022-04-27T12:54:07.450Z,,,,,,,,,,,,,,,,,,,,,,,,,,,,,,,41398.806999999244,,completion,,,,,,,,,,,,,,,,,,,,,273196.2999999998,273195.69999999925,231780.228,231784.2999999998,231796.893,273211.428,,,
Standby,html.Page,2_3_0,2022-04-27T12:54:15.449Z,,,,,,,,,,,,,,,,,,,,,,,,,,,,,,,7999.434999999998,,timeout,,,,,,,,,,,,,,,,,,,,,281195.2999999998,281194.198,273194.763,273196.39999999944,273211.428,281210.863,,,
Holding screen,html.Screen,2_3_1_0_0,2022-04-27T12:54:22.449Z,,,,,,,,,,,,,,,,,,,,,,,,,,,,,,,7000.054999999993,,timeout,,,,,,,,,,,,,,,,,,,,,288195.39999999944,288194.253,281194.198,281195.5,281210.863,288210.918,,,
screen,html.Screen,2_3_1_0_1_0,2022-04-27T12:54:23.273Z,,,,,,,,,,,,,,,,,19,,,,,,,,,,,,,,805.4819999994361,,response,,,,17,C,,,,,,Space,keypress(Space),,,,instrumental,,,,"Interestingly, --- -------- -------- ---------- ---- -------<br>-- ---------- -- --- ----- ------ ----- ---- --------- ----<br>------- ------ -------- -- ------ ---------- ------ ---<br>------ -- -- ---- -- ---------- -------- ------ ---- -------<br>---- --- --------- ------- ----- --------- ---- ----- --<br>------ -------- -- ------ -- ---- ------------",289019.39999999944,289016.39999999944,288194.253,288195.5999999996,288210.918,289027.566,,0,"Interestingly,"
screen,html.Screen,2_3_1_0_1_1,2022-04-27T12:54:23.811Z,,,,,,,,,,,,,,,,,19,,,,,,,,,,,,,,528.0339999996359,,response,,,,17,C,,,,,,Space,keypress(Space),,,,instrumental,,,,-------------- the -------- -------- ---------- ---- -------<br>-- ---------- -- --- ----- ------ ----- ---- --------- ----<br>------- ------ -------- -- ------ ---------- ------ ---<br>------ -- -- ---- -- ---------- -------- ------ ---- -------<br>---- --- --------- ------- ----- --------- ---- ----- --<br>------ -------- -- ------ -- ---- ------------,289557.2999999998,289555.5999999996,289010.901,289019.5,289027.566,289560.872,,1,the
screen,html.Screen,2_3_1_0_1_2,2022-04-27T12:54:24.139Z,,,,,,,,,,,,,,,,,19,,,,,,,,,,,,,,323.0279999994673,,response,,,,17,C,,,,,,Space,keypress(Space),,,,instrumental,,,,-------------- --- heaviest -------- ---------- ---- -------<br>-- ---------- -- --- ----- ------ ----- ---- --------- ----<br>------- ------ -------- -- ------ ---------- ------ ---<br>------ -- -- ---- -- ---------- -------- ------ ---- -------<br>---- --- --------- ------- ----- --------- ---- ----- --<br>------ -------- -- ------ -- ---- ------------,289885.19999999925,289883.89999999944,289544.207,289557.5,289560.872,289894.216,,2,heaviest
screen,html.Screen,2_3_1_0_1_3,2022-04-27T12:54:24.665Z,,,,,,,,,,,,,,,,,19,,,,,,,,,,,,,,515.7839999999851,,response,,,,17,C,,,,,,Space,keypress(Space),,,,instrumental,,,,-------------- --- -------- isotopes ---------- ---- -------<br>-- ---------- -- --- ----- ------ ----- ---- --------- ----<br>------- ------ -------- -- ------ ---------- ------ ---<br>------ -- -- ---- -- ---------- -------- ------ ---- -------<br>---- --- --------- ------- ----- --------- ---- ----- --<br>------ -------- -- ------ -- ---- ------------,290411.39999999944,290410,289877.551,289885.39999999944,289894.216,290427.515,,3,isotopes
screen,html.Screen,2_3_1_0_1_4,2022-04-27T12:54:26.343Z,,,,,,,,,,,,,,,,,19,,,,,,,,,,,,,,1660.3849999994272,,response,,,,17,C,,,,,,Space,keypress(Space),,,,instrumental,,,,-------------- --- -------- -------- physicists ---- -------<br>-- ---------- -- --- ----- ------ ----- ---- --------- ----<br>------- ------ -------- -- ------ ---------- ------ ---<br>------ -- -- ---- -- ---------- -------- ------ ---- -------<br>---- --- --------- ------- ----- --------- ---- ----- --<br>------ -------- -- ------ -- ---- ------------,292089.39999999944,292087.89999999944,290410.85,290411.5,290427.515,292094.03,,4,physicists
screen,html.Screen,2_3_1_0_1_5,2022-04-27T12:54:27.301Z,,,,,,,,,,,,,,,,,19,,,,,,,,,,,,,,952.0699999995995,,response,,,,17,C,,,,,,Space,keypress(Space),,,,instrumental,,,,-------------- --- -------- -------- ---------- have -------<br>-- ---------- -- --- ----- ------ ----- ---- --------- ----<br>------- ------ -------- -- ------ ---------- ------ ---<br>------ -- -- ---- -- ---------- -------- ------ ---- -------<br>---- --- --------- ------- ----- --------- ---- ----- --<br>------ -------- -- ------ -- ---- ------------,293047.5999999996,293046.0999999996,292077.365,292089.5,292094.03,293060.695,,5,have
screen,html.Screen,2_3_1_0_1_6,2022-04-27T12:54:27.959Z,,,,,,,,,,,,,,,,,19,,,,,,,,,,,,,,643.1049999998068,,response,,,,17,C,,,,,,Space,keypress(Space),,,,instrumental,,,,-------------- --- -------- -------- ---------- ---- managed<br>-- ---------- -- --- ----- ------ ----- ---- --------- ----<br>------- ------ -------- -- ------ ---------- ------ ---<br>------ -- -- ---- -- ---------- -------- ------ ---- -------<br>---- --- --------- ------- ----- --------- ---- ----- --<br>------ -------- -- ------ -- ---- ------------,293705.69999999925,293703.7999999998,293044.03,293047.69999999925,293060.695,293710.683,,6,managed
screen,html.Screen,2_3_1_0_1_7,2022-04-27T12:54:29.184Z,,,,,,,,,,,,,,,,,19,,,,,,,,,,,,,,1217.5169999992358,,response,,,,17,C,,,,,,Space,keypress(Space),,,,instrumental,,,,-------------- --- -------- -------- ---------- ---- -------<br>to ---------- -- --- ----- ------ ----- ---- --------- ----<br>------- ------ -------- -- ------ ---------- ------ ---<br>------ -- -- ---- -- ---------- -------- ------ ---- -------<br>---- --- --------- ------- ----- --------- ---- ----- --<br>------ -------- -- ------ -- ---- ------------,294930.0999999996,294928.19999999925,293694.018,293705.89999999944,293710.683,294943.932,,7,to
screen,html.Screen,2_3_1_0_1_8,2022-04-27T12:54:29.603Z,,,,,,,,,,,,,,,,,19,,,,,,,,,,,,,,404.26799999928335,,response,,,,17,C,,,,,,Space,keypress(Space),,,,instrumental,,,,-------------- --- -------- -------- ---------- ---- -------<br>-- synthesize -- --- ----- ------ ----- ---- --------- ----<br>------- ------ -------- -- ------ ---------- ------ ---<br>------ -- -- ---- -- ---------- -------- ------ ---- -------<br>---- --- --------- ------- ----- --------- ---- ----- --<br>------ -------- -- ------ -- ---- ------------,295349.7999999998,295348.19999999925,294927.267,294930.2999999998,294943.932,295360.61,,8,synthesize
screen,html.Screen,2_3_1_0_1_9,2022-04-27T12:54:30.098Z,,,,,,,,,,,,,,,,,19,,,,,,,,,,,,,,482.48999999964144,,response,,,,17,C,,,,,,Space,keypress(Space),,,,instrumental,,,,-------------- --- -------- -------- ---------- ---- -------<br>-- ---------- so --- ----- ------ ----- ---- --------- ----<br>------- ------ -------- -- ------ ---------- ------ ---<br>------ -- -- ---- -- ---------- -------- ------ ---- -------<br>---- --- --------- ------- ----- --------- ---- ----- --<br>------ -------- -- ------ -- ---- ------------,295844.69999999925,295843.0999999996,295343.945,295349.89999999944,295360.61,295860.587,,9,so
screen,html.Screen,2_3_1_0_1_10,2022-04-27T12:54:30.748Z,,,,,,,,,,,,,,,,,19,,,,,,,,,,,,,,632.0129999996279,,response,,,,17,C,,,,,,Space,keypress(Space),,,,instrumental,,,,-------------- --- -------- -------- ---------- ---- -------<br>-- ---------- -- far ----- ------ ----- ---- --------- ----<br>------- ------ -------- -- ------ ---------- ------ ---<br>------ -- -- ---- -- ---------- -------- ------ ---- -------<br>---- --- --------- ------- ----- --------- ---- ----- --<br>------ -------- -- ------ -- ---- ------------,296494.5,296492.5999999996,295843.922,295844.7999999998,295860.587,296510.543,,10,far
screen,html.Screen,2_3_1_0_1_11,2022-04-27T12:54:31.771Z,,,,,,,,,,,,,,,,,19,,,,,,,,,,,,,,1005.0569999996223,,response,,,,17,C,,,,,,Space,keypress(Space),,,,instrumental,,,,-------------- --- -------- -------- ---------- ---- -------<br>-- ---------- -- --- don't ------ ----- ---- --------- ----<br>------- ------ -------- -- ------ ---------- ------ ---<br>------ -- -- ---- -- ---------- -------- ------ ---- -------<br>---- --- --------- ------- ----- --------- ---- ----- --<br>------ -------- -- ------ -- ---- ------------,297517.2999999998,297515.5999999996,296493.878,296494.69999999925,296510.543,297527.147,,11,don't
screen,html.Screen,2_3_1_0_1_12,2022-04-27T12:54:32.168Z,,,,,,,,,,,,,,,,,19,,,,,,,,,,,,,,385.752999999444,,response,,,,17,C,,,,,,Space,keypress(Space),,,,instrumental,,,,-------------- --- -------- -------- ---------- ---- -------<br>-- ---------- -- --- ----- behave ----- ---- --------- ----<br>------- ------ -------- -- ------ ---------- ------ ---<br>------ -- -- ---- -- ---------- -------- ------ ---- -------<br>---- --- --------- ------- ----- --------- ---- ----- --<br>------ -------- -- ------ -- ---- ------------,297914.5,297912.89999999944,297510.482,297517.39999999944,297527.147,297927.174,,12,behave
screen,html.Screen,2_3_1_0_1_13,2022-04-27T12:54:32.601Z,,,,,,,,,,,,,,,,,19,,,,,,,,,,,,,,418.82600000000093,,response,,,,17,C,,,,,,Space,keypress(Space),,,,instrumental,,,,-------------- --- -------- -------- ---------- ---- -------<br>-- ---------- -- --- ----- ------ quite ---- --------- ----<br>------- ------ -------- -- ------ ---------- ------ ---<br>------ -- -- ---- -- ---------- -------- ------ ---- -------<br>---- --- --------- ------- ----- --------- ---- ----- --<br>------ -------- -- ------ -- ---- ------------,298347.5,298346,297910.509,297914.7999999998,297927.174,298360.483,,13,quite
screen,html.Screen,2_3_1_0_1_14,2022-04-27T12:54:33.256Z,,,,,,,,,,,,,,,,,19,,,,,,,,,,,,,,640.4169999994338,,response,,,,17,C,,,,,,Space,keypress(Space),,,,instrumental,,,,-------------- --- -------- -------- ---------- ---- -------<br>-- ---------- -- --- ----- ------ ----- like --------- ----<br>------- ------ -------- -- ------ ---------- ------ ---<br>------ -- -- ---- -- ---------- -------- ------ ---- -------<br>---- --- --------- ------- ----- --------- ---- ----- --<br>------ -------- -- ------ -- ---- ------------,299002.69999999925,299000.89999999944,298343.818,298347.69999999925,298360.483,299010.441,,14,like
screen,html.Screen,2_3_1_0_1_15,2022-04-27T12:54:33.636Z,,,,,,,,,,,,,,,,,19,,,,,,,,,,,,,,370.0590000000084,,response,,,,17,C,,,,,,Space,keypress(Space),,,,instrumental,,,,-------------- --- -------- -------- ---------- ---- -------<br>-- ---------- -- --- ----- ------ ----- ---- science's ----<br>------- ------ -------- -- ------ ---------- ------ ---<br>------ -- -- ---- -- ---------- -------- ------ ---- -------<br>---- --- --------- ------- ----- --------- ---- ----- --<br>------ -------- -- ------ -- ---- ------------,299382.69999999925,299380.5,298993.776,299002.7999999998,299010.441,299393.764,,15,science's
screen,html.Screen,2_3_1_0_1_16,2022-04-27T12:54:34.087Z,,,,,,,,,,,,,,,,,19,,,,,,,,,,,,,,437.8359999996028,,response,,,,17,C,,,,,,Space,keypress(Space),,,,instrumental,,,,-------------- --- -------- -------- ---------- ---- -------<br>-- ---------- -- --- ----- ------ ----- ---- --------- best<br>------- ------ -------- -- ------ ---------- ------ ---<br>------ -- -- ---- -- ---------- -------- ------ ---- -------<br>---- --- --------- ------- ----- --------- ---- ----- --<br>------ -------- -- ------ -- ---- ------------,299833.19999999925,299831.5999999996,299377.099,299382.7999999998,299393.764,299843.748,,16,best
screen,html.Screen,2_3_1_0_1_17,2022-04-27T12:54:34.538Z,,,,,,,,,,,,,,,,,19,,,,,,,,,,,,,,439.0519999997923,,response,,,,17,C,,,,,,Space,keypress(Space),,,,instrumental,,,,-------------- --- -------- -------- ---------- ---- -------<br>-- ---------- -- --- ----- ------ ----- ---- --------- ----<br>current ------ -------- -- ------ ---------- ------ ---<br>------ -- -- ---- -- ---------- -------- ------ ---- -------<br>---- --- --------- ------- ----- --------- ---- ----- --<br>------ -------- -- ------ -- ---- ------------,300284.5,300282.7999999998,299827.083,299833.2999999998,299843.748,300293.716,,17,current
screen,html.Screen,2_3_1_0_1_18,2022-04-27T12:54:35.275Z,,,,,,,,,,,,,,,,,19,,,,,,,,,,,,,,726.1839999994263,,response,,,,17,C,,,,,,Space,keypress(Space),,,,instrumental,,,,-------------- --- -------- -------- ---------- ---- -------<br>-- ---------- -- --- ----- ------ ----- ---- --------- ----<br>------- models -------- -- ------ ---------- ------ ---<br>------ -- -- ---- -- ---------- -------- ------ ---- -------<br>---- --- --------- ------- ----- --------- ---- ----- --<br>------ -------- -- ------ -- ---- ------------,301021.39999999944,301019.89999999944,300277.051,300284.69999999925,300293.716,301027.016,,18,models
screen,html.Screen,2_3_1_0_1_19,2022-04-27T12:54:36.374Z,,,,,,,,,,,,,,,,,19,,,,,,,,,,,,,,1091.5839999996242,,response,,,,17,C,,,,,,Space,keypress(Space),,,,instrumental,,,,"-------------- --- -------- -------- ---------- ---- -------<br>-- ---------- -- --- ----- ------ ----- ---- --------- ----<br>------- ------ predict, -- ------ ---------- ------ ---<br>------ -- -- ---- -- ---------- -------- ------ ---- -------<br>---- --- --------- ------- ----- --------- ---- ----- --<br>------ -------- -- ------ -- ---- ------------",302120.5999999996,302118.5999999996,301010.351,301021.5999999996,301027.016,302126.938,,19,"predict,"
screen,html.Screen,2_3_1_0_1_20,2022-04-27T12:54:37.407Z,,,,,,,,,,,,,,,,,19,,,,,,,,,,,,,,1024.6619999996037,,response,,,,17,C,,,,,,Space,keypress(Space),,,,instrumental,,,,-------------- --- -------- -------- ---------- ---- -------<br>-- ---------- -- --- ----- ------ ----- ---- --------- ----<br>------- ------ -------- so ------ ---------- ------ ---<br>------ -- -- ---- -- ---------- -------- ------ ---- -------<br>---- --- --------- ------- ----- --------- ---- ----- --<br>------ -------- -- ------ -- ---- ------------,303153.39999999944,303151.5999999996,302110.273,302120.69999999925,302126.938,303160.224,,20,so
screen,html.Screen,2_3_1_0_1_21,2022-04-27T12:54:38.029Z,,,,,,,,,,,,,,,,,19,,,,,,,,,,,,,,613.9759999992675,,response,,,,17,C,,,,,,Space,keypress(Space),,,,instrumental,,,,-------------- --- -------- -------- ---------- ---- -------<br>-- ---------- -- --- ----- ------ ----- ---- --------- ----<br>------- ------ -------- -- stable ---------- ------ ---<br>------ -- -- ---- -- ---------- -------- ------ ---- -------<br>---- --- --------- ------- ----- --------- ---- ----- --<br>------ -------- -- ------ -- ---- ------------,303776,303774.19999999925,303143.559,303153.5999999996,303160.224,303776.884,,21,stable
screen,html.Screen,2_3_1_0_1_22,2022-04-27T12:54:38.762Z,,,,,,,,,,,,,,,,,19,,,,,,,,,,,,,,730.0159999994212,,response,,,,17,C,,,,,,Space,keypress(Space),,,,instrumental,,,,-------------- --- -------- -------- ---------- ---- -------<br>-- ---------- -- --- ----- ------ ----- ---- --------- ----<br>------- ------ -------- -- ------ superheavy ------ ---<br>------ -- -- ---- -- ---------- -------- ------ ---- -------<br>---- --- --------- ------- ----- --------- ---- ----- --<br>------ -------- -- ------ -- ---- ------------,304508.5999999996,304506.89999999944,303760.219,303776.0999999996,303776.884,304510.183,,22,superheavy
screen,html.Screen,2_3_1_0_1_23,2022-04-27T12:54:39.223Z,,,,,,,,,,,,,,,,,19,,,,,,,,,,,,,,457.7169999994221,,response,,,,17,C,,,,,,Space,keypress(Space),,,,instrumental,,,,-------------- --- -------- -------- ---------- ---- -------<br>-- ---------- -- --- ----- ------ ----- ---- --------- ----<br>------- ------ -------- -- ------ ---------- nuclei ---<br>------ -- -- ---- -- ---------- -------- ------ ---- -------<br>---- --- --------- ------- ----- --------- ---- ----- --<br>------ -------- -- ------ -- ---- ------------,304969.89999999944,304967.89999999944,304493.518,304508.7999999998,304510.183,304976.836,,23,nuclei
screen,html.Screen,2_3_1_0_1_24,2022-04-27T12:54:39.770Z,,,,,,,,,,,,,,,,,19,,,,,,,,,,,,,,537.2639999996172,,response,,,,17,C,,,,,,Space,keypress(Space),,,,instrumental,,,,-------------- --- -------- -------- ---------- ---- -------<br>-- ---------- -- --- ----- ------ ----- ---- --------- ----<br>------- ------ -------- -- ------ ---------- ------ are<br>------ -- -- ---- -- ---------- -------- ------ ---- -------<br>---- --- --------- ------- ----- --------- ---- ----- --<br>------ -------- -- ------ -- ---- ------------,305516.39999999944,305514.0999999996,304960.171,304970,304976.836,305526.803,,24,are
screen,html.Screen,2_3_1_0_1_25,2022-04-27T12:54:40.165Z,,,,,,,,,,,,,,,,,19,,,,,,,,,,,,,,383.09699999942677,,response,,,,17,C,,,,,,Space,keypress(Space),,,,instrumental,,,,-------------- --- -------- -------- ---------- ---- -------<br>-- ---------- -- --- ----- ------ ----- ---- --------- ----<br>------- ------ -------- -- ------ ---------- ------ ---<br>likely -- -- ---- -- ---------- -------- ------ ---- -------<br>---- --- --------- ------- ----- --------- ---- ----- --<br>------ -------- -- ------ -- ---- ------------,305911.69999999925,305909.89999999944,305510.138,305516.5,305526.803,305926.808,,25,likely
screen,html.Screen,2_3_1_0_1_26,2022-04-27T12:54:40.534Z,,,,,,,,,,,,,,,,,19,,,,,,,,,,,,,,352.1919999999809,,response,,,,17,C,,,,,,Space,keypress(Space),,,,instrumental,,,,-------------- --- -------- -------- ---------- ---- -------<br>-- ---------- -- --- ----- ------ ----- ---- --------- ----<br>------- ------ -------- -- ------ ---------- ------ ---<br>------ to -- ---- -- ---------- -------- ------ ---- -------<br>---- --- --------- ------- ----- --------- ---- ----- --<br>------ -------- -- ------ -- ---- ------------,306280.5,306279,305910.143,305911.89999999944,305926.808,306293.444,,26,to
screen,html.Screen,2_3_1_0_1_27,2022-04-27T12:54:40.882Z,,,,,,,,,,,,,,,,,19,,,,,,,,,,,,,,334.1559999996098,,response,,,,17,C,,,,,,Space,keypress(Space),,,,instrumental,,,,-------------- --- -------- -------- ---------- ---- -------<br>-- ---------- -- --- ----- ------ ----- ---- --------- ----<br>------- ------ -------- -- ------ ---------- ------ ---<br>------ -- be ---- -- ---------- -------- ------ ---- -------<br>---- --- --------- ------- ----- --------- ---- ----- --<br>------ -------- -- ------ -- ---- ------------,306629,306627.5999999996,306276.779,306280.69999999925,306293.444,306643.429,,27,be
screen,html.Screen,2_3_1_0_1_28,2022-04-27T12:54:41.225Z,,,,,,,,,,,,,,,,,19,,,,,,,,,,,,,,326.17099999962375,,response,,,,17,C,,,,,,Space,keypress(Space),,,,instrumental,,,,-------------- --- -------- -------- ---------- ---- -------<br>-- ---------- -- --- ----- ------ ----- ---- --------- ----<br>------- ------ -------- -- ------ ---------- ------ ---<br>------ -- -- full -- ---------- -------- ------ ---- -------<br>---- --- --------- ------- ----- --------- ---- ----- --<br>------ -------- -- ------ -- ---- ------------,306971.5,306969.5999999996,306626.764,306629,306643.429,306976.756,,28,full
screen,html.Screen,2_3_1_0_1_29,2022-04-27T12:54:41.662Z,,,,,,,,,,,,,,,,,19,,,,,,,,,,,,,,430.24400000000605,,response,,,,17,C,,,,,,Space,keypress(Space),,,,instrumental,,,,-------------- --- -------- -------- ---------- ---- -------<br>-- ---------- -- --- ----- ------ ----- ---- --------- ----<br>------- ------ -------- -- ------ ---------- ------ ---<br>------ -- -- ---- of ---------- -------- ------ ---- -------<br>---- --- --------- ------- ----- --------- ---- ----- --<br>------ -------- -- ------ -- ---- ------------,307408.7999999998,307407,306960.091,306971.5999999996,306976.756,307410.067,,29,of
screen,html.Screen,2_3_1_0_1_30,2022-04-27T12:54:42.026Z,,,,,,,,,,,,,,,,,19,,,,,,,,,,,,,,360.9330000000191,,response,,,,17,C,,,,,,Space,keypress(Space),,,,instrumental,,,,-------------- --- -------- -------- ---------- ---- -------<br>-- ---------- -- --- ----- ------ ----- ---- --------- ----<br>------- ------ -------- -- ------ ---------- ------ ---<br>------ -- -- ---- -- surprises. -------- ------ ---- -------<br>---- --- --------- ------- ----- --------- ---- ----- --<br>------ -------- -- ------ -- ---- ------------,307772.89999999944,307771,307393.402,307408.7999999998,307410.067,307776.709,,30,surprises.
screen,html.Screen,2_3_1_0_1_31,2022-04-27T12:54:42.813Z,,,,,,,,,,,,,,,,,19,,,,,,,,,,,,,,781.390999999654,,response,,,,17,C,,,,,,Space,keypress(Space),,,,instrumental,,,,-------------- --- -------- -------- ---------- ---- -------<br>-- ---------- -- --- ----- ------ ----- ---- --------- ----<br>------- ------ -------- -- ------ ---------- ------ ---<br>------ -- -- ---- -- ---------- Chemists ------ ---- -------<br>---- --- --------- ------- ----- --------- ---- ----- --<br>------ -------- -- ------ -- ---- ------------,308560.0999999996,308558.0999999996,307760.044,307773.0999999996,307776.709,308576.66,,31,Chemists
screen,html.Screen,2_3_1_0_1_32,2022-04-27T12:54:43.253Z,,,,,,,,,,,,,,,,,19,,,,,,,,,,,,,,421.13999999983935,,response,,,,17,C,,,,,,Space,keypress(Space),,,,instrumental,,,,-------------- --- -------- -------- ---------- ---- -------<br>-- ---------- -- --- ----- ------ ----- ---- --------- ----<br>------- ------ -------- -- ------ ---------- ------ ---<br>------ -- -- ---- -- ---------- -------- cannot ---- -------<br>---- --- --------- ------- ----- --------- ---- ----- --<br>------ -------- -- ------ -- ---- ------------,308999.5,308997.7999999998,308559.995,308560.19999999925,308576.66,309009.986,,32,cannot
screen,html.Screen,2_3_1_0_1_33,2022-04-27T12:54:43.686Z,,,,,,,,,,,,,,,,,19,,,,,,,,,,,,,,421.0140000000247,,response,,,,17,C,,,,,,Space,keypress(Space),,,,instrumental,,,,-------------- --- -------- -------- ---------- ---- -------<br>-- ---------- -- --- ----- ------ ----- ---- --------- ----<br>------- ------ -------- -- ------ ---------- ------ ---<br>------ -- -- ---- -- ---------- -------- ------ even -------<br>---- --- --------- ------- ----- --------- ---- ----- --<br>------ -------- -- ------ -- ---- ------------,309433.0999999996,309431,308993.321,308999.69999999925,309009.986,309443.304,,33,even
screen,html.Screen,2_3_1_0_1_34,2022-04-27T12:54:44.085Z,,,,,,,,,,,,,,,,,19,,,,,,,,,,,,,,386.99599999981,,response,,,,17,C,,,,,,Space,keypress(Space),,,,instrumental,,,,-------------- --- -------- -------- ---------- ---- -------<br>-- ---------- -- --- ----- ------ ----- ---- --------- ----<br>------- ------ -------- -- ------ ---------- ------ ---<br>------ -- -- ---- -- ---------- -------- ------ ---- predict<br>---- --- --------- ------- ----- --------- ---- ----- --<br>------ -------- -- ------ -- ---- ------------,309831.7999999998,309830.2999999998,309426.639,309433.19999999925,309443.304,309843.279,,34,predict
screen,html.Screen,2_3_1_0_1_35,2022-04-27T12:54:44.482Z,,,,,,,,,,,,,,,,,19,,,,,,,,,,,,,,383.5209999998333,,response,,,,17,C,,,,,,Space,keypress(Space),,,,instrumental,,,,-------------- --- -------- -------- ---------- ---- -------<br>-- ---------- -- --- ----- ------ ----- ---- --------- ----<br>------- ------ -------- -- ------ ---------- ------ ---<br>------ -- -- ---- -- ---------- -------- ------ ---- -------<br>with --- --------- ------- ----- --------- ---- ----- --<br>------ -------- -- ------ -- ---- ------------,310229,310226.7999999998,309826.614,309832,309843.279,310243.272,,35,with
screen,html.Screen,2_3_1_0_1_36,2022-04-27T12:54:44.839Z,,,,,,,,,,,,,,,,,19,,,,,,,,,,,,,,340.52799999981653,,response,,,,17,C,,,,,,Space,keypress(Space),,,,instrumental,,,,-------------- --- -------- -------- ---------- ---- -------<br>-- ---------- -- --- ----- ------ ----- ---- --------- ----<br>------- ------ -------- -- ------ ---------- ------ ---<br>------ -- -- ---- -- ---------- -------- ------ ---- -------<br>---- any --------- ------- ----- --------- ---- ----- --<br>------ -------- -- ------ -- ---- ------------,310585.5,310583.7999999998,310226.607,310229.0999999996,310243.272,310593.25,,36,any
screen,html.Screen,2_3_1_0_1_37,2022-04-27T12:54:45.245Z,,,,,,,,,,,,,,,,,19,,,,,,,,,,,,,,397.04999999981374,,response,,,,17,C,,,,,,Space,keypress(Space),,,,instrumental,,,,-------------- --- -------- -------- ---------- ---- -------<br>-- ---------- -- --- ----- ------ ----- ---- --------- ----<br>------- ------ -------- -- ------ ---------- ------ ---<br>------ -- -- ---- -- ---------- -------- ------ ---- -------<br>---- --- certainty ------- ----- --------- ---- ----- --<br>------ -------- -- ------ -- ---- ------------,310991.7999999998,310990.2999999998,310576.585,310585.69999999925,310593.25,310993.223,,37,certainty
screen,html.Screen,2_3_1_0_1_38,2022-04-27T12:54:45.620Z,,,,,,,,,,,,,,,,,19,,,,,,,,,,,,,,372.17699999944307,,response,,,,17,C,,,,,,Space,keypress(Space),,,,instrumental,,,,-------------- --- -------- -------- ---------- ---- -------<br>-- ---------- -- --- ----- ------ ----- ---- --------- ----<br>------- ------ -------- -- ------ ---------- ------ ---<br>------ -- -- ---- -- ---------- -------- ------ ---- -------<br>---- --- --------- whether ----- --------- ---- ----- --<br>------ -------- -- ------ -- ---- ------------,311367,311365.39999999944,310976.558,310992,310993.223,311376.548,,38,whether
