sender,sender_type,sender_id,timestamp,meta,,Blues,Classical,Country,Dance,Electronic,Folk,Gospel,Hip-Hop,Jazz,Latin,Musical/Film,New-age,Pop,Prolific_id,Provo_ID,R&B,Rap,Reggae,Religious,Rock,Soul,Swing,Traditional,age,artist_name,correct,correctResponse,distraction,duration,education,ended_on,familiarity,gender,headphone_check_performance,item,list,music_frequency,offensiveness,pleasantness,position_correct,preference,response,response_action,snippet_file,song_name,song_rating,sound,stimulus_1,stimulus_2,stimulus_3,text,time_commit,time_end,time_render,time_run,time_show,time_switch,url,word,word_ID
Prolific ID,html.Form,0,2022-04-28T09:51:45.773Z,"{""labjs_version"":""20.2.2"",""labjs_build"":{""flavor"":""production"",""commit"":""a25486e0c714a0ae2ce03ff94b7bb6896854dcfa""},""location"":""https://run.pavlovia.org/mvasilev/prolific3_music_d/"",""userAgent"":""Mozilla/5.0 (Windows NT 10.0; Win64; x64) AppleWebKit/537.36 (KHTML, like Gecko) Chrome/100.0.4896.127 Safari/537.36 Edg/100.0.1185.50"",""platform"":""Win32"",""language"":""en-US"",""locale"":""en-US"",""timeZone"":""Europe/London"",""timezoneOffset"":-60,""screen_width"":1920,""screen_height"":1080,""scroll_width"":1920,""scroll_height"":889,""window_innerWidth"":1920,""window_innerHeight"":937,""devicePixelRatio"":1}",,,,,,,,,,,,,,,5d959fdf9cf6ab001982afee,,,,,,,,,,,,,,,12683.198000047683,,form submission,,,,,,,,,,,,,,,,,,,,,20489.5,20489.200000047684,7789.344,7805,7806.002,20507.115,{},,
Introduction,html.Screen,1_0,2022-04-28T09:51:57.548Z,,,,,,,,,,,,,,,,,,,,,,,,,,,,,,,11756.085000047682,,response,,,,,,,,,,,continue,click button,,,,,,,,,32264.700000047684,32263.200000047684,20472.665,20489.700000047684,20507.115,32272.703,,,
Volume calibration,html.Screen,1_1,2022-04-28T09:52:09.558Z,,,,,,,,,,,,,,,,,,,,,,,,,,,,,,,11999.497000047682,,response,,,,,,,,,,,continue,click button,,,,,,,,,44274,44272.200000047684,32256.025,32264.799999952316,32272.703,44272.725,,,
Task instructions,html.Screen,1_2,2022-04-28T09:52:15.301Z,,,,,,,,,,,,,,,,,,,,,,,,,,,,,,,5743.574999952318,,response,,,,,,,,,,,continue,click button,,,,,,,,,50016.89999997616,50016.299999952316,44256.061,44274,44272.725,50022.756,,,
Sounds,html.Screen,1_3_0_0,2022-04-28T09:52:19.541Z,,,,,,,,,,,,,,,,,,,,,,,,,,,,,,,4249.987000000001,,timeout,,,,,,,,,2,,,,,,,,I,S,O,,54257.5,54256.078,50006.064,50017,50022.756,54272.743,,,
Judgement,html.Screen,1_3_0_1,2022-04-28T09:52:20.454Z,,,,,,,,,,,,,,,,,,,,,,,,,,,,true,2,,896.6569999761559,,response,,,,,,,,,2,,2,click #choice-2,,,,,I,S,O,,55170.10000002384,55169.39999997616,54256.078,54257.60000002384,54272.743,55172.746,,,
Trial,flow.Sequence,1_3_0,2022-04-28T09:52:20.454Z,,,,,,,,,,,,,,,,,,,,,,,,,,,,,,,5146.643999976157,,completion,,,,,,,,,2,,,,,,,,I,S,O,,55170.200000047684,55169.39999997616,50006.064,50017,50022.756,55172.746,,,
Sounds,html.Screen,1_3_1_0,2022-04-28T09:52:24.690Z,,,,,,,,,,,,,,,,,,,,,,,,,,,,,,,4250.019,,timeout,,,,,,,,,1,,,,,,,,S,O,I,,59406.5,59406.086,55156.075,55170.39999997616,55172.746,59422.765,,,
Judgement,html.Screen,1_3_1_1,2022-04-28T09:52:25.191Z,,,,,,,,,,,,,,,,,,,,,,,,,,,,true,1,,483.4350000476843,,response,,,,,,,,,1,,1,click #choice-1,,,,,S,O,I,,59907,59906.200000047684,59406.086,59406.60000002384,59422.765,59922.759,,,
Trial,flow.Sequence,1_3_1,2022-04-28T09:52:25.191Z,,,,,,,,,,,,,,,,,,,,,,,,,,,,,,,4733.4540000476845,,completion,,,,,,,,,1,,,,,,,,S,O,I,,59907.200000047684,59906.200000047684,55156.075,55170.299999952316,55172.746,59922.759,,,
Sounds,html.Screen,1_3_2_0,2022-04-28T09:52:29.440Z,,,,,,,,,,,,,,,,,,,,,,,,,,,,,,,4250.008999999998,,timeout,,,,,,,,,3,,,,,,,,I,O,S,,64156.60000002384,64156.096,59906.088,59907.299999952316,59922.759,64172.768,,,
Judgement,html.Screen,1_3_2_1,2022-04-28T09:52:29.919Z,,,,,,,,,,,,,,,,,,,,,,,,,,,,true,3,,461.63199997616175,,response,,,,,,,,,3,,3,click #choice-3,,,,,I,O,S,,64634.89999997616,64634.39999997616,64156.096,64156.60000002384,64172.768,64639.433,,,
Trial,flow.Sequence,1_3_2,2022-04-28T09:52:29.919Z,,,,,,,,,,,,,,,,,,,,,,,,,,,,,,,4711.64099997616,,completion,,,,,,,,,3,,,,,,,,I,O,S,,64635,64634.39999997616,59906.088,59907.200000047684,59922.759,64639.433,,,
Sounds,html.Screen,1_3_3_0,2022-04-28T09:52:34.157Z,,,,,,,,,,,,,,,,,,,,,,,,,,,,,,,4250.008000000009,,timeout,,,,,,,,,3,,,,,,,,O,I,S,,68873.29999995232,68872.778,64622.768,64635.200000047684,64639.433,68889.441,,,
Judgement,html.Screen,1_3_3_1,2022-04-28T09:52:34.848Z,,,,,,,,,,,,,,,,,,,,,,,,,,,,true,3,,673.8589999523101,,response,,,,,,,,,3,,3,click #choice-3,,,,,O,I,S,,69564,69563.29999995232,68872.778,68873.29999995232,68889.441,69572.779,,,
Trial,flow.Sequence,1_3_3,2022-04-28T09:52:34.848Z,,,,,,,,,,,,,,,,,,,,,,,,,,,,,,,4923.866999952319,,completion,,,,,,,,,3,,,,,,,,O,I,S,,69564,69563.29999995232,64622.768,64635.200000047684,64639.433,69572.779,,,
Sounds,html.Screen,1_3_4_0,2022-04-28T09:52:39.090Z,,,,,,,,,,,,,,,,,,,,,,,,,,,,,,,4250.020000000004,,timeout,,,,,,,,,1,,,,,,,,S,I,O,,73806.60000002384,73806.124,69556.11,69564.10000002384,69572.779,73822.799,,,
Judgement,html.Screen,1_3_4_1,2022-04-28T09:52:40.186Z,,,,,,,,,,,,,,,,,,,,,,,,,,,,true,1,,1078.600999976159,,response,,,,,,,,,1,,1,click #choice-1,,,,,S,I,O,,74901.89999997616,74901.39999997616,73806.124,73806.70000004768,73822.799,74906.135,,,
Trial,flow.Sequence,1_3_4,2022-04-28T09:52:40.186Z,,,,,,,,,,,,,,,,,,,,,,,,,,,,,,,5328.620999976163,,completion,,,,,,,,,1,,,,,,,,S,I,O,,74902.10000002384,74901.39999997616,69556.11,69564.10000002384,69572.779,74906.135,,,
Sounds,html.Screen,1_3_5_0,2022-04-28T09:52:44.424Z,,,,,,,,,,,,,,,,,,,,,,,,,,,,,,,4250.008000000002,,timeout,,,,,,,,,2,,,,,,,,O,S,I,,79140,79139.468,74889.456,74902.10000002384,74906.135,79156.143,,,
Judgement,html.Screen,1_3_5_1,2022-04-28T09:52:44.885Z,,,,,,,,,,,,,,,,,,,,,,,,,,,,true,2,,444.95700002384547,,response,,,,,,,,,2,,2,click #choice-2,,,,,O,S,I,,79601.60000002384,79601.10000002384,79139.468,79140,79156.143,79606.141,,,
Trial,flow.Sequence,1_3_5,2022-04-28T09:52:44.885Z,,,,,,,,,,,,,,,,,,,,,,,,,,,,,,,4694.965000023847,,completion,,,,,,,,,2,,,,,,,,O,S,I,,79601.79999995232,79601.10000002384,74889.456,74902.10000002384,74906.135,79606.141,,,
Task,flow.Loop,1_3,2022-04-28T09:52:44.888Z,,,,,,,,,,,,,,,,,,,,,,,,,,,,,,,29578.34400002384,,completion,,,1,,,,,,,,,,,,,,,,,,79604.20000004768,79601.10000002384,50006.064,50017,50022.756,79606.141,,,
Trap,html.Screen,1_4,2022-04-28T09:52:44.888Z,,,,,,,,,,,,,,,,,,,,,,,,,,,,,,,NaN,,skipped,,,,,,,,,,,,,,,,,,,,,79604.79999995232,79601.10000002384,,79604.79999995232,,79606.141,,,
Thanks,html.Screen,1_5,2022-04-28T09:52:48.326Z,,,,,,,,,,,,,,,,,,,,,,,,,,,,,,,3435.158999952313,,response,,,,,,,,,,,continue,click button,,,,,,,,,83041.89999997616,83041.29999995232,79589.466,79604.79999995232,79606.141,86206.169,,,
Headphone screening,flow.Sequence,1,2022-04-28T09:52:48.326Z,,,,,,,,,,,,,,,,,,,,,,,,,,,,,,,62534.18499995231,,completion,,,,,,,,,,,,,,,,,,,,,83042,83041.29999995232,20472.665,20489.700000047684,20507.115,86206.169,,,
Instructions,html.Page,2_0,2022-04-28T09:53:09.820Z,,,,,,,,,,,,,,,,,,,,,,,,,,,,,,,18330.53100004769,,form submission,,,,,,,,,,,,,,,,,,,,,104536.89999997616,104536.70000004768,86189.494,86200.89999997616,86206.169,104539.547,,,
Holding screen,html.Screen,2_1_0_0,2022-04-28T09:53:19.807Z,,,,,,,,,,,,,,,,,,,,,,,,,,,,,,,9999.998999999996,,timeout,,,,,,,,,,,,,,,,,,,,,114523.29999995232,114522.883,104522.86,104537,104539.547,114539.546,,,
screen,html.Screen,2_1_0_1_0,2022-04-28T09:53:21.043Z,,,,,,,,,,,,,,,,,53,,,,,,,,,,,,,,1219.0540000238398,,response,,,,99,,,,,,,Space,keypress(Space),,,,,,,,When -- ----- -- ------ - ------- --- ----------<br>------------- ------ ------ ---- ---- ------- ----- -- ----<br>-------- ------- -- ---------- --- - --- ----- ----- ----<br>---- --- --- ----- --- ---- ---- ------- ----- ---- -------<br>--- --- -- ----- -- --- ---- -- --- ---- -- ------ ------<br>--- ----- -- ----,115760,115758.60000002384,114522.883,114523.39999997616,114539.546,115772.89,,0,When
screen,html.Screen,2_1_0_1_1,2022-04-28T09:53:21.400Z,,,,,,,,,,,,,,,,,53,,,,,,,,,,,,,,343.5099999761587,,response,,,,99,,,,,,,Space,keypress(Space),,,,,,,,---- it ----- -- ------ - ------- --- ----------<br>------------- ------ ------ ---- ---- ------- ----- -- ----<br>-------- ------- -- ---------- --- - --- ----- ----- ----<br>---- --- --- ----- --- ---- ---- ------- ----- ---- -------<br>--- --- -- ----- -- --- ---- -- --- ---- -- ------ ------<br>--- ----- -- ----,116116.79999995232,116116.39999997616,115756.17,115760.10000002384,115772.89,116122.884,,1,it
screen,html.Screen,2_1_0_1_2,2022-04-28T09:53:21.688Z,,,,,,,,,,,,,,,,,53,,,,,,,,,,,,,,281.51599997615267,,response,,,,99,,,,,,,Space,keypress(Space),,,,,,,,---- -- comes -- ------ - ------- --- ----------<br>------------- ------ ------ ---- ---- ------- ----- -- ----<br>-------- ------- -- ---------- --- - --- ----- ----- ----<br>---- --- --- ----- --- ---- ---- ------- ----- ---- -------<br>--- --- -- ----- -- --- ---- -- --- ---- -- ------ ------<br>--- ----- -- ----,116404.70000004768,116404.39999997616,116106.206,116116.79999995232,116122.884,116406.224,,2,comes
screen,html.Screen,2_1_0_1_3,2022-04-28T09:53:22.040Z,,,,,,,,,,,,,,,,,53,,,,,,,,,,,,,,350.17599997615616,,response,,,,99,,,,,,,Space,keypress(Space),,,,,,,,---- -- ----- to ------ - ------- --- ----------<br>------------- ------ ------ ---- ---- ------- ----- -- ----<br>-------- ------- -- ---------- --- - --- ----- ----- ----<br>---- --- --- ----- --- ---- ---- ------- ----- ---- -------<br>--- --- -- ----- -- --- ---- -- --- ---- -- ------ ------<br>--- ----- -- ----,116756.79999995232,116756.39999997616,116389.547,116404.89999997616,116406.224,116772.89,,3,to
screen,html.Screen,2_1_0_1_4,2022-04-28T09:53:22.320Z,,,,,,,,,,,,,,,,,53,,,,,,,,,,,,,,263.5099999761587,,response,,,,99,,,,,,,Space,keypress(Space),,,,,,,,---- -- ----- -- having - ------- --- ----------<br>------------- ------ ------ ---- ---- ------- ----- -- ----<br>-------- ------- -- ---------- --- - --- ----- ----- ----<br>---- --- --- ----- --- ---- ---- ------- ----- ---- -------<br>--- --- -- ----- -- --- ---- -- --- ---- -- ------ ------<br>--- ----- -- ----,117036.79999995232,117036.39999997616,116756.224,116756.79999995232,116772.89,117039.564,,4,having
screen,html.Screen,2_1_0_1_5,2022-04-28T09:53:22.640Z,,,,,,,,,,,,,,,,,53,,,,,,,,,,,,,,316.83599997615966,,response,,,,99,,,,,,,Space,keypress(Space),,,,,,,,---- -- ----- -- ------ a ------- --- ----------<br>------------- ------ ------ ---- ---- ------- ----- -- ----<br>-------- ------- -- ---------- --- - --- ----- ----- ----<br>---- --- --- ----- --- ---- ---- ------- ----- ---- -------<br>--- --- -- ----- -- --- ---- -- --- ---- -- ------ ------<br>--- ----- -- ----,117356.70000004768,117356.39999997616,117022.881,117036.79999995232,117039.564,117372.895,,5,a
screen,html.Screen,2_1_0_1_6,2022-04-28T09:53:22.896Z,,,,,,,,,,,,,,,,,53,,,,,,,,,,,,,,239.50499997615407,,response,,,,99,,,,,,,Space,keypress(Space),,,,,,,,---- -- ----- -- ------ - lasting --- ----------<br>------------- ------ ------ ---- ---- ------- ----- -- ----<br>-------- ------- -- ---------- --- - --- ----- ----- ----<br>---- --- --- ----- --- ---- ---- ------- ----- ---- -------<br>--- --- -- ----- -- --- ---- -- --- ---- -- ------ ------<br>--- ----- -- ----,117612.79999995232,117612.39999997616,117356.222,117356.79999995232,117372.895,117622.896,,6,lasting
screen,html.Screen,2_1_0_1_7,2022-04-28T09:53:23.272Z,,,,,,,,,,,,,,,,,53,,,,,,,,,,,,,,365.5039999761648,,response,,,,99,,,,,,,Space,keypress(Space),,,,,,,,---- -- ----- -- ------ - ------- and ----------<br>------------- ------ ------ ---- ---- ------- ----- -- ----<br>-------- ------- -- ---------- --- - --- ----- ----- ----<br>---- --- --- ----- --- ---- ---- ------- ----- ---- -------<br>--- --- -- ----- -- --- ---- -- --- ---- -- ------ ------<br>--- ----- -- ----,117988.79999995232,117988.39999997616,117606.217,117612.89999997616,117622.896,118007.012,,7,and
screen,html.Screen,2_1_0_1_8,2022-04-28T09:53:23.600Z,,,,,,,,,,,,,,,,,53,,,,,,,,,,,,,,309.3879999761557,,response,,,,99,,,,,,,Space,keypress(Space),,,,,,,,---- -- ----- -- ------ - ------- --- fulfilling<br>------------- ------ ------ ---- ---- ------- ----- -- ----<br>-------- ------- -- ---------- --- - --- ----- ----- ----<br>---- --- --- ----- --- ---- ---- ------- ----- ---- -------<br>--- --- -- ----- -- --- ---- -- --- ---- -- ------ ------<br>--- ----- -- ----,118316.79999995232,118316.39999997616,117972.883,117988.79999995232,118007.012,118322.892,,8,fulfilling
screen,html.Screen,2_1_0_1_9,2022-04-28T09:53:23.832Z,,,,,,,,,,,,,,,,,53,,,,,,,,,,,,,,225.70800002383476,,response,,,,99,,,,,,,Space,keypress(Space),,,,,,,,"---- -- ----- -- ------ - ------- --- ----------<br>relationship, ------ ------ ---- ---- ------- ----- -- ----<br>-------- ------- -- ---------- --- - --- ----- ----- ----<br>---- --- --- ----- --- ---- ---- ------- ----- ---- -------<br>--- --- -- ----- -- --- ---- -- --- ---- -- ------ ------<br>--- ----- -- ----",118549,118548.60000002384,118306.227,118316.79999995232,118322.892,118556.233,,9,"relationship,"
screen,html.Screen,2_1_0_1_10,2022-04-28T09:53:24.216Z,,,,,,,,,,,,,,,,,53,,,,,,,,,,,,,,376.16699997616524,,response,,,,99,,,,,,,Space,keypress(Space),,,,,,,,---- -- ----- -- ------ - ------- --- ----------<br>------------- common ------ ---- ---- ------- ----- -- ----<br>-------- ------- -- ---------- --- - --- ----- ----- ----<br>---- --- --- ----- --- ---- ---- ------- ----- ---- -------<br>--- --- -- ----- -- --- ---- -- --- ---- -- ------ ------<br>--- ----- -- ----,118932.70000004768,118932.39999997616,118539.549,118549,118556.233,118939.558,,10,common
screen,html.Screen,2_1_0_1_11,2022-04-28T09:53:24.560Z,,,,,,,,,,,,,,,,,53,,,,,,,,,,,,,,336.94199999999546,,response,,,,99,,,,,,,Space,keypress(Space),,,,,,,,---- -- ----- -- ------ - ------- --- ----------<br>------------- ------ wisdom ---- ---- ------- ----- -- ----<br>-------- ------- -- ---------- --- - --- ----- ----- ----<br>---- --- --- ----- --- ---- ---- ------- ----- ---- -------<br>--- --- -- ----- -- --- ---- -- --- ---- -- ------ ------<br>--- ----- -- ----,119276.79999995232,119276.5,118922.88,118932.79999995232,118939.558,119289.568,,11,wisdom
screen,html.Screen,2_1_0_1_12,2022-04-28T09:53:24.864Z,,,,,,,,,,,,,,,,,53,,,,,,,,,,,,,,290.83199997615884,,response,,,,99,,,,,,,Space,keypress(Space),,,,,,,,---- -- ----- -- ------ - ------- --- ----------<br>------------- ------ ------ says ---- ------- ----- -- ----<br>-------- ------- -- ---------- --- - --- ----- ----- ----<br>---- --- --- ----- --- ---- ---- ------- ----- ---- -------<br>--- --- -- ----- -- --- ---- -- --- ---- -- ------ ------<br>--- ----- -- ----,119580.79999995232,119580.39999997616,119272.888,119277,119289.568,119589.565,,12,says
screen,html.Screen,2_1_0_1_13,2022-04-28T09:53:25.072Z,,,,,,,,,,,,,,,,,53,,,,,,,,,,,,,,198.73499995231396,,response,,,,99,,,,,,,Space,keypress(Space),,,,,,,,---- -- ----- -- ------ - ------- --- ----------<br>------------- ------ ------ ---- that ------- ----- -- ----<br>-------- ------- -- ---------- --- - --- ----- ----- ----<br>---- --- --- ----- --- ---- ---- ------- ----- ---- -------<br>--- --- -- ----- -- --- ---- -- --- ---- -- ------ ------<br>--- ----- -- ----,119788.79999995232,119788.29999995232,119572.885,119580.89999997616,119589.565,119809.226,,13,that
screen,html.Screen,2_1_0_1_14,2022-04-28T09:53:25.416Z,,,,,,,,,,,,,,,,,53,,,,,,,,,,,,,,323.17399997616303,,response,,,,99,,,,,,,Space,keypress(Space),,,,,,,,---- -- ----- -- ------ - ------- --- ----------<br>------------- ------ ------ ---- ---- feeling ----- -- ----<br>-------- ------- -- ---------- --- - --- ----- ----- ----<br>---- --- --- ----- --- ---- ---- ------- ----- ---- -------<br>--- --- -- ----- -- --- ---- -- --- ---- -- ------ ------<br>--- ----- -- ----,120132.70000004768,120132.39999997616,119772.893,119788.89999997616,119809.226,120139.56,,14,feeling
screen,html.Screen,2_1_0_1_15,2022-04-28T09:53:25.680Z,,,,,,,,,,,,,,,,,53,,,,,,,,,,,,,,256.83999997616047,,response,,,,99,,,,,,,Space,keypress(Space),,,,,,,,---- -- ----- -- ------ - ------- --- ----------<br>------------- ------ ------ ---- ---- ------- close -- ----<br>-------- ------- -- ---------- --- - --- ----- ----- ----<br>---- --- --- ----- --- ---- ---- ------- ----- ---- -------<br>--- --- -- ----- -- --- ---- -- --- ---- -- ------ ------<br>--- ----- -- ----,120396.79999995232,120396.39999997616,120122.89,120132.79999995232,120139.56,120406.241,,15,close
screen,html.Screen,2_1_0_1_16,2022-04-28T09:53:25.896Z,,,,,,,,,,,,,,,,,53,,,,,,,,,,,,,,206.1589999761636,,response,,,,99,,,,,,,Space,keypress(Space),,,,,,,,---- -- ----- -- ------ - ------- --- ----------<br>------------- ------ ------ ---- ---- ------- ----- to ----<br>-------- ------- -- ---------- --- - --- ----- ----- ----<br>---- --- --- ----- --- ---- ---- ------- ----- ---- -------<br>--- --- -- ----- -- --- ---- -- --- ---- -- ------ ------<br>--- ----- -- ----,120612.70000004768,120612.39999997616,120389.554,120396.89999997616,120406.241,120622.899,,16,to
screen,html.Screen,2_1_0_1_17,2022-04-28T09:53:26.216Z,,,,,,,,,,,,,,,,,53,,,,,,,,,,,,,,309.50099997615325,,response,,,,99,,,,,,,Space,keypress(Space),,,,,,,,---- -- ----- -- ------ - ------- --- ----------<br>------------- ------ ------ ---- ---- ------- ----- -- your<br>-------- ------- -- ---------- --- - --- ----- ----- ----<br>---- --- --- ----- --- ---- ---- ------- ----- ---- -------<br>--- --- -- ----- -- --- ---- -- --- ---- -- ------ ------<br>--- ----- -- ----,120932.79999995232,120932.39999997616,120606.216,120612.79999995232,120622.899,120939.567,,17,your
screen,html.Screen,2_1_0_1_18,2022-04-28T09:53:26.400Z,,,,,,,,,,,,,,,,,53,,,,,,,,,,,,,,176.83299997616268,,response,,,,99,,,,,,,Space,keypress(Space),,,,,,,,---- -- ----- -- ------ - ------- --- ----------<br>------------- ------ ------ ---- ---- ------- ----- -- ----<br>romantic ------- -- ---------- --- - --- ----- ----- ----<br>---- --- --- ----- --- ---- ---- ------- ----- ---- -------<br>--- --- -- ----- -- --- ---- -- --- ---- -- ------ ------<br>--- ----- -- ----,121116.79999995232,121116.39999997616,120922.887,120932.89999997616,120939.567,121122.898,,18,romantic
screen,html.Screen,2_1_0_1_19,2022-04-28T09:53:26.752Z,,,,,,,,,,,,,,,,,53,,,,,,,,,,,,,,345.5019999761571,,response,,,,99,,,,,,,Space,keypress(Space),,,,,,,,---- -- ----- -- ------ - ------- --- ----------<br>------------- ------ ------ ---- ---- ------- ----- -- ----<br>-------- partner -- ---------- --- - --- ----- ----- ----<br>---- --- --- ----- --- ---- ---- ------- ----- ---- -------<br>--- --- -- ----- -- --- ---- -- --- ---- -- ------ ------<br>--- ----- -- ----,121468.89999997616,121468.39999997616,121106.239,121116.89999997616,121122.898,121472.904,,19,partner
screen,html.Screen,2_1_0_1_20,2022-04-28T09:53:26.936Z,,,,,,,,,,,,,,,,,53,,,,,,,,,,,,,,179.49599997616315,,response,,,,99,,,,,,,Space,keypress(Space),,,,,,,,---- -- ----- -- ------ - ------- --- ----------<br>------------- ------ ------ ---- ---- ------- ----- -- ----<br>-------- ------- is ---------- --- - --- ----- ----- ----<br>---- --- --- ----- --- ---- ---- ------- ----- ---- -------<br>--- --- -- ----- -- --- ---- -- --- ---- -- ------ ------<br>--- ----- -- ----,121652.70000004768,121652.39999997616,121456.221,121469,121472.904,121656.235,,20,is
screen,html.Screen,2_1_0_1_21,2022-04-28T09:53:27.112Z,,,,,,,,,,,,,,,,,53,,,,,,,,,,,,,,172.0649999523157,,response,,,,99,,,,,,,Space,keypress(Space),,,,,,,,---- -- ----- -- ------ - ------- --- ----------<br>------------- ------ ------ ---- ---- ------- ----- -- ----<br>-------- ------- -- paramount. --- - --- ----- ----- ----<br>---- --- --- ----- --- ---- ---- ------- ----- ---- -------<br>--- --- -- ----- -- --- ---- -- --- ---- -- ------ ------<br>--- ----- -- ----,121828.70000004768,121828.29999995232,121639.59,121652.79999995232,121656.235,121839.575,,21,paramount.
screen,html.Screen,2_1_0_1_22,2022-04-28T09:53:27.520Z,,,,,,,,,,,,,,,,,53,,,,,,,,,,,,,,396.82499997616105,,response,,,,99,,,,,,,Space,keypress(Space),,,,,,,,---- -- ----- -- ------ - ------- --- ----------<br>------------- ------ ------ ---- ---- ------- ----- -- ----<br>-------- ------- -- ---------- But - --- ----- ----- ----<br>---- --- --- ----- --- ---- ---- ------- ----- ---- -------<br>--- --- -- ----- -- --- ---- -- --- ---- -- ------ ------<br>--- ----- -- ----,122236.70000004768,122236.39999997616,121822.911,121828.70000004768,121839.575,122239.595,,22,But
screen,html.Screen,2_1_0_1_23,2022-04-28T09:53:27.800Z,,,,,,,,,,,,,,,,,53,,,,,,,,,,,,,,276.804999976157,,response,,,,99,,,,,,,Space,keypress(Space),,,,,,,,---- -- ----- -- ------ - ------- --- ----------<br>------------- ------ ------ ---- ---- ------- ----- -- ----<br>-------- ------- -- ---------- --- a --- ----- ----- ----<br>---- --- --- ----- --- ---- ---- ------- ----- ---- -------<br>--- --- -- ----- -- --- ---- -- --- ---- -- ------ ------<br>--- ----- -- ----,122516.79999995232,122516.39999997616,122222.889,122236.79999995232,122239.595,122522.898,,23,a
screen,html.Screen,2_1_0_1_24,2022-04-28T09:53:27.984Z,,,,,,,,,,,,,,,,,53,,,,,,,,,,,,,,177.5019999761571,,response,,,,99,,,,,,,Space,keypress(Space),,,,,,,,---- -- ----- -- ------ - ------- --- ----------<br>------------- ------ ------ ---- ---- ------- ----- -- ----<br>-------- ------- -- ---------- --- - new ----- ----- ----<br>---- --- --- ----- --- ---- ---- ------- ----- ---- -------<br>--- --- -- ----- -- --- ---- -- --- ---- -- ------ ------<br>--- ----- -- ----,122700.70000004768,122700.39999997616,122506.248,122516.89999997616,122522.898,122706.255,,24,new
screen,html.Screen,2_1_0_1_25,2022-04-28T09:53:28.176Z,,,,,,,,,,,,,,,,,53,,,,,,,,,,,,,,186.04499995231163,,response,,,,99,,,,,,,Space,keypress(Space),,,,,,,,---- -- ----- -- ------ - ------- --- ----------<br>------------- ------ ------ ---- ---- ------- ----- -- ----<br>-------- ------- -- ---------- --- - --- study ----- ----<br>---- --- --- ----- --- ---- ---- ------- ----- ---- -------<br>--- --- -- ----- -- --- ---- -- --- ---- -- ------ ------<br>--- ----- -- ----,122892.60000002384,122892.29999995232,122689.565,122700.79999995232,122706.255,122906.238,,25,study
screen,html.Screen,2_1_0_1_26,2022-04-28T09:53:28.512Z,,,,,,,,,,,,,,,,,53,,,,,,,,,,,,,,322.1619999761606,,response,,,,99,,,,,,,Space,keypress(Space),,,,,,,,---- -- ----- -- ------ - ------- --- ----------<br>------------- ------ ------ ---- ---- ------- ----- -- ----<br>-------- ------- -- ---------- --- - --- ----- finds ----<br>---- --- --- ----- --- ---- ---- ------- ----- ---- -------<br>--- --- -- ----- -- --- ---- -- --- ---- -- ------ ------<br>--- ----- -- ----,123228.89999997616,123228.39999997616,122889.563,122892.70000004768,122906.238,123239.568,,26,finds
screen,html.Screen,2_1_0_1_27,2022-04-28T09:53:28.688Z,,,,,,,,,,,,,,,,,53,,,,,,,,,,,,,,164.83199997615884,,response,,,,99,,,,,,,Space,keypress(Space),,,,,,,,---- -- ----- -- ------ - ------- --- ----------<br>------------- ------ ------ ---- ---- ------- ----- -- ----<br>-------- ------- -- ---------- --- - --- ----- ----- that<br>---- --- --- ----- --- ---- ---- ------- ----- ---- -------<br>--- --- -- ----- -- --- ---- -- --- ---- -- ------ ------<br>--- ----- -- ----,123404.70000004768,123404.39999997616,123222.895,123228.89999997616,123239.568,123406.242,,27,that
screen,html.Screen,2_1_0_1_28,2022-04-28T09:53:28.984Z,,,,,,,,,,,,,,,,,53,,,,,,,,,,,,,,294.1579999761598,,response,,,,99,,,,,,,Space,keypress(Space),,,,,,,,---- -- ----- -- ------ - ------- --- ----------<br>------------- ------ ------ ---- ---- ------- ----- -- ----<br>-------- ------- -- ---------- --- - --- ----- ----- ----<br>it's --- --- ----- --- ---- ---- ------- ----- ---- -------<br>--- --- -- ----- -- --- ---- -- --- ---- -- ------ ------<br>--- ----- -- ----,123700.70000004768,123700.39999997616,123389.561,123404.79999995232,123406.242,123706.239,,28,it's
screen,html.Screen,2_1_0_1_29,2022-04-28T09:53:29.240Z,,,,,,,,,,,,,,,,,53,,,,,,,,,,,,,,250.16099997615675,,response,,,,99,,,,,,,Space,keypress(Space),,,,,,,,---- -- ----- -- ------ - ------- --- ----------<br>------------- ------ ------ ---- ---- ------- ----- -- ----<br>-------- ------- -- ---------- --- - --- ----- ----- ----<br>---- not --- ----- --- ---- ---- ------- ----- ---- -------<br>--- --- -- ----- -- --- ---- -- --- ---- -- ------ ------<br>--- ----- -- ----,123956.79999995232,123956.39999997616,123689.572,123700.89999997616,123706.239,123972.912,,29,not
screen,html.Screen,2_1_0_1_30,2022-04-28T09:53:29.528Z,,,,,,,,,,,,,,,,,53,,,,,,,,,,,,,,271.38799995231966,,response,,,,99,,,,,,,Space,keypress(Space),,,,,,,,---- -- ----- -- ------ - ------- --- ----------<br>------------- ------ ------ ---- ---- ------- ----- -- ----<br>-------- ------- -- ---------- --- - --- ----- ----- ----<br>---- --- how ----- --- ---- ---- ------- ----- ---- -------<br>--- --- -- ----- -- --- ---- -- --- ---- -- ------ ------<br>--- ----- -- ----,124244.70000004768,124244.29999995232,123956.229,123956.79999995232,123972.912,124256.236,,30,how
screen,html.Screen,2_1_0_1_31,2022-04-28T09:53:29.776Z,,,,,,,,,,,,,,,,,53,,,,,,,,,,,,,,236.06399995231186,,response,,,,99,,,,,,,Space,keypress(Space),,,,,,,,---- -- ----- -- ------ - ------- --- ----------<br>------------- ------ ------ ---- ---- ------- ----- -- ----<br>-------- ------- -- ---------- --- - --- ----- ----- ----<br>---- --- --- close --- ---- ---- ------- ----- ---- -------<br>--- --- -- ----- -- --- ---- -- --- ---- -- ------ ------<br>--- ----- -- ----,124492.60000002384,124492.29999995232,124239.566,124244.70000004768,124256.236,124506.235,,31,close
screen,html.Screen,2_1_0_1_32,2022-04-28T09:53:30.184Z,,,,,,,,,,,,,,,,,53,,,,,,,,,,,,,,394.2649999999994,,response,,,,99,,,,,,,Space,keypress(Space),,,,,,,,---- -- ----- -- ------ - ------- --- ----------<br>------------- ------ ------ ---- ---- ------- ----- -- ----<br>-------- ------- -- ---------- --- - --- ----- ----- ----<br>---- --- --- ----- you ---- ---- ------- ----- ---- -------<br>--- --- -- ----- -- --- ---- -- --- ---- -- ------ ------<br>--- ----- -- ----,124900.79999995232,124900.5,124489.561,124492.60000002384,124506.235,124906.245,,32,you
screen,html.Screen,2_1_0_1_33,2022-04-28T09:53:30.352Z,,,,,,,,,,,,,,,,,53,,,,,,,,,,,,,,162.1549999761628,,response,,,,99,,,,,,,Space,keypress(Space),,,,,,,,---- -- ----- -- ------ - ------- --- ----------<br>------------- ------ ------ ---- ---- ------- ----- -- ----<br>-------- ------- -- ---------- --- - --- ----- ----- ----<br>---- --- --- ----- --- feel ---- ------- ----- ---- -------<br>--- --- -- ----- -- --- ---- -- --- ---- -- ------ ------<br>--- ----- -- ----,125068.70000004768,125068.39999997616,124889.564,124900.89999997616,124906.245,125072.904,,33,feel
screen,html.Screen,2_1_0_1_34,2022-04-28T09:53:30.560Z,,,,,,,,,,,,,,,,,53,,,,,,,,,,,,,,203.49599997616315,,response,,,,99,,,,,,,Space,keypress(Space),,,,,,,,---- -- ----- -- ------ - ------- --- ----------<br>------------- ------ ------ ---- ---- ------- ----- -- ----<br>-------- ------- -- ---------- --- - --- ----- ----- ----<br>---- --- --- ----- --- ---- that ------- ----- ---- -------<br>--- --- -- ----- -- --- ---- -- --- ---- -- ------ ------<br>--- ----- -- ----,125276.70000004768,125276.39999997616,125056.243,125068.79999995232,125072.904,125289.58,,34,that
screen,html.Screen,2_1_0_1_35,2022-04-28T09:53:30.872Z,,,,,,,,,,,,,,,,,53,,,,,,,,,,,,,,298.71999995231454,,response,,,,99,,,,,,,Space,keypress(Space),,,,,,,,---- -- ----- -- ------ - ------- --- ----------<br>------------- ------ ------ ---- ---- ------- ----- -- ----<br>-------- ------- -- ---------- --- - --- ----- ----- ----<br>---- --- --- ----- --- ---- ---- matters ----- ---- -------<br>--- --- -- ----- -- --- ---- -- --- ---- -- ------ ------<br>--- ----- -- ----,125588.70000004768,125588.29999995232,125272.911,125276.79999995232,125289.58,125621.018,,35,matters
screen,html.Screen,2_1_0_1_36,2022-04-28T09:53:31.048Z,,,,,,,,,,,,,,,,,53,,,,,,,,,,,,,,143.38199997616175,,response,,,,99,,,,,,,Space,keypress(Space),,,,,,,,"---- -- ----- -- ------ - ------- --- ----------<br>------------- ------ ------ ---- ---- ------- ----- -- ----<br>-------- ------- -- ---------- --- - --- ----- ----- ----<br>---- --- --- ----- --- ---- ---- ------- most, ---- -------<br>--- --- -- ----- -- --- ---- -- --- ---- -- ------ ------<br>--- ----- -- ----",125764.70000004768,125764.39999997616,125572.903,125588.79999995232,125621.018,125772.917,,36,"most,"
screen,html.Screen,2_1_0_1_37,2022-04-28T09:53:31.314Z,,,,,,,,,,,,,,,,,53,,,,,,,,,,,,,,257.48299997615686,,response,,,,99,,,,,,,Space,keypress(Space),,,,,,,,---- -- ----- -- ------ - ------- --- ----------<br>------------- ------ ------ ---- ---- ------- ----- -- ----<br>-------- ------- -- ---------- --- - --- ----- ----- ----<br>---- --- --- ----- --- ---- ---- ------- ----- it's -------<br>--- --- -- ----- -- --- ---- -- --- ---- -- ------ ------<br>--- ----- -- ----,126030.70000004768,126030.39999997616,125756.251,125764.70000004768,125772.917,126039.578,,37,it's
screen,html.Screen,2_1_0_1_38,2022-04-28T09:53:31.632Z,,,,,,,,,,,,,,,,,53,,,,,,,,,,,,,,308.7219999523222,,response,,,,99,,,,,,,Space,keypress(Space),,,,,,,,---- -- ----- -- ------ - ------- --- ----------<br>------------- ------ ------ ---- ---- ------- ----- -- ----<br>-------- ------- -- ---------- --- - --- ----- ----- ----<br>---- --- --- ----- --- ---- ---- ------- ----- ---- whether<br>--- --- -- ----- -- --- ---- -- --- ---- -- ------ ------<br>--- ----- -- ----,126348.70000004768,126348.29999995232,126022.9,126030.79999995232,126039.578,126356.249,,38,whether
screen,html.Screen,2_1_0_1_39,2022-04-28T09:53:31.840Z,,,,,,,,,,,,,,,,,53,,,,,,,,,,,,,,200.15099997616198,,response,,,,99,,,,,,,Space,keypress(Space),,,,,,,,---- -- ----- -- ------ - ------- --- ----------<br>------------- ------ ------ ---- ---- ------- ----- -- ----<br>-------- ------- -- ---------- --- - --- ----- ----- ----<br>---- --- --- ----- --- ---- ---- ------- ----- ---- -------<br>you --- -- ----- -- --- ---- -- --- ---- -- ------ ------<br>--- ----- -- ----,126556.79999995232,126556.39999997616,126339.565,126348.79999995232,126356.249,126572.913,,39,you
screen,html.Screen,2_1_0_1_40,2022-04-28T09:53:32.008Z,,,,,,,,,,,,,,,,,53,,,,,,,,,,,,,,151.58699999999953,,response,,,,99,,,,,,,Space,keypress(Space),,,,,,,,---- -- ----- -- ------ - ------- --- ----------<br>------------- ------ ------ ---- ---- ------- ----- -- ----<br>-------- ------- -- ---------- --- - --- ----- ----- ----<br>---- --- --- ----- --- ---- ---- ------- ----- ---- -------<br>--- are -- ----- -- --- ---- -- --- ---- -- ------ ------<br>--- ----- -- ----,126724.89999997616,126724.5,126556.239,126556.89999997616,126572.913,126739.575,,40,are
screen,html.Screen,2_1_0_1_41,2022-04-28T09:53:32.272Z,,,,,,,,,,,,,,,,,53,,,,,,,,,,,,,,248.7249999523192,,response,,,,99,,,,,,,Space,keypress(Space),,,,,,,,---- -- ----- -- ------ - ------- --- ----------<br>------------- ------ ------ ---- ---- ------- ----- -- ----<br>-------- ------- -- ---------- --- - --- ----- ----- ----<br>---- --- --- ----- --- ---- ---- ------- ----- ---- -------<br>--- --- as ----- -- --- ---- -- --- ---- -- ------ ------<br>--- ----- -- ----,126988.70000004768,126988.29999995232,126722.905,126724.89999997616,126739.575,127012.27,,41,as
screen,html.Screen,2_1_0_1_42,2022-04-28T09:53:32.448Z,,,,,,,,,,,,,,,,,53,,,,,,,,,,,,,,152.0299999523122,,response,,,,99,,,,,,,Space,keypress(Space),,,,,,,,---- -- ----- -- ------ - ------- --- ----------<br>------------- ------ ------ ---- ---- ------- ----- -- ----<br>-------- ------- -- ---------- --- - --- ----- ----- ----<br>---- --- --- ----- --- ---- ---- ------- ----- ---- -------<br>--- --- -- close -- --- ---- -- --- ---- -- ------ ------<br>--- ----- -- ----,127164.79999995232,127164.29999995232,126972.91,126988.79999995232,127012.27,127172.919,,42,close
screen,html.Screen,2_1_0_1_43,2022-04-28T09:53:32.624Z,,,,,,,,,,,,,,,,,53,,,,,,,,,,,,,,167.38099995232187,,response,,,,99,,,,,,,Space,keypress(Space),,,,,,,,---- -- ----- -- ------ - ------- --- ----------<br>------------- ------ ------ ---- ---- ------- ----- -- ----<br>-------- ------- -- ---------- --- - --- ----- ----- ----<br>---- --- --- ----- --- ---- ---- ------- ----- ---- -------<br>--- --- -- ----- as --- ---- -- --- ---- -- ------ ------<br>--- ----- -- ----,127340.70000004768,127340.29999995232,127156.252,127164.79999995232,127172.919,127356.248,,43,as
screen,html.Screen,2_1_0_1_44,2022-04-28T09:53:32.872Z,,,,,,,,,,,,,,,,,53,,,,,,,,,,,,,,232.15199997615127,,response,,,,99,,,,,,,Space,keypress(Space),,,,,,,,---- -- ----- -- ------ - ------- --- ----------<br>------------- ------ ------ ---- ---- ------- ----- -- ----<br>-------- ------- -- ---------- --- - --- ----- ----- ----<br>---- --- --- ----- --- ---- ---- ------- ----- ---- -------<br>--- --- -- ----- -- you ---- -- --- ---- -- ------ ------<br>--- ----- -- ----,127588.79999995232,127588.39999997616,127339.583,127340.70000004768,127356.248,127618.826,,44,you
screen,html.Screen,2_1_0_1_45,2022-04-28T09:53:33.232Z,,,,,,,,,,,,,,,,,53,,,,,,,,,,,,,,329.5739999761572,,response,,,,99,,,,,,,Space,keypress(Space),,,,,,,,---- -- ----- -- ------ - ------- --- ----------<br>------------- ------ ------ ---- ---- ------- ----- -- ----<br>-------- ------- -- ---------- --- - --- ----- ----- ----<br>---- --- --- ----- --- ---- ---- ------- ----- ---- -------<br>--- --- -- ----- -- --- want -- --- ---- -- ------ ------<br>--- ----- -- ----,127948.70000004768,127948.39999997616,127572.911,127588.79999995232,127618.826,127956.244,,45,want
screen,html.Screen,2_1_0_1_46,2022-04-28T09:53:33.432Z,,,,,,,,,,,,,,,,,53,,,,,,,,,,,,,,192.05599995231023,,response,,,,99,,,,,,,Space,keypress(Space),,,,,,,,---- -- ----- -- ------ - ------- --- ----------<br>------------- ------ ------ ---- ---- ------- ----- -- ----<br>-------- ------- -- ---------- --- - --- ----- ----- ----<br>---- --- --- ----- --- ---- ---- ------- ----- ---- -------<br>--- --- -- ----- -- --- ---- to --- ---- -- ------ ------<br>--- ----- -- ----,128148.60000002384,128148.29999995232,127939.593,127948.79999995232,127956.244,128156.246,,46,to
screen,html.Screen,2_1_0_1_47,2022-04-28T09:53:33.616Z,,,,,,,,,,,,,,,,,53,,,,,,,,,,,,,,176.0539999523171,,response,,,,99,,,,,,,Space,keypress(Space),,,,,,,,"---- -- ----- -- ------ - ------- --- ----------<br>------------- ------ ------ ---- ---- ------- ----- -- ----<br>-------- ------- -- ---------- --- - --- ----- ----- ----<br>---- --- --- ----- --- ---- ---- ------- ----- ---- -------<br>--- --- -- ----- -- --- ---- -- be, ---- -- ------ ------<br>--- ----- -- ----",128332.70000004768,128332.29999995232,128139.575,128148.79999995232,128156.246,128339.578,,47,"be,"
screen,html.Screen,2_1_0_1_48,2022-04-28T09:53:33.920Z,,,,,,,,,,,,,,,,,53,,,,,,,,,,,,,,296.8219999761641,,response,,,,99,,,,,,,Space,keypress(Space),,,,,,,,---- -- ----- -- ------ - ------- --- ----------<br>------------- ------ ------ ---- ---- ------- ----- -- ----<br>-------- ------- -- ---------- --- - --- ----- ----- ----<br>---- --- --- ----- --- ---- ---- ------- ----- ---- -------<br>--- --- -- ----- -- --- ---- -- --- even -- ------ ------<br>--- ----- -- ----,128636.79999995232,128636.39999997616,128322.915,128332.79999995232,128339.578,128639.591,,48,even
screen,html.Screen,2_1_0_1_49,2022-04-28T09:53:34.072Z,,,,,,,,,,,,,,,,,53,,,,,,,,,,,,,,148.8089999761578,,response,,,,99,,,,,,,Space,keypress(Space),,,,,,,,---- -- ----- -- ------ - ------- --- ----------<br>------------- ------ ------ ---- ---- ------- ----- -- ----<br>-------- ------- -- ---------- --- - --- ----- ----- ----<br>---- --- --- ----- --- ---- ---- ------- ----- ---- -------<br>--- --- -- ----- -- --- ---- -- --- ---- if ------ ------<br>--- ----- -- ----,128788.70000004768,128788.39999997616,128622.905,128636.89999997616,128639.591,128820.928,,49,if
screen,html.Screen,2_1_0_1_50,2022-04-28T09:53:34.248Z,,,,,,,,,,,,,,,,,53,,,,,,,,,,,,,,143.47199997615826,,response,,,,99,,,,,,,Space,keypress(Space),,,,,,,,---- -- ----- -- ------ - ------- --- ----------<br>------------- ------ ------ ---- ---- ------- ----- -- ----<br>-------- ------- -- ---------- --- - --- ----- ----- ----<br>---- --- --- ----- --- ---- ---- ------- ----- ---- -------<br>--- --- -- ----- -- --- ---- -- --- ---- -- that's ------<br>--- ----- -- ----,128964.70000004768,128964.39999997616,128772.925,128788.79999995232,128820.928,128972.917,,50,that's
screen,html.Screen,2_1_0_1_51,2022-04-28T09:53:34.608Z,,,,,,,,,,,,,,,,,53,,,,,,,,,,,,,,351.382999952315,,response,,,,99,,,,,,,Space,keypress(Space),,,,,,,,---- -- ----- -- ------ - ------- --- ----------<br>------------- ------ ------ ---- ---- ------- ----- -- ----<br>-------- ------- -- ---------- --- - --- ----- ----- ----<br>---- --- --- ----- --- ---- ---- ------- ----- ---- -------<br>--- --- -- ----- -- --- ---- -- --- ---- -- ------ really<br>--- ----- -- ----,129324.70000004768,129324.29999995232,128956.259,128964.79999995232,128972.917,129339.588,,51,really
screen,html.Screen,2_1_0_1_52,2022-04-28T09:53:34.880Z,,,,,,,,,,,,,,,,,53,,,,,,,,,,,,,,256.81199997615477,,response,,,,99,,,,,,,Space,keypress(Space),,,,,,,,---- -- ----- -- ------ - ------- --- ----------<br>------------- ------ ------ ---- ---- ------- ----- -- ----<br>-------- ------- -- ---------- --- - --- ----- ----- ----<br>---- --- --- ----- --- ---- ---- ------- ----- ---- -------<br>--- --- -- ----- -- --- ---- -- --- ---- -- ------ ------<br>not ----- -- ----,129596.70000004768,129596.39999997616,129322.903,129324.70000004768,129339.588,129606.262,,52,not
screen,html.Screen,2_1_0_1_53,2022-04-28T09:53:35.168Z,,,,,,,,,,,,,,,,,53,,,,,,,,,,,,,,278.03799995231384,,response,,,,99,,,,,,,Space,keypress(Space),,,,,,,,---- -- ----- -- ------ - ------- --- ----------<br>------------- ------ ------ ---- ---- ------- ----- -- ----<br>-------- ------- -- ---------- --- - --- ----- ----- ----<br>---- --- --- ----- --- ---- ---- ------- ----- ---- -------<br>--- --- -- ----- -- --- ---- -- --- ---- -- ------ ------<br>--- close -- ----,129884.79999995232,129884.29999995232,129589.578,129596.79999995232,129606.262,129889.587,,53,close
screen,html.Screen,2_1_0_1_54,2022-04-28T09:53:35.488Z,,,,,,,,,,,,,,,,,53,,,,,,,,,,,,,,314.91300000000047,,response,,,,99,,,,,,,Space,keypress(Space),,,,,,,,---- -- ----- -- ------ - ------- --- ----------<br>------------- ------ ------ ---- ---- ------- ----- -- ----<br>-------- ------- -- ---------- --- - --- ----- ----- ----<br>---- --- --- ----- --- ---- ---- ------- ----- ---- -------<br>--- --- -- ----- -- --- ---- -- --- ---- -- ------ ------<br>--- ----- at ----,130205,130204.5,129872.911,129884.79999995232,129889.587,130235.799,,54,at
screen,html.Screen,2_1_0_1_55,2022-04-28T09:53:35.904Z,,,,,,,,,,,,,,,,,53,,,,,,,,,,,,,,384.70100000000093,,response,,,,99,,,,,,,Space,keypress(Space),,,,,,,,---- -- ----- -- ------ - ------- --- ----------<br>------------- ------ ------ ---- ---- ------- ----- -- ----<br>-------- ------- -- ---------- --- - --- ----- ----- ----<br>---- --- --- ----- --- ---- ---- ------- ----- ---- -------<br>--- --- -- ----- -- --- ---- -- --- ---- -- ------ ------<br>--- ----- -- all.,130620.89999997616,130620.5,130189.585,130205,130235.799,130622.921,,55,all.
Item 99,flow.Loop,2_1_0_1,2022-04-28T09:53:35.904Z,,,,,,,,,,,,,,,,,,,,,,,,,,,,,,,16080.953999999998,,completion,,,,,D,,,,,,,,,,,silence,,,,,130621,130620.5,114522.883,114523.39999997616,114539.546,130622.921,,,
Question 1,html.Screen,2_1_0_2,2022-04-28T09:53:40.468Z,,,,,,,,,,,,,,,,,,,,,,,,,,,,true,FALSE,,4561.17900002384,,response,,,,99,D,,,,,,FALSE,click #choice-2,,,,silence,,,,,135184.70000004768,135184.10000002384,130606.247,130621,130622.921,135189.619,,,
Question 2,html.Screen,2_1_0_3,2022-04-28T09:53:44.346Z,,,,,,,,,,,,,,,,,,,,,,,,,,,,true,TRUE,,3872.5810000476777,,response,,,,99,D,,,,,,TRUE,click #choice-1,,,,silence,,,,,139062.70000004768,139062.20000004768,135172.929,135184.70000004768,135189.619,139072.945,,,
Item 99,flow.Sequence,2_1_0,2022-04-28T09:53:44.346Z,,,,,,,,,,,,,,,,,,,,,,,,,,,,,,,34522.65300004768,,completion,,,,,,,,,,,,,,,,,,,,,139062.79999995232,139062.20000004768,104522.86,104537,104539.547,139072.945,,,
Holding screen,html.Screen,2_1_1_0,2022-04-28T09:53:54.340Z,,,,,,,,,,,,,,,,,,,,,,,,,,,,,,,10000.027000000002,,timeout,,,,,,,,,,,,,,,,,,,,,149056.70000004768,149056.302,139056.273,139062.89999997616,139072.945,149072.972,,,
screen,html.Screen,2_1_1_1_0,2022-04-28T09:53:55.755Z,,,,,,,,,,,,,,,,,54,,,,,,,,,,,,,,1398.0279999999912,,response,,,,100,,,,,,,Space,keypress(Space),,,,,,,,At --- ---- --- ------ ----- ------- ---- -- --- ------- --<br>------- ---------- ------ -- ----- -- ----- -- ---- ------<br>--- ----- --- --- ------ -------- ----- --- ------ ----- --<br>----- ----- ---------- --- --- ------ ------ ---- -- ------<br>------- --- ------ ----- --- ---- ------- -- ---- --- --<br>------- ------,150471.5,150471,149056.302,149056.79999995232,149072.972,150472.979,,0,At
screen,html.Screen,2_1_1_1_1,2022-04-28T09:53:55.904Z,,,,,,,,,,,,,,,,,54,,,,,,,,,,,,,,147.42099997616606,,response,,,,100,,,,,,,Space,keypress(Space),,,,,,,,-- the ---- --- ------ ----- ------- ---- -- --- ------- --<br>------- ---------- ------ -- ----- -- ----- -- ---- ------<br>--- ----- --- --- ------ -------- ----- --- ------ ----- --<br>----- ----- ---------- --- --- ------ ------ ---- -- ------<br>------- --- ------ ----- --- ---- ------- -- ---- --- --<br>------- ------,150620.70000004768,150620.39999997616,150456.243,150471.60000002384,150472.979,150622.986,,1,the
screen,html.Screen,2_1_1_1_2,2022-04-28T09:53:56.216Z,,,,,,,,,,,,,,,,,54,,,,,,,,,,,,,,309.4139999761537,,response,,,,100,,,,,,,Space,keypress(Space),,,,,,,,-- --- time --- ------ ----- ------- ---- -- --- ------- --<br>------- ---------- ------ -- ----- -- ----- -- ---- ------<br>--- ----- --- --- ------ -------- ----- --- ------ ----- --<br>----- ----- ---------- --- --- ------ ------ ---- -- ------<br>------- --- ------ ----- --- ---- ------- -- ---- --- --<br>------- ------,150932.60000002384,150932.39999997616,150606.307,150620.79999995232,150622.986,150939.629,,2,time
screen,html.Screen,2_1_1_1_3,2022-04-28T09:53:56.384Z,,,,,,,,,,,,,,,,,54,,,,,,,,,,,,,,160.57100004769745,,response,,,,100,,,,,,,Space,keypress(Space),,,,,,,,-- --- ---- the ------ ----- ------- ---- -- --- ------- --<br>------- ---------- ------ -- ----- -- ----- -- ---- ------<br>--- ----- --- --- ------ -------- ----- --- ------ ----- --<br>----- ----- ---------- --- --- ------ ------ ---- -- ------<br>------- --- ------ ----- --- ---- ------- -- ---- --- --<br>------- ------,151100.5,151100.20000004768,150922.96,150932.70000004768,150939.629,151106.3,,3,the
screen,html.Screen,2_1_1_1_4,2022-04-28T09:53:56.728Z,,,,,,,,,,,,,,,,,54,,,,,,,,,,,,,,338.0999999761698,,response,,,,100,,,,,,,Space,keypress(Space),,,,,,,,-- --- ---- --- French ----- ------- ---- -- --- ------- --<br>------- ---------- ------ -- ----- -- ----- -- ---- ------<br>--- ----- --- --- ------ -------- ----- --- ------ ----- --<br>----- ----- ---------- --- --- ------ ------ ---- -- ------<br>------- --- ------ ----- --- ---- ------- -- ---- --- --<br>------- ------,151444.79999995232,151444.39999997616,151089.632,151100.60000002384,151106.3,151456.303,,4,French
screen,html.Screen,2_1_1_1_5,2022-04-28T09:53:56.912Z,,,,,,,,,,,,,,,,,54,,,,,,,,,,,,,,172.0969999761437,,response,,,,100,,,,,,,Space,keypress(Space),,,,,,,,-- --- ---- --- ------ crown ------- ---- -- --- ------- --<br>------- ---------- ------ -- ----- -- ----- -- ---- ------<br>--- ----- --- --- ------ -------- ----- --- ------ ----- --<br>----- ----- ---------- --- --- ------ ------ ---- -- ------<br>------- --- ------ ----- --- ---- ------- -- ---- --- --<br>------- ------,151628.70000004768,151628.39999997616,151439.627,151444.89999997616,151456.303,151639.632,,5,crown
screen,html.Screen,2_1_1_1_6,2022-04-28T09:53:57.264Z,,,,,,,,,,,,,,,,,54,,,,,,,,,,,,,,340.7679999761458,,response,,,,100,,,,,,,Space,keypress(Space),,,,,,,,-- --- ---- --- ------ ----- secured ---- -- --- ------- --<br>------- ---------- ------ -- ----- -- ----- -- ---- ------<br>--- ----- --- --- ------ -------- ----- --- ------ ----- --<br>----- ----- ---------- --- --- ------ ------ ---- -- ------<br>------- --- ------ ----- --- ---- ------- -- ---- --- --<br>------- ------,151980.79999995232,151980.39999997616,151622.964,151628.70000004768,151639.632,151989.639,,6,secured
screen,html.Screen,2_1_1_1_7,2022-04-28T09:53:57.648Z,,,,,,,,,,,,,,,,,54,,,,,,,,,,,,,,374.6609999523207,,response,,,,100,,,,,,,Space,keypress(Space),,,,,,,,-- --- ---- --- ------ ----- ------- much -- --- ------- --<br>------- ---------- ------ -- ----- -- ----- -- ---- ------<br>--- ----- --- --- ------ -------- ----- --- ------ ----- --<br>----- ----- ---------- --- --- ------ ------ ---- -- ------<br>------- --- ------ ----- --- ---- ------- -- ---- --- --<br>------- ------,152364.70000004768,152364.29999995232,151972.96,151980.89999997616,151989.639,152372.968,,7,much
screen,html.Screen,2_1_1_1_8,2022-04-28T09:53:57.928Z,,,,,,,,,,,,,,,,,54,,,,,,,,,,,,,,271.43199997616466,,response,,,,100,,,,,,,Space,keypress(Space),,,,,,,,-- --- ---- --- ------ ----- ------- ---- of --- ------- --<br>------- ---------- ------ -- ----- -- ----- -- ---- ------<br>--- ----- --- --- ------ -------- ----- --- ------ ----- --<br>----- ----- ---------- --- --- ------ ------ ---- -- ------<br>------- --- ------ ----- --- ---- ------- -- ---- --- --<br>------- ------,152644.79999995232,152644.39999997616,152356.295,152364.79999995232,152372.968,152656.307,,8,of
screen,html.Screen,2_1_1_1_9,2022-04-28T09:53:58.216Z,,,,,,,,,,,,,,,,,54,,,,,,,,,,,,,,275.9929999523156,,response,,,,100,,,,,,,Space,keypress(Space),,,,,,,,-- --- ---- --- ------ ----- ------- ---- -- its ------- --<br>------- ---------- ------ -- ----- -- ----- -- ---- ------<br>--- ----- --- --- ------ -------- ----- --- ------ ----- --<br>----- ----- ---------- --- --- ------ ------ ---- -- ------<br>------- --- ------ ----- --- ---- ------- -- ---- --- --<br>------- ------,152932.70000004768,152932.29999995232,152639.629,152644.89999997616,152656.307,152939.637,,9,its
screen,html.Screen,2_1_1_1_10,2022-04-28T09:53:58.576Z,,,,,,,,,,,,,,,,,54,,,,,,,,,,,,,,352.76299997617025,,response,,,,100,,,,,,,Space,keypress(Space),,,,,,,,-- --- ---- --- ------ ----- ------- ---- -- --- revenue --<br>------- ---------- ------ -- ----- -- ----- -- ---- ------<br>--- ----- --- --- ------ -------- ----- --- ------ ----- --<br>----- ----- ---------- --- --- ------ ------ ---- -- ------<br>------- --- ------ ----- --- ---- ------- -- ---- --- --<br>------- ------,153292.79999995232,153292.39999997616,152922.971,152932.79999995232,152939.637,153306.315,,10,revenue
screen,html.Screen,2_1_1_1_11,2022-04-28T09:53:58.968Z,,,,,,,,,,,,,,,,,54,,,,,,,,,,,,,,377.98499995231396,,response,,,,100,,,,,,,Space,keypress(Space),,,,,,,,-- --- ---- --- ------ ----- ------- ---- -- --- ------- by<br>------- ---------- ------ -- ----- -- ----- -- ---- ------<br>--- ----- --- --- ------ -------- ----- --- ------ ----- --<br>----- ----- ---------- --- --- ------ ------ ---- -- ------<br>------- --- ------ ----- --- ---- ------- -- ---- --- --<br>------- ------,153684.79999995232,153684.29999995232,153289.625,153292.89999997616,153306.315,153689.638,,11,by
screen,html.Screen,2_1_1_1_12,2022-04-28T09:53:59.312Z,,,,,,,,,,,,,,,,,54,,,,,,,,,,,,,,338.76199997615186,,response,,,,100,,,,,,,Space,keypress(Space),,,,,,,,-- --- ---- --- ------ ----- ------- ---- -- --- ------- --<br>issuing ---------- ------ -- ----- -- ----- -- ---- ------<br>--- ----- --- --- ------ -------- ----- --- ------ ----- --<br>----- ----- ---------- --- --- ------ ------ ---- -- ------<br>------- --- ------ ----- --- ---- ------- -- ---- --- --<br>------- ------,154028.70000004768,154028.39999997616,153672.974,153684.79999995232,153689.638,154039.641,,12,issuing
screen,html.Screen,2_1_1_1_13,2022-04-28T09:53:59.552Z,,,,,,,,,,,,,,,,,54,,,,,,,,,,,,,,228.75899997615488,,response,,,,100,,,,,,,Space,keypress(Space),,,,,,,,-- --- ---- --- ------ ----- ------- ---- -- --- ------- --<br>------- government ------ -- ----- -- ----- -- ---- ------<br>--- ----- --- --- ------ -------- ----- --- ------ ----- --<br>----- ----- ---------- --- --- ------ ------ ---- -- ------<br>------- --- ------ ----- --- ---- ------- -- ---- --- --<br>------- ------,154268.70000004768,154268.39999997616,154022.962,154028.70000004768,154039.641,154272.979,,13,government
screen,html.Screen,2_1_1_1_14,2022-04-28T09:53:59.872Z,,,,,,,,,,,,,,,,,54,,,,,,,,,,,,,,315.3209999523242,,response,,,,100,,,,,,,Space,keypress(Space),,,,,,,,-- --- ---- --- ------ ----- ------- ---- -- --- ------- --<br>------- ---------- bonds. -- ----- -- ----- -- ---- ------<br>--- ----- --- --- ------ -------- ----- --- ------ ----- --<br>----- ----- ---------- --- --- ------ ------ ---- -- ------<br>------- --- ------ ----- --- ---- ------- -- ---- --- --<br>------- ------,154588.70000004768,154588.29999995232,154256.307,154268.79999995232,154272.979,154616.802,,14,bonds.
screen,html.Screen,2_1_1_1_15,2022-04-28T09:54:00.288Z,,,,,,,,,,,,,,,,,54,,,,,,,,,,,,,,387.5979999761621,,response,,,,100,,,,,,,Space,keypress(Space),,,,,,,,-- --- ---- --- ------ ----- ------- ---- -- --- ------- --<br>------- ---------- ------ In ----- -- ----- -- ---- ------<br>--- ----- --- --- ------ -------- ----- --- ------ ----- --<br>----- ----- ---------- --- --- ------ ------ ---- -- ------<br>------- --- ------ ----- --- ---- ------- -- ---- --- --<br>------- ------,155004.70000004768,155004.39999997616,154572.976,154588.79999995232,154616.802,155006.313,,15,In
screen,html.Screen,2_1_1_1_16,2022-04-28T09:54:00.608Z,,,,,,,,,,,,,,,,,54,,,,,,,,,,,,,,317.98699995232164,,response,,,,100,,,,,,,Space,keypress(Space),,,,,,,,"-- --- ---- --- ------ ----- ------- ---- -- --- ------- --<br>------- ---------- ------ -- 1727, -- ----- -- ---- ------<br>--- ----- --- --- ------ -------- ----- --- ------ ----- --<br>----- ----- ---------- --- --- ------ ------ ---- -- ------<br>------- --- ------ ----- --- ---- ------- -- ---- --- --<br>------- ------",155324.70000004768,155324.29999995232,154989.641,155004.79999995232,155006.313,155339.649,,16,"1727,"
screen,html.Screen,2_1_1_1_17,2022-04-28T09:54:00.936Z,,,,,,,,,,,,,,,,,54,,,,,,,,,,,,,,312.75099997615325,,response,,,,100,,,,,,,Space,keypress(Space),,,,,,,,-- --- ---- --- ------ ----- ------- ---- -- --- ------- --<br>------- ---------- ------ -- ----- in ----- -- ---- ------<br>--- ----- --- --- ------ -------- ----- --- ------ ----- --<br>----- ----- ---------- --- --- ------ ------ ---- -- ------<br>------- --- ------ ----- --- ---- ------- -- ---- --- --<br>------- ------,155652.70000004768,155652.39999997616,155322.977,155324.79999995232,155339.649,155656.315,,17,in
screen,html.Screen,2_1_1_1_18,2022-04-28T09:54:01.472Z,,,,,,,,,,,,,,,,,54,,,,,,,,,,,,,,531.984999952314,,response,,,,100,,,,,,,Space,keypress(Space),,,,,,,,-- --- ---- --- ------ ----- ------- ---- -- --- ------- --<br>------- ---------- ------ -- ----- -- order -- ---- ------<br>--- ----- --- --- ------ -------- ----- --- ------ ----- --<br>----- ----- ---------- --- --- ------ ------ ---- -- ------<br>------- --- ------ ----- --- ---- ------- -- ---- --- --<br>------- ------,156188.60000002384,156188.29999995232,155639.627,155652.79999995232,155656.315,156209.766,,18,order
screen,html.Screen,2_1_1_1_19,2022-04-28T09:54:01.880Z,,,,,,,,,,,,,,,,,54,,,,,,,,,,,,,,386.533999952313,,response,,,,100,,,,,,,Space,keypress(Space),,,,,,,,-- --- ---- --- ------ ----- ------- ---- -- --- ------- --<br>------- ---------- ------ -- ----- -- ----- to ---- ------<br>--- ----- --- --- ------ -------- ----- --- ------ ----- --<br>----- ----- ---------- --- --- ------ ------ ---- -- ------<br>------- --- ------ ----- --- ---- ------- -- ---- --- --<br>------- ------,156596.79999995232,156596.29999995232,156172.975,156188.70000004768,156209.766,156606.314,,19,to
screen,html.Screen,2_1_1_1_20,2022-04-28T09:54:02.056Z,,,,,,,,,,,,,,,,,54,,,,,,,,,,,,,,165.98599995230325,,response,,,,100,,,,,,,Space,keypress(Space),,,,,,,,-- --- ---- --- ------ ----- ------- ---- -- --- ------- --<br>------- ---------- ------ -- ----- -- ----- -- save ------<br>--- ----- --- --- ------ -------- ----- --- ------ ----- --<br>----- ----- ---------- --- --- ------ ------ ---- -- ------<br>------- --- ------ ----- --- ---- ------- -- ---- --- --<br>------- ------,156772.70000004768,156772.29999995232,156589.632,156596.79999995232,156606.314,156789.649,,20,save
screen,html.Screen,2_1_1_1_21,2022-04-28T09:54:02.232Z,,,,,,,,,,,,,,,,,54,,,,,,,,,,,,,,158.6509999523114,,response,,,,100,,,,,,,Space,keypress(Space),,,,,,,,"-- --- ---- --- ------ ----- ------- ---- -- --- ------- --<br>------- ---------- ------ -- ----- -- ----- -- ---- money,<br>--- ----- --- --- ------ -------- ----- --- ------ ----- --<br>----- ----- ---------- --- --- ------ ------ ---- -- ------<br>------- --- ------ ----- --- ---- ------- -- ---- --- --<br>------- ------",156948.60000002384,156948.29999995232,156756.311,156772.79999995232,156789.649,156956.31,,21,"money,"
screen,html.Screen,2_1_1_1_22,2022-04-28T09:54:02.632Z,,,,,,,,,,,,,,,,,54,,,,,,,,,,,,,,392.08999997616047,,response,,,,100,,,,,,,Space,keypress(Space),,,,,,,,-- --- ---- --- ------ ----- ------- ---- -- --- ------- --<br>------- ---------- ------ -- ----- -- ----- -- ---- ------<br>the ----- --- --- ------ -------- ----- --- ------ ----- --<br>----- ----- ---------- --- --- ------ ------ ---- -- ------<br>------- --- ------ ----- --- ---- ------- -- ---- --- --<br>------- ------,157348.79999995232,157348.39999997616,156939.655,156948.70000004768,156956.31,157356.316,,22,the
screen,html.Screen,2_1_1_1_23,2022-04-28T09:54:02.832Z,,,,,,,,,,,,,,,,,54,,,,,,,,,,,,,,191.98399995232467,,response,,,,100,,,,,,,Space,keypress(Space),,,,,,,,-- --- ---- --- ------ ----- ------- ---- -- --- ------- --<br>------- ---------- ------ -- ----- -- ----- -- ---- ------<br>--- state --- --- ------ -------- ----- --- ------ ----- --<br>----- ----- ---------- --- --- ------ ------ ---- -- ------<br>------- --- ------ ----- --- ---- ------- -- ---- --- --<br>------- ------,157548.70000004768,157548.29999995232,157339.635,157348.79999995232,157356.316,157556.323,,23,state
screen,html.Screen,2_1_1_1_24,2022-04-28T09:54:03.200Z,,,,,,,,,,,,,,,,,54,,,,,,,,,,,,,,360.0769999761542,,response,,,,100,,,,,,,Space,keypress(Space),,,,,,,,-- --- ---- --- ------ ----- ------- ---- -- --- ------- --<br>------- ---------- ------ -- ----- -- ----- -- ---- ------<br>--- ----- cut --- ------ -------- ----- --- ------ ----- --<br>----- ----- ---------- --- --- ------ ------ ---- -- ------<br>------- --- ------ ----- --- ---- ------- -- ---- --- --<br>------- ------,157916.79999995232,157916.39999997616,157539.646,157548.70000004768,157556.323,157922.984,,24,cut
screen,html.Screen,2_1_1_1_25,2022-04-28T09:54:03.544Z,,,,,,,,,,,,,,,,,54,,,,,,,,,,,,,,337.4159999761614,,response,,,,100,,,,,,,Space,keypress(Space),,,,,,,,-- --- ---- --- ------ ----- ------- ---- -- --- ------- --<br>------- ---------- ------ -- ----- -- ----- -- ---- ------<br>--- ----- --- the ------ -------- ----- --- ------ ----- --<br>----- ----- ---------- --- --- ------ ------ ---- -- ------<br>------- --- ------ ----- --- ---- ------- -- ---- --- --<br>------- ------,158260.70000004768,158260.39999997616,157906.311,157916.79999995232,157922.984,158272.985,,25,the
screen,html.Screen,2_1_1_1_26,2022-04-28T09:54:03.936Z,,,,,,,,,,,,,,,,,54,,,,,,,,,,,,,,379.4149999761721,,response,,,,100,,,,,,,Space,keypress(Space),,,,,,,,-- --- ---- --- ------ ----- ------- ---- -- --- ------- --<br>------- ---------- ------ -- ----- -- ----- -- ---- ------<br>--- ----- --- --- bonds' -------- ----- --- ------ ----- --<br>----- ----- ---------- --- --- ------ ------ ---- -- ------<br>------- --- ------ ----- --- ---- ------- -- ---- --- --<br>------- ------,158652.79999995232,158652.39999997616,158256.304,158260.70000004768,158272.985,158656.322,,26,bonds'
screen,html.Screen,2_1_1_1_27,2022-04-28T09:54:04.264Z,,,,,,,,,,,,,,,,,54,,,,,,,,,,,,,,324.0779999761726,,response,,,,100,,,,,,,Space,keypress(Space),,,,,,,,-- --- ---- --- ------ ----- ------- ---- -- --- ------- --<br>------- ---------- ------ -- ----- -- ----- -- ---- ------<br>--- ----- --- --- ------ interest ----- --- ------ ----- --<br>----- ----- ---------- --- --- ------ ------ ---- -- ------<br>------- --- ------ ----- --- ---- ------- -- ---- --- --<br>------- ------,158980.79999995232,158980.39999997616,158639.631,158652.89999997616,158656.322,158989.661,,27,interest
screen,html.Screen,2_1_1_1_28,2022-04-28T09:54:04.696Z,,,,,,,,,,,,,,,,,54,,,,,,,,,,,,,,422.6389999523235,,response,,,,100,,,,,,,Space,keypress(Space),,,,,,,,-- --- ---- --- ------ ----- ------- ---- -- --- ------- --<br>------- ---------- ------ -- ----- -- ----- -- ---- ------<br>--- ----- --- --- ------ -------- rate. --- ------ ----- --<br>----- ----- ---------- --- --- ------ ------ ---- -- ------<br>------- --- ------ ----- --- ---- ------- -- ---- --- --<br>------- ------,159412.70000004768,159412.29999995232,158972.995,158980.89999997616,158989.661,159422.989,,28,rate.
screen,html.Screen,2_1_1_1_29,2022-04-28T09:54:05.128Z,,,,,,,,,,,,,,,,,54,,,,,,,,,,,,,,421.41099997615675,,response,,,,100,,,,,,,Space,keypress(Space),,,,,,,,-- --- ---- --- ------ ----- ------- ---- -- --- ------- --<br>------- ---------- ------ -- ----- -- ----- -- ---- ------<br>--- ----- --- --- ------ -------- ----- The ------ ----- --<br>----- ----- ---------- --- --- ------ ------ ---- -- ------<br>------- --- ------ ----- --- ---- ------- -- ---- --- --<br>------- ------,159844.79999995232,159844.39999997616,159406.314,159412.79999995232,159422.989,159856.321,,29,The
screen,html.Screen,2_1_1_1_30,2022-04-28T09:54:05.304Z,,,,,,,,,,,,,,,,,54,,,,,,,,,,,,,,163.97899995232,,response,,,,100,,,,,,,Space,keypress(Space),,,,,,,,-- --- ---- --- ------ ----- ------- ---- -- --- ------- --<br>------- ---------- ------ -- ----- -- ----- -- ---- ------<br>--- ----- --- --- ------ -------- ----- --- market ----- --<br>----- ----- ---------- --- --- ------ ------ ---- -- ------<br>------- --- ------ ----- --- ---- ------- -- ---- --- --<br>------- ------,160020.60000002384,160020.29999995232,159839.642,159844.79999995232,159856.321,160022.987,,30,market
screen,html.Screen,2_1_1_1_31,2022-04-28T09:54:05.712Z,,,,,,,,,,,,,,,,,54,,,,,,,,,,,,,,405.31299995232257,,response,,,,100,,,,,,,Space,keypress(Space),,,,,,,,-- --- ---- --- ------ ----- ------- ---- -- --- ------- --<br>------- ---------- ------ -- ----- -- ----- -- ---- ------<br>--- ----- --- --- ------ -------- ----- --- ------ value --<br>----- ----- ---------- --- --- ------ ------ ---- -- ------<br>------- --- ------ ----- --- ---- ------- -- ---- --- --<br>------- ------,160428.79999995232,160428.29999995232,160006.314,160020.60000002384,160022.987,160439.666,,31,value
screen,html.Screen,2_1_1_1_32,2022-04-28T09:54:06.122Z,,,,,,,,,,,,,,,,,54,,,,,,,,,,,,,,398.63399995231885,,response,,,,100,,,,,,,Space,keypress(Space),,,,,,,,-- --- ---- --- ------ ----- ------- ---- -- --- ------- --<br>------- ---------- ------ -- ----- -- ----- -- ---- ------<br>--- ----- --- --- ------ -------- ----- --- ------ ----- of<br>----- ----- ---------- --- --- ------ ------ ---- -- ------<br>------- --- ------ ----- --- ---- ------- -- ---- --- --<br>------- ------,160838.60000002384,160838.29999995232,160422.988,160428.79999995232,160439.666,160865.161,,32,of
screen,html.Screen,2_1_1_1_33,2022-04-28T09:54:06.408Z,,,,,,,,,,,,,,,,,54,,,,,,,,,,,,,,259.1389999523235,,response,,,,100,,,,,,,Space,keypress(Space),,,,,,,,-- --- ---- --- ------ ----- ------- ---- -- --- ------- --<br>------- ---------- ------ -- ----- -- ----- -- ---- ------<br>--- ----- --- --- ------ -------- ----- --- ------ ----- --<br>these ----- ---------- --- --- ------ ------ ---- -- ------<br>------- --- ------ ----- --- ---- ------- -- ---- --- --<br>------- ------,161124.89999997616,161124.29999995232,160822.976,160838.60000002384,160865.161,161139.663,,33,these
screen,html.Screen,2_1_1_1_34,2022-04-28T09:54:06.617Z,,,,,,,,,,,,,,,,,54,,,,,,,,,,,,,,192.53700004768325,,response,,,,100,,,,,,,Space,keypress(Space),,,,,,,,-- --- ---- --- ------ ----- ------- ---- -- --- ------- --<br>------- ---------- ------ -- ----- -- ----- -- ---- ------<br>--- ----- --- --- ------ -------- ----- --- ------ ----- --<br>----- bonds ---------- --- --- ------ ------ ---- -- ------<br>------- --- ------ ----- --- ---- ------- -- ---- --- --<br>------- ------,161332.60000002384,161332.20000004768,161122.98,161124.89999997616,161139.663,161339.654,,34,bonds
screen,html.Screen,2_1_1_1_35,2022-04-28T09:54:06.953Z,,,,,,,,,,,,,,,,,54,,,,,,,,,,,,,,328.64599995230674,,response,,,,100,,,,,,,Space,keypress(Space),,,,,,,,"-- --- ---- --- ------ ----- ------- ---- -- --- ------- --<br>------- ---------- ------ -- ----- -- ----- -- ---- ------<br>--- ----- --- --- ------ -------- ----- --- ------ ----- --<br>----- ----- plummeted, --- --- ------ ------ ---- -- ------<br>------- --- ------ ----- --- ---- ------- -- ---- --- --<br>------- ------",161668.70000004768,161668.29999995232,161322.989,161332.70000004768,161339.654,161672.991,,35,"plummeted,"
screen,html.Screen,2_1_1_1_36,2022-04-28T09:54:07.321Z,,,,,,,,,,,,,,,,,54,,,,,,,,,,,,,,363.40899997614906,,response,,,,100,,,,,,,Space,keypress(Space),,,,,,,,-- --- ---- --- ------ ----- ------- ---- -- --- ------- --<br>------- ---------- ------ -- ----- -- ----- -- ---- ------<br>--- ----- --- --- ------ -------- ----- --- ------ ----- --<br>----- ----- ---------- and --- ------ ------ ---- -- ------<br>------- --- ------ ----- --- ---- ------- -- ---- --- --<br>------- ------,162036.60000002384,162036.39999997616,161656.314,161668.70000004768,161672.991,162039.667,,36,and
screen,html.Screen,2_1_1_1_37,2022-04-28T09:54:07.697Z,,,,,,,,,,,,,,,,,54,,,,,,,,,,,,,,372.7329999761714,,response,,,,100,,,,,,,Space,keypress(Space),,,,,,,,-- --- ---- --- ------ ----- ------- ---- -- --- ------- --<br>------- ---------- ------ -- ----- -- ----- -- ---- ------<br>--- ----- --- --- ------ -------- ----- --- ------ ----- --<br>----- ----- ---------- --- the ------ ------ ---- -- ------<br>------- --- ------ ----- --- ---- ------- -- ---- --- --<br>------- ------,162412.79999995232,162412.39999997616,162022.979,162036.79999995232,162039.667,162423.001,,37,the
screen,html.Screen,2_1_1_1_38,2022-04-28T09:54:08.017Z,,,,,,,,,,,,,,,,,54,,,,,,,,,,,,,,309.59900002385257,,response,,,,100,,,,,,,Space,keypress(Space),,,,,,,,-- --- ---- --- ------ ----- ------- ---- -- --- ------- --<br>------- ---------- ------ -- ----- -- ----- -- ---- ------<br>--- ----- --- --- ------ -------- ----- --- ------ ----- --<br>----- ----- ---------- --- --- market ------ ---- -- ------<br>------- --- ------ ----- --- ---- ------- -- ---- --- --<br>------- ------,162732.89999997616,162732.60000002384,162406.333,162412.89999997616,162423.001,162739.657,,38,market
screen,html.Screen,2_1_1_1_39,2022-04-28T09:54:08.201Z,,,,,,,,,,,,,,,,,54,,,,,,,,,,,,,,176.64299995230976,,response,,,,100,,,,,,,Space,keypress(Space),,,,,,,,-- --- ---- --- ------ ----- ------- ---- -- --- ------- --<br>------- ---------- ------ -- ----- -- ----- -- ---- ------<br>--- ----- --- --- ------ -------- ----- --- ------ ----- --<br>----- ----- ---------- --- --- ------ became ---- -- ------<br>------- --- ------ ----- --- ---- ------- -- ---- --- --<br>------- ------,162916.70000004768,162916.29999995232,162722.982,162732.89999997616,162739.657,162923,,39,became
screen,html.Screen,2_1_1_1_40,2022-04-28T09:54:08.577Z,,,,,,,,,,,,,,,,,54,,,,,,,,,,,,,,369.5,,response,,,,100,,,,,,,Space,keypress(Space),,,,,,,,-- --- ---- --- ------ ----- ------- ---- -- --- ------- --<br>------- ---------- ------ -- ----- -- ----- -- ---- ------<br>--- ----- --- --- ------ -------- ----- --- ------ ----- --<br>----- ----- ---------- --- --- ------ ------ wary -- ------<br>------- --- ------ ----- --- ---- ------- -- ---- --- --<br>------- ------,163292.89999997616,163292.5,162906.321,162916.79999995232,162923,163306.334,,40,wary
screen,html.Screen,2_1_1_1_41,2022-04-28T09:54:09.161Z,,,,,,,,,,,,,,,,,54,,,,,,,,,,,,,,570.0659999761556,,response,,,,100,,,,,,,Space,keypress(Space),,,,,,,,-- --- ---- --- ------ ----- ------- ---- -- --- ------- --<br>------- ---------- ------ -- ----- -- ----- -- ---- ------<br>--- ----- --- --- ------ -------- ----- --- ------ ----- --<br>----- ----- ---------- --- --- ------ ------ ---- of ------<br>------- --- ------ ----- --- ---- ------- -- ---- --- --<br>------- ------,163876.60000002384,163876.39999997616,163289.649,163292.89999997616,163306.334,163889.661,,41,of
screen,html.Screen,2_1_1_1_42,2022-04-28T09:54:09.657Z,,,,,,,,,,,,,,,,,54,,,,,,,,,,,,,,482.73899997616536,,response,,,,100,,,,,,,Space,keypress(Space),,,,,,,,-- --- ---- --- ------ ----- ------- ---- -- --- ------- --<br>------- ---------- ------ -- ----- -- ----- -- ---- ------<br>--- ----- --- --- ------ -------- ----- --- ------ ----- --<br>----- ----- ---------- --- --- ------ ------ ---- -- French<br>------- --- ------ ----- --- ---- ------- -- ---- --- --<br>------- ------,164372.79999995232,164372.39999997616,163872.975,163876.70000004768,163889.661,164406.334,,42,French
screen,html.Screen,2_1_1_1_43,2022-04-28T09:54:10.257Z,,,,,,,,,,,,,,,,,54,,,,,,,,,,,,,,565.9659999523137,,response,,,,100,,,,,,,Space,keypress(Space),,,,,,,,-- --- ---- --- ------ ----- ------- ---- -- --- ------- --<br>------- ---------- ------ -- ----- -- ----- -- ---- ------<br>--- ----- --- --- ------ -------- ----- --- ------ ----- --<br>----- ----- ---------- --- --- ------ ------ ---- -- ------<br>credit. --- ------ ----- --- ---- ------- -- ---- --- --<br>------- ------,164972.79999995232,164972.29999995232,164389.666,164372.79999995232,164406.334,165006.333,,43,credit.
screen,html.Screen,2_1_1_1_44,2022-04-28T09:54:10.649Z,,,,,,,,,,,,,,,,,54,,,,,,,,,,,,,,358.06699997614487,,response,,,,100,,,,,,,Space,keypress(Space),,,,,,,,-- --- ---- --- ------ ----- ------- ---- -- --- ------- --<br>------- ---------- ------ -- ----- -- ----- -- ---- ------<br>--- ----- --- --- ------ -------- ----- --- ------ ----- --<br>----- ----- ---------- --- --- ------ ------ ---- -- ------<br>------- The ------ ----- --- ---- ------- -- ---- --- --<br>------- ------,165364.89999997616,165364.39999997616,164989.669,164972.79999995232,165006.333,165373.009,,44,The
screen,html.Screen,2_1_1_1_45,2022-04-28T09:54:10.833Z,,,,,,,,,,,,,,,,,54,,,,,,,,,,,,,,175.1910000476928,,response,,,,100,,,,,,,Space,keypress(Space),,,,,,,,-- --- ---- --- ------ ----- ------- ---- -- --- ------- --<br>------- ---------- ------ -- ----- -- ----- -- ---- ------<br>--- ----- --- --- ------ -------- ----- --- ------ ----- --<br>----- ----- ---------- --- --- ------ ------ ---- -- ------<br>------- --- French ----- --- ---- ------- -- ---- --- --<br>------- ------,165548.5,165548.20000004768,165356.335,165364.89999997616,165373.009,165556.333,,45,French
screen,html.Screen,2_1_1_1_46,2022-04-28T09:54:11.121Z,,,,,,,,,,,,,,,,,54,,,,,,,,,,,,,,280.06699997614487,,response,,,,100,,,,,,,Space,keypress(Space),,,,,,,,-- --- ---- --- ------ ----- ------- ---- -- --- ------- --<br>------- ---------- ------ -- ----- -- ----- -- ---- ------<br>--- ----- --- --- ------ -------- ----- --- ------ ----- --<br>----- ----- ---------- --- --- ------ ------ ---- -- ------<br>------- --- ------ state --- ---- ------- -- ---- --- --<br>------- ------,165836.70000004768,165836.39999997616,165539.663,165548.70000004768,165556.333,165839.668,,46,state
screen,html.Screen,2_1_1_1_47,2022-04-28T09:54:11.529Z,,,,,,,,,,,,,,,,,54,,,,,,,,,,,,,,404.8319999999949,,response,,,,100,,,,,,,Space,keypress(Space),,,,,,,,-- --- ---- --- ------ ----- ------- ---- -- --- ------- --<br>------- ---------- ------ -- ----- -- ----- -- ---- ------<br>--- ----- --- --- ------ -------- ----- --- ------ ----- --<br>----- ----- ---------- --- --- ------ ------ ---- -- ------<br>------- --- ------ ----- was ---- ------- -- ---- --- --<br>------- ------,166244.79999995232,166244.5,165823.005,165836.79999995232,165839.668,166256.341,,47,was
screen,html.Screen,2_1_1_1_48,2022-04-28T09:54:11.929Z,,,,,,,,,,,,,,,,,54,,,,,,,,,,,,,,388.05899997617234,,response,,,,100,,,,,,,Space,keypress(Space),,,,,,,,-- --- ---- --- ------ ----- ------- ---- -- --- ------- --<br>------- ---------- ------ -- ----- -- ----- -- ---- ------<br>--- ----- --- --- ------ -------- ----- --- ------ ----- --<br>----- ----- ---------- --- --- ------ ------ ---- -- ------<br>------- --- ------ ----- --- left ------- -- ---- --- --<br>------- ------,166644.79999995232,166644.39999997616,166239.664,166244.89999997616,166256.341,166656.337,,48,left
screen,html.Screen,2_1_1_1_49,2022-04-28T09:54:12.137Z,,,,,,,,,,,,,,,,,54,,,,,,,,,,,,,,195.96299995231675,,response,,,,100,,,,,,,Space,keypress(Space),,,,,,,,-- --- ---- --- ------ ----- ------- ---- -- --- ------- --<br>------- ---------- ------ -- ----- -- ----- -- ---- ------<br>--- ----- --- --- ------ -------- ----- --- ------ ----- --<br>----- ----- ---------- --- --- ------ ------ ---- -- ------<br>------- --- ------ ----- --- ---- without -- ---- --- --<br>------- ------,166852.60000002384,166852.29999995232,166639.656,166644.79999995232,166656.337,166856.345,,49,without
screen,html.Screen,2_1_1_1_50,2022-04-28T09:54:12.377Z,,,,,,,,,,,,,,,,,54,,,,,,,,,,,,,,236.05499997615698,,response,,,,100,,,,,,,Space,keypress(Space),,,,,,,,-- --- ---- --- ------ ----- ------- ---- -- --- ------- --<br>------- ---------- ------ -- ----- -- ----- -- ---- ------<br>--- ----- --- --- ------ -------- ----- --- ------ ----- --<br>----- ----- ---------- --- --- ------ ------ ---- -- ------<br>------- --- ------ ----- --- ---- ------- an ---- --- --<br>------- ------,167092.70000004768,167092.39999997616,166839.666,166852.70000004768,166856.345,167106.346,,50,an
screen,html.Screen,2_1_1_1_51,2022-04-28T09:54:12.729Z,,,,,,,,,,,,,,,,,54,,,,,,,,,,,,,,338.0539999761677,,response,,,,100,,,,,,,Space,keypress(Space),,,,,,,,-- --- ---- --- ------ ----- ------- ---- -- --- ------- --<br>------- ---------- ------ -- ----- -- ----- -- ---- ------<br>--- ----- --- --- ------ -------- ----- --- ------ ----- --<br>----- ----- ---------- --- --- ------ ------ ---- -- ------<br>------- --- ------ ----- --- ---- ------- -- easy --- --<br>------- ------,167444.79999995232,167444.39999997616,167089.675,167092.79999995232,167106.346,167456.344,,51,easy
screen,html.Screen,2_1_1_1_52,2022-04-28T09:54:13.217Z,,,,,,,,,,,,,,,,,54,,,,,,,,,,,,,,476.05599997614627,,response,,,,100,,,,,,,Space,keypress(Space),,,,,,,,-- --- ---- --- ------ ----- ------- ---- -- --- ------- --<br>------- ---------- ------ -- ----- -- ----- -- ---- ------<br>--- ----- --- --- ------ -------- ----- --- ------ ----- --<br>----- ----- ---------- --- --- ------ ------ ---- -- ------<br>------- --- ------ ----- --- ---- ------- -- ---- way --<br>------- ------,167932.60000002384,167932.39999997616,167439.663,167444.79999995232,167456.344,167939.669,,52,way
screen,html.Screen,2_1_1_1_53,2022-04-28T09:54:13.633Z,,,,,,,,,,,,,,,,,54,,,,,,,,,,,,,,408.6309999523219,,response,,,,100,,,,,,,Space,keypress(Space),,,,,,,,-- --- ---- --- ------ ----- ------- ---- -- --- ------- --<br>------- ---------- ------ -- ----- -- ----- -- ---- ------<br>--- ----- --- --- ------ -------- ----- --- ------ ----- --<br>----- ----- ---------- --- --- ------ ------ ---- -- ------<br>------- --- ------ ----- --- ---- ------- -- ---- --- of<br>------- ------,168348.70000004768,168348.29999995232,167922.992,167932.79999995232,167939.669,168356.338,,53,of
screen,html.Screen,2_1_1_1_54,2022-04-28T09:54:14.017Z,,,,,,,,,,,,,,,,,54,,,,,,,,,,,,,,375.96199995232746,,response,,,,100,,,,,,,Space,keypress(Space),,,,,,,,-- --- ---- --- ------ ----- ------- ---- -- --- ------- --<br>------- ---------- ------ -- ----- -- ----- -- ---- ------<br>--- ----- --- --- ------ -------- ----- --- ------ ----- --<br>----- ----- ---------- --- --- ------ ------ ---- -- ------<br>------- --- ------ ----- --- ---- ------- -- ---- --- --<br>raising ------,168732.70000004768,168732.29999995232,168339.659,168348.70000004768,168356.338,168739.674,,54,raising
screen,html.Screen,2_1_1_1_55,2022-04-28T09:54:14.985Z,,,,,,,,,,,,,,,,,54,,,,,,,,,,,,,,960.6259999523172,,response,,,,100,,,,,,,Space,keypress(Space),,,,,,,,-- --- ---- --- ------ ----- ------- ---- -- --- ------- --<br>------- ---------- ------ -- ----- -- ----- -- ---- ------<br>--- ----- --- --- ------ -------- ----- --- ------ ----- --<br>----- ----- ---------- --- --- ------ ------ ---- -- ------<br>------- --- ------ ----- --- ---- ------- -- ---- --- --<br>------- money.,169700.60000002384,169700.29999995232,168722.998,168732.70000004768,168739.674,169723.02,,55,money.
Item 100,flow.Loop,2_1_1_1,2022-04-28T09:54:14.985Z,,,,,,,,,,,,,,,,,,,,,,,,,,,,,,,20627.327999952307,,completion,,,,,D,,,,,,,,,,,silence,,,,,169700.60000002384,169700.29999995232,149056.302,149056.70000004768,149072.972,169723.02,,,
Question 1,html.Screen,2_1_1_2,2022-04-28T09:54:17.285Z,,,,,,,,,,,,,,,,,,,,,,,,,,,,true,TRUE,,2276.9800000000105,,response,,,,100,D,,,,,,TRUE,click #choice-1,,,,silence,,,,,172000.5,172000,169706.367,169700.70000004768,169723.02,172006.352,,,
Question 2,html.Screen,2_1_1_3,2022-04-28T09:54:19.546Z,,,,,,,,,,,,,,,,,,,,,,,,,,,,true,FALSE,,2254.7480000238284,,response,,,,100,D,,,,,,FALSE,click #choice-2,,,,silence,,,,,174261.5,174261.10000002384,171989.674,172000.60000002384,172006.352,174273.018,,,
Item 100,flow.Sequence,2_1_1,2022-04-28T09:54:19.546Z,,,,,,,,,,,,,,,,,,,,,,,,,,,,,,,35188.155000023835,,completion,,,,,,,,,,,,,,,,,,,,,174261.60000002384,174261.10000002384,139056.273,139062.89999997616,139072.945,174273.018,,,
End of Practice,html.Page,2_1_2,2022-04-28T09:54:39.541Z,,,,,,,,,,,,,,,,,,,,,,,,,,,,,,,20000.062999999995,,timeout,,,,,,,,,,,,,,,,,,,,,194256.70000004768,194256.4,174256.347,174261.60000002384,174273.018,194273.081,,,
Practice,flow.Sequence,2_1,2022-04-28T09:54:39.541Z,,,,,,,,,,,,,,,,,,,,,,,,,,,,,,,89716.85299999999,,completion,,,,,,,,,,,,,,,,,,,,,194256.79999995232,194256.4,104522.86,104537,104539.547,194273.081,,,
Trap_instruction,html.Page,2_2_0,2022-04-28T09:54:59.541Z,,,,,,,,,,,,,,,,,,,,,,,,,,,,,,,20000.062999999995,,timeout,,,,,,,,,,,,,,,,,,,,,214256.79999995232,214256.449,194256.4,194256.89999997616,194273.081,214273.144,,,
trap_trial,html.Screen,2_2_1,2022-04-28T09:55:29.541Z,,,,,,,,,,,,,,,,,,,,,,,,,,,,,,,30000.032999999996,,timeout,,,,,,,,,,,,,,,,,,,,,244256.89999997616,244256.514,214256.449,214256.89999997616,214273.144,244273.177,,,
end of trap trial,html.Page,2_2_2,2022-04-28T09:55:39.541Z,,,,,,,,,,,,,,,,,,,,,,,,,,,,,,,10000.038,,timeout,,,,,,,,,,,,,,,,,,,,,254256.89999997616,254256.538,244256.514,244256.89999997616,244273.177,254273.215,,,
Trap 1,flow.Sequence,2_2,2022-04-28T09:55:39.541Z,,,,,,,,,,,,,,,,,,,,,,,,,,,,,,,59983.456999999995,,completion,,,,,,,,,,,,,,,,,,,,,254256.89999997616,254256.538,194256.4,194256.89999997616,194273.081,254273.215,,,
Standby,html.Page,2_3_0,2022-04-28T09:55:47.541Z,,,,,,,,,,,,,,,,,,,,,,,,,,,,,,,8000.003999999986,,timeout,,,,,,,,,,,,,,,,,,,,,262256.89999997616,262256.556,254256.538,254257,254273.215,262273.219,,,
Holding screen,html.Screen,2_3_1_0_0,2022-04-28T09:55:54.541Z,,,,,,,,,,,,,,,,,,,,,,,,,,,,,,,7000.029000000039,,timeout,,,,,,,,,,,,,,,,,,,,,269256.89999997616,269256.574,262256.556,262257,262273.219,269273.248,,,
screen,html.Screen,2_3_1_0_1_0,2022-04-28T09:56:01.541Z,,,,,,,,,,,,,,,,,12,,,,,,,,,,,,,,7000.002999999968,,timeout,,,,5,D,,,,,,,,,,,speech,,,,Some ------ ------ ------- ------ --- ------- -----------<br>-- ----- --- ---- -- --- ------ ---- - ---- -- ----------<br>-- ------ ---- --- ---- --- --- --- ----- -- -------- ---<br>------ ------- -------- --- ---- -- ------- ------------ --<br>------ -- ---- -- --- ---- -- -------- -- --- ------ ------,276257,276256.59,269256.574,269257,269273.248,276273.251,,0,Some
screen,html.Screen,2_3_1_0_1_1,2022-04-28T09:56:08.541Z,,,,,,,,,,,,,,,,,12,,,,,,,,,,,,,,7000.021000000008,,timeout,,,,5,D,,,,,,,,,,,speech,,,,---- months ------ ------- ------ --- ------- -----------<br>-- ----- --- ---- -- --- ------ ---- - ---- -- ----------<br>-- ------ ---- --- ---- --- --- --- ----- -- -------- ---<br>------ ------- -------- --- ---- -- ------- ------------ --<br>------ -- ---- -- --- ---- -- -------- -- --- ------ ------,283257,283256.608,276256.59,276257.10000002384,276273.251,283273.272,,1,months
screen,html.Screen,2_3_1_0_1_2,2022-04-28T09:56:14.986Z,,,,,,,,,,,,,,,,,12,,,,,,,,,,,,,,6429.027999952319,,response,,,,5,D,,,,,,Space,keypress(Space),,,,speech,,,,"---- ------ later, ------- ------ --- ------- -----------<br>-- ----- --- ---- -- --- ------ ---- - ---- -- ----------<br>-- ------ ---- --- ---- --- --- --- ----- -- -------- ---<br>------ ------- -------- --- ---- -- ------- ------------ --<br>------ -- ---- -- --- ---- -- -------- -- --- ------ ------",289702.60000002384,289702.2999999523,283256.608,283257.2000000477,283273.272,289706.654,,2,"later,"
screen,html.Screen,2_3_1_0_1_3,2022-04-28T09:56:17.048Z,,,,,,,,,,,,,,,,,12,,,,,,,,,,,,,,2057.5460000477033,,response,,,,5,D,,,,,,Space,keypress(Space),,,,speech,,,,---- ------ ------ Michael ------ --- ------- -----------<br>-- ----- --- ---- -- --- ------ ---- - ---- -- ----------<br>-- ------ ---- --- ---- --- --- --- ----- -- -------- ---<br>------ ------- -------- --- ---- -- ------- ------------ --<br>------ -- ---- -- --- ---- -- -------- -- --- ------ ------,291764.60000002384,291764.2000000477,289689.679,289702.7000000477,289706.654,291773.287,,3,Michael
screen,html.Screen,2_3_1_0_1_4,2022-04-28T09:56:17.480Z,,,,,,,,,,,,,,,,,12,,,,,,,,,,,,,,422.91300004767254,,response,,,,5,D,,,,,,Space,keypress(Space),,,,speech,,,,---- ------ ------ ------- Larson --- ------- -----------<br>-- ----- --- ---- -- --- ------ ---- - ---- -- ----------<br>-- ------ ---- --- ---- --- --- --- ----- -- -------- ---<br>------ ------- -------- --- ---- -- ------- ------------ --<br>------ -- ---- -- --- ---- -- -------- -- --- ------ ------,292196.60000002384,292196.2000000477,291756.553,291764.7000000477,291773.287,292206.627,,4,Larson
screen,html.Screen,2_3_1_0_1_5,2022-04-28T09:56:17.864Z,,,,,,,,,,,,,,,,,12,,,,,,,,,,,,,,373.57300004770514,,response,,,,5,D,,,,,,Space,keypress(Space),,,,speech,,,,---- ------ ------ ------- ------ saw ------- -----------<br>-- ----- --- ---- -- --- ------ ---- - ---- -- ----------<br>-- ------ ---- --- ---- --- --- --- ----- -- -------- ---<br>------ ------- -------- --- ---- -- ------- ------------ --<br>------ -- ---- -- --- ---- -- -------- -- --- ------ ------,292580.60000002384,292580.2000000477,292189.945,292196.60000002384,292206.627,292589.96,,5,saw
screen,html.Screen,2_3_1_0_1_6,2022-04-28T09:56:18.344Z,,,,,,,,,,,,,,,,,12,,,,,,,,,,,,,,470.33999995229533,,response,,,,5,D,,,,,,Space,keypress(Space),,,,speech,,,,---- ------ ------ ------- ------ --- another -----------<br>-- ----- --- ---- -- --- ------ ---- - ---- -- ----------<br>-- ------ ---- --- ---- --- --- --- ----- -- -------- ---<br>------ ------- -------- --- ---- -- ------- ------------ --<br>------ -- ---- -- --- ---- -- -------- -- --- ------ ------,293060.60000002384,293060.2999999523,292573.278,292580.7000000477,292589.96,293073.29,,6,another
screen,html.Screen,2_3_1_0_1_7,2022-04-28T09:56:18.616Z,,,,,,,,,,,,,,,,,12,,,,,,,,,,,,,,259.00999995233724,,response,,,,5,D,,,,,,Space,keypress(Space),,,,speech,,,,---- ------ ------ ------- ------ --- ------- opportunity<br>-- ----- --- ---- -- --- ------ ---- - ---- -- ----------<br>-- ------ ---- --- ---- --- --- --- ----- -- -------- ---<br>------ ------- -------- --- ---- -- ------- ------------ --<br>------ -- ---- -- --- ---- -- -------- -- --- ------ ------,293332.7000000477,293332.2999999523,293056.606,293060.7000000477,293073.29,293339.963,,7,opportunity
screen,html.Screen,2_3_1_0_1_8,2022-04-28T09:56:18.856Z,,,,,,,,,,,,,,,,,12,,,,,,,,,,,,,,232.2370000476949,,response,,,,5,D,,,,,,Space,keypress(Space),,,,speech,,,,---- ------ ------ ------- ------ --- ------- -----------<br>to ----- --- ---- -- --- ------ ---- - ---- -- ----------<br>-- ------ ---- --- ---- --- --- --- ----- -- -------- ---<br>------ ------- -------- --- ---- -- ------- ------------ --<br>------ -- ---- -- --- ---- -- -------- -- --- ------ ------,293572.60000002384,293572.2000000477,293323.283,293332.7999999523,293339.963,293601.544,,8,to
screen,html.Screen,2_3_1_0_1_9,2022-04-28T09:56:19.176Z,,,,,,,,,,,,,,,,,12,,,,,,,,,,,,,,290.6560000476893,,response,,,,5,D,,,,,,Space,keypress(Space),,,,speech,,,,---- ------ ------ ------- ------ --- ------- -----------<br>-- stack --- ---- -- --- ------ ---- - ---- -- ----------<br>-- ------ ---- --- ---- --- --- --- ----- -- -------- ---<br>------ ------- -------- --- ---- -- ------- ------------ --<br>------ -- ---- -- --- ---- -- -------- -- --- ------ ------,293892.60000002384,293892.2000000477,293556.618,293572.60000002384,293601.544,293906.628,,9,stack
screen,html.Screen,2_3_1_0_1_10,2022-04-28T09:56:19.432Z,,,,,,,,,,,,,,,,,12,,,,,,,,,,,,,,241.57200004765764,,response,,,,5,D,,,,,,Space,keypress(Space),,,,speech,,,,---- ------ ------ ------- ------ --- ------- -----------<br>-- ----- the ---- -- --- ------ ---- - ---- -- ----------<br>-- ------ ---- --- ---- --- --- --- ----- -- -------- ---<br>------ ------- -------- --- ---- -- ------- ------------ --<br>------ -- ---- -- --- ---- -- -------- -- --- ------ ------,294148.5,294148.2000000477,293889.958,293892.7000000477,293906.628,294156.628,,10,the
screen,html.Screen,2_3_1_0_1_11,2022-04-28T09:56:19.632Z,,,,,,,,,,,,,,,,,12,,,,,,,,,,,,,,191.6719999522902,,response,,,,5,D,,,,,,Space,keypress(Space),,,,speech,,,,---- ------ ------ ------- ------ --- ------- -----------<br>-- ----- --- odds -- --- ------ ---- - ---- -- ----------<br>-- ------ ---- --- ---- --- --- --- ----- -- -------- ---<br>------ ------- -------- --- ---- -- ------- ------------ --<br>------ -- ---- -- --- ---- -- -------- -- --- ------ ------,294348.60000002384,294348.2999999523,294139.951,294148.60000002384,294156.628,294356.627,,11,odds
screen,html.Screen,2_3_1_0_1_12,2022-04-28T09:56:19.824Z,,,,,,,,,,,,,,,,,12,,,,,,,,,,,,,,183.6729999523377,,response,,,,5,D,,,,,,Space,keypress(Space),,,,speech,,,,---- ------ ------ ------- ------ --- ------- -----------<br>-- ----- --- ---- in --- ------ ---- - ---- -- ----------<br>-- ------ ---- --- ---- --- --- --- ----- -- -------- ---<br>------ ------- -------- --- ---- -- ------- ------------ --<br>------ -- ---- -- --- ---- -- -------- -- --- ------ ------,294540.7999999523,294540.2999999523,294339.955,294348.60000002384,294356.627,294556.624,,12,in
screen,html.Screen,2_3_1_0_1_13,2022-04-28T09:56:20.048Z,,,,,,,,,,,,,,,,,12,,,,,,,,,,,,,,207.47600002383115,,response,,,,5,D,,,,,,Space,keypress(Space),,,,speech,,,,---- ------ ------ ------- ------ --- ------- -----------<br>-- ----- --- ---- -- his ------ ---- - ---- -- ----------<br>-- ------ ---- --- ---- --- --- --- ----- -- -------- ---<br>------ ------- -------- --- ---- -- ------- ------------ --<br>------ -- ---- -- --- ---- -- -------- -- --- ------ ------,294764.39999997616,294764.10000002384,294539.954,294540.7999999523,294556.624,294789.965,,13,his
screen,html.Screen,2_3_1_0_1_14,2022-04-28T09:56:20.272Z,,,,,,,,,,,,,,,,,12,,,,,,,,,,,,,,198.2350000476581,,response,,,,5,D,,,,,,Space,keypress(Space),,,,speech,,,,---- ------ ------ ------- ------ --- ------- -----------<br>-- ----- --- ---- -- --- favour ---- - ---- -- ----------<br>-- ------ ---- --- ---- --- --- --- ----- -- -------- ---<br>------ ------- -------- --- ---- -- ------- ------------ --<br>------ -- ---- -- --- ---- -- -------- -- --- ------ ------,294988.60000002384,294988.2000000477,294773.297,294764.5,294789.965,295006.624,,14,favour
screen,html.Screen,2_3_1_0_1_15,2022-04-28T09:56:20.536Z,,,,,,,,,,,,,,,,,12,,,,,,,,,,,,,,245.576000047673,,response,,,,5,D,,,,,,Space,keypress(Space),,,,speech,,,,---- ------ ------ ------- ------ --- ------- -----------<br>-- ----- --- ---- -- --- ------ with - ---- -- ----------<br>-- ------ ---- --- ---- --- --- --- ----- -- -------- ---<br>------ ------- -------- --- ---- -- ------- ------------ --<br>------ -- ---- -- --- ---- -- -------- -- --- ------ ------,295252.60000002384,295252.2000000477,294989.969,294988.7000000477,295006.624,295256.631,,15,with
screen,html.Screen,2_3_1_0_1_16,2022-04-28T09:56:20.848Z,,,,,,,,,,,,,,,,,12,,,,,,,,,,,,,,307.4690000238479,,response,,,,5,D,,,,,,Space,keypress(Space),,,,speech,,,,---- ------ ------ ------- ------ --- ------- -----------<br>-- ----- --- ---- -- --- ------ ---- a ---- -- ----------<br>-- ------ ---- --- ---- --- --- --- ----- -- -------- ---<br>------ ------- -------- --- ---- -- ------- ------------ --<br>------ -- ---- -- --- ---- -- -------- -- --- ------ ------,295564.5,295564.10000002384,295239.956,295252.7000000477,295256.631,295589.96,,16,a
screen,html.Screen,2_3_1_0_1_17,2022-04-28T09:56:21.144Z,,,,,,,,,,,,,,,,,12,,,,,,,,,,,,,,270.24000004766276,,response,,,,5,D,,,,,,Space,keypress(Space),,,,speech,,,,---- ------ ------ ------- ------ --- ------- -----------<br>-- ----- --- ---- -- --- ------ ---- - dash -- ----------<br>-- ------ ---- --- ---- --- --- --- ----- -- -------- ---<br>------ ------- -------- --- ---- -- ------- ------------ --<br>------ -- ---- -- --- ---- -- -------- -- --- ------ ------,295860.5,295860.2000000477,295573.3,295564.5,295589.96,295873.297,,17,dash
screen,html.Screen,2_3_1_0_1_18,2022-04-28T09:56:21.496Z,,,,,,,,,,,,,,,,,12,,,,,,,,,,,,,,338.9030000476632,,response,,,,5,D,,,,,,Space,keypress(Space),,,,speech,,,,---- ------ ------ ------- ------ --- ------- -----------<br>-- ----- --- ---- -- --- ------ ---- - ---- of ----------<br>-- ------ ---- --- ---- --- --- --- ----- -- -------- ---<br>------ ------- -------- --- ---- -- ------- ------------ --<br>------ -- ---- -- --- ---- -- -------- -- --- ------ ------,296212.5,296212.2000000477,295856.636,295860.60000002384,295873.297,296223.297,,18,of
screen,html.Screen,2_3_1_0_1_19,2022-04-28T09:56:21.856Z,,,,,,,,,,,,,,,,,12,,,,,,,,,,,,,,348.9030000476632,,response,,,,5,D,,,,,,Space,keypress(Space),,,,speech,,,,---- ------ ------ ------- ------ --- ------- -----------<br>-- ----- --- ---- -- --- ------ ---- - ---- -- ingenuity.<br>-- ------ ---- --- ---- --- --- --- ----- -- -------- ---<br>------ ------- -------- --- ---- -- ------- ------------ --<br>------ -- ---- -- --- ---- -- -------- -- --- ------ ------,296572.60000002384,296572.2000000477,296206.621,296212.60000002384,296223.297,296602.24,,19,ingenuity.
screen,html.Screen,2_3_1_0_1_20,2022-04-28T09:56:22.288Z,,,,,,,,,,,,,,,,,12,,,,,,,,,,,,,,401.96000004769303,,response,,,,5,D,,,,,,Space,keypress(Space),,,,speech,,,,---- ------ ------ ------- ------ --- ------- -----------<br>-- ----- --- ---- -- --- ------ ---- - ---- -- ----------<br>He ------ ---- --- ---- --- --- --- ----- -- -------- ---<br>------ ------- -------- --- ---- -- ------- ------------ --<br>------ -- ---- -- --- ---- -- -------- -- --- ------ ------,297004.5,297004.2000000477,296556.621,296572.7000000477,296602.24,297006.641,,20,He
screen,html.Screen,2_3_1_0_1_21,2022-04-28T09:56:23.048Z,,,,,,,,,,,,,,,,,12,,,,,,,,,,,,,,757.5590000476805,,response,,,,5,D,,,,,,Space,keypress(Space),,,,speech,,,,---- ------ ------ ------- ------ --- ------- -----------<br>-- ----- --- ---- -- --- ------ ---- - ---- -- ----------<br>-- walked ---- --- ---- --- --- --- ----- -- -------- ---<br>------ ------- -------- --- ---- -- ------- ------------ --<br>------ -- ---- -- --- ---- -- -------- -- --- ------ ------,297764.60000002384,297764.2000000477,296989.988,297004.7999999523,297006.641,297773.304,,21,walked
screen,html.Screen,2_3_1_0_1_22,2022-04-28T09:56:23.448Z,,,,,,,,,,,,,,,,,12,,,,,,,,,,,,,,390.99599995231256,,response,,,,5,D,,,,,,Space,keypress(Space),,,,speech,,,,---- ------ ------ ------- ------ --- ------- -----------<br>-- ----- --- ---- -- --- ------ ---- - ---- -- ----------<br>-- ------ into --- ---- --- --- --- ----- -- -------- ---<br>------ ------- -------- --- ---- -- ------- ------------ --<br>------ -- ---- -- --- ---- -- -------- -- --- ------ ------,298164.7000000477,298164.2999999523,297756.634,297764.60000002384,297773.304,298173.3,,22,into
screen,html.Screen,2_3_1_0_1_23,2022-04-28T09:56:23.680Z,,,,,,,,,,,,,,,,,12,,,,,,,,,,,,,,222.99999995232793,,response,,,,5,D,,,,,,Space,keypress(Space),,,,speech,,,,---- ------ ------ ------- ------ --- ------- -----------<br>-- ----- --- ---- -- --- ------ ---- - ---- -- ----------<br>-- ------ ---- his ---- --- --- --- ----- -- -------- ---<br>------ ------- -------- --- ---- -- ------- ------------ --<br>------ -- ---- -- --- ---- -- -------- -- --- ------ ------,298396.60000002384,298396.2999999523,298156.624,298164.7000000477,298173.3,298406.637,,23,his
screen,html.Screen,2_3_1_0_1_24,2022-04-28T09:56:24.064Z,,,,,,,,,,,,,,,,,12,,,,,,,,,,,,,,373.5630000476958,,response,,,,5,D,,,,,,Space,keypress(Space),,,,speech,,,,---- ------ ------ ------- ------ --- ------- -----------<br>-- ----- --- ---- -- --- ------ ---- - ---- -- ----------<br>-- ------ ---- --- bank --- --- --- ----- -- -------- ---<br>------ ------- -------- --- ---- -- ------- ------------ --<br>------ -- ---- -- --- ---- -- -------- -- --- ------ ------,298780.60000002384,298780.2000000477,298389.962,298396.7000000477,298406.637,298789.98,,24,bank
screen,html.Screen,2_3_1_0_1_25,2022-04-28T09:56:24.344Z,,,,,,,,,,,,,,,,,12,,,,,,,,,,,,,,270.22000004770234,,response,,,,5,D,,,,,,Space,keypress(Space),,,,speech,,,,---- ------ ------ ------- ------ --- ------- -----------<br>-- ----- --- ---- -- --- ------ ---- - ---- -- ----------<br>-- ------ ---- --- ---- one --- --- ----- -- -------- ---<br>------ ------- -------- --- ---- -- ------- ------------ --<br>------ -- ---- -- --- ---- -- -------- -- --- ------ ------,299060.7000000477,299060.2000000477,298773.307,298780.7000000477,298789.98,299073.308,,25,one
screen,html.Screen,2_3_1_0_1_26,2022-04-28T09:56:24.672Z,,,,,,,,,,,,,,,,,12,,,,,,,,,,,,,,314.8920000476646,,response,,,,5,D,,,,,,Space,keypress(Space),,,,speech,,,,---- ------ ------ ------- ------ --- ------- -----------<br>-- ----- --- ---- -- --- ------ ---- - ---- -- ----------<br>-- ------ ---- --- ---- --- day --- ----- -- -------- ---<br>------ ------- -------- --- ---- -- ------- ------------ --<br>------ -- ---- -- --- ---- -- -------- -- --- ------ ------,299388.7000000477,299388.2000000477,299056.63,299060.7000000477,299073.308,299389.991,,26,day
screen,html.Screen,2_3_1_0_1_27,2022-04-28T09:56:25.131Z,,,,,,,,,,,,,,,,,12,,,,,,,,,,,,,,456.70900004770374,,response,,,,5,D,,,,,,Space,keypress(Space),,,,speech,,,,---- ------ ------ ------- ------ --- ------- -----------<br>-- ----- --- ---- -- --- ------ ---- - ---- -- ----------<br>-- ------ ---- --- ---- --- --- and ----- -- -------- ---<br>------ ------- -------- --- ---- -- ------- ------------ --<br>------ -- ---- -- --- ---- -- -------- -- --- ------ ------,299847.10000002384,299846.7000000477,299373.301,299388.7000000477,299389.991,299856.642,,27,and
screen,html.Screen,2_3_1_0_1_28,2022-04-28T09:56:25.472Z,,,,,,,,,,,,,,,,,12,,,,,,,,,,,,,,331.55800004769117,,response,,,,5,D,,,,,,Space,keypress(Space),,,,speech,,,,---- ------ ------ ------- ------ --- ------- -----------<br>-- ----- --- ---- -- --- ------ ---- - ---- -- ----------<br>-- ------ ---- --- ---- --- --- --- asked -- -------- ---<br>------ ------- -------- --- ---- -- ------- ------------ --<br>------ -- ---- -- --- ---- -- -------- -- --- ------ ------,300188.60000002384,300188.2000000477,299839.967,299847.10000002384,299856.642,300189.988,,28,asked
screen,html.Screen,2_3_1_0_1_29,2022-04-28T09:56:26.232Z,,,,,,,,,,,,,,,,,12,,,,,,,,,,,,,,758.2120000476716,,response,,,,5,D,,,,,,Space,keypress(Space),,,,speech,,,,---- ------ ------ ------- ------ --- ------- -----------<br>-- ----- --- ---- -- --- ------ ---- - ---- -- ----------<br>-- ------ ---- --- ---- --- --- --- ----- to -------- ---<br>------ ------- -------- --- ---- -- ------- ------------ --<br>------ -- ---- -- --- ---- -- -------- -- --- ------ ------,300948.60000002384,300948.2000000477,300173.314,300188.60000002384,300189.988,300956.644,,29,to
screen,html.Screen,2_3_1_0_1_30,2022-04-28T09:56:26.744Z,,,,,,,,,,,,,,,,,12,,,,,,,,,,,,,,503.5560000477126,,response,,,,5,D,,,,,,Space,keypress(Space),,,,speech,,,,---- ------ ------ ------- ------ --- ------- -----------<br>-- ----- --- ---- -- --- ------ ---- - ---- -- ----------<br>-- ------ ---- --- ---- --- --- --- ----- -- withdraw ---<br>------ ------- -------- --- ---- -- ------- ------------ --<br>------ -- ---- -- --- ---- -- -------- -- --- ------ ------,301460.60000002384,301460.2000000477,300939.957,300948.7000000477,300956.644,301473.316,,30,withdraw
screen,html.Screen,2_3_1_0_1_31,2022-04-28T09:56:27.872Z,,,,,,,,,,,,,,,,,12,,,,,,,,,,,,,,1114.9839999523247,,response,,,,5,D,,,,,,Space,keypress(Space),,,,speech,,,,---- ------ ------ ------- ------ --- ------- -----------<br>-- ----- --- ---- -- --- ------ ---- - ---- -- ----------<br>-- ------ ---- --- ---- --- --- --- ----- -- -------- his<br>------ ------- -------- --- ---- -- ------- ------------ --<br>------ -- ---- -- --- ---- -- -------- -- --- ------ ------,302588.60000002384,302588.2999999523,301456.64,301460.7000000477,301473.316,302590.003,,31,his
screen,html.Screen,2_3_1_0_1_32,2022-04-28T09:56:28.225Z,,,,,,,,,,,,,,,,,12,,,,,,,,,,,,,,350.2969999522902,,response,,,,5,D,,,,,,Space,keypress(Space),,,,speech,,,,---- ------ ------ ------- ------ --- ------- -----------<br>-- ----- --- ---- -- --- ------ ---- - ---- -- ----------<br>-- ------ ---- --- ---- --- --- --- ----- -- -------- ---<br>entire ------- -------- --- ---- -- ------- ------------ --<br>------ -- ---- -- --- ---- -- -------- -- --- ------ ------,302940.7999999523,302940.2999999523,302573.271,302588.60000002384,302590.003,302956.65,,32,entire
screen,html.Screen,2_3_1_0_1_33,2022-04-28T09:56:28.528Z,,,,,,,,,,,,,,,,,12,,,,,,,,,,,,,,287.55000004766043,,response,,,,5,D,,,,,,Space,keypress(Space),,,,speech,,,,---- ------ ------ ------- ------ --- ------- -----------<br>-- ----- --- ---- -- --- ------ ---- - ---- -- ----------<br>-- ------ ---- --- ---- --- --- --- ----- -- -------- ---<br>------ account -------- --- ---- -- ------- ------------ --<br>------ -- ---- -- --- ---- -- -------- -- --- ------ ------,303244.60000002384,303244.2000000477,302939.986,302940.89999997616,302956.65,303256.649,,33,account
screen,html.Screen,2_3_1_0_1_34,2022-04-28T09:56:29.112Z,,,,,,,,,,,,,,,,,12,,,,,,,,,,,,,,571.6509999523405,,response,,,,5,D,,,,,,Space,keypress(Space),,,,speech,,,,"---- ------ ------ ------- ------ --- ------- -----------<br>-- ----- --- ---- -- --- ------ ---- - ---- -- ----------<br>-- ------ ---- --- ---- --- --- --- ----- -- -------- ---<br>------ ------- balance, --- ---- -- ------- ------------ --<br>------ -- ---- -- --- ---- -- -------- -- --- ------ ------",303828.60000002384,303828.2999999523,303239.983,303244.60000002384,303256.649,303839.993,,34,"balance,"
screen,html.Screen,2_3_1_0_1_35,2022-04-28T09:56:29.720Z,,,,,,,,,,,,,,,,,12,,,,,,,,,,,,,,596.207000047667,,response,,,,5,D,,,,,,Space,keypress(Space),,,,speech,,,,---- ------ ------ ------- ------ --- ------- -----------<br>-- ----- --- ---- -- --- ------ ---- - ---- -- ----------<br>-- ------ ---- --- ---- --- --- --- ----- -- -------- ---<br>------ ------- -------- but ---- -- ------- ------------ --<br>------ -- ---- -- --- ---- -- -------- -- --- ------ ------,304436.5,304436.2000000477,303823.312,303828.7000000477,303839.993,304440.01,,35,but
screen,html.Screen,2_3_1_0_1_36,2022-04-28T09:56:30.288Z,,,,,,,,,,,,,,,,,12,,,,,,,,,,,,,,564.289999952307,,response,,,,5,D,,,,,,Space,keypress(Space),,,,speech,,,,---- ------ ------ ------- ------ --- ------- -----------<br>-- ----- --- ---- -- --- ------ ---- - ---- -- ----------<br>-- ------ ---- --- ---- --- --- --- ----- -- -------- ---<br>------ ------- -------- --- with -- ------- ------------ --<br>------ -- ---- -- --- ---- -- -------- -- --- ------ ------,305004.60000002384,305004.2999999523,304423.295,304436.60000002384,304440.01,305006.664,,36,with
screen,html.Screen,2_3_1_0_1_37,2022-04-28T09:56:30.753Z,,,,,,,,,,,,,,,,,12,,,,,,,,,,,,,,461.7359999761684,,response,,,,5,D,,,,,,Space,keypress(Space),,,,speech,,,,---- ------ ------ ------- ------ --- ------- -----------<br>-- ----- --- ---- -- --- ------ ---- - ---- -- ----------<br>-- ------ ---- --- ---- --- --- --- ----- -- -------- ---<br>------ ------- -------- --- ---- an ------- ------------ --<br>------ -- ---- -- --- ---- -- -------- -- --- ------ ------,305468.7999999523,305468.39999997616,304989.974,305004.7000000477,305006.664,305473.317,,37,an
screen,html.Screen,2_3_1_0_1_38,2022-04-28T09:56:31.304Z,,,,,,,,,,,,,,,,,12,,,,,,,,,,,,,,546.9829999523354,,response,,,,5,D,,,,,,Space,keypress(Space),,,,speech,,,,---- ------ ------ ------- ------ --- ------- -----------<br>-- ----- --- ---- -- --- ------ ---- - ---- -- ----------<br>-- ------ ---- --- ---- --- --- --- ----- -- -------- ---<br>------ ------- -------- --- ---- -- unusual ------------ --<br>------ -- ---- -- --- ---- -- -------- -- --- ------ ------,306020.7000000477,306020.2999999523,305456.662,305468.7999999523,305473.317,306023.33,,38,unusual
screen,html.Screen,2_3_1_0_1_39,2022-04-28T09:56:31.960Z,,,,,,,,,,,,,,,,,12,,,,,,,,,,,,,,652.9699999523,,response,,,,5,D,,,,,,Space,keypress(Space),,,,speech,,,,---- ------ ------ ------- ------ --- ------- -----------<br>-- ----- --- ---- -- --- ------ ---- - ---- -- ----------<br>-- ------ ---- --- ---- --- --- --- ----- -- -------- ---<br>------ ------- -------- --- ---- -- ------- stipulation: --<br>------ -- ---- -- --- ---- -- -------- -- --- ------ ------,306676.5,306676.2999999523,306006.644,306020.7999999523,306023.33,306689.997,,39,stipulation:
screen,html.Screen,2_3_1_0_1_40,2022-04-28T09:56:32.448Z,,,,,,,,,,,,,,,,,12,,,,,,,,,,,,,,474.2030000477098,,response,,,,5,D,,,,,,Space,keypress(Space),,,,speech,,,,---- ------ ------ ------- ------ --- ------- -----------<br>-- ----- --- ---- -- --- ------ ---- - ---- -- ----------<br>-- ------ ---- --- ---- --- --- --- ----- -- -------- ---<br>------ ------- -------- --- ---- -- ------- ------------ He<br>------ -- ---- -- --- ---- -- -------- -- --- ------ ------,307164.60000002384,307164.2000000477,306673.3,306676.7000000477,306689.997,307173.327,,40,He
screen,html.Screen,2_3_1_0_1_41,2022-04-28T09:56:32.672Z,,,,,,,,,,,,,,,,,12,,,,,,,,,,,,,,214.97299995232606,,response,,,,5,D,,,,,,Space,keypress(Space),,,,speech,,,,---- ------ ------ ------- ------ --- ------- -----------<br>-- ----- --- ---- -- --- ------ ---- - ---- -- ----------<br>-- ------ ---- --- ---- --- --- --- ----- -- -------- ---<br>------ ------- -------- --- ---- -- ------- ------------ --<br>wanted -- ---- -- --- ---- -- -------- -- --- ------ ------,307388.60000002384,307388.2999999523,307156.647,307164.7999999523,307173.327,307390.009,,41,wanted
screen,html.Screen,2_3_1_0_1_42,2022-04-28T09:56:32.848Z,,,,,,,,,,,,,,,,,12,,,,,,,,,,,,,,174.1910000476637,,response,,,,5,D,,,,,,Space,keypress(Space),,,,speech,,,,---- ------ ------ ------- ------ --- ------- -----------<br>-- ----- --- ---- -- --- ------ ---- - ---- -- ----------<br>-- ------ ---- --- ---- --- --- --- ----- -- -------- ---<br>------ ------- -------- --- ---- -- ------- ------------ --<br>------ as ---- -- --- ---- -- -------- -- --- ------ ------,307564.60000002384,307564.2000000477,307373.319,307388.7000000477,307390.009,307573.324,,42,as
