sender,sender_type,sender_id,timestamp,meta,,Blues,Classical,Country,Dance,Electronic,Folk,Gospel,Hip-Hop,Jazz,Latin,Musical/Film,New-age,Pop,Prolific_id,Provo_ID,R&B,Rap,Reggae,Religious,Rock,Soul,Swing,Traditional,age,artist_name,correct,correctResponse,distraction,duration,education,ended_on,familiarity,gender,headphone_check_performance,item,list,music_frequency,offensiveness,pleasantness,position_correct,preference,response,response_action,snippet_file,song_name,song_rating,sound,stimulus_1,stimulus_2,stimulus_3,text,time_commit,time_end,time_render,time_run,time_show,time_switch,url,word,word_ID
Prolific ID,html.Form,0,2022-05-03T13:20:34.428Z,"{""labjs_version"":""20.2.2"",""labjs_build"":{""flavor"":""production"",""commit"":""a25486e0c714a0ae2ce03ff94b7bb6896854dcfa""},""location"":""https://run.pavlovia.org/mvasilev/prolific3_music_h/"",""userAgent"":""Mozilla/5.0 (Windows NT 10.0; Win64; x64) AppleWebKit/537.36 (KHTML, like Gecko) Chrome/100.0.4896.127 Safari/537.36"",""platform"":""Win32"",""language"":""en-US"",""locale"":""en-US"",""timeZone"":""Europe/London"",""timezoneOffset"":-60,""screen_width"":1920,""screen_height"":1080,""scroll_width"":1920,""scroll_height"":903,""window_innerWidth"":1920,""window_innerHeight"":951,""devicePixelRatio"":1}",,,,,,,,,,,,,,,568906cad7848e000b399eab,,,,,,,,,,,,,,,10495.033000143052,,form submission,,,,,,,,,,,,,,,,,,,,,15016.300000190735,15016.100000143051,4484.472,4500.100000143051,4521.067,15018.01,{},,
Introduction,html.Screen,1_0,2022-05-03T13:20:38.078Z,,,,,,,,,,,,,,,,,,,,,,,,,,,,,,,3647.390000095367,,response,,,,,,,,,,,continue,click button,,,,,,,,,18666.5,18665.400000095367,15001.342,15016.5,15018.01,18668.062,,,
Volume calibration,html.Screen,1_1,2022-05-03T13:20:45.028Z,,,,,,,,,,,,,,,,,,,,,,,,,,,,,,,6947.238000190733,,response,,,,,,,,,,,continue,click button,,,,,,,,,25617,25615.300000190735,18651.369,18666.60000014305,18668.062,25618.196,,,
Task instructions,html.Screen,1_2,2022-05-03T13:20:49.487Z,,,,,,,,,,,,,,,,,,,,,,,,,,,,,,,4457.304,,response,,,,,,,,,,,continue,click button,,,,,,,,,30075.900000095367,30075.5,25601.534,25617.10000014305,25618.196,30084.892,,,
Sounds,html.Screen,1_3_0_0,2022-05-03T13:20:53.731Z,,,,,,,,,,,,,,,,,,,,,,,,,,,,,,,4250.084999999999,,timeout,,,,,,,,,2,,,,,,,,I,S,O,,34319.300000190735,34318.3,30068.261,30076,30084.892,34334.977,,,
Judgement,html.Screen,1_3_0_1,2022-05-03T13:20:55.733Z,,,,,,,,,,,,,,,,,,,,,,,,,,,,true,2,,1986.4230000953685,,response,,,,,,,,,2,,2,click #choice-2,,,,,I,S,O,,36321.800000190735,36321.40000009537,34318.3,34319.5,34334.977,36335.025,,,
Trial,flow.Sequence,1_3_0,2022-05-03T13:20:55.733Z,,,,,,,,,,,,,,,,,,,,,,,,,,,,,,,6236.508000095368,,completion,,,,,,,,,2,,,,,,,,I,S,O,,36322,36321.40000009537,30068.261,30076,30084.892,36335.025,,,
Sounds,html.Screen,1_3_1_0,2022-05-03T13:20:59.980Z,,,,,,,,,,,,,,,,,,,,,,,,,,,,,,,4250.053999999996,,timeout,,,,,,,,,3,,,,,,,,I,O,S,,40569,40568.415,36318.328,36322,36335.025,40585.079,,,
Judgement,html.Screen,1_3_1_1,2022-05-03T13:21:00.401Z,,,,,,,,,,,,,,,,,,,,,,,,,,,,true,3,,404.22100019073696,,response,,,,,,,,,3,,3,click #choice-3,,,,,I,O,S,,40990,40989.300000190735,40568.415,40569.10000014305,40585.079,41001.734,,,
Trial,flow.Sequence,1_3_1,2022-05-03T13:21:00.402Z,,,,,,,,,,,,,,,,,,,,,,,,,,,,,,,4654.275000190733,,completion,,,,,,,,,3,,,,,,,,I,O,S,,40990.200000047684,40989.300000190735,36318.328,36322,36335.025,41001.734,,,
Sounds,html.Screen,1_3_2_0,2022-05-03T13:21:04.647Z,,,,,,,,,,,,,,,,,,,,,,,,,,,,,,,4250.081000000006,,timeout,,,,,,,,,2,,,,,,,,O,S,I,,45235.60000014305,45235.175,40985.076,40990.300000190735,41001.734,45251.815,,,
Judgement,html.Screen,1_3_2_1,2022-05-03T13:21:05.099Z,,,,,,,,,,,,,,,,,,,,,,,,,,,,true,2,,435.6849999999977,,response,,,,,,,,,2,,2,click #choice-2,,,,,O,S,I,,45688,45687.5,45235.175,45235.700000047684,45251.815,45701.824,,,
Trial,flow.Sequence,1_3_2,2022-05-03T13:21:05.100Z,,,,,,,,,,,,,,,,,,,,,,,,,,,,,,,4685.766000000003,,completion,,,,,,,,,2,,,,,,,,O,S,I,,45688.10000014305,45687.5,40985.076,40990.300000190735,41001.734,45701.824,,,
Sounds,html.Screen,1_3_3_0,2022-05-03T13:21:09.347Z,,,,,,,,,,,,,,,,,,,,,,,,,,,,,,,4250.089,,timeout,,,,,,,,,1,,,,,,,,S,O,I,,49935.800000190735,49935.23,45685.16,45688.200000047684,45701.824,49951.913,,,
Judgement,html.Screen,1_3_3_1,2022-05-03T13:21:09.887Z,,,,,,,,,,,,,,,,,,,,,,,,,,,,true,1,,523.3870001907344,,response,,,,,,,,,1,,1,click #choice-1,,,,,S,O,I,,50475.800000190735,50475.300000190735,49935.23,49935.90000009537,49951.913,50485.309,,,
Trial,flow.Sequence,1_3_3,2022-05-03T13:21:09.887Z,,,,,,,,,,,,,,,,,,,,,,,,,,,,,,,4773.476000190734,,completion,,,,,,,,,1,,,,,,,,S,O,I,,50475.90000009537,50475.300000190735,45685.16,45688.200000047684,45701.824,50485.309,,,
Sounds,html.Screen,1_3_4_0,2022-05-03T13:21:14.131Z,,,,,,,,,,,,,,,,,,,,,,,,,,,,,,,4249.995999999999,,timeout,,,,,,,,,3,,,,,,,,O,I,S,,54719.200000047684,54718.668,50468.567,50475.90000009537,50485.309,54735.305,,,
Judgement,html.Screen,1_3_4_1,2022-05-03T13:21:14.805Z,,,,,,,,,,,,,,,,,,,,,,,,,,,,true,3,,657.9950001907346,,response,,,,,,,,,3,,3,click #choice-3,,,,,O,I,S,,55393.700000047684,55393.300000190735,54718.668,54719.300000190735,54735.305,55402.024,,,
Trial,flow.Sequence,1_3_4,2022-05-03T13:21:14.805Z,,,,,,,,,,,,,,,,,,,,,,,,,,,,,,,4907.991000190734,,completion,,,,,,,,,3,,,,,,,,O,I,S,,55393.800000190735,55393.300000190735,50468.567,50475.90000009537,50485.309,55402.024,,,
Sounds,html.Screen,1_3_5_0,2022-05-03T13:21:19.047Z,,,,,,,,,,,,,,,,,,,,,,,,,,,,,,,4250.067000000003,,timeout,,,,,,,,,1,,,,,,,,S,I,O,,59636.10000014305,59635.401,55385.329,55393.90000009537,55402.024,59652.091,,,
Judgement,html.Screen,1_3_5_1,2022-05-03T13:21:19.731Z,,,,,,,,,,,,,,,,,,,,,,,,,,,,true,1,,667.2090001907345,,response,,,,,,,,,1,,1,click #choice-1,,,,,S,I,O,,60319.90000009537,60319.300000190735,59635.401,59636.200000047684,59652.091,60335.396,,,
Trial,flow.Sequence,1_3_5,2022-05-03T13:21:19.731Z,,,,,,,,,,,,,,,,,,,,,,,,,,,,,,,4917.276000190737,,completion,,,,,,,,,1,,,,,,,,S,I,O,,60320,60319.300000190735,55385.329,55393.90000009537,55402.024,60335.396,,,
Task,flow.Loop,1_3,2022-05-03T13:21:19.733Z,,,,,,,,,,,,,,,,,,,,,,,,,,,,,,,30234.408000190735,,completion,,,1,,,,,,,,,,,,,,,,,,60322.40000009537,60319.300000190735,30068.261,30076,30084.892,60335.396,,,
Trap,html.Screen,1_4,2022-05-03T13:21:19.734Z,,,,,,,,,,,,,,,,,,,,,,,,,,,,,,,NaN,,skipped,,,,,,,,,,,,,,,,,,,,,60323,60319.300000190735,,60322.90000009537,,60335.396,,,
Thanks,html.Screen,1_5,2022-05-03T13:21:22.203Z,,,,,,,,,,,,,,,,,,,,,,,,,,,,,,,2455.904000190734,,response,,,,,,,,,,,continue,click button,,,,,,,,,62791.800000190735,62791.300000190735,60318.739,60323.10000014305,60335.396,65218.848,,,
Headphone screening,flow.Sequence,1,2022-05-03T13:21:22.203Z,,,,,,,,,,,,,,,,,,,,,,,,,,,,,,,47773.29000019073,,completion,,,,,,,,,,,,,,,,,,,,,62791.90000009537,62791.300000190735,15001.342,15016.5,15018.01,65218.848,,,
Instructions,html.Page,2_0,2022-05-03T13:21:30.728Z,,,,,,,,,,,,,,,,,,,,,,,,,,,,,,,6097.452000190737,,form submission,,,,,,,,,,,,,,,,,,,,,71316.5,71316.30000019073,65202.157,65219.800000190735,65218.848,71318.946,,,
Holding screen,html.Screen,2_1_0_0,2022-05-03T13:21:40.714Z,,,,,,,,,,,,,,,,,,,,,,,,,,,,,,,10000.129,,timeout,,,,,,,,,,,,,,,,,,,,,81302.70000004768,81302.408,71302.243,71316.60000014305,71318.946,81319.075,,,
screen,html.Screen,2_1_0_1_0,2022-05-03T13:21:42.162Z,,,,,,,,,,,,,,,,,53,,,,,,,,,,,,,,1430.425000000003,,response,,,,99,,,,,,,Space,keypress(Space),,,,,,,,When -- ----- -- ------ - ------- --- ----------<br>------------- ------ ------ ---- ---- ------- ----- -- ----<br>-------- ------- -- ---------- --- - --- ----- ----- ----<br>---- --- --- ----- --- ---- ---- ------- ----- ---- -------<br>--- --- -- ----- -- --- ---- -- --- ---- -- ------ ------<br>--- ----- -- ----,82751.20000004768,82749.5,81302.408,81302.80000019073,81319.075,82752.467,,0,When
screen,html.Screen,2_1_0_1_1,2022-05-03T13:21:42.732Z,,,,,,,,,,,,,,,,,53,,,,,,,,,,,,,,567.9330000953632,,response,,,,99,,,,,,,Space,keypress(Space),,,,,,,,---- it ----- -- ------ - ------- --- ----------<br>------------- ------ ------ ---- ---- ------- ----- -- ----<br>-------- ------- -- ---------- --- - --- ----- ----- ----<br>---- --- --- ----- --- ---- ---- ------- ----- ---- -------<br>--- --- -- ----- -- --- ---- -- --- ---- -- ------ ------<br>--- ----- -- ----,83320.80000019073,83320.40000009537,82735.764,82751.20000004768,82752.467,83335.811,,1,it
screen,html.Screen,2_1_0_1_2,2022-05-03T13:21:43.173Z,,,,,,,,,,,,,,,,,53,,,,,,,,,,,,,,425.5890000953659,,response,,,,99,,,,,,,Space,keypress(Space),,,,,,,,---- -- comes -- ------ - ------- --- ----------<br>------------- ------ ------ ---- ---- ------- ----- -- ----<br>-------- ------- -- ---------- --- - --- ----- ----- ----<br>---- --- --- ----- --- ---- ---- ------- ----- ---- -------<br>--- --- -- ----- -- --- ---- -- --- ---- -- ------ ------<br>--- ----- -- ----,83761.80000019073,83761.40000009537,83319.104,83321,83335.811,83769.114,,2,comes
screen,html.Screen,2_1_0_1_3,2022-05-03T13:21:43.541Z,,,,,,,,,,,,,,,,,53,,,,,,,,,,,,,,360.3859999999986,,response,,,,99,,,,,,,Space,keypress(Space),,,,,,,,---- -- ----- to ------ - ------- --- ----------<br>------------- ------ ------ ---- ---- ------- ----- -- ----<br>-------- ------- -- ---------- --- - --- ----- ----- ----<br>---- --- --- ----- --- ---- ---- ------- ----- ---- -------<br>--- --- -- ----- -- --- ---- -- --- ---- -- ------ ------<br>--- ----- -- ----,84129.80000019073,84129.5,83752.434,83761.80000019073,83769.114,84135.787,,3,to
screen,html.Screen,2_1_0_1_4,2022-05-03T13:21:44.139Z,,,,,,,,,,,,,,,,,53,,,,,,,,,,,,,,591.7130000000034,,response,,,,99,,,,,,,Space,keypress(Space),,,,,,,,---- -- ----- -- having - ------- --- ----------<br>------------- ------ ------ ---- ---- ------- ----- -- ----<br>-------- ------- -- ---------- --- - --- ----- ----- ----<br>---- --- --- ----- --- ---- ---- ------- ----- ---- -------<br>--- --- -- ----- -- --- ---- -- --- ---- -- ------ ------<br>--- ----- -- ----,84727.80000019073,84727.5,84119.113,84129.90000009537,84135.787,84735.803,,4,having
screen,html.Screen,2_1_0_1_5,2022-05-03T13:21:44.833Z,,,,,,,,,,,,,,,,,53,,,,,,,,,,,,,,685.6970000000001,,response,,,,99,,,,,,,Space,keypress(Space),,,,,,,,---- -- ----- -- ------ a ------- --- ----------<br>------------- ------ ------ ---- ---- ------- ----- -- ----<br>-------- ------- -- ---------- --- - --- ----- ----- ----<br>---- --- --- ----- --- ---- ---- ------- ----- ---- -------<br>--- --- -- ----- -- --- ---- -- --- ---- -- ------ ------<br>--- ----- -- ----,85422,85421.5,84719.12,84727.80000019073,84735.803,85435.809,,5,a
screen,html.Screen,2_1_0_1_6,2022-05-03T13:21:45.421Z,,,,,,,,,,,,,,,,,53,,,,,,,,,,,,,,573.6910000000062,,response,,,,99,,,,,,,Space,keypress(Space),,,,,,,,---- -- ----- -- ------ - lasting --- ----------<br>------------- ------ ------ ---- ---- ------- ----- -- ----<br>-------- ------- -- ---------- --- - --- ----- ----- ----<br>---- --- --- ----- --- ---- ---- ------- ----- ---- -------<br>--- --- -- ----- -- --- ---- -- --- ---- -- ------ ------<br>--- ----- -- ----,86010,86009.5,85419.125,85422.70000004768,85435.809,86019.153,,6,lasting
screen,html.Screen,2_1_0_1_7,2022-05-03T13:21:45.737Z,,,,,,,,,,,,,,,,,53,,,,,,,,,,,,,,306.3469999999943,,response,,,,99,,,,,,,Space,keypress(Space),,,,,,,,---- -- ----- -- ------ - ------- and ----------<br>------------- ------ ------ ---- ---- ------- ----- -- ----<br>-------- ------- -- ---------- --- - --- ----- ----- ----<br>---- --- --- ----- --- ---- ---- ------- ----- ---- -------<br>--- --- -- ----- -- --- ---- -- --- ---- -- ------ ------<br>--- ----- -- ----,86325.90000009537,86325.5,86002.473,86010,86019.153,86335.828,,7,and
screen,html.Screen,2_1_0_1_8,2022-05-03T13:21:46.278Z,,,,,,,,,,,,,,,,,53,,,,,,,,,,,,,,530.6720000000059,,response,,,,99,,,,,,,Space,keypress(Space),,,,,,,,---- -- ----- -- ------ - ------- --- fulfilling<br>------------- ------ ------ ---- ---- ------- ----- -- ----<br>-------- ------- -- ---------- --- - --- ----- ----- ----<br>---- --- --- ----- --- ---- ---- ------- ----- ---- -------<br>--- --- -- ----- -- --- ---- -- --- ---- -- ------ ------<br>--- ----- -- ----,86866.80000019073,86866.5,86319.149,86325.90000009537,86335.828,86869.177,,8,fulfilling
screen,html.Screen,2_1_0_1_9,2022-05-03T13:21:46.947Z,,,,,,,,,,,,,,,,,53,,,,,,,,,,,,,,666.323000000004,,response,,,,99,,,,,,,Space,keypress(Space),,,,,,,,"---- -- ----- -- ------ - ------- --- ----------<br>relationship, ------ ------ ---- ---- ------- ----- -- ----<br>-------- ------- -- ---------- --- - --- ----- ----- ----<br>---- --- --- ----- --- ---- ---- ------- ----- ---- -------<br>--- --- -- ----- -- --- ---- -- --- ---- -- ------ ------<br>--- ----- -- ----",87535.90000009537,87535.5,86852.504,86866.90000009537,86869.177,87552.533,,9,"relationship,"
screen,html.Screen,2_1_0_1_10,2022-05-03T13:21:47.376Z,,,,,,,,,,,,,,,,,53,,,,,,,,,,,,,,411.9670000000042,,response,,,,99,,,,,,,Space,keypress(Space),,,,,,,,---- -- ----- -- ------ - ------- --- ----------<br>------------- common ------ ---- ---- ------- ----- -- ----<br>-------- ------- -- ---------- --- - --- ----- ----- ----<br>---- --- --- ----- --- ---- ---- ------- ----- ---- -------<br>--- --- -- ----- -- --- ---- -- --- ---- -- ------ ------<br>--- ----- -- ----,87964.90000009537,87964.5,87535.827,87536,87552.533,87969.184,,10,common
screen,html.Screen,2_1_0_1_11,2022-05-03T13:21:47.768Z,,,,,,,,,,,,,,,,,53,,,,,,,,,,,,,,387.31600000000617,,response,,,,99,,,,,,,Space,keypress(Space),,,,,,,,---- -- ----- -- ------ - ------- --- ----------<br>------------- ------ wisdom ---- ---- ------- ----- -- ----<br>-------- ------- -- ---------- --- - --- ----- ----- ----<br>---- --- --- ----- --- ---- ---- ------- ----- ---- -------<br>--- --- -- ----- -- --- ---- -- --- ---- -- ------ ------<br>--- ----- -- ----,88356.80000019073,88356.5,87952.516,87964.90000009537,87969.184,88369.212,,11,wisdom
screen,html.Screen,2_1_0_1_12,2022-05-03T13:21:48.112Z,,,,,,,,,,,,,,,,,53,,,,,,,,,,,,,,331.3880001430516,,response,,,,99,,,,,,,Space,keypress(Space),,,,,,,,---- -- ----- -- ------ - ------- --- ----------<br>------------- ------ ------ says ---- ------- ----- -- ----<br>-------- ------- -- ---------- --- - --- ----- ----- ----<br>---- --- --- ----- --- ---- ---- ------- ----- ---- -------<br>--- --- -- ----- -- --- ---- -- --- ---- -- ------ ------<br>--- ----- -- ----,88700.90000009537,88700.60000014305,88352.519,88356.90000009537,88369.212,88702.553,,12,says
screen,html.Screen,2_1_0_1_13,2022-05-03T13:21:48.470Z,,,,,,,,,,,,,,,,,53,,,,,,,,,,,,,,355.9470000000001,,response,,,,99,,,,,,,Space,keypress(Space),,,,,,,,---- -- ----- -- ------ - ------- --- ----------<br>------------- ------ ------ ---- that ------- ----- -- ----<br>-------- ------- -- ---------- --- - --- ----- ----- ----<br>---- --- --- ----- --- ---- ---- ------- ----- ---- -------<br>--- --- -- ----- -- --- ---- -- --- ---- -- ------ ------<br>--- ----- -- ----,89058.80000019073,89058.5,88685.857,88700.90000009537,88702.553,89069.24,,13,that
screen,html.Screen,2_1_0_1_14,2022-05-03T13:21:48.877Z,,,,,,,,,,,,,,,,,53,,,,,,,,,,,,,,396.25999999999476,,response,,,,99,,,,,,,Space,keypress(Space),,,,,,,,---- -- ----- -- ------ - ------- --- ----------<br>------------- ------ ------ ---- ---- feeling ----- -- ----<br>-------- ------- -- ---------- --- - --- ----- ----- ----<br>---- --- --- ----- --- ---- ---- ------- ----- ---- -------<br>--- --- -- ----- -- --- ---- -- --- ---- -- ------ ------<br>--- ----- -- ----,89465.90000009537,89465.5,89052.533,89058.90000009537,89069.24,89469.216,,14,feeling
screen,html.Screen,2_1_0_1_15,2022-05-03T13:21:49.224Z,,,,,,,,,,,,,,,,,53,,,,,,,,,,,,,,343.1840000953671,,response,,,,99,,,,,,,Space,keypress(Space),,,,,,,,---- -- ----- -- ------ - ------- --- ----------<br>------------- ------ ------ ---- ---- ------- close -- ----<br>-------- ------- -- ---------- --- - --- ----- ----- ----<br>---- --- --- ----- --- ---- ---- ------- ----- ---- -------<br>--- --- -- ----- -- --- ---- -- --- ---- -- ------ ------<br>--- ----- -- ----,89812.80000019073,89812.40000009537,89452.541,89465.90000009537,89469.216,89819.216,,15,close
screen,html.Screen,2_1_0_1_16,2022-05-03T13:21:49.599Z,,,,,,,,,,,,,,,,,53,,,,,,,,,,,,,,368.28399999999965,,response,,,,99,,,,,,,Space,keypress(Space),,,,,,,,---- -- ----- -- ------ - ------- --- ----------<br>------------- ------ ------ ---- ---- ------- ----- to ----<br>-------- ------- -- ---------- --- - --- ----- ----- ----<br>---- --- --- ----- --- ---- ---- ------- ----- ---- -------<br>--- --- -- ----- -- --- ---- -- --- ---- -- ------ ------<br>--- ----- -- ----,90187.80000019073,90187.5,89802.546,89812.90000009537,89819.216,90202.588,,16,to
screen,html.Screen,2_1_0_1_17,2022-05-03T13:21:50.120Z,,,,,,,,,,,,,,,,,53,,,,,,,,,,,,,,505.81200009536406,,response,,,,99,,,,,,,Space,keypress(Space),,,,,,,,---- -- ----- -- ------ - ------- --- ----------<br>------------- ------ ------ ---- ---- ------- ----- -- your<br>-------- ------- -- ---------- --- - --- ----- ----- ----<br>---- --- --- ----- --- ---- ---- ------- ----- ---- -------<br>--- --- -- ----- -- --- ---- -- --- ---- -- ------ ------<br>--- ----- -- ----,90708.80000019073,90708.40000009537,90185.918,90187.90000009537,90202.588,90719.23,,17,your
screen,html.Screen,2_1_0_1_18,2022-05-03T13:21:50.707Z,,,,,,,,,,,,,,,,,53,,,,,,,,,,,,,,576.2700000000041,,response,,,,99,,,,,,,Space,keypress(Space),,,,,,,,---- -- ----- -- ------ - ------- --- ----------<br>------------- ------ ------ ---- ---- ------- ----- -- ----<br>romantic ------- -- ---------- --- - --- ----- ----- ----<br>---- --- --- ----- --- ---- ---- ------- ----- ---- -------<br>--- --- -- ----- -- --- ---- -- --- ---- -- ------ ------<br>--- ----- -- ----,91295.80000019073,91295.5,90702.541,90708.90000009537,90719.23,91302.578,,18,romantic
screen,html.Screen,2_1_0_1_19,2022-05-03T13:21:51.152Z,,,,,,,,,,,,,,,,,53,,,,,,,,,,,,,,437.92200000000594,,response,,,,99,,,,,,,Space,keypress(Space),,,,,,,,---- -- ----- -- ------ - ------- --- ----------<br>------------- ------ ------ ---- ---- ------- ----- -- ----<br>-------- partner -- ---------- --- - --- ----- ----- ----<br>---- --- --- ----- --- ---- ---- ------- ----- ---- -------<br>--- --- -- ----- -- --- ---- -- --- ---- -- ------ ------<br>--- ----- -- ----,91740.90000009537,91740.5,91285.884,91295.80000019073,91302.578,91752.582,,19,partner
screen,html.Screen,2_1_0_1_20,2022-05-03T13:21:51.532Z,,,,,,,,,,,,,,,,,53,,,,,,,,,,,,,,367.9180000000051,,response,,,,99,,,,,,,Space,keypress(Space),,,,,,,,---- -- ----- -- ------ - ------- --- ----------<br>------------- ------ ------ ---- ---- ------- ----- -- ----<br>-------- ------- is ---------- --- - --- ----- ----- ----<br>---- --- --- ----- --- ---- ---- ------- ----- ---- -------<br>--- --- -- ----- -- --- ---- -- --- ---- -- ------ ------<br>--- ----- -- ----,92120.90000009537,92120.5,91735.9,91740.90000009537,91752.582,92135.928,,20,is
screen,html.Screen,2_1_0_1_21,2022-05-03T13:21:52.296Z,,,,,,,,,,,,,,,,,53,,,,,,,,,,,,,,748.9720000953675,,response,,,,99,,,,,,,Space,keypress(Space),,,,,,,,---- -- ----- -- ------ - ------- --- ----------<br>------------- ------ ------ ---- ---- ------- ----- -- ----<br>-------- ------- -- paramount. --- - --- ----- ----- ----<br>---- --- --- ----- --- ---- ---- ------- ----- ---- -------<br>--- --- -- ----- -- --- ---- -- --- ---- -- ------ ------<br>--- ----- -- ----,92885.30000019073,92884.90000009537,92119.238,92120.90000009537,92135.928,92917.097,,21,paramount.
screen,html.Screen,2_1_0_1_22,2022-05-03T13:21:52.724Z,,,,,,,,,,,,,,,,,53,,,,,,,,,,,,,,395.9030000000057,,response,,,,99,,,,,,,Space,keypress(Space),,,,,,,,---- -- ----- -- ------ - ------- --- ----------<br>------------- ------ ------ ---- ---- ------- ----- -- ----<br>-------- ------- -- ---------- But - --- ----- ----- ----<br>---- --- --- ----- --- ---- ---- ------- ----- ---- -------<br>--- --- -- ----- -- --- ---- -- --- ---- -- ------ ------<br>--- ----- -- ----,93313.5,93313,92869.243,92885.40000009537,92917.097,93319.278,,22,But
screen,html.Screen,2_1_0_1_23,2022-05-03T13:21:53.056Z,,,,,,,,,,,,,,,,,53,,,,,,,,,,,,,,325.32200014304544,,response,,,,99,,,,,,,Space,keypress(Space),,,,,,,,---- -- ----- -- ------ - ------- --- ----------<br>------------- ------ ------ ---- ---- ------- ----- -- ----<br>-------- ------- -- ---------- --- a --- ----- ----- ----<br>---- --- --- ----- --- ---- ---- ------- ----- ---- -------<br>--- --- -- ----- -- --- ---- -- --- ---- -- ------ ------<br>--- ----- -- ----,93645,93644.60000014305,93302.59,93313.60000014305,93319.278,93652.606,,23,a
screen,html.Screen,2_1_0_1_24,2022-05-03T13:21:53.422Z,,,,,,,,,,,,,,,,,53,,,,,,,,,,,,,,357.79400009536766,,response,,,,99,,,,,,,Space,keypress(Space),,,,,,,,---- -- ----- -- ------ - ------- --- ----------<br>------------- ------ ------ ---- ---- ------- ----- -- ----<br>-------- ------- -- ---------- --- - new ----- ----- ----<br>---- --- --- ----- --- ---- ---- ------- ----- ---- -------<br>--- --- -- ----- -- --- ---- -- --- ---- -- ------ ------<br>--- ----- -- ----,94010.70000004768,94010.40000009537,93635.942,93645.10000014305,93652.606,94019.292,,24,new
screen,html.Screen,2_1_0_1_25,2022-05-03T13:21:53.780Z,,,,,,,,,,,,,,,,,53,,,,,,,,,,,,,,349.2079999999987,,response,,,,99,,,,,,,Space,keypress(Space),,,,,,,,---- -- ----- -- ------ - ------- --- ----------<br>------------- ------ ------ ---- ---- ------- ----- -- ----<br>-------- ------- -- ---------- --- - --- study ----- ----<br>---- --- --- ----- --- ---- ---- ------- ----- ---- -------<br>--- --- -- ----- -- --- ---- -- --- ---- -- ------ ------<br>--- ----- -- ----,94368.80000019073,94368.5,94002.596,94010.80000019073,94019.292,94388.694,,25,study
screen,html.Screen,2_1_0_1_26,2022-05-03T13:21:54.218Z,,,,,,,,,,,,,,,,,53,,,,,,,,,,,,,,417.7060000953643,,response,,,,99,,,,,,,Space,keypress(Space),,,,,,,,---- -- ----- -- ------ - ------- --- ----------<br>------------- ------ ------ ---- ---- ------- ----- -- ----<br>-------- ------- -- ---------- --- - --- ----- finds ----<br>---- --- --- ----- --- ---- ---- ------- ----- ---- -------<br>--- --- -- ----- -- --- ---- -- --- ---- -- ------ ------<br>--- ----- -- ----,94806.80000019073,94806.40000009537,94352.615,94368.80000019073,94388.694,94819.305,,26,finds
screen,html.Screen,2_1_0_1_27,2022-05-03T13:21:54.663Z,,,,,,,,,,,,,,,,,53,,,,,,,,,,,,,,432.29500014305813,,response,,,,99,,,,,,,Space,keypress(Space),,,,,,,,---- -- ----- -- ------ - ------- --- ----------<br>------------- ------ ------ ---- ---- ------- ----- -- ----<br>-------- ------- -- ---------- --- - --- ----- ----- that<br>---- --- --- ----- --- ---- ---- ------- ----- ---- -------<br>--- --- -- ----- -- --- ---- -- --- ---- -- ------ ------<br>--- ----- -- ----,95251.90000009537,95251.60000014305,94802.623,94806.90000009537,94819.305,95276.82,,27,that
screen,html.Screen,2_1_0_1_28,2022-05-03T13:21:55.064Z,,,,,,,,,,,,,,,,,53,,,,,,,,,,,,,,375.679999999993,,response,,,,99,,,,,,,Space,keypress(Space),,,,,,,,---- -- ----- -- ------ - ------- --- ----------<br>------------- ------ ------ ---- ---- ------- ----- -- ----<br>-------- ------- -- ---------- --- - --- ----- ----- ----<br>it's --- --- ----- --- ---- ---- ------- ----- ---- -------<br>--- --- -- ----- -- --- ---- -- --- ---- -- ------ ------<br>--- ----- -- ----,95652.90000009537,95652.5,95235.967,95252,95276.82,95669.315,,28,it's
screen,html.Screen,2_1_0_1_29,2022-05-03T13:21:55.489Z,,,,,,,,,,,,,,,,,53,,,,,,,,,,,,,,408.0850000953651,,response,,,,99,,,,,,,Space,keypress(Space),,,,,,,,---- -- ----- -- ------ - ------- --- ----------<br>------------- ------ ------ ---- ---- ------- ----- -- ----<br>-------- ------- -- ---------- --- - --- ----- ----- ----<br>---- not --- ----- --- ---- ---- ------- ----- ---- -------<br>--- --- -- ----- -- --- ---- -- --- ---- -- ------ ------<br>--- ----- -- ----,96077.80000019073,96077.40000009537,95652.616,95653,95669.315,96086.003,,29,not
screen,html.Screen,2_1_0_1_30,2022-05-03T13:21:55.778Z,,,,,,,,,,,,,,,,,53,,,,,,,,,,,,,,280.497000000003,,response,,,,99,,,,,,,Space,keypress(Space),,,,,,,,---- -- ----- -- ------ - ------- --- ----------<br>------------- ------ ------ ---- ---- ------- ----- -- ----<br>-------- ------- -- ---------- --- - --- ----- ----- ----<br>---- --- how ----- --- ---- ---- ------- ----- ---- -------<br>--- --- -- ----- -- --- ---- -- --- ---- -- ------ ------<br>--- ----- -- ----,96366.80000019073,96366.5,96069.288,96077.80000019073,96086.003,96369.33,,30,how
screen,html.Screen,2_1_0_1_31,2022-05-03T13:21:56.035Z,,,,,,,,,,,,,,,,,53,,,,,,,,,,,,,,254.2700001430494,,response,,,,99,,,,,,,Space,keypress(Space),,,,,,,,---- -- ----- -- ------ - ------- --- ----------<br>------------- ------ ------ ---- ---- ------- ----- -- ----<br>-------- ------- -- ---------- --- - --- ----- ----- ----<br>---- --- --- close --- ---- ---- ------- ----- ---- -------<br>--- --- -- ----- -- --- ---- -- --- ---- -- ------ ------<br>--- ----- -- ----,96624.10000014305,96623.60000014305,96352.666,96366.80000019073,96369.33,96635.993,,31,close
screen,html.Screen,2_1_0_1_32,2022-05-03T13:21:56.335Z,,,,,,,,,,,,,,,,,53,,,,,,,,,,,,,,287.5069999999978,,response,,,,99,,,,,,,Space,keypress(Space),,,,,,,,---- -- ----- -- ------ - ------- --- ----------<br>------------- ------ ------ ---- ---- ------- ----- -- ----<br>-------- ------- -- ---------- --- - --- ----- ----- ----<br>---- --- --- ----- you ---- ---- ------- ----- ---- -------<br>--- --- -- ----- -- --- ---- -- --- ---- -- ------ ------<br>--- ----- -- ----,96923.80000019073,96923.5,96619.357,96624.20000004768,96635.993,96936.001,,32,you
screen,html.Screen,2_1_0_1_33,2022-05-03T13:21:56.909Z,,,,,,,,,,,,,,,,,53,,,,,,,,,,,,,,561.4989999999962,,response,,,,99,,,,,,,Space,keypress(Space),,,,,,,,---- -- ----- -- ------ - ------- --- ----------<br>------------- ------ ------ ---- ---- ------- ----- -- ----<br>-------- ------- -- ---------- --- - --- ----- ----- ----<br>---- --- --- ----- --- feel ---- ------- ----- ---- -------<br>--- --- -- ----- -- --- ---- -- --- ---- -- ------ ------<br>--- ----- -- ----,97497.90000009537,97497.5,96919.349,96923.80000019073,96936.001,97502.677,,33,feel
screen,html.Screen,2_1_0_1_34,2022-05-03T13:21:57.496Z,,,,,,,,,,,,,,,,,53,,,,,,,,,,,,,,581.823000000004,,response,,,,99,,,,,,,Space,keypress(Space),,,,,,,,---- -- ----- -- ------ - ------- --- ----------<br>------------- ------ ------ ---- ---- ------- ----- -- ----<br>-------- ------- -- ---------- --- - --- ----- ----- ----<br>---- --- --- ----- --- ---- that ------- ----- ---- -------<br>--- --- -- ----- -- --- ---- -- --- ---- -- ------ ------<br>--- ----- -- ----,98084.80000019073,98084.5,97486.017,97497.90000009537,97502.677,98086.055,,34,that
screen,html.Screen,2_1_0_1_35,2022-05-03T13:21:57.889Z,,,,,,,,,,,,,,,,,53,,,,,,,,,,,,,,391.445000000007,,response,,,,99,,,,,,,Space,keypress(Space),,,,,,,,---- -- ----- -- ------ - ------- --- ----------<br>------------- ------ ------ ---- ---- ------- ----- -- ----<br>-------- ------- -- ---------- --- - --- ----- ----- ----<br>---- --- --- ----- --- ---- ---- matters ----- ---- -------<br>--- --- -- ----- -- --- ---- -- --- ---- -- ------ ------<br>--- ----- -- ----,98477.80000019073,98477.5,98069.335,98084.80000019073,98086.055,98486.033,,35,matters
screen,html.Screen,2_1_0_1_36,2022-05-03T13:21:58.353Z,,,,,,,,,,,,,,,,,53,,,,,,,,,,,,,,455.3670000953716,,response,,,,99,,,,,,,Space,keypress(Space),,,,,,,,"---- -- ----- -- ------ - ------- --- ----------<br>------------- ------ ------ ---- ---- ------- ----- -- ----<br>-------- ------- -- ---------- --- - --- ----- ----- ----<br>---- --- --- ----- --- ---- ---- ------- most, ---- -------<br>--- --- -- ----- -- --- ---- -- --- ---- -- ------ ------<br>--- ----- -- ----",98941.90000009537,98941.40000009537,98469.371,98477.80000019073,98486.033,98952.701,,36,"most,"
screen,html.Screen,2_1_0_1_37,2022-05-03T13:21:58.725Z,,,,,,,,,,,,,,,,,53,,,,,,,,,,,,,,360.79899999999907,,response,,,,99,,,,,,,Space,keypress(Space),,,,,,,,---- -- ----- -- ------ - ------- --- ----------<br>------------- ------ ------ ---- ---- ------- ----- -- ----<br>-------- ------- -- ---------- --- - --- ----- ----- ----<br>---- --- --- ----- --- ---- ---- ------- ----- it's -------<br>--- --- -- ----- -- --- ---- -- --- ---- -- ------ ------<br>--- ----- -- ----,99313.90000009537,99313.5,98936.028,98942,98952.701,99319.366,,37,it's
screen,html.Screen,2_1_0_1_38,2022-05-03T13:21:59.098Z,,,,,,,,,,,,,,,,,53,,,,,,,,,,,,,,367.13400000000547,,response,,,,99,,,,,,,Space,keypress(Space),,,,,,,,---- -- ----- -- ------ - ------- --- ----------<br>------------- ------ ------ ---- ---- ------- ----- -- ----<br>-------- ------- -- ---------- --- - --- ----- ----- ----<br>---- --- --- ----- --- ---- ---- ------- ----- ---- whether<br>--- --- -- ----- -- --- ---- -- --- ---- -- ------ ------<br>--- ----- -- ----,99686.90000009537,99686.5,99302.688,99313.90000009537,99319.366,99702.738,,38,whether
screen,html.Screen,2_1_0_1_39,2022-05-03T13:21:59.505Z,,,,,,,,,,,,,,,,,53,,,,,,,,,,,,,,390.8620001430536,,response,,,,99,,,,,,,Space,keypress(Space),,,,,,,,---- -- ----- -- ------ - ------- --- ----------<br>------------- ------ ------ ---- ---- ------- ----- -- ----<br>-------- ------- -- ---------- --- - --- ----- ----- ----<br>---- --- --- ----- --- ---- ---- ------- ----- ---- -------<br>you --- -- ----- -- --- ---- -- --- ---- -- ------ ------<br>--- ----- -- ----,100093.90000009537,100093.60000014305,99686.028,99686.90000009537,99702.738,100102.723,,39,you
screen,html.Screen,2_1_0_1_40,2022-05-03T13:21:59.943Z,,,,,,,,,,,,,,,,,53,,,,,,,,,,,,,,428.77700000000186,,response,,,,99,,,,,,,Space,keypress(Space),,,,,,,,---- -- ----- -- ------ - ------- --- ----------<br>------------- ------ ------ ---- ---- ------- ----- -- ----<br>-------- ------- -- ---------- --- - --- ----- ----- ----<br>---- --- --- ----- --- ---- ---- ------- ----- ---- -------<br>--- are -- ----- -- --- ---- -- --- ---- -- ------ ------<br>--- ----- -- ----,100531.90000009537,100531.5,100086.036,100094.10000014305,100102.723,100536.056,,40,are
screen,html.Screen,2_1_0_1_41,2022-05-03T13:22:00.325Z,,,,,,,,,,,,,,,,,53,,,,,,,,,,,,,,377.3440000953706,,response,,,,99,,,,,,,Space,keypress(Space),,,,,,,,---- -- ----- -- ------ - ------- --- ----------<br>------------- ------ ------ ---- ---- ------- ----- -- ----<br>-------- ------- -- ---------- --- - --- ----- ----- ----<br>---- --- --- ----- --- ---- ---- ------- ----- ---- -------<br>--- --- as ----- -- --- ---- -- --- ---- -- ------ ------<br>--- ----- -- ----,100913.80000019073,100913.40000009537,100519.389,100531.90000009537,100536.056,100919.4,,41,as
screen,html.Screen,2_1_0_1_42,2022-05-03T13:22:00.716Z,,,,,,,,,,,,,,,,,53,,,,,,,,,,,,,,385.1000000000058,,response,,,,99,,,,,,,Space,keypress(Space),,,,,,,,---- -- ----- -- ------ - ------- --- ----------<br>------------- ------ ------ ---- ---- ------- ----- -- ----<br>-------- ------- -- ---------- --- - --- ----- ----- ----<br>---- --- --- ----- --- ---- ---- ------- ----- ---- -------<br>--- --- -- close -- --- ---- -- --- ---- -- ------ ------<br>--- ----- -- ----,101304.80000019073,101304.5,100902.703,100913.80000019073,100919.4,101319.411,,42,close
screen,html.Screen,2_1_0_1_43,2022-05-03T13:22:01.135Z,,,,,,,,,,,,,,,,,53,,,,,,,,,,,,,,404.0890000000072,,response,,,,99,,,,,,,Space,keypress(Space),,,,,,,,---- -- ----- -- ------ - ------- --- ----------<br>------------- ------ ------ ---- ---- ------- ----- -- ----<br>-------- ------- -- ---------- --- - --- ----- ----- ----<br>---- --- --- ----- --- ---- ---- ------- ----- ---- -------<br>--- --- -- ----- as --- ---- -- --- ---- -- ------ ------<br>--- ----- -- ----,101723.80000019073,101723.5,101302.758,101304.80000019073,101319.411,101736.089,,43,as
screen,html.Screen,2_1_0_1_44,2022-05-03T13:22:01.525Z,,,,,,,,,,,,,,,,,53,,,,,,,,,,,,,,377.4109999999928,,response,,,,99,,,,,,,Space,keypress(Space),,,,,,,,---- -- ----- -- ------ - ------- --- ----------<br>------------- ------ ------ ---- ---- ------- ----- -- ----<br>-------- ------- -- ---------- --- - --- ----- ----- ----<br>---- --- --- ----- --- ---- ---- ------- ----- ---- -------<br>--- --- -- ----- -- you ---- -- --- ---- -- ------ ------<br>--- ----- -- ----,102113.80000019073,102113.5,101719.391,101723.90000009537,101736.089,102136.093,,44,you
screen,html.Screen,2_1_0_1_45,2022-05-03T13:22:01.853Z,,,,,,,,,,,,,,,,,53,,,,,,,,,,,,,,305.30700009537395,,response,,,,99,,,,,,,Space,keypress(Space),,,,,,,,---- -- ----- -- ------ - ------- --- ----------<br>------------- ------ ------ ---- ---- ------- ----- -- ----<br>-------- ------- -- ---------- --- - --- ----- ----- ----<br>---- --- --- ----- --- ---- ---- ------- ----- ---- -------<br>--- --- -- ----- -- --- want -- --- ---- -- ------ ------<br>--- ----- -- ----,102441.70000004768,102441.40000009537,102119.425,102113.90000009537,102136.093,102452.755,,45,want
screen,html.Screen,2_1_0_1_46,2022-05-03T13:22:02.187Z,,,,,,,,,,,,,,,,,53,,,,,,,,,,,,,,322.74499999999534,,response,,,,99,,,,,,,Space,keypress(Space),,,,,,,,---- -- ----- -- ------ - ------- --- ----------<br>------------- ------ ------ ---- ---- ------- ----- -- ----<br>-------- ------- -- ---------- --- - --- ----- ----- ----<br>---- --- --- ----- --- ---- ---- ------- ----- ---- -------<br>--- --- -- ----- -- --- ---- to --- ---- -- ------ ------<br>--- ----- -- ----,102775.80000019073,102775.5,102436.083,102441.90000009537,102452.755,102786.097,,46,to
screen,html.Screen,2_1_0_1_47,2022-05-03T13:22:02.767Z,,,,,,,,,,,,,,,,,53,,,,,,,,,,,,,,569.8030000953731,,response,,,,99,,,,,,,Space,keypress(Space),,,,,,,,"---- -- ----- -- ------ - ------- --- ----------<br>------------- ------ ------ ---- ---- ------- ----- -- ----<br>-------- ------- -- ---------- --- - --- ----- ----- ----<br>---- --- --- ----- --- ---- ---- ------- ----- ---- -------<br>--- --- -- ----- -- --- ---- -- be, ---- -- ------ ------<br>--- ----- -- ----",103356.30000019073,103355.90000009537,102769.415,102775.90000009537,102786.097,103369.477,,47,"be,"
screen,html.Screen,2_1_0_1_48,2022-05-03T13:22:03.219Z,,,,,,,,,,,,,,,,,53,,,,,,,,,,,,,,438.02300000000105,,response,,,,99,,,,,,,Space,keypress(Space),,,,,,,,---- -- ----- -- ------ - ------- --- ----------<br>------------- ------ ------ ---- ---- ------- ----- -- ----<br>-------- ------- -- ---------- --- - --- ----- ----- ----<br>---- --- --- ----- --- ---- ---- ------- ----- ---- -------<br>--- --- -- ----- -- --- ---- -- --- even -- ------ ------<br>--- ----- -- ----,103807.80000019073,103807.5,103352.756,103356.40000009537,103369.477,103819.443,,48,even
screen,html.Screen,2_1_0_1_49,2022-05-03T13:22:03.547Z,,,,,,,,,,,,,,,,,53,,,,,,,,,,,,,,316.0570000000007,,response,,,,99,,,,,,,Space,keypress(Space),,,,,,,,---- -- ----- -- ------ - ------- --- ----------<br>------------- ------ ------ ---- ---- ------- ----- -- ----<br>-------- ------- -- ---------- --- - --- ----- ----- ----<br>---- --- --- ----- --- ---- ---- ------- ----- ---- -------<br>--- --- -- ----- -- --- ---- -- --- ---- if ------ ------<br>--- ----- -- ----,104135.80000019073,104135.5,103802.77,103808,103819.443,104156.719,,49,if
screen,html.Screen,2_1_0_1_50,2022-05-03T13:22:03.910Z,,,,,,,,,,,,,,,,,53,,,,,,,,,,,,,,341.7810000000027,,response,,,,99,,,,,,,Space,keypress(Space),,,,,,,,---- -- ----- -- ------ - ------- --- ----------<br>------------- ------ ------ ---- ---- ------- ----- -- ----<br>-------- ------- -- ---------- --- - --- ----- ----- ----<br>---- --- --- ----- --- ---- ---- ------- ----- ---- -------<br>--- --- -- ----- -- --- ---- -- --- ---- -- that's ------<br>--- ----- -- ----,104498.80000019073,104498.5,104119.432,104135.80000019073,104156.719,104502.791,,50,that's
screen,html.Screen,2_1_0_1_51,2022-05-03T13:22:04.270Z,,,,,,,,,,,,,,,,,53,,,,,,,,,,,,,,355.70900000000256,,response,,,,99,,,,,,,Space,keypress(Space),,,,,,,,---- -- ----- -- ------ - ------- --- ----------<br>------------- ------ ------ ---- ---- ------- ----- -- ----<br>-------- ------- -- ---------- --- - --- ----- ----- ----<br>---- --- --- ----- --- ---- ---- ------- ----- ---- -------<br>--- --- -- ----- -- --- ---- -- --- ---- -- ------ really<br>--- ----- -- ----,104858.80000019073,104858.5,104486.102,104498.90000009537,104502.791,104869.464,,51,really
screen,html.Screen,2_1_0_1_52,2022-05-03T13:22:04.643Z,,,,,,,,,,,,,,,,,53,,,,,,,,,,,,,,362.0359999999928,,response,,,,99,,,,,,,Space,keypress(Space),,,,,,,,---- -- ----- -- ------ - ------- --- ----------<br>------------- ------ ------ ---- ---- ------- ----- -- ----<br>-------- ------- -- ---------- --- - --- ----- ----- ----<br>---- --- --- ----- --- ---- ---- ------- ----- ---- -------<br>--- --- -- ----- -- --- ---- -- --- ---- -- ------ ------<br>not ----- -- ----,105231.90000009537,105231.5,104852.804,104858.80000019073,104869.464,105236.171,,52,not
screen,html.Screen,2_1_0_1_53,2022-05-03T13:22:05.028Z,,,,,,,,,,,,,,,,,53,,,,,,,,,,,,,,380.22900009536534,,response,,,,99,,,,,,,Space,keypress(Space),,,,,,,,---- -- ----- -- ------ - ------- --- ----------<br>------------- ------ ------ ---- ---- ------- ----- -- ----<br>-------- ------- -- ---------- --- - --- ----- ----- ----<br>---- --- --- ----- --- ---- ---- ------- ----- ---- -------<br>--- --- -- ----- -- --- ---- -- --- ---- -- ------ ------<br>--- close -- ----,105616.80000019073,105616.40000009537,105219.474,105232,105236.171,105619.474,,53,close
screen,html.Screen,2_1_0_1_54,2022-05-03T13:22:05.378Z,,,,,,,,,,,,,,,,,53,,,,,,,,,,,,,,346.92600009536545,,response,,,,99,,,,,,,Space,keypress(Space),,,,,,,,---- -- ----- -- ------ - ------- --- ----------<br>------------- ------ ------ ---- ---- ------- ----- -- ----<br>-------- ------- -- ---------- --- - --- ----- ----- ----<br>---- --- --- ----- --- ---- ---- ------- ----- ---- -------<br>--- --- -- ----- -- --- ---- -- --- ---- -- ------ ------<br>--- ----- at ----,105966.80000019073,105966.40000009537,105602.789,105616.80000019073,105619.474,105969.495,,54,at
screen,html.Screen,2_1_0_1_55,2022-05-03T13:22:06.139Z,,,,,,,,,,,,,,,,,53,,,,,,,,,,,,,,758.0050000000047,,response,,,,99,,,,,,,Space,keypress(Space),,,,,,,,---- -- ----- -- ------ - ------- --- ----------<br>------------- ------ ------ ---- ---- ------- ----- -- ----<br>-------- ------- -- ---------- --- - --- ----- ----- ----<br>---- --- --- ----- --- ---- ---- ------- ----- ---- -------<br>--- --- -- ----- -- --- ---- -- --- ---- -- ------ ------<br>--- ----- -- all.,106727.80000019073,106727.5,105952.807,105966.80000019073,105969.495,106736.157,,55,all.
Item 99,flow.Loop,2_1_0_1,2022-05-03T13:22:06.139Z,,,,,,,,,,,,,,,,,,,,,,,,,,,,,,,25408.425000000003,,completion,,,,,H,,,,,,,,,,,silence,,,,,106727.90000009537,106727.5,81302.408,81302.80000019073,81319.075,106736.157,,,
Question 1,html.Screen,2_1_0_2,2022-05-03T13:22:18.951Z,,,,,,,,,,,,,,,,,,,,,,,,,,,,true,FALSE,,12803.143000190728,,response,,,,99,H,,,,,,FALSE,click #choice-2,,,,silence,,,,,119539.70000004768,119539.30000019073,106719.475,106728,106736.157,119553.046,,,
Question 2,html.Screen,2_1_0_3,2022-05-03T13:22:22.339Z,,,,,,,,,,,,,,,,,,,,,,,,,,,,true,TRUE,,3374.2540001907328,,response,,,,99,H,,,,,,TRUE,click #choice-1,,,,silence,,,,,122927.90000009537,122927.30000019073,119536.356,119539.80000019073,119553.046,122936.433,,,
Item 99,flow.Sequence,2_1_0,2022-05-03T13:22:22.340Z,,,,,,,,,,,,,,,,,,,,,,,,,,,,,,,51608.35400019074,,completion,,,,,,,,,,,,,,,,,,,,,122927.90000009537,122927.30000019073,71302.243,71316.60000014305,71318.946,122936.433,,,
Holding screen,html.Screen,2_1_1_0,2022-05-03T13:22:32.332Z,,,,,,,,,,,,,,,,,,,,,,,,,,,,,,,10000.16799999999,,timeout,,,,,,,,,,,,,,,,,,,,,132920.20000004768,132919.922,122919.756,122928,122936.433,132936.601,,,
screen,html.Screen,2_1_1_1_0,2022-05-03T13:22:33.451Z,,,,,,,,,,,,,,,,,54,,,,,,,,,,,,,,1102.2990000953723,,response,,,,100,,,,,,,Space,keypress(Space),,,,,,,,At --- ---- --- ------ ----- ------- ---- -- --- ------- --<br>------- ---------- ------ -- ----- -- ----- -- ---- ------<br>--- ----- --- --- ------ -------- ----- --- ------ ----- --<br>----- ----- ---------- --- --- ------ ------ ---- -- ------<br>------- --- ------ ----- --- ---- ------- -- ---- --- --<br>------- ------,134039.30000019073,134038.90000009537,132919.922,132920.30000019073,132936.601,134053.279,,0,At
screen,html.Screen,2_1_1_1_1,2022-05-03T13:22:33.923Z,,,,,,,,,,,,,,,,,54,,,,,,,,,,,,,,458.1210000953579,,response,,,,100,,,,,,,Space,keypress(Space),,,,,,,,-- the ---- --- ------ ----- ------- ---- -- --- ------- --<br>------- ---------- ------ -- ----- -- ----- -- ---- ------<br>--- ----- --- --- ------ -------- ----- --- ------ ----- --<br>----- ----- ---------- --- --- ------ ------ ---- -- ------<br>------- --- ------ ----- --- ---- ------- -- ---- --- --<br>------- ------,134511.80000019073,134511.40000009537,134036.58,134039.40000009537,134053.279,134519.984,,1,the
screen,html.Screen,2_1_1_1_2,2022-05-03T13:22:34.341Z,,,,,,,,,,,,,,,,,54,,,,,,,,,,,,,,409.51600000000326,,response,,,,100,,,,,,,Space,keypress(Space),,,,,,,,-- --- time --- ------ ----- ------- ---- -- --- ------- --<br>------- ---------- ------ -- ----- -- ----- -- ---- ------<br>--- ----- --- --- ------ -------- ----- --- ------ ----- --<br>----- ----- ---------- --- --- ------ ------ ---- -- ------<br>------- --- ------ ----- --- ---- ------- -- ---- --- --<br>------- ------,134929.80000019073,134929.5,134503.252,134511.80000019073,134519.984,134936.613,,2,time
screen,html.Screen,2_1_1_1_3,2022-05-03T13:22:34.712Z,,,,,,,,,,,,,,,,,54,,,,,,,,,,,,,,363.8869999999879,,response,,,,100,,,,,,,Space,keypress(Space),,,,,,,,-- --- ---- the ------ ----- ------- ---- -- --- ------- --<br>------- ---------- ------ -- ----- -- ----- -- ---- ------<br>--- ----- --- --- ------ -------- ----- --- ------ ----- --<br>----- ----- ---------- --- --- ------ ------ ---- -- ------<br>------- --- ------ ----- --- ---- ------- -- ---- --- --<br>------- ------,135300.90000009537,135300.5,134919.956,134929.80000019073,134936.613,135303.324,,3,the
screen,html.Screen,2_1_1_1_4,2022-05-03T13:22:35.041Z,,,,,,,,,,,,,,,,,54,,,,,,,,,,,,,,326.0760000953742,,response,,,,100,,,,,,,Space,keypress(Space),,,,,,,,-- --- ---- --- French ----- ------- ---- -- --- ------- --<br>------- ---------- ------ -- ----- -- ----- -- ---- ------<br>--- ----- --- --- ------ -------- ----- --- ------ ----- --<br>----- ----- ---------- --- --- ------ ------ ---- -- ------<br>------- --- ------ ----- --- ---- ------- -- ---- --- --<br>------- ------,135629.80000019073,135629.40000009537,135286.623,135301,135303.324,135636.649,,4,French
screen,html.Screen,2_1_1_1_5,2022-05-03T13:22:35.386Z,,,,,,,,,,,,,,,,,54,,,,,,,,,,,,,,336.95100014304626,,response,,,,100,,,,,,,Space,keypress(Space),,,,,,,,-- --- ---- --- ------ crown ------- ---- -- --- ------- --<br>------- ---------- ------ -- ----- -- ----- -- ---- ------<br>--- ----- --- --- ------ -------- ----- --- ------ ----- --<br>----- ----- ---------- --- --- ------ ------ ---- -- ------<br>------- --- ------ ----- --- ---- ------- -- ---- --- --<br>------- ------,135974,135973.60000014305,135619.958,135629.90000009537,135636.649,135986.657,,5,crown
screen,html.Screen,2_1_1_1_6,2022-05-03T13:22:35.700Z,,,,,,,,,,,,,,,,,54,,,,,,,,,,,,,,301.8429999999935,,response,,,,100,,,,,,,Space,keypress(Space),,,,,,,,-- --- ---- --- ------ ----- secured ---- -- --- ------- --<br>------- ---------- ------ -- ----- -- ----- -- ---- ------<br>--- ----- --- --- ------ -------- ----- --- ------ ----- --<br>----- ----- ---------- --- --- ------ ------ ---- -- ------<br>------- --- ------ ----- --- ---- ------- -- ---- --- --<br>------- ------,136288.80000019073,136288.5,135969.947,135974.10000014305,135986.657,136303.332,,6,secured
screen,html.Screen,2_1_1_1_7,2022-05-03T13:22:36.092Z,,,,,,,,,,,,,,,,,54,,,,,,,,,,,,,,377.1680000000051,,response,,,,100,,,,,,,Space,keypress(Space),,,,,,,,-- --- ---- --- ------ ----- ------- much -- --- ------- --<br>------- ---------- ------ -- ----- -- ----- -- ---- ------<br>--- ----- --- --- ------ -------- ----- --- ------ ----- --<br>----- ----- ---------- --- --- ------ ------ ---- -- ------<br>------- --- ------ ----- --- ---- ------- -- ---- --- --<br>------- ------,136680.80000019073,136680.5,136286.663,136288.90000009537,136303.332,136686.654,,7,much
screen,html.Screen,2_1_1_1_8,2022-05-03T13:22:36.531Z,,,,,,,,,,,,,,,,,54,,,,,,,,,,,,,,432.7460000953579,,response,,,,100,,,,,,,Space,keypress(Space),,,,,,,,-- --- ---- --- ------ ----- ------- ---- of --- ------- --<br>------- ---------- ------ -- ----- -- ----- -- ---- ------<br>--- ----- --- --- ------ -------- ----- --- ------ ----- --<br>----- ----- ---------- --- --- ------ ------ ---- -- ------<br>------- --- ------ ----- --- ---- ------- -- ---- --- --<br>------- ------,137119.80000019073,137119.40000009537,136670.013,136680.80000019073,136686.654,137153.328,,8,of
screen,html.Screen,2_1_1_1_9,2022-05-03T13:22:36.876Z,,,,,,,,,,,,,,,,,54,,,,,,,,,,,,,,310.1719999999914,,response,,,,100,,,,,,,Space,keypress(Space),,,,,,,,-- --- ---- --- ------ ----- ------- ---- -- its ------- --<br>------- ---------- ------ -- ----- -- ----- -- ---- ------<br>--- ----- --- --- ------ -------- ----- --- ------ ----- --<br>----- ----- ---------- --- --- ------ ------ ---- -- ------<br>------- --- ------ ----- --- ---- ------- -- ---- --- --<br>------- ------,137463.90000009537,137463.5,137136.664,137119.90000009537,137153.328,137470.006,,9,its
screen,html.Screen,2_1_1_1_10,2022-05-03T13:22:37.720Z,,,,,,,,,,,,,,,,,54,,,,,,,,,,,,,,838.494000000006,,response,,,,100,,,,,,,Space,keypress(Space),,,,,,,,-- --- ---- --- ------ ----- ------- ---- -- --- revenue --<br>------- ---------- ------ -- ----- -- ----- -- ---- ------<br>--- ----- --- --- ------ -------- ----- --- ------ ----- --<br>----- ----- ---------- --- --- ------ ------ ---- -- ------<br>------- --- ------ ----- --- ---- ------- -- ---- --- --<br>------- ------,138308.90000009537,138308.5,137453.332,137464.10000014305,137470.006,138320.014,,10,revenue
screen,html.Screen,2_1_1_1_11,2022-05-03T13:22:38.175Z,,,,,,,,,,,,,,,,,54,,,,,,,,,,,,,,443.38600009537186,,response,,,,100,,,,,,,Space,keypress(Space),,,,,,,,-- --- ---- --- ------ ----- ------- ---- -- --- ------- by<br>------- ---------- ------ -- ----- -- ----- -- ---- ------<br>--- ----- --- --- ------ -------- ----- --- ------ ----- --<br>----- ----- ---------- --- --- ------ ------ ---- -- ------<br>------- --- ------ ----- --- ---- ------- -- ---- --- --<br>------- ------,138763.70000004768,138763.40000009537,138303.341,138308.90000009537,138320.014,138770.017,,11,by
screen,html.Screen,2_1_1_1_12,2022-05-03T13:22:38.759Z,,,,,,,,,,,,,,,,,54,,,,,,,,,,,,,,577.4830000000075,,response,,,,100,,,,,,,Space,keypress(Space),,,,,,,,-- --- ---- --- ------ ----- ------- ---- -- --- ------- --<br>issuing ---------- ------ -- ----- -- ----- -- ---- ------<br>--- ----- --- --- ------ -------- ----- --- ------ ----- --<br>----- ----- ---------- --- --- ------ ------ ---- -- ------<br>------- --- ------ ----- --- ---- ------- -- ---- --- --<br>------- ------,139347.80000019073,139347.5,138753.33,138763.80000019073,138770.017,139353.391,,12,issuing
screen,html.Screen,2_1_1_1_13,2022-05-03T13:22:39.231Z,,,,,,,,,,,,,,,,,54,,,,,,,,,,,,,,466.10899999999674,,response,,,,100,,,,,,,Space,keypress(Space),,,,,,,,-- --- ---- --- ------ ----- ------- ---- -- --- ------- --<br>------- government ------ -- ----- -- ----- -- ---- ------<br>--- ----- --- --- ------ -------- ----- --- ------ ----- --<br>----- ----- ---------- --- --- ------ ------ ---- -- ------<br>------- --- ------ ----- --- ---- ------- -- ---- --- --<br>------- ------,139819.80000019073,139819.5,139336.666,139347.90000009537,139353.391,139851.27,,13,government
screen,html.Screen,2_1_1_1_14,2022-05-03T13:22:39.615Z,,,,,,,,,,,,,,,,,54,,,,,,,,,,,,,,352.1300000953779,,response,,,,100,,,,,,,Space,keypress(Space),,,,,,,,-- --- ---- --- ------ ----- ------- ---- -- --- ------- --<br>------- ---------- bonds. -- ----- -- ----- -- ---- ------<br>--- ----- --- --- ------ -------- ----- --- ------ ----- --<br>----- ----- ---------- --- --- ------ ------ ---- -- ------<br>------- --- ------ ----- --- ---- ------- -- ---- --- --<br>------- ------,140203.80000019073,140203.40000009537,139803.357,139819.90000009537,139851.27,140220.049,,14,bonds.
screen,html.Screen,2_1_1_1_15,2022-05-03T13:22:40.587Z,,,,,,,,,,,,,,,,,54,,,,,,,,,,,,,,955.4510000000009,,response,,,,100,,,,,,,Space,keypress(Space),,,,,,,,-- --- ---- --- ------ ----- ------- ---- -- --- ------- --<br>------- ---------- ------ In ----- -- ----- -- ---- ------<br>--- ----- --- --- ------ -------- ----- --- ------ ----- --<br>----- ----- ---------- --- --- ------ ------ ---- -- ------<br>------- --- ------ ----- --- ---- ------- -- ---- --- --<br>------- ------,141175.80000019073,141175.5,140203.375,140204.30000019073,140220.049,141186.74,,15,In
screen,html.Screen,2_1_1_1_16,2022-05-03T13:22:41.050Z,,,,,,,,,,,,,,,,,54,,,,,,,,,,,,,,450.86000014306046,,response,,,,100,,,,,,,Space,keypress(Space),,,,,,,,"-- --- ---- --- ------ ----- ------- ---- -- --- ------- --<br>------- ---------- ------ -- 1727, -- ----- -- ---- ------<br>--- ----- --- --- ------ -------- ----- --- ------ ----- --<br>----- ----- ---------- --- --- ------ ------ ---- -- ------<br>------- --- ------ ----- --- ---- ------- -- ---- --- --<br>------- ------",141638,141637.60000014305,141170.054,141175.80000019073,141186.74,141653.437,,16,"1727,"
screen,html.Screen,2_1_1_1_17,2022-05-03T13:22:41.532Z,,,,,,,,,,,,,,,,,54,,,,,,,,,,,,,,467.06299999999464,,response,,,,100,,,,,,,Space,keypress(Space),,,,,,,,-- --- ---- --- ------ ----- ------- ---- -- --- ------- --<br>------- ---------- ------ -- ----- in ----- -- ---- ------<br>--- ----- --- --- ------ -------- ----- --- ------ ----- --<br>----- ----- ---------- --- --- ------ ------ ---- -- ------<br>------- --- ------ ----- --- ---- ------- -- ---- --- --<br>------- ------,142120.80000019073,142120.5,141636.755,141638.10000014305,141653.437,142136.739,,17,in
screen,html.Screen,2_1_1_1_18,2022-05-03T13:22:41.959Z,,,,,,,,,,,,,,,,,54,,,,,,,,,,,,,,410.7609999999986,,response,,,,100,,,,,,,Space,keypress(Space),,,,,,,,-- --- ---- --- ------ ----- ------- ---- -- --- ------- --<br>------- ---------- ------ -- ----- -- order -- ---- ------<br>--- ----- --- --- ------ -------- ----- --- ------ ----- --<br>----- ----- ---------- --- --- ------ ------ ---- -- ------<br>------- --- ------ ----- --- ---- ------- -- ---- --- --<br>------- ------,142547.80000019073,142547.5,142120.102,142120.80000019073,142136.739,142570.089,,18,order
screen,html.Screen,2_1_1_1_19,2022-05-03T13:22:42.276Z,,,,,,,,,,,,,,,,,54,,,,,,,,,,,,,,294.3110000953602,,response,,,,100,,,,,,,Space,keypress(Space),,,,,,,,-- --- ---- --- ------ ----- ------- ---- -- --- ------- --<br>------- ---------- ------ -- ----- -- ----- to ---- ------<br>--- ----- --- --- ------ -------- ----- --- ------ ----- --<br>----- ----- ---------- --- --- ------ ------ ---- -- ------<br>------- --- ------ ----- --- ---- ------- -- ---- --- --<br>------- ------,142864.70000004768,142864.40000009537,142553.451,142547.90000009537,142570.089,142870.108,,19,to
screen,html.Screen,2_1_1_1_20,2022-05-03T13:22:42.620Z,,,,,,,,,,,,,,,,,54,,,,,,,,,,,,,,338.39199999999255,,response,,,,100,,,,,,,Space,keypress(Space),,,,,,,,-- --- ---- --- ------ ----- ------- ---- -- --- ------- --<br>------- ---------- ------ -- ----- -- ----- -- save ------<br>--- ----- --- --- ------ -------- ----- --- ------ ----- --<br>----- ----- ---------- --- --- ------ ------ ---- -- ------<br>------- --- ------ ----- --- ---- ------- -- ---- --- --<br>------- ------,143208.80000019073,143208.5,142853.416,142864.80000019073,142870.108,143220.099,,20,save
screen,html.Screen,2_1_1_1_21,2022-05-03T13:22:43.260Z,,,,,,,,,,,,,,,,,54,,,,,,,,,,,,,,628.30100009538,,response,,,,100,,,,,,,Space,keypress(Space),,,,,,,,"-- --- ---- --- ------ ----- ------- ---- -- --- ------- --<br>------- ---------- ------ -- ----- -- ----- -- ---- money,<br>--- ----- --- --- ------ -------- ----- --- ------ ----- --<br>----- ----- ---------- --- --- ------ ------ ---- -- ------<br>------- --- ------ ----- --- ---- ------- -- ---- --- --<br>------- ------",143848.70000004768,143848.40000009537,143203.413,143208.80000019073,143220.099,143853.433,,21,"money,"
screen,html.Screen,2_1_1_1_22,2022-05-03T13:22:43.837Z,,,,,,,,,,,,,,,,,54,,,,,,,,,,,,,,571.6670001430612,,response,,,,100,,,,,,,Space,keypress(Space),,,,,,,,-- --- ---- --- ------ ----- ------- ---- -- --- ------- --<br>------- ---------- ------ -- ----- -- ----- -- ---- ------<br>the ----- --- --- ------ -------- ----- --- ------ ----- --<br>----- ----- ---------- --- --- ------ ------ ---- -- ------<br>------- --- ------ ----- --- ---- ------- -- ---- --- --<br>------- ------,144425.5,144425.10000014305,143836.761,143848.80000019073,143853.433,144436.777,,22,the
screen,html.Screen,2_1_1_1_23,2022-05-03T13:22:44.208Z,,,,,,,,,,,,,,,,,54,,,,,,,,,,,,,,359.62300009536557,,response,,,,100,,,,,,,Space,keypress(Space),,,,,,,,-- --- ---- --- ------ ----- ------- ---- -- --- ------- --<br>------- ---------- ------ -- ----- -- ----- -- ---- ------<br>--- state --- --- ------ -------- ----- --- ------ ----- --<br>----- ----- ---------- --- --- ------ ------ ---- -- ------<br>------- --- ------ ----- --- ---- ------- -- ---- --- --<br>------- ------,144796.80000019073,144796.40000009537,144420.101,144425.5,144436.777,144803.481,,23,state
screen,html.Screen,2_1_1_1_24,2022-05-03T13:22:44.552Z,,,,,,,,,,,,,,,,,54,,,,,,,,,,,,,,337.01900000000023,,response,,,,100,,,,,,,Space,keypress(Space),,,,,,,,-- --- ---- --- ------ ----- ------- ---- -- --- ------- --<br>------- ---------- ------ -- ----- -- ----- -- ---- ------<br>--- ----- cut --- ------ -------- ----- --- ------ ----- --<br>----- ----- ---------- --- --- ------ ------ ---- -- ------<br>------- --- ------ ----- --- ---- ------- -- ---- --- --<br>------- ------,145140.80000019073,145140.5,144786.782,144796.90000009537,144803.481,145153.483,,24,cut
screen,html.Screen,2_1_1_1_25,2022-05-03T13:22:44.933Z,,,,,,,,,,,,,,,,,54,,,,,,,,,,,,,,367.91700009536,,response,,,,100,,,,,,,Space,keypress(Space),,,,,,,,-- --- ---- --- ------ ----- ------- ---- -- --- ------- --<br>------- ---------- ------ -- ----- -- ----- -- ---- ------<br>--- ----- --- the ------ -------- ----- --- ------ ----- --<br>----- ----- ---------- --- --- ------ ------ ---- -- ------<br>------- --- ------ ----- --- ---- ------- -- ---- --- --<br>------- ------,145521.70000004768,145521.40000009537,145136.777,145140.80000019073,145153.483,145536.852,,25,the
screen,html.Screen,2_1_1_1_26,2022-05-03T13:22:45.299Z,,,,,,,,,,,,,,,,,54,,,,,,,,,,,,,,350.6479999999865,,response,,,,100,,,,,,,Space,keypress(Space),,,,,,,,-- --- ---- --- ------ ----- ------- ---- -- --- ------- --<br>------- ---------- ------ -- ----- -- ----- -- ---- ------<br>--- ----- --- --- bonds' -------- ----- --- ------ ----- --<br>----- ----- ---------- --- --- ------ ------ ---- -- ------<br>------- --- ------ ----- --- ---- ------- -- ---- --- --<br>------- ------,145887.80000019073,145887.5,145520.11,145521.70000004768,145536.852,145903.48,,26,bonds'
screen,html.Screen,2_1_1_1_27,2022-05-03T13:22:45.690Z,,,,,,,,,,,,,,,,,54,,,,,,,,,,,,,,374.92000009535695,,response,,,,100,,,,,,,Space,keypress(Space),,,,,,,,-- --- ---- --- ------ ----- ------- ---- -- --- ------- --<br>------- ---------- ------ -- ----- -- ----- -- ---- ------<br>--- ----- --- --- ------ interest ----- --- ------ ----- --<br>----- ----- ---------- --- --- ------ ------ ---- -- ------<br>------- --- ------ ----- --- ---- ------- -- ---- --- --<br>------- ------,146278.80000019073,146278.40000009537,145886.808,145887.90000009537,145903.48,146303.493,,27,interest
screen,html.Screen,2_1_1_1_28,2022-05-03T13:22:46.708Z,,,,,,,,,,,,,,,,,54,,,,,,,,,,,,,,993.0070000000123,,response,,,,100,,,,,,,Space,keypress(Space),,,,,,,,-- --- ---- --- ------ ----- ------- ---- -- --- ------- --<br>------- ---------- ------ -- ----- -- ----- -- ---- ------<br>--- ----- --- --- ------ -------- rate. --- ------ ----- --<br>----- ----- ---------- --- --- ------ ------ ---- -- ------<br>------- --- ------ ----- --- ---- ------- -- ---- --- --<br>------- ------,147296.80000019073,147296.5,146286.824,146278.80000019073,146303.493,147303.492,,28,rate.
screen,html.Screen,2_1_1_1_29,2022-05-03T13:22:47.135Z,,,,,,,,,,,,,,,,,54,,,,,,,,,,,,,,420.00800000000163,,response,,,,100,,,,,,,Space,keypress(Space),,,,,,,,-- --- ---- --- ------ ----- ------- ---- -- --- ------- --<br>------- ---------- ------ -- ----- -- ----- -- ---- ------<br>--- ----- --- --- ------ -------- ----- The ------ ----- --<br>----- ----- ---------- --- --- ------ ------ ---- -- ------<br>------- --- ------ ----- --- ---- ------- -- ---- --- --<br>------- ------,147723.70000004768,147723.5,147286.792,147296.90000009537,147303.492,147736.847,,29,The
screen,html.Screen,2_1_1_1_30,2022-05-03T13:22:47.539Z,,,,,,,,,,,,,,,,,54,,,,,,,,,,,,,,390.65299999999115,,response,,,,100,,,,,,,Space,keypress(Space),,,,,,,,-- --- ---- --- ------ ----- ------- ---- -- --- ------- --<br>------- ---------- ------ -- ----- -- ----- -- ---- ------<br>--- ----- --- --- ------ -------- ----- --- market ----- --<br>----- ----- ---------- --- --- ------ ------ ---- -- ------<br>------- --- ------ ----- --- ---- ------- -- ---- --- --<br>------- ------,148127.90000009537,148127.5,147720.143,147723.80000019073,147736.847,148136.871,,30,market
screen,html.Screen,2_1_1_1_31,2022-05-03T13:22:47.873Z,,,,,,,,,,,,,,,,,54,,,,,,,,,,,,,,324.5290000953537,,response,,,,100,,,,,,,Space,keypress(Space),,,,,,,,-- --- ---- --- ------ ----- ------- ---- -- --- ------- --<br>------- ---------- ------ -- ----- -- ----- -- ---- ------<br>--- ----- --- --- ------ -------- ----- --- ------ value --<br>----- ----- ---------- --- --- ------ ------ ---- -- ------<br>------- --- ------ ----- --- ---- ------- -- ---- --- --<br>------- ------,148461.80000019073,148461.40000009537,148120.162,148127.90000009537,148136.871,148470.197,,31,value
screen,html.Screen,2_1_1_1_32,2022-05-03T13:22:48.244Z,,,,,,,,,,,,,,,,,54,,,,,,,,,,,,,,362.20300009538187,,response,,,,100,,,,,,,Space,keypress(Space),,,,,,,,-- --- ---- --- ------ ----- ------- ---- -- --- ------- --<br>------- ---------- ------ -- ----- -- ----- -- ---- ------<br>--- ----- --- --- ------ -------- ----- --- ------ ----- of<br>----- ----- ---------- --- --- ------ ------ ---- -- ------<br>------- --- ------ ----- --- ---- ------- -- ---- --- --<br>------- ------,148832.80000019073,148832.40000009537,148453.524,148461.80000019073,148470.197,148836.915,,32,of
screen,html.Screen,2_1_1_1_33,2022-05-03T13:22:48.591Z,,,,,,,,,,,,,,,,,54,,,,,,,,,,,,,,342.58499999999185,,response,,,,100,,,,,,,Space,keypress(Space),,,,,,,,-- --- ---- --- ------ ----- ------- ---- -- --- ------- --<br>------- ---------- ------ -- ----- -- ----- -- ---- ------<br>--- ----- --- --- ------ -------- ----- --- ------ ----- --<br>these ----- ---------- --- --- ------ ------ ---- -- ------<br>------- --- ------ ----- --- ---- ------- -- ---- --- --<br>------- ------,149179.90000009537,149179.5,148820.191,148832.80000019073,148836.915,149186.888,,33,these
screen,html.Screen,2_1_1_1_34,2022-05-03T13:22:48.923Z,,,,,,,,,,,,,,,,,54,,,,,,,,,,,,,,324.6119999999937,,response,,,,100,,,,,,,Space,keypress(Space),,,,,,,,-- --- ---- --- ------ ----- ------- ---- -- --- ------- --<br>------- ---------- ------ -- ----- -- ----- -- ---- ------<br>--- ----- --- --- ------ -------- ----- --- ------ ----- --<br>----- bonds ---------- --- --- ------ ------ ---- -- ------<br>------- --- ------ ----- --- ---- ------- -- ---- --- --<br>------- ------,149511.80000019073,149511.5,149170.167,149179.90000009537,149186.888,149520.191,,34,bonds
screen,html.Screen,2_1_1_1_35,2022-05-03T13:22:49.345Z,,,,,,,,,,,,,,,,,54,,,,,,,,,,,,,,413.2090000953758,,response,,,,100,,,,,,,Space,keypress(Space),,,,,,,,"-- --- ---- --- ------ ----- ------- ---- -- --- ------- --<br>------- ---------- ------ -- ----- -- ----- -- ---- ------<br>--- ----- --- --- ------ -------- ----- --- ------ ----- --<br>----- ----- plummeted, --- --- ------ ------ ---- -- ------<br>------- --- ------ ----- --- ---- ------- -- ---- --- --<br>------- ------",149933.80000019073,149933.40000009537,149503.533,149511.90000009537,149520.191,149936.865,,35,"plummeted,"
screen,html.Screen,2_1_1_1_36,2022-05-03T13:22:49.735Z,,,,,,,,,,,,,,,,,54,,,,,,,,,,,,,,386.53500009537674,,response,,,,100,,,,,,,Space,keypress(Space),,,,,,,,-- --- ---- --- ------ ----- ------- ---- -- --- ------- --<br>------- ---------- ------ -- ----- -- ----- -- ---- ------<br>--- ----- --- --- ------ -------- ----- --- ------ ----- --<br>----- ----- ---------- and --- ------ ------ ---- -- ------<br>------- --- ------ ----- --- ---- ------- -- ---- --- --<br>------- ------,150323.80000019073,150323.40000009537,149920.179,149933.80000019073,149936.865,150336.906,,36,and
screen,html.Screen,2_1_1_1_37,2022-05-03T13:22:50.057Z,,,,,,,,,,,,,,,,,54,,,,,,,,,,,,,,308.5940000000119,,response,,,,100,,,,,,,Space,keypress(Space),,,,,,,,-- --- ---- --- ------ ----- ------- ---- -- --- ------- --<br>------- ---------- ------ -- ----- -- ----- -- ---- ------<br>--- ----- --- --- ------ -------- ----- --- ------ ----- --<br>----- ----- ---------- --- the ------ ------ ---- -- ------<br>------- --- ------ ----- --- ---- ------- -- ---- --- --<br>------- ------,150645.90000009537,150645.5,150320.187,150323.80000019073,150336.906,150653.583,,37,the
screen,html.Screen,2_1_1_1_38,2022-05-03T13:22:50.374Z,,,,,,,,,,,,,,,,,54,,,,,,,,,,,,,,308.91699999998673,,response,,,,100,,,,,,,Space,keypress(Space),,,,,,,,-- --- ---- --- ------ ----- ------- ---- -- --- ------- --<br>------- ---------- ------ -- ----- -- ----- -- ---- ------<br>--- ----- --- --- ------ -------- ----- --- ------ ----- --<br>----- ----- ---------- --- --- market ------ ---- -- ------<br>------- --- ------ ----- --- ---- ------- -- ---- --- --<br>------- ------,150962.80000019073,150962.5,150636.903,150645.90000009537,150653.583,150970.217,,38,market
screen,html.Screen,2_1_1_1_39,2022-05-03T13:22:50.771Z,,,,,,,,,,,,,,,,,54,,,,,,,,,,,,,,388.18300009536324,,response,,,,100,,,,,,,Space,keypress(Space),,,,,,,,-- --- ---- --- ------ ----- ------- ---- -- --- ------- --<br>------- ---------- ------ -- ----- -- ----- -- ---- ------<br>--- ----- --- --- ------ -------- ----- --- ------ ----- --<br>----- ----- ---------- --- --- ------ became ---- -- ------<br>------- --- ------ ----- --- ---- ------- -- ---- --- --<br>------- ------,151359.30000019073,151358.40000009537,150953.534,150962.80000019073,150970.217,151370.249,,39,became
screen,html.Screen,2_1_1_1_40,2022-05-03T13:22:51.227Z,,,,,,,,,,,,,,,,,54,,,,,,,,,,,,,,445.2509999999893,,response,,,,100,,,,,,,Space,keypress(Space),,,,,,,,-- --- ---- --- ------ ----- ------- ---- -- --- ------- --<br>------- ---------- ------ -- ----- -- ----- -- ---- ------<br>--- ----- --- --- ------ -------- ----- --- ------ ----- --<br>----- ----- ---------- --- --- ------ ------ wary -- ------<br>------- --- ------ ----- --- ---- ------- -- ---- --- --<br>------- ------,151815.80000019073,151815.5,151353.561,151359.30000019073,151370.249,151820.231,,40,wary
screen,html.Screen,2_1_1_1_41,2022-05-03T13:22:51.595Z,,,,,,,,,,,,,,,,,54,,,,,,,,,,,,,,363.26900000000023,,response,,,,100,,,,,,,Space,keypress(Space),,,,,,,,-- --- ---- --- ------ ----- ------- ---- -- --- ------- --<br>------- ---------- ------ -- ----- -- ----- -- ---- ------<br>--- ----- --- --- ------ -------- ----- --- ------ ----- --<br>----- ----- ---------- --- --- ------ ------ ---- of ------<br>------- --- ------ ----- --- ---- ------- -- ---- --- --<br>------- ------,152183.90000009537,152183.5,151803.555,151815.90000009537,151820.231,152186.914,,41,of
screen,html.Screen,2_1_1_1_42,2022-05-03T13:22:51.958Z,,,,,,,,,,,,,,,,,54,,,,,,,,,,,,,,359.58600000001024,,response,,,,100,,,,,,,Space,keypress(Space),,,,,,,,-- --- ---- --- ------ ----- ------- ---- -- --- ------- --<br>------- ---------- ------ -- ----- -- ----- -- ---- ------<br>--- ----- --- --- ------ -------- ----- --- ------ ----- --<br>----- ----- ---------- --- --- ------ ------ ---- -- French<br>------- --- ------ ----- --- ---- ------- -- ---- --- --<br>------- ------,152546.90000009537,152546.5,152170.236,152184,152186.914,152553.617,,42,French
screen,html.Screen,2_1_1_1_43,2022-05-03T13:22:52.696Z,,,,,,,,,,,,,,,,,54,,,,,,,,,,,,,,730.8830000000016,,response,,,,100,,,,,,,Space,keypress(Space),,,,,,,,-- --- ---- --- ------ ----- ------- ---- -- --- ------- --<br>------- ---------- ------ -- ----- -- ----- -- ---- ------<br>--- ----- --- --- ------ -------- ----- --- ------ ----- --<br>----- ----- ---------- --- --- ------ ------ ---- -- ------<br>credit. --- ------ ----- --- ---- ------- -- ---- --- --<br>------- ------,153284.80000019073,153284.5,152536.887,152546.90000009537,152553.617,153286.92,,43,credit.
screen,html.Screen,2_1_1_1_44,2022-05-03T13:22:53.066Z,,,,,,,,,,,,,,,,,54,,,,,,,,,,,,,,366.4800000953546,,response,,,,100,,,,,,,Space,keypress(Space),,,,,,,,-- --- ---- --- ------ ----- ------- ---- -- --- ------- --<br>------- ---------- ------ -- ----- -- ----- -- ---- ------<br>--- ----- --- --- ------ -------- ----- --- ------ ----- --<br>----- ----- ---------- --- --- ------ ------ ---- -- ------<br>------- The ------ ----- --- ---- ------- -- ---- --- --<br>------- ------,153654,153653.40000009537,153270.255,153284.80000019073,153286.92,153670.267,,44,The
screen,html.Screen,2_1_1_1_45,2022-05-03T13:22:53.416Z,,,,,,,,,,,,,,,,,54,,,,,,,,,,,,,,334.23300000000745,,response,,,,100,,,,,,,Space,keypress(Space),,,,,,,,-- --- ---- --- ------ ----- ------- ---- -- --- ------- --<br>------- ---------- ------ -- ----- -- ----- -- ---- ------<br>--- ----- --- --- ------ -------- ----- --- ------ ----- --<br>----- ----- ---------- --- --- ------ ------ ---- -- ------<br>------- --- French ----- --- ---- ------- -- ---- --- --<br>------- ------,154004.80000019073,154004.5,153653.582,153654,153670.267,154020.279,,45,French
screen,html.Screen,2_1_1_1_46,2022-05-03T13:22:53.777Z,,,,,,,,,,,,,,,,,54,,,,,,,,,,,,,,345.22099999999045,,response,,,,100,,,,,,,Space,keypress(Space),,,,,,,,-- --- ---- --- ------ ----- ------- ---- -- --- ------- --<br>------- ---------- ------ -- ----- -- ----- -- ---- ------<br>--- ----- --- --- ------ -------- ----- --- ------ ----- --<br>----- ----- ---------- --- --- ------ ------ ---- -- ------<br>------- --- ------ state --- ---- ------- -- ---- --- --<br>------- ------,154365.70000004768,154365.5,154003.596,154004.90000009537,154020.279,154370.277,,46,state
screen,html.Screen,2_1_1_1_47,2022-05-03T13:22:54.097Z,,,,,,,,,,,,,,,,,54,,,,,,,,,,,,,,314.72299999999814,,response,,,,100,,,,,,,Space,keypress(Space),,,,,,,,-- --- ---- --- ------ ----- ------- ---- -- --- ------- --<br>------- ---------- ------ -- ----- -- ----- -- ---- ------<br>--- ----- --- --- ------ -------- ----- --- ------ ----- --<br>----- ----- ---------- --- --- ------ ------ ---- -- ------<br>------- --- ------ ----- was ---- ------- -- ---- --- --<br>------- ------,154685.40000009537,154685,154353.615,154365.80000019073,154370.277,154686.961,,47,was
screen,html.Screen,2_1_1_1_48,2022-05-03T13:22:54.408Z,,,,,,,,,,,,,,,,,54,,,,,,,,,,,,,,309.53899999998976,,response,,,,100,,,,,,,Space,keypress(Space),,,,,,,,-- --- ---- --- ------ ----- ------- ---- -- --- ------- --<br>------- ---------- ------ -- ----- -- ----- -- ---- ------<br>--- ----- --- --- ------ -------- ----- --- ------ ----- --<br>----- ----- ---------- --- --- ------ ------ ---- -- ------<br>------- --- ------ ----- --- left ------- -- ---- --- --<br>------- ------,154996.80000019073,154996.5,154670.255,154685.5,154686.961,155003.618,,48,left
screen,html.Screen,2_1_1_1_49,2022-05-03T13:22:54.748Z,,,,,,,,,,,,,,,,,54,,,,,,,,,,,,,,332.88200000001234,,response,,,,100,,,,,,,Space,keypress(Space),,,,,,,,-- --- ---- --- ------ ----- ------- ---- -- --- ------- --<br>------- ---------- ------ -- ----- -- ----- -- ---- ------<br>--- ----- --- --- ------ -------- ----- --- ------ ----- --<br>----- ----- ---------- --- --- ------ ------ ---- -- ------<br>------- --- ------ ----- --- ---- without -- ---- --- --<br>------- ------,155336.80000019073,155336.5,154986.954,154997,155003.618,155353.673,,49,without
screen,html.Screen,2_1_1_1_50,2022-05-03T13:22:55.103Z,,,,,,,,,,,,,,,,,54,,,,,,,,,,,,,,337.8269999999902,,response,,,,100,,,,,,,Space,keypress(Space),,,,,,,,-- --- ---- --- ------ ----- ------- ---- -- --- ------- --<br>------- ---------- ------ -- ----- -- ----- -- ---- ------<br>--- ----- --- --- ------ -------- ----- --- ------ ----- --<br>----- ----- ---------- --- --- ------ ------ ---- -- ------<br>------- --- ------ ----- --- ---- ------- an ---- --- --<br>------- ------,155691.80000019073,155691.5,155336.984,155336.80000019073,155353.673,155703.631,,50,an
screen,html.Screen,2_1_1_1_51,2022-05-03T13:22:55.412Z,,,,,,,,,,,,,,,,,54,,,,,,,,,,,,,,296.7690000953735,,response,,,,100,,,,,,,Space,keypress(Space),,,,,,,,-- --- ---- --- ------ ----- ------- ---- -- --- ------- --<br>------- ---------- ------ -- ----- -- ----- -- ---- ------<br>--- ----- --- --- ------ -------- ----- --- ------ ----- --<br>----- ----- ---------- --- --- ------ ------ ---- -- ------<br>------- --- ------ ----- --- ---- ------- -- easy --- --<br>------- ------,156000.70000004768,156000.40000009537,155686.968,155691.80000019073,155703.631,156003.641,,51,easy
screen,html.Screen,2_1_1_1_52,2022-05-03T13:22:55.747Z,,,,,,,,,,,,,,,,,54,,,,,,,,,,,,,,331.7590000953642,,response,,,,100,,,,,,,Space,keypress(Space),,,,,,,,-- --- ---- --- ------ ----- ------- ---- -- --- ------- --<br>------- ---------- ------ -- ----- -- ----- -- ---- ------<br>--- ----- --- --- ------ -------- ----- --- ------ ----- --<br>----- ----- ---------- --- --- ------ ------ ---- -- ------<br>------- --- ------ ----- --- ---- ------- -- ---- way --<br>------- ------,156335.80000019073,156335.40000009537,155986.985,156000.80000019073,156003.641,156353.682,,52,way
screen,html.Screen,2_1_1_1_53,2022-05-03T13:22:56.547Z,,,,,,,,,,,,,,,,,54,,,,,,,,,,,,,,781.7180000953667,,response,,,,100,,,,,,,Space,keypress(Space),,,,,,,,-- --- ---- --- ------ ----- ------- ---- -- --- ------- --<br>------- ---------- ------ -- ----- -- ----- -- ---- ------<br>--- ----- --- --- ------ -------- ----- --- ------ ----- --<br>----- ----- ---------- --- --- ------ ------ ---- -- ------<br>------- --- ------ ----- --- ---- ------- -- ---- --- of<br>------- ------,157135.80000019073,157135.40000009537,156336.986,156335.90000009537,156353.682,157137.031,,53,of
screen,html.Screen,2_1_1_1_54,2022-05-03T13:22:56.907Z,,,,,,,,,,,,,,,,,54,,,,,,,,,,,,,,358.3690000953793,,response,,,,100,,,,,,,Space,keypress(Space),,,,,,,,-- --- ---- --- ------ ----- ------- ---- -- --- ------- --<br>------- ---------- ------ -- ----- -- ----- -- ---- ------<br>--- ----- --- --- ------ -------- ----- --- ------ ----- --<br>----- ----- ---------- --- --- ------ ------ ---- -- ------<br>------- --- ------ ----- --- ---- ------- -- ---- --- --<br>raising ------,157495.70000004768,157495.40000009537,157120.303,157135.90000009537,157137.031,157503.668,,54,raising
screen,html.Screen,2_1_1_1_55,2022-05-03T13:22:57.426Z,,,,,,,,,,,,,,,,,54,,,,,,,,,,,,,,510.7320000953623,,response,,,,100,,,,,,,Space,keypress(Space),,,,,,,,-- --- ---- --- ------ ----- ------- ---- -- --- ------- --<br>------- ---------- ------ -- ----- -- ----- -- ---- ------<br>--- ----- --- --- ------ -------- ----- --- ------ ----- --<br>----- ----- ---------- --- --- ------ ------ ---- -- ------<br>------- --- ------ ----- --- ---- ------- -- ---- --- --<br>------- money.,158014.80000019073,158014.40000009537,157486.991,157495.80000019073,157503.668,158020.334,,55,money.
Item 100,flow.Loop,2_1_1_1,2022-05-03T13:22:57.426Z,,,,,,,,,,,,,,,,,,,,,,,,,,,,,,,25077.799000095372,,completion,,,,,H,,,,,,,,,,,silence,,,,,158014.90000009537,158014.40000009537,132919.922,132920.30000019073,132936.601,158020.334,,,
Question 1,html.Screen,2_1_1_2,2022-05-03T13:23:05.503Z,,,,,,,,,,,,,,,,,,,,,,,,,,,,true,TRUE,,8070.966000190732,,response,,,,100,H,,,,,,TRUE,click #choice-1,,,,silence,,,,,166091.70000004768,166091.30000019073,158003.689,158014.90000009537,158020.334,166103.805,,,
Question 2,html.Screen,2_1_1_3,2022-05-03T13:23:07.587Z,,,,,,,,,,,,,,,,,,,,,,,,,,,,true,FALSE,,2071.495000190742,,response,,,,100,H,,,,,,FALSE,click #choice-2,,,,silence,,,,,168175.60000014305,168175.30000019073,166087.133,166091.80000019073,166103.805,168187.171,,,
Item 100,flow.Sequence,2_1_1,2022-05-03T13:23:07.587Z,,,,,,,,,,,,,,,,,,,,,,,,,,,,,,,45238.86700019073,,completion,,,,,,,,,,,,,,,,,,,,,168175.70000004768,168175.30000019073,122919.756,122928,122936.433,168187.171,,,
End of Practice,html.Page,2_1_2,2022-05-03T13:23:11.413Z,,,,,,,,,,,,,,,,,,,,,,,,,,,,,,,3814.5290000476816,,form submission,,,,,,,,,,,,,,,,,,,,,172001.90000009537,172001.70000004768,168170.499,168175.80000019073,168187.171,172003.925,,,
Practice,flow.Sequence,2_1,2022-05-03T13:23:11.414Z,,,,,,,,,,,,,,,,,,,,,,,,,,,,,,,100682.75400004769,,completion,,,,,,,,,,,,,,,,,,,,,172002,172001.70000004768,71302.243,71316.60000014305,71318.946,172003.925,,,
Trap_instruction,html.Page,2_2_0,2022-05-03T13:23:13.896Z,,,,,,,,,,,,,,,,,,,,,,,,,,,,,,,2479.8750001907465,,form submission,,,,,,,,,,,,,,,,,,,,,174483.90000009537,174483.80000019073,171987.242,172002,172003.925,174487.283,,,
trap_trial,html.Screen,2_2_1,2022-05-03T13:23:16.599Z,,,,,,,,,,,,,,,,,,,,,,,,,,,,true,1,,2699.917000047688,,response,,,,,,,,,,,1,click #choice-1,,,,,,,,,177187.80000019073,177187.20000004768,174470.611,174484,174487.283,177204,,,
end of trap trial,html.Page,2_2_2,2022-05-03T13:23:18.138Z,,,,,,,,,,,,,,,,,,,,,,,,,,,,,,,1521.7000000476837,,form submission,,,,,,,,,,,,,,,,,,,,,178725.90000009537,178725.70000004768,177187.311,177187.80000019073,177204,178737.353,,,
Trap 1,flow.Sequence,2_2,2022-05-03T13:23:18.138Z,,,,,,,,,,,,,,,,,,,,,,,,,,,,,,,6721.775000047695,,completion,,,,,,,,,,,,,,,,,,,,,178726,178725.70000004768,171987.242,172002,172003.925,178737.353,,,
Standby,html.Page,2_3_0,2022-05-03T13:23:26.132Z,,,,,,,,,,,,,,,,,,,,,,,,,,,,,,,8000.124000000011,,timeout,,,,,,,,,,,,,,,,,,,,,186721.20000004768,186720.816,178720.665,178726,178737.353,186737.477,,,
Holding screen,html.Screen,2_3_1_0_0,2022-05-03T13:23:33.132Z,,,,,,,,,,,,,,,,,,,,,,,,,,,,,,,7000.122999999992,,timeout,,,,,,,,,,,,,,,,,,,,,193721.30000019073,193720.922,186720.816,186721.30000019073,186737.477,193737.6,,,
screen,html.Screen,2_3_1_0_1_0,2022-05-03T13:23:35.072Z,,,,,,,,,,,,,,,,,12,,,,,,,,,,,,,,1923.200000190729,,response,,,,5,H,,,,,,Space,keypress(Space),,,,speech,,,,Some ------ ------ ------- ------ --- ------- -----------<br>-- ----- --- ---- -- --- ------ ---- - ---- -- ----------<br>-- ------ ---- --- ---- --- --- --- ----- -- -------- ---<br>------ ------- -------- --- ---- -- ------- ------------ --<br>------ -- ---- -- --- ---- -- -------- -- --- ------ ------,195661.20000004768,195660.80000019073,193720.922,193721.30000019073,193737.6,195670.957,,0,Some
screen,html.Screen,2_3_1_0_1_1,2022-05-03T13:23:35.618Z,,,,,,,,,,,,,,,,,12,,,,,,,,,,,,,,536.4430000953726,,response,,,,5,H,,,,,,Space,keypress(Space),,,,speech,,,,---- months ------ ------- ------ --- ------- -----------<br>-- ----- --- ---- -- --- ------ ---- - ---- -- ----------<br>-- ------ ---- --- ---- --- --- --- ----- -- -------- ---<br>------ ------- -------- --- ---- -- ------- ------------ --<br>------ -- ---- -- --- ---- -- -------- -- --- ------ ------,196207.80000019073,196207.40000009537,195654.258,195661.30000019073,195670.957,196220.972,,1,months
screen,html.Screen,2_3_1_0_1_2,2022-05-03T13:23:36.109Z,,,,,,,,,,,,,,,,,12,,,,,,,,,,,,,,477.4280000953586,,response,,,,5,H,,,,,,Space,keypress(Space),,,,speech,,,,"---- ------ later, ------- ------ --- ------- -----------<br>-- ----- --- ---- -- --- ------ ---- - ---- -- ----------<br>-- ------ ---- --- ---- --- --- --- ----- -- -------- ---<br>------ ------- -------- --- ---- -- ------- ------------ --<br>------ -- ---- -- --- ---- -- -------- -- --- ------ ------",196698.70000004768,196698.40000009537,196204.275,196207.80000019073,196220.972,196704.308,,2,"later,"
screen,html.Screen,2_3_1_0_1_3,2022-05-03T13:23:36.712Z,,,,,,,,,,,,,,,,,12,,,,,,,,,,,,,,596.0920000953774,,response,,,,5,H,,,,,,Space,keypress(Space),,,,speech,,,,---- ------ ------ Michael ------ --- ------- -----------<br>-- ----- --- ---- -- --- ------ ---- - ---- -- ----------<br>-- ------ ---- --- ---- --- --- --- ----- -- -------- ---<br>------ ------- -------- --- ---- -- ------- ------------ --<br>------ -- ---- -- --- ---- -- -------- -- --- ------ ------,197300.80000019073,197300.40000009537,196687.611,196698.80000019073,196704.308,197304.339,,3,Michael
screen,html.Screen,2_3_1_0_1_4,2022-05-03T13:23:37.135Z,,,,,,,,,,,,,,,,,12,,,,,,,,,,,,,,420.1609999999928,,response,,,,5,H,,,,,,Space,keypress(Space),,,,speech,,,,---- ------ ------ ------- Larson --- ------- -----------<br>-- ----- --- ---- -- --- ------ ---- - ---- -- ----------<br>-- ------ ---- --- ---- --- --- --- ----- -- -------- ---<br>------ ------- -------- --- ---- -- ------- ------------ --<br>------ -- ---- -- --- ---- -- -------- -- --- ------ ------,197724.80000019073,197724.5,197287.645,197300.90000009537,197304.339,197737.657,,4,Larson
screen,html.Screen,2_3_1_0_1_5,2022-05-03T13:23:37.506Z,,,,,,,,,,,,,,,,,12,,,,,,,,,,,,,,357.7430000953609,,response,,,,5,H,,,,,,Space,keypress(Space),,,,speech,,,,---- ------ ------ ------- ------ saw ------- -----------<br>-- ----- --- ---- -- --- ------ ---- - ---- -- ----------<br>-- ------ ---- --- ---- --- --- --- ----- -- -------- ---<br>------ ------- -------- --- ---- -- ------- ------------ --<br>------ -- ---- -- --- ---- -- -------- -- --- ------ ------,198095.80000019073,198095.40000009537,197720.977,197724.80000019073,197737.657,198104.329,,5,saw
screen,html.Screen,2_3_1_0_1_6,2022-05-03T13:23:37.971Z,,,,,,,,,,,,,,,,,12,,,,,,,,,,,,,,455.97100019073696,,response,,,,5,H,,,,,,Space,keypress(Space),,,,speech,,,,---- ------ ------ ------- ------ --- another -----------<br>-- ----- --- ---- -- --- ------ ---- - ---- -- ----------<br>-- ------ ---- --- ---- --- --- --- ----- -- -------- ---<br>------ ------- -------- --- ---- -- ------- ------------ --<br>------ -- ---- -- --- ---- -- -------- -- --- ------ ------,198560.70000004768,198560.30000019073,198087.646,198095.80000019073,198104.329,198571.006,,6,another
screen,html.Screen,2_3_1_0_1_7,2022-05-03T13:23:38.599Z,,,,,,,,,,,,,,,,,12,,,,,,,,,,,,,,616.5940001430572,,response,,,,5,H,,,,,,Space,keypress(Space),,,,speech,,,,---- ------ ------ ------- ------ --- ------- opportunity<br>-- ----- --- ---- -- --- ------ ---- - ---- -- ----------<br>-- ------ ---- --- ---- --- --- --- ----- -- -------- ---<br>------ ------- -------- --- ---- -- ------- ------------ --<br>------ -- ---- -- --- ---- -- -------- -- --- ------ ------,199187.90000009537,199187.60000014305,198554.336,198560.80000019073,198571.006,199204.357,,7,opportunity
screen,html.Screen,2_3_1_0_1_8,2022-05-03T13:23:39.242Z,,,,,,,,,,,,,,,,,12,,,,,,,,,,,,,,627.0430000953784,,response,,,,5,H,,,,,,Space,keypress(Space),,,,speech,,,,---- ------ ------ ------- ------ --- ------- -----------<br>to ----- --- ---- -- --- ------ ---- - ---- -- ----------<br>-- ------ ---- --- ---- --- --- --- ----- -- -------- ---<br>------ ------- -------- --- ---- -- ------- ------------ --<br>------ -- ---- -- --- ---- -- -------- -- --- ------ ------,199831.70000004768,199831.40000009537,199187.66,199188,199204.357,199837.689,,8,to
screen,html.Screen,2_3_1_0_1_9,2022-05-03T13:23:39.549Z,,,,,,,,,,,,,,,,,12,,,,,,,,,,,,,,300.31099999998696,,response,,,,5,H,,,,,,Space,keypress(Space),,,,speech,,,,---- ------ ------ ------- ------ --- ------- -----------<br>-- stack --- ---- -- --- ------ ---- - ---- -- ----------<br>-- ------ ---- --- ---- --- --- --- ----- -- -------- ---<br>------ ------- -------- --- ---- -- ------- ------------ --<br>------ -- ---- -- --- ---- -- -------- -- --- ------ ------,200138.30000019073,200138,199820.994,199831.80000019073,199837.689,200154.416,,9,stack
screen,html.Screen,2_3_1_0_1_10,2022-05-03T13:23:39.900Z,,,,,,,,,,,,,,,,,12,,,,,,,,,,,,,,334.08400000000256,,response,,,,5,H,,,,,,Space,keypress(Space),,,,speech,,,,---- ------ ------ ------- ------ --- ------- -----------<br>-- ----- the ---- -- --- ------ ---- - ---- -- ----------<br>-- ------ ---- --- ---- --- --- --- ----- -- -------- ---<br>------ ------- -------- --- ---- -- ------- ------------ --<br>------ -- ---- -- --- ---- -- -------- -- --- ------ ------,200488.80000019073,200488.5,200137.717,200138.40000009537,200154.416,200521.082,,10,the
screen,html.Screen,2_3_1_0_1_11,2022-05-03T13:23:40.305Z,,,,,,,,,,,,,,,,,12,,,,,,,,,,,,,,372.4180000000051,,response,,,,5,H,,,,,,Space,keypress(Space),,,,speech,,,,---- ------ ------ ------- ------ --- ------- -----------<br>-- ----- --- odds -- --- ------ ---- - ---- -- ----------<br>-- ------ ---- --- ---- --- --- --- ----- -- -------- ---<br>------ ------- -------- --- ---- -- ------- ------------ --<br>------ -- ---- -- --- ---- -- -------- -- --- ------ ------,200893.90000009537,200893.5,200504.363,200488.90000009537,200521.082,200904.418,,11,odds
screen,html.Screen,2_3_1_0_1_12,2022-05-03T13:23:40.708Z,,,,,,,,,,,,,,,,,12,,,,,,,,,,,,,,392.9820000953623,,response,,,,5,H,,,,,,Space,keypress(Space),,,,speech,,,,---- ------ ------ ------- ------ --- ------- -----------<br>-- ----- --- ---- in --- ------ ---- - ---- -- ----------<br>-- ------ ---- --- ---- --- --- --- ----- -- -------- ---<br>------ ------- -------- --- ---- -- ------- ------------ --<br>------ -- ---- -- --- ---- -- -------- -- --- ------ ------,201297.70000004768,201297.40000009537,200887.714,200894,200904.418,201304.382,,12,in
screen,html.Screen,2_3_1_0_1_13,2022-05-03T13:23:41.035Z,,,,,,,,,,,,,,,,,12,,,,,,,,,,,,,,320.0180000953551,,response,,,,5,H,,,,,,Space,keypress(Space),,,,speech,,,,---- ------ ------ ------- ------ --- ------- -----------<br>-- ----- --- ---- -- his ------ ---- - ---- -- ----------<br>-- ------ ---- --- ---- --- --- --- ----- -- -------- ---<br>------ ------- -------- --- ---- -- ------- ------------ --<br>------ -- ---- -- --- ---- -- -------- -- --- ------ ------,201624.80000019073,201624.40000009537,201287.704,201297.70000004768,201304.382,201637.722,,13,his
screen,html.Screen,2_3_1_0_1_14,2022-05-03T13:23:41.556Z,,,,,,,,,,,,,,,,,12,,,,,,,,,,,,,,507.578000190726,,response,,,,5,H,,,,,,Space,keypress(Space),,,,speech,,,,---- ------ ------ ------- ------ --- ------- -----------<br>-- ----- --- ---- -- --- favour ---- - ---- -- ----------<br>-- ------ ---- --- ---- --- --- --- ----- -- -------- ---<br>------ ------- -------- --- ---- -- ------- ------------ --<br>------ -- ---- -- --- ---- -- -------- -- --- ------ ------,202145.70000004768,202145.30000019073,201621.046,201624.80000019073,201637.722,202154.395,,14,favour
screen,html.Screen,2_3_1_0_1_15,2022-05-03T13:23:41.927Z,,,,,,,,,,,,,,,,,12,,,,,,,,,,,,,,361.1050000000105,,response,,,,5,H,,,,,,Space,keypress(Space),,,,speech,,,,---- ------ ------ ------- ------ --- ------- -----------<br>-- ----- --- ---- -- --- ------ with - ---- -- ----------<br>-- ------ ---- --- ---- --- --- --- ----- -- -------- ---<br>------ ------- -------- --- ---- -- ------- ------------ --<br>------ -- ---- -- --- ---- -- -------- -- --- ------ ------,202515.90000009537,202515.5,202137.728,202145.80000019073,202154.395,202521.065,,15,with
screen,html.Screen,2_3_1_0_1_16,2022-05-03T13:23:42.214Z,,,,,,,,,,,,,,,,,12,,,,,,,,,,,,,,281.3350000953651,,response,,,,5,H,,,,,,Space,keypress(Space),,,,speech,,,,---- ------ ------ ------- ------ --- ------- -----------<br>-- ----- --- ---- -- --- ------ ---- a ---- -- ----------<br>-- ------ ---- --- ---- --- --- --- ----- -- -------- ---<br>------ ------- -------- --- ---- -- ------- ------------ --<br>------ -- ---- -- --- ---- -- -------- -- --- ------ ------,202802.80000019073,202802.40000009537,202504.384,202516,202521.065,202804.439,,16,a
screen,html.Screen,2_3_1_0_1_17,2022-05-03T13:23:42.560Z,,,,,,,,,,,,,,,,,12,,,,,,,,,,,,,,343.9610000953544,,response,,,,5,H,,,,,,Space,keypress(Space),,,,speech,,,,---- ------ ------ ------- ------ --- ------- -----------<br>-- ----- --- ---- -- --- ------ ---- - dash -- ----------<br>-- ------ ---- --- ---- --- --- --- ----- -- -------- ---<br>------ ------- -------- --- ---- -- ------- ------------ --<br>------ -- ---- -- --- ---- -- -------- -- --- ------ ------,203148.80000019073,203148.40000009537,202787.727,202802.90000009537,202804.439,203171.082,,17,dash
screen,html.Screen,2_3_1_0_1_18,2022-05-03T13:23:42.913Z,,,,,,,,,,,,,,,,,12,,,,,,,,,,,,,,331.31800009537255,,response,,,,5,H,,,,,,Space,keypress(Space),,,,speech,,,,---- ------ ------ ------- ------ --- ------- -----------<br>-- ----- --- ---- -- --- ------ ---- - ---- of ----------<br>-- ------ ---- --- ---- --- --- --- ----- -- -------- ---<br>------ ------- -------- --- ---- -- ------- ------------ --<br>------ -- ---- -- --- ---- -- -------- -- --- ------ ------,203502.80000019073,203502.40000009537,203154.441,203149,203171.082,203504.419,,18,of
screen,html.Screen,2_3_1_0_1_19,2022-05-03T13:23:43.714Z,,,,,,,,,,,,,,,,,12,,,,,,,,,,,,,,798.0810000000056,,response,,,,5,H,,,,,,Space,keypress(Space),,,,speech,,,,---- ------ ------ ------- ------ --- ------- -----------<br>-- ----- --- ---- -- --- ------ ---- - ---- -- ingenuity.<br>-- ------ ---- --- ---- --- --- --- ----- -- -------- ---<br>------ ------- -------- --- ---- -- ------- ------------ --<br>------ -- ---- -- --- ---- -- -------- -- --- ------ ------,204303,204302.5,203487.733,203502.80000019073,203504.419,204304.467,,19,ingenuity.
screen,html.Screen,2_3_1_0_1_20,2022-05-03T13:23:44.124Z,,,,,,,,,,,,,,,,,12,,,,,,,,,,,,,,408.93300009536324,,response,,,,5,H,,,,,,Space,keypress(Space),,,,speech,,,,---- ------ ------ ------- ------ --- ------- -----------<br>-- ----- --- ---- -- --- ------ ---- - ---- -- ----------<br>He ------ ---- --- ---- --- --- --- ----- -- -------- ---<br>------ ------- -------- --- ---- -- ------- ------------ --<br>------ -- ---- -- --- ---- -- -------- -- --- ------ ------,204713.70000004768,204713.40000009537,204287.765,204303.10000014305,204304.467,204721.113,,20,He
screen,html.Screen,2_3_1_0_1_21,2022-05-03T13:23:44.516Z,,,,,,,,,,,,,,,,,12,,,,,,,,,,,,,,384.3869999999879,,response,,,,5,H,,,,,,Space,keypress(Space),,,,speech,,,,---- ------ ------ ------- ------ --- ------- -----------<br>-- ----- --- ---- -- --- ------ ---- - ---- -- ----------<br>-- walked ---- --- ---- --- --- --- ----- -- -------- ---<br>------ ------- -------- --- ---- -- ------- ------------ --<br>------ -- ---- -- --- ---- -- -------- -- --- ------ ------,205105.80000019073,205105.5,204704.44,204713.80000019073,204721.113,205121.107,,21,walked
screen,html.Screen,2_3_1_0_1_22,2022-05-03T13:23:44.876Z,,,,,,,,,,,,,,,,,12,,,,,,,,,,,,,,343.39300000001094,,response,,,,5,H,,,,,,Space,keypress(Space),,,,speech,,,,---- ------ ------ ------- ------ --- ------- -----------<br>-- ----- --- ---- -- --- ------ ---- - ---- -- ----------<br>-- ------ into --- ---- --- --- --- ----- -- -------- ---<br>------ ------- -------- --- ---- -- ------- ------------ --<br>------ -- ---- -- --- ---- -- -------- -- --- ------ ------,205464.90000009537,205464.5,205104.449,205105.90000009537,205121.107,205471.115,,22,into
screen,html.Screen,2_3_1_0_1_23,2022-05-03T13:23:45.178Z,,,,,,,,,,,,,,,,,12,,,,,,,,,,,,,,295.78500009537674,,response,,,,5,H,,,,,,Space,keypress(Space),,,,speech,,,,---- ------ ------ ------- ------ --- ------- -----------<br>-- ----- --- ---- -- --- ------ ---- - ---- -- ----------<br>-- ------ ---- his ---- --- --- --- ----- -- -------- ---<br>------ ------- -------- --- ---- -- ------- ------------ --<br>------ -- ---- -- --- ---- -- -------- -- --- ------ ------,205767.30000019073,205766.90000009537,205454.437,205464.90000009537,205471.115,205787.793,,23,his
screen,html.Screen,2_3_1_0_1_24,2022-05-03T13:23:45.515Z,,,,,,,,,,,,,,,,,12,,,,,,,,,,,,,,316.6070000953623,,response,,,,5,H,,,,,,Space,keypress(Space),,,,speech,,,,---- ------ ------ ------- ------ --- ------- -----------<br>-- ----- --- ---- -- --- ------ ---- - ---- -- ----------<br>-- ------ ---- --- bank --- --- --- ----- -- -------- ---<br>------ ------- -------- --- ---- -- ------- ------------ --<br>------ -- ---- -- --- ---- -- -------- -- --- ------ ------,206104.70000004768,206104.40000009537,205771.147,205767.40000009537,205787.793,206121.132,,24,bank
screen,html.Screen,2_3_1_0_1_25,2022-05-03T13:23:45.871Z,,,,,,,,,,,,,,,,,12,,,,,,,,,,,,,,339.2680000953551,,response,,,,5,H,,,,,,Space,keypress(Space),,,,speech,,,,---- ------ ------ ------- ------ --- ------- -----------<br>-- ----- --- ---- -- --- ------ ---- - ---- -- ----------<br>-- ------ ---- --- ---- one --- --- ----- -- -------- ---<br>------ ------- -------- --- ---- -- ------- ------------ --<br>------ -- ---- -- --- ---- -- -------- -- --- ------ ------,206460.80000019073,206460.40000009537,206104.459,206104.80000019073,206121.132,206471.138,,25,one
screen,html.Screen,2_3_1_0_1_26,2022-05-03T13:23:46.226Z,,,,,,,,,,,,,,,,,12,,,,,,,,,,,,,,344.26200009536115,,response,,,,5,H,,,,,,Space,keypress(Space),,,,speech,,,,---- ------ ------ ------- ------ --- ------- -----------<br>-- ----- --- ---- -- --- ------ ---- - ---- -- ----------<br>-- ------ ---- --- ---- --- day --- ----- -- -------- ---<br>------ ------- -------- --- ---- -- ------- ------------ --<br>------ -- ---- -- --- ---- -- -------- -- --- ------ ------,206815.80000019073,206815.40000009537,206454.455,206460.90000009537,206471.138,206821.133,,26,day
screen,html.Screen,2_3_1_0_1_27,2022-05-03T13:23:46.575Z,,,,,,,,,,,,,,,,,12,,,,,,,,,,,,,,343.2670000953658,,response,,,,5,H,,,,,,Space,keypress(Space),,,,speech,,,,---- ------ ------ ------- ------ --- ------- -----------<br>-- ----- --- ---- -- --- ------ ---- - ---- -- ----------<br>-- ------ ---- --- ---- --- --- and ----- -- -------- ---<br>------ ------- -------- --- ---- -- ------- ------------ --<br>------ -- ---- -- --- ---- -- -------- -- --- ------ ------,207164.80000019073,207164.40000009537,206804.458,206815.80000019073,206821.133,207171.146,,27,and
screen,html.Screen,2_3_1_0_1_28,2022-05-03T13:23:46.904Z,,,,,,,,,,,,,,,,,12,,,,,,,,,,,,,,322.2540000953595,,response,,,,5,H,,,,,,Space,keypress(Space),,,,speech,,,,---- ------ ------ ------- ------ --- ------- -----------<br>-- ----- --- ---- -- --- ------ ---- - ---- -- ----------<br>-- ------ ---- --- ---- --- --- --- asked -- -------- ---<br>------ ------- -------- --- ---- -- ------- ------------ --<br>------ -- ---- -- --- ---- -- -------- -- --- ------ ------,207493.70000004768,207493.40000009537,207154.501,207164.80000019073,207171.146,207504.485,,28,asked
screen,html.Screen,2_3_1_0_1_29,2022-05-03T13:23:47.241Z,,,,,,,,,,,,,,,,,12,,,,,,,,,,,,,,325.9150000953814,,response,,,,5,H,,,,,,Space,keypress(Space),,,,speech,,,,---- ------ ------ ------- ------ --- ------- -----------<br>-- ----- --- ---- -- --- ------ ---- - ---- -- ----------<br>-- ------ ---- --- ---- --- --- --- ----- to -------- ---<br>------ ------- -------- --- ---- -- ------- ------------ --<br>------ -- ---- -- --- ---- -- -------- -- --- ------ ------,207830.80000019073,207830.40000009537,207487.81,207493.80000019073,207504.485,207837.824,,29,to
screen,html.Screen,2_3_1_0_1_30,2022-05-03T13:23:47.734Z,,,,,,,,,,,,,,,,,12,,,,,,,,,,,,,,485.5760000953742,,response,,,,5,H,,,,,,Space,keypress(Space),,,,speech,,,,---- ------ ------ ------- ------ --- ------- -----------<br>-- ----- --- ---- -- --- ------ ---- - ---- -- ----------<br>-- ------ ---- --- ---- --- --- --- ----- -- withdraw ---<br>------ ------- -------- --- ---- -- ------- ------------ --<br>------ -- ---- -- --- ---- -- -------- -- --- ------ ------,208323.80000019073,208323.40000009537,207821.148,207830.80000019073,207837.824,208337.834,,30,withdraw
screen,html.Screen,2_3_1_0_1_31,2022-05-03T13:23:48.369Z,,,,,,,,,,,,,,,,,12,,,,,,,,,,,,,,620.6659999999974,,response,,,,5,H,,,,,,Space,keypress(Space),,,,speech,,,,---- ------ ------ ------- ------ --- ------- -----------<br>-- ----- --- ---- -- --- ------ ---- - ---- -- ----------<br>-- ------ ---- --- ---- --- --- --- ----- -- -------- his<br>------ ------- -------- --- ---- -- ------- ------------ --<br>------ -- ---- -- --- ---- -- -------- -- --- ------ ------,208958.90000009537,208958.5,208321.15,208323.80000019073,208337.834,208971.192,,31,his
screen,html.Screen,2_3_1_0_1_32,2022-05-03T13:23:48.689Z,,,,,,,,,,,,,,,,,12,,,,,,,,,,,,,,307.10800019072485,,response,,,,5,H,,,,,,Space,keypress(Space),,,,speech,,,,---- ------ ------ ------- ------ --- ------- -----------<br>-- ----- --- ---- -- --- ------ ---- - ---- -- ----------<br>-- ------ ---- --- ---- --- --- --- ----- -- -------- ---<br>entire ------- -------- --- ---- -- ------- ------------ --<br>------ -- ---- -- --- ---- -- -------- -- --- ------ ------,209278.70000004768,209278.30000019073,208966.986,208958.90000009537,208971.192,209287.862,,32,entire
screen,html.Screen,2_3_1_0_1_33,2022-05-03T13:23:49.096Z,,,,,,,,,,,,,,,,,12,,,,,,,,,,,,,,397.5380000953737,,response,,,,5,H,,,,,,Space,keypress(Space),,,,speech,,,,---- ------ ------ ------- ------ --- ------- -----------<br>-- ----- --- ---- -- --- ------ ---- - ---- -- ----------<br>-- ------ ---- --- ---- --- --- --- ----- -- -------- ---<br>------ account -------- --- ---- -- ------- ------------ --<br>------ -- ---- -- --- ---- -- -------- -- --- ------ ------,209685.70000004768,209685.40000009537,209271.173,209278.70000004768,209287.862,209687.868,,33,account
screen,html.Screen,2_3_1_0_1_34,2022-05-03T13:23:49.472Z,,,,,,,,,,,,,,,,,12,,,,,,,,,,,,,,373.5320000953798,,response,,,,5,H,,,,,,Space,keypress(Space),,,,speech,,,,"---- ------ ------ ------- ------ --- ------- -----------<br>-- ----- --- ---- -- --- ------ ---- - ---- -- ----------<br>-- ------ ---- --- ---- --- --- --- ----- -- -------- ---<br>------ ------- balance, --- ---- -- ------- ------------ --<br>------ -- ---- -- --- ---- -- -------- -- --- ------ ------",210061.80000019073,210061.40000009537,209671.171,209685.80000019073,209687.868,210071.197,,34,"balance,"
screen,html.Screen,2_3_1_0_1_35,2022-05-03T13:23:50.062Z,,,,,,,,,,,,,,,,,12,,,,,,,,,,,,,,580.2030000953819,,response,,,,5,H,,,,,,Space,keypress(Space),,,,speech,,,,---- ------ ------ ------- ------ --- ------- -----------<br>-- ----- --- ---- -- --- ------ ---- - ---- -- ----------<br>-- ------ ---- --- ---- --- --- --- ----- -- -------- ---<br>------ ------- -------- but ---- -- ------- ------------ --<br>------ -- ---- -- --- ---- -- -------- -- --- ------ ------,210651.70000004768,210651.40000009537,210054.551,210061.90000009537,210071.197,210654.541,,35,but
screen,html.Screen,2_3_1_0_1_36,2022-05-03T13:23:50.467Z,,,,,,,,,,,,,,,,,12,,,,,,,,,,,,,,401.85900009537,,response,,,,5,H,,,,,,Space,keypress(Space),,,,speech,,,,---- ------ ------ ------- ------ --- ------- -----------<br>-- ----- --- ---- -- --- ------ ---- - ---- -- ----------<br>-- ------ ---- --- ---- --- --- --- ----- -- -------- ---<br>------ ------- -------- --- with -- ------- ------------ --<br>------ -- ---- -- --- ---- -- -------- -- --- ------ ------,211056.80000019073,211056.40000009537,210637.86,210651.80000019073,210654.541,211071.228,,36,with
screen,html.Screen,2_3_1_0_1_37,2022-05-03T13:23:50.788Z,,,,,,,,,,,,,,,,,12,,,,,,,,,,,,,,306.17200009536464,,response,,,,5,H,,,,,,Space,keypress(Space),,,,speech,,,,---- ------ ------ ------- ------ --- ------- -----------<br>-- ----- --- ---- -- --- ------ ---- - ---- -- ----------<br>-- ------ ---- --- ---- --- --- --- ----- -- -------- ---<br>------ ------- -------- --- ---- an ------- ------------ --<br>------ -- ---- -- --- ---- -- -------- -- --- ------ ------,211377.80000019073,211377.40000009537,211054.542,211056.80000019073,211071.228,211387.885,,37,an
screen,html.Screen,2_3_1_0_1_38,2022-05-03T13:23:51.292Z,,,,,,,,,,,,,,,,,12,,,,,,,,,,,,,,493.5150000953581,,response,,,,5,H,,,,,,Space,keypress(Space),,,,speech,,,,---- ------ ------ ------- ------ --- ------- -----------<br>-- ----- --- ---- -- --- ------ ---- - ---- -- ----------<br>-- ------ ---- --- ---- --- --- --- ----- -- -------- ---<br>------ ------- -------- --- ---- -- unusual ------------ --<br>------ -- ---- -- --- ---- -- -------- -- --- ------ ------,211881.70000004768,211881.40000009537,211371.217,211377.90000009537,211387.885,211887.889,,38,unusual
screen,html.Screen,2_3_1_0_1_39,2022-05-03T13:23:51.819Z,,,,,,,,,,,,,,,,,12,,,,,,,,,,,,,,519.6110000000044,,response,,,,5,H,,,,,,Space,keypress(Space),,,,speech,,,,---- ------ ------ ------- ------ --- ------- -----------<br>-- ----- --- ---- -- --- ------ ---- - ---- -- ----------<br>-- ------ ---- --- ---- --- --- --- ----- -- -------- ---<br>------ ------- -------- --- ---- -- ------- stipulation: --<br>------ -- ---- -- --- ---- -- -------- -- --- ------ ------,212407.90000009537,212407.5,211871.239,211881.70000004768,211887.889,212421.231,,39,stipulation:
screen,html.Screen,2_3_1_0_1_40,2022-05-03T13:23:52.248Z,,,,,,,,,,,,,,,,,12,,,,,,,,,,,,,,415.16900009536766,,response,,,,5,H,,,,,,Space,keypress(Space),,,,speech,,,,---- ------ ------ ------- ------ --- ------- -----------<br>-- ----- --- ---- -- --- ------ ---- - ---- -- ----------<br>-- ------ ---- --- ---- --- --- --- ----- -- -------- ---<br>------ ------- -------- --- ---- -- ------- ------------ He<br>------ -- ---- -- --- ---- -- -------- -- --- ------ ------,212836.90000009537,212836.40000009537,212404.591,212407.90000009537,212421.231,212861.617,,40,He
screen,html.Screen,2_3_1_0_1_41,2022-05-03T13:23:52.702Z,,,,,,,,,,,,,,,,,12,,,,,,,,,,,,,,429.6830001907365,,response,,,,5,H,,,,,,Space,keypress(Space),,,,speech,,,,---- ------ ------ ------- ------ --- ------- -----------<br>-- ----- --- ---- -- --- ------ ---- - ---- -- ----------<br>-- ------ ---- --- ---- --- --- --- ----- -- -------- ---<br>------ ------- -------- --- ---- -- ------- ------------ --<br>wanted -- ---- -- --- ---- -- -------- -- --- ------ ------,213291.60000014305,213291.30000019073,212821.23,212837,212861.617,213304.58,,41,wanted
screen,html.Screen,2_3_1_0_1_42,2022-05-03T13:23:53.124Z,,,,,,,,,,,,,,,,,12,,,,,,,,,,,,,,408.82000009538024,,response,,,,5,H,,,,,,Space,keypress(Space),,,,speech,,,,---- ------ ------ ------- ------ --- ------- -----------<br>-- ----- --- ---- -- --- ------ ---- - ---- -- ----------<br>-- ------ ---- --- ---- --- --- --- ----- -- -------- ---<br>------ ------- -------- --- ---- -- ------- ------------ --<br>------ as ---- -- --- ---- -- -------- -- --- ------ ------,213713.70000004768,213713.40000009537,213287.921,213291.80000019073,213304.58,213721.255,,42,as
screen,html.Screen,2_3_1_0_1_43,2022-05-03T13:23:53.483Z,,,,,,,,,,,,,,,,,12,,,,,,,,,,,,,,351.1450000953628,,response,,,,5,H,,,,,,Space,keypress(Space),,,,speech,,,,---- ------ ------ ------- ------ --- ------- -----------<br>-- ----- --- ---- -- --- ------ ---- - ---- -- ----------<br>-- ------ ---- --- ---- --- --- --- ----- -- -------- ---<br>------ ------- -------- --- ---- -- ------- ------------ --<br>------ -- much -- --- ---- -- -------- -- --- ------ ------,214072.80000019073,214072.40000009537,213704.561,213713.80000019073,213721.255,214087.928,,43,much
