sender,sender_type,sender_id,timestamp,meta,,Blues,Classical,Country,Dance,Electronic,Folk,Gospel,Hip-Hop,Jazz,Latin,Musical/Film,New-age,Pop,Prolific_id,Provo_ID,R&B,Rap,Reggae,Religious,Rock,Soul,Swing,Traditional,age,artist_name,correct,correctResponse,distraction,duration,education,ended_on,familiarity,gender,headphone_check_performance,item,list,music_frequency,offensiveness,pleasantness,position_correct,preference,response,response_action,snippet_file,song_name,song_rating,sound,stimulus_1,stimulus_2,stimulus_3,text,time_commit,time_end,time_render,time_run,time_show,time_switch,url,word,word_ID
Prolific ID,html.Form,0,2022-05-03T18:04:14.992Z,"{""labjs_version"":""20.2.2"",""labjs_build"":{""flavor"":""production"",""commit"":""a25486e0c714a0ae2ce03ff94b7bb6896854dcfa""},""location"":""https://run.pavlovia.org/mvasilev/prolific3_music_a/"",""userAgent"":""Mozilla/5.0 (Windows NT 10.0; Win64; x64) AppleWebKit/537.36 (KHTML, like Gecko) Chrome/100.0.4896.127 Safari/537.36"",""platform"":""Win32"",""language"":""en-US"",""locale"":""en-US"",""timeZone"":""Europe/London"",""timezoneOffset"":-60,""screen_width"":1280,""screen_height"":800,""scroll_width"":1280,""scroll_height"":609,""window_innerWidth"":1280,""window_innerHeight"":657,""devicePixelRatio"":1.5}",,,,,,,,,,,,,,,6033e1c97228c71437568d9a,,,,,,,,,,,,,,,6582.740000023841,,form submission,,,,,,,,,,,,,,,,,,,,,18961.5,18961.100000023842,12361.588,12366.100000023842,12378.36,18961.824,{},,
Introduction,html.Screen,1_0,2022-05-03T18:04:17.560Z,,,,,,,,,,,,,,,,,,,,,,,,,,,,,,,2566.7760000238413,,response,,,,,,,,,,,continue,click button,,,,,,,,,21529.30000001192,21528.600000023842,18945.272,18961.69999998808,18961.824,21545.151,,,
Volume calibration,html.Screen,1_1,2022-05-03T18:04:33.791Z,,,,,,,,,,,,,,,,,,,,,,,,,,,,,,,16214.14900001192,,response,,,,,,,,,,,continue,click button,,,,,,,,,37760.10000002384,37759.30000001192,21528.48,21529.400000035763,21545.151,37762.253,,,
Task instructions,html.Screen,1_2,2022-05-03T18:04:39.689Z,,,,,,,,,,,,,,,,,,,,,,,,,,,,,,,5895.547000011924,,response,,,,,,,,,,,continue,click button,,,,,,,,,43658.60000002384,43657.80000001192,37745.639,37760.10000002384,37762.253,43662.328,,,
Sounds,html.Screen,1_3_0_0,2022-05-03T18:04:43.929Z,,,,,,,,,,,,,,,,,,,,,,,,,,,,,,,4250.226999999999,,timeout,,,,,,,,,1,,,,,,,,S,O,I,,47898.40000003576,47895.914,43645.768,43658.80000001192,43662.328,47912.555,,,
Judgement,html.Screen,1_3_0_1,2022-05-03T18:04:45.711Z,,,,,,,,,,,,,,,,,,,,,,,,,,,,true,1,,1767.0450000238416,,response,,,,,,,,,1,,1,click #choice-1,,,,,S,O,I,,49680.60000002384,49679.60000002384,47895.914,47898.5,47912.555,49695.861,,,
Trial,flow.Sequence,1_3_0,2022-05-03T18:04:45.712Z,,,,,,,,,,,,,,,,,,,,,,,,,,,,,,,6017.2720000238405,,completion,,,,,,,,,1,,,,,,,,S,O,I,,49680.80000001192,49679.60000002384,43645.768,43658.69999998808,43662.328,49695.861,,,
Sounds,html.Screen,1_3_1_0,2022-05-03T18:04:49.961Z,,,,,,,,,,,,,,,,,,,,,,,,,,,,,,,4250.314000000006,,timeout,,,,,,,,,3,,,,,,,,I,O,S,,53930.40000003576,53929.368,49679.353,49681.19999998808,49695.861,53946.175,,,
Judgement,html.Screen,1_3_1_1,2022-05-03T18:04:50.467Z,,,,,,,,,,,,,,,,,,,,,,,,,,,,true,3,,488.42500002383895,,response,,,,,,,,,3,,3,click #choice-3,,,,,I,O,S,,54435.80000001192,54434.60000002384,53929.368,53930.5,53946.175,54462.692,,,
Trial,flow.Sequence,1_3_1,2022-05-03T18:04:50.467Z,,,,,,,,,,,,,,,,,,,,,,,,,,,,,,,4738.739000023845,,completion,,,,,,,,,3,,,,,,,,I,O,S,,54436,54434.60000002384,49679.353,49680.90000003576,49695.861,54462.692,,,
Sounds,html.Screen,1_3_2_0,2022-05-03T18:04:54.728Z,,,,,,,,,,,,,,,,,,,,,,,,,,,,,,,4250.293999999994,,timeout,,,,,,,,,2,,,,,,,,O,S,I,,58697,58696.153,54446.134,54436.10000002384,54462.692,58712.986,,,
Judgement,html.Screen,1_3_2_1,2022-05-03T18:04:55.221Z,,,,,,,,,,,,,,,,,,,,,,,,,,,,true,2,,475.8140000119238,,response,,,,,,,,,2,,2,click #choice-2,,,,,O,S,I,,59190,59188.80000001192,58696.153,58697.10000002384,58712.986,59212.845,,,
Trial,flow.Sequence,1_3_2,2022-05-03T18:04:55.221Z,,,,,,,,,,,,,,,,,,,,,,,,,,,,,,,4726.108000011918,,completion,,,,,,,,,2,,,,,,,,O,S,I,,59190.30000001192,59188.80000001192,54446.134,54436.10000002384,54462.692,59212.845,,,
Sounds,html.Screen,1_3_3_0,2022-05-03T18:04:59.490Z,,,,,,,,,,,,,,,,,,,,,,,,,,,,,,,4249.968999999997,,timeout,,,,,,,,,1,,,,,,,,S,I,O,,63447.10000002384,63446.231,59196.047,59190.40000003576,59212.845,63462.814,,,
Judgement,html.Screen,1_3_3_1,2022-05-03T18:05:00.007Z,,,,,,,,,,,,,,,,,,,,,,,,,,,,true,1,,499.8859999880806,,response,,,,,,,,,1,,1,click #choice-1,,,,,S,I,O,,63963.69999998808,63962.69999998808,63446.231,63447.10000002384,63462.814,63979.617,,,
Trial,flow.Sequence,1_3_3,2022-05-03T18:05:00.007Z,,,,,,,,,,,,,,,,,,,,,,,,,,,,,,,4749.854999988078,,completion,,,,,,,,,1,,,,,,,,S,I,O,,63964,63962.69999998808,59196.047,59190.40000003576,59212.845,63979.617,,,
Sounds,html.Screen,1_3_4_0,2022-05-03T18:05:04.258Z,,,,,,,,,,,,,,,,,,,,,,,,,,,,,,,4250.119999999995,,timeout,,,,,,,,,2,,,,,,,,I,S,O,,68214.30000001192,68213.184,63962.912,63964.30000001192,63979.617,68229.737,,,
Judgement,html.Screen,1_3_4_1,2022-05-03T18:05:05.874Z,,,,,,,,,,,,,,,,,,,,,,,,,,,,true,2,,1600.163000035769,,response,,,,,,,,,2,,2,click #choice-2,,,,,I,S,O,,69830.69999998808,69829.90000003576,68213.184,68214.5,68229.737,69846.435,,,
Trial,flow.Sequence,1_3_4,2022-05-03T18:05:05.874Z,,,,,,,,,,,,,,,,,,,,,,,,,,,,,,,5850.283000035764,,completion,,,,,,,,,2,,,,,,,,I,S,O,,69830.80000001192,69829.90000003576,63962.912,63964.19999998808,63979.617,69846.435,,,
Sounds,html.Screen,1_3_5_0,2022-05-03T18:05:10.124Z,,,,,,,,,,,,,,,,,,,,,,,,,,,,,,,4250.241000000009,,timeout,,,,,,,,,3,,,,,,,,O,I,S,,74081.19999998808,74080.042,69829.693,69830.90000003576,69846.435,74096.676,,,
Judgement,html.Screen,1_3_5_1,2022-05-03T18:05:10.595Z,,,,,,,,,,,,,,,,,,,,,,,,,,,,true,3,,454.6240000119142,,response,,,,,,,,,3,,3,click #choice-3,,,,,O,I,S,,74552.19999998808,74551.30000001192,74080.042,74081.40000003576,74096.676,74563.049,,,
Trial,flow.Sequence,1_3_5,2022-05-03T18:05:10.596Z,,,,,,,,,,,,,,,,,,,,,,,,,,,,,,,4704.865000011923,,completion,,,,,,,,,3,,,,,,,,O,I,S,,74552.30000001192,74551.30000001192,69829.693,69830.90000003576,69846.435,74563.049,,,
Task,flow.Loop,1_3,2022-05-03T18:05:10.598Z,,,,,,,,,,,,,,,,,,,,,,,,,,,,,,,30888.97200001192,,completion,,,1,,,,,,,,,,,,,,,,,,74554.69999998808,74551.30000001192,43645.768,43658.69999998808,43662.328,74563.049,,,
Trap,html.Screen,1_4,2022-05-03T18:05:10.599Z,,,,,,,,,,,,,,,,,,,,,,,,,,,,,,,NaN,,skipped,,,,,,,,,,,,,,,,,,,,,74555.30000001192,74551.30000001192,,74555.30000001192,,74563.049,,,
Thanks,html.Screen,1_5,2022-05-03T18:05:25.637Z,,,,,,,,,,,,,,,,,,,,,,,,,,,,,,,15029.451000000001,,response,,,,,,,,,,,continue,click button,,,,,,,,,89593.69999998808,89592.5,74561.204,74555.40000003576,74563.049,93213.704,,,
Headphone screening,flow.Sequence,1,2022-05-03T18:05:25.637Z,,,,,,,,,,,,,,,,,,,,,,,,,,,,,,,70630.676,,completion,,,,,,,,,,,,,,,,,,,,,89593.80000001192,89592.5,18945.272,18961.69999998808,18961.824,93213.704,,,
Instructions,html.Page,2_0,2022-05-03T18:05:32.200Z,,,,,,,,,,,,,,,,,,,,,,,,,,,,,,,2942.896000023844,,form submission,,,,,,,,,,,,,,,,,,,,,96156.80000001192,96156.60000002384,93196.792,93201.40000003576,93213.704,96163.618,,,
Holding screen,html.Screen,2_1_0_0,2022-05-03T18:05:42.191Z,,,,,,,,,,,,,,,,,,,,,,,,,,,,,,,10000.175999999992,,timeout,,,,,,,,,,,,,,,,,,,,,106148.10000002384,106147.177,96147.216,96156.90000003576,96163.618,106163.794,,,
screen,html.Screen,2_1_0_1_0,2022-05-03T18:05:43.057Z,,,,,,,,,,,,,,,,,53,,,,,,,,,,,,,,847.7060000000056,,response,,,,99,,,,,,,Space,keypress(Space),,,,,,,,When -- ----- -- ------ - ------- --- ----------<br>------------- ------ ------ ---- ---- ------- ----- -- ----<br>-------- ------- -- ---------- --- - --- ----- ----- ----<br>---- --- --- ----- --- ---- ---- ------- ----- ---- -------<br>--- --- -- ----- -- --- ---- -- --- ---- -- ------ ------<br>--- ----- -- ----,107013.40000003576,107011.5,106147.177,106148.30000001192,106163.794,107030.657,,0,When
screen,html.Screen,2_1_0_1_1,2022-05-03T18:05:44.181Z,,,,,,,,,,,,,,,,,53,,,,,,,,,,,,,,1105.9430000238353,,response,,,,99,,,,,,,Space,keypress(Space),,,,,,,,---- it ----- -- ------ - ------- --- ----------<br>------------- ------ ------ ---- ---- ------- ----- -- ----<br>-------- ------- -- ---------- --- - --- ----- ----- ----<br>---- --- --- ----- --- ---- ---- ------- ----- ---- -------<br>--- --- -- ----- -- --- ---- -- --- ---- -- ------ ------<br>--- ----- -- ----,108137.30000001192,108136.60000002384,107013.831,107013.60000002384,107030.657,108147.238,,1,it
screen,html.Screen,2_1_0_1_2,2022-05-03T18:05:44.808Z,,,,,,,,,,,,,,,,,53,,,,,,,,,,,,,,617.5620000119234,,response,,,,99,,,,,,,Space,keypress(Space),,,,,,,,---- -- comes -- ------ - ------- --- ----------<br>------------- ------ ------ ---- ---- ------- ----- -- ----<br>-------- ------- -- ---------- --- - --- ----- ----- ----<br>---- --- --- ----- --- ---- ---- ------- ----- ---- -------<br>--- --- -- ----- -- --- ---- -- --- ---- -- ------ ------<br>--- ----- -- ----,108765.19999998808,108764.80000001192,108130.655,108137.30000001192,108147.238,108780.615,,2,comes
screen,html.Screen,2_1_0_1_3,2022-05-03T18:05:45.393Z,,,,,,,,,,,,,,,,,53,,,,,,,,,,,,,,567.8849999999948,,response,,,,99,,,,,,,Space,keypress(Space),,,,,,,,---- -- ----- to ------ - ------- --- ----------<br>------------- ------ ------ ---- ---- ------- ----- -- ----<br>-------- ------- -- ---------- --- - --- ----- ----- ----<br>---- --- --- ----- --- ---- ---- ------- ----- ---- -------<br>--- --- -- ----- -- --- ---- -- --- ---- -- ------ ------<br>--- ----- -- ----,109349.40000003576,109348.5,108764.035,108765.19999998808,108780.615,109364.246,,3,to
screen,html.Screen,2_1_0_1_4,2022-05-03T18:05:45.998Z,,,,,,,,,,,,,,,,,53,,,,,,,,,,,,,,590.3540000238427,,response,,,,99,,,,,,,Space,keypress(Space),,,,,,,,---- -- ----- -- having - ------- --- ----------<br>------------- ------ ------ ---- ---- ------- ----- -- ----<br>-------- ------- -- ---------- --- - --- ----- ----- ----<br>---- --- --- ----- --- ---- ---- ------- ----- ---- -------<br>--- --- -- ----- -- --- ---- -- --- ---- -- ------ ------<br>--- ----- -- ----,109954.90000003576,109954.60000002384,109347.295,109349.60000002384,109364.246,109963.918,,4,having
screen,html.Screen,2_1_0_1_5,2022-05-03T18:05:46.616Z,,,,,,,,,,,,,,,,,53,,,,,,,,,,,,,,608.0819999999949,,response,,,,99,,,,,,,Space,keypress(Space),,,,,,,,---- -- ----- -- ------ a ------- --- ----------<br>------------- ------ ------ ---- ---- ------- ----- -- ----<br>-------- ------- -- ---------- --- - --- ----- ----- ----<br>---- --- --- ----- --- ---- ---- ------- ----- ---- -------<br>--- --- -- ----- -- --- ---- -- --- ---- -- ------ ------<br>--- ----- -- ----,110572.5,110572,109947.415,109955,109963.918,110580.662,,5,a
screen,html.Screen,2_1_0_1_6,2022-05-03T18:05:47.186Z,,,,,,,,,,,,,,,,,53,,,,,,,,,,,,,,562.0379999880824,,response,,,,99,,,,,,,Space,keypress(Space),,,,,,,,---- -- ----- -- ------ - lasting --- ----------<br>------------- ------ ------ ---- ---- ------- ----- -- ----<br>-------- ------- -- ---------- --- - --- ----- ----- ----<br>---- --- --- ----- --- ---- ---- ------- ----- ---- -------<br>--- --- -- ----- -- --- ---- -- --- ---- -- ------ ------<br>--- ----- -- ----,111143.10000002384,111142.69999998808,110563.856,110572.5,110580.662,111147.266,,6,lasting
screen,html.Screen,2_1_0_1_7,2022-05-03T18:05:47.624Z,,,,,,,,,,,,,,,,,53,,,,,,,,,,,,,,433.1340000357595,,response,,,,99,,,,,,,Space,keypress(Space),,,,,,,,---- -- ----- -- ------ - ------- and ----------<br>------------- ------ ------ ---- ---- ------- ----- -- ----<br>-------- ------- -- ---------- --- - --- ----- ----- ----<br>---- --- --- ----- --- ---- ---- ------- ----- ---- -------<br>--- --- -- ----- -- --- ---- -- --- ---- -- ------ ------<br>--- ----- -- ----,111581.10000002384,111580.40000003576,111130.564,111143.19999998808,111147.266,111597.285,,7,and
screen,html.Screen,2_1_0_1_8,2022-05-03T18:05:48.174Z,,,,,,,,,,,,,,,,,53,,,,,,,,,,,,,,532.4149999880756,,response,,,,99,,,,,,,Space,keypress(Space),,,,,,,,---- -- ----- -- ------ - ------- --- fulfilling<br>------------- ------ ------ ---- ---- ------- ----- -- ----<br>-------- ------- -- ---------- --- - --- ----- ----- ----<br>---- --- --- ----- --- ---- ---- ------- ----- ---- -------<br>--- --- -- ----- -- --- ---- -- --- ---- -- ------ ------<br>--- ----- -- ----,112130.30000001192,112129.69999998808,111580.781,111581.30000001192,111597.285,112147.359,,8,fulfilling
screen,html.Screen,2_1_0_1_9,2022-05-03T18:05:48.759Z,,,,,,,,,,,,,,,,,53,,,,,,,,,,,,,,567.041000035766,,response,,,,99,,,,,,,Space,keypress(Space),,,,,,,,"---- -- ----- -- ------ - ------- --- ----------<br>relationship, ------ ------ ---- ---- ------- ----- -- ----<br>-------- ------- -- ---------- --- - --- ----- ----- ----<br>---- --- --- ----- --- ---- ---- ------- ----- ---- -------<br>--- --- -- ----- -- --- ---- -- --- ---- -- ------ ------<br>--- ----- -- ----",112715.30000001192,112714.40000003576,112130.771,112130.40000003576,112147.359,112730.786,,9,"relationship,"
screen,html.Screen,2_1_0_1_10,2022-05-03T18:05:49.384Z,,,,,,,,,,,,,,,,,53,,,,,,,,,,,,,,609.4139999880863,,response,,,,99,,,,,,,Space,keypress(Space),,,,,,,,---- -- ----- -- ------ - ------- --- ----------<br>------------- common ------ ---- ---- ------- ----- -- ----<br>-------- ------- -- ---------- --- - --- ----- ----- ----<br>---- --- --- ----- --- ---- ---- ------- ----- ---- -------<br>--- --- -- ----- -- --- ---- -- --- ---- -- ------ ------<br>--- ----- -- ----,113341,113340.19999998808,112714.173,112715.40000003576,112730.786,113347.345,,10,common
screen,html.Screen,2_1_0_1_11,2022-05-03T18:05:49.860Z,,,,,,,,,,,,,,,,,53,,,,,,,,,,,,,,468.65499999999884,,response,,,,99,,,,,,,Space,keypress(Space),,,,,,,,---- -- ----- -- ------ - ------- --- ----------<br>------------- ------ wisdom ---- ---- ------- ----- -- ----<br>-------- ------- -- ---------- --- - --- ----- ----- ----<br>---- --- --- ----- --- ---- ---- ------- ----- ---- -------<br>--- --- -- ----- -- --- ---- -- --- ---- -- ------ ------<br>--- ----- -- ----,113816.5,113816,113330.783,113341.19999998808,113347.345,113830.963,,11,wisdom
screen,html.Screen,2_1_0_1_12,2022-05-03T18:05:50.432Z,,,,,,,,,,,,,,,,,53,,,,,,,,,,,,,,557.3370000119176,,response,,,,99,,,,,,,Space,keypress(Space),,,,,,,,---- -- ----- -- ------ - ------- --- ----------<br>------------- ------ ------ says ---- ------- ----- -- ----<br>-------- ------- -- ---------- --- - --- ----- ----- ----<br>---- --- --- ----- --- ---- ---- ------- ----- ---- -------<br>--- --- -- ----- -- --- ---- -- --- ---- -- ------ ------<br>--- ----- -- ----,114389.19999998808,114388.30000001192,113814.061,113816.60000002384,113830.963,114397.423,,12,says
screen,html.Screen,2_1_0_1_13,2022-05-03T18:05:51.035Z,,,,,,,,,,,,,,,,,53,,,,,,,,,,,,,,593.8770000119257,,response,,,,99,,,,,,,Space,keypress(Space),,,,,,,,---- -- ----- -- ------ - ------- --- ----------<br>------------- ------ ------ ---- that ------- ----- -- ----<br>-------- ------- -- ---------- --- - --- ----- ----- ----<br>---- --- --- ----- --- ---- ---- ------- ----- ---- -------<br>--- --- -- ----- -- --- ---- -- --- ---- -- ------ ------<br>--- ----- -- ----,114991.90000003576,114991.30000001192,114380.966,114389.30000001192,114397.423,114997.405,,13,that
screen,html.Screen,2_1_0_1_14,2022-05-03T18:05:51.627Z,,,,,,,,,,,,,,,,,53,,,,,,,,,,,,,,585.195000023843,,response,,,,99,,,,,,,Space,keypress(Space),,,,,,,,---- -- ----- -- ------ - ------- --- ----------<br>------------- ------ ------ ---- ---- feeling ----- -- ----<br>-------- ------- -- ---------- --- - --- ----- ----- ----<br>---- --- --- ----- --- ---- ---- ------- ----- ---- -------<br>--- --- -- ----- -- --- ---- -- --- ---- -- ------ ------<br>--- ----- -- ----,115583.5,115582.60000002384,114980.933,114992,114997.405,115597.452,,14,feeling
screen,html.Screen,2_1_0_1_15,2022-05-03T18:05:52.138Z,,,,,,,,,,,,,,,,,53,,,,,,,,,,,,,,496.2479999880743,,response,,,,99,,,,,,,Space,keypress(Space),,,,,,,,---- -- ----- -- ------ - ------- --- ----------<br>------------- ------ ------ ---- ---- ------- close -- ----<br>-------- ------- -- ---------- --- - --- ----- ----- ----<br>---- --- --- ----- --- ---- ---- ------- ----- ---- -------<br>--- --- -- ----- -- --- ---- -- --- ---- -- ------ ------<br>--- ----- -- ----,116094.30000001192,116093.69999998808,115580.762,115583.60000002384,115597.452,116097.332,,15,close
screen,html.Screen,2_1_0_1_16,2022-05-03T18:05:52.605Z,,,,,,,,,,,,,,,,,53,,,,,,,,,,,,,,464.268000023847,,response,,,,99,,,,,,,Space,keypress(Space),,,,,,,,---- -- ----- -- ------ - ------- --- ----------<br>------------- ------ ------ ---- ---- ------- ----- to ----<br>-------- ------- -- ---------- --- - --- ----- ----- ----<br>---- --- --- ----- --- ---- ---- ------- ----- ---- -------<br>--- --- -- ----- -- --- ---- -- --- ---- -- ------ ------<br>--- ----- -- ----,116562.10000002384,116561.60000002384,116080.752,116094.40000003576,116097.332,116564.067,,16,to
screen,html.Screen,2_1_0_1_17,2022-05-03T18:05:53.152Z,,,,,,,,,,,,,,,,,53,,,,,,,,,,,,,,543.9330000000045,,response,,,,99,,,,,,,Space,keypress(Space),,,,,,,,---- -- ----- -- ------ - ------- --- ----------<br>------------- ------ ------ ---- ---- ------- ----- -- your<br>-------- ------- -- ---------- --- - --- ----- ----- ----<br>---- --- --- ----- --- ---- ---- ------- ----- ---- -------<br>--- --- -- ----- -- --- ---- -- --- ---- -- ------ ------<br>--- ----- -- ----,117108.80000001192,117108,116547.579,116562.19999998808,116564.067,117114.411,,17,your
screen,html.Screen,2_1_0_1_18,2022-05-03T18:05:53.683Z,,,,,,,,,,,,,,,,,53,,,,,,,,,,,,,,524.7889999880863,,response,,,,99,,,,,,,Space,keypress(Space),,,,,,,,---- -- ----- -- ------ - ------- --- ----------<br>------------- ------ ------ ---- ---- ------- ----- -- ----<br>romantic ------- -- ---------- --- - --- ----- ----- ----<br>---- --- --- ----- --- ---- ---- ------- ----- ---- -------<br>--- --- -- ----- -- --- ---- -- --- ---- -- ------ ------<br>--- ----- -- ----,117639.60000002384,117639.19999998808,117097.476,117108.90000003576,117114.411,117647.456,,18,romantic
screen,html.Screen,2_1_0_1_19,2022-05-03T18:05:54.234Z,,,,,,,,,,,,,,,,,53,,,,,,,,,,,,,,542.4440000357572,,response,,,,99,,,,,,,Space,keypress(Space),,,,,,,,---- -- ----- -- ------ - ------- --- ----------<br>------------- ------ ------ ---- ---- ------- ----- -- ----<br>-------- partner -- ---------- --- - --- ----- ----- ----<br>---- --- --- ----- --- ---- ---- ------- ----- ---- -------<br>--- --- -- ----- -- --- ---- -- --- ---- -- ------ ------<br>--- ----- -- ----,118190.5,118189.90000003576,117630.928,117639.80000001192,117647.456,118197.455,,19,partner
screen,html.Screen,2_1_0_1_20,2022-05-03T18:05:54.761Z,,,,,,,,,,,,,,,,,53,,,,,,,,,,,,,,519.0449999999983,,response,,,,99,,,,,,,Space,keypress(Space),,,,,,,,---- -- ----- -- ------ - ------- --- ----------<br>------------- ------ ------ ---- ---- ------- ----- -- ----<br>-------- ------- is ---------- --- - --- ----- ----- ----<br>---- --- --- ----- --- ---- ---- ------- ----- ---- -------<br>--- --- -- ----- -- --- ---- -- --- ---- -- ------ ------<br>--- ----- -- ----,118717.30000001192,118716.5,118180.904,118190.5,118197.455,118730.809,,20,is
screen,html.Screen,2_1_0_1_21,2022-05-03T18:05:55.327Z,,,,,,,,,,,,,,,,,53,,,,,,,,,,,,,,552.6910000000062,,response,,,,99,,,,,,,Space,keypress(Space),,,,,,,,---- -- ----- -- ------ - ------- --- ----------<br>------------- ------ ------ ---- ---- ------- ----- -- ----<br>-------- ------- -- paramount. --- - --- ----- ----- ----<br>---- --- --- ----- --- ---- ---- ------- ----- ---- -------<br>--- --- -- ----- -- --- ---- -- --- ---- -- ------ ------<br>--- ----- -- ----,119284.19999998808,119283.5,118714.082,118717.40000003576,118730.809,119297.583,,21,paramount.
screen,html.Screen,2_1_0_1_22,2022-05-03T18:05:55.895Z,,,,,,,,,,,,,,,,,53,,,,,,,,,,,,,,553.6169999880804,,response,,,,99,,,,,,,Space,keypress(Space),,,,,,,,---- -- ----- -- ------ - ------- --- ----------<br>------------- ------ ------ ---- ---- ------- ----- -- ----<br>-------- ------- -- ---------- But - --- ----- ----- ----<br>---- --- --- ----- --- ---- ---- ------- ----- ---- -------<br>--- --- -- ----- -- --- ---- -- --- ---- -- ------ ------<br>--- ----- -- ----,119851.80000001192,119851.19999998808,119281.048,119284.30000001192,119297.583,119864.123,,22,But
screen,html.Screen,2_1_0_1_23,2022-05-03T18:05:56.350Z,,,,,,,,,,,,,,,,,53,,,,,,,,,,,,,,426.5769999880722,,response,,,,99,,,,,,,Space,keypress(Space),,,,,,,,---- -- ----- -- ------ - ------- --- ----------<br>------------- ------ ------ ---- ---- ------- ----- -- ----<br>-------- ------- -- ---------- --- a --- ----- ----- ----<br>---- --- --- ----- --- ---- ---- ------- ----- ---- -------<br>--- --- -- ----- -- --- ---- -- --- ---- -- ------ ------<br>--- ----- -- ----,120291.10000002384,120290.69999998808,119847.598,119851.90000003576,119864.123,120297.508,,23,a
screen,html.Screen,2_1_0_1_24,2022-05-03T18:05:56.784Z,,,,,,,,,,,,,,,,,53,,,,,,,,,,,,,,427.19199998807744,,response,,,,99,,,,,,,Space,keypress(Space),,,,,,,,---- -- ----- -- ------ - ------- --- ----------<br>------------- ------ ------ ---- ---- ------- ----- -- ----<br>-------- ------- -- ---------- --- - new ----- ----- ----<br>---- --- --- ----- --- ---- ---- ------- ----- ---- -------<br>--- --- -- ----- -- --- ---- -- --- ---- -- ------ ------<br>--- ----- -- ----,120725.5,120724.69999998808,120281.006,120291.19999998808,120297.508,120730.811,,24,new
screen,html.Screen,2_1_0_1_25,2022-05-03T18:05:57.162Z,,,,,,,,,,,,,,,,,53,,,,,,,,,,,,,,371.88899998807756,,response,,,,99,,,,,,,Space,keypress(Space),,,,,,,,---- -- ----- -- ------ - ------- --- ----------<br>------------- ------ ------ ---- ---- ------- ----- -- ----<br>-------- ------- -- ---------- --- - --- study ----- ----<br>---- --- --- ----- --- ---- ---- ------- ----- ---- -------<br>--- --- -- ----- -- --- ---- -- --- ---- -- ------ ------<br>--- ----- -- ----,121103.60000002384,121102.69999998808,120714.097,120725.60000002384,120730.811,121114.21,,25,study
screen,html.Screen,2_1_0_1_26,2022-05-03T18:05:57.523Z,,,,,,,,,,,,,,,,,53,,,,,,,,,,,,,,348.6900000357564,,response,,,,99,,,,,,,Space,keypress(Space),,,,,,,,---- -- ----- -- ------ - ------- --- ----------<br>------------- ------ ------ ---- ---- ------- ----- -- ----<br>-------- ------- -- ---------- --- - --- ----- finds ----<br>---- --- --- ----- --- ---- ---- ------- ----- ---- -------<br>--- --- -- ----- -- --- ---- -- --- ---- -- ------ ------<br>--- ----- -- ----,121463.69999998808,121462.90000003576,121097.78,121103.69999998808,121114.21,121480.929,,26,finds
screen,html.Screen,2_1_0_1_27,2022-05-03T18:05:57.911Z,,,,,,,,,,,,,,,,,53,,,,,,,,,,,,,,370.97100003575906,,response,,,,99,,,,,,,Space,keypress(Space),,,,,,,,---- -- ----- -- ------ - ------- --- ----------<br>------------- ------ ------ ---- ---- ------- ----- -- ----<br>-------- ------- -- ---------- --- - --- ----- ----- that<br>---- --- --- ----- --- ---- ---- ------- ----- ---- -------<br>--- --- -- ----- -- --- ---- -- --- ---- -- ------ ------<br>--- ----- -- ----,121852.5,121851.90000003576,121464.343,121463.90000003576,121480.929,121864.282,,27,that
screen,html.Screen,2_1_0_1_28,2022-05-03T18:05:58.442Z,,,,,,,,,,,,,,,,,53,,,,,,,,,,,,,,518.4179999880726,,response,,,,99,,,,,,,Space,keypress(Space),,,,,,,,---- -- ----- -- ------ - ------- --- ----------<br>------------- ------ ------ ---- ---- ------- ----- -- ----<br>-------- ------- -- ---------- --- - --- ----- ----- ----<br>it's --- --- ----- --- ---- ---- ------- ----- ---- -------<br>--- --- -- ----- -- --- ---- -- --- ---- -- ------ ------<br>--- ----- -- ----,122383.40000003576,122382.69999998808,121847.662,121852.60000002384,121864.282,122397.564,,28,it's
screen,html.Screen,2_1_0_1_29,2022-05-03T18:05:58.955Z,,,,,,,,,,,,,,,,,53,,,,,,,,,,,,,,497.8360000357643,,response,,,,99,,,,,,,Space,keypress(Space),,,,,,,,---- -- ----- -- ------ - ------- --- ----------<br>------------- ------ ------ ---- ---- ------- ----- -- ----<br>-------- ------- -- ---------- --- - --- ----- ----- ----<br>---- not --- ----- --- ---- ---- ------- ----- ---- -------<br>--- --- -- ----- -- --- ---- -- --- ---- -- ------ ------<br>--- ----- -- ----,122896,122895.40000003576,122380.979,122383.5,122397.564,122897.478,,29,not
screen,html.Screen,2_1_0_1_30,2022-05-03T18:05:59.344Z,,,,,,,,,,,,,,,,,53,,,,,,,,,,,,,,386.7219999880763,,response,,,,99,,,,,,,Space,keypress(Space),,,,,,,,---- -- ----- -- ------ - ------- --- ----------<br>------------- ------ ------ ---- ---- ------- ----- -- ----<br>-------- ------- -- ---------- --- - --- ----- ----- ----<br>---- --- how ----- --- ---- ---- ------- ----- ---- -------<br>--- --- -- ----- -- --- ---- -- --- ---- -- ------ ------<br>--- ----- -- ----,123284.60000002384,123284.19999998808,122881.113,122896,122897.478,123297.687,,30,how
screen,html.Screen,2_1_0_1_31,2022-05-03T18:05:59.755Z,,,,,,,,,,,,,,,,,53,,,,,,,,,,,,,,398.1130000119156,,response,,,,99,,,,,,,Space,keypress(Space),,,,,,,,---- -- ----- -- ------ - ------- --- ----------<br>------------- ------ ------ ---- ---- ------- ----- -- ----<br>-------- ------- -- ---------- --- - --- ----- ----- ----<br>---- --- --- close --- ---- ---- ------- ----- ---- -------<br>--- --- -- ----- -- --- ---- -- --- ---- -- ------ ------<br>--- ----- -- ----,123696.19999998808,123695.80000001192,123281.004,123284.80000001192,123297.687,123719.298,,31,close
screen,html.Screen,2_1_0_1_32,2022-05-03T18:06:00.226Z,,,,,,,,,,,,,,,,,53,,,,,,,,,,,,,,447.0020000119257,,response,,,,99,,,,,,,Space,keypress(Space),,,,,,,,---- -- ----- -- ------ - ------- --- ----------<br>------------- ------ ------ ---- ---- ------- ----- -- ----<br>-------- ------- -- ---------- --- - --- ----- ----- ----<br>---- --- --- ----- you ---- ---- ------- ----- ---- -------<br>--- --- -- ----- -- --- ---- -- --- ---- -- ------ ------<br>--- ----- -- ----,124166.69999998808,124166.30000001192,123680.92,123696.40000003576,123719.298,124180.993,,32,you
screen,html.Screen,2_1_0_1_33,2022-05-03T18:06:00.729Z,,,,,,,,,,,,,,,,,53,,,,,,,,,,,,,,488.0069999999978,,response,,,,99,,,,,,,Space,keypress(Space),,,,,,,,---- -- ----- -- ------ - ------- --- ----------<br>------------- ------ ------ ---- ---- ------- ----- -- ----<br>-------- ------- -- ---------- --- - --- ----- ----- ----<br>---- --- --- ----- --- feel ---- ------- ----- ---- -------<br>--- --- -- ----- -- --- ---- -- --- ---- -- ------ ------<br>--- ----- -- ----,124669.69999998808,124669,124164.236,124166.80000001192,124180.993,124681.124,,33,feel
screen,html.Screen,2_1_0_1_34,2022-05-03T18:06:01.199Z,,,,,,,,,,,,,,,,,53,,,,,,,,,,,,,,458.27600003576663,,response,,,,99,,,,,,,Space,keypress(Space),,,,,,,,---- -- ----- -- ------ - ------- --- ----------<br>------------- ------ ------ ---- ---- ------- ----- -- ----<br>-------- ------- -- ---------- --- - --- ----- ----- ----<br>---- --- --- ----- --- ---- that ------- ----- ---- -------<br>--- --- -- ----- -- --- ---- -- --- ---- -- ------ ------<br>--- ----- -- ----,125140.10000002384,125139.40000003576,124664.419,124670,124681.124,125147.677,,34,that
screen,html.Screen,2_1_0_1_35,2022-05-03T18:06:01.666Z,,,,,,,,,,,,,,,,,53,,,,,,,,,,,,,,458.9230000238458,,response,,,,99,,,,,,,Space,keypress(Space),,,,,,,,---- -- ----- -- ------ - ------- --- ----------<br>------------- ------ ------ ---- ---- ------- ----- -- ----<br>-------- ------- -- ---------- --- - --- ----- ----- ----<br>---- --- --- ----- --- ---- ---- matters ----- ---- -------<br>--- --- -- ----- -- --- ---- -- --- ---- -- ------ ------<br>--- ----- -- ----,125607,125606.60000002384,125131.151,125140.19999998808,125147.677,125614.193,,35,matters
screen,html.Screen,2_1_0_1_36,2022-05-03T18:06:02.127Z,,,,,,,,,,,,,,,,,53,,,,,,,,,,,,,,453.00699998807977,,response,,,,99,,,,,,,Space,keypress(Space),,,,,,,,"---- -- ----- -- ------ - ------- --- ----------<br>------------- ------ ------ ---- ---- ------- ----- -- ----<br>-------- ------- -- ---------- --- - --- ----- ----- ----<br>---- --- --- ----- --- ---- ---- ------- most, ---- -------<br>--- --- -- ----- -- --- ---- -- --- ---- -- ------ ------<br>--- ----- -- ----",126067.80000001192,126067.19999998808,125597.751,125607,125614.193,126081.251,,36,"most,"
screen,html.Screen,2_1_0_1_37,2022-05-03T18:06:02.628Z,,,,,,,,,,,,,,,,,53,,,,,,,,,,,,,,487.44899998807523,,response,,,,99,,,,,,,Space,keypress(Space),,,,,,,,---- -- ----- -- ------ - ------- --- ----------<br>------------- ------ ------ ---- ---- ------- ----- -- ----<br>-------- ------- -- ---------- --- - --- ----- ----- ----<br>---- --- --- ----- --- ---- ---- ------- ----- it's -------<br>--- --- -- ----- -- --- ---- -- --- ---- -- ------ ------<br>--- ----- -- ----,126569.60000002384,126568.69999998808,126064.341,126068.60000002384,126081.251,126581.042,,37,it's
screen,html.Screen,2_1_0_1_38,2022-05-03T18:06:03.084Z,,,,,,,,,,,,,,,,,53,,,,,,,,,,,,,,443.6579999880778,,response,,,,99,,,,,,,Space,keypress(Space),,,,,,,,---- -- ----- -- ------ - ------- --- ----------<br>------------- ------ ------ ---- ---- ------- ----- -- ----<br>-------- ------- -- ---------- --- - --- ----- ----- ----<br>---- --- --- ----- --- ---- ---- ------- ----- ---- whether<br>--- --- -- ----- -- --- ---- -- --- ---- -- ------ ------<br>--- ----- -- ----,127025.30000001192,127024.69999998808,126564.385,126569.69999998808,126581.042,127031.086,,38,whether
screen,html.Screen,2_1_0_1_39,2022-05-03T18:06:03.539Z,,,,,,,,,,,,,,,,,53,,,,,,,,,,,,,,447.9140000000043,,response,,,,99,,,,,,,Space,keypress(Space),,,,,,,,---- -- ----- -- ------ - ------- --- ----------<br>------------- ------ ------ ---- ---- ------- ----- -- ----<br>-------- ------- -- ---------- --- - --- ----- ----- ----<br>---- --- --- ----- --- ---- ---- ------- ----- ---- -------<br>you --- -- ----- -- --- ---- -- --- ---- -- ------ ------<br>--- ----- -- ----,127480,127479,127014.392,127025.30000001192,127031.086,127505.411,,39,you
screen,html.Screen,2_1_0_1_40,2022-05-03T18:06:03.976Z,,,,,,,,,,,,,,,,,53,,,,,,,,,,,,,,410.6890000238491,,response,,,,99,,,,,,,Space,keypress(Space),,,,,,,,---- -- ----- -- ------ - ------- --- ----------<br>------------- ------ ------ ---- ---- ------- ----- -- ----<br>-------- ------- -- ---------- --- - --- ----- ----- ----<br>---- --- --- ----- --- ---- ---- ------- ----- ---- -------<br>--- are -- ----- -- --- ---- -- --- ---- -- ------ ------<br>--- ----- -- ----,127917,127916.10000002384,127464.608,127480.10000002384,127505.411,127931.294,,40,are
screen,html.Screen,2_1_0_1_41,2022-05-03T18:06:04.401Z,,,,,,,,,,,,,,,,,53,,,,,,,,,,,,,,410.5060000119265,,response,,,,99,,,,,,,Space,keypress(Space),,,,,,,,---- -- ----- -- ------ - ------- --- ----------<br>------------- ------ ------ ---- ---- ------- ----- -- ----<br>-------- ------- -- ---------- --- - --- ----- ----- ----<br>---- --- --- ----- --- ---- ---- ------- ----- ---- -------<br>--- --- as ----- -- --- ---- -- --- ---- -- ------ ------<br>--- ----- -- ----,128342.60000002384,128341.80000001192,127914.618,127917.10000002384,127931.294,128347.709,,41,as
screen,html.Screen,2_1_0_1_42,2022-05-03T18:06:04.865Z,,,,,,,,,,,,,,,,,53,,,,,,,,,,,,,,457.8910000238393,,response,,,,99,,,,,,,Space,keypress(Space),,,,,,,,---- -- ----- -- ------ - ------- --- ----------<br>------------- ------ ------ ---- ---- ------- ----- -- ----<br>-------- ------- -- ---------- --- - --- ----- ----- ----<br>---- --- --- ----- --- ---- ---- ------- ----- ---- -------<br>--- --- -- close -- --- ---- -- --- ---- -- ------ ------<br>--- ----- -- ----,128806.10000002384,128805.60000002384,128331.192,128342.80000001192,128347.709,128814.304,,42,close
screen,html.Screen,2_1_0_1_43,2022-05-03T18:06:05.320Z,,,,,,,,,,,,,,,,,53,,,,,,,,,,,,,,446.6959999999963,,response,,,,99,,,,,,,Space,keypress(Space),,,,,,,,---- -- ----- -- ------ - ------- --- ----------<br>------------- ------ ------ ---- ---- ------- ----- -- ----<br>-------- ------- -- ---------- --- - --- ----- ----- ----<br>---- --- --- ----- --- ---- ---- ------- ----- ---- -------<br>--- --- -- ----- as --- ---- -- --- ---- -- ------ ------<br>--- ----- -- ----,129261.5,129261,128798.109,128806.19999998808,128814.304,129264.384,,43,as
screen,html.Screen,2_1_0_1_44,2022-05-03T18:06:05.733Z,,,,,,,,,,,,,,,,,53,,,,,,,,,,,,,,409.2160000238364,,response,,,,99,,,,,,,Space,keypress(Space),,,,,,,,---- -- ----- -- ------ - ------- --- ----------<br>------------- ------ ------ ---- ---- ------- ----- -- ----<br>-------- ------- -- ---------- --- - --- ----- ----- ----<br>---- --- --- ----- --- ---- ---- ------- ----- ---- -------<br>--- --- -- ----- -- you ---- -- --- ---- -- ------ ------<br>--- ----- -- ----,129674.10000002384,129673.60000002384,129247.732,129261.69999998808,129264.384,129681.286,,44,you
screen,html.Screen,2_1_0_1_45,2022-05-03T18:06:06.152Z,,,,,,,,,,,,,,,,,53,,,,,,,,,,,,,,411.61400003577,,response,,,,99,,,,,,,Space,keypress(Space),,,,,,,,---- -- ----- -- ------ - ------- --- ----------<br>------------- ------ ------ ---- ---- ------- ----- -- ----<br>-------- ------- -- ---------- --- - --- ----- ----- ----<br>---- --- --- ----- --- ---- ---- ------- ----- ---- -------<br>--- --- -- ----- -- --- want -- --- ---- -- ------ ------<br>--- ----- -- ----,130093.5,130092.90000003576,129664.612,129674.19999998808,129681.286,130097.795,,45,want
screen,html.Screen,2_1_0_1_46,2022-05-03T18:06:06.533Z,,,,,,,,,,,,,,,,,53,,,,,,,,,,,,,,375.3050000238436,,response,,,,99,,,,,,,Space,keypress(Space),,,,,,,,---- -- ----- -- ------ - ------- --- ----------<br>------------- ------ ------ ---- ---- ------- ----- -- ----<br>-------- ------- -- ---------- --- - --- ----- ----- ----<br>---- --- --- ----- --- ---- ---- ------- ----- ---- -------<br>--- --- -- ----- -- --- ---- to --- ---- -- ------ ------<br>--- ----- -- ----,130474.10000002384,130473.10000002384,130081.133,130093.60000002384,130097.795,130481.085,,46,to
screen,html.Screen,2_1_0_1_47,2022-05-03T18:06:06.883Z,,,,,,,,,,,,,,,,,53,,,,,,,,,,,,,,342.51500002383546,,response,,,,99,,,,,,,Space,keypress(Space),,,,,,,,"---- -- ----- -- ------ - ------- --- ----------<br>------------- ------ ------ ---- ---- ------- ----- -- ----<br>-------- ------- -- ---------- --- - --- ----- ----- ----<br>---- --- --- ----- --- ---- ---- ------- ----- ---- -------<br>--- --- -- ----- -- --- ---- -- be, ---- -- ------ ------<br>--- ----- -- ----",130824,130823.60000002384,130464.566,130474.19999998808,130481.085,130831.105,,47,"be,"
screen,html.Screen,2_1_0_1_48,2022-05-03T18:06:07.335Z,,,,,,,,,,,,,,,,,53,,,,,,,,,,,,,,443.99500002384593,,response,,,,99,,,,,,,Space,keypress(Space),,,,,,,,---- -- ----- -- ------ - ------- --- ----------<br>------------- ------ ------ ---- ---- ------- ----- -- ----<br>-------- ------- -- ---------- --- - --- ----- ----- ----<br>---- --- --- ----- --- ---- ---- ------- ----- ---- -------<br>--- --- -- ----- -- --- ---- -- --- even -- ------ ------<br>--- ----- -- ----,131275.69999998808,131275.10000002384,130814.624,130824.19999998808,130831.105,131281.102,,48,even
screen,html.Screen,2_1_0_1_49,2022-05-03T18:06:07.679Z,,,,,,,,,,,,,,,,,53,,,,,,,,,,,,,,338.6980000119074,,response,,,,99,,,,,,,Space,keypress(Space),,,,,,,,---- -- ----- -- ------ - ------- --- ----------<br>------------- ------ ------ ---- ---- ------- ----- -- ----<br>-------- ------- -- ---------- --- - --- ----- ----- ----<br>---- --- --- ----- --- ---- ---- ------- ----- ---- -------<br>--- --- -- ----- -- --- ---- -- --- ---- if ------ ------<br>--- ----- -- ----,131620.40000003576,131619.80000001192,131264.367,131275.90000003576,131281.102,131631.282,,49,if
screen,html.Screen,2_1_0_1_50,2022-05-03T18:06:08.101Z,,,,,,,,,,,,,,,,,53,,,,,,,,,,,,,,410.11800003575627,,response,,,,99,,,,,,,Space,keypress(Space),,,,,,,,---- -- ----- -- ------ - ------- --- ----------<br>------------- ------ ------ ---- ---- ------- ----- -- ----<br>-------- ------- -- ---------- --- - --- ----- ----- ----<br>---- --- --- ----- --- ---- ---- ------- ----- ---- -------<br>--- --- -- ----- -- --- ---- -- --- ---- -- that's ------<br>--- ----- -- ----,132042.30000001192,132041.40000003576,131614.72,131620.5,131631.282,132047.828,,50,that's
screen,html.Screen,2_1_0_1_51,2022-05-03T18:06:08.522Z,,,,,,,,,,,,,,,,,53,,,,,,,,,,,,,,414.6719999999914,,response,,,,99,,,,,,,Space,keypress(Space),,,,,,,,---- -- ----- -- ------ - ------- --- ----------<br>------------- ------ ------ ---- ---- ------- ----- -- ----<br>-------- ------- -- ---------- --- - --- ----- ----- ----<br>---- --- --- ----- --- ---- ---- ------- ----- ---- -------<br>--- --- -- ----- -- --- ---- -- --- ---- -- ------ really<br>--- ----- -- ----,132463.40000003576,132462.5,132031.173,132042.5,132047.828,132490.516,,51,really
screen,html.Screen,2_1_0_1_52,2022-05-03T18:06:08.942Z,,,,,,,,,,,,,,,,,53,,,,,,,,,,,,,,391.6839999880758,,response,,,,99,,,,,,,Space,keypress(Space),,,,,,,,---- -- ----- -- ------ - ------- --- ----------<br>------------- ------ ------ ---- ---- ------- ----- -- ----<br>-------- ------- -- ---------- --- - --- ----- ----- ----<br>---- --- --- ----- --- ---- ---- ------- ----- ---- -------<br>--- --- -- ----- -- --- ---- -- --- ---- -- ------ ------<br>not ----- -- ----,132883.10000002384,132882.19999998808,132447.993,132463.5,132490.516,132897.833,,52,not
screen,html.Screen,2_1_0_1_53,2022-05-03T18:06:09.301Z,,,,,,,,,,,,,,,,,53,,,,,,,,,,,,,,343.66699999998673,,response,,,,99,,,,,,,Space,keypress(Space),,,,,,,,---- -- ----- -- ------ - ------- --- ----------<br>------------- ------ ------ ---- ---- ------- ----- -- ----<br>-------- ------- -- ---------- --- - --- ----- ----- ----<br>---- --- --- ----- --- ---- ---- ------- ----- ---- -------<br>--- --- -- ----- -- --- ---- -- --- ---- -- ------ ------<br>--- close -- ----,133242,133241.5,132881.391,132883.19999998808,132897.833,133247.918,,53,close
screen,html.Screen,2_1_0_1_54,2022-05-03T18:06:09.679Z,,,,,,,,,,,,,,,,,53,,,,,,,,,,,,,,371.48200003575766,,response,,,,99,,,,,,,Space,keypress(Space),,,,,,,,---- -- ----- -- ------ - ------- --- ----------<br>------------- ------ ------ ---- ---- ------- ----- -- ----<br>-------- ------- -- ---------- --- - --- ----- ----- ----<br>---- --- --- ----- --- ---- ---- ------- ----- ---- -------<br>--- --- -- ----- -- --- ---- -- --- ---- -- ------ ------<br>--- ----- at ----,133620.10000002384,133619.40000003576,133231.323,133242,133247.918,133631.238,,54,at
screen,html.Screen,2_1_0_1_55,2022-05-03T18:06:10.036Z,,,,,,,,,,,,,,,,,53,,,,,,,,,,,,,,345.6620000357507,,response,,,,99,,,,,,,Space,keypress(Space),,,,,,,,---- -- ----- -- ------ - ------- --- ----------<br>------------- ------ ------ ---- ---- ------- ----- -- ----<br>-------- ------- -- ---------- --- - --- ----- ----- ----<br>---- --- --- ----- --- ---- ---- ------- ----- ---- -------<br>--- --- -- ----- -- --- ---- -- --- ---- -- ------ ------<br>--- ----- -- all.,133977.40000003576,133976.90000003576,133614.526,133620.19999998808,133631.238,133981.066,,55,all.
Item 99,flow.Loop,2_1_0_1,2022-05-03T18:06:10.036Z,,,,,,,,,,,,,,,,,,,,,,,,,,,,,,,27813.10600003577,,completion,,,,,A,,,,,,,,,,,silence,,,,,133977.60000002384,133976.90000003576,106147.177,106148.30000001192,106163.794,133981.066,,,
Question 1,html.Screen,2_1_0_2,2022-05-03T18:06:15.855Z,,,,,,,,,,,,,,,,,,,,,,,,,,,,true,FALSE,,5813.434000000008,,response,,,,99,A,,,,,,FALSE,click #choice-2,,,,silence,,,,,139796,139794.5,133964.568,133977.69999998808,133981.066,139797.974,,,
Question 2,html.Screen,2_1_0_3,2022-05-03T18:06:21.946Z,,,,,,,,,,,,,,,,,,,,,,,,,,,,true,TRUE,,6087.926000035775,,response,,,,99,A,,,,,,TRUE,click #choice-1,,,,silence,,,,,145887.19999998808,145885.90000003576,139781.309,139796.10000002384,139797.974,145898.193,,,
Item 99,flow.Sequence,2_1_0,2022-05-03T18:06:21.946Z,,,,,,,,,,,,,,,,,,,,,,,,,,,,,,,49722.28200003576,,completion,,,,,,,,,,,,,,,,,,,,,145887.5,145885.90000003576,96147.216,96156.80000001192,96163.618,145898.193,,,
Holding screen,html.Screen,2_1_1_0,2022-05-03T18:06:31.942Z,,,,,,,,,,,,,,,,,,,,,,,,,,,,,,,10000.209999999992,,timeout,,,,,,,,,,,,,,,,,,,,,155882.69999998808,155881.923,145881.723,145887.60000002384,145898.193,155898.403,,,
screen,html.Screen,2_1_1_1_0,2022-05-03T18:06:32.960Z,,,,,,,,,,,,,,,,,54,,,,,,,,,,,,,,1002.2969999880879,,response,,,,100,,,,,,,Space,keypress(Space),,,,,,,,At --- ---- --- ------ ----- ------- ---- -- --- ------- --<br>------- ---------- ------ -- ----- -- ----- -- ---- ------<br>--- ----- --- --- ------ -------- ----- --- ------ ----- --<br>----- ----- ---------- --- --- ------ ------ ---- -- ------<br>------- --- ------ ----- --- ---- ------- -- ---- --- --<br>------- ------,156901.19999998808,156900.69999998808,155881.923,155882.90000003576,155898.403,156915.067,,0,At
screen,html.Screen,2_1_1_1_1,2022-05-03T18:06:33.472Z,,,,,,,,,,,,,,,,,54,,,,,,,,,,,,,,497.63299998806906,,response,,,,100,,,,,,,Space,keypress(Space),,,,,,,,-- the ---- --- ------ ----- ------- ---- -- --- ------- --<br>------- ---------- ------ -- ----- -- ----- -- ---- ------<br>--- ----- --- --- ------ -------- ----- --- ------ ----- --<br>----- ----- ---------- --- --- ------ ------ ---- -- ------<br>------- --- ------ ----- --- ---- ------- -- ---- --- --<br>------- ------,157413.19999998808,157412.69999998808,156898.502,156901.30000001192,156915.067,157414.946,,1,the
screen,html.Screen,2_1_1_1_2,2022-05-03T18:06:33.837Z,,,,,,,,,,,,,,,,,54,,,,,,,,,,,,,,363.1540000238456,,response,,,,100,,,,,,,Space,keypress(Space),,,,,,,,-- --- time --- ------ ----- ------- ---- -- --- ------- --<br>------- ---------- ------ -- ----- -- ----- -- ---- ------<br>--- ----- --- --- ------ -------- ----- --- ------ ----- --<br>----- ----- ---------- --- --- ------ ------ ---- -- ------<br>------- --- ------ ----- --- ---- ------- -- ---- --- --<br>------- ------,157778.60000002384,157778.10000002384,157398.515,157413.30000001192,157414.946,157781.704,,2,time
screen,html.Screen,2_1_1_1_3,2022-05-03T18:06:34.220Z,,,,,,,,,,,,,,,,,54,,,,,,,,,,,,,,378.99599998808117,,response,,,,100,,,,,,,Space,keypress(Space),,,,,,,,-- --- ---- the ------ ----- ------- ---- -- --- ------- --<br>------- ---------- ------ -- ----- -- ----- -- ---- ------<br>--- ----- --- --- ------ -------- ----- --- ------ ----- --<br>----- ----- ---------- --- --- ------ ------ ---- -- ------<br>------- --- ------ ----- --- ---- ------- -- ---- --- --<br>------- ------,158161.30000001192,158160.69999998808,157765.091,157778.69999998808,157781.704,158165.118,,3,the
screen,html.Screen,2_1_1_1_4,2022-05-03T18:06:34.570Z,,,,,,,,,,,,,,,,,54,,,,,,,,,,,,,,345.38200000001234,,response,,,,100,,,,,,,Space,keypress(Space),,,,,,,,-- --- ---- --- French ----- ------- ---- -- --- ------- --<br>------- ---------- ------ -- ----- -- ----- -- ---- ------<br>--- ----- --- --- ------ -------- ----- --- ------ ----- --<br>----- ----- ---------- --- --- ------ ------ ---- -- ------<br>------- --- ------ ----- --- ---- ------- -- ---- --- --<br>------- ------,158511.10000002384,158510.5,158148.43,158161.30000001192,158165.118,158514.975,,4,French
screen,html.Screen,2_1_1_1_5,2022-05-03T18:06:34.877Z,,,,,,,,,,,,,,,,,54,,,,,,,,,,,,,,302.8250000119151,,response,,,,100,,,,,,,Space,keypress(Space),,,,,,,,-- --- ---- --- ------ crown ------- ---- -- --- ------- --<br>------- ---------- ------ -- ----- -- ----- -- ---- ------<br>--- ----- --- --- ------ -------- ----- --- ------ ----- --<br>----- ----- ---------- --- --- ------ ------ ---- -- ------<br>------- --- ------ ----- --- ---- ------- -- ---- --- --<br>------- ------,158818.69999998808,158817.80000001192,158498.496,158511.19999998808,158514.975,158831.831,,5,crown
screen,html.Screen,2_1_1_1_6,2022-05-03T18:06:35.176Z,,,,,,,,,,,,,,,,,54,,,,,,,,,,,,,,284.8689999880735,,response,,,,100,,,,,,,Space,keypress(Space),,,,,,,,-- --- ---- --- ------ ----- secured ---- -- --- ------- --<br>------- ---------- ------ -- ----- -- ----- -- ---- ------<br>--- ----- --- --- ------ -------- ----- --- ------ ----- --<br>----- ----- ---------- --- --- ------ ------ ---- -- ------<br>------- --- ------ ----- --- ---- ------- -- ---- --- --<br>------- ------,159117.10000002384,159116.69999998808,158815.185,158818.80000001192,158831.831,159131.762,,6,secured
screen,html.Screen,2_1_1_1_7,2022-05-03T18:06:35.486Z,,,,,,,,,,,,,,,,,54,,,,,,,,,,,,,,294.2380000000121,,response,,,,100,,,,,,,Space,keypress(Space),,,,,,,,-- --- ---- --- ------ ----- ------- much -- --- ------- --<br>------- ---------- ------ -- ----- -- ----- -- ---- ------<br>--- ----- --- --- ------ -------- ----- --- ------ ----- --<br>----- ----- ---------- --- --- ------ ------ ---- -- ------<br>------- --- ------ ----- --- ---- ------- -- ---- --- --<br>------- ------,159426.80000001192,159426,159115.171,159117.30000001192,159131.762,159431.8,,7,much
screen,html.Screen,2_1_1_1_8,2022-05-03T18:06:35.784Z,,,,,,,,,,,,,,,,,54,,,,,,,,,,,,,,292.70000000001164,,response,,,,100,,,,,,,Space,keypress(Space),,,,,,,,-- --- ---- --- ------ ----- ------- ---- of --- ------- --<br>------- ---------- ------ -- ----- -- ----- -- ---- ------<br>--- ----- --- --- ------ -------- ----- --- ------ ----- --<br>----- ----- ---------- --- --- ------ ------ ---- -- ------<br>------- --- ------ ----- --- ---- ------- -- ---- --- --<br>------- ------,159725.19999998808,159724.5,159415.228,159427,159431.8,159731.814,,8,of
screen,html.Screen,2_1_1_1_9,2022-05-03T18:06:36.038Z,,,,,,,,,,,,,,,,,54,,,,,,,,,,,,,,246.4860000119079,,response,,,,100,,,,,,,Space,keypress(Space),,,,,,,,-- --- ---- --- ------ ----- ------- ---- -- its ------- --<br>------- ---------- ------ -- ----- -- ----- -- ---- ------<br>--- ----- --- --- ------ -------- ----- --- ------ ----- --<br>----- ----- ---------- --- --- ------ ------ ---- -- ------<br>------- --- ------ ----- --- ---- ------- -- ---- --- --<br>------- ------,159979,159978.30000001192,159715.141,159725.30000001192,159731.814,159981.709,,9,its
screen,html.Screen,2_1_1_1_10,2022-05-03T18:06:36.263Z,,,,,,,,,,,,,,,,,54,,,,,,,,,,,,,,222.3910000238393,,response,,,,100,,,,,,,Space,keypress(Space),,,,,,,,-- --- ---- --- ------ ----- ------- ---- -- --- revenue --<br>------- ---------- ------ -- ----- -- ----- -- ---- ------<br>--- ----- --- --- ------ -------- ----- --- ------ ----- --<br>----- ----- ---------- --- --- ------ ------ ---- -- ------<br>------- --- ------ ----- --- ---- ------- -- ---- --- --<br>------- ------,160204.60000002384,160204.10000002384,159965.203,159979.10000002384,159981.709,160215.056,,10,revenue
screen,html.Screen,2_1_1_1_11,2022-05-03T18:06:36.718Z,,,,,,,,,,,,,,,,,54,,,,,,,,,,,,,,443.4439999999886,,response,,,,100,,,,,,,Space,keypress(Space),,,,,,,,-- --- ---- --- ------ ----- ------- ---- -- --- ------- by<br>------- ---------- ------ -- ----- -- ----- -- ---- ------<br>--- ----- --- --- ------ -------- ----- --- ------ ----- --<br>----- ----- ---------- --- --- ------ ------ ---- -- ------<br>------- --- ------ ----- --- ---- ------- -- ---- --- --<br>------- ------,160659.30000001192,160658.5,160198.407,160204.80000001192,160215.056,160665.308,,11,by
screen,html.Screen,2_1_1_1_12,2022-05-03T18:06:37.152Z,,,,,,,,,,,,,,,,,54,,,,,,,,,,,,,,426.5920000357728,,response,,,,100,,,,,,,Space,keypress(Space),,,,,,,,-- --- ---- --- ------ ----- ------- ---- -- --- ------- --<br>issuing ---------- ------ -- ----- -- ----- -- ---- ------<br>--- ----- --- --- ------ -------- ----- --- ------ ----- --<br>----- ----- ---------- --- --- ------ ------ ---- -- ------<br>------- --- ------ ----- --- ---- ------- -- ---- --- --<br>------- ------,161092.80000001192,161091.90000003576,160648.653,160659.40000003576,160665.308,161098.589,,12,issuing
screen,html.Screen,2_1_1_1_13,2022-05-03T18:06:37.660Z,,,,,,,,,,,,,,,,,54,,,,,,,,,,,,,,501.7110000119137,,response,,,,100,,,,,,,Space,keypress(Space),,,,,,,,-- --- ---- --- ------ ----- ------- ---- -- --- ------- --<br>------- government ------ -- ----- -- ----- -- ---- ------<br>--- ----- --- --- ------ -------- ----- --- ------ ----- --<br>----- ----- ---------- --- --- ------ ------ ---- -- ------<br>------- --- ------ ----- --- ---- ------- -- ---- --- --<br>------- ------,161600.90000003576,161600.30000001192,161081.95,161092.90000003576,161098.589,161615.254,,13,government
screen,html.Screen,2_1_1_1_14,2022-05-03T18:06:38.189Z,,,,,,,,,,,,,,,,,54,,,,,,,,,,,,,,514.8460000238556,,response,,,,100,,,,,,,Space,keypress(Space),,,,,,,,-- --- ---- --- ------ ----- ------- ---- -- --- ------- --<br>------- ---------- bonds. -- ----- -- ----- -- ---- ------<br>--- ----- --- --- ------ -------- ----- --- ------ ----- --<br>----- ----- ---------- --- --- ------ ------ ---- -- ------<br>------- --- ------ ----- --- ---- ------- -- ---- --- --<br>------- ------,162130.69999998808,162130.10000002384,161598.506,161601,161615.254,162157.964,,14,bonds.
screen,html.Screen,2_1_1_1_15,2022-05-03T18:06:38.797Z,,,,,,,,,,,,,,,,,54,,,,,,,,,,,,,,579.0359999999928,,response,,,,100,,,,,,,Space,keypress(Space),,,,,,,,-- --- ---- --- ------ ----- ------- ---- -- --- ------- --<br>------- ---------- ------ In ----- -- ----- -- ---- ------<br>--- ----- --- --- ------ -------- ----- --- ------ ----- --<br>----- ----- ---------- --- --- ------ ------ ---- -- ------<br>------- --- ------ ----- --- ---- ------- -- ---- --- --<br>------- ------,162737.69999998808,162737,162115.251,162130.80000001192,162157.964,162748.452,,15,In
screen,html.Screen,2_1_1_1_16,2022-05-03T18:06:39.932Z,,,,,,,,,,,,,,,,,54,,,,,,,,,,,,,,1124.3480000119307,,response,,,,100,,,,,,,Space,keypress(Space),,,,,,,,"-- --- ---- --- ------ ----- ------- ---- -- --- ------- --<br>------- ---------- ------ -- 1727, -- ----- -- ---- ------<br>--- ----- --- --- ------ -------- ----- --- ------ ----- --<br>----- ----- ---------- --- --- ------ ------ ---- -- ------<br>------- --- ------ ----- --- ---- ------- -- ---- --- --<br>------- ------",163873.5,163872.80000001192,162731.946,162737.90000003576,162748.452,163881.952,,16,"1727,"
screen,html.Screen,2_1_1_1_17,2022-05-03T18:06:40.550Z,,,,,,,,,,,,,,,,,54,,,,,,,,,,,,,,609.0480000000098,,response,,,,100,,,,,,,Space,keypress(Space),,,,,,,,-- --- ---- --- ------ ----- ------- ---- -- --- ------- --<br>------- ---------- ------ -- ----- in ----- -- ---- ------<br>--- ----- --- --- ------ -------- ----- --- ------ ----- --<br>----- ----- ---------- --- --- ------ ------ ---- -- ------<br>------- --- ------ ----- --- ---- ------- -- ---- --- --<br>------- ------,164491.40000003576,164491,163865.153,163873.69999998808,163881.952,164498.554,,17,in
screen,html.Screen,2_1_1_1_18,2022-05-03T18:06:41.073Z,,,,,,,,,,,,,,,,,54,,,,,,,,,,,,,,515.0460000238381,,response,,,,100,,,,,,,Space,keypress(Space),,,,,,,,-- --- ---- --- ------ ----- ------- ---- -- --- ------- --<br>------- ---------- ------ -- ----- -- order -- ---- ------<br>--- ----- --- --- ------ -------- ----- --- ------ ----- --<br>----- ----- ---------- --- --- ------ ------ ---- -- ------<br>------- --- ------ ----- --- ---- ------- -- ---- --- --<br>------- ------,165014.30000001192,165013.60000002384,164482.045,164491.5,164498.554,165041.84,,18,order
screen,html.Screen,2_1_1_1_19,2022-05-03T18:06:41.478Z,,,,,,,,,,,,,,,,,54,,,,,,,,,,,,,,376.4600000119244,,response,,,,100,,,,,,,Space,keypress(Space),,,,,,,,-- --- ---- --- ------ ----- ------- ---- -- --- ------- --<br>------- ---------- ------ -- ----- -- ----- to ---- ------<br>--- ----- --- --- ------ -------- ----- --- ------ ----- --<br>----- ----- ---------- --- --- ------ ------ ---- -- ------<br>------- --- ------ ----- --- ---- ------- -- ---- --- --<br>------- ------,165419.30000001192,165418.30000001192,164998.648,165014.40000003576,165041.84,165432.06,,19,to
screen,html.Screen,2_1_1_1_20,2022-05-03T18:06:41.822Z,,,,,,,,,,,,,,,,,54,,,,,,,,,,,,,,330.5400000238442,,response,,,,100,,,,,,,Space,keypress(Space),,,,,,,,-- --- ---- --- ------ ----- ------- ---- -- --- ------- --<br>------- ---------- ------ -- ----- -- ----- -- save ------<br>--- ----- --- --- ------ -------- ----- --- ------ ----- --<br>----- ----- ---------- --- --- ------ ------ ---- -- ------<br>------- --- ------ ----- --- ---- ------- -- ---- --- --<br>------- ------,165763.40000003576,165762.60000002384,165415.363,165419.40000003576,165432.06,165765.293,,20,save
screen,html.Screen,2_1_1_1_21,2022-05-03T18:06:42.207Z,,,,,,,,,,,,,,,,,54,,,,,,,,,,,,,,381.90699998807395,,response,,,,100,,,,,,,Space,keypress(Space),,,,,,,,"-- --- ---- --- ------ ----- ------- ---- -- --- ------- --<br>------- ---------- ------ -- ----- -- ----- -- ---- money,<br>--- ----- --- --- ------ -------- ----- --- ------ ----- --<br>----- ----- ---------- --- --- ------ ------ ---- -- ------<br>------- --- ------ ----- --- ---- ------- -- ---- --- --<br>------- ------",166147.80000001192,166147.19999998808,165748.635,165763.5,165765.293,166180.616,,21,"money,"
screen,html.Screen,2_1_1_1_22,2022-05-03T18:06:42.757Z,,,,,,,,,,,,,,,,,54,,,,,,,,,,,,,,517.08399998807,,response,,,,100,,,,,,,Space,keypress(Space),,,,,,,,-- --- ---- --- ------ ----- ------- ---- -- --- ------- --<br>------- ---------- ------ -- ----- -- ----- -- ---- ------<br>the ----- --- --- ------ -------- ----- --- ------ ----- --<br>----- ----- ---------- --- --- ------ ------ ---- -- ------<br>------- --- ------ ----- --- ---- ------- -- ---- --- --<br>------- ------,166698.19999998808,166697.69999998808,166131.986,166147.80000001192,166180.616,166715.319,,22,the
screen,html.Screen,2_1_1_1_23,2022-05-03T18:06:43.076Z,,,,,,,,,,,,,,,,,54,,,,,,,,,,,,,,300.98100001193234,,response,,,,100,,,,,,,Space,keypress(Space),,,,,,,,-- --- ---- --- ------ ----- ------- ---- -- --- ------- --<br>------- ---------- ------ -- ----- -- ----- -- ---- ------<br>--- state --- --- ------ -------- ----- --- ------ ----- --<br>----- ----- ---------- --- --- ------ ------ ---- -- ------<br>------- --- ------ ----- --- ---- ------- -- ---- --- --<br>------- ------,167016.90000003576,167016.30000001192,166681.993,166698.19999998808,166715.319,167031.94,,23,state
screen,html.Screen,2_1_1_1_24,2022-05-03T18:06:43.405Z,,,,,,,,,,,,,,,,,54,,,,,,,,,,,,,,313.8600000119186,,response,,,,100,,,,,,,Space,keypress(Space),,,,,,,,-- --- ---- --- ------ ----- ------- ---- -- --- ------- --<br>------- ---------- ------ -- ----- -- ----- -- ---- ------<br>--- ----- cut --- ------ -------- ----- --- ------ ----- --<br>----- ----- ---------- --- --- ------ ------ ---- -- ------<br>------- --- ------ ----- --- ---- ------- -- ---- --- --<br>------- ------,167346.5,167345.80000001192,167015.236,167016.90000003576,167031.94,167348.584,,24,cut
screen,html.Screen,2_1_1_1_25,2022-05-03T18:06:43.737Z,,,,,,,,,,,,,,,,,54,,,,,,,,,,,,,,329.41599999999744,,response,,,,100,,,,,,,Space,keypress(Space),,,,,,,,-- --- ---- --- ------ ----- ------- ---- -- --- ------- --<br>------- ---------- ------ -- ----- -- ----- -- ---- ------<br>--- ----- --- the ------ -------- ----- --- ------ ----- --<br>----- ----- ---------- --- --- ------ ------ ---- -- ------<br>------- --- ------ ----- --- ---- ------- -- ---- --- --<br>------- ------,167678.5,167678,167331.892,167346.60000002384,167348.584,167681.891,,25,the
screen,html.Screen,2_1_1_1_26,2022-05-03T18:06:44.169Z,,,,,,,,,,,,,,,,,54,,,,,,,,,,,,,,428.10899999999674,,response,,,,100,,,,,,,Space,keypress(Space),,,,,,,,-- --- ---- --- ------ ----- ------- ---- -- --- ------- --<br>------- ---------- ------ -- ----- -- ----- -- ---- ------<br>--- ----- --- --- bonds' -------- ----- --- ------ ----- --<br>----- ----- ---------- --- --- ------ ------ ---- -- ------<br>------- --- ------ ----- --- ---- ------- -- ---- --- --<br>------- ------,168110.5,168110,167665.357,167678.5,167681.891,168115.237,,26,bonds'
screen,html.Screen,2_1_1_1_27,2022-05-03T18:06:44.692Z,,,,,,,,,,,,,,,,,54,,,,,,,,,,,,,,517.0630000119272,,response,,,,100,,,,,,,Space,keypress(Space),,,,,,,,-- --- ---- --- ------ ----- ------- ---- -- --- ------- --<br>------- ---------- ------ -- ----- -- ----- -- ---- ------<br>--- ----- --- --- ------ interest ----- --- ------ ----- --<br>----- ----- ---------- --- --- ------ ------ ---- -- ------<br>------- --- ------ ----- --- ---- ------- -- ---- --- --<br>------- ------,168633,168632.30000001192,168098.727,168110.60000002384,168115.237,168648.708,,27,interest
screen,html.Screen,2_1_1_1_28,2022-05-03T18:06:45.337Z,,,,,,,,,,,,,,,,,54,,,,,,,,,,,,,,628.9919999880658,,response,,,,100,,,,,,,Space,keypress(Space),,,,,,,,-- --- ---- --- ------ ----- ------- ---- -- --- ------- --<br>------- ---------- ------ -- ----- -- ----- -- ---- ------<br>--- ----- --- --- ------ -------- rate. --- ------ ----- --<br>----- ----- ---------- --- --- ------ ------ ---- -- ------<br>------- --- ------ ----- --- ---- ------- -- ---- --- --<br>------- ------,169278.19999998808,169277.69999998808,168632.059,168633.19999998808,168648.708,169281.927,,28,rate.
screen,html.Screen,2_1_1_1_29,2022-05-03T18:06:45.928Z,,,,,,,,,,,,,,,,,54,,,,,,,,,,,,,,586.6730000238458,,response,,,,100,,,,,,,Space,keypress(Space),,,,,,,,-- --- ---- --- ------ ----- ------- ---- -- --- ------- --<br>------- ---------- ------ -- ----- -- ----- -- ---- ------<br>--- ----- --- --- ------ -------- ----- The ------ ----- --<br>----- ----- ---------- --- --- ------ ------ ---- -- ------<br>------- --- ------ ----- --- ---- ------- -- ---- --- --<br>------- ------,169869.5,169868.60000002384,169265.583,169278.30000001192,169281.927,169882.177,,29,The
screen,html.Screen,2_1_1_1_30,2022-05-03T18:06:46.390Z,,,,,,,,,,,,,,,,,54,,,,,,,,,,,,,,448.02299998808303,,response,,,,100,,,,,,,Space,keypress(Space),,,,,,,,-- --- ---- --- ------ ----- ------- ---- -- --- ------- --<br>------- ---------- ------ -- ----- -- ----- -- ---- ------<br>--- ----- --- --- ------ -------- ----- --- market ----- --<br>----- ----- ---------- --- --- ------ ------ ---- -- ------<br>------- --- ------ ----- --- ---- ------- -- ---- --- --<br>------- ------,170331,170330.19999998808,169865.365,169869.60000002384,169882.177,170360.338,,30,market
screen,html.Screen,2_1_1_1_31,2022-05-03T18:06:46.745Z,,,,,,,,,,,,,,,,,54,,,,,,,,,,,,,,325.56200003577396,,response,,,,100,,,,,,,Space,keypress(Space),,,,,,,,-- --- ---- --- ------ ----- ------- ---- -- --- ------- --<br>------- ---------- ------ -- ----- -- ----- -- ---- ------<br>--- ----- --- --- ------ -------- ----- --- ------ value --<br>----- ----- ---------- --- --- ------ ------ ---- -- ------<br>------- --- ------ ----- --- ---- ------- -- ---- --- --<br>------- ------,170686.5,170685.90000003576,170315.395,170331.10000002384,170360.338,170698.78,,31,value
screen,html.Screen,2_1_1_1_32,2022-05-03T18:06:47.160Z,,,,,,,,,,,,,,,,,54,,,,,,,,,,,,,,402.0200000119221,,response,,,,100,,,,,,,Space,keypress(Space),,,,,,,,-- --- ---- --- ------ ----- ------- ---- -- --- ------- --<br>------- ---------- ------ -- ----- -- ----- -- ---- ------<br>--- ----- --- --- ------ -------- ----- --- ------ ----- of<br>----- ----- ---------- --- --- ------ ------ ---- -- ------<br>------- --- ------ ----- --- ---- ------- -- ---- --- --<br>------- ------,171101.60000002384,171100.80000001192,170682.226,170686.69999998808,170698.78,171115.316,,32,of
screen,html.Screen,2_1_1_1_33,2022-05-03T18:06:47.605Z,,,,,,,,,,,,,,,,,54,,,,,,,,,,,,,,430.08400003577117,,response,,,,100,,,,,,,Space,keypress(Space),,,,,,,,-- --- ---- --- ------ ----- ------- ---- -- --- ------- --<br>------- ---------- ------ -- ----- -- ----- -- ---- ------<br>--- ----- --- --- ------ -------- ----- --- ------ ----- --<br>these ----- ---------- --- --- ------ ------ ---- -- ------<br>------- --- ------ ----- --- ---- ------- -- ---- --- --<br>------- ------,171546,171545.40000003576,171098.68,171101.69999998808,171115.316,171548.683,,33,these
screen,html.Screen,2_1_1_1_34,2022-05-03T18:06:48.008Z,,,,,,,,,,,,,,,,,54,,,,,,,,,,,,,,399.91700002385187,,response,,,,100,,,,,,,Space,keypress(Space),,,,,,,,-- --- ---- --- ------ ----- ------- ---- -- --- ------- --<br>------- ---------- ------ -- ----- -- ----- -- ---- ------<br>--- ----- --- --- ------ -------- ----- --- ------ ----- --<br>----- bonds ---------- --- --- ------ ------ ---- -- ------<br>------- --- ------ ----- --- ---- ------- -- ---- --- --<br>------- ------,171949.60000002384,171948.60000002384,171532.114,171546.60000002384,171548.683,171965.568,,34,bonds
screen,html.Screen,2_1_1_1_35,2022-05-03T18:06:48.484Z,,,,,,,,,,,,,,,,,54,,,,,,,,,,,,,,458.9320000000007,,response,,,,100,,,,,,,Space,keypress(Space),,,,,,,,"-- --- ---- --- ------ ----- ------- ---- -- --- ------- --<br>------- ---------- ------ -- ----- -- ----- -- ---- ------<br>--- ----- --- --- ------ -------- ----- --- ------ ----- --<br>----- ----- plummeted, --- --- ------ ------ ---- -- ------<br>------- --- ------ ----- --- ---- ------- -- ---- --- --<br>------- ------",172425.10000002384,172424.5,171948.806,171949.80000001192,171965.568,172432.061,,35,"plummeted,"
screen,html.Screen,2_1_1_1_36,2022-05-03T18:06:48.963Z,,,,,,,,,,,,,,,,,54,,,,,,,,,,,,,,471.0390000238549,,response,,,,100,,,,,,,Space,keypress(Space),,,,,,,,-- --- ---- --- ------ ----- ------- ---- -- --- ------- --<br>------- ---------- ------ -- ----- -- ----- -- ---- ------<br>--- ----- --- --- ------ -------- ----- --- ------ ----- --<br>----- ----- ---------- and --- ------ ------ ---- -- ------<br>------- --- ------ ----- --- ---- ------- -- ---- --- --<br>------- ------,172903.90000003576,172903.10000002384,172415.476,172425.19999998808,172432.061,172915.506,,36,and
screen,html.Screen,2_1_1_1_37,2022-05-03T18:06:49.347Z,,,,,,,,,,,,,,,,,54,,,,,,,,,,,,,,371.39400003576884,,response,,,,100,,,,,,,Space,keypress(Space),,,,,,,,-- --- ---- --- ------ ----- ------- ---- -- --- ------- --<br>------- ---------- ------ -- ----- -- ----- -- ---- ------<br>--- ----- --- --- ------ -------- ----- --- ------ ----- --<br>----- ----- ---------- --- the ------ ------ ---- -- ------<br>------- --- ------ ----- --- ---- ------- -- ---- --- --<br>------- ------,173288,173286.90000003576,172898.79,172904.10000002384,172915.506,173298.812,,37,the
screen,html.Screen,2_1_1_1_38,2022-05-03T18:06:49.822Z,,,,,,,,,,,,,,,,,54,,,,,,,,,,,,,,464.2880000238365,,response,,,,100,,,,,,,Space,keypress(Space),,,,,,,,-- --- ---- --- ------ ----- ------- ---- -- --- ------- --<br>------- ---------- ------ -- ----- -- ----- -- ---- ------<br>--- ----- --- --- ------ -------- ----- --- ------ ----- --<br>----- ----- ---------- --- --- market ------ ---- -- ------<br>------- --- ------ ----- --- ---- ------- -- ---- --- --<br>------- ------,173763.60000002384,173763.10000002384,173282.122,173288.10000002384,173298.812,173765.361,,38,market
screen,html.Screen,2_1_1_1_39,2022-05-03T18:06:50.235Z,,,,,,,,,,,,,,,,,54,,,,,,,,,,,,,,410.4390000119165,,response,,,,100,,,,,,,Space,keypress(Space),,,,,,,,-- --- ---- --- ------ ----- ------- ---- -- --- ------- --<br>------- ---------- ------ -- ----- -- ----- -- ---- ------<br>--- ----- --- --- ------ -------- ----- --- ------ ----- --<br>----- ----- ---------- --- --- ------ became ---- -- ------<br>------- --- ------ ----- --- ---- ------- -- ---- --- --<br>------- ------,174176.30000001192,174175.80000001192,173748.887,173763.69999998808,173765.361,174182.124,,39,became
screen,html.Screen,2_1_1_1_40,2022-05-03T18:06:50.679Z,,,,,,,,,,,,,,,,,54,,,,,,,,,,,,,,436.8759999999893,,response,,,,100,,,,,,,Space,keypress(Space),,,,,,,,-- --- ---- --- ------ ----- ------- ---- -- --- ------- --<br>------- ---------- ------ -- ----- -- ----- -- ---- ------<br>--- ----- --- --- ------ -------- ----- --- ------ ----- --<br>----- ----- ---------- --- --- ------ ------ wary -- ------<br>------- --- ------ ----- --- ---- ------- -- ---- --- --<br>------- ------,174619.69999998808,174619,174165.435,174176.40000003576,174182.124,174632.092,,40,wary
screen,html.Screen,2_1_1_1_41,2022-05-03T18:06:51.114Z,,,,,,,,,,,,,,,,,54,,,,,,,,,,,,,,422.6079999880749,,response,,,,100,,,,,,,Space,keypress(Space),,,,,,,,-- --- ---- --- ------ ----- ------- ---- -- --- ------- --<br>------- ---------- ------ -- ----- -- ----- -- ---- ------<br>--- ----- --- --- ------ -------- ----- --- ------ ----- --<br>----- ----- ---------- --- --- ------ ------ ---- of ------<br>------- --- ------ ----- --- ---- ------- -- ---- --- --<br>------- ------,175055.19999998808,175054.69999998808,174615.43,174619.90000003576,174632.092,175065.538,,41,of
screen,html.Screen,2_1_1_1_42,2022-05-03T18:06:51.571Z,,,,,,,,,,,,,,,,,54,,,,,,,,,,,,,,445.96199999999953,,response,,,,100,,,,,,,Space,keypress(Space),,,,,,,,-- --- ---- --- ------ ----- ------- ---- -- --- ------- --<br>------- ---------- ------ -- ----- -- ----- -- ---- ------<br>--- ----- --- --- ------ -------- ----- --- ------ ----- --<br>----- ----- ---------- --- --- ------ ------ ---- -- French<br>------- --- ------ ----- --- ---- ------- -- ---- --- --<br>------- ------,175512.30000001192,175511.5,175048.803,175055.19999998808,175065.538,175515.423,,42,French
screen,html.Screen,2_1_1_1_43,2022-05-03T18:06:52.257Z,,,,,,,,,,,,,,,,,54,,,,,,,,,,,,,,681.7769999880693,,response,,,,100,,,,,,,Space,keypress(Space),,,,,,,,-- --- ---- --- ------ ----- ------- ---- -- --- ------- --<br>------- ---------- ------ -- ----- -- ----- -- ---- ------<br>--- ----- --- --- ------ -------- ----- --- ------ ----- --<br>----- ----- ---------- --- --- ------ ------ ---- -- ------<br>credit. --- ------ ----- --- ---- ------- -- ---- --- --<br>------- ------,176198,176197.19999998808,175498.816,175512.40000003576,175515.423,176215.826,,43,credit.
screen,html.Screen,2_1_1_1_44,2022-05-03T18:06:52.723Z,,,,,,,,,,,,,,,,,54,,,,,,,,,,,,,,447.57400003576186,,response,,,,100,,,,,,,Space,keypress(Space),,,,,,,,-- --- ---- --- ------ ----- ------- ---- -- --- ------- --<br>------- ---------- ------ -- ----- -- ----- -- ---- ------<br>--- ----- --- --- ------ -------- ----- --- ------ ----- --<br>----- ----- ---------- --- --- ------ ------ ---- -- ------<br>------- The ------ ----- --- ---- ------- -- ---- --- --<br>------- ------,176664.19999998808,176663.40000003576,176182.236,176198.19999998808,176215.826,176696.249,,44,The
screen,html.Screen,2_1_1_1_45,2022-05-03T18:06:53.127Z,,,,,,,,,,,,,,,,,54,,,,,,,,,,,,,,371.5510000119102,,response,,,,100,,,,,,,Space,keypress(Space),,,,,,,,-- --- ---- --- ------ ----- ------- ---- -- --- ------- --<br>------- ---------- ------ -- ----- -- ----- -- ---- ------<br>--- ----- --- --- ------ -------- ----- --- ------ ----- --<br>----- ----- ---------- --- --- ------ ------ ---- -- ------<br>------- --- French ----- --- ---- ------- -- ---- --- --<br>------- ------,177068.60000002384,177067.80000001192,176648.837,176664.30000001192,176696.249,177082.198,,45,French
screen,html.Screen,2_1_1_1_46,2022-05-03T18:06:53.515Z,,,,,,,,,,,,,,,,,54,,,,,,,,,,,,,,373.9020000238379,,response,,,,100,,,,,,,Space,keypress(Space),,,,,,,,-- --- ---- --- ------ ----- ------- ---- -- --- ------- --<br>------- ---------- ------ -- ----- -- ----- -- ---- ------<br>--- ----- --- --- ------ -------- ----- --- ------ ----- --<br>----- ----- ---------- --- --- ------ ------ ---- -- ------<br>------- --- ------ state --- ---- ------- -- ---- --- --<br>------- ------,177456.69999998808,177456.10000002384,177065.873,177068.80000001192,177082.198,177465.429,,46,state
screen,html.Screen,2_1_1_1_47,2022-05-03T18:06:53.968Z,,,,,,,,,,,,,,,,,54,,,,,,,,,,,,,,442.67100002383813,,response,,,,100,,,,,,,Space,keypress(Space),,,,,,,,-- --- ---- --- ------ ----- ------- ---- -- --- ------- --<br>------- ---------- ------ -- ----- -- ----- -- ---- ------<br>--- ----- --- --- ------ -------- ----- --- ------ ----- --<br>----- ----- ---------- --- --- ------ ------ ---- -- ------<br>------- --- ------ ----- was ---- ------- -- ---- --- --<br>------- ------,177908.90000003576,177908.10000002384,177448.814,177456.69999998808,177465.429,177915.467,,47,was
screen,html.Screen,2_1_1_1_48,2022-05-03T18:06:54.337Z,,,,,,,,,,,,,,,,,54,,,,,,,,,,,,,,362.33300001191674,,response,,,,100,,,,,,,Space,keypress(Space),,,,,,,,-- --- ---- --- ------ ----- ------- ---- -- --- ------- --<br>------- ---------- ------ -- ----- -- ----- -- ---- ------<br>--- ----- --- --- ------ -------- ----- --- ------ ----- --<br>----- ----- ---------- --- --- ------ ------ ---- -- ------<br>------- --- ------ ----- --- left ------- -- ---- --- --<br>------- ------,178278.60000002384,178277.80000001192,177898.804,177909.10000002384,177915.467,178282.187,,48,left
screen,html.Screen,2_1_1_1_49,2022-05-03T18:06:54.796Z,,,,,,,,,,,,,,,,,54,,,,,,,,,,,,,,453.6130000119156,,response,,,,100,,,,,,,Space,keypress(Space),,,,,,,,-- --- ---- --- ------ ----- ------- ---- -- --- ------- --<br>------- ---------- ------ -- ----- -- ----- -- ---- ------<br>--- ----- --- --- ------ -------- ----- --- ------ ----- --<br>----- ----- ---------- --- --- ------ ------ ---- -- ------<br>------- --- ------ ----- --- ---- without -- ---- --- --<br>------- ------,178736.69999998808,178735.80000001192,178265.643,178278.69999998808,178282.187,178749.205,,49,without
screen,html.Screen,2_1_1_1_50,2022-05-03T18:06:55.184Z,,,,,,,,,,,,,,,,,54,,,,,,,,,,,,,,375.1950000357756,,response,,,,100,,,,,,,Space,keypress(Space),,,,,,,,-- --- ---- --- ------ ----- ------- ---- -- --- ------- --<br>------- ---------- ------ -- ----- -- ----- -- ---- ------<br>--- ----- --- --- ------ -------- ----- --- ------ ----- --<br>----- ----- ---------- --- --- ------ ------ ---- -- ------<br>------- --- ------ ----- --- ---- ------- an ---- --- --<br>------- ------,179124.90000003576,179124.40000003576,178732.251,178736.90000003576,178749.205,179132.237,,50,an
screen,html.Screen,2_1_1_1_51,2022-05-03T18:06:55.532Z,,,,,,,,,,,,,,,,,54,,,,,,,,,,,,,,340.2630000000063,,response,,,,100,,,,,,,Space,keypress(Space),,,,,,,,-- --- ---- --- ------ ----- ------- ---- -- --- ------- --<br>------- ---------- ------ -- ----- -- ----- -- ---- ------<br>--- ----- --- --- ------ -------- ----- --- ------ ----- --<br>----- ----- ---------- --- --- ------ ------ ---- -- ------<br>------- --- ------ ----- --- ---- ------- -- easy --- --<br>------- ------,179473.19999998808,179472.5,179115.659,179125,179132.237,179482.24,,51,easy
screen,html.Screen,2_1_1_1_52,2022-05-03T18:06:55.884Z,,,,,,,,,,,,,,,,,54,,,,,,,,,,,,,,341.7600000000093,,response,,,,100,,,,,,,Space,keypress(Space),,,,,,,,-- --- ---- --- ------ ----- ------- ---- -- --- ------- --<br>------- ---------- ------ -- ----- -- ----- -- ---- ------<br>--- ----- --- --- ------ -------- ----- --- ------ ----- --<br>----- ----- ---------- --- --- ------ ------ ---- -- ------<br>------- --- ------ ----- --- ---- ------- -- ---- way --<br>------- ------,179825,179824,179465.506,179473.40000003576,179482.24,179832.467,,52,way
screen,html.Screen,2_1_1_1_53,2022-05-03T18:06:56.237Z,,,,,,,,,,,,,,,,,54,,,,,,,,,,,,,,345.33300001191674,,response,,,,100,,,,,,,Space,keypress(Space),,,,,,,,-- --- ---- --- ------ ----- ------- ---- -- --- ------- --<br>------- ---------- ------ -- ----- -- ----- -- ---- ------<br>--- ----- --- --- ------ -------- ----- --- ------ ----- --<br>----- ----- ---------- --- --- ------ ------ ---- -- ------<br>------- --- ------ ----- --- ---- ------- -- ---- --- of<br>------- ------,180178.40000003576,180177.80000001192,179815.693,179825.10000002384,179832.467,180182.205,,53,of
screen,html.Screen,2_1_1_1_54,2022-05-03T18:06:56.636Z,,,,,,,,,,,,,,,,,54,,,,,,,,,,,,,,378.7950000000128,,response,,,,100,,,,,,,Space,keypress(Space),,,,,,,,-- --- ---- --- ------ ----- ------- ---- -- --- ------- --<br>------- ---------- ------ -- ----- -- ----- -- ---- ------<br>--- ----- --- --- ------ -------- ----- --- ------ ----- --<br>----- ----- ---------- --- --- ------ ------ ---- -- ------<br>------- --- ------ ----- --- ---- ------- -- ---- --- --<br>raising ------,180561.80000001192,180561,180165.692,180178.40000003576,180182.205,180565.651,,54,raising
screen,html.Screen,2_1_1_1_55,2022-05-03T18:06:57.059Z,,,,,,,,,,,,,,,,,54,,,,,,,,,,,,,,418.2490000357502,,response,,,,100,,,,,,,Space,keypress(Space),,,,,,,,-- --- ---- --- ------ ----- ------- ---- -- --- ------- --<br>------- ---------- ------ -- ----- -- ----- -- ---- ------<br>--- ----- --- --- ------ -------- ----- --- ------ ----- --<br>----- ----- ---------- --- --- ------ ------ ---- -- ------<br>------- --- ------ ----- --- ---- ------- -- ---- --- --<br>------- money.,180984.69999998808,180983.90000003576,180549.004,180562,180565.651,180998.86,,55,money.
Item 100,flow.Loop,2_1_1_1,2022-05-03T18:06:57.059Z,,,,,,,,,,,,,,,,,,,,,,,,,,,,,,,25085.49700003577,,completion,,,,,A,,,,,,,,,,,silence,,,,,180984.90000003576,180983.90000003576,155881.923,155882.90000003576,155898.403,180998.86,,,
Question 1,html.Screen,2_1_1_2,2022-05-03T18:07:00.065Z,,,,,,,,,,,,,,,,,,,,,,,,,,,,true,TRUE,,2991.5400000357768,,response,,,,100,A,,,,,,TRUE,click #choice-1,,,,silence,,,,,183991.10000002384,183990.40000003576,180982.479,180985,180998.86,184015.665,,,
Question 2,html.Screen,2_1_1_3,2022-05-03T18:07:02.277Z,,,,,,,,,,,,,,,,,,,,,,,,,,,,true,FALSE,,2186.334999999992,,response,,,,100,A,,,,,,FALSE,click #choice-2,,,,silence,,,,,186202.90000003576,186202,183999.083,183991.30000001192,184015.665,186215.892,,,
Item 100,flow.Sequence,2_1_1,2022-05-03T18:07:02.277Z,,,,,,,,,,,,,,,,,,,,,,,,,,,,,,,40303.807,,completion,,,,,,,,,,,,,,,,,,,,,186203.10000002384,186202,145881.723,145887.60000002384,145898.193,186215.892,,,
End of Practice,html.Page,2_1_2,2022-05-03T18:07:05.736Z,,,,,,,,,,,,,,,,,,,,,,,,,,,,,,,3445.2080000238493,,form submission,,,,,,,,,,,,,,,,,,,,,189661.30000001192,189661.10000002384,186199.04,186203.19999998808,186215.892,189665.817,,,
Practice,flow.Sequence,2_1,2022-05-03T18:07:05.736Z,,,,,,,,,,,,,,,,,,,,,,,,,,,,,,,93497.48200002384,,completion,,,,,,,,,,,,,,,,,,,,,189661.5,189661.10000002384,96147.216,96156.80000001192,96163.618,189665.817,,,
Trap_instruction,html.Page,2_2_0,2022-05-03T18:07:08.369Z,,,,,,,,,,,,,,,,,,,,,,,,,,,,,,,2628.483000011911,,form submission,,,,,,,,,,,,,,,,,,,,,192294.60000002384,192294.30000001192,189649.478,189661.60000002384,189665.817,192299.267,,,
trap_trial,html.Screen,2_2_1,2022-05-03T18:07:12.290Z,,,,,,,,,,,,,,,,,,,,,,,,,,,,true,1,,3915.3330000238493,,response,,,,,,,,,,,1,click #choice-1,,,,,,,,,196215.60000002384,196214.60000002384,192282.595,192294.60000002384,192299.267,196240.099,,,
end of trap trial,html.Page,2_2_2,2022-05-03T18:07:13.818Z,,,,,,,,,,,,,,,,,,,,,,,,,,,,,,,1503.2010000119335,,form submission,,,,,,,,,,,,,,,,,,,,,197743.5,197743.30000001192,196199.551,196215.80000001192,196240.099,197749.285,,,
Trap 1,flow.Sequence,2_2,2022-05-03T18:07:13.818Z,,,,,,,,,,,,,,,,,,,,,,,,,,,,,,,8077.483000011911,,completion,,,,,,,,,,,,,,,,,,,,,197743.80000001192,197743.30000001192,189649.478,189661.5,189665.817,197749.285,,,
Standby,html.Page,2_3_0,2022-05-03T18:07:21.808Z,,,,,,,,,,,,,,,,,,,,,,,,,,,,,,,8000.31700000001,,timeout,,,,,,,,,,,,,,,,,,,,,205734,205732.959,197732.845,197743.80000001192,197749.285,205749.602,,,
Holding screen,html.Screen,2_3_1_0_0,2022-05-03T18:07:28.808Z,,,,,,,,,,,,,,,,,,,,,,,,,,,,,,,7000.223999999987,,timeout,,,,,,,,,,,,,,,,,,,,,212734.10000002384,212733.184,205732.959,205734.30000001192,205749.602,212749.826,,,
screen,html.Screen,2_3_1_0_1_0,2022-05-03T18:07:30.532Z,,,,,,,,,,,,,,,,,2,,,,,,,,,,,,,,1706.673999999999,,response,,,,1,A,,,,,,Space,keypress(Space),,,,silence,,,,Two ---- ------ --- ------- ---------- ------- ----------<br>--- --------- --- ----------- ------- ----- ------- ---<br>--------- ---- -- --- ---- -- --------- -- ---- -------<br>-- --------- ------ --- ----- ------ ---- --- --------- --<br>------ - ---- -- --- ----------- ------- ---- ----- -----<br>--- -------- - ------ ---- -- ----- ---- --- --- -----------<br>-- -------,214457.5,214456.5,212733.184,212734.40000003576,212749.826,214466.293,,0,Two
screen,html.Screen,2_3_1_0_1_1,2022-05-03T18:07:30.993Z,,,,,,,,,,,,,,,,,2,,,,,,,,,,,,,,451.60700003575766,,response,,,,1,A,,,,,,Space,keypress(Space),,,,silence,,,,--- days ------ --- ------- ---------- ------- ----------<br>--- --------- --- ----------- ------- ----- ------- ---<br>--------- ---- -- --- ---- -- --------- -- ---- -------<br>-- --------- ------ --- ----- ------ ---- --- --------- --<br>------ - ---- -- --- ----------- ------- ---- ----- -----<br>--- -------- - ------ ---- -- ----- ---- --- --- -----------<br>-- -------,214918.30000001192,214917.90000003576,214449.841,214457.69999998808,214466.293,214933.27,,1,days
screen,html.Screen,2_3_1_0_1_2,2022-05-03T18:07:31.393Z,,,,,,,,,,,,,,,,,2,,,,,,,,,,,,,,385.42999998808955,,response,,,,1,A,,,,,,Space,keypress(Space),,,,silence,,,,"--- ---- later, --- ------- ---------- ------- ----------<br>--- --------- --- ----------- ------- ----- ------- ---<br>--------- ---- -- --- ---- -- --------- -- ---- -------<br>-- --------- ------ --- ----- ------ ---- --- --------- --<br>------ - ---- -- --- ----------- ------- ---- ----- -----<br>--- -------- - ------ ---- -- ----- ---- --- --- -----------<br>-- -------",215319.19999998808,215318.69999998808,214916.393,214918.40000003576,214933.27,215333.107,,2,"later,"
screen,html.Screen,2_3_1_0_1_3,2022-05-03T18:07:31.813Z,,,,,,,,,,,,,,,,,2,,,,,,,,,,,,,,405.1930000119319,,response,,,,1,A,,,,,,Space,keypress(Space),,,,silence,,,,--- ---- ------ the ------- ---------- ------- ----------<br>--- --------- --- ----------- ------- ----- ------- ---<br>--------- ---- -- --- ---- -- --------- -- ---- -------<br>-- --------- ------ --- ----- ------ ---- --- --------- --<br>------ - ---- -- --- ----------- ------- ---- ----- -----<br>--- -------- - ------ ---- -- ----- ---- --- --- -----------<br>-- -------,215739.10000002384,215738.30000001192,215316.605,215319.40000003576,215333.107,215749.713,,3,the
screen,html.Screen,2_3_1_0_1_4,2022-05-03T18:07:32.195Z,,,,,,,,,,,,,,,,,2,,,,,,,,,,,,,,370.0870000119321,,response,,,,1,A,,,,,,Space,keypress(Space),,,,silence,,,,--- ---- ------ --- British ---------- ------- ----------<br>--- --------- --- ----------- ------- ----- ------- ---<br>--------- ---- -- --- ---- -- --------- -- ---- -------<br>-- --------- ------ --- ----- ------ ---- --- --------- --<br>------ - ---- -- --- ----------- ------- ---- ----- -----<br>--- -------- - ------ ---- -- ----- ---- --- --- -----------<br>-- -------,216120.5,216119.80000001192,215733.199,215739.19999998808,215749.713,216133.091,,4,British
screen,html.Screen,2_3_1_0_1_5,2022-05-03T18:07:32.532Z,,,,,,,,,,,,,,,,,2,,,,,,,,,,,,,,323.50900002385606,,response,,,,1,A,,,,,,Space,keypress(Space),,,,silence,,,,--- ---- ------ --- ------- astronomer ------- ----------<br>--- --------- --- ----------- ------- ----- ------- ---<br>--------- ---- -- --- ---- -- --------- -- ---- -------<br>-- --------- ------ --- ----- ------ ---- --- --------- --<br>------ - ---- -- --- ----------- ------- ---- ----- -----<br>--- -------- - ------ ---- -- ----- ---- --- --- -----------<br>-- -------,216457.40000003576,216456.60000002384,216116.497,216120.60000002384,216133.091,216466.403,,5,astronomer
screen,html.Screen,2_3_1_0_1_6,2022-05-03T18:07:32.878Z,,,,,,,,,,,,,,,,,2,,,,,,,,,,,,,,336.2969999880879,,response,,,,1,A,,,,,,Space,keypress(Space),,,,silence,,,,--- ---- ------ --- ------- ---------- Richard ----------<br>--- --------- --- ----------- ------- ----- ------- ---<br>--------- ---- -- --- ---- -- --------- -- ---- -------<br>-- --------- ------ --- ----- ------ ---- --- --------- --<br>------ - ---- -- --- ----------- ------- ---- ----- -----<br>--- -------- - ------ ---- -- ----- ---- --- --- -----------<br>-- -------,216803.60000002384,216802.69999998808,216449.817,216457.5,216466.403,216816.36,,6,Richard
screen,html.Screen,2_3_1_0_1_7,2022-05-03T18:07:33.386Z,,,,,,,,,,,,,,,,,2,,,,,,,,,,,,,,495.14000000001397,,response,,,,1,A,,,,,,Space,keypress(Space),,,,silence,,,,--- ---- ------ --- ------- ---------- ------- Carrington<br>--- --------- --- ----------- ------- ----- ------- ---<br>--------- ---- -- --- ---- -- --------- -- ---- -------<br>-- --------- ------ --- ----- ------ ---- --- --------- --<br>------ - ---- -- --- ----------- ------- ---- ----- -----<br>--- -------- - ------ ---- -- ----- ---- --- --- -----------<br>-- -------,217312.10000002384,217311.5,216799.841,216803.80000001192,216816.36,217316.425,,7,Carrington
screen,html.Screen,2_3_1_0_1_8,2022-05-03T18:07:33.929Z,,,,,,,,,,,,,,,,,2,,,,,,,,,,,,,,537.3750000119326,,response,,,,1,A,,,,,,Space,keypress(Space),,,,silence,,,,--- ---- ------ --- ------- ---------- ------- ----------<br>was --------- --- ----------- ------- ----- ------- ---<br>--------- ---- -- --- ---- -- --------- -- ---- -------<br>-- --------- ------ --- ----- ------ ---- --- --------- --<br>------ - ---- -- --- ----------- ------- ---- ----- -----<br>--- -------- - ------ ---- -- ----- ---- --- --- -----------<br>-- -------,217854.60000002384,217853.80000001192,217299.866,217312.19999998808,217316.425,217866.696,,8,was
screen,html.Screen,2_3_1_0_1_9,2022-05-03T18:07:34.387Z,,,,,,,,,,,,,,,,,2,,,,,,,,,,,,,,445.0039999880828,,response,,,,1,A,,,,,,Space,keypress(Space),,,,silence,,,,--- ---- ------ --- ------- ---------- ------- ----------<br>--- observing --- ----------- ------- ----- ------- ---<br>--------- ---- -- --- ---- -- --------- -- ---- -------<br>-- --------- ------ --- ----- ------ ---- --- --------- --<br>------ - ---- -- --- ----------- ------- ---- ----- -----<br>--- -------- - ------ ---- -- ----- ---- --- --- -----------<br>-- -------,218312.40000003576,218311.69999998808,217849.881,217854.60000002384,217866.696,218316.445,,9,observing
screen,html.Screen,2_3_1_0_1_10,2022-05-03T18:07:34.796Z,,,,,,,,,,,,,,,,,2,,,,,,,,,,,,,,405.1550000238349,,response,,,,1,A,,,,,,Space,keypress(Space),,,,silence,,,,--- ---- ------ --- ------- ---------- ------- ----------<br>--- --------- the ----------- ------- ----- ------- ---<br>--------- ---- -- --- ---- -- --------- -- ---- -------<br>-- --------- ------ --- ----- ------ ---- --- --------- --<br>------ - ---- -- --- ----------- ------- ---- ----- -----<br>--- -------- - ------ ---- -- ----- ---- --- --- -----------<br>-- -------,218722.10000002384,218721.60000002384,218299.853,218312.60000002384,218316.445,218733.27,,10,the
screen,html.Screen,2_3_1_0_1_11,2022-05-03T18:07:35.270Z,,,,,,,,,,,,,,,,,2,,,,,,,,,,,,,,461.33000002385234,,response,,,,1,A,,,,,,Space,keypress(Space),,,,silence,,,,--- ---- ------ --- ------- ---------- ------- ----------<br>--- --------- --- interesting ------- ----- ------- ---<br>--------- ---- -- --- ---- -- --------- -- ---- -------<br>-- --------- ------ --- ----- ------ ---- --- --------- --<br>------ - ---- -- --- ----------- ------- ---- ----- -----<br>--- -------- - ------ ---- -- ----- ---- --- --- -----------<br>-- -------,219195.5,219194.60000002384,218716.521,218722.30000001192,218733.27,219199.777,,11,interesting
screen,html.Screen,2_3_1_0_1_12,2022-05-03T18:07:35.666Z,,,,,,,,,,,,,,,,,2,,,,,,,,,,,,,,391.32300002384,,response,,,,1,A,,,,,,Space,keypress(Space),,,,silence,,,,--- ---- ------ --- ------- ---------- ------- ----------<br>--- --------- --- ----------- sunspot ----- ------- ---<br>--------- ---- -- --- ---- -- --------- -- ---- -------<br>-- --------- ------ --- ----- ------ ---- --- --------- --<br>------ - ---- -- --- ----------- ------- ---- ----- -----<br>--- -------- - ------ ---- -- ----- ---- --- --- -----------<br>-- -------,219591.80000001192,219591.10000002384,219183.283,219195.60000002384,219199.777,219599.91,,12,sunspot
screen,html.Screen,2_3_1_0_1_13,2022-05-03T18:07:36.233Z,,,,,,,,,,,,,,,,,2,,,,,,,,,,,,,,557.9900000357593,,response,,,,1,A,,,,,,Space,keypress(Space),,,,silence,,,,--- ---- ------ --- ------- ---------- ------- ----------<br>--- --------- --- ----------- ------- group ------- ---<br>--------- ---- -- --- ---- -- --------- -- ---- -------<br>-- --------- ------ --- ----- ------ ---- --- --------- --<br>------ - ---- -- --- ----------- ------- ---- ----- -----<br>--- -------- - ------ ---- -- ----- ---- --- --- -----------<br>-- -------,220158.60000002384,220157.90000003576,219583.225,219592.10000002384,219599.91,220166.496,,13,group
screen,html.Screen,2_3_1_0_1_14,2022-05-03T18:07:36.774Z,,,,,,,,,,,,,,,,,2,,,,,,,,,,,,,,532.7039999880653,,response,,,,1,A,,,,,,Space,keypress(Space),,,,silence,,,,--- ---- ------ --- ------- ---------- ------- ----------<br>--- --------- --- ----------- ------- ----- through ---<br>--------- ---- -- --- ---- -- --------- -- ---- -------<br>-- --------- ------ --- ----- ------ ---- --- --------- --<br>------ - ---- -- --- ----------- ------- ---- ----- -----<br>--- -------- - ------ ---- -- ----- ---- --- --- -----------<br>-- -------,220700.10000002384,220699.19999998808,220149.921,220158.69999998808,220166.496,220716.524,,14,through
screen,html.Screen,2_3_1_0_1_15,2022-05-03T18:07:37.200Z,,,,,,,,,,,,,,,,,2,,,,,,,,,,,,,,408.57600002383697,,response,,,,1,A,,,,,,Space,keypress(Space),,,,silence,,,,--- ---- ------ --- ------- ---------- ------- ----------<br>--- --------- --- ----------- ------- ----- ------- his<br>--------- ---- -- --- ---- -- --------- -- ---- -------<br>-- --------- ------ --- ----- ------ ---- --- --------- --<br>------ - ---- -- --- ----------- ------- ---- ----- -----<br>--- -------- - ------ ---- -- ----- ---- --- --- -----------<br>-- -------,221125.69999998808,221125.10000002384,220699.997,220700.10000002384,220716.524,221133.198,,15,his
screen,html.Screen,2_3_1_0_1_16,2022-05-03T18:07:37.621Z,,,,,,,,,,,,,,,,,2,,,,,,,,,,,,,,412.30199999999604,,response,,,,1,A,,,,,,Space,keypress(Space),,,,silence,,,,--- ---- ------ --- ------- ---------- ------- ----------<br>--- --------- --- ----------- ------- ----- ------- ---<br>telescope ---- -- --- ---- -- --------- -- ---- -------<br>-- --------- ------ --- ----- ------ ---- --- --------- --<br>------ - ---- -- --- ----------- ------- ---- ----- -----<br>--- -------- - ------ ---- -- ----- ---- --- --- -----------<br>-- -------,221546.40000003576,221545.5,221116.629,221125.90000003576,221133.198,221549.826,,16,telescope
screen,html.Screen,2_3_1_0_1_17,2022-05-03T18:07:38.044Z,,,,,,,,,,,,,,,,,2,,,,,,,,,,,,,,418.7740000238409,,response,,,,1,A,,,,,,Space,keypress(Space),,,,silence,,,,--- ---- ------ --- ------- ---------- ------- ----------<br>--- --------- --- ----------- ------- ----- ------- ---<br>--------- when -- --- ---- -- --------- -- ---- -------<br>-- --------- ------ --- ----- ------ ---- --- --------- --<br>------ - ---- -- --- ----------- ------- ---- ----- -----<br>--- -------- - ------ ---- -- ----- ---- --- --- -----------<br>-- -------,221969.40000003576,221968.60000002384,221533.301,221546.60000002384,221549.826,221983.376,,17,when
screen,html.Screen,2_3_1_0_1_18,2022-05-03T18:07:38.415Z,,,,,,,,,,,,,,,,,2,,,,,,,,,,,,,,357.0240000357735,,response,,,,1,A,,,,,,Space,keypress(Space),,,,silence,,,,--- ---- ------ --- ------- ---------- ------- ----------<br>--- --------- --- ----------- ------- ----- ------- ---<br>--------- ---- he --- ---- -- --------- -- ---- -------<br>-- --------- ------ --- ----- ------ ---- --- --------- --<br>------ - ---- -- --- ----------- ------- ---- ----- -----<br>--- -------- - ------ ---- -- ----- ---- --- --- -----------<br>-- -------,222341.19999998808,222340.40000003576,221966.573,221969.5,221983.376,222350.078,,18,he
screen,html.Screen,2_3_1_0_1_19,2022-05-03T18:07:38.691Z,,,,,,,,,,,,,,,,,2,,,,,,,,,,,,,,266.2220000119123,,response,,,,1,A,,,,,,Space,keypress(Space),,,,silence,,,,--- ---- ------ --- ------- ---------- ------- ----------<br>--- --------- --- ----------- ------- ----- ------- ---<br>--------- ---- -- saw ---- -- --------- -- ---- -------<br>-- --------- ------ --- ----- ------ ---- --- --------- --<br>------ - ---- -- --- ----------- ------- ---- ----- -----<br>--- -------- - ------ ---- -- ----- ---- --- --- -----------<br>-- -------,222617.10000002384,222616.30000001192,222333.309,222341.30000001192,222350.078,222633.583,,19,saw
screen,html.Screen,2_3_1_0_1_20,2022-05-03T18:07:38.996Z,,,,,,,,,,,,,,,,,2,,,,,,,,,,,,,,286.91699999998673,,response,,,,1,A,,,,,,Space,keypress(Space),,,,silence,,,,--- ---- ------ --- ------- ---------- ------- ----------<br>--- --------- --- ----------- ------- ----- ------- ---<br>--------- ---- -- --- what -- --------- -- ---- -------<br>-- --------- ------ --- ----- ------ ---- --- --------- --<br>------ - ---- -- --- ----------- ------- ---- ----- -----<br>--- -------- - ------ ---- -- ----- ---- --- --- -----------<br>-- -------,222921.40000003576,222920.5,222616.628,222617.30000001192,222633.583,222933.273,,20,what
screen,html.Screen,2_3_1_0_1_21,2022-05-03T18:07:39.303Z,,,,,,,,,,,,,,,,,2,,,,,,,,,,,,,,294.9269999880926,,response,,,,1,A,,,,,,Space,keypress(Space),,,,silence,,,,--- ---- ------ --- ------- ---------- ------- ----------<br>--- --------- --- ----------- ------- ----- ------- ---<br>--------- ---- -- --- ---- he --------- -- ---- -------<br>-- --------- ------ --- ----- ------ ---- --- --------- --<br>------ - ---- -- --- ----------- ------- ---- ----- -----<br>--- -------- - ------ ---- -- ----- ---- --- --- -----------<br>-- -------,223228.69999998808,223228.19999998808,222916.616,222921.5,222933.273,223233.226,,21,he
screen,html.Screen,2_3_1_0_1_22,2022-05-03T18:07:39.619Z,,,,,,,,,,,,,,,,,2,,,,,,,,,,,,,,311.1740000357677,,response,,,,1,A,,,,,,Space,keypress(Space),,,,silence,,,,--- ---- ------ --- ------- ---------- ------- ----------<br>--- --------- --- ----------- ------- ----- ------- ---<br>--------- ---- -- --- ---- -- described -- ---- -------<br>-- --------- ------ --- ----- ------ ---- --- --------- --<br>------ - ---- -- --- ----------- ------- ---- ----- -----<br>--- -------- - ------ ---- -- ----- ---- --- --- -----------<br>-- -------,223545.10000002384,223544.40000003576,223216.721,223228.69999998808,223233.226,223549.986,,22,described
screen,html.Screen,2_3_1_0_1_23,2022-05-03T18:07:39.986Z,,,,,,,,,,,,,,,,,2,,,,,,,,,,,,,,361.0139999999956,,response,,,,1,A,,,,,,Space,keypress(Space),,,,silence,,,,--- ---- ------ --- ------- ---------- ------- ----------<br>--- --------- --- ----------- ------- ----- ------- ---<br>--------- ---- -- --- ---- -- --------- as ---- -------<br>-- --------- ------ --- ----- ------ ---- --- --------- --<br>------ - ---- -- --- ----------- ------- ---- ----- -----<br>--- -------- - ------ ---- -- ----- ---- --- --- -----------<br>-- -------,223911.80000001192,223911,223533.299,223545.30000001192,223549.986,223916.508,,23,as
screen,html.Screen,2_3_1_0_1_24,2022-05-03T18:07:40.327Z,,,,,,,,,,,,,,,,,2,,,,,,,,,,,,,,335.69199998807744,,response,,,,1,A,,,,,,Space,keypress(Space),,,,silence,,,,"--- ---- ------ --- ------- ---------- ------- ----------<br>--- --------- --- ----------- ------- ----- ------- ---<br>--------- ---- -- --- ---- -- --------- -- ""two -------<br>-- --------- ------ --- ----- ------ ---- --- --------- --<br>------ - ---- -- --- ----------- ------- ---- ----- -----<br>--- -------- - ------ ---- -- ----- ---- --- --- -----------<br>-- -------",224252.60000002384,224252.19999998808,223900.166,223911.90000003576,223916.508,224266.503,,24,"""two"
screen,html.Screen,2_3_1_0_1_25,2022-05-03T18:07:40.882Z,,,,,,,,,,,,,,,,,2,,,,,,,,,,,,,,540.1969999880821,,response,,,,1,A,,,,,,Space,keypress(Space),,,,silence,,,,--- ---- ------ --- ------- ---------- ------- ----------<br>--- --------- --- ----------- ------- ----- ------- ---<br>--------- ---- -- --- ---- -- --------- -- ---- patches<br>-- --------- ------ --- ----- ------ ---- --- --------- --<br>------ - ---- -- --- ----------- ------- ---- ----- -----<br>--- -------- - ------ ---- -- ----- ---- --- --- -----------<br>-- -------,224807.40000003576,224806.69999998808,224250.012,224252.60000002384,224266.503,224816.632,,25,patches
screen,html.Screen,2_3_1_0_1_26,2022-05-03T18:07:41.376Z,,,,,,,,,,,,,,,,,2,,,,,,,,,,,,,,484.6680000119086,,response,,,,1,A,,,,,,Space,keypress(Space),,,,silence,,,,--- ---- ------ --- ------- ---------- ------- ----------<br>--- --------- --- ----------- ------- ----- ------- ---<br>--------- ---- -- --- ---- -- --------- -- ---- -------<br>of --------- ------ --- ----- ------ ---- --- --------- --<br>------ - ---- -- --- ----------- ------- ---- ----- -----<br>--- -------- - ------ ---- -- ----- ---- --- --- -----------<br>-- -------,225301.90000003576,225301.30000001192,224799.96,224807.5,224816.632,225316.787,,26,of
screen,html.Screen,2_3_1_0_1_27,2022-05-03T18:07:41.756Z,,,,,,,,,,,,,,,,,2,,,,,,,,,,,,,,364.01300001190975,,response,,,,1,A,,,,,,Space,keypress(Space),,,,silence,,,,--- ---- ------ --- ------- ---------- ------- ----------<br>--- --------- --- ----------- ------- ----- ------- ---<br>--------- ---- -- --- ---- -- --------- -- ---- -------<br>-- intensely ------ --- ----- ------ ---- --- --------- --<br>------ - ---- -- --- ----------- ------- ---- ----- -----<br>--- -------- - ------ ---- -- ----- ---- --- --- -----------<br>-- -------,225681.60000002384,225680.80000001192,225300.02,225302.10000002384,225316.787,225683.312,,27,intensely
screen,html.Screen,2_3_1_0_1_28,2022-05-03T18:07:42.162Z,,,,,,,,,,,,,,,,,2,,,,,,,,,,,,,,403.08800003575743,,response,,,,1,A,,,,,,Space,keypress(Space),,,,silence,,,,--- ---- ------ --- ------- ---------- ------- ----------<br>--- --------- --- ----------- ------- ----- ------- ---<br>--------- ---- -- --- ---- -- --------- -- ---- -------<br>-- --------- bright --- ----- ------ ---- --- --------- --<br>------ - ---- -- --- ----------- ------- ---- ----- -----<br>--- -------- - ------ ---- -- ----- ---- --- --- -----------<br>-- -------,226087.5,226086.40000003576,225666.699,225681.69999998808,225683.312,226100.147,,28,bright
screen,html.Screen,2_3_1_0_1_29,2022-05-03T18:07:42.591Z,,,,,,,,,,,,,,,,,2,,,,,,,,,,,,,,415.6530000119237,,response,,,,1,A,,,,,,Space,keypress(Space),,,,silence,,,,--- ---- ------ --- ------- ---------- ------- ----------<br>--- --------- --- ----------- ------- ----- ------- ---<br>--------- ---- -- --- ---- -- --------- -- ---- -------<br>-- --------- ------ and ----- ------ ---- --- --------- --<br>------ - ---- -- --- ----------- ------- ---- ----- -----<br>--- -------- - ------ ---- -- ----- ---- --- --- -----------<br>-- -------,226516.5,226515.80000001192,226083.298,226087.60000002384,226100.147,226533.386,,29,and
screen,html.Screen,2_3_1_0_1_30,2022-05-03T18:07:42.963Z,,,,,,,,,,,,,,,,,2,,,,,,,,,,,,,,354.81399998808047,,response,,,,1,A,,,,,,Space,keypress(Space),,,,silence,,,,--- ---- ------ --- ------- ---------- ------- ----------<br>--- --------- --- ----------- ------- ----- ------- ---<br>--------- ---- -- --- ---- -- --------- -- ---- -------<br>-- --------- ------ --- white ------ ---- --- --------- --<br>------ - ---- -- --- ----------- ------- ---- ----- -----<br>--- -------- - ------ ---- -- ----- ---- --- --- -----------<br>-- -------,226888.80000001192,226888.19999998808,226516.728,226516.60000002384,226533.386,226900.008,,30,white
screen,html.Screen,2_3_1_0_1_31,2022-05-03T18:07:43.572Z,,,,,,,,,,,,,,,,,2,,,,,,,,,,,,,,597.1919999880774,,response,,,,1,A,,,,,,Space,keypress(Space),,,,silence,,,,"--- ---- ------ --- ------- ---------- ------- ----------<br>--- --------- --- ----------- ------- ----- ------- ---<br>--------- ---- -- --- ---- -- --------- -- ---- -------<br>-- --------- ------ --- ----- light"" ---- --- --------- --<br>------ - ---- -- --- ----------- ------- ---- ----- -----<br>--- -------- - ------ ---- -- ----- ---- --- --- -----------<br>-- -------",227497.69999998808,227497.19999998808,226883.393,226888.90000003576,226900.008,227500.006,,31,"light"""
screen,html.Screen,2_3_1_0_1_32,2022-05-03T18:07:44.298Z,,,,,,,,,,,,,,,,,2,,,,,,,,,,,,,,723.0940000238479,,response,,,,1,A,,,,,,Space,keypress(Space),,,,silence,,,,--- ---- ------ --- ------- ---------- ------- ----------<br>--- --------- --- ----------- ------- ----- ------- ---<br>--------- ---- -- --- ---- -- --------- -- ---- -------<br>-- --------- ------ --- ----- ------ over --- --------- --<br>------ - ---- -- --- ----------- ------- ---- ----- -----<br>--- -------- - ------ ---- -- ----- ---- --- --- -----------<br>-- -------,228223.90000003576,228223.10000002384,227483.375,227497.69999998808,227500.006,228233.478,,32,over
screen,html.Screen,2_3_1_0_1_33,2022-05-03T18:07:44.752Z,,,,,,,,,,,,,,,,,2,,,,,,,,,,,,,,443.2219999880763,,response,,,,1,A,,,,,,Space,keypress(Space),,,,silence,,,,--- ---- ------ --- ------- ---------- ------- ----------<br>--- --------- --- ----------- ------- ----- ------- ---<br>--------- ---- -- --- ---- -- --------- -- ---- -------<br>-- --------- ------ --- ----- ------ ---- the --------- --<br>------ - ---- -- --- ----------- ------- ---- ----- -----<br>--- -------- - ------ ---- -- ----- ---- --- --- -----------<br>-- -------,228677.80000001192,228676.69999998808,228216.79,228224.10000002384,228233.478,228683.28,,33,the
screen,html.Screen,2_3_1_0_1_34,2022-05-03T18:07:45.297Z,,,,,,,,,,,,,,,,,2,,,,,,,,,,,,,,538.5200000119221,,response,,,,1,A,,,,,,Space,keypress(Space),,,,silence,,,,--- ---- ------ --- ------- ---------- ------- ----------<br>--- --------- --- ----------- ------- ----- ------- ---<br>--------- ---- -- --- ---- -- --------- -- ---- -------<br>-- --------- ------ --- ----- ------ ---- --- sunspots. --<br>------ - ---- -- --- ----------- ------- ---- ----- -----<br>--- -------- - ------ ---- -- ----- ---- --- --- -----------<br>-- -------,229222.40000003576,229221.80000001192,228666.801,228677.90000003576,228683.28,229233.557,,34,sunspots.
screen,html.Screen,2_3_1_0_1_35,2022-05-03T18:07:45.759Z,,,,,,,,,,,,,,,,,2,,,,,,,,,,,,,,450.8430000357621,,response,,,,1,A,,,,,,Space,keypress(Space),,,,silence,,,,--- ---- ------ --- ------- ---------- ------- ----------<br>--- --------- --- ----------- ------- ----- ------- ---<br>--------- ---- -- --- ---- -- --------- -- ---- -------<br>-- --------- ------ --- ----- ------ ---- --- --------- He<br>------ - ---- -- --- ----------- ------- ---- ----- -----<br>--- -------- - ------ ---- -- ----- ---- --- --- -----------<br>-- -------,229684.90000003576,229684.40000003576,229216.736,229222.5,229233.557,229700.049,,35,He
screen,html.Screen,2_3_1_0_1_36,2022-05-03T18:07:46.142Z,,,,,,,,,,,,,,,,,2,,,,,,,,,,,,,,366.8510000357637,,response,,,,1,A,,,,,,Space,keypress(Space),,,,silence,,,,--- ---- ------ --- ------- ---------- ------- ----------<br>--- --------- --- ----------- ------- ----- ------- ---<br>--------- ---- -- --- ---- -- --------- -- ---- -------<br>-- --------- ------ --- ----- ------ ---- --- --------- --<br>jotted - ---- -- --- ----------- ------- ---- ----- -----<br>--- -------- - ------ ---- -- ----- ---- --- --- -----------<br>-- -------,230067.5,230066.90000003576,229683.442,229685,229700.049,230083.384,,36,jotted
screen,html.Screen,2_3_1_0_1_37,2022-05-03T18:07:46.505Z,,,,,,,,,,,,,,,,,2,,,,,,,,,,,,,,346.6160000000091,,response,,,,1,A,,,,,,Space,keypress(Space),,,,silence,,,,--- ---- ------ --- ------- ---------- ------- ----------<br>--- --------- --- ----------- ------- ----- ------- ---<br>--------- ---- -- --- ---- -- --------- -- ---- -------<br>-- --------- ------ --- ----- ------ ---- --- --------- --<br>------ a ---- -- --- ----------- ------- ---- ----- -----<br>--- -------- - ------ ---- -- ----- ---- --- --- -----------<br>-- -------,230430.5,230430,230066.705,230068.10000002384,230083.384,230433.315,,37,a
