sender,sender_type,sender_id,timestamp,meta,,Blues,Classical,Country,Dance,Electronic,Folk,Gospel,Hip-Hop,Jazz,Latin,Musical/Film,New-age,Pop,Prolific_id,Provo_ID,R&B,Rap,Reggae,Religious,Rock,Soul,Swing,Traditional,age,artist_name,correct,correctResponse,distraction,duration,education,ended_on,familiarity,gender,headphone_check_performance,item,list,music_frequency,offensiveness,pleasantness,position_correct,preference,response,response_action,snippet_file,song_name,song_rating,sound,stimulus_1,stimulus_2,stimulus_3,text,time_commit,time_end,time_render,time_run,time_show,time_switch,url,word,word_ID
Prolific ID,html.Form,0,2022-05-09T13:32:24.668Z,"{""labjs_version"":""20.2.2"",""labjs_build"":{""flavor"":""production"",""commit"":""a25486e0c714a0ae2ce03ff94b7bb6896854dcfa""},""location"":""https://run.pavlovia.org/mvasilev/prolific3_music_f/"",""userAgent"":""Mozilla/5.0 (Windows NT 10.0; Win64; x64) AppleWebKit/537.36 (KHTML, like Gecko) Chrome/101.0.4951.54 Safari/537.36"",""platform"":""Win32"",""language"":""en-GB"",""locale"":""en-GB"",""timeZone"":""Europe/London"",""timezoneOffset"":-60,""screen_width"":1920,""screen_height"":1080,""scroll_width"":1920,""scroll_height"":893,""window_innerWidth"":1920,""window_innerHeight"":941,""devicePixelRatio"":1}",,,,,,,,,,,,,,,615ef6ecd1a54e666780e449,,,,,,,,,,,,,,,14541.743999999999,,form submission,,,,,,,,,,,,,,,,,,,,,42812.39999999106,42812,28253.221,28263.69999998808,28270.256,42819.906,{},,
Introduction,html.Screen,1_0,2022-05-09T13:32:28.858Z,,,,,,,,,,,,,,,,,,,,,,,,,,,,,,,4179.693999994037,,response,,,,,,,,,,,continue,click button,,,,,,,,,47001.59999999404,46999.59999999404,42803.286,42812.69999998808,42819.906,47003.209,,,
Volume calibration,html.Screen,1_1,2022-05-09T13:32:46.672Z,,,,,,,,,,,,,,,,,,,,,,,,,,,,,,,17809.190999991057,,response,,,,,,,,,,,continue,click button,,,,,,,,,64815.5,64812.39999999106,46986.559,47001.79999999702,47003.209,64819.435,,,
Task instructions,html.Screen,1_2,2022-05-09T13:32:57.218Z,,,,,,,,,,,,,,,,,,,,,,,,,,,,,,,10540.964999991062,,response,,,,,,,,,,,continue,click button,,,,,,,,,75362,75360.39999999106,64802.847,64815.59999999404,64819.435,75369.317,,,
Sounds,html.Screen,1_3_0_0,2022-05-09T13:33:01.460Z,,,,,,,,,,,,,,,,,,,,,,,,,,,,,,,4249.854000000007,,timeout,,,,,,,,,3,,,,,,,,I,O,S,,79604.29999999702,79602.565,75352.649,75362.29999999702,75369.317,79619.171,,,
Judgement,html.Screen,1_3_0_1,2022-05-09T13:33:01.996Z,,,,,,,,,,,,,,,,,,,,,,,,,,,,true,3,,520.028999988077,,response,,,,,,,,,3,,3,click #choice-3,,,,,I,O,S,,80140.29999999702,80139.19999998808,79602.565,79604.5,79619.171,80152.536,,,
Trial,flow.Sequence,1_3_0,2022-05-09T13:33:01.997Z,,,,,,,,,,,,,,,,,,,,,,,,,,,,,,,4769.882999988084,,completion,,,,,,,,,3,,,,,,,,I,O,S,,80140.59999999404,80139.19999998808,75352.649,75362.19999998808,75369.317,80152.536,,,
Sounds,html.Screen,1_3_1_0,2022-05-09T13:33:06.242Z,,,,,,,,,,,,,,,,,,,,,,,,,,,,,,,4249.9070000000065,,timeout,,,,,,,,,3,,,,,,,,O,I,S,,84386.39999999106,84385.75,80135.869,80140.79999999702,80152.536,84402.443,,,
Judgement,html.Screen,1_3_1_1,2022-05-09T13:33:07.098Z,,,,,,,,,,,,,,,,,,,,,,,,,,,,true,3,,838.8569999970205,,response,,,,,,,,,3,,3,click #choice-3,,,,,O,I,S,,85242.29999999702,85241.29999999702,84385.75,84386.5,84402.443,85252.424,,,
Trial,flow.Sequence,1_3_1,2022-05-09T13:33:07.098Z,,,,,,,,,,,,,,,,,,,,,,,,,,,,,,,5088.763999997027,,completion,,,,,,,,,3,,,,,,,,O,I,S,,85242.5,85241.29999999702,80135.869,80140.59999999404,80152.536,85252.424,,,
Sounds,html.Screen,1_3_2_0,2022-05-09T13:33:11.342Z,,,,,,,,,,,,,,,,,,,,,,,,,,,,,,,4249.928,,timeout,,,,,,,,,2,,,,,,,,I,S,O,,89486.29999999702,89485.627,85235.779,85242.59999999404,85252.424,89502.352,,,
Judgement,html.Screen,1_3_2_1,2022-05-09T13:33:11.936Z,,,,,,,,,,,,,,,,,,,,,,,,,,,,true,2,,576.7479999940406,,response,,,,,,,,,2,,2,click #choice-2,,,,,I,S,O,,90079.79999999702,90079.09999999404,89485.627,89486.5,89502.352,90102.34,,,
Trial,flow.Sequence,1_3_2,2022-05-09T13:33:11.936Z,,,,,,,,,,,,,,,,,,,,,,,,,,,,,,,4826.6759999940405,,completion,,,,,,,,,2,,,,,,,,I,S,O,,90080,90079.09999999404,85235.779,85242.59999999404,85252.424,90102.34,,,
Sounds,html.Screen,1_3_3_0,2022-05-09T13:33:16.192Z,,,,,,,,,,,,,,,,,,,,,,,,,,,,,,,4249.903000000006,,timeout,,,,,,,,,1,,,,,,,,S,I,O,,94336.19999998808,94335.586,90085.633,90080.19999998808,90102.34,94352.243,,,
Judgement,html.Screen,1_3_3_1,2022-05-09T13:33:16.517Z,,,,,,,,,,,,,,,,,,,,,,,,,,,,true,1,,307.8569999940373,,response,,,,,,,,,1,,1,click #choice-1,,,,,S,I,O,,94661.09999999404,94660.09999999404,94335.586,94336.39999999106,94352.243,94668.921,,,
Trial,flow.Sequence,1_3_3,2022-05-09T13:33:16.517Z,,,,,,,,,,,,,,,,,,,,,,,,,,,,,,,4557.759999994043,,completion,,,,,,,,,1,,,,,,,,S,I,O,,94661.29999999702,94660.09999999404,90085.633,90080.09999999404,90102.34,94668.921,,,
Sounds,html.Screen,1_3_4_0,2022-05-09T13:33:20.758Z,,,,,,,,,,,,,,,,,,,,,,,,,,,,,,,4249.853999999992,,timeout,,,,,,,,,2,,,,,,,,O,S,I,,98902.69999998808,98902.086,94652.246,94661.39999999106,94668.921,98918.775,,,
Judgement,html.Screen,1_3_4_1,2022-05-09T13:33:21.116Z,,,,,,,,,,,,,,,,,,,,,,,,,,,,true,2,,340.32499999404536,,response,,,,,,,,,2,,2,click #choice-2,,,,,O,S,I,,99260.09999999404,99259.09999999404,98902.086,98902.79999999702,98918.775,99268.793,,,
Trial,flow.Sequence,1_3_4,2022-05-09T13:33:21.116Z,,,,,,,,,,,,,,,,,,,,,,,,,,,,,,,4590.178999994037,,completion,,,,,,,,,2,,,,,,,,O,S,I,,99260.19999998808,99259.09999999404,94652.246,94661.39999999106,94668.921,99268.793,,,
Sounds,html.Screen,1_3_5_0,2022-05-09T13:33:25.358Z,,,,,,,,,,,,,,,,,,,,,,,,,,,,,,,4249.898000000001,,timeout,,,,,,,,,1,,,,,,,,S,O,I,,103502.59999999404,103502.028,99252.147,99260.29999999702,99268.793,103518.691,,,
Judgement,html.Screen,1_3_5_1,2022-05-09T13:33:25.724Z,,,,,,,,,,,,,,,,,,,,,,,,,,,,true,1,,348.40899999403337,,response,,,,,,,,,1,,1,click #choice-1,,,,,S,O,I,,103868.19999998808,103867.09999999404,103502.028,103502.69999998808,103518.691,103892.547,,,
Trial,flow.Sequence,1_3_5,2022-05-09T13:33:25.724Z,,,,,,,,,,,,,,,,,,,,,,,,,,,,,,,4598.306999994034,,completion,,,,,,,,,1,,,,,,,,S,O,I,,103868.39999999106,103867.09999999404,99252.147,99260.19999998808,99268.793,103892.547,,,
Task,flow.Loop,1_3,2022-05-09T13:33:25.728Z,,,,,,,,,,,,,,,,,,,,,,,,,,,,,,,28497.782999994044,,completion,,,1,,,,,,,,,,,,,,,,,,103872.39999999106,103867.09999999404,75352.649,75362.09999999404,75369.317,103892.547,,,
Trap,html.Screen,1_4,2022-05-09T13:33:25.729Z,,,,,,,,,,,,,,,,,,,,,,,,,,,,,,,NaN,,skipped,,,,,,,,,,,,,,,,,,,,,103873.5,103867.09999999404,,103873.29999999702,,103892.547,,,
Thanks,html.Screen,1_5,2022-05-09T13:35:21.517Z,,,,,,,,,,,,,,,,,,,,,,,,,,,,,,,115767.65299998807,,response,,,,,,,,,,,continue,click button,,,,,,,,,219661.19999998808,219660.19999998808,103852.038,103873.5,103892.547,222033.253,,,
Headphone screening,flow.Sequence,1,2022-05-09T13:35:21.517Z,,,,,,,,,,,,,,,,,,,,,,,,,,,,,,,176840.29399998806,,completion,,,,,,,,,,,,,,,,,,,,,219661.39999999106,219660.19999998808,42803.286,42812.59999999404,42819.906,222033.253,,,
Instructions,html.Page,2_0,2022-05-09T13:35:38.193Z,,,,,,,,,,,,,,,,,,,,,,,,,,,,,,,14303.046999997023,,form submission,,,,,,,,,,,,,,,,,,,,,236336.79999999702,236336.29999999702,222016.273,222010.19999998808,222033.253,236349.272,,,
Holding screen,html.Screen,2_1_0_0,2022-05-09T13:35:48.189Z,,,,,,,,,,,,,,,,,,,,,,,,,,,,,,,9999.73000000001,,timeout,,,,,,,,,,,,,,,,,,,,,246332.89999999106,246332.465,236332.638,236337,236349.272,246349.002,,,
screen,html.Screen,2_1_0_1_0,2022-05-09T13:35:49.061Z,,,,,,,,,,,,,,,,,53,,,,,,,,,,,,,,854.4979999999923,,response,,,,99,,,,,,,Space,keypress(Space),,,,,,,,When -- ----- -- ------ - ------- --- ----------<br>------------- ------ ------ ---- ---- ------- ----- -- ----<br>-------- ------- -- ---------- --- - --- ----- ----- ----<br>---- --- --- ----- --- ---- ---- ------- ----- ---- -------<br>--- --- -- ----- -- --- ---- -- --- ---- -- ------ ------<br>--- ----- -- ----,247205.29999999702,247203.5,246332.465,246333,246349.002,247215.745,,0,When
screen,html.Screen,2_1_0_1_1,2022-05-09T13:35:49.441Z,,,,,,,,,,,,,,,,,53,,,,,,,,,,,,,,368.3549999940442,,response,,,,99,,,,,,,Space,keypress(Space),,,,,,,,---- it ----- -- ------ - ------- --- ----------<br>------------- ------ ------ ---- ---- ------- ----- -- ----<br>-------- ------- -- ---------- --- - --- ----- ----- ----<br>---- --- --- ----- --- ---- ---- ------- ----- ---- -------<br>--- --- -- ----- -- --- ---- -- --- ---- -- ------ ------<br>--- ----- -- ----,247584.69999998808,247584.09999999404,247199.057,247205.39999999106,247215.745,247599.088,,1,it
screen,html.Screen,2_1_0_1_2,2022-05-09T13:35:50.101Z,,,,,,,,,,,,,,,,,53,,,,,,,,,,,,,,645.0119999940507,,response,,,,99,,,,,,,Space,keypress(Space),,,,,,,,---- -- comes -- ------ - ------- --- ----------<br>------------- ------ ------ ---- ---- ------- ----- -- ----<br>-------- ------- -- ---------- --- - --- ----- ----- ----<br>---- --- --- ----- --- ---- ---- ------- ----- ---- -------<br>--- --- -- ----- -- --- ---- -- --- ---- -- ------ ------<br>--- ----- -- ----,248244.79999999702,248244.09999999404,247582.391,247584.89999999106,247599.088,248249.053,,2,comes
screen,html.Screen,2_1_0_1_3,2022-05-09T13:35:50.481Z,,,,,,,,,,,,,,,,,53,,,,,,,,,,,,,,375.14699998806464,,response,,,,99,,,,,,,Space,keypress(Space),,,,,,,,---- -- ----- to ------ - ------- --- ----------<br>------------- ------ ------ ---- ---- ------- ----- -- ----<br>-------- ------- -- ---------- --- - --- ----- ----- ----<br>---- --- --- ----- --- ---- ---- ------- ----- ---- -------<br>--- --- -- ----- -- --- ---- -- --- ---- -- ------ ------<br>--- ----- -- ----,248624.79999999702,248624.19999998808,248232.382,248244.89999999106,248249.053,248632.407,,3,to
screen,html.Screen,2_1_0_1_4,2022-05-09T13:35:51.002Z,,,,,,,,,,,,,,,,,53,,,,,,,,,,,,,,512.692999994033,,response,,,,99,,,,,,,Space,keypress(Space),,,,,,,,---- -- ----- -- having - ------- --- ----------<br>------------- ------ ------ ---- ---- ------- ----- -- ----<br>-------- ------- -- ---------- --- - --- ----- ----- ----<br>---- --- --- ----- --- ---- ---- ------- ----- ---- -------<br>--- --- -- ----- -- --- ---- -- --- ---- -- ------ ------<br>--- ----- -- ----,249145.69999998808,249145.09999999404,248615.7,248624.79999999702,248632.407,249148.993,,4,having
screen,html.Screen,2_1_0_1_5,2022-05-09T13:35:51.362Z,,,,,,,,,,,,,,,,,53,,,,,,,,,,,,,,356.1069999940519,,response,,,,99,,,,,,,Space,keypress(Space),,,,,,,,---- -- ----- -- ------ a ------- --- ----------<br>------------- ------ ------ ---- ---- ------- ----- -- ----<br>-------- ------- -- ---------- --- - --- ----- ----- ----<br>---- --- --- ----- --- ---- ---- ------- ----- ---- -------<br>--- --- -- ----- -- --- ---- -- --- ---- -- ------ ------<br>--- ----- -- ----,249505.69999998808,249505.09999999404,249132.369,249145.89999999106,249148.993,249515.658,,5,a
screen,html.Screen,2_1_0_1_6,2022-05-09T13:35:52.004Z,,,,,,,,,,,,,,,,,53,,,,,,,,,,,,,,631.5419999880833,,response,,,,99,,,,,,,Space,keypress(Space),,,,,,,,---- -- ----- -- ------ - lasting --- ----------<br>------------- ------ ------ ---- ---- ------- ----- -- ----<br>-------- ------- -- ---------- --- - --- ----- ----- ----<br>---- --- --- ----- --- ---- ---- ------- ----- ---- -------<br>--- --- -- ----- -- --- ---- -- --- ---- -- ------ ------<br>--- ----- -- ----,250147.69999998808,250147.19999998808,249499.077,249505.89999999106,249515.658,250175.736,,6,lasting
screen,html.Screen,2_1_0_1_7,2022-05-09T13:35:52.471Z,,,,,,,,,,,,,,,,,53,,,,,,,,,,,,,,438.3639999940351,,response,,,,99,,,,,,,Space,keypress(Space),,,,,,,,---- -- ----- -- ------ - ------- and ----------<br>------------- ------ ------ ---- ---- ------- ----- -- ----<br>-------- ------- -- ---------- --- - --- ----- ----- ----<br>---- --- --- ----- --- ---- ---- ------- ----- ---- -------<br>--- --- -- ----- -- --- ---- -- --- ---- -- ------ ------<br>--- ----- -- ----,250614.69999998808,250614.09999999404,250132.342,250147.79999999702,250175.736,250638.556,,7,and
screen,html.Screen,2_1_0_1_8,2022-05-09T13:35:53.085Z,,,,,,,,,,,,,,,,,53,,,,,,,,,,,,,,589.6439999880677,,response,,,,99,,,,,,,Space,keypress(Space),,,,,,,,---- -- ----- -- ------ - ------- --- fulfilling<br>------------- ------ ------ ---- ---- ------- ----- -- ----<br>-------- ------- -- ---------- --- - --- ----- ----- ----<br>---- --- --- ----- --- ---- ---- ------- ----- ---- -------<br>--- --- -- ----- -- --- ---- -- --- ---- -- ------ ------<br>--- ----- -- ----,251228.79999999702,251228.19999998808,250598.978,250614.79999999702,250638.556,251232.286,,8,fulfilling
screen,html.Screen,2_1_0_1_9,2022-05-09T13:35:53.967Z,,,,,,,,,,,,,,,,,53,,,,,,,,,,,,,,877.9139999880863,,response,,,,99,,,,,,,Space,keypress(Space),,,,,,,,"---- -- ----- -- ------ - ------- --- ----------<br>relationship, ------ ------ ---- ---- ------- ----- -- ----<br>-------- ------- -- ---------- --- - --- ----- ----- ----<br>---- --- --- ----- --- ---- ---- ------- ----- ---- -------<br>--- --- -- ----- -- --- ---- -- --- ---- -- ------ ------<br>--- ----- -- ----",252110.79999999702,252110.19999998808,251215.664,251228.89999999106,251232.286,252115.668,,9,"relationship,"
screen,html.Screen,2_1_0_1_10,2022-05-09T13:35:54.654Z,,,,,,,,,,,,,,,,,53,,,,,,,,,,,,,,682.531999988074,,response,,,,99,,,,,,,Space,keypress(Space),,,,,,,,---- -- ----- -- ------ - ------- --- ----------<br>------------- common ------ ---- ---- ------- ----- -- ----<br>-------- ------- -- ---------- --- - --- ----- ----- ----<br>---- --- --- ----- --- ---- ---- ------- ----- ---- -------<br>--- --- -- ----- -- --- ---- -- --- ---- -- ------ ------<br>--- ----- -- ----,252798.69999998808,252798.19999998808,252098.959,252110.89999999106,252115.668,252815.631,,10,common
screen,html.Screen,2_1_0_1_11,2022-05-09T13:35:55.409Z,,,,,,,,,,,,,,,,,53,,,,,,,,,,,,,,737.4689999940456,,response,,,,99,,,,,,,Space,keypress(Space),,,,,,,,---- -- ----- -- ------ - ------- --- ----------<br>------------- ------ wisdom ---- ---- ------- ----- -- ----<br>-------- ------- -- ---------- --- - --- ----- ----- ----<br>---- --- --- ----- --- ---- ---- ------- ----- ---- -------<br>--- --- -- ----- -- --- ---- -- --- ---- -- ------ ------<br>--- ----- -- ----,253553.69999998808,253553.09999999404,252798.95,252798.79999999702,252815.631,253565.658,,11,wisdom
screen,html.Screen,2_1_0_1_12,2022-05-09T13:35:55.850Z,,,,,,,,,,,,,,,,,53,,,,,,,,,,,,,,428.4419999940437,,response,,,,99,,,,,,,Space,keypress(Space),,,,,,,,---- -- ----- -- ------ - ------- --- ----------<br>------------- ------ ------ says ---- ------- ----- -- ----<br>-------- ------- -- ---------- --- - --- ----- ----- ----<br>---- --- --- ----- --- ---- ---- ------- ----- ---- -------<br>--- --- -- ----- -- --- ---- -- --- ---- -- ------ ------<br>--- ----- -- ----,253994.59999999404,253994.09999999404,253548.935,253553.79999999702,253565.658,253998.922,,12,says
screen,html.Screen,2_1_0_1_13,2022-05-09T13:35:56.271Z,,,,,,,,,,,,,,,,,53,,,,,,,,,,,,,,416.17799999404815,,response,,,,99,,,,,,,Space,keypress(Space),,,,,,,,---- -- ----- -- ------ - ------- --- ----------<br>------------- ------ ------ ---- that ------- ----- -- ----<br>-------- ------- -- ---------- --- - --- ----- ----- ----<br>---- --- --- ----- --- ---- ---- ------- ----- ---- -------<br>--- --- -- ----- -- --- ---- -- --- ---- -- ------ ------<br>--- ----- -- ----,254415.69999998808,254415.09999999404,253982.266,253994.69999998808,253998.922,254432.288,,13,that
screen,html.Screen,2_1_0_1_14,2022-05-09T13:35:56.752Z,,,,,,,,,,,,,,,,,53,,,,,,,,,,,,,,463.0119999970193,,response,,,,99,,,,,,,Space,keypress(Space),,,,,,,,---- -- ----- -- ------ - ------- --- ----------<br>------------- ------ ------ ---- ---- feeling ----- -- ----<br>-------- ------- -- ---------- --- - --- ----- ----- ----<br>---- --- --- ----- --- ---- ---- ------- ----- ---- -------<br>--- --- -- ----- -- --- ---- -- --- ---- -- ------ ------<br>--- ----- -- ----,254895.79999999702,254895.29999999702,254415.58,254415.69999998808,254432.288,254898.91,,14,feeling
screen,html.Screen,2_1_0_1_15,2022-05-09T13:35:57.276Z,,,,,,,,,,,,,,,,,53,,,,,,,,,,,,,,520.2899999880756,,response,,,,99,,,,,,,Space,keypress(Space),,,,,,,,---- -- ----- -- ------ - ------- --- ----------<br>------------- ------ ------ ---- ---- ------- close -- ----<br>-------- ------- -- ---------- --- - --- ----- ----- ----<br>---- --- --- ----- --- ---- ---- ------- ----- ---- -------<br>--- --- -- ----- -- --- ---- -- --- ---- -- ------ ------<br>--- ----- -- ----,255419.69999998808,255419.19999998808,254882.229,254895.89999999106,254898.91,255432.247,,15,close
screen,html.Screen,2_1_0_1_16,2022-05-09T13:35:57.599Z,,,,,,,,,,,,,,,,,53,,,,,,,,,,,,,,310.752999999997,,response,,,,99,,,,,,,Space,keypress(Space),,,,,,,,---- -- ----- -- ------ - ------- --- ----------<br>------------- ------ ------ ---- ---- ------- ----- to ----<br>-------- ------- -- ---------- --- - --- ----- ----- ----<br>---- --- --- ----- --- ---- ---- ------- ----- ---- -------<br>--- --- -- ----- -- --- ---- -- --- ---- -- ------ ------<br>--- ----- -- ----,255743.59999999404,255743,255415.563,255419.89999999106,255432.247,255748.906,,16,to
screen,html.Screen,2_1_0_1_17,2022-05-09T13:35:57.894Z,,,,,,,,,,,,,,,,,53,,,,,,,,,,,,,,288.29399998809095,,response,,,,99,,,,,,,Space,keypress(Space),,,,,,,,---- -- ----- -- ------ - ------- --- ----------<br>------------- ------ ------ ---- ---- ------- ----- -- your<br>-------- ------- -- ---------- --- - --- ----- ----- ----<br>---- --- --- ----- --- ---- ---- ------- ----- ---- -------<br>--- --- -- ----- -- --- ---- -- --- ---- -- ------ ------<br>--- ----- -- ----,256037.69999998808,256037.19999998808,255732.233,255743.69999998808,255748.906,256048.912,,17,your
screen,html.Screen,2_1_0_1_18,2022-05-09T13:35:58.552Z,,,,,,,,,,,,,,,,,53,,,,,,,,,,,,,,647.0879999999888,,response,,,,99,,,,,,,Space,keypress(Space),,,,,,,,---- -- ----- -- ------ - ------- --- ----------<br>------------- ------ ------ ---- ---- ------- ----- -- ----<br>romantic ------- -- ---------- --- - --- ----- ----- ----<br>---- --- --- ----- --- ---- ---- ------- ----- ---- -------<br>--- --- -- ----- -- --- ---- -- --- ---- -- ------ ------<br>--- ----- -- ----,256696.69999998808,256696,256032.231,256037.79999999702,256048.912,256698.856,,18,romantic
screen,html.Screen,2_1_0_1_19,2022-05-09T13:35:59.053Z,,,,,,,,,,,,,,,,,53,,,,,,,,,,,,,,498.24399999403977,,response,,,,99,,,,,,,Space,keypress(Space),,,,,,,,---- -- ----- -- ------ - ------- --- ----------<br>------------- ------ ------ ---- ---- ------- ----- -- ----<br>-------- partner -- ---------- --- - --- ----- ----- ----<br>---- --- --- ----- --- ---- ---- ------- ----- ---- -------<br>--- --- -- ----- -- --- ---- -- --- ---- -- ------ ------<br>--- ----- -- ----,257197.59999999404,257197.09999999404,256682.23,256696.89999999106,256698.856,257215.938,,19,partner
screen,html.Screen,2_1_0_1_20,2022-05-09T13:35:59.455Z,,,,,,,,,,,,,,,,,53,,,,,,,,,,,,,,382.46199999106466,,response,,,,99,,,,,,,Space,keypress(Space),,,,,,,,---- -- ----- -- ------ - ------- --- ----------<br>------------- ------ ------ ---- ---- ------- ----- -- ----<br>-------- ------- is ---------- --- - --- ----- ----- ----<br>---- --- --- ----- --- ---- ---- ------- ----- ---- -------<br>--- --- -- ----- -- --- ---- -- --- ---- -- ------ ------<br>--- ----- -- ----,257599,257598.39999999106,257182.249,257197.79999999702,257215.938,257615.556,,20,is
screen,html.Screen,2_1_0_1_21,2022-05-09T13:36:00.099Z,,,,,,,,,,,,,,,,,53,,,,,,,,,,,,,,627.5439999940281,,response,,,,99,,,,,,,Space,keypress(Space),,,,,,,,---- -- ----- -- ------ - ------- --- ----------<br>------------- ------ ------ ---- ---- ------- ----- -- ----<br>-------- ------- -- paramount. --- - --- ----- ----- ----<br>---- --- --- ----- --- ---- ---- ------- ----- ---- -------<br>--- --- -- ----- -- --- ---- -- --- ---- -- ------ ------<br>--- ----- -- ----,258243.69999998808,258243.09999999404,257598.802,257599.09999999404,257615.556,258248.866,,21,paramount.
screen,html.Screen,2_1_0_1_22,2022-05-09T13:36:00.577Z,,,,,,,,,,,,,,,,,53,,,,,,,,,,,,,,472.23399999403046,,response,,,,99,,,,,,,Space,keypress(Space),,,,,,,,---- -- ----- -- ------ - ------- --- ----------<br>------------- ------ ------ ---- ---- ------- ----- -- ----<br>-------- ------- -- ---------- But - --- ----- ----- ----<br>---- --- --- ----- --- ---- ---- ------- ----- ---- -------<br>--- --- -- ----- -- --- ---- -- --- ---- -- ------ ------<br>--- ----- -- ----,258721.59999999404,258721.09999999404,258232.178,258243.79999999702,258248.866,258732.179,,22,But
screen,html.Screen,2_1_0_1_23,2022-05-09T13:36:00.937Z,,,,,,,,,,,,,,,,,53,,,,,,,,,,,,,,348.02099998807535,,response,,,,99,,,,,,,Space,keypress(Space),,,,,,,,---- -- ----- -- ------ - ------- --- ----------<br>------------- ------ ------ ---- ---- ------- ----- -- ----<br>-------- ------- -- ---------- --- a --- ----- ----- ----<br>---- --- --- ----- --- ---- ---- ------- ----- ---- -------<br>--- --- -- ----- -- --- ---- -- --- ---- -- ------ ------<br>--- ----- -- ----,259080.69999998808,259080.19999998808,258715.494,258721.69999998808,258732.179,259098.85,,23,a
screen,html.Screen,2_1_0_1_24,2022-05-09T13:36:01.297Z,,,,,,,,,,,,,,,,,53,,,,,,,,,,,,,,342.2499999940337,,response,,,,99,,,,,,,Space,keypress(Space),,,,,,,,---- -- ----- -- ------ - ------- --- ----------<br>------------- ------ ------ ---- ---- ------- ----- -- ----<br>-------- ------- -- ---------- --- - new ----- ----- ----<br>---- --- --- ----- --- ---- ---- ------- ----- ---- -------<br>--- --- -- ----- -- --- ---- -- --- ---- -- ------ ------<br>--- ----- -- ----,259441.69999998808,259441.09999999404,259065.492,259081.69999998808,259098.85,259448.857,,24,new
screen,html.Screen,2_1_0_1_25,2022-05-09T13:36:01.703Z,,,,,,,,,,,,,,,,,53,,,,,,,,,,,,,,398.2429999940505,,response,,,,99,,,,,,,Space,keypress(Space),,,,,,,,---- -- ----- -- ------ - ------- --- ----------<br>------------- ------ ------ ---- ---- ------- ----- -- ----<br>-------- ------- -- ---------- --- - --- study ----- ----<br>---- --- --- ----- --- ---- ---- ------- ----- ---- -------<br>--- --- -- ----- -- --- ---- -- --- ---- -- ------ ------<br>--- ----- -- ----,259847.69999998808,259847.09999999404,259432.155,259441.79999999702,259448.857,259871.516,,25,study
screen,html.Screen,2_1_0_1_26,2022-05-09T13:36:02.078Z,,,,,,,,,,,,,,,,,53,,,,,,,,,,,,,,349.5839999940363,,response,,,,99,,,,,,,Space,keypress(Space),,,,,,,,---- -- ----- -- ------ - ------- --- ----------<br>------------- ------ ------ ---- ---- ------- ----- -- ----<br>-------- ------- -- ---------- --- - --- ----- finds ----<br>---- --- --- ----- --- ---- ---- ------- ----- ---- -------<br>--- --- -- ----- -- --- ---- -- --- ---- -- ------ ------<br>--- ----- -- ----,260221.69999998808,260221.09999999404,259832.179,259847.69999998808,259871.516,260232.151,,26,finds
screen,html.Screen,2_1_0_1_27,2022-05-09T13:36:02.417Z,,,,,,,,,,,,,,,,,53,,,,,,,,,,,,,,328.94899999402696,,response,,,,99,,,,,,,Space,keypress(Space),,,,,,,,---- -- ----- -- ------ - ------- --- ----------<br>------------- ------ ------ ---- ---- ------- ----- -- ----<br>-------- ------- -- ---------- --- - --- ----- ----- that<br>---- --- --- ----- --- ---- ---- ------- ----- ---- -------<br>--- --- -- ----- -- --- ---- -- --- ---- -- ------ ------<br>--- ----- -- ----,260561.69999998808,260561.09999999404,260215.483,260221.79999999702,260232.151,260565.47,,27,that
screen,html.Screen,2_1_0_1_28,2022-05-09T13:36:02.758Z,,,,,,,,,,,,,,,,,53,,,,,,,,,,,,,,336.62999999403837,,response,,,,99,,,,,,,Space,keypress(Space),,,,,,,,---- -- ----- -- ------ - ------- --- ----------<br>------------- ------ ------ ---- ---- ------- ----- -- ----<br>-------- ------- -- ---------- --- - --- ----- ----- ----<br>it's --- --- ----- --- ---- ---- ------- ----- ---- -------<br>--- --- -- ----- -- --- ---- -- --- ---- -- ------ ------<br>--- ----- -- ----,260902.69999998808,260902.09999999404,260548.779,260561.69999998808,260565.47,260915.487,,28,it's
screen,html.Screen,2_1_0_1_29,2022-05-09T13:36:03.185Z,,,,,,,,,,,,,,,,,53,,,,,,,,,,,,,,413.5130000000063,,response,,,,99,,,,,,,Space,keypress(Space),,,,,,,,---- -- ----- -- ------ - ------- --- ----------<br>------------- ------ ------ ---- ---- ------- ----- -- ----<br>-------- ------- -- ---------- --- - --- ----- ----- ----<br>---- not --- ----- --- ---- ---- ------- ----- ---- -------<br>--- --- -- ----- -- --- ---- -- --- ---- -- ------ ------<br>--- ----- -- ----,261329.59999999404,261329,260898.773,260902.79999999702,260915.487,261348.821,,29,not
screen,html.Screen,2_1_0_1_30,2022-05-09T13:36:03.498Z,,,,,,,,,,,,,,,,,53,,,,,,,,,,,,,,293.27899999404326,,response,,,,99,,,,,,,Space,keypress(Space),,,,,,,,---- -- ----- -- ------ - ------- --- ----------<br>------------- ------ ------ ---- ---- ------- ----- -- ----<br>-------- ------- -- ---------- --- - --- ----- ----- ----<br>---- --- how ----- --- ---- ---- ------- ----- ---- -------<br>--- --- -- ----- -- --- ---- -- --- ---- -- ------ ------<br>--- ----- -- ----,261642.69999998808,261642.09999999404,261315.467,261329.69999998808,261348.821,261648.819,,30,how
screen,html.Screen,2_1_0_1_31,2022-05-09T13:36:03.938Z,,,,,,,,,,,,,,,,,53,,,,,,,,,,,,,,433.1810000000114,,response,,,,99,,,,,,,Space,keypress(Space),,,,,,,,---- -- ----- -- ------ - ------- --- ----------<br>------------- ------ ------ ---- ---- ------- ----- -- ----<br>-------- ------- -- ---------- --- - --- ----- ----- ----<br>---- --- --- close --- ---- ---- ------- ----- ---- -------<br>--- --- -- ----- -- --- ---- -- --- ---- -- ------ ------<br>--- ----- -- ----,262082.69999998808,262082,261632.122,261642.79999999702,261648.819,262098.787,,31,close
screen,html.Screen,2_1_0_1_32,2022-05-09T13:36:04.304Z,,,,,,,,,,,,,,,,,53,,,,,,,,,,,,,,349.31299999402836,,response,,,,99,,,,,,,Space,keypress(Space),,,,,,,,---- -- ----- -- ------ - ------- --- ----------<br>------------- ------ ------ ---- ---- ------- ----- -- ----<br>-------- ------- -- ---------- --- - --- ----- ----- ----<br>---- --- --- ----- you ---- ---- ------- ----- ---- -------<br>--- --- -- ----- -- --- ---- -- --- ---- -- ------ ------<br>--- ----- -- ----,262448.6999999881,262448.09999999404,262082.107,262082.69999998808,262098.787,262465.454,,32,you
screen,html.Screen,2_1_0_1_33,2022-05-09T13:36:04.723Z,,,,,,,,,,,,,,,,,53,,,,,,,,,,,,,,400.9459999910323,,response,,,,99,,,,,,,Space,keypress(Space),,,,,,,,---- -- ----- -- ------ - ------- --- ----------<br>------------- ------ ------ ---- ---- ------- ----- -- ----<br>-------- ------- -- ---------- --- - --- ----- ----- ----<br>---- --- --- ----- --- feel ---- ------- ----- ---- -------<br>--- --- -- ----- -- --- ---- -- --- ---- -- ------ ------<br>--- ----- -- ----,262867,262866.39999999106,262448.759,262448.799999997,262465.454,262882.081,,33,feel
screen,html.Screen,2_1_0_1_34,2022-05-09T13:36:05.086Z,,,,,,,,,,,,,,,,,53,,,,,,,,,,,,,,348.01899999403395,,response,,,,99,,,,,,,Space,keypress(Space),,,,,,,,---- -- ----- -- ------ - ------- --- ----------<br>------------- ------ ------ ---- ---- ------- ----- -- ----<br>-------- ------- -- ---------- --- - --- ----- ----- ----<br>---- --- --- ----- --- ---- that ------- ----- ---- -------<br>--- --- -- ----- -- --- ---- -- --- ---- -- ------ ------<br>--- ----- -- ----,263230.6999999881,263230.09999999404,262865.458,262867.09999999404,262882.081,263250.768,,34,that
screen,html.Screen,2_1_0_1_35,2022-05-09T13:36:05.541Z,,,,,,,,,,,,,,,,,53,,,,,,,,,,,,,,434.3319999940577,,response,,,,99,,,,,,,Space,keypress(Space),,,,,,,,---- -- ----- -- ------ - ------- --- ----------<br>------------- ------ ------ ---- ---- ------- ----- -- ----<br>-------- ------- -- ---------- --- - --- ----- ----- ----<br>---- --- --- ----- --- ---- ---- matters ----- ---- -------<br>--- --- -- ----- -- --- ---- -- --- ---- -- ------ ------<br>--- ----- -- ----,263685.59999999404,263685.09999999404,263215.44,263230.6999999881,263250.768,263698.726,,35,matters
screen,html.Screen,2_1_0_1_36,2022-05-09T13:36:06.001Z,,,,,,,,,,,,,,,,,53,,,,,,,,,,,,,,446.3739999940153,,response,,,,99,,,,,,,Space,keypress(Space),,,,,,,,"---- -- ----- -- ------ - ------- --- ----------<br>------------- ------ ------ ---- ---- ------- ----- -- ----<br>-------- ------- -- ---------- --- - --- ----- ----- ----<br>---- --- --- ----- --- ---- ---- ------- most, ---- -------<br>--- --- -- ----- -- --- ---- -- --- ---- -- ------ ------<br>--- ----- -- ----",264145.5,264145.09999999404,263681.996,263685.59999999404,263698.726,264148.711,,36,"most,"
screen,html.Screen,2_1_0_1_37,2022-05-09T13:36:06.561Z,,,,,,,,,,,,,,,,,53,,,,,,,,,,,,,,556.2889999999898,,response,,,,99,,,,,,,Space,keypress(Space),,,,,,,,---- -- ----- -- ------ - ------- --- ----------<br>------------- ------ ------ ---- ---- ------- ----- -- ----<br>-------- ------- -- ---------- --- - --- ----- ----- ----<br>---- --- --- ----- --- ---- ---- ------- ----- it's -------<br>--- --- -- ----- -- --- ---- -- --- ---- -- ------ ------<br>--- ----- -- ----,264705.59999999404,264705,264132.067,264145.6999999881,264148.711,264715.394,,37,it's
screen,html.Screen,2_1_0_1_38,2022-05-09T13:36:07.067Z,,,,,,,,,,,,,,,,,53,,,,,,,,,,,,,,495.60600000002887,,response,,,,99,,,,,,,Space,keypress(Space),,,,,,,,---- -- ----- -- ------ - ------- --- ----------<br>------------- ------ ------ ---- ---- ------- ----- -- ----<br>-------- ------- -- ---------- --- - --- ----- ----- ----<br>---- --- --- ----- --- ---- ---- ------- ----- ---- whether<br>--- --- -- ----- -- --- ---- -- --- ---- -- ------ ------<br>--- ----- -- ----,265211.59999999404,265211,264698.715,264705.6999999881,264715.394,265215.403,,38,whether
screen,html.Screen,2_1_0_1_39,2022-05-09T13:36:07.482Z,,,,,,,,,,,,,,,,,53,,,,,,,,,,,,,,410.59700000000885,,response,,,,99,,,,,,,Space,keypress(Space),,,,,,,,---- -- ----- -- ------ - ------- --- ----------<br>------------- ------ ------ ---- ---- ------- ----- -- ----<br>-------- ------- -- ---------- --- - --- ----- ----- ----<br>---- --- --- ----- --- ---- ---- ------- ----- ---- -------<br>you --- -- ----- -- --- ---- -- --- ---- -- ------ ------<br>--- ----- -- ----,265626.59999999404,265626,265198.71,265211.6999999881,265215.403,265632.066,,39,you
screen,html.Screen,2_1_0_1_40,2022-05-09T13:36:07.842Z,,,,,,,,,,,,,,,,,53,,,,,,,,,,,,,,353.8339999910677,,response,,,,99,,,,,,,Space,keypress(Space),,,,,,,,---- -- ----- -- ------ - ------- --- ----------<br>------------- ------ ------ ---- ---- ------- ----- -- ----<br>-------- ------- -- ---------- --- - --- ----- ----- ----<br>---- --- --- ----- --- ---- ---- ------- ----- ---- -------<br>--- are -- ----- -- --- ---- -- --- ---- -- ------ ------<br>--- ----- -- ----,265986.5,265985.89999999106,265615.319,265626.6999999881,265632.066,265998.679,,40,are
screen,html.Screen,2_1_0_1_41,2022-05-09T13:36:08.222Z,,,,,,,,,,,,,,,,,53,,,,,,,,,,,,,,367.3209999999963,,response,,,,99,,,,,,,Space,keypress(Space),,,,,,,,---- -- ----- -- ------ - ------- --- ----------<br>------------- ------ ------ ---- ---- ------- ----- -- ----<br>-------- ------- -- ---------- --- - --- ----- ----- ----<br>---- --- --- ----- --- ---- ---- ------- ----- ---- -------<br>--- --- as ----- -- --- ---- -- --- ---- -- ------ ------<br>--- ----- -- ----,266366.59999999404,266366,265982.021,265986.59999999404,265998.679,266382.039,,41,as
screen,html.Screen,2_1_0_1_42,2022-05-09T13:36:08.610Z,,,,,,,,,,,,,,,,,53,,,,,,,,,,,,,,371.96100000001024,,response,,,,99,,,,,,,Space,keypress(Space),,,,,,,,---- -- ----- -- ------ - ------- --- ----------<br>------------- ------ ------ ---- ---- ------- ----- -- ----<br>-------- ------- -- ---------- --- - --- ----- ----- ----<br>---- --- --- ----- --- ---- ---- ------- ----- ---- -------<br>--- --- -- close -- --- ---- -- --- ---- -- ------ ------<br>--- ----- -- ----,266754.59999999404,266754,266365.351,266366.6999999881,266382.039,266765.366,,42,close
screen,html.Screen,2_1_0_1_43,2022-05-09T13:36:08.983Z,,,,,,,,,,,,,,,,,53,,,,,,,,,,,,,,361.63400000002,,response,,,,99,,,,,,,Space,keypress(Space),,,,,,,,---- -- ----- -- ------ - ------- --- ----------<br>------------- ------ ------ ---- ---- ------- ----- -- ----<br>-------- ------- -- ---------- --- - --- ----- ----- ----<br>---- --- --- ----- --- ---- ---- ------- ----- ---- -------<br>--- --- -- ----- as --- ---- -- --- ---- -- ------ ------<br>--- ----- -- ----,267127.59999999404,267127,266748.709,266754.6999999881,266765.366,267132.018,,43,as
screen,html.Screen,2_1_0_1_44,2022-05-09T13:36:09.325Z,,,,,,,,,,,,,,,,,53,,,,,,,,,,,,,,337.0819999940577,,response,,,,99,,,,,,,Space,keypress(Space),,,,,,,,---- -- ----- -- ------ - ------- --- ----------<br>------------- ------ ------ ---- ---- ------- ----- -- ----<br>-------- ------- -- ---------- --- - --- ----- ----- ----<br>---- --- --- ----- --- ---- ---- ------- ----- ---- -------<br>--- --- -- ----- -- you ---- -- --- ---- -- ------ ------<br>--- ----- -- ----,267469.6999999881,267469.09999999404,267115.329,267127.6999999881,267132.018,267482.015,,44,you
screen,html.Screen,2_1_0_1_45,2022-05-09T13:36:09.724Z,,,,,,,,,,,,,,,,,53,,,,,,,,,,,,,,385.2849999970058,,response,,,,99,,,,,,,Space,keypress(Space),,,,,,,,---- -- ----- -- ------ - ------- --- ----------<br>------------- ------ ------ ---- ---- ------- ----- -- ----<br>-------- ------- -- ---------- --- - --- ----- ----- ----<br>---- --- --- ----- --- ---- ---- ------- ----- ---- -------<br>--- --- -- ----- -- --- want -- --- ---- -- ------ ------<br>--- ----- -- ----,267867.89999999106,267867.299999997,267465.318,267469.799999997,267482.015,267882.031,,45,want
screen,html.Screen,2_1_0_1_46,2022-05-09T13:36:10.046Z,,,,,,,,,,,,,,,,,53,,,,,,,,,,,,,,307.96899999998277,,response,,,,99,,,,,,,Space,keypress(Space),,,,,,,,---- -- ----- -- ------ - ------- --- ----------<br>------------- ------ ------ ---- ---- ------- ----- -- ----<br>-------- ------- -- ---------- --- - --- ----- ----- ----<br>---- --- --- ----- --- ---- ---- ------- ----- ---- -------<br>--- --- -- ----- -- --- ---- to --- ---- -- ------ ------<br>--- ----- -- ----,268190.59999999404,268190,267865.224,267868.09999999404,267882.031,268198.651,,46,to
screen,html.Screen,2_1_0_1_47,2022-05-09T13:36:10.383Z,,,,,,,,,,,,,,,,,53,,,,,,,,,,,,,,328.3489999999874,,response,,,,99,,,,,,,Space,keypress(Space),,,,,,,,"---- -- ----- -- ------ - ------- --- ----------<br>------------- ------ ------ ---- ---- ------- ----- -- ----<br>-------- ------- -- ---------- --- - --- ----- ----- ----<br>---- --- --- ----- --- ---- ---- ------- ----- ---- -------<br>--- --- -- ----- -- --- ---- -- be, ---- -- ------ ------<br>--- ----- -- ----",268527.6999999881,268527,268181.984,268190.6999999881,268198.651,268531.994,,47,"be,"
screen,html.Screen,2_1_0_1_48,2022-05-09T13:36:11.064Z,,,,,,,,,,,,,,,,,53,,,,,,,,,,,,,,676.005999999994,,response,,,,99,,,,,,,Space,keypress(Space),,,,,,,,---- -- ----- -- ------ - ------- --- ----------<br>------------- ------ ------ ---- ---- ------- ----- -- ----<br>-------- ------- -- ---------- --- - --- ----- ----- ----<br>---- --- --- ----- --- ---- ---- ------- ----- ---- -------<br>--- --- -- ----- -- --- ---- -- --- even -- ------ ------<br>--- ----- -- ----,269208.59999999404,269208,268515.322,268527.799999997,268531.994,269215.258,,48,even
screen,html.Screen,2_1_0_1_49,2022-05-09T13:36:11.444Z,,,,,,,,,,,,,,,,,53,,,,,,,,,,,,,,372.841999994067,,response,,,,99,,,,,,,Space,keypress(Space),,,,,,,,---- -- ----- -- ------ - ------- --- ----------<br>------------- ------ ------ ---- ---- ------- ----- -- ----<br>-------- ------- -- ---------- --- - --- ----- ----- ----<br>---- --- --- ----- --- ---- ---- ------- ----- ---- -------<br>--- --- -- ----- -- --- ---- -- --- ---- if ------ ------<br>--- ----- -- ----,269588.59999999404,269588.09999999404,269198.623,269208.6999999881,269215.258,269598.63,,49,if
screen,html.Screen,2_1_0_1_50,2022-05-09T13:36:11.812Z,,,,,,,,,,,,,,,,,53,,,,,,,,,,,,,,357.36999999999534,,response,,,,99,,,,,,,Space,keypress(Space),,,,,,,,---- -- ----- -- ------ - ------- --- ----------<br>------------- ------ ------ ---- ---- ------- ----- -- ----<br>-------- ------- -- ---------- --- - --- ----- ----- ----<br>---- --- --- ----- --- ---- ---- ------- ----- ---- -------<br>--- --- -- ----- -- --- ---- -- --- ---- -- that's ------<br>--- ----- -- ----,269956.59999999404,269956,269581.946,269588.59999999404,269598.63,269965.292,,50,that's
screen,html.Screen,2_1_0_1_51,2022-05-09T13:36:12.165Z,,,,,,,,,,,,,,,,,53,,,,,,,,,,,,,,343.60799999104347,,response,,,,99,,,,,,,Space,keypress(Space),,,,,,,,---- -- ----- -- ------ - ------- --- ----------<br>------------- ------ ------ ---- ---- ------- ----- -- ----<br>-------- ------- -- ---------- --- - --- ----- ----- ----<br>---- --- --- ----- --- ---- ---- ------- ----- ---- -------<br>--- --- -- ----- -- --- ---- -- --- ---- -- ------ really<br>--- ----- -- ----,270309.39999999106,270308.89999999106,269948.602,269956.59999999404,269965.292,270315.271,,51,really
screen,html.Screen,2_1_0_1_52,2022-05-09T13:36:12.533Z,,,,,,,,,,,,,,,,,53,,,,,,,,,,,,,,361.7289999999921,,response,,,,99,,,,,,,Space,keypress(Space),,,,,,,,---- -- ----- -- ------ - ------- --- ----------<br>------------- ------ ------ ---- ---- ------- ----- -- ----<br>-------- ------- -- ---------- --- - --- ----- ----- ----<br>---- --- --- ----- --- ---- ---- ------- ----- ---- -------<br>--- --- -- ----- -- --- ---- -- --- ---- -- ------ ------<br>not ----- -- ----,270677.59999999404,270677,270298.597,270309.5,270315.271,270681.877,,52,not
screen,html.Screen,2_1_0_1_53,2022-05-09T13:36:12.885Z,,,,,,,,,,,,,,,,,53,,,,,,,,,,,,,,347.22299999406096,,response,,,,99,,,,,,,Space,keypress(Space),,,,,,,,---- -- ----- -- ------ - ------- --- ----------<br>------------- ------ ------ ---- ---- ------- ----- -- ----<br>-------- ------- -- ---------- --- - --- ----- ----- ----<br>---- --- --- ----- --- ---- ---- ------- ----- ---- -------<br>--- --- -- ----- -- --- ---- -- --- ---- -- ------ ------<br>--- close -- ----,271029.59999999404,271029.09999999404,270665.23,270677.6999999881,270681.877,271031.904,,53,close
screen,html.Screen,2_1_0_1_54,2022-05-09T13:36:13.225Z,,,,,,,,,,,,,,,,,53,,,,,,,,,,,,,,337.09600000001956,,response,,,,99,,,,,,,Space,keypress(Space),,,,,,,,---- -- ----- -- ------ - ------- --- ----------<br>------------- ------ ------ ---- ---- ------- ----- -- ----<br>-------- ------- -- ---------- --- - --- ----- ----- ----<br>---- --- --- ----- --- ---- ---- ------- ----- ---- -------<br>--- --- -- ----- -- --- ---- -- --- ---- -- ------ ------<br>--- ----- at ----,271369.59999999404,271369,271015.255,271029.6999999881,271031.904,271381.9,,54,at
screen,html.Screen,2_1_0_1_55,2022-05-09T13:36:13.648Z,,,,,,,,,,,,,,,,,53,,,,,,,,,,,,,,409.69999999401625,,response,,,,99,,,,,,,Space,keypress(Space),,,,,,,,---- -- ----- -- ------ - ------- --- ----------<br>------------- ------ ------ ---- ---- ------- ----- -- ----<br>-------- ------- -- ---------- --- - --- ----- ----- ----<br>---- --- --- ----- --- ---- ---- ------- ----- ---- -------<br>--- --- -- ----- -- --- ---- -- --- ---- -- ------ ------<br>--- ----- -- all.,271792.09999999404,271791.59999999404,271365.276,271369.6999999881,271381.9,271798.577,,55,all.
Item 99,flow.Loop,2_1_0_1,2022-05-09T13:36:13.648Z,,,,,,,,,,,,,,,,,,,,,,,,,,,,,,,25442.597999994032,,completion,,,,,F,,,,,,,,,,,silence,,,,,271792.299999997,271791.59999999404,246332.465,246333,246349.002,271798.577,,,
Question 1,html.Screen,2_1_0_2,2022-05-09T13:36:17.146Z,,,,,,,,,,,,,,,,,,,,,,,,,,,,true,FALSE,,3490.42300000001,,response,,,,99,F,,,,,,FALSE,click #choice-2,,,,silence,,,,,275290,275289,271781.9,271792.39999999106,271798.577,275298.423,,,
Question 2,html.Screen,2_1_0_3,2022-05-09T13:36:25.756Z,,,,,,,,,,,,,,,,,,,,,,,,,,,,true,TRUE,,8599.37699999701,,response,,,,99,F,,,,,,TRUE,click #choice-1,,,,silence,,,,,283899.1999999881,283897.799999997,275281.792,275290.09999999404,275298.423,283914.935,,,
Item 99,flow.Sequence,2_1_0,2022-05-09T13:36:25.756Z,,,,,,,,,,,,,,,,,,,,,,,,,,,,,,,47548.52799999702,,completion,,,,,,,,,,,,,,,,,,,,,283899.5,283897.799999997,236332.638,236337,236349.272,283914.935,,,
Holding screen,html.Screen,2_1_1_0,2022-05-09T13:36:35.755Z,,,,,,,,,,,,,,,,,,,,,,,,,,,,,,,9999.868000000017,,timeout,,,,,,,,,,,,,,,,,,,,,293898.6999999881,293898.114,283898.277,283899.59999999404,283914.935,293914.803,,,
screen,html.Screen,2_1_1_1_0,2022-05-09T13:36:36.581Z,,,,,,,,,,,,,,,,,54,,,,,,,,,,,,,,809.3969999880646,,response,,,,100,,,,,,,Space,keypress(Space),,,,,,,,At --- ---- --- ------ ----- ------- ---- -- --- ------- --<br>------- ---------- ------ -- ----- -- ----- -- ---- ------<br>--- ----- --- --- ------ -------- ----- --- ------ ----- --<br>----- ----- ---------- --- --- ------ ------ ---- -- ------<br>------- --- ------ ----- --- ---- ------- -- ---- --- --<br>------- ------,294724.6999999881,294724.1999999881,293898.114,293898.799999997,293914.803,294731.393,,0,At
screen,html.Screen,2_1_1_1_1,2022-05-09T13:36:36.901Z,,,,,,,,,,,,,,,,,54,,,,,,,,,,,,,,312.50699999107746,,response,,,,100,,,,,,,Space,keypress(Space),,,,,,,,-- the ---- --- ------ ----- ------- ---- -- --- ------- --<br>------- ---------- ------ -- ----- -- ----- -- ---- ------<br>--- ----- --- --- ------ -------- ----- --- ------ ----- --<br>----- ----- ---------- --- --- ------ ------ ---- -- ------<br>------- --- ------ ----- --- ---- ------- -- ---- --- --<br>------- ------,295044.39999999106,295043.89999999106,294714.757,294724.799999997,294731.393,295048.052,,1,the
screen,html.Screen,2_1_1_1_2,2022-05-09T13:36:37.281Z,,,,,,,,,,,,,,,,,54,,,,,,,,,,,,,,375.7479999969946,,response,,,,100,,,,,,,Space,keypress(Space),,,,,,,,-- --- time --- ------ ----- ------- ---- -- --- ------- --<br>------- ---------- ------ -- ----- -- ----- -- ---- ------<br>--- ----- --- --- ------ -------- ----- --- ------ ----- --<br>----- ----- ---------- --- --- ------ ------ ---- -- ------<br>------- --- ------ ----- --- ---- ------- -- ---- --- --<br>------- ------,295424.39999999106,295423.799999997,295031.456,295044.5,295048.052,295431.437,,2,time
screen,html.Screen,2_1_1_1_3,2022-05-09T13:36:37.763Z,,,,,,,,,,,,,,,,,54,,,,,,,,,,,,,,474.7629999881028,,response,,,,100,,,,,,,Space,keypress(Space),,,,,,,,-- --- ---- the ------ ----- ------- ---- -- --- ------- --<br>------- ---------- ------ -- ----- -- ----- -- ---- ------<br>--- ----- --- --- ------ -------- ----- --- ------ ----- --<br>----- ----- ---------- --- --- ------ ------ ---- -- ------<br>------- --- ------ ----- --- ---- ------- -- ---- --- --<br>------- ------,295906.6999999881,295906.1999999881,295414.755,295424.5,295431.437,295914.76,,3,the
screen,html.Screen,2_1_1_1_4,2022-05-09T13:36:38.122Z,,,,,,,,,,,,,,,,,54,,,,,,,,,,,,,,350.03999999701045,,response,,,,100,,,,,,,Space,keypress(Space),,,,,,,,-- --- ---- --- French ----- ------- ---- -- --- ------- --<br>------- ---------- ------ -- ----- -- ----- -- ---- ------<br>--- ----- --- --- ------ -------- ----- --- ------ ----- --<br>----- ----- ---------- --- --- ------ ------ ---- -- ------<br>------- --- ------ ----- --- ---- ------- -- ---- --- --<br>------- ------,296265.299999997,296264.799999997,295898.063,295906.799999997,295914.76,296281.393,,4,French
screen,html.Screen,2_1_1_1_5,2022-05-09T13:36:38.562Z,,,,,,,,,,,,,,,,,54,,,,,,,,,,,,,,423.50699999107746,,response,,,,100,,,,,,,Space,keypress(Space),,,,,,,,-- --- ---- --- ------ crown ------- ---- -- --- ------- --<br>------- ---------- ------ -- ----- -- ----- -- ---- ------<br>--- ----- --- --- ------ -------- ----- --- ------ ----- --<br>----- ----- ---------- --- --- ------ ------ ---- -- ------<br>------- --- ------ ----- --- ---- ------- -- ---- --- --<br>------- ------,296705.39999999106,296704.89999999106,296264.738,296265.39999999106,296281.393,296714.698,,5,crown
screen,html.Screen,2_1_1_1_6,2022-05-09T13:36:39.305Z,,,,,,,,,,,,,,,,,54,,,,,,,,,,,,,,733.1019999970449,,response,,,,100,,,,,,,Space,keypress(Space),,,,,,,,-- --- ---- --- ------ ----- secured ---- -- --- ------- --<br>------- ---------- ------ -- ----- -- ----- -- ---- ------<br>--- ----- --- --- ------ -------- ----- --- ------ ----- --<br>----- ----- ---------- --- --- ------ ------ ---- -- ------<br>------- --- ------ ----- --- ---- ------- -- ---- --- --<br>------- ------,297448.39999999106,297447.799999997,296698.049,296705.59999999404,296714.698,297464.708,,6,secured
screen,html.Screen,2_1_1_1_7,2022-05-09T13:36:39.665Z,,,,,,,,,,,,,,,,,54,,,,,,,,,,,,,,343.0919999970356,,response,,,,100,,,,,,,Space,keypress(Space),,,,,,,,-- --- ---- --- ------ ----- ------- much -- --- ------- --<br>------- ---------- ------ -- ----- -- ----- -- ---- ------<br>--- ----- --- --- ------ -------- ----- --- ------ ----- --<br>----- ----- ---------- --- --- ------ ------ ---- -- ------<br>------- --- ------ ----- --- ---- ------- -- ---- --- --<br>------- ------,297808.299999997,297807.799999997,297447.953,297448.59999999404,297464.708,297814.715,,7,much
screen,html.Screen,2_1_1_1_8,2022-05-09T13:36:40.006Z,,,,,,,,,,,,,,,,,54,,,,,,,,,,,,,,334.1849999910337,,response,,,,100,,,,,,,Space,keypress(Space),,,,,,,,-- --- ---- --- ------ ----- ------- ---- of --- ------- --<br>------- ---------- ------ -- ----- -- ----- -- ---- ------<br>--- ----- --- --- ------ -------- ----- --- ------ ----- --<br>----- ----- ---------- --- --- ------ ------ ---- -- ------<br>------- --- ------ ----- --- ---- ------- -- ---- --- --<br>------- ------,298149.5,298148.89999999106,297798.036,297808.39999999106,297814.715,298164.724,,8,of
screen,html.Screen,2_1_1_1_9,2022-05-09T13:36:40.346Z,,,,,,,,,,,,,,,,,54,,,,,,,,,,,,,,324.1759999910719,,response,,,,100,,,,,,,Space,keypress(Space),,,,,,,,-- --- ---- --- ------ ----- ------- ---- -- its ------- --<br>------- ---------- ------ -- ----- -- ----- -- ---- ------<br>--- ----- --- --- ------ -------- ----- --- ------ ----- --<br>----- ----- ---------- --- --- ------ ------ ---- -- ------<br>------- --- ------ ----- --- ---- ------- -- ---- --- --<br>------- ------,298489.39999999106,298488.89999999106,298147.992,298149.5,298164.724,298498.04,,9,its
screen,html.Screen,2_1_1_1_10,2022-05-09T13:36:40.768Z,,,,,,,,,,,,,,,,,54,,,,,,,,,,,,,,412.96000000002095,,response,,,,100,,,,,,,Space,keypress(Space),,,,,,,,-- --- ---- --- ------ ----- ------- ---- -- --- revenue --<br>------- ---------- ------ -- ----- -- ----- -- ---- ------<br>--- ----- --- --- ------ -------- ----- --- ------ ----- --<br>----- ----- ---------- --- --- ------ ------ ---- -- ------<br>------- --- ------ ----- --- ---- ------- -- ---- --- --<br>------- ------,298911.799999997,298911,298481.319,298489.59999999404,298498.04,298914.645,,10,revenue
screen,html.Screen,2_1_1_1_11,2022-05-09T13:36:41.287Z,,,,,,,,,,,,,,,,,54,,,,,,,,,,,,,,515.1549999970011,,response,,,,100,,,,,,,Space,keypress(Space),,,,,,,,-- --- ---- --- ------ ----- ------- ---- -- --- ------- by<br>------- ---------- ------ -- ----- -- ----- -- ---- ------<br>--- ----- --- --- ------ -------- ----- --- ------ ----- --<br>----- ----- ---------- --- --- ------ ------ ---- -- ------<br>------- --- ------ ----- --- ---- ------- -- ---- --- --<br>------- ------,299430.299999997,299429.799999997,298897.93,298911.89999999106,298914.645,299463.116,,11,by
screen,html.Screen,2_1_1_1_12,2022-05-09T13:36:41.749Z,,,,,,,,,,,,,,,,,54,,,,,,,,,,,,,,428.6839999970398,,response,,,,100,,,,,,,Space,keypress(Space),,,,,,,,-- --- ---- --- ------ ----- ------- ---- -- --- ------- --<br>issuing ---------- ------ -- ----- -- ----- -- ---- ------<br>--- ----- --- --- ------ -------- ----- --- ------ ----- --<br>----- ----- ---------- --- --- ------ ------ ---- -- ------<br>------- --- ------ ----- --- ---- ------- -- ---- --- --<br>------- ------,299892.299999997,299891.799999997,299414.616,299430.5,299463.116,299897.996,,12,issuing
screen,html.Screen,2_1_1_1_13,2022-05-09T13:36:42.168Z,,,,,,,,,,,,,,,,,54,,,,,,,,,,,,,,412.90399999107467,,response,,,,100,,,,,,,Space,keypress(Space),,,,,,,,-- --- ---- --- ------ ----- ------- ---- -- --- ------- --<br>------- government ------ -- ----- -- ----- -- ---- ------<br>--- ----- --- --- ------ -------- ----- --- ------ ----- --<br>----- ----- ---------- --- --- ------ ------ ---- -- ------<br>------- --- ------ ----- --- ---- ------- -- ---- --- --<br>------- ------,300311.5,300310.89999999106,299881.329,299892.5,299897.996,300314.614,,13,government
screen,html.Screen,2_1_1_1_14,2022-05-09T13:36:42.508Z,,,,,,,,,,,,,,,,,54,,,,,,,,,,,,,,336.18599999701837,,response,,,,100,,,,,,,Space,keypress(Space),,,,,,,,-- --- ---- --- ------ ----- ------- ---- -- --- ------- --<br>------- ---------- bonds. -- ----- -- ----- -- ---- ------<br>--- ----- --- --- ------ -------- ----- --- ------ ----- --<br>----- ----- ---------- --- --- ------ ------ ---- -- ------<br>------- --- ------ ----- --- ---- ------- -- ---- --- --<br>------- ------,300651.39999999106,300650.799999997,300297.982,300311.59999999404,300314.614,300664.668,,14,bonds.
screen,html.Screen,2_1_1_1_15,2022-05-09T13:36:43.168Z,,,,,,,,,,,,,,,,,54,,,,,,,,,,,,,,646.1319999970146,,response,,,,100,,,,,,,Space,keypress(Space),,,,,,,,-- --- ---- --- ------ ----- ------- ---- -- --- ------- --<br>------- ---------- ------ In ----- -- ----- -- ---- ------<br>--- ----- --- --- ------ -------- ----- --- ------ ----- --<br>----- ----- ---------- --- --- ------ ------ ---- -- ------<br>------- --- ------ ----- --- ---- ------- -- ---- --- --<br>------- ------,301311.39999999106,301310.799999997,300647.975,300651.39999999106,300664.668,301314.597,,15,In
screen,html.Screen,2_1_1_1_16,2022-05-09T13:36:44.671Z,,,,,,,,,,,,,,,,,54,,,,,,,,,,,,,,1499.1029999880702,,response,,,,100,,,,,,,Space,keypress(Space),,,,,,,,"-- --- ---- --- ------ ----- ------- ---- -- --- ------- --<br>------- ---------- ------ -- 1727, -- ----- -- ---- ------<br>--- ----- --- --- ------ -------- ----- --- ------ ----- --<br>----- ----- ---------- --- --- ------ ------ ---- -- ------<br>------- --- ------ ----- --- ---- ------- -- ---- --- --<br>------- ------",302814.299999997,302813.6999999881,301297.991,301311.59999999404,301314.597,302831.273,,16,"1727,"
screen,html.Screen,2_1_1_1_17,2022-05-09T13:36:45.112Z,,,,,,,,,,,,,,,,,54,,,,,,,,,,,,,,423.5269999970333,,response,,,,100,,,,,,,Space,keypress(Space),,,,,,,,-- --- ---- --- ------ ----- ------- ---- -- --- ------- --<br>------- ---------- ------ -- ----- in ----- -- ---- ------<br>--- ----- --- --- ------ -------- ----- --- ------ ----- --<br>----- ----- ---------- --- --- ------ ------ ---- -- ------<br>------- --- ------ ----- --- ---- ------- -- ---- --- --<br>------- ------,303255.299999997,303254.799999997,302814.604,302814.299999997,302831.273,303264.616,,17,in
screen,html.Screen,2_1_1_1_18,2022-05-09T13:36:45.554Z,,,,,,,,,,,,,,,,,54,,,,,,,,,,,,,,432.1839999970398,,response,,,,100,,,,,,,Space,keypress(Space),,,,,,,,-- --- ---- --- ------ ----- ------- ---- -- --- ------- --<br>------- ---------- ------ -- ----- -- order -- ---- ------<br>--- ----- --- --- ------ -------- ----- --- ------ ----- --<br>----- ----- ---------- --- --- ------ ------ ---- -- ------<br>------- --- ------ ----- --- ---- ------- -- ---- --- --<br>------- ------,303697.39999999106,303696.799999997,303247.915,303255.39999999106,303264.616,303731.259,,18,order
screen,html.Screen,2_1_1_1_19,2022-05-09T13:36:45.915Z,,,,,,,,,,,,,,,,,54,,,,,,,,,,,,,,326.44099998805905,,response,,,,100,,,,,,,Space,keypress(Space),,,,,,,,-- --- ---- --- ------ ----- ------- ---- -- --- ------- --<br>------- ---------- ------ -- ----- -- ----- to ---- ------<br>--- ----- --- --- ------ -------- ----- --- ------ ----- --<br>----- ----- ---------- --- --- ------ ------ ---- -- ------<br>------- --- ------ ----- --- ---- ------- -- ---- --- --<br>------- ------,304058.299999997,304057.6999999881,303714.579,303697.5,303731.259,304064.575,,19,to
screen,html.Screen,2_1_1_1_20,2022-05-09T13:36:46.237Z,,,,,,,,,,,,,,,,,54,,,,,,,,,,,,,,315.12499998806743,,response,,,,100,,,,,,,Space,keypress(Space),,,,,,,,-- --- ---- --- ------ ----- ------- ---- -- --- ------- --<br>------- ---------- ------ -- ----- -- ----- -- save ------<br>--- ----- --- --- ------ -------- ----- --- ------ ----- --<br>----- ----- ---------- --- --- ------ ------ ---- -- ------<br>------- --- ------ ----- --- ---- ------- -- ---- --- --<br>------- ------,304380.299999997,304379.6999999881,304047.96,304058.39999999106,304064.575,304402.897,,20,save
screen,html.Screen,2_1_1_1_21,2022-05-09T13:36:46.615Z,,,,,,,,,,,,,,,,,54,,,,,,,,,,,,,,355.20299999404233,,response,,,,100,,,,,,,Space,keypress(Space),,,,,,,,"-- --- ---- --- ------ ----- ------- ---- -- --- ------- --<br>------- ---------- ------ -- ----- -- ----- -- ---- money,<br>--- ----- --- --- ------ -------- ----- --- ------ ----- --<br>----- ----- ---------- --- --- ------ ------ ---- -- ------<br>------- --- ------ ----- --- ---- ------- -- ---- --- --<br>------- ------",304758.6999999881,304758.09999999404,304364.592,304380.5,304402.897,304764.582,,21,"money,"
screen,html.Screen,2_1_1_1_22,2022-05-09T13:36:47.056Z,,,,,,,,,,,,,,,,,54,,,,,,,,,,,,,,434.2179999970249,,response,,,,100,,,,,,,Space,keypress(Space),,,,,,,,-- --- ---- --- ------ ----- ------- ---- -- --- ------- --<br>------- ---------- ------ -- ----- -- ----- -- ---- ------<br>the ----- --- --- ------ -------- ----- --- ------ ----- --<br>----- ----- ---------- --- --- ------ ------ ---- -- ------<br>------- --- ------ ----- --- ---- ------- -- ---- --- --<br>------- ------,305199.39999999106,305198.799999997,304747.818,304758.799999997,304764.582,305214.622,,22,the
screen,html.Screen,2_1_1_1_23,2022-05-09T13:36:47.423Z,,,,,,,,,,,,,,,,,54,,,,,,,,,,,,,,351.07799998810515,,response,,,,100,,,,,,,Space,keypress(Space),,,,,,,,-- --- ---- --- ------ ----- ------- ---- -- --- ------- --<br>------- ---------- ------ -- ----- -- ----- -- ---- ------<br>--- state --- --- ------ -------- ----- --- ------ ----- --<br>----- ----- ---------- --- --- ------ ------ ---- -- ------<br>------- --- ------ ----- --- ---- ------- -- ---- --- --<br>------- ------,305566.39999999106,305565.6999999881,305197.879,305199.39999999106,305214.622,305581.231,,23,state
screen,html.Screen,2_1_1_1_24,2022-05-09T13:36:47.816Z,,,,,,,,,,,,,,,,,54,,,,,,,,,,,,,,377.5689999969909,,response,,,,100,,,,,,,Space,keypress(Space),,,,,,,,-- --- ---- --- ------ ----- ------- ---- -- --- ------- --<br>------- ---------- ------ -- ----- -- ----- -- ---- ------<br>--- ----- cut --- ------ -------- ----- --- ------ ----- --<br>----- ----- ---------- --- --- ------ ------ ---- -- ------<br>------- --- ------ ----- --- ---- ------- -- ---- --- --<br>------- ------,305959.1999999881,305958.799999997,305564.53,305566.39999999106,305581.231,305964.486,,24,cut
screen,html.Screen,2_1_1_1_25,2022-05-09T13:36:48.136Z,,,,,,,,,,,,,,,,,54,,,,,,,,,,,,,,314.31399999704445,,response,,,,100,,,,,,,Space,keypress(Space),,,,,,,,-- --- ---- --- ------ ----- ------- ---- -- --- ------- --<br>------- ---------- ------ -- ----- -- ----- -- ---- ------<br>--- ----- --- the ------ -------- ----- --- ------ ----- --<br>----- ----- ---------- --- --- ------ ------ ---- -- ------<br>------- --- ------ ----- --- ---- ------- -- ---- --- --<br>------- ------,306279.299999997,306278.799999997,305947.858,305959.299999997,305964.486,306281.164,,25,the
screen,html.Screen,2_1_1_1_26,2022-05-09T13:36:48.521Z,,,,,,,,,,,,,,,,,54,,,,,,,,,,,,,,382.63599999703,,response,,,,100,,,,,,,Space,keypress(Space),,,,,,,,-- --- ---- --- ------ ----- ------- ---- -- --- ------- --<br>------- ---------- ------ -- ----- -- ----- -- ---- ------<br>--- ----- --- --- bonds' -------- ----- --- ------ ----- --<br>----- ----- ---------- --- --- ------ ------ ---- -- ------<br>------- --- ------ ----- --- ---- ------- -- ---- --- --<br>------- ------,306664.39999999106,306663.799999997,306264.505,306279.39999999106,306281.164,306681.217,,26,bonds'
screen,html.Screen,2_1_1_1_27,2022-05-09T13:36:48.926Z,,,,,,,,,,,,,,,,,54,,,,,,,,,,,,,,387.5829999970156,,response,,,,100,,,,,,,Space,keypress(Space),,,,,,,,-- --- ---- --- ------ ----- ------- ---- -- --- ------- --<br>------- ---------- ------ -- ----- -- ----- -- ---- ------<br>--- ----- --- --- ------ interest ----- --- ------ ----- --<br>----- ----- ---------- --- --- ------ ------ ---- -- ------<br>------- --- ------ ----- --- ---- ------- -- ---- --- --<br>------- ------,307069.1999999881,307068.799999997,306664.511,306664.5,306681.217,307081.19,,27,interest
screen,html.Screen,2_1_1_1_28,2022-05-09T13:36:49.280Z,,,,,,,,,,,,,,,,,54,,,,,,,,,,,,,,341.50999998807674,,response,,,,100,,,,,,,Space,keypress(Space),,,,,,,,-- --- ---- --- ------ ----- ------- ---- -- --- ------- --<br>------- ---------- ------ -- ----- -- ----- -- ---- ------<br>--- ----- --- --- ------ -------- rate. --- ------ ----- --<br>----- ----- ---------- --- --- ------ ------ ---- -- ------<br>------- --- ------ ----- --- ---- ------- -- ---- --- --<br>------- ------,307423.299999997,307422.6999999881,307064.52,307069.299999997,307081.19,307431.184,,28,rate.
screen,html.Screen,2_1_1_1_29,2022-05-09T13:36:49.940Z,,,,,,,,,,,,,,,,,54,,,,,,,,,,,,,,651.6159999970114,,response,,,,100,,,,,,,Space,keypress(Space),,,,,,,,-- --- ---- --- ------ ----- ------- ---- -- --- ------- --<br>------- ---------- ------ -- ----- -- ----- -- ---- ------<br>--- ----- --- --- ------ -------- ----- The ------ ----- --<br>----- ----- ---------- --- --- ------ ------ ---- -- ------<br>------- --- ------ ----- --- ---- ------- -- ---- --- --<br>------- ------,308083.39999999106,308082.799999997,307414.523,307423.39999999106,307431.184,308097.828,,29,The
screen,html.Screen,2_1_1_1_30,2022-05-09T13:36:50.281Z,,,,,,,,,,,,,,,,,54,,,,,,,,,,,,,,325.97199999704026,,response,,,,100,,,,,,,Space,keypress(Space),,,,,,,,-- --- ---- --- ------ ----- ------- ---- -- --- ------- --<br>------- ---------- ------ -- ----- -- ----- -- ---- ------<br>--- ----- --- --- ------ -------- ----- --- market ----- --<br>----- ----- ---------- --- --- ------ ------ ---- -- ------<br>------- --- ------ ----- --- ---- ------- -- ---- --- --<br>------- ------,308424.39999999106,308423.799999997,308081.09,308083.39999999106,308097.828,308431.17,,30,market
screen,html.Screen,2_1_1_1_31,2022-05-09T13:36:50.685Z,,,,,,,,,,,,,,,,,54,,,,,,,,,,,,,,396.62999999703607,,response,,,,100,,,,,,,Space,keypress(Space),,,,,,,,-- --- ---- --- ------ ----- ------- ---- -- --- ------- --<br>------- ---------- ------ -- ----- -- ----- -- ---- ------<br>--- ----- --- --- ------ -------- ----- --- ------ value --<br>----- ----- ---------- --- --- ------ ------ ---- -- ------<br>------- --- ------ ----- --- ---- ------- -- ---- --- --<br>------- ------,308828.39999999106,308827.799999997,308414.508,308424.39999999106,308431.17,308831.133,,31,value
screen,html.Screen,2_1_1_1_32,2022-05-09T13:36:51.022Z,,,,,,,,,,,,,,,,,54,,,,,,,,,,,,,,333.66699999704724,,response,,,,100,,,,,,,Space,keypress(Space),,,,,,,,-- --- ---- --- ------ ----- ------- ---- -- --- ------- --<br>------- ---------- ------ -- ----- -- ----- -- ---- ------<br>--- ----- --- --- ------ -------- ----- --- ------ ----- of<br>----- ----- ---------- --- --- ------ ------ ---- -- ------<br>------- --- ------ ----- --- ---- ------- -- ---- --- --<br>------- ------,309165.299999997,309164.799999997,308814.39,308828.5,308831.133,309181.155,,32,of
screen,html.Screen,2_1_1_1_33,2022-05-09T13:36:51.362Z,,,,,,,,,,,,,,,,,54,,,,,,,,,,,,,,323.54499998805113,,response,,,,100,,,,,,,Space,keypress(Space),,,,,,,,-- --- ---- --- ------ ----- ------- ---- -- --- ------- --<br>------- ---------- ------ -- ----- -- ----- -- ---- ------<br>--- ----- --- --- ------ -------- ----- --- ------ ----- --<br>these ----- ---------- --- --- ------ ------ ---- -- ------<br>------- --- ------ ----- --- ---- ------- -- ---- --- --<br>------- ------,309505.1999999881,309504.6999999881,309164.456,309165.39999999106,309181.155,309514.481,,33,these
screen,html.Screen,2_1_1_1_34,2022-05-09T13:36:51.703Z,,,,,,,,,,,,,,,,,54,,,,,,,,,,,,,,331.2189999880502,,response,,,,100,,,,,,,Space,keypress(Space),,,,,,,,-- --- ---- --- ------ ----- ------- ---- -- --- ------- --<br>------- ---------- ------ -- ----- -- ----- -- ---- ------<br>--- ----- --- --- ------ -------- ----- --- ------ ----- --<br>----- bonds ---------- --- --- ------ ------ ---- -- ------<br>------- --- ------ ----- --- ---- ------- -- ---- --- --<br>------- ------,309846.1999999881,309845.6999999881,309497.777,309505.39999999106,309514.481,309867.969,,34,bonds
screen,html.Screen,2_1_1_1_35,2022-05-09T13:36:51.982Z,,,,,,,,,,,,,,,,,54,,,,,,,,,,,,,,256.7309999880963,,response,,,,100,,,,,,,Space,keypress(Space),,,,,,,,"-- --- ---- --- ------ ----- ------- ---- -- --- ------- --<br>------- ---------- ------ -- ----- -- ----- -- ---- ------<br>--- ----- --- --- ------ -------- ----- --- ------ ----- --<br>----- ----- plummeted, --- --- ------ ------ ---- -- ------<br>------- --- ------ ----- --- ---- ------- -- ---- --- --<br>------- ------",310125.299999997,310124.6999999881,309831.114,309846.39999999106,309867.969,310131.107,,35,"plummeted,"
screen,html.Screen,2_1_1_1_36,2022-05-09T13:36:52.543Z,,,,,,,,,,,,,,,,,54,,,,,,,,,,,,,,554.5929999880609,,response,,,,100,,,,,,,Space,keypress(Space),,,,,,,,-- --- ---- --- ------ ----- ------- ---- -- --- ------- --<br>------- ---------- ------ -- ----- -- ----- -- ---- ------<br>--- ----- --- --- ------ -------- ----- --- ------ ----- --<br>----- ----- ---------- and --- ------ ------ ---- -- ------<br>------- --- ------ ----- --- ---- ------- -- ---- --- --<br>------- ------,310686.299999997,310685.6999999881,310114.451,310125.39999999106,310131.107,310697.686,,36,and
screen,html.Screen,2_1_1_1_37,2022-05-09T13:36:52.883Z,,,,,,,,,,,,,,,,,54,,,,,,,,,,,,,,328.1139999970328,,response,,,,100,,,,,,,Space,keypress(Space),,,,,,,,-- --- ---- --- ------ ----- ------- ---- -- --- ------- --<br>------- ---------- ------ -- ----- -- ----- -- ---- ------<br>--- ----- --- --- ------ -------- ----- --- ------ ----- --<br>----- ----- ---------- --- the ------ ------ ---- -- ------<br>------- --- ------ ----- --- ---- ------- -- ---- --- --<br>------- ------,311026.299999997,311025.799999997,310681.089,310686.39999999106,310697.686,311031.108,,37,the
screen,html.Screen,2_1_1_1_38,2022-05-09T13:36:53.151Z,,,,,,,,,,,,,,,,,54,,,,,,,,,,,,,,262.5919999880716,,response,,,,100,,,,,,,Space,keypress(Space),,,,,,,,-- --- ---- --- ------ ----- ------- ---- -- --- ------- --<br>------- ---------- ------ -- ----- -- ----- -- ---- ------<br>--- ----- --- --- ------ -------- ----- --- ------ ----- --<br>----- ----- ---------- --- --- market ------ ---- -- ------<br>------- --- ------ ----- --- ---- ------- -- ---- --- --<br>------- ------,311294.299999997,311293.6999999881,311014.403,311026.39999999106,311031.108,311297.722,,38,market
screen,html.Screen,2_1_1_1_39,2022-05-09T13:36:53.524Z,,,,,,,,,,,,,,,,,54,,,,,,,,,,,,,,368.9779999880702,,response,,,,100,,,,,,,Space,keypress(Space),,,,,,,,-- --- ---- --- ------ ----- ------- ---- -- --- ------- --<br>------- ---------- ------ -- ----- -- ----- -- ---- ------<br>--- ----- --- --- ------ -------- ----- --- ------ ----- --<br>----- ----- ---------- --- --- ------ became ---- -- ------<br>------- --- ------ ----- --- ---- ------- -- ---- --- --<br>------- ------,311667.39999999106,311666.6999999881,311281.055,311294.39999999106,311297.722,311681.025,,39,became
screen,html.Screen,2_1_1_1_40,2022-05-09T13:36:53.804Z,,,,,,,,,,,,,,,,,54,,,,,,,,,,,,,,265.7749999969965,,response,,,,100,,,,,,,Space,keypress(Space),,,,,,,,-- --- ---- --- ------ ----- ------- ---- -- --- ------- --<br>------- ---------- ------ -- ----- -- ----- -- ---- ------<br>--- ----- --- --- ------ -------- ----- --- ------ ----- --<br>----- ----- ---------- --- --- ------ ------ wary -- ------<br>------- --- ------ ----- --- ---- ------- -- ---- --- --<br>------- ------,311947.1999999881,311946.799999997,311664.406,311667.39999999106,311681.025,311964.409,,40,wary
screen,html.Screen,2_1_1_1_41,2022-05-09T13:36:54.224Z,,,,,,,,,,,,,,,,,54,,,,,,,,,,,,,,402.39099999703467,,response,,,,100,,,,,,,Space,keypress(Space),,,,,,,,-- --- ---- --- ------ ----- ------- ---- -- --- ------- --<br>------- ---------- ------ -- ----- -- ----- -- ---- ------<br>--- ----- --- --- ------ -------- ----- --- ------ ----- --<br>----- ----- ---------- --- --- ------ ------ ---- of ------<br>------- --- ------ ----- --- ---- ------- -- ---- --- --<br>------- ------,312367.299999997,312366.799999997,311947.658,311947.39999999106,311964.409,312381.078,,41,of
screen,html.Screen,2_1_1_1_42,2022-05-09T13:36:54.486Z,,,,,,,,,,,,,,,,,54,,,,,,,,,,,,,,247.62199998809956,,response,,,,100,,,,,,,Space,keypress(Space),,,,,,,,-- --- ---- --- ------ ----- ------- ---- -- --- ------- --<br>------- ---------- ------ -- ----- -- ----- -- ---- ------<br>--- ----- --- --- ------ -------- ----- --- ------ ----- --<br>----- ----- ---------- --- --- ------ ------ ---- -- French<br>------- --- ------ ----- --- ---- ------- -- ---- --- --<br>------- ------,312629.1999999881,312628.6999999881,312364.396,312367.39999999106,312381.078,312631.057,,42,French
screen,html.Screen,2_1_1_1_43,2022-05-09T13:36:55.005Z,,,,,,,,,,,,,,,,,54,,,,,,,,,,,,,,516.7429999970482,,response,,,,100,,,,,,,Space,keypress(Space),,,,,,,,-- --- ---- --- ------ ----- ------- ---- -- --- ------- --<br>------- ---------- ------ -- ----- -- ----- -- ---- ------<br>--- ----- --- --- ------ -------- ----- --- ------ ----- --<br>----- ----- ---------- --- --- ------ ------ ---- -- ------<br>credit. --- ------ ----- --- ---- ------- -- ---- --- --<br>------- ------,313148.299999997,313147.799999997,312614.393,312629.299999997,312631.057,313164.387,,43,credit.
screen,html.Screen,2_1_1_1_44,2022-05-09T13:36:55.485Z,,,,,,,,,,,,,,,,,54,,,,,,,,,,,,,,463.3129999880912,,response,,,,100,,,,,,,Space,keypress(Space),,,,,,,,-- --- ---- --- ------ ----- ------- ---- -- --- ------- --<br>------- ---------- ------ -- ----- -- ----- -- ---- ------<br>--- ----- --- --- ------ -------- ----- --- ------ ----- --<br>----- ----- ---------- --- --- ------ ------ ---- -- ------<br>------- The ------ ----- --- ---- ------- -- ---- --- --<br>------- ------,313628.299999997,313627.6999999881,313147.63,313148.39999999106,313164.387,313630.998,,44,The
screen,html.Screen,2_1_1_1_45,2022-05-09T13:36:55.884Z,,,,,,,,,,,,,,,,,54,,,,,,,,,,,,,,395.70199998805765,,response,,,,100,,,,,,,Space,keypress(Space),,,,,,,,-- --- ---- --- ------ ----- ------- ---- -- --- ------- --<br>------- ---------- ------ -- ----- -- ----- -- ---- ------<br>--- ----- --- --- ------ -------- ----- --- ------ ----- --<br>----- ----- ---------- --- --- ------ ------ ---- -- ------<br>------- --- French ----- --- ---- ------- -- ---- --- --<br>------- ------,314027.299999997,314026.6999999881,313614.362,313628.299999997,313630.998,314030.982,,45,French
screen,html.Screen,2_1_1_1_46,2022-05-09T13:36:56.104Z,,,,,,,,,,,,,,,,,54,,,,,,,,,,,,,,216.61799999402137,,response,,,,100,,,,,,,Space,keypress(Space),,,,,,,,-- --- ---- --- ------ ----- ------- ---- -- --- ------- --<br>------- ---------- ------ -- ----- -- ----- -- ---- ------<br>--- ----- --- --- ------ -------- ----- --- ------ ----- --<br>----- ----- ---------- --- --- ------ ------ ---- -- ------<br>------- --- ------ state --- ---- ------- -- ---- --- --<br>------- ------,314248,314247.59999999404,314014.359,314027.39999999106,314030.982,314264.364,,46,state
screen,html.Screen,2_1_1_1_47,2022-05-09T13:36:56.364Z,,,,,,,,,,,,,,,,,54,,,,,,,,,,,,,,243.23599999403814,,response,,,,100,,,,,,,Space,keypress(Space),,,,,,,,-- --- ---- --- ------ ----- ------- ---- -- --- ------- --<br>------- ---------- ------ -- ----- -- ----- -- ---- ------<br>--- ----- --- --- ------ -------- ----- --- ------ ----- --<br>----- ----- ---------- --- --- ------ ------ ---- -- ------<br>------- --- ------ ----- was ---- ------- -- ---- --- --<br>------- ------,314508.09999999404,314507.59999999404,314247.696,314248.1999999881,314264.364,314514.369,,47,was
screen,html.Screen,2_1_1_1_48,2022-05-09T13:36:56.877Z,,,,,,,,,,,,,,,,,54,,,,,,,,,,,,,,506.13099999999395,,response,,,,100,,,,,,,Space,keypress(Space),,,,,,,,-- --- ---- --- ------ ----- ------- ---- -- --- ------- --<br>------- ---------- ------ -- ----- -- ----- -- ---- ------<br>--- ----- --- --- ------ -------- ----- --- ------ ----- --<br>----- ----- ---------- --- --- ------ ------ ---- -- ------<br>------- --- ------ ----- --- left ------- -- ---- --- --<br>------- ------,315021,315020.5,314497.695,314508.1999999881,314514.369,315031.021,,48,left
screen,html.Screen,2_1_1_1_49,2022-05-09T13:36:56.952Z,,,,,,,,,,,,,,,,,54,,,,,,,,,,,,,,63.678999988071155,,response,,,,100,,,,,,,Space,keypress(Space),,,,,,,,-- --- ---- --- ------ ----- ------- ---- -- --- ------- --<br>------- ---------- ------ -- ----- -- ----- -- ---- ------<br>--- ----- --- --- ------ -------- ----- --- ------ ----- --<br>----- ----- ---------- --- --- ------ ------ ---- -- ------<br>------- --- ------ ----- --- ---- without -- ---- --- --<br>------- ------,315095.1999999881,315094.6999999881,315014.366,315021.09999999404,315031.021,315114.322,,49,without
screen,html.Screen,2_1_1_1_50,2022-05-09T13:36:57.529Z,,,,,,,,,,,,,,,,,54,,,,,,,,,,,,,,557.4779999970342,,response,,,,100,,,,,,,Space,keypress(Space),,,,,,,,-- --- ---- --- ------ ----- ------- ---- -- --- ------- --<br>------- ---------- ------ -- ----- -- ----- -- ---- ------<br>--- ----- --- --- ------ -------- ----- --- ------ ----- --<br>----- ----- ---------- --- --- ------ ------ ---- -- ------<br>------- --- ------ ----- --- ---- ------- an ---- --- --<br>------- ------,315672.39999999106,315671.799999997,315097.725,315095.299999997,315114.322,315680.998,,50,an
screen,html.Screen,2_1_1_1_51,2022-05-09T13:36:57.950Z,,,,,,,,,,,,,,,,,54,,,,,,,,,,,,,,411.70199998805765,,response,,,,100,,,,,,,Space,keypress(Space),,,,,,,,-- --- ---- --- ------ ----- ------- ---- -- --- ------- --<br>------- ---------- ------ -- ----- -- ----- -- ---- ------<br>--- ----- --- --- ------ -------- ----- --- ------ ----- --<br>----- ----- ---------- --- --- ------ ------ ---- -- ------<br>------- --- ------ ----- --- ---- ------- -- easy --- --<br>------- ------,316093.299999997,316092.6999999881,315664.342,315672.39999999106,315680.998,316097.677,,51,easy
screen,html.Screen,2_1_1_1_52,2022-05-09T13:36:58.251Z,,,,,,,,,,,,,,,,,54,,,,,,,,,,,,,,296.0229999880539,,response,,,,100,,,,,,,Space,keypress(Space),,,,,,,,-- --- ---- --- ------ ----- ------- ---- -- --- ------- --<br>------- ---------- ------ -- ----- -- ----- -- ---- ------<br>--- ----- --- --- ------ -------- ----- --- ------ ----- --<br>----- ----- ---------- --- --- ------ ------ ---- -- ------<br>------- --- ------ ----- --- ---- ------- -- ---- way --<br>------- ------,316394.299999997,316393.6999999881,316080.887,316093.299999997,316097.677,316397.601,,52,way
screen,html.Screen,2_1_1_1_53,2022-05-09T13:36:58.572Z,,,,,,,,,,,,,,,,,54,,,,,,,,,,,,,,317.09899998805486,,response,,,,100,,,,,,,Space,keypress(Space),,,,,,,,-- --- ---- --- ------ ----- ------- ---- -- --- ------- --<br>------- ---------- ------ -- ----- -- ----- -- ---- ------<br>--- ----- --- --- ------ -------- ----- --- ------ ----- --<br>----- ----- ---------- --- --- ------ ------ ---- -- ------<br>------- --- ------ ----- --- ---- ------- -- ---- --- of<br>------- ------,316715.1999999881,316714.6999999881,316380.985,316394.39999999106,316397.601,316731.013,,53,of
screen,html.Screen,2_1_1_1_54,2022-05-09T13:36:58.833Z,,,,,,,,,,,,,,,,,54,,,,,,,,,,,,,,244.78699999704259,,response,,,,100,,,,,,,Space,keypress(Space),,,,,,,,-- --- ---- --- ------ ----- ------- ---- -- --- ------- --<br>------- ---------- ------ -- ----- -- ----- -- ---- ------<br>--- ----- --- --- ------ -------- ----- --- ------ ----- --<br>----- ----- ---------- --- --- ------ ------ ---- -- ------<br>------- --- ------ ----- --- ---- ------- -- ---- --- --<br>raising ------,316976.299999997,316975.799999997,316714.303,316715.299999997,316731.013,316980.984,,54,raising
screen,html.Screen,2_1_1_1_55,2022-05-09T13:36:59.192Z,,,,,,,,,,,,,,,,,54,,,,,,,,,,,,,,353.815999997023,,response,,,,100,,,,,,,Space,keypress(Space),,,,,,,,-- --- ---- --- ------ ----- ------- ---- -- --- ------- --<br>------- ---------- ------ -- ----- -- ----- -- ---- ------<br>--- ----- --- --- ------ -------- ----- --- ------ ----- --<br>----- ----- ---------- --- --- ------ ------ ---- -- ------<br>------- --- ------ ----- --- ---- ------- -- ---- --- --<br>------- money.,317335.299999997,317334.799999997,316964.341,316976.39999999106,316980.984,317347.655,,55,money.
Item 100,flow.Loop,2_1_1_1,2022-05-09T13:36:59.192Z,,,,,,,,,,,,,,,,,,,,,,,,,,,,,,,23419.996999997005,,completion,,,,,F,,,,,,,,,,,silence,,,,,317335.5,317334.799999997,293898.114,293898.799999997,293914.803,317347.655,,,
Question 1,html.Screen,2_1_1_2,2022-05-09T13:37:01.872Z,,,,,,,,,,,,,,,,,,,,,,,,,,,,true,TRUE,,2667.044999988051,,response,,,,100,F,,,,,,TRUE,click #choice-1,,,,silence,,,,,320015.59999999404,320014.6999999881,317330.972,317335.5,317347.655,320030.903,,,
Question 2,html.Screen,2_1_1_3,2022-05-09T13:37:03.639Z,,,,,,,,,,,,,,,,,,,,,,,,,,,,true,FALSE,,1750.6969999940484,,response,,,,100,F,,,,,,FALSE,click #choice-2,,,,silence,,,,,321782.39999999106,321781.59999999404,320014.273,320015.799999997,320030.903,321797.538,,,
Item 100,flow.Sequence,2_1_1,2022-05-09T13:37:03.639Z,,,,,,,,,,,,,,,,,,,,,,,,,,,,,,,37866.66499999404,,completion,,,,,,,,,,,,,,,,,,,,,321782.5,321781.59999999404,283898.277,283899.5,283914.935,321797.538,,,
End of Practice,html.Page,2_1_2,2022-05-09T13:37:06.355Z,,,,,,,,,,,,,,,,,,,,,,,,,,,,,,,2700.1619999880786,,form submission,,,,,,,,,,,,,,,,,,,,,324498.1999999881,324497.6999999881,321780.875,321782.59999999404,321797.538,324514.081,,,
Practice,flow.Sequence,2_1,2022-05-09T13:37:06.355Z,,,,,,,,,,,,,,,,,,,,,,,,,,,,,,,88148.42799998808,,completion,,,,,,,,,,,,,,,,,,,,,324498.299999997,324497.6999999881,236332.638,236337,236349.272,324514.081,,,
Trap_instruction,html.Page,2_2_0,2022-05-09T13:37:07.594Z,,,,,,,,,,,,,,,,,,,,,,,,,,,,,,,1223.518999994034,,form submission,,,,,,,,,,,,,,,,,,,,,325737.89999999106,325737.59999999404,324497.409,324498.39999999106,324514.081,325747.46,,,
trap_trial,html.Screen,2_2_1,2022-05-09T13:37:10.327Z,,,,,,,,,,,,,,,,,,,,,,,,,,,,true,1,,2722.1399999940186,,response,,,,,,,,,,,1,click #choice-1,,,,,,,,,328470.799999997,328469.59999999404,325730.799,325738,325747.46,328480.71,,,
end of trap trial,html.Page,2_2_2,2022-05-09T13:37:11.679Z,,,,,,,,,,,,,,,,,,,,,,,,,,,,,,,1341.1899999910383,,form submission,,,,,,,,,,,,,,,,,,,,,329822.1999999881,329821.89999999106,328464.068,328470.89999999106,328480.71,329830.699,,,
Trap 1,flow.Sequence,2_2,2022-05-09T13:37:11.679Z,,,,,,,,,,,,,,,,,,,,,,,,,,,,,,,5307.818999991054,,completion,,,,,,,,,,,,,,,,,,,,,329822.299999997,329821.89999999106,324497.409,324498.39999999106,324514.081,329830.699,,,
Standby,html.Page,2_3_0,2022-05-09T13:37:19.670Z,,,,,,,,,,,,,,,,,,,,,,,,,,,,,,,7999.835999999952,,timeout,,,,,,,,,,,,,,,,,,,,,337814.39999999106,337813.853,329814.105,329822.5,329830.699,337830.535,,,
Holding screen,html.Screen,2_3_1_0_0,2022-05-09T13:37:26.670Z,,,,,,,,,,,,,,,,,,,,,,,,,,,,,,,6999.8610000000335,,timeout,,,,,,,,,,,,,,,,,,,,,344814.299999997,344813.731,337813.853,337814.5,337830.535,344830.396,,,
screen,html.Screen,2_3_1_0_1_0,2022-05-09T13:37:27.582Z,,,,,,,,,,,,,,,,,12,,,,,,,,,,,,,,895.4039999970119,,response,,,,5,F,,,,,,Space,keypress(Space),,,,lyrical,,,,Some ------ ------ ------- ------ --- ------- -----------<br>-- ----- --- ---- -- --- ------ ---- - ---- -- ----------<br>-- ------ ---- --- ---- --- --- --- ----- -- -------- ---<br>------ ------- -------- --- ---- -- ------- ------------ --<br>------ -- ---- -- --- ---- -- -------- -- --- ------ ------,345726.59999999404,345725.799999997,344813.731,344814.39999999106,344830.396,345730.296,,0,Some
screen,html.Screen,2_3_1_0_1_1,2022-05-09T13:37:28.082Z,,,,,,,,,,,,,,,,,12,,,,,,,,,,,,,,495.1039999910863,,response,,,,5,F,,,,,,Space,keypress(Space),,,,lyrical,,,,---- months ------ ------- ------ --- ------- -----------<br>-- ----- --- ---- -- --- ------ ---- - ---- -- ----------<br>-- ------ ---- --- ---- --- --- --- ----- -- -------- ---<br>------ ------- -------- --- ---- -- ------- ------------ --<br>------ -- ---- -- --- ---- -- -------- -- --- ------ ------,346226.09999999404,346225.39999999106,345713.628,345726.6999999881,345730.296,346230.383,,1,months
screen,html.Screen,2_3_1_0_1_2,2022-05-09T13:37:28.590Z,,,,,,,,,,,,,,,,,12,,,,,,,,,,,,,,503.1170000000275,,response,,,,5,F,,,,,,Space,keypress(Space),,,,lyrical,,,,"---- ------ later, ------- ------ --- ------- -----------<br>-- ----- --- ---- -- --- ------ ---- - ---- -- ----------<br>-- ------ ---- --- ---- --- --- --- ----- -- -------- ---<br>------ ------- -------- --- ---- -- ------- ------------ --<br>------ -- ---- -- --- ---- -- -------- -- --- ------ ------",346734.09999999404,346733.5,346213.671,346226.1999999881,346230.383,346746.954,,2,"later,"
screen,html.Screen,2_3_1_0_1_3,2022-05-09T13:37:29.382Z,,,,,,,,,,,,,,,,,12,,,,,,,,,,,,,,778.545999999973,,response,,,,5,F,,,,,,Space,keypress(Space),,,,lyrical,,,,---- ------ ------ Michael ------ --- ------- -----------<br>-- ----- --- ---- -- --- ------ ---- - ---- -- ----------<br>-- ------ ---- --- ---- --- --- --- ----- -- -------- ---<br>------ ------- -------- --- ---- -- ------- ------------ --<br>------ -- ---- -- --- ---- -- -------- -- --- ------ ------,347526.09999999404,347525.5,346730.342,346734.09999999404,346746.954,347530.3,,3,Michael
screen,html.Screen,2_3_1_0_1_4,2022-05-09T13:37:30.430Z,,,,,,,,,,,,,,,,,12,,,,,,,,,,,,,,1043.2000000000116,,response,,,,5,F,,,,,,Space,keypress(Space),,,,lyrical,,,,---- ------ ------ ------- Larson --- ------- -----------<br>-- ----- --- ---- -- --- ------ ---- - ---- -- ----------<br>-- ------ ---- --- ---- --- --- --- ----- -- -------- ---<br>------ ------- -------- --- ---- -- ------- ------------ --<br>------ -- ---- -- --- ---- -- -------- -- --- ------ ------,348574.09999999404,348573.5,347513.611,347526.09999999404,347530.3,348580.3,,4,Larson
screen,html.Screen,2_3_1_0_1_5,2022-05-09T13:37:31.144Z,,,,,,,,,,,,,,,,,12,,,,,,,,,,,,,,707.2000000000116,,response,,,,5,F,,,,,,Space,keypress(Space),,,,lyrical,,,,---- ------ ------ ------- ------ saw ------- -----------<br>-- ----- --- ---- -- --- ------ ---- - ---- -- ----------<br>-- ------ ---- --- ---- --- --- --- ----- -- -------- ---<br>------ ------- -------- --- ---- -- ------- ------------ --<br>------ -- ---- -- --- ---- -- -------- -- --- ------ ------,349288.09999999404,349287.5,348563.62,348574.1999999881,348580.3,349296.942,,5,saw
screen,html.Screen,2_3_1_0_1_6,2022-05-09T13:37:31.666Z,,,,,,,,,,,,,,,,,12,,,,,,,,,,,,,,512.5580000000191,,response,,,,5,F,,,,,,Space,keypress(Space),,,,lyrical,,,,---- ------ ------ ------- ------ --- another -----------<br>-- ----- --- ---- -- --- ------ ---- - ---- -- ----------<br>-- ------ ---- --- ---- --- --- --- ----- -- -------- ---<br>------ ------- -------- --- ---- -- ------- ------------ --<br>------ -- ---- -- --- ---- -- -------- -- --- ------ ------,349810.09999999404,349809.5,349280.27,349288.1999999881,349296.942,349813.625,,6,another
screen,html.Screen,2_3_1_0_1_7,2022-05-09T13:37:32.427Z,,,,,,,,,,,,,,,,,12,,,,,,,,,,,,,,756.875,,response,,,,5,F,,,,,,Space,keypress(Space),,,,lyrical,,,,---- ------ ------ ------- ------ --- ------- opportunity<br>-- ----- --- ---- -- --- ------ ---- - ---- -- ----------<br>-- ------ ---- --- ---- --- --- --- ----- -- -------- ---<br>------ ------- -------- --- ---- -- ------- ------------ --<br>------ -- ---- -- --- ---- -- -------- -- --- ------ ------,350571.09999999404,350570.5,349796.923,349810.1999999881,349813.625,350580.222,,7,opportunity
screen,html.Screen,2_3_1_0_1_8,2022-05-09T13:37:33.130Z,,,,,,,,,,,,,,,,,12,,,,,,,,,,,,,,693.2779999999912,,response,,,,5,F,,,,,,Space,keypress(Space),,,,lyrical,,,,---- ------ ------ ------- ------ --- ------- -----------<br>to ----- --- ---- -- --- ------ ---- - ---- -- ----------<br>-- ------ ---- --- ---- --- --- --- ----- -- -------- ---<br>------ ------- -------- --- ---- -- ------- ------------ --<br>------ -- ---- -- --- ---- -- -------- -- --- ------ ------,351274,351273.5,350563.584,350571.09999999404,350580.222,351280.254,,8,to
screen,html.Screen,2_3_1_0_1_9,2022-05-09T13:37:33.712Z,,,,,,,,,,,,,,,,,12,,,,,,,,,,,,,,575.1459999910439,,response,,,,5,F,,,,,,Space,keypress(Space),,,,lyrical,,,,---- ------ ------ ------- ------ --- ------- -----------<br>-- stack --- ---- -- --- ------ ---- - ---- -- ----------<br>-- ------ ---- --- ---- --- --- --- ----- -- -------- ---<br>------ ------- -------- --- ---- -- ------- ------------ --<br>------ -- ---- -- --- ---- -- -------- -- --- ------ ------,351856,351855.39999999106,351263.581,351274.1999999881,351280.254,351863.577,,9,stack
screen,html.Screen,2_3_1_0_1_10,2022-05-09T13:37:34.197Z,,,,,,,,,,,,,,,,,12,,,,,,,,,,,,,,476.72299999702955,,response,,,,5,F,,,,,,Space,keypress(Space),,,,lyrical,,,,---- ------ ------ ------- ------ --- ------- -----------<br>-- ----- the ---- -- --- ------ ---- - ---- -- ----------<br>-- ------ ---- --- ---- --- --- --- ----- -- -------- ---<br>------ ------- -------- --- ---- -- ------- ------------ --<br>------ -- ---- -- --- ---- -- -------- -- --- ------ ------,352341,352340.299999997,351846.805,351856.09999999404,351863.577,352346.919,,10,the
screen,html.Screen,2_3_1_0_1_11,2022-05-09T13:37:34.612Z,,,,,,,,,,,,,,,,,12,,,,,,,,,,,,,,408.4809999910649,,response,,,,5,F,,,,,,Space,keypress(Space),,,,lyrical,,,,---- ------ ------ ------- ------ --- ------- -----------<br>-- ----- --- odds -- --- ------ ---- - ---- -- ----------<br>-- ------ ---- --- ---- --- --- --- ----- -- -------- ---<br>------ ------- -------- --- ---- -- ------- ------------ --<br>------ -- ---- -- --- ---- -- -------- -- --- ------ ------,352756,352755.39999999106,352330.252,352341,352346.919,352763.499,,11,odds
screen,html.Screen,2_3_1_0_1_12,2022-05-09T13:37:35.053Z,,,,,,,,,,,,,,,,,12,,,,,,,,,,,,,,432.9009999910486,,response,,,,5,F,,,,,,Space,keypress(Space),,,,lyrical,,,,---- ------ ------ ------- ------ --- ------- -----------<br>-- ----- --- ---- in --- ------ ---- - ---- -- ----------<br>-- ------ ---- --- ---- --- --- --- ----- -- -------- ---<br>------ ------- -------- --- ---- -- ------- ------------ --<br>------ -- ---- -- --- ---- -- -------- -- --- ------ ------,353197,353196.39999999106,352746.891,352756.09999999404,352763.499,353213.532,,12,in
screen,html.Screen,2_3_1_0_1_13,2022-05-09T13:37:35.454Z,,,,,,,,,,,,,,,,,12,,,,,,,,,,,,,,383.8679999910528,,response,,,,5,F,,,,,,Space,keypress(Space),,,,lyrical,,,,---- ------ ------ ------- ------ --- ------- -----------<br>-- ----- --- ---- -- his ------ ---- - ---- -- ----------<br>-- ------ ---- --- ---- --- --- --- ----- -- -------- ---<br>------ ------- -------- --- ---- -- ------- ------------ --<br>------ -- ---- -- --- ---- -- -------- -- --- ------ ------,353598,353597.39999999106,353198.831,353197.09999999404,353213.532,353613.524,,13,his
screen,html.Screen,2_3_1_0_1_14,2022-05-09T13:37:35.834Z,,,,,,,,,,,,,,,,,12,,,,,,,,,,,,,,363.9760000000242,,response,,,,5,F,,,,,,Space,keypress(Space),,,,lyrical,,,,---- ------ ------ ------- ------ --- ------- -----------<br>-- ----- --- ---- -- --- favour ---- - ---- -- ----------<br>-- ------ ---- --- ---- --- --- --- ----- -- -------- ---<br>------ ------- -------- --- ---- -- ------- ------------ --<br>------ -- ---- -- --- ---- -- -------- -- --- ------ ------,353978,353977.5,353596.877,353598.09999999404,353613.524,353980.195,,14,favour
screen,html.Screen,2_3_1_0_1_15,2022-05-09T13:37:36.595Z,,,,,,,,,,,,,,,,,12,,,,,,,,,,,,,,758.2049999910523,,response,,,,5,F,,,,,,Space,keypress(Space),,,,lyrical,,,,---- ------ ------ ------- ------ --- ------- -----------<br>-- ----- --- ---- -- --- ------ with - ---- -- ----------<br>-- ------ ---- --- ---- --- --- --- ----- -- -------- ---<br>------ ------- -------- --- ---- -- ------- ------------ --<br>------ -- ---- -- --- ---- -- -------- -- --- ------ ------,354739,354738.39999999106,353963.533,353978.09999999404,353980.195,354746.873,,15,with
screen,html.Screen,2_3_1_0_1_16,2022-05-09T13:37:36.975Z,,,,,,,,,,,,,,,,,12,,,,,,,,,,,,,,371.5269999910379,,response,,,,5,F,,,,,,Space,keypress(Space),,,,lyrical,,,,---- ------ ------ ------- ------ --- ------- -----------<br>-- ----- --- ---- -- --- ------ ---- a ---- -- ----------<br>-- ------ ---- --- ---- --- --- --- ----- -- -------- ---<br>------ ------- -------- --- ---- -- ------- ------------ --<br>------ -- ---- -- --- ---- -- -------- -- --- ------ ------,355119,355118.39999999106,354730.129,354739.09999999404,354746.873,355130.184,,16,a
screen,html.Screen,2_3_1_0_1_17,2022-05-09T13:37:37.516Z,,,,,,,,,,,,,,,,,12,,,,,,,,,,,,,,529.2159999910509,,response,,,,5,F,,,,,,Space,keypress(Space),,,,lyrical,,,,---- ------ ------ ------- ------ --- ------- -----------<br>-- ----- --- ---- -- --- ------ ---- - dash -- ----------<br>-- ------ ---- --- ---- --- --- --- ----- -- -------- ---<br>------ ------- -------- --- ---- -- ------- ------------ --<br>------ -- ---- -- --- ---- -- -------- -- --- ------ ------,355660,355659.39999999106,355113.523,355119.1999999881,355130.184,355663.442,,17,dash
screen,html.Screen,2_3_1_0_1_18,2022-05-09T13:37:37.925Z,,,,,,,,,,,,,,,,,12,,,,,,,,,,,,,,405.35799999703886,,response,,,,5,F,,,,,,Space,keypress(Space),,,,lyrical,,,,---- ------ ------ ------- ------ --- ------- -----------<br>-- ----- --- ---- -- --- ------ ---- - ---- of ----------<br>-- ------ ---- --- ---- --- --- --- ----- -- -------- ---<br>------ ------- -------- --- ---- -- ------- ------------ --<br>------ -- ---- -- --- ---- -- -------- -- --- ------ ------,356069.299999997,356068.799999997,355646.81,355660.09999999404,355663.442,356080.152,,18,of
screen,html.Screen,2_3_1_0_1_19,2022-05-09T13:37:39.199Z,,,,,,,,,,,,,,,,,12,,,,,,,,,,,,,,1262.2479999910574,,response,,,,5,F,,,,,,Space,keypress(Space),,,,lyrical,,,,---- ------ ------ ------- ------ --- ------- -----------<br>-- ----- --- ---- -- --- ------ ---- - ---- -- ingenuity.<br>-- ------ ---- --- ---- --- --- --- ----- -- -------- ---<br>------ ------- -------- --- ---- -- ------- ------------ --<br>------ -- ---- -- --- ---- -- -------- -- --- ------ ------,357343,357342.39999999106,356063.471,356069.39999999106,356080.152,357346.746,,19,ingenuity.
screen,html.Screen,2_3_1_0_1_20,2022-05-09T13:37:39.760Z,,,,,,,,,,,,,,,,,12,,,,,,,,,,,,,,556.6539999910747,,response,,,,5,F,,,,,,Space,keypress(Space),,,,lyrical,,,,---- ------ ------ ------- ------ --- ------- -----------<br>-- ----- --- ---- -- --- ------ ---- - ---- -- ----------<br>He ------ ---- --- ---- --- --- --- ----- -- -------- ---<br>------ ------- -------- --- ---- -- ------- ------------ --<br>------ -- ---- -- --- ---- -- -------- -- --- ------ ------,357904,357903.39999999106,357330.175,357343.09999999404,357346.746,357913.456,,20,He
screen,html.Screen,2_3_1_0_1_21,2022-05-09T13:37:40.400Z,,,,,,,,,,,,,,,,,12,,,,,,,,,,,,,,629.9439999910537,,response,,,,5,F,,,,,,Space,keypress(Space),,,,lyrical,,,,---- ------ ------ ------- ------ --- ------- -----------<br>-- ----- --- ---- -- --- ------ ---- - ---- -- ----------<br>-- walked ---- --- ---- --- --- --- ----- -- -------- ---<br>------ ------- -------- --- ---- -- ------- ------------ --<br>------ -- ---- -- --- ---- -- -------- -- --- ------ ------,358544.09999999404,358543.39999999106,357896.772,357904.09999999404,357913.456,358546.73,,21,walked
screen,html.Screen,2_3_1_0_1_22,2022-05-09T13:37:40.860Z,,,,,,,,,,,,,,,,,12,,,,,,,,,,,,,,456.7700000000186,,response,,,,5,F,,,,,,Space,keypress(Space),,,,lyrical,,,,---- ------ ------ ------- ------ --- ------- -----------<br>-- ----- --- ---- -- --- ------ ---- - ---- -- ----------<br>-- ------ into --- ---- --- --- --- ----- -- -------- ---<br>------ ------- -------- --- ---- -- ------- ------------ --<br>------ -- ---- -- --- ---- -- -------- -- --- ------ ------,359004,359003.5,358530.132,358544.09999999404,358546.73,359013.44,,22,into
screen,html.Screen,2_3_1_0_1_23,2022-05-09T13:37:41.347Z,,,,,,,,,,,,,,,,,12,,,,,,,,,,,,,,476.959999991057,,response,,,,5,F,,,,,,Space,keypress(Space),,,,lyrical,,,,---- ------ ------ ------- ------ --- ------- -----------<br>-- ----- --- ---- -- --- ------ ---- - ---- -- ----------<br>-- ------ ---- his ---- --- --- --- ----- -- -------- ---<br>------ ------- -------- --- ---- -- ------- ------------ --<br>------ -- ---- -- --- ---- -- -------- -- --- ------ ------,359491,359490.39999999106,358996.754,359004.09999999404,359013.44,359496.756,,23,his
screen,html.Screen,2_3_1_0_1_24,2022-05-09T13:37:42.361Z,,,,,,,,,,,,,,,,,12,,,,,,,,,,,,,,1007.5439999970258,,response,,,,5,F,,,,,,Space,keypress(Space),,,,lyrical,,,,---- ------ ------ ------- ------ --- ------- -----------<br>-- ----- --- ---- -- --- ------ ---- - ---- -- ----------<br>-- ------ ---- --- bank --- --- --- ----- -- -------- ---<br>------ ------- -------- --- ---- -- ------- ------------ --<br>------ -- ---- -- --- ---- -- -------- -- --- ------ ------,360505,360504.299999997,359480.069,359491.09999999404,359496.756,360513.404,,24,bank
screen,html.Screen,2_3_1_0_1_25,2022-05-09T13:37:43.183Z,,,,,,,,,,,,,,,,,12,,,,,,,,,,,,,,812.9959999910789,,response,,,,5,F,,,,,,Space,keypress(Space),,,,lyrical,,,,---- ------ ------ ------- ------ --- ------- -----------<br>-- ----- --- ---- -- --- ------ ---- - ---- -- ----------<br>-- ------ ---- --- ---- one --- --- ----- -- -------- ---<br>------ ------- -------- --- ---- -- ------- ------------ --<br>------ -- ---- -- --- ---- -- -------- -- --- ------ ------,361327,361326.39999999106,360496.701,360505.09999999404,360513.404,361330.032,,25,one
screen,html.Screen,2_3_1_0_1_26,2022-05-09T13:37:43.764Z,,,,,,,,,,,,,,,,,12,,,,,,,,,,,,,,577.2679999970132,,response,,,,5,F,,,,,,Space,keypress(Space),,,,lyrical,,,,---- ------ ------ ------- ------ --- ------- -----------<br>-- ----- --- ---- -- --- ------ ---- - ---- -- ----------<br>-- ------ ---- --- ---- --- day --- ----- -- -------- ---<br>------ ------- -------- --- ---- -- ------- ------------ --<br>------ -- ---- -- --- ---- -- -------- -- --- ------ ------,361908,361907.299999997,361313.354,361327.09999999404,361330.032,361913.358,,26,day
screen,html.Screen,2_3_1_0_1_27,2022-05-09T13:37:44.166Z,,,,,,,,,,,,,,,,,12,,,,,,,,,,,,,,395.9419999970123,,response,,,,5,F,,,,,,Space,keypress(Space),,,,lyrical,,,,---- ------ ------ ------- ------ --- ------- -----------<br>-- ----- --- ---- -- --- ------ ---- - ---- -- ----------<br>-- ------ ---- --- ---- --- --- and ----- -- -------- ---<br>------ ------- -------- --- ---- -- ------- ------------ --<br>------ -- ---- -- --- ---- -- -------- -- --- ------ ------,362310,362309.299999997,361896.656,361908,361913.358,362313.278,,27,and
screen,html.Screen,2_3_1_0_1_28,2022-05-09T13:37:44.686Z,,,,,,,,,,,,,,,,,12,,,,,,,,,,,,,,516.1219999910682,,response,,,,5,F,,,,,,Space,keypress(Space),,,,lyrical,,,,---- ------ ------ ------- ------ --- ------- -----------<br>-- ----- --- ---- -- --- ------ ---- - ---- -- ----------<br>-- ------ ---- --- ---- --- --- --- asked -- -------- ---<br>------ ------- -------- --- ---- -- ------- ------------ --<br>------ -- ---- -- --- ---- -- -------- -- --- ------ ------,362830,362829.39999999106,362296.701,362310.09999999404,362313.278,362846.69,,28,asked
screen,html.Screen,2_3_1_0_1_29,2022-05-09T13:37:45.126Z,,,,,,,,,,,,,,,,,12,,,,,,,,,,,,,,422.709999991057,,response,,,,5,F,,,,,,Space,keypress(Space),,,,lyrical,,,,---- ------ ------ ------- ------ --- ------- -----------<br>-- ----- --- ---- -- --- ------ ---- - ---- -- ----------<br>-- ------ ---- --- ---- --- --- --- ----- to -------- ---<br>------ ------- -------- --- ---- -- ------- ------------ --<br>------ -- ---- -- --- ---- -- -------- -- --- ------ ------,363269.89999999106,363269.39999999106,362829.997,362830.09999999404,362846.69,363279.984,,29,to
screen,html.Screen,2_3_1_0_1_30,2022-05-09T13:37:45.410Z,,,,,,,,,,,,,,,,,12,,,,,,,,,,,,,,273.315999997023,,response,,,,5,F,,,,,,Space,keypress(Space),,,,lyrical,,,,---- ------ ------ ------- ------ --- ------- -----------<br>-- ----- --- ---- -- --- ------ ---- - ---- -- ----------<br>-- ------ ---- --- ---- --- --- --- ----- -- withdraw ---<br>------ ------- -------- --- ---- -- ------- ------------ --<br>------ -- ---- -- --- ---- -- -------- -- --- ------ ------,363554,363553.299999997,363263.319,363270.09999999404,363279.984,363563.345,,30,withdraw
screen,html.Screen,2_3_1_0_1_31,2022-05-09T13:37:46.171Z,,,,,,,,,,,,,,,,,12,,,,,,,,,,,,,,750.9549999970477,,response,,,,5,F,,,,,,Space,keypress(Space),,,,lyrical,,,,---- ------ ------ ------- ------ --- ------- -----------<br>-- ----- --- ---- -- --- ------ ---- - ---- -- ----------<br>-- ------ ---- --- ---- --- --- --- ----- -- -------- his<br>------ ------- -------- --- ---- -- ------- ------------ --<br>------ -- ---- -- --- ---- -- -------- -- --- ------ ------,364315,364314.299999997,363546.632,363554.09999999404,363563.345,364329.934,,31,his
screen,html.Screen,2_3_1_0_1_32,2022-05-09T13:37:46.849Z,,,,,,,,,,,,,,,,,12,,,,,,,,,,,,,,662.3659999970114,,response,,,,5,F,,,,,,Space,keypress(Space),,,,lyrical,,,,---- ------ ------ ------- ------ --- ------- -----------<br>-- ----- --- ---- -- --- ------ ---- - ---- -- ----------<br>-- ------ ---- --- ---- --- --- --- ----- -- -------- ---<br>entire ------- -------- --- ---- -- ------- ------------ --<br>------ -- ---- -- --- ---- -- -------- -- --- ------ ------,364992.89999999106,364992.299999997,364313.289,364315.09999999404,364329.934,364996.595,,32,entire
screen,html.Screen,2_3_1_0_1_33,2022-05-09T13:37:47.209Z,,,,,,,,,,,,,,,,,12,,,,,,,,,,,,,,355.80499999108724,,response,,,,5,F,,,,,,Space,keypress(Space),,,,lyrical,,,,---- ------ ------ ------- ------ --- ------- -----------<br>-- ----- --- ---- -- --- ------ ---- - ---- -- ----------<br>-- ------ ---- --- ---- --- --- --- ----- -- -------- ---<br>------ account -------- --- ---- -- ------- ------------ --<br>------ -- ---- -- --- ---- -- -------- -- --- ------ ------,365352.89999999106,365352.39999999106,364979.909,364992.89999999106,364996.595,365363.305,,33,account
screen,html.Screen,2_3_1_0_1_34,2022-05-09T13:37:48.631Z,,,,,,,,,,,,,,,,,12,,,,,,,,,,,,,,1411.394999988086,,response,,,,5,F,,,,,,Space,keypress(Space),,,,lyrical,,,,"---- ------ ------ ------- ------ --- ------- -----------<br>-- ----- --- ---- -- --- ------ ---- - ---- -- ----------<br>-- ------ ---- --- ---- --- --- --- ----- -- -------- ---<br>------ ------- balance, --- ---- -- ------- ------------ --<br>------ -- ---- -- --- ---- -- -------- -- --- ------ ------",366775.299999997,366774.6999999881,365346.612,365353.09999999404,365363.305,366779.945,,34,"balance,"
screen,html.Screen,2_3_1_0_1_35,2022-05-09T13:37:49.153Z,,,,,,,,,,,,,,,,,12,,,,,,,,,,,,,,516.3549999970128,,response,,,,5,F,,,,,,Space,keypress(Space),,,,lyrical,,,,---- ------ ------ ------- ------ --- ------- -----------<br>-- ----- --- ---- -- --- ------ ---- - ---- -- ----------<br>-- ------ ---- --- ---- --- --- --- ----- -- -------- ---<br>------ ------- -------- but ---- -- ------- ------------ --<br>------ -- ---- -- --- ---- -- -------- -- --- ------ ------,367296.89999999106,367296.299999997,366763.244,366775.299999997,366779.945,367313.249,,35,but
screen,html.Screen,2_3_1_0_1_36,2022-05-09T13:37:49.615Z,,,,,,,,,,,,,,,,,12,,,,,,,,,,,,,,445.05099999700906,,response,,,,5,F,,,,,,Space,keypress(Space),,,,lyrical,,,,---- ------ ------ ------- ------ --- ------- -----------<br>-- ----- --- ---- -- --- ------ ---- - ---- -- ----------<br>-- ------ ---- --- ---- --- --- --- ----- -- -------- ---<br>------ ------- -------- --- with -- ------- ------------ --<br>------ -- ---- -- --- ---- -- -------- -- --- ------ ------,367758.89999999106,367758.299999997,367296.553,367297,367313.249,367763.246,,36,with
screen,html.Screen,2_3_1_0_1_37,2022-05-09T13:37:50.080Z,,,,,,,,,,,,,,,,,12,,,,,,,,,,,,,,460.15399999107467,,response,,,,5,F,,,,,,Space,keypress(Space),,,,lyrical,,,,---- ------ ------ ------- ------ --- ------- -----------<br>-- ----- --- ---- -- --- ------ ---- - ---- -- ----------<br>-- ------ ---- --- ---- --- --- --- ----- -- -------- ---<br>------ ------- -------- --- ---- an ------- ------------ --<br>------ -- ---- -- --- ---- -- -------- -- --- ------ ------,368224,368223.39999999106,367746.576,367759,367763.246,368229.837,,37,an
screen,html.Screen,2_3_1_0_1_38,2022-05-09T13:37:50.599Z,,,,,,,,,,,,,,,,,12,,,,,,,,,,,,,,512.5629999910598,,response,,,,5,F,,,,,,Space,keypress(Space),,,,lyrical,,,,---- ------ ------ ------- ------ --- ------- -----------<br>-- ----- --- ---- -- --- ------ ---- - ---- -- ----------<br>-- ------ ---- --- ---- --- --- --- ----- -- -------- ---<br>------ ------- -------- --- ---- -- unusual ------------ --<br>------ -- ---- -- --- ---- -- -------- -- --- ------ ------,368743,368742.39999999106,368213.246,368224.09999999404,368229.837,368746.543,,38,unusual
screen,html.Screen,2_3_1_0_1_39,2022-05-09T13:37:51.254Z,,,,,,,,,,,,,,,,,12,,,,,,,,,,,,,,650.7569999970146,,response,,,,5,F,,,,,,Space,keypress(Space),,,,lyrical,,,,---- ------ ------ ------- ------ --- ------- -----------<br>-- ----- --- ---- -- --- ------ ---- - ---- -- ----------<br>-- ------ ---- --- ---- --- --- --- ----- -- -------- ---<br>------ ------- -------- --- ---- -- ------- stipulation: --<br>------ -- ---- -- --- ---- -- -------- -- --- ------ ------,369398,369397.299999997,368729.875,368743.09999999404,368746.543,369413.222,,39,stipulation:
screen,html.Screen,2_3_1_0_1_40,2022-05-09T13:37:51.777Z,,,,,,,,,,,,,,,,,12,,,,,,,,,,,,,,507.8779999940307,,response,,,,5,F,,,,,,Space,keypress(Space),,,,lyrical,,,,---- ------ ------ ------- ------ --- ------- -----------<br>-- ----- --- ---- -- --- ------ ---- - ---- -- ----------<br>-- ------ ---- --- ---- --- --- --- ----- -- -------- ---<br>------ ------- -------- --- ---- -- ------- ------------ He<br>------ -- ---- -- --- ---- -- -------- -- --- ------ ------,369921.6999999881,369921.09999999404,369396.522,369398.09999999404,369413.222,369929.839,,40,He
screen,html.Screen,2_3_1_0_1_41,2022-05-09T13:37:52.122Z,,,,,,,,,,,,,,,,,12,,,,,,,,,,,,,,335.46099999704165,,response,,,,5,F,,,,,,Space,keypress(Space),,,,lyrical,,,,---- ------ ------ ------- ------ --- ------- -----------<br>-- ----- --- ---- -- --- ------ ---- - ---- -- ----------<br>-- ------ ---- --- ---- --- --- --- ----- -- -------- ---<br>------ ------- -------- --- ---- -- ------- ------------ --<br>wanted -- ---- -- --- ---- -- -------- -- --- ------ ------,370265.89999999106,370265.299999997,369913.182,369921.89999999106,369929.839,370279.84,,41,wanted
screen,html.Screen,2_3_1_0_1_42,2022-05-09T13:37:52.495Z,,,,,,,,,,,,,,,,,12,,,,,,,,,,,,,,358.5599999910337,,response,,,,5,F,,,,,,Space,keypress(Space),,,,lyrical,,,,---- ------ ------ ------- ------ --- ------- -----------<br>-- ----- --- ---- -- --- ------ ---- - ---- -- ----------<br>-- ------ ---- --- ---- --- --- --- ----- -- -------- ---<br>------ ------- -------- --- ---- -- ------- ------------ --<br>------ as ---- -- --- ---- -- -------- -- --- ------ ------,370638.89999999106,370638.39999999106,370263.179,370266,370279.84,370646.52,,42,as
