sender,sender_type,sender_id,timestamp,meta,,Blues,Classical,Country,Dance,Electronic,Folk,Gospel,Hip-Hop,Jazz,Latin,Musical/Film,New-age,Pop,Prolific_id,Provo_ID,R&B,Rap,Reggae,Religious,Rock,Soul,Swing,Traditional,age,artist_name,correct,correctResponse,distraction,duration,education,ended_on,familiarity,gender,headphone_check_performance,item,list,music_frequency,offensiveness,pleasantness,position_correct,preference,response,response_action,snippet_file,song_name,song_rating,sound,stimulus_1,stimulus_2,stimulus_3,text,time_commit,time_end,time_render,time_run,time_show,time_switch,url,word,word_ID
Prolific ID,html.Form,0,2022-04-25T17:14:21.222Z,"{""labjs_version"":""20.2.2"",""labjs_build"":{""flavor"":""production"",""commit"":""a25486e0c714a0ae2ce03ff94b7bb6896854dcfa""},""location"":""https://run.pavlovia.org/mvasilev/prolific3_music_b/"",""userAgent"":""Mozilla/5.0 (Windows NT 10.0; Win64; x64) AppleWebKit/537.36 (KHTML, like Gecko) Chrome/100.0.4896.127 Safari/537.36"",""platform"":""Win32"",""language"":""en-GB"",""locale"":""en-GB"",""timeZone"":""Europe/London"",""timezoneOffset"":-60,""screen_width"":1920,""screen_height"":1080,""scroll_width"":1920,""scroll_height"":959,""window_innerWidth"":1920,""window_innerHeight"":1007,""devicePixelRatio"":1}",,,,,,,,,,,,,,,5e13a93a8640209e59703481,,,,,,,,,,,,,,,10982.048999999999,,form submission,,,,,,,,,,,,,,,,,,,,,14991.600000023842,14991,3992.198,4005.300000011921,4008.951,15008.549,{},,
Introduction,html.Screen,1_0,2022-04-25T17:14:26.628Z,,,,,,,,,,,,,,,,,,,,,,,,,,,,,,,5388.25100001192,,response,,,,,,,,,,,continue,click button,,,,,,,,,20397.899999976158,20396.80000001192,14991.973,14992.100000023842,15008.549,20408.505,,,
Volume calibration,html.Screen,1_1,2022-04-25T17:15:17.849Z,,,,,,,,,,,,,,,,,,,,,,,,,,,,,,,51206.194999988074,,response,,,,,,,,,,,continue,click button,,,,,,,,,71619,71614.69999998808,20392.093,20398.19999998808,20408.505,71623.939,,,
Task instructions,html.Screen,1_2,2022-04-25T17:15:26.540Z,,,,,,,,,,,,,,,,,,,,,,,,,,,,,,,8684.661000023843,,response,,,,,,,,,,,continue,click button,,,,,,,,,80309.39999997616,80308.60000002384,71607.34,71619,71623.939,80323.775,,,
Sounds,html.Screen,1_3_0_0,2022-04-25T17:15:30.783Z,,,,,,,,,,,,,,,,,,,,,,,,,,,,,,,4241.617000000013,,timeout,,,,,,,,,1,,,,,,,,S,O,I,,84552.39999997616,84549.007,80307.141,80309.60000002384,80323.775,84565.392,,,
Judgement,html.Screen,1_3_0_1,2022-04-25T17:15:33.148Z,,,,,,,,,,,,,,,,,,,,,,,,,,,,true,1,,2350.7080000238348,,response,,,,,,,,,1,,1,click #choice-1,,,,,S,O,I,,86917.5,86916.10000002384,84549.007,84552.60000002384,84565.392,86932.774,,,
Trial,flow.Sequence,1_3_0,2022-04-25T17:15:33.148Z,,,,,,,,,,,,,,,,,,,,,,,,,,,,,,,6592.325000023848,,completion,,,,,,,,,1,,,,,,,,S,O,I,,86917.89999997616,86916.10000002384,80307.141,80309.60000002384,80323.775,86932.774,,,
Sounds,html.Screen,1_3_1_0,2022-04-25T17:15:37.405Z,,,,,,,,,,,,,,,,,,,,,,,,,,,,,,,4257.37999999999,,timeout,,,,,,,,,2,,,,,,,,O,S,I,,91175.30000001192,91174.178,86915.259,86918,86932.774,91190.154,,,
Judgement,html.Screen,1_3_1_1,2022-04-25T17:15:37.945Z,,,,,,,,,,,,,,,,,,,,,,,,,,,,true,2,,524.0459999880841,,response,,,,,,,,,2,,2,click #choice-2,,,,,O,S,I,,91715.30000001192,91714.19999998808,91174.178,91175.60000002384,91190.154,91744.549,,,
Trial,flow.Sequence,1_3_1,2022-04-25T17:15:37.946Z,,,,,,,,,,,,,,,,,,,,,,,,,,,,,,,4781.425999988074,,completion,,,,,,,,,2,,,,,,,,O,S,I,,91715.60000002384,91714.19999998808,86915.259,86918,86932.774,91744.549,,,
Sounds,html.Screen,1_3_2_0,2022-04-25T17:15:42.213Z,,,,,,,,,,,,,,,,,,,,,,,,,,,,,,,4253.857000000004,,timeout,,,,,,,,,1,,,,,,,,S,I,O,,95982.5,95981.733,91698.514,91715.80000001192,91744.549,95998.406,,,
Judgement,html.Screen,1_3_2_1,2022-04-25T17:15:42.651Z,,,,,,,,,,,,,,,,,,,,,,,,,,,,true,1,,421.39400001191825,,response,,,,,,,,,1,,1,click #choice-1,,,,,S,I,O,,96421,96419.80000001192,95981.733,95982.69999998808,95998.406,96431.822,,,
Trial,flow.Sequence,1_3_2,2022-04-25T17:15:42.651Z,,,,,,,,,,,,,,,,,,,,,,,,,,,,,,,4675.251000011922,,completion,,,,,,,,,1,,,,,,,,S,I,O,,96421.30000001192,96419.80000001192,91698.514,91715.69999998808,91744.549,96431.822,,,
Sounds,html.Screen,1_3_3_0,2022-04-25T17:15:46.897Z,,,,,,,,,,,,,,,,,,,,,,,,,,,,,,,4249.842000000004,,timeout,,,,,,,,,2,,,,,,,,I,S,O,,100666.80000001192,100665.032,96415.012,96421.39999997616,96431.822,100681.664,,,
Judgement,html.Screen,1_3_3_1,2022-04-25T17:15:47.364Z,,,,,,,,,,,,,,,,,,,,,,,,,,,,true,2,,451.1360000119166,,response,,,,,,,,,2,,2,click #choice-2,,,,,I,S,O,,101134.30000001192,101132.80000001192,100665.032,100667,100681.664,101140.14,,,
Trial,flow.Sequence,1_3_3,2022-04-25T17:15:47.365Z,,,,,,,,,,,,,,,,,,,,,,,,,,,,,,,4700.978000011921,,completion,,,,,,,,,2,,,,,,,,I,S,O,,101134.39999997616,101132.80000001192,96415.012,96421.39999997616,96431.822,101140.14,,,
Sounds,html.Screen,1_3_4_0,2022-04-25T17:15:51.613Z,,,,,,,,,,,,,,,,,,,,,,,,,,,,,,,4258.294999999998,,timeout,,,,,,,,,3,,,,,,,,I,O,S,,105382.89999997616,105382.093,101123.949,101134.60000002384,101140.14,105398.435,,,
Judgement,html.Screen,1_3_4_1,2022-04-25T17:15:52.055Z,,,,,,,,,,,,,,,,,,,,,,,,,,,,true,3,,425.1650000238442,,response,,,,,,,,,3,,3,click #choice-3,,,,,I,O,S,,105825,105823.60000002384,105382.093,105383.10000002384,105398.435,105840.328,,,
Trial,flow.Sequence,1_3_4,2022-04-25T17:15:52.055Z,,,,,,,,,,,,,,,,,,,,,,,,,,,,,,,4683.460000023842,,completion,,,,,,,,,3,,,,,,,,I,O,S,,105825.19999998808,105823.60000002384,101123.949,101134.60000002384,101140.14,105840.328,,,
Sounds,html.Screen,1_3_5_0,2022-04-25T17:15:56.313Z,,,,,,,,,,,,,,,,,,,,,,,,,,,,,,,4258.209000000003,,timeout,,,,,,,,,3,,,,,,,,O,I,S,,110082.69999998808,110081.914,105823.193,105825.30000001192,105840.328,110098.537,,,
Judgement,html.Screen,1_3_5_1,2022-04-25T17:15:56.718Z,,,,,,,,,,,,,,,,,,,,,,,,,,,,true,3,,387.9630000000034,,response,,,,,,,,,3,,3,click #choice-3,,,,,O,I,S,,110487.5,110486.5,110081.914,110082.80000001192,110098.537,110498.032,,,
Trial,flow.Sequence,1_3_5,2022-04-25T17:15:56.718Z,,,,,,,,,,,,,,,,,,,,,,,,,,,,,,,4646.172000000006,,completion,,,,,,,,,3,,,,,,,,O,I,S,,110487.69999998808,110486.5,105823.193,105825.19999998808,105840.328,110498.032,,,
Task,flow.Loop,1_3,2022-04-25T17:15:56.722Z,,,,,,,,,,,,,,,,,,,,,,,,,,,,,,,30162.725000000006,,completion,,,1,,,,,,,,,,,,,,,,,,110491.80000001192,110486.5,80307.141,80309.5,80323.775,110498.032,,,
Trap,html.Screen,1_4,2022-04-25T17:15:56.723Z,,,,,,,,,,,,,,,,,,,,,,,,,,,,,,,NaN,,skipped,,,,,,,,,,,,,,,,,,,,,110492.60000002384,110486.5,,110492.5,,110498.032,,,
Thanks,html.Screen,1_5,2022-04-25T17:16:00.570Z,,,,,,,,,,,,,,,,,,,,,,,,,,,,,,,3840.8679999761516,,response,,,,,,,,,,,continue,click button,,,,,,,,,114339.89999997616,114338.89999997616,110481.39,110492.69999998808,110498.032,126872.664,,,
Headphone screening,flow.Sequence,1,2022-04-25T17:16:00.570Z,,,,,,,,,,,,,,,,,,,,,,,,,,,,,,,99330.35099997616,,completion,,,,,,,,,,,,,,,,,,,,,114340.10000002384,114338.89999997616,14991.973,14992.100000023842,15008.549,126872.664,,,
Instructions,html.Page,2_0,2022-04-25T17:16:46.207Z,,,,,,,,,,,,,,,,,,,,,,,,,,,,,,,33104.235999976154,,form submission,,,,,,,,,,,,,,,,,,,,,159977.5,159976.89999997616,126856.026,126867.60000002384,126872.664,159980.307,,,
Holding screen,html.Screen,2_1_0_0,2022-04-25T17:16:56.186Z,,,,,,,,,,,,,,,,,,,,,,,,,,,,,,,9991.372999999992,,timeout,,,,,,,,,,,,,,,,,,,,,169956,169955.364,159964.216,159977.80000001192,159980.307,169971.68,,,
screen,html.Screen,2_1_0_1_0,2022-04-25T17:16:57.345Z,,,,,,,,,,,,,,,,,53,,,,,,,,,,,,,,1140.519999988086,,response,,,,99,,,,,,,Space,keypress(Space),,,,,,,,When -- ----- -- ------ - ------- --- ----------<br>------------- ------ ------ ---- ---- ------- ----- -- ----<br>-------- ------- -- ---------- --- - --- ----- ----- ----<br>---- --- --- ----- --- ---- ---- ------- ----- ---- -------<br>--- --- -- ----- -- --- ---- -- --- ---- -- ------ ------<br>--- ----- -- ----,171115.39999997616,171112.19999998808,169955.364,169956.19999998808,169971.68,171138.974,,0,When
screen,html.Screen,2_1_0_1_1,2022-04-25T17:16:58.123Z,,,,,,,,,,,,,,,,,53,,,,,,,,,,,,,,754.0260000000126,,response,,,,99,,,,,,,Space,keypress(Space),,,,,,,,---- it ----- -- ------ - ------- --- ----------<br>------------- ------ ------ ---- ---- ------- ----- -- ----<br>-------- ------- -- ---------- --- - --- ----- ----- ----<br>---- --- --- ----- --- ---- ---- ------- ----- ---- -------<br>--- --- -- ----- -- --- ---- -- --- ---- -- ------ ------<br>--- ----- -- ----,171893.69999998808,171893,171105.477,171115.60000002384,171138.974,171905.564,,1,it
screen,html.Screen,2_1_0_1_2,2022-04-25T17:16:58.866Z,,,,,,,,,,,,,,,,,53,,,,,,,,,,,,,,729.935999999987,,response,,,,99,,,,,,,Space,keypress(Space),,,,,,,,---- -- comes -- ------ - ------- --- ----------<br>------------- ------ ------ ---- ---- ------- ----- -- ----<br>-------- ------- -- ---------- --- - --- ----- ----- ----<br>---- --- --- ----- --- ---- ---- ------- ----- ---- -------<br>--- --- -- ----- -- --- ---- -- --- ---- -- ------ ------<br>--- ----- -- ----,172636.10000002384,172635.5,171888.994,171893.80000001192,171905.564,172647.29,,2,comes
screen,html.Screen,2_1_0_1_3,2022-04-25T17:17:00.076Z,,,,,,,,,,,,,,,,,53,,,,,,,,,,,,,,1198.0100000119128,,response,,,,99,,,,,,,Space,keypress(Space),,,,,,,,---- -- ----- to ------ - ------- --- ----------<br>------------- ------ ------ ---- ---- ------- ----- -- ----<br>-------- ------- -- ---------- --- - --- ----- ----- ----<br>---- --- --- ----- --- ---- ---- ------- ----- ---- -------<br>--- --- -- ----- -- --- ---- -- --- ---- -- ------ ------<br>--- ----- -- ----,173845.69999998808,173845.30000001192,172622.269,172636.30000001192,172647.29,173867.231,,3,to
screen,html.Screen,2_1_0_1_4,2022-04-25T17:17:00.920Z,,,,,,,,,,,,,,,,,53,,,,,,,,,,,,,,822.2690000000002,,response,,,,99,,,,,,,Space,keypress(Space),,,,,,,,---- -- ----- -- having - ------- --- ----------<br>------------- ------ ------ ---- ---- ------- ----- -- ----<br>-------- ------- -- ---------- --- - --- ----- ----- ----<br>---- --- --- ----- --- ---- ---- ------- ----- ---- -------<br>--- --- -- ----- -- --- ---- -- --- ---- -- ------ ------<br>--- ----- -- ----,174690.10000002384,174689.5,173830.516,173845.89999997616,173867.231,174697.192,,4,having
screen,html.Screen,2_1_0_1_5,2022-04-25T17:17:01.990Z,,,,,,,,,,,,,,,,,53,,,,,,,,,,,,,,1062.7079999761481,,response,,,,99,,,,,,,Space,keypress(Space),,,,,,,,---- -- ----- -- ------ a ------- --- ----------<br>------------- ------ ------ ---- ---- ------- ----- -- ----<br>-------- ------- -- ---------- --- - --- ----- ----- ----<br>---- --- --- ----- --- ---- ---- ------- ----- ---- -------<br>--- --- -- ----- -- --- ---- -- --- ---- -- ------ ------<br>--- ----- -- ----,175760.5,175759.89999997616,174679.998,174690.30000001192,174697.192,175780.447,,5,a
screen,html.Screen,2_1_0_1_6,2022-04-25T17:17:03.023Z,,,,,,,,,,,,,,,,,53,,,,,,,,,,,,,,1012.0530000000144,,response,,,,99,,,,,,,Space,keypress(Space),,,,,,,,---- -- ----- -- ------ - lasting --- ----------<br>------------- ------ ------ ---- ---- ------- ----- -- ----<br>-------- ------- -- ---------- --- - --- ----- ----- ----<br>---- --- --- ----- --- ---- ---- ------- ----- ---- -------<br>--- --- -- ----- -- --- ---- -- --- ---- -- ------ ------<br>--- ----- -- ----,176793.19999998808,176792.5,175747.24,175760.60000002384,175780.447,176796.489,,6,lasting
screen,html.Screen,2_1_0_1_7,2022-04-25T17:17:03.784Z,,,,,,,,,,,,,,,,,53,,,,,,,,,,,,,,756.6110000238405,,response,,,,99,,,,,,,Space,keypress(Space),,,,,,,,---- -- ----- -- ------ - ------- and ----------<br>------------- ------ ------ ---- ---- ------- ----- -- ----<br>-------- ------- -- ---------- --- - --- ----- ----- ----<br>---- --- --- ----- --- ---- ---- ------- ----- ---- -------<br>--- --- -- ----- -- --- ---- -- --- ---- -- ------ ------<br>--- ----- -- ----,177553.89999997616,177553.10000002384,176780.548,176793.30000001192,176796.489,177563.791,,7,and
screen,html.Screen,2_1_0_1_8,2022-04-25T17:17:04.495Z,,,,,,,,,,,,,,,,,53,,,,,,,,,,,,,,700.9089999880816,,response,,,,99,,,,,,,Space,keypress(Space),,,,,,,,---- -- ----- -- ------ - ------- --- fulfilling<br>------------- ------ ------ ---- ---- ------- ----- -- ----<br>-------- ------- -- ---------- --- - --- ----- ----- ----<br>---- --- --- ----- --- ---- ---- ------- ----- ---- -------<br>--- --- -- ----- -- --- ---- -- --- ---- -- ------ ------<br>--- ----- -- ----,178265.30000001192,178264.69999998808,177546.676,177554,177563.791,178280.43,,8,fulfilling
screen,html.Screen,2_1_0_1_9,2022-04-25T17:17:05.248Z,,,,,,,,,,,,,,,,,53,,,,,,,,,,,,,,737.269999988086,,response,,,,99,,,,,,,Space,keypress(Space),,,,,,,,"---- -- ----- -- ------ - ------- --- ----------<br>relationship, ------ ------ ---- ---- ------- ----- -- ----<br>-------- ------- -- ---------- --- - --- ----- ----- ----<br>---- --- --- ----- --- ---- ---- ------- ----- ---- -------<br>--- --- -- ----- -- --- ---- -- --- ---- -- ------ ------<br>--- ----- -- ----",179018.39999997616,179017.69999998808,178263.748,178265.5,178280.43,179038.798,,9,"relationship,"
screen,html.Screen,2_1_0_1_10,2022-04-25T17:17:06.019Z,,,,,,,,,,,,,,,,,53,,,,,,,,,,,,,,749.7019999999902,,response,,,,99,,,,,,,Space,keypress(Space),,,,,,,,---- -- ----- -- ------ - ------- --- ----------<br>------------- common ------ ---- ---- ------- ----- -- ----<br>-------- ------- -- ---------- --- - --- ----- ----- ----<br>---- --- --- ----- --- ---- ---- ------- ----- ---- -------<br>--- --- -- ----- -- --- ---- -- --- ---- -- ------ ------<br>--- ----- -- ----,179789.10000002384,179788.5,179013.809,179018.5,179038.798,179804.893,,10,common
screen,html.Screen,2_1_0_1_11,2022-04-25T17:17:06.757Z,,,,,,,,,,,,,,,,,53,,,,,,,,,,,,,,721.90700001191,,response,,,,99,,,,,,,Space,keypress(Space),,,,,,,,---- -- ----- -- ------ - ------- --- ----------<br>------------- ------ wisdom ---- ---- ------- ----- -- ----<br>-------- ------- -- ---------- --- - --- ----- ----- ----<br>---- --- --- ----- --- ---- ---- ------- ----- ---- -------<br>--- --- -- ----- -- --- ---- -- --- ---- -- ------ ------<br>--- ----- -- ----,180527.39999997616,180526.80000001192,179788.376,179789.19999998808,179804.893,180546.482,,11,wisdom
screen,html.Screen,2_1_0_1_12,2022-04-25T17:17:07.545Z,,,,,,,,,,,,,,,,,53,,,,,,,,,,,,,,767.8180000119319,,response,,,,99,,,,,,,Space,keypress(Space),,,,,,,,---- -- ----- -- ------ - ------- --- ----------<br>------------- ------ ------ says ---- ------- ----- -- ----<br>-------- ------- -- ---------- --- - --- ----- ----- ----<br>---- --- --- ----- --- ---- ---- ------- ----- ---- -------<br>--- --- -- ----- -- --- ---- -- --- ---- -- ------ ------<br>--- ----- -- ----,181314.89999997616,181314.30000001192,180522.099,180527.5,180546.482,181338.755,,12,says
screen,html.Screen,2_1_0_1_13,2022-04-25T17:17:08.280Z,,,,,,,,,,,,,,,,,53,,,,,,,,,,,,,,710.9449999880744,,response,,,,99,,,,,,,Space,keypress(Space),,,,,,,,---- -- ----- -- ------ - ------- --- ----------<br>------------- ------ ------ ---- that ------- ----- -- ----<br>-------- ------- -- ---------- --- - --- ----- ----- ----<br>---- --- --- ----- --- ---- ---- ------- ----- ---- -------<br>--- --- -- ----- -- --- ---- -- --- ---- -- ------ ------<br>--- ----- -- ----,182050.39999997616,182049.69999998808,181313.747,181315.10000002384,181338.755,182054.748,,13,that
screen,html.Screen,2_1_0_1_14,2022-04-25T17:17:08.981Z,,,,,,,,,,,,,,,,,53,,,,,,,,,,,,,,695.9519999880868,,response,,,,99,,,,,,,Space,keypress(Space),,,,,,,,---- -- ----- -- ------ - ------- --- ----------<br>------------- ------ ------ ---- ---- feeling ----- -- ----<br>-------- ------- -- ---------- --- - --- ----- ----- ----<br>---- --- --- ----- --- ---- ---- ------- ----- ---- -------<br>--- --- -- ----- -- --- ---- -- --- ---- -- ------ ------<br>--- ----- -- ----,182751.39999997616,182750.69999998808,182038.645,182050.5,182054.748,182772.056,,14,feeling
screen,html.Screen,2_1_0_1_15,2022-04-25T17:17:09.703Z,,,,,,,,,,,,,,,,,53,,,,,,,,,,,,,,699.9439999999886,,response,,,,99,,,,,,,Space,keypress(Space),,,,,,,,---- -- ----- -- ------ - ------- --- ----------<br>------------- ------ ------ ---- ---- ------- close -- ----<br>-------- ------- -- ---------- --- - --- ----- ----- ----<br>---- --- --- ----- --- ---- ---- ------- ----- ---- -------<br>--- --- -- ----- -- --- ---- -- --- ---- -- ------ ------<br>--- ----- -- ----,183472.80000001192,183472,182738.397,182751.60000002384,182772.056,183488.612,,15,close
screen,html.Screen,2_1_0_1_16,2022-04-25T17:17:10.380Z,,,,,,,,,,,,,,,,,53,,,,,,,,,,,,,,660.9880000238481,,response,,,,99,,,,,,,Space,keypress(Space),,,,,,,,---- -- ----- -- ------ - ------- --- ----------<br>------------- ------ ------ ---- ---- ------- ----- to ----<br>-------- ------- -- ---------- --- - --- ----- ----- ----<br>---- --- --- ----- --- ---- ---- ------- ----- ---- -------<br>--- --- -- ----- -- --- ---- -- --- ---- -- ------ ------<br>--- ----- -- ----,184150.19999998808,184149.60000002384,183471.986,183472.80000001192,183488.612,184163.677,,16,to
screen,html.Screen,2_1_0_1_17,2022-04-25T17:17:11.011Z,,,,,,,,,,,,,,,,,53,,,,,,,,,,,,,,617.1230000119249,,response,,,,99,,,,,,,Space,keypress(Space),,,,,,,,---- -- ----- -- ------ - ------- --- ----------<br>------------- ------ ------ ---- ---- ------- ----- -- your<br>-------- ------- -- ---------- --- - --- ----- ----- ----<br>---- --- --- ----- --- ---- ---- ------- ----- ---- -------<br>--- --- -- ----- -- --- ---- -- --- ---- -- ------ ------<br>--- ----- -- ----,184781.39999997616,184780.80000001192,184138.681,184150.30000001192,184163.677,184804.776,,17,your
screen,html.Screen,2_1_0_1_18,2022-04-25T17:17:11.702Z,,,,,,,,,,,,,,,,,53,,,,,,,,,,,,,,667.1239999761456,,response,,,,99,,,,,,,Space,keypress(Space),,,,,,,,---- -- ----- -- ------ - ------- --- ----------<br>------------- ------ ------ ---- ---- ------- ----- -- ----<br>romantic ------- -- ---------- --- - --- ----- ----- ----<br>---- --- --- ----- --- ---- ---- ------- ----- ---- -------<br>--- --- -- ----- -- --- ---- -- --- ---- -- ------ ------<br>--- ----- -- ----,185472.5,185471.89999997616,184779.719,184781.5,184804.776,185496.748,,18,romantic
screen,html.Screen,2_1_0_1_19,2022-04-25T17:17:12.333Z,,,,,,,,,,,,,,,,,53,,,,,,,,,,,,,,605.8520000238495,,response,,,,99,,,,,,,Space,keypress(Space),,,,,,,,---- -- ----- -- ------ - ------- --- ----------<br>------------- ------ ------ ---- ---- ------- ----- -- ----<br>-------- partner -- ---------- --- - --- ----- ----- ----<br>---- --- --- ----- --- ---- ---- ------- ----- ---- -------<br>--- --- -- ----- -- --- ---- -- --- ---- -- ------ ------<br>--- ----- -- ----,186103.19999998808,186102.60000002384,185471.977,185472.69999998808,185496.748,186113.643,,19,partner
screen,html.Screen,2_1_0_1_20,2022-04-25T17:17:13.010Z,,,,,,,,,,,,,,,,,53,,,,,,,,,,,,,,666.0569999880681,,response,,,,99,,,,,,,Space,keypress(Space),,,,,,,,---- -- ----- -- ------ - ------- --- ----------<br>------------- ------ ------ ---- ---- ------- ----- -- ----<br>-------- ------- is ---------- --- - --- ----- ----- ----<br>---- --- --- ----- --- ---- ---- ------- ----- ---- -------<br>--- --- -- ----- -- --- ---- -- --- ---- -- ------ ------<br>--- ----- -- ----,186780.39999997616,186779.69999998808,186096.729,186103.39999997616,186113.643,186805.177,,20,is
screen,html.Screen,2_1_0_1_21,2022-04-25T17:17:13.743Z,,,,,,,,,,,,,,,,,53,,,,,,,,,,,,,,707.823000000004,,response,,,,99,,,,,,,Space,keypress(Space),,,,,,,,---- -- ----- -- ------ - ------- --- ----------<br>------------- ------ ------ ---- ---- ------- ----- -- ----<br>-------- ------- -- paramount. --- - --- ----- ----- ----<br>---- --- --- ----- --- ---- ---- ------- ----- ---- -------<br>--- --- -- ----- -- --- ---- -- --- ---- -- ------ ------<br>--- ----- -- ----,187513.5,187513,186780.318,186780.5,186805.177,187521.26,,21,paramount.
screen,html.Screen,2_1_0_1_22,2022-04-25T17:17:14.413Z,,,,,,,,,,,,,,,,,53,,,,,,,,,,,,,,661.4399999880698,,response,,,,99,,,,,,,Space,keypress(Space),,,,,,,,---- -- ----- -- ------ - ------- --- ----------<br>------------- ------ ------ ---- ---- ------- ----- -- ----<br>-------- ------- -- ---------- But - --- ----- ----- ----<br>---- --- --- ----- --- ---- ---- ------- ----- ---- -------<br>--- --- -- ----- -- --- ---- -- --- ---- -- ------ ------<br>--- ----- -- ----,188183.30000001192,188182.69999998808,187505.274,187513.69999998808,187521.26,188187.951,,22,But
screen,html.Screen,2_1_0_1_23,2022-04-25T17:17:15.086Z,,,,,,,,,,,,,,,,,53,,,,,,,,,,,,,,667.34900001192,,response,,,,99,,,,,,,Space,keypress(Space),,,,,,,,---- -- ----- -- ------ - ------- --- ----------<br>------------- ------ ------ ---- ---- ------- ----- -- ----<br>-------- ------- -- ---------- --- a --- ----- ----- ----<br>---- --- --- ----- --- ---- ---- ------- ----- ---- -------<br>--- --- -- ----- -- --- ---- -- --- ---- -- ------ ------<br>--- ----- -- ----,188855.89999997616,188855.30000001192,188171.656,188183.39999997616,188187.951,188880.189,,23,a
screen,html.Screen,2_1_0_1_24,2022-04-25T17:17:15.737Z,,,,,,,,,,,,,,,,,53,,,,,,,,,,,,,,625.9110000238288,,response,,,,99,,,,,,,Space,keypress(Space),,,,,,,,---- -- ----- -- ------ - ------- --- ----------<br>------------- ------ ------ ---- ---- ------- ----- -- ----<br>-------- ------- -- ---------- --- - new ----- ----- ----<br>---- --- --- ----- --- ---- ---- ------- ----- ---- -------<br>--- --- -- ----- -- --- ---- -- --- ---- -- ------ ------<br>--- ----- -- ----,189506.89999997616,189506.10000002384,188854.717,188856,188880.189,189521.852,,24,new
screen,html.Screen,2_1_0_1_25,2022-04-25T17:17:16.323Z,,,,,,,,,,,,,,,,,53,,,,,,,,,,,,,,570.4480000119074,,response,,,,99,,,,,,,Space,keypress(Space),,,,,,,,---- -- ----- -- ------ - ------- --- ----------<br>------------- ------ ------ ---- ---- ------- ----- -- ----<br>-------- ------- -- ---------- --- - --- study ----- ----<br>---- --- --- ----- --- ---- ---- ------- ----- ---- -------<br>--- --- -- ----- -- --- ---- -- --- ---- -- ------ ------<br>--- ----- -- ----,190092.89999997616,190092.30000001192,189496.799,189506.89999997616,189521.852,190096.218,,25,study
screen,html.Screen,2_1_0_1_26,2022-04-25T17:17:17.018Z,,,,,,,,,,,,,,,,,53,,,,,,,,,,,,,,691.3820000238484,,response,,,,99,,,,,,,Space,keypress(Space),,,,,,,,---- -- ----- -- ------ - ------- --- ----------<br>------------- ------ ------ ---- ---- ------- ----- -- ----<br>-------- ------- -- ---------- --- - --- ----- finds ----<br>---- --- --- ----- --- ---- ---- ------- ----- ---- -------<br>--- --- -- ----- -- --- ---- -- --- ---- -- ------ ------<br>--- ----- -- ----,190788.39999997616,190787.60000002384,190088.537,190093.10000002384,190096.218,190813.113,,26,finds
screen,html.Screen,2_1_0_1_27,2022-04-25T17:17:17.731Z,,,,,,,,,,,,,,,,,53,,,,,,,,,,,,,,687.1870000119088,,response,,,,99,,,,,,,Space,keypress(Space),,,,,,,,---- -- ----- -- ------ - ------- --- ----------<br>------------- ------ ------ ---- ---- ------- ----- -- ----<br>-------- ------- -- ---------- --- - --- ----- ----- that<br>---- --- --- ----- --- ---- ---- ------- ----- ---- -------<br>--- --- -- ----- -- --- ---- -- --- ---- -- ------ ------<br>--- ----- -- ----,191500.89999997616,191500.30000001192,190779.823,190788.5,190813.113,191504.505,,27,that
screen,html.Screen,2_1_0_1_28,2022-04-25T17:17:18.362Z,,,,,,,,,,,,,,,,,53,,,,,,,,,,,,,,626.9949999999953,,response,,,,99,,,,,,,Space,keypress(Space),,,,,,,,---- -- ----- -- ------ - ------- --- ----------<br>------------- ------ ------ ---- ---- ------- ----- -- ----<br>-------- ------- -- ---------- --- - --- ----- ----- ----<br>it's --- --- ----- --- ---- ---- ------- ----- ---- -------<br>--- --- -- ----- -- --- ---- -- --- ---- -- ------ ------<br>--- ----- -- ----,192132.10000002384,192131.5,191496.876,191501.10000002384,191504.505,192146.832,,28,it's
screen,html.Screen,2_1_0_1_29,2022-04-25T17:17:19.216Z,,,,,,,,,,,,,,,,,53,,,,,,,,,,,,,,838.6680000000051,,response,,,,99,,,,,,,Space,keypress(Space),,,,,,,,---- -- ----- -- ------ - ------- --- ----------<br>------------- ------ ------ ---- ---- ------- ----- -- ----<br>-------- ------- -- ---------- --- - --- ----- ----- ----<br>---- not --- ----- --- ---- ---- ------- ----- ---- -------<br>--- --- -- ----- -- --- ---- -- --- ---- -- ------ ------<br>--- ----- -- ----,192986.10000002384,192985.5,192121.564,192132.19999998808,192146.832,192987.788,,29,not
screen,html.Screen,2_1_0_1_30,2022-04-25T17:17:19.786Z,,,,,,,,,,,,,,,,,53,,,,,,,,,,,,,,568.1119999761577,,response,,,,99,,,,,,,Space,keypress(Space),,,,,,,,---- -- ----- -- ------ - ------- --- ----------<br>------------- ------ ------ ---- ---- ------- ----- -- ----<br>-------- ------- -- ---------- --- - --- ----- ----- ----<br>---- --- how ----- --- ---- ---- ------- ----- ---- -------<br>--- --- -- ----- -- --- ---- -- --- ---- -- ------ ------<br>--- ----- -- ----,193556.5,193555.89999997616,192980.14,192986.19999998808,192987.788,193580.072,,30,how
screen,html.Screen,2_1_0_1_31,2022-04-25T17:17:20.370Z,,,,,,,,,,,,,,,,,53,,,,,,,,,,,,,,559.6279999880935,,response,,,,99,,,,,,,Space,keypress(Space),,,,,,,,---- -- ----- -- ------ - ------- --- ----------<br>------------- ------ ------ ---- ---- ------- ----- -- ----<br>-------- ------- -- ---------- --- - --- ----- ----- ----<br>---- --- --- close --- ---- ---- ------- ----- ---- -------<br>--- --- -- ----- -- --- ---- -- --- ---- -- ------ ------<br>--- ----- -- ----,194140.30000001192,194139.69999998808,193554.839,193556.60000002384,193580.072,194146.176,,31,close
screen,html.Screen,2_1_0_1_32,2022-04-25T17:17:21.001Z,,,,,,,,,,,,,,,,,53,,,,,,,,,,,,,,624.6240000119142,,response,,,,99,,,,,,,Space,keypress(Space),,,,,,,,---- -- ----- -- ------ - ------- --- ----------<br>------------- ------ ------ ---- ---- ------- ----- -- ----<br>-------- ------- -- ---------- --- - --- ----- ----- ----<br>---- --- --- ----- you ---- ---- ------- ----- ---- -------<br>--- --- -- ----- -- --- ---- -- --- ---- -- ------ ------<br>--- ----- -- ----,194771.39999997616,194770.80000001192,194129.834,194140.39999997616,194146.176,194788.444,,32,you
screen,html.Screen,2_1_0_1_33,2022-04-25T17:17:21.628Z,,,,,,,,,,,,,,,,,53,,,,,,,,,,,,,,608.7559999880905,,response,,,,99,,,,,,,Space,keypress(Space),,,,,,,,---- -- ----- -- ------ - ------- --- ----------<br>------------- ------ ------ ---- ---- ------- ----- -- ----<br>-------- ------- -- ---------- --- - --- ----- ----- ----<br>---- --- --- ----- --- feel ---- ------- ----- ---- -------<br>--- --- -- ----- -- --- ---- -- --- ---- -- ------ ------<br>--- ----- -- ----,195397.89999997616,195397.19999998808,194763.436,194771.5,194788.444,195404.445,,33,feel
screen,html.Screen,2_1_0_1_34,2022-04-25T17:17:22.274Z,,,,,,,,,,,,,,,,,53,,,,,,,,,,,,,,638.6550000238349,,response,,,,99,,,,,,,Space,keypress(Space),,,,,,,,---- -- ----- -- ------ - ------- --- ----------<br>------------- ------ ------ ---- ---- ------- ----- -- ----<br>-------- ------- -- ---------- --- - --- ----- ----- ----<br>---- --- --- ----- --- ---- that ------- ----- ---- -------<br>--- --- -- ----- -- --- ---- -- --- ---- -- ------ ------<br>--- ----- -- ----,196043.89999997616,196043.10000002384,195388.431,195398,195404.445,196046.066,,34,that
screen,html.Screen,2_1_0_1_35,2022-04-25T17:17:23.216Z,,,,,,,,,,,,,,,,,53,,,,,,,,,,,,,,939.4340000000084,,response,,,,99,,,,,,,Space,keypress(Space),,,,,,,,---- -- ----- -- ------ - ------- --- ----------<br>------------- ------ ------ ---- ---- ------- ----- -- ----<br>-------- ------- -- ---------- --- - --- ----- ----- ----<br>---- --- --- ----- --- ---- ---- matters ----- ---- -------<br>--- --- -- ----- -- --- ---- -- --- ---- -- ------ ------<br>--- ----- -- ----,196986,196985.5,196038.392,196044.10000002384,196046.066,197015.892,,35,matters
screen,html.Screen,2_1_0_1_36,2022-04-25T17:17:23.960Z,,,,,,,,,,,,,,,,,53,,,,,,,,,,,,,,713.6080000000075,,response,,,,99,,,,,,,Space,keypress(Space),,,,,,,,"---- -- ----- -- ------ - ------- --- ----------<br>------------- ------ ------ ---- ---- ------- ----- -- ----<br>-------- ------- -- ---------- --- - --- ----- ----- ----<br>---- --- --- ----- --- ---- ---- ------- most, ---- -------<br>--- --- -- ----- -- --- ---- -- --- ---- -- ------ ------<br>--- ----- -- ----",197730.10000002384,197729.5,196979.769,196986.19999998808,197015.892,197746.704,,36,"most,"
screen,html.Screen,2_1_0_1_37,2022-04-25T17:17:24.696Z,,,,,,,,,,,,,,,,,53,,,,,,,,,,,,,,718.596000011923,,response,,,,99,,,,,,,Space,keypress(Space),,,,,,,,---- -- ----- -- ------ - ------- --- ----------<br>------------- ------ ------ ---- ---- ------- ----- -- ----<br>-------- ------- -- ---------- --- - --- ----- ----- ----<br>---- --- --- ----- --- ---- ---- ------- ----- it's -------<br>--- --- -- ----- -- --- ---- -- --- ---- -- ------ ------<br>--- ----- -- ----,198465.89999997616,198465.30000001192,197721.657,197730.19999998808,197746.704,198488.366,,37,it's
screen,html.Screen,2_1_0_1_38,2022-04-25T17:17:25.274Z,,,,,,,,,,,,,,,,,53,,,,,,,,,,,,,,554.9340000119118,,response,,,,99,,,,,,,Space,keypress(Space),,,,,,,,---- -- ----- -- ------ - ------- --- ----------<br>------------- ------ ------ ---- ---- ------- ----- -- ----<br>-------- ------- -- ---------- --- - --- ----- ----- ----<br>---- --- --- ----- --- ---- ---- ------- ----- ---- whether<br>--- --- -- ----- -- --- ---- -- --- ---- -- ------ ------<br>--- ----- -- ----,199044,199043.30000001192,198463.365,198466,198488.366,199054.936,,38,whether
screen,html.Screen,2_1_0_1_39,2022-04-25T17:17:25.895Z,,,,,,,,,,,,,,,,,53,,,,,,,,,,,,,,609.2639999880921,,response,,,,99,,,,,,,Space,keypress(Space),,,,,,,,---- -- ----- -- ------ - ------- --- ----------<br>------------- ------ ------ ---- ---- ------- ----- -- ----<br>-------- ------- -- ---------- --- - --- ----- ----- ----<br>---- --- --- ----- --- ---- ---- ------- ----- ---- -------<br>you --- -- ----- -- --- ---- -- --- ---- -- ------ ------<br>--- ----- -- ----,199665,199664.19999998808,199038.324,199044.10000002384,199054.936,199671.068,,39,you
screen,html.Screen,2_1_0_1_40,2022-04-25T17:17:26.479Z,,,,,,,,,,,,,,,,,53,,,,,,,,,,,,,,577.0320000238426,,response,,,,99,,,,,,,Space,keypress(Space),,,,,,,,---- -- ----- -- ------ - ------- --- ----------<br>------------- ------ ------ ---- ---- ------- ----- -- ----<br>-------- ------- -- ---------- --- - --- ----- ----- ----<br>---- --- --- ----- --- ---- ---- ------- ----- ---- -------<br>--- are -- ----- -- --- ---- -- --- ---- -- ------ ------<br>--- ----- -- ----,200248.69999998808,200248.10000002384,199654.976,199665.10000002384,199671.068,200262.674,,40,are
screen,html.Screen,2_1_0_1_41,2022-04-25T17:17:27.092Z,,,,,,,,,,,,,,,,,53,,,,,,,,,,,,,,599.1260000119219,,response,,,,99,,,,,,,Space,keypress(Space),,,,,,,,---- -- ----- -- ------ - ------- --- ----------<br>------------- ------ ------ ---- ---- ------- ----- -- ----<br>-------- ------- -- ---------- --- - --- ----- ----- ----<br>---- --- --- ----- --- ---- ---- ------- ----- ---- -------<br>--- --- as ----- -- --- ---- -- --- ---- -- ------ ------<br>--- ----- -- ----,200862.39999997616,200861.80000001192,200238.009,200248.89999997616,200262.674,200879.732,,41,as
screen,html.Screen,2_1_0_1_42,2022-04-25T17:17:27.635Z,,,,,,,,,,,,,,,,,53,,,,,,,,,,,,,,524.46799998809,,response,,,,99,,,,,,,Space,keypress(Space),,,,,,,,---- -- ----- -- ------ - ------- --- ----------<br>------------- ------ ------ ---- ---- ------- ----- -- ----<br>-------- ------- -- ---------- --- - --- ----- ----- ----<br>---- --- --- ----- --- ---- ---- ------- ----- ---- -------<br>--- --- -- close -- --- ---- -- --- ---- -- ------ ------<br>--- ----- -- ----,201404.80000001192,201404.19999998808,200862.651,200862.60000002384,200879.732,201421.413,,42,close
screen,html.Screen,2_1_0_1_43,2022-04-25T17:17:28.169Z,,,,,,,,,,,,,,,,,53,,,,,,,,,,,,,,516.7869999880786,,response,,,,99,,,,,,,Space,keypress(Space),,,,,,,,---- -- ----- -- ------ - ------- --- ----------<br>------------- ------ ------ ---- ---- ------- ----- -- ----<br>-------- ------- -- ---------- --- - --- ----- ----- ----<br>---- --- --- ----- --- ---- ---- ------- ----- ---- -------<br>--- --- -- ----- as --- ---- -- --- ---- -- ------ ------<br>--- ----- -- ----,201938.80000001192,201938.19999998808,201396.524,201404.89999997616,201421.413,201946.193,,43,as
screen,html.Screen,2_1_0_1_44,2022-04-25T17:17:28.650Z,,,,,,,,,,,,,,,,,53,,,,,,,,,,,,,,473.00699998807977,,response,,,,99,,,,,,,Space,keypress(Space),,,,,,,,---- -- ----- -- ------ - ------- --- ----------<br>------------- ------ ------ ---- ---- ------- ----- -- ----<br>-------- ------- -- ---------- --- - --- ----- ----- ----<br>---- --- --- ----- --- ---- ---- ------- ----- ---- -------<br>--- --- -- ----- -- you ---- -- --- ---- -- ------ ------<br>--- ----- -- ----,202420,202419.19999998808,201938.25,201938.89999997616,201946.193,202438.254,,44,you
screen,html.Screen,2_1_0_1_45,2022-04-25T17:17:29.200Z,,,,,,,,,,,,,,,,,53,,,,,,,,,,,,,,531.5460000119347,,response,,,,99,,,,,,,Space,keypress(Space),,,,,,,,---- -- ----- -- ------ - ------- --- ----------<br>------------- ------ ------ ---- ---- ------- ----- -- ----<br>-------- ------- -- ---------- --- - --- ----- ----- ----<br>---- --- --- ----- --- ---- ---- ------- ----- ---- -------<br>--- --- -- ----- -- --- want -- --- ---- -- ------ ------<br>--- ----- -- ----,202970.39999997616,202969.80000001192,202412.738,202420.10000002384,202438.254,202979.321,,45,want
screen,html.Screen,2_1_0_1_46,2022-04-25T17:17:29.718Z,,,,,,,,,,,,,,,,,53,,,,,,,,,,,,,,508.1790000000037,,response,,,,99,,,,,,,Space,keypress(Space),,,,,,,,---- -- ----- -- ------ - ------- --- ----------<br>------------- ------ ------ ---- ---- ------- ----- -- ----<br>-------- ------- -- ---------- --- - --- ----- ----- ----<br>---- --- --- ----- --- ---- ---- ------- ----- ---- -------<br>--- --- -- ----- -- --- ---- to --- ---- -- ------ ------<br>--- ----- -- ----,203488.10000002384,203487.5,202954.925,202970.5,202979.321,203496.511,,46,to
screen,html.Screen,2_1_0_1_47,2022-04-25T17:17:30.273Z,,,,,,,,,,,,,,,,,53,,,,,,,,,,,,,,546.1889999880805,,response,,,,99,,,,,,,Space,keypress(Space),,,,,,,,"---- -- ----- -- ------ - ------- --- ----------<br>------------- ------ ------ ---- ---- ------- ----- -- ----<br>-------- ------- -- ---------- --- - --- ----- ----- ----<br>---- --- --- ----- --- ---- ---- ------- ----- ---- -------<br>--- --- -- ----- -- --- ---- -- be, ---- -- ------ ------<br>--- ----- -- ----",204043.39999997616,204042.69999998808,203479.568,203488.30000001192,203496.511,204063.229,,47,"be,"
screen,html.Screen,2_1_0_1_48,2022-04-25T17:17:30.827Z,,,,,,,,,,,,,,,,,53,,,,,,,,,,,,,,533.6709999761661,,response,,,,99,,,,,,,Space,keypress(Space),,,,,,,,---- -- ----- -- ------ - ------- --- ----------<br>------------- ------ ------ ---- ---- ------- ----- -- ----<br>-------- ------- -- ---------- --- - --- ----- ----- ----<br>---- --- --- ----- --- ---- ---- ------- ----- ---- -------<br>--- --- -- ----- -- --- ---- -- --- even -- ------ ------<br>--- ----- -- ----,204597.5,204596.89999997616,204029.511,204043.5,204063.229,204604.878,,48,even
screen,html.Screen,2_1_0_1_49,2022-04-25T17:17:31.385Z,,,,,,,,,,,,,,,,,53,,,,,,,,,,,,,,549.422000011924,,response,,,,99,,,,,,,Space,keypress(Space),,,,,,,,---- -- ----- -- ------ - ------- --- ----------<br>------------- ------ ------ ---- ---- ------- ----- -- ----<br>-------- ------- -- ---------- --- - --- ----- ----- ----<br>---- --- --- ----- --- ---- ---- ------- ----- ---- -------<br>--- --- -- ----- -- --- ---- -- --- ---- if ------ ------<br>--- ----- -- ----,205154.89999997616,205154.30000001192,204596.522,204597.60000002384,204604.878,205171.462,,49,if
screen,html.Screen,2_1_0_1_50,2022-04-25T17:17:31.948Z,,,,,,,,,,,,,,,,,53,,,,,,,,,,,,,,546.1380000238423,,response,,,,99,,,,,,,Space,keypress(Space),,,,,,,,---- -- ----- -- ------ - ------- --- ----------<br>------------- ------ ------ ---- ---- ------- ----- -- ----<br>-------- ------- -- ---------- --- - --- ----- ----- ----<br>---- --- --- ----- --- ---- ---- ------- ----- ---- -------<br>--- --- -- ----- -- --- ---- -- --- ---- -- that's ------<br>--- ----- -- ----,205718.19999998808,205717.60000002384,205154.844,205155.10000002384,205171.462,205738.138,,50,that's
screen,html.Screen,2_1_0_1_51,2022-04-25T17:17:32.544Z,,,,,,,,,,,,,,,,,53,,,,,,,,,,,,,,575.7619999761519,,response,,,,99,,,,,,,Space,keypress(Space),,,,,,,,---- -- ----- -- ------ - ------- --- ----------<br>------------- ------ ------ ---- ---- ------- ----- -- ----<br>-------- ------- -- ---------- --- - --- ----- ----- ----<br>---- --- --- ----- --- ---- ---- ------- ----- ---- -------<br>--- --- -- ----- -- --- ---- -- --- ---- -- ------ really<br>--- ----- -- ----,206314.60000002384,206313.89999997616,205704.436,205718.30000001192,205738.138,206329.557,,51,really
screen,html.Screen,2_1_0_1_52,2022-04-25T17:17:33.286Z,,,,,,,,,,,,,,,,,53,,,,,,,,,,,,,,725.8429999761574,,response,,,,99,,,,,,,Space,keypress(Space),,,,,,,,---- -- ----- -- ------ - ------- --- ----------<br>------------- ------ ------ ---- ---- ------- ----- -- ----<br>-------- ------- -- ---------- --- - --- ----- ----- ----<br>---- --- --- ----- --- ---- ---- ------- ----- ---- -------<br>--- --- -- ----- -- --- ---- -- --- ---- -- ------ ------<br>not ----- -- ----,207056.10000002384,207055.39999997616,206304.823,206314.80000001192,206329.557,207071.491,,52,not
screen,html.Screen,2_1_0_1_53,2022-04-25T17:17:33.871Z,,,,,,,,,,,,,,,,,53,,,,,,,,,,,,,,569.20899998807,,response,,,,99,,,,,,,Space,keypress(Space),,,,,,,,---- -- ----- -- ------ - ------- --- ----------<br>------------- ------ ------ ---- ---- ------- ----- -- ----<br>-------- ------- -- ---------- --- - --- ----- ----- ----<br>---- --- --- ----- --- ---- ---- ------- ----- ---- -------<br>--- --- -- ----- -- --- ---- -- --- ---- -- ------ ------<br>--- close -- ----,207641.30000001192,207640.69999998808,207046.468,207056.19999998808,207071.491,207663.099,,53,close
screen,html.Screen,2_1_0_1_54,2022-04-25T17:17:34.549Z,,,,,,,,,,,,,,,,,53,,,,,,,,,,,,,,654.9010000000126,,response,,,,99,,,,,,,Space,keypress(Space),,,,,,,,---- -- ----- -- ------ - ------- --- ----------<br>------------- ------ ------ ---- ---- ------- ----- -- ----<br>-------- ------- -- ---------- --- - --- ----- ----- ----<br>---- --- --- ----- --- ---- ---- ------- ----- ---- -------<br>--- --- -- ----- -- --- ---- -- --- ---- -- ------ ------<br>--- ----- at ----,208318.69999998808,208318,207638.114,207641.5,207663.099,208329.668,,54,at
screen,html.Screen,2_1_0_1_55,2022-04-25T17:17:36.317Z,,,,,,,,,,,,,,,,,53,,,,,,,,,,,,,,1756.8319999999949,,response,,,,99,,,,,,,Space,keypress(Space),,,,,,,,---- -- ----- -- ------ - ------- --- ----------<br>------------- ------ ------ ---- ---- ------- ----- -- ----<br>-------- ------- -- ---------- --- - --- ----- ----- ----<br>---- --- --- ----- --- ---- ---- ------- ----- ---- -------<br>--- --- -- ----- -- --- ---- -- --- ---- -- ------ ------<br>--- ----- -- all.,210087,210086.5,208313.121,208318.80000001192,208329.668,210095.818,,55,all.
Item 99,flow.Loop,2_1_0_1,2022-04-25T17:17:36.317Z,,,,,,,,,,,,,,,,,,,,,,,,,,,,,,,40114.82000000001,,completion,,,,,B,,,,,,,,,,,silence,,,,,210087.30000001192,210086.5,169955.364,169956.19999998808,169971.68,210095.818,,,
Question 1,html.Screen,2_1_0_2,2022-04-25T17:17:44.196Z,,,,,,,,,,,,,,,,,,,,,,,,,,,,true,FALSE,,7868.682000000001,,response,,,,99,B,,,,,,FALSE,click #choice-2,,,,silence,,,,,217966.30000001192,217964.5,210079.861,210087.39999997616,210095.818,217970.503,,,
Question 2,html.Screen,2_1_0_3,2022-04-25T17:17:51.828Z,,,,,,,,,,,,,,,,,,,,,,,,,,,,true,TRUE,,7626.497000000003,,response,,,,99,B,,,,,,TRUE,click #choice-1,,,,silence,,,,,225598.10000002384,225597,217954.545,217966.39999997616,217970.503,225603.819,,,
Item 99,flow.Sequence,2_1_0,2022-04-25T17:17:51.828Z,,,,,,,,,,,,,,,,,,,,,,,,,,,,,,,65616.693,,completion,,,,,,,,,,,,,,,,,,,,,225598.30000001192,225597,159964.216,159977.69999998808,159980.307,225603.819,,,
Holding screen,html.Screen,2_1_1_0,2022-04-25T17:18:01.810Z,,,,,,,,,,,,,,,,,,,,,,,,,,,,,,,9991.998000000021,,timeout,,,,,,,,,,,,,,,,,,,,,235579.80000001192,235579.132,225587.056,225598.5,225603.819,235595.817,,,
screen,html.Screen,2_1_1_1_0,2022-04-25T17:18:02.730Z,,,,,,,,,,,,,,,,,54,,,,,,,,,,,,,,903.68299999999,,response,,,,100,,,,,,,Space,keypress(Space),,,,,,,,At --- ---- --- ------ ----- ------- ---- -- --- ------- --<br>------- ---------- ------ -- ----- -- ----- -- ---- ------<br>--- ----- --- --- ------ -------- ----- --- ------ ----- --<br>----- ----- ---------- --- --- ------ ------ ---- -- ------<br>------- --- ------ ----- --- ---- ------- -- ---- --- --<br>------- ------,236500.10000002384,236499.5,235579.132,235580,235595.817,236512.361,,0,At
screen,html.Screen,2_1_1_1_1,2022-04-25T17:18:03.285Z,,,,,,,,,,,,,,,,,54,,,,,,,,,,,,,,541.8389999880746,,response,,,,100,,,,,,,Space,keypress(Space),,,,,,,,-- the ---- --- ------ ----- ------- ---- -- --- ------- --<br>------- ---------- ------ -- ----- -- ----- -- ---- ------<br>--- ----- --- --- ------ -------- ----- --- ------ ----- --<br>----- ----- ---------- --- --- ------ ------ ---- -- ------<br>------- --- ------ ----- --- ---- ------- -- ---- --- --<br>------- ------,237054.80000001192,237054.19999998808,236494.776,236500.19999998808,236512.361,237079.132,,1,the
screen,html.Screen,2_1_1_1_2,2022-04-25T17:18:03.903Z,,,,,,,,,,,,,,,,,54,,,,,,,,,,,,,,593.3679999999877,,response,,,,100,,,,,,,Space,keypress(Space),,,,,,,,-- --- time --- ------ ----- ------- ---- -- --- ------- --<br>------- ---------- ------ -- ----- -- ----- -- ---- ------<br>--- ----- --- --- ------ -------- ----- --- ------ ----- --<br>----- ----- ---------- --- --- ------ ------ ---- -- ------<br>------- --- ------ ----- --- ---- ------- -- ---- --- --<br>------- ------,237673.10000002384,237672.5,237045.353,237055,237079.132,237695.701,,2,time
screen,html.Screen,2_1_1_1_3,2022-04-25T17:18:04.514Z,,,,,,,,,,,,,,,,,54,,,,,,,,,,,,,,587.59900001192,,response,,,,100,,,,,,,Space,keypress(Space),,,,,,,,-- --- ---- the ------ ----- ------- ---- -- --- ------- --<br>------- ---------- ------ -- ----- -- ----- -- ---- ------<br>--- ----- --- --- ------ -------- ----- --- ------ ----- --<br>----- ----- ---------- --- --- ------ ------ ---- -- ------<br>------- --- ------ ----- --- ---- ------- -- ---- --- --<br>------- ------,238283.80000001192,238283.30000001192,237662.081,237673.19999998808,237695.701,238286.752,,3,the
screen,html.Screen,2_1_1_1_4,2022-04-25T17:18:05.176Z,,,,,,,,,,,,,,,,,54,,,,,,,,,,,,,,658.6479999761505,,response,,,,100,,,,,,,Space,keypress(Space),,,,,,,,-- --- ---- --- French ----- ------- ---- -- --- ------- --<br>------- ---------- ------ -- ----- -- ----- -- ---- ------<br>--- ----- --- --- ------ -------- ----- --- ------ ----- --<br>----- ----- ---------- --- --- ------ ------ ---- -- ------<br>------- --- ------ ----- --- ---- ------- -- ---- --- --<br>------- ------,238945.89999997616,238945.39999997616,238278.708,238284,238286.752,238953.405,,4,French
screen,html.Screen,2_1_1_1_5,2022-04-25T17:18:05.880Z,,,,,,,,,,,,,,,,,54,,,,,,,,,,,,,,696.2949999880802,,response,,,,100,,,,,,,Space,keypress(Space),,,,,,,,-- --- ---- --- ------ crown ------- ---- -- --- ------- --<br>------- ---------- ------ -- ----- -- ----- -- ---- ------<br>--- ----- --- --- ------ -------- ----- --- ------ ----- --<br>----- ----- ---------- --- --- ------ ------ ---- -- ------<br>------- --- ------ ----- --- ---- ------- -- ---- --- --<br>------- ------,239650.30000001192,239649.69999998808,238936.718,238946,238953.405,239670.468,,5,crown
screen,html.Screen,2_1_1_1_6,2022-04-25T17:18:06.580Z,,,,,,,,,,,,,,,,,54,,,,,,,,,,,,,,678.7319999880856,,response,,,,100,,,,,,,Space,keypress(Space),,,,,,,,-- --- ---- --- ------ ----- secured ---- -- --- ------- --<br>------- ---------- ------ -- ----- -- ----- -- ---- ------<br>--- ----- --- --- ------ -------- ----- --- ------ ----- --<br>----- ----- ---------- --- --- ------ ------ ---- -- ------<br>------- --- ------ ----- --- ---- ------- -- ---- --- --<br>------- ------,240350,240349.19999998808,239636.99,239650.5,239670.468,240362.121,,6,secured
screen,html.Screen,2_1_1_1_7,2022-04-25T17:18:07.329Z,,,,,,,,,,,,,,,,,54,,,,,,,,,,,,,,736.5789999880653,,response,,,,100,,,,,,,Space,keypress(Space),,,,,,,,-- --- ---- --- ------ ----- ------- much -- --- ------- --<br>------- ---------- ------ -- ----- -- ----- -- ---- ------<br>--- ----- --- --- ------ -------- ----- --- ------ ----- --<br>----- ----- ---------- --- --- ------ ------ ---- -- ------<br>------- --- ------ ----- --- ---- ------- -- ---- --- --<br>------- ------,241099.19999998808,241098.69999998808,240336.379,240350.10000002384,240362.121,241103.336,,7,much
screen,html.Screen,2_1_1_1_8,2022-04-25T17:18:08.105Z,,,,,,,,,,,,,,,,,54,,,,,,,,,,,,,,770.7640000238316,,response,,,,100,,,,,,,Space,keypress(Space),,,,,,,,-- --- ---- --- ------ ----- ------- ---- of --- ------- --<br>------- ---------- ------ -- ----- -- ----- -- ---- ------<br>--- ----- --- --- ------ -------- ----- --- ------ ----- --<br>----- ----- ---------- --- --- ------ ------ ---- -- ------<br>------- --- ------ ----- --- ---- ------- -- ---- --- --<br>------- ------,241874.80000001192,241874.10000002384,241095.247,241099.39999997616,241103.336,241895.679,,8,of
screen,html.Screen,2_1_1_1_9,2022-04-25T17:18:08.737Z,,,,,,,,,,,,,,,,,54,,,,,,,,,,,,,,610.9210000238381,,response,,,,100,,,,,,,Space,keypress(Space),,,,,,,,-- --- ---- --- ------ ----- ------- ---- -- its ------- --<br>------- ---------- ------ -- ----- -- ----- -- ---- ------<br>--- ----- --- --- ------ -------- ----- --- ------ ----- --<br>----- ----- ---------- --- --- ------ ------ ---- -- ------<br>------- --- ------ ----- --- ---- ------- -- ---- --- --<br>------- ------,242507.19999998808,242506.60000002384,241869.977,241874.89999997616,241895.679,242511.614,,9,its
screen,html.Screen,2_1_1_1_10,2022-04-25T17:18:09.410Z,,,,,,,,,,,,,,,,,54,,,,,,,,,,,,,,667.8859999999986,,response,,,,100,,,,,,,Space,keypress(Space),,,,,,,,-- --- ---- --- ------ ----- ------- ---- -- --- revenue --<br>------- ---------- ------ -- ----- -- ----- -- ---- ------<br>--- ----- --- --- ------ -------- ----- --- ------ ----- --<br>----- ----- ---------- --- --- ------ ------ ---- -- ------<br>------- --- ------ ----- --- ---- ------- -- ---- --- --<br>------- ------,243180.30000001192,243179.5,242495.268,242507.39999997616,242511.614,243203.984,,10,revenue
screen,html.Screen,2_1_1_1_11,2022-04-25T17:18:10.056Z,,,,,,,,,,,,,,,,,54,,,,,,,,,,,,,,621.3160000119242,,response,,,,100,,,,,,,Space,keypress(Space),,,,,,,,-- --- ---- --- ------ ----- ------- ---- -- --- ------- by<br>------- ---------- ------ -- ----- -- ----- -- ---- ------<br>--- ----- --- --- ------ -------- ----- --- ------ ----- --<br>----- ----- ---------- --- --- ------ ------ ---- -- ------<br>------- --- ------ ----- --- ---- ------- -- ---- --- --<br>------- ------,243826.10000002384,243825.30000001192,243178.263,243180.39999997616,243203.984,243845.574,,11,by
screen,html.Screen,2_1_1_1_12,2022-04-25T17:18:10.677Z,,,,,,,,,,,,,,,,,54,,,,,,,,,,,,,,600.9260000000068,,response,,,,100,,,,,,,Space,keypress(Space),,,,,,,,-- --- ---- --- ------ ----- ------- ---- -- --- ------- --<br>issuing ---------- ------ -- ----- -- ----- -- ---- ------<br>--- ----- --- --- ------ -------- ----- --- ------ ----- --<br>----- ----- ---------- --- --- ------ ------ ---- -- ------<br>------- --- ------ ----- --- ---- ------- -- ---- --- --<br>------- ------,244447.10000002384,244446.5,243820.037,243826.19999998808,243845.574,244462.253,,12,issuing
screen,html.Screen,2_1_1_1_13,2022-04-25T17:18:11.319Z,,,,,,,,,,,,,,,,,54,,,,,,,,,,,,,,625.9469999880821,,response,,,,100,,,,,,,Space,keypress(Space),,,,,,,,-- --- ---- --- ------ ----- ------- ---- -- --- ------- --<br>------- government ------ -- ----- -- ----- -- ---- ------<br>--- ----- --- --- ------ -------- ----- --- ------ ----- --<br>----- ----- ---------- --- --- ------ ------ ---- -- ------<br>------- --- ------ ----- --- ---- ------- -- ---- --- --<br>------- ------,245088.80000001192,245088.19999998808,244444.709,244447.19999998808,244462.253,245103.869,,13,government
screen,html.Screen,2_1_1_1_14,2022-04-25T17:18:12.036Z,,,,,,,,,,,,,,,,,54,,,,,,,,,,,,,,701.330999988073,,response,,,,100,,,,,,,Space,keypress(Space),,,,,,,,-- --- ---- --- ------ ----- ------- ---- -- --- ------- --<br>------- ---------- bonds. -- ----- -- ----- -- ---- ------<br>--- ----- --- --- ------ -------- ----- --- ------ ----- --<br>----- ----- ---------- --- --- ------ ------ ---- -- ------<br>------- --- ------ ----- --- ---- ------- -- ---- --- --<br>------- ------,245805.80000001192,245805.19999998808,245078.551,245089,245103.869,245820.13,,14,bonds.
screen,html.Screen,2_1_1_1_15,2022-04-25T17:18:12.812Z,,,,,,,,,,,,,,,,,54,,,,,,,,,,,,,,761.5699999880744,,response,,,,100,,,,,,,Space,keypress(Space),,,,,,,,-- --- ---- --- ------ ----- ------- ---- -- --- ------- --<br>------- ---------- ------ In ----- -- ----- -- ---- ------<br>--- ----- --- --- ------ -------- ----- --- ------ ----- --<br>----- ----- ---------- --- --- ------ ------ ---- -- ------<br>------- --- ------ ----- --- ---- ------- -- ---- --- --<br>------- ------,246582.19999998808,246581.69999998808,245803.488,245806,245820.13,246586.687,,15,In
screen,html.Screen,2_1_1_1_16,2022-04-25T17:18:14.419Z,,,,,,,,,,,,,,,,,54,,,,,,,,,,,,,,1601.7129999761528,,response,,,,100,,,,,,,Space,keypress(Space),,,,,,,,"-- --- ---- --- ------ ----- ------- ---- -- --- ------- --<br>------- ---------- ------ -- 1727, -- ----- -- ---- ------<br>--- ----- --- --- ------ -------- ----- --- ------ ----- --<br>----- ----- ---------- --- --- ------ ------ ---- -- ------<br>------- --- ------ ----- --- ---- ------- -- ---- --- --<br>------- ------",248189,248188.39999997616,246569.861,246582.39999997616,246586.687,248203.761,,16,"1727,"
screen,html.Screen,2_1_1_1_17,2022-04-25T17:18:15.709Z,,,,,,,,,,,,,,,,,54,,,,,,,,,,,,,,1274.2390000000014,,response,,,,100,,,,,,,Space,keypress(Space),,,,,,,,-- --- ---- --- ------ ----- ------- ---- -- --- ------- --<br>------- ---------- ------ -- ----- in ----- -- ---- ------<br>--- ----- --- --- ------ -------- ----- --- ------ ----- --<br>----- ----- ---------- --- --- ------ ------ ---- -- ------<br>------- --- ------ ----- --- ---- ------- -- ---- --- --<br>------- ------,249478.69999998808,249478,248185.822,248189.10000002384,248203.761,249495.445,,17,in
screen,html.Screen,2_1_1_1_18,2022-04-25T17:18:16.393Z,,,,,,,,,,,,,,,,,54,,,,,,,,,,,,,,666.554999999993,,response,,,,100,,,,,,,Space,keypress(Space),,,,,,,,-- --- ---- --- ------ ----- ------- ---- -- --- ------- --<br>------- ---------- ------ -- ----- -- order -- ---- ------<br>--- ----- --- --- ------ -------- ----- --- ------ ----- --<br>----- ----- ---------- --- --- ------ ------ ---- -- ------<br>------- --- ------ ----- --- ---- ------- -- ---- --- --<br>------- ------,250162.69999998808,250162,249469.197,249478.80000001192,249495.445,250178.246,,18,order
screen,html.Screen,2_1_1_1_19,2022-04-25T17:18:17.124Z,,,,,,,,,,,,,,,,,54,,,,,,,,,,,,,,714.9539999880653,,response,,,,100,,,,,,,Space,keypress(Space),,,,,,,,-- --- ---- --- ------ ----- ------- ---- -- --- ------- --<br>------- ---------- ------ -- ----- -- ----- to ---- ------<br>--- ----- --- --- ------ -------- ----- --- ------ ----- --<br>----- ----- ---------- --- --- ------ ------ ---- -- ------<br>------- --- ------ ----- --- ---- ------- -- ---- --- --<br>------- ------,250893.80000001192,250893.19999998808,250161.742,250162.89999997616,250178.246,250919.816,,19,to
screen,html.Screen,2_1_1_1_20,2022-04-25T17:18:18.093Z,,,,,,,,,,,,,,,,,54,,,,,,,,,,,,,,942.6840000000084,,response,,,,100,,,,,,,Space,keypress(Space),,,,,,,,-- --- ---- --- ------ ----- ------- ---- -- --- ------- --<br>------- ---------- ------ -- ----- -- ----- -- save ------<br>--- ----- --- --- ------ -------- ----- --- ------ ----- --<br>----- ----- ---------- --- --- ------ ------ ---- -- ------<br>------- --- ------ ----- --- ---- ------- -- ---- --- --<br>------- ------,251863.19999998808,251862.5,250894.423,250894,250919.816,251887.059,,20,save
screen,html.Screen,2_1_1_1_21,2022-04-25T17:18:18.715Z,,,,,,,,,,,,,,,,,54,,,,,,,,,,,,,,597.2410000119125,,response,,,,100,,,,,,,Space,keypress(Space),,,,,,,,"-- --- ---- --- ------ ----- ------- ---- -- --- ------- --<br>------- ---------- ------ -- ----- -- ----- -- ---- money,<br>--- ----- --- --- ------ -------- ----- --- ------ ----- --<br>----- ----- ---------- --- --- ------ ------ ---- -- ------<br>------- --- ------ ----- --- ---- ------- -- ---- --- --<br>------- ------",252485,252484.30000001192,251853.123,251863.39999997616,251887.059,252503.401,,21,"money,"
screen,html.Screen,2_1_1_1_22,2022-04-25T17:18:19.396Z,,,,,,,,,,,,,,,,,54,,,,,,,,,,,,,,661.6990000238293,,response,,,,100,,,,,,,Space,keypress(Space),,,,,,,,-- --- ---- --- ------ ----- ------- ---- -- --- ------- --<br>------- ---------- ------ -- ----- -- ----- -- ---- ------<br>the ----- --- --- ------ -------- ----- --- ------ ----- --<br>----- ----- ---------- --- --- ------ ------ ---- -- ------<br>------- --- ------ ----- --- ---- ------- -- ---- --- --<br>------- ------,253165.69999998808,253165.10000002384,252470.047,252485.10000002384,252503.401,253169.742,,22,the
screen,html.Screen,2_1_1_1_23,2022-04-25T17:18:20.502Z,,,,,,,,,,,,,,,,,54,,,,,,,,,,,,,,1101.4579999880807,,response,,,,100,,,,,,,Space,keypress(Space),,,,,,,,-- --- ---- --- ------ ----- ------- ---- -- --- ------- --<br>------- ---------- ------ -- ----- -- ----- -- ---- ------<br>--- state --- --- ------ -------- ----- --- ------ ----- --<br>----- ----- ---------- --- --- ------ ------ ---- -- ------<br>------- --- ------ ----- --- ---- ------- -- ---- --- --<br>------- ------,254271.80000001192,254271.19999998808,253153.122,253165.80000001192,253169.742,254286.508,,23,state
screen,html.Screen,2_1_1_1_24,2022-04-25T17:18:21.150Z,,,,,,,,,,,,,,,,,54,,,,,,,,,,,,,,632.3919999761565,,response,,,,100,,,,,,,Space,keypress(Space),,,,,,,,-- --- ---- --- ------ ----- ------- ---- -- --- ------- --<br>------- ---------- ------ -- ----- -- ----- -- ---- ------<br>--- ----- cut --- ------ -------- ----- --- ------ ----- --<br>----- ----- ---------- --- --- ------ ------ ---- -- ------<br>------- --- ------ ----- --- ---- ------- -- ---- --- --<br>------- ------,254919.5,254918.89999997616,254269.143,254271.89999997616,254286.508,254928.65,,24,cut
screen,html.Screen,2_1_1_1_25,2022-04-25T17:18:21.775Z,,,,,,,,,,,,,,,,,54,,,,,,,,,,,,,,615.749999976164,,response,,,,100,,,,,,,Space,keypress(Space),,,,,,,,-- --- ---- --- ------ ----- ------- ---- -- --- ------- --<br>------- ---------- ------ -- ----- -- ----- -- ---- ------<br>--- ----- --- the ------ -------- ----- --- ------ ----- --<br>----- ----- ---------- --- --- ------ ------ ---- -- ------<br>------- --- ------ ----- --- ---- ------- -- ---- --- --<br>------- ------,255544.89999997616,255544.39999997616,254919.978,254919.60000002384,254928.65,255570.256,,25,the
screen,html.Screen,2_1_1_1_26,2022-04-25T17:18:22.533Z,,,,,,,,,,,,,,,,,54,,,,,,,,,,,,,,731.544000011927,,response,,,,100,,,,,,,Space,keypress(Space),,,,,,,,-- --- ---- --- ------ ----- ------- ---- -- --- ------- --<br>------- ---------- ------ -- ----- -- ----- -- ---- ------<br>--- ----- --- --- bonds' -------- ----- --- ------ ----- --<br>----- ----- ---------- --- --- ------ ------ ---- -- ------<br>------- --- ------ ----- --- ---- ------- -- ---- --- --<br>------- ------,256302.5,256301.80000001192,255544.884,255545.10000002384,255570.256,256312.049,,26,bonds'
screen,html.Screen,2_1_1_1_27,2022-04-25T17:18:23.205Z,,,,,,,,,,,,,,,,,54,,,,,,,,,,,,,,662.5510000238428,,response,,,,100,,,,,,,Space,keypress(Space),,,,,,,,-- --- ---- --- ------ ----- ------- ---- -- --- ------- --<br>------- ---------- ------ -- ----- -- ----- -- ---- ------<br>--- ----- --- --- ------ interest ----- --- ------ ----- --<br>----- ----- ---------- --- --- ------ ------ ---- -- ------<br>------- --- ------ ----- --- ---- ------- -- ---- --- --<br>------- ------,256975.19999998808,256974.60000002384,256302.592,256302.60000002384,256312.049,256977.953,,27,interest
screen,html.Screen,2_1_1_1_28,2022-04-25T17:18:23.893Z,,,,,,,,,,,,,,,,,54,,,,,,,,,,,,,,684.0469999999914,,response,,,,100,,,,,,,Space,keypress(Space),,,,,,,,-- --- ---- --- ------ ----- ------- ---- -- --- ------- --<br>------- ---------- ------ -- ----- -- ----- -- ---- ------<br>--- ----- --- --- ------ -------- rate. --- ------ ----- --<br>----- ----- ---------- --- --- ------ ------ ---- -- ------<br>------- --- ------ ----- --- ---- ------- -- ---- --- --<br>------- ------,257662.69999998808,257662,256961.588,256975.39999997616,256977.953,257669.968,,28,rate.
screen,html.Screen,2_1_1_1_29,2022-04-25T17:18:24.549Z,,,,,,,,,,,,,,,,,54,,,,,,,,,,,,,,648.9319999761647,,response,,,,100,,,,,,,Space,keypress(Space),,,,,,,,-- --- ---- --- ------ ----- ------- ---- -- --- ------- --<br>------- ---------- ------ -- ----- -- ----- -- ---- ------<br>--- ----- --- --- ------ -------- ----- The ------ ----- --<br>----- ----- ---------- --- --- ------ ------ ---- -- ------<br>------- --- ------ ----- --- ---- ------- -- ---- --- --<br>------- ------,258319.39999997616,258318.89999997616,257661.244,257662.80000001192,257669.968,258336.931,,29,The
screen,html.Screen,2_1_1_1_30,2022-04-25T17:18:25.291Z,,,,,,,,,,,,,,,,,54,,,,,,,,,,,,,,723.2689999880677,,response,,,,100,,,,,,,Space,keypress(Space),,,,,,,,-- --- ---- --- ------ ----- ------- ---- -- --- ------- --<br>------- ---------- ------ -- ----- -- ----- -- ---- ------<br>--- ----- --- --- ------ -------- ----- --- market ----- --<br>----- ----- ---------- --- --- ------ ------ ---- -- ------<br>------- --- ------ ----- --- ---- ------- -- ---- --- --<br>------- ------,259060.80000001192,259060.19999998808,258319.878,258319.60000002384,258336.931,259078.561,,30,market
screen,html.Screen,2_1_1_1_31,2022-04-25T17:18:26.543Z,,,,,,,,,,,,,,,,,54,,,,,,,,,,,,,,1233.539000023855,,response,,,,100,,,,,,,Space,keypress(Space),,,,,,,,-- --- ---- --- ------ ----- ------- ---- -- --- ------- --<br>------- ---------- ------ -- ----- -- ----- -- ---- ------<br>--- ----- --- --- ------ -------- ----- --- ------ value --<br>----- ----- ---------- --- --- ------ ------ ---- -- ------<br>------- --- ------ ----- --- ---- ------- -- ---- --- --<br>------- ------,260312.80000001192,260312.10000002384,259052.784,259060.89999997616,259078.561,260320.252,,31,value
screen,html.Screen,2_1_1_1_32,2022-04-25T17:18:27.153Z,,,,,,,,,,,,,,,,,54,,,,,,,,,,,,,,602.4479999880714,,response,,,,100,,,,,,,Space,keypress(Space),,,,,,,,-- --- ---- --- ------ ----- ------- ---- -- --- ------- --<br>------- ---------- ------ -- ----- -- ----- -- ---- ------<br>--- ----- --- --- ------ -------- ----- --- ------ ----- of<br>----- ----- ---------- --- --- ------ ------ ---- -- ------<br>------- --- ------ ----- --- ---- ------- -- ---- --- --<br>------- ------,260923.30000001192,260922.69999998808,260310.577,260312.89999997616,260320.252,260936.546,,32,of
screen,html.Screen,2_1_1_1_33,2022-04-25T17:18:27.801Z,,,,,,,,,,,,,,,,,54,,,,,,,,,,,,,,634.153999988077,,response,,,,100,,,,,,,Space,keypress(Space),,,,,,,,-- --- ---- --- ------ ----- ------- ---- -- --- ------- --<br>------- ---------- ------ -- ----- -- ----- -- ---- ------<br>--- ----- --- --- ------ -------- ----- --- ------ ----- --<br>these ----- ---------- --- --- ------ ------ ---- -- ------<br>------- --- ------ ----- --- ---- ------- -- ---- --- --<br>------- ------,261571.39999997616,261570.69999998808,260919.844,260923.5,260936.546,261578.153,,33,these
screen,html.Screen,2_1_1_1_34,2022-04-25T17:18:28.517Z,,,,,,,,,,,,,,,,,54,,,,,,,,,,,,,,707.9470000238507,,response,,,,100,,,,,,,Space,keypress(Space),,,,,,,,-- --- ---- --- ------ ----- ------- ---- -- --- ------- --<br>------- ---------- ------ -- ----- -- ----- -- ---- ------<br>--- ----- --- --- ------ -------- ----- --- ------ ----- --<br>----- bonds ---------- --- --- ------ ------ ---- -- ------<br>------- --- ------ ----- --- ---- ------- -- ---- --- --<br>------- ------,262286.6999999881,262286.10000002384,261569.637,261571.5,261578.153,262295.117,,34,bonds
screen,html.Screen,2_1_1_1_35,2022-04-25T17:18:29.275Z,,,,,,,,,,,,,,,,,54,,,,,,,,,,,,,,748.9830000238144,,response,,,,100,,,,,,,Space,keypress(Space),,,,,,,,"-- --- ---- --- ------ ----- ------- ---- -- --- ------- --<br>------- ---------- ------ -- ----- -- ----- -- ---- ------<br>--- ----- --- --- ------ -------- ----- --- ------ ----- --<br>----- ----- plummeted, --- --- ------ ------ ---- -- ------<br>------- --- ------ ----- --- ---- ------- -- ---- --- --<br>------- ------",263044.60000002384,263044.10000002384,262278.104,262286.89999997616,262295.117,263061.186,,35,"plummeted,"
screen,html.Screen,2_1_1_1_36,2022-04-25T17:18:29.950Z,,,,,,,,,,,,,,,,,54,,,,,,,,,,,,,,658.114000011934,,response,,,,100,,,,,,,Space,keypress(Space),,,,,,,,-- --- ---- --- ------ ----- ------- ---- -- --- ------- --<br>------- ---------- ------ -- ----- -- ----- -- ---- ------<br>--- ----- --- --- ------ -------- ----- --- ------ ----- --<br>----- ----- ---------- and --- ------ ------ ---- -- ------<br>------- --- ------ ----- --- ---- ------- -- ---- --- --<br>------- ------,263720,263719.3000000119,263044.71,263044.8000000119,263061.186,263728.168,,36,and
screen,html.Screen,2_1_1_1_37,2022-04-25T17:18:30.606Z,,,,,,,,,,,,,,,,,54,,,,,,,,,,,,,,646.731999976153,,response,,,,100,,,,,,,Space,keypress(Space),,,,,,,,-- --- ---- --- ------ ----- ------- ---- -- --- ------- --<br>------- ---------- ------ -- ----- -- ----- -- ---- ------<br>--- ----- --- --- ------ -------- ----- --- ------ ----- --<br>----- ----- ---------- --- the ------ ------ ---- -- ------<br>------- --- ------ ----- --- ---- ------- -- ---- --- --<br>------- ------,264375.60000002384,264374.89999997616,263711.415,263720.10000002384,263728.168,264395.09,,37,the
screen,html.Screen,2_1_1_1_38,2022-04-25T17:18:31.194Z,,,,,,,,,,,,,,,,,54,,,,,,,,,,,,,,568.2100000118953,,response,,,,100,,,,,,,Space,keypress(Space),,,,,,,,-- --- ---- --- ------ ----- ------- ---- -- --- ------- --<br>------- ---------- ------ -- ----- -- ----- -- ---- ------<br>--- ----- --- --- ------ -------- ----- --- ------ ----- --<br>----- ----- ---------- --- --- market ------ ---- -- ------<br>------- --- ------ ----- --- ---- ------- -- ---- --- --<br>------- ------,264963.8000000119,264963.3000000119,264360.95,264375.60000002384,264395.09,264986.711,,38,market
screen,html.Screen,2_1_1_1_39,2022-04-25T17:18:31.815Z,,,,,,,,,,,,,,,,,54,,,,,,,,,,,,,,597.6889999761479,,response,,,,100,,,,,,,Space,keypress(Space),,,,,,,,-- --- ---- --- ------ ----- ------- ---- -- --- ------- --<br>------- ---------- ------ -- ----- -- ----- -- ---- ------<br>--- ----- --- --- ------ -------- ----- --- ------ ----- --<br>----- ----- ---------- --- --- ------ became ---- -- ------<br>------- --- ------ ----- --- ---- ------- -- ---- --- --<br>------- ------,265585.10000002384,265584.39999997616,264961.149,264964,264986.711,265602.871,,39,became
screen,html.Screen,2_1_1_1_40,2022-04-25T17:18:32.485Z,,,,,,,,,,,,,,,,,54,,,,,,,,,,,,,,651.9290000119363,,response,,,,100,,,,,,,Space,keypress(Space),,,,,,,,-- --- ---- --- ------ ----- ------- ---- -- --- ------- --<br>------- ---------- ------ -- ----- -- ----- -- ---- ------<br>--- ----- --- --- ------ -------- ----- --- ------ ----- --<br>----- ----- ---------- --- --- ------ ------ wary -- ------<br>------- --- ------ ----- --- ---- ------- -- ---- --- --<br>------- ------,266255.39999997616,266254.8000000119,265569.753,265585.1999999881,265602.871,266269.547,,40,wary
screen,html.Screen,2_1_1_1_41,2022-04-25T17:18:33.171Z,,,,,,,,,,,,,,,,,54,,,,,,,,,,,,,,670.7530000119004,,response,,,,100,,,,,,,Space,keypress(Space),,,,,,,,-- --- ---- --- ------ ----- ------- ---- -- --- ------- --<br>------- ---------- ------ -- ----- -- ----- -- ---- ------<br>--- ----- --- --- ------ -------- ----- --- ------ ----- --<br>----- ----- ---------- --- --- ------ ------ ---- of ------<br>------- --- ------ ----- --- ---- ------- -- ---- --- --<br>------- ------,266940.89999997616,266940.3000000119,266252.695,266255.5,266269.547,266961.377,,41,of
screen,html.Screen,2_1_1_1_42,2022-04-25T17:18:33.849Z,,,,,,,,,,,,,,,,,54,,,,,,,,,,,,,,657.2230000238633,,response,,,,100,,,,,,,Space,keypress(Space),,,,,,,,-- --- ---- --- ------ ----- ------- ---- -- --- ------- --<br>------- ---------- ------ -- ----- -- ----- -- ---- ------<br>--- ----- --- --- ------ -------- ----- --- ------ ----- --<br>----- ----- ---------- --- --- ------ ------ ---- -- French<br>------- --- ------ ----- --- ---- ------- -- ---- --- --<br>------- ------,267619.1999999881,267618.60000002384,266936.344,266941,266961.377,267628.358,,42,French
screen,html.Screen,2_1_1_1_43,2022-04-25T17:18:34.511Z,,,,,,,,,,,,,,,,,54,,,,,,,,,,,,,,652.3419999880716,,response,,,,100,,,,,,,Space,keypress(Space),,,,,,,,-- --- ---- --- ------ ----- ------- ---- -- --- ------- --<br>------- ---------- ------ -- ----- -- ----- -- ---- ------<br>--- ----- --- --- ------ -------- ----- --- ------ ----- --<br>----- ----- ---------- --- --- ------ ------ ---- -- ------<br>credit. --- ------ ----- --- ---- ------- -- ---- --- --<br>------- ------,268281.3000000119,268280.6999999881,267611.326,267619.39999997616,267628.358,268294.451,,43,credit.
screen,html.Screen,2_1_1_1_44,2022-04-25T17:18:35.197Z,,,,,,,,,,,,,,,,,54,,,,,,,,,,,,,,672.2489999880781,,response,,,,100,,,,,,,Space,keypress(Space),,,,,,,,-- --- ---- --- ------ ----- ------- ---- -- --- ------- --<br>------- ---------- ------ -- ----- -- ----- -- ---- ------<br>--- ----- --- --- ------ -------- ----- --- ------ ----- --<br>----- ----- ---------- --- --- ------ ------ ---- -- ------<br>------- The ------ ----- --- ---- ------- -- ---- --- --<br>------- ------,268967.39999997616,268966.6999999881,268277.982,268281.5,268294.451,268986.661,,44,The
screen,html.Screen,2_1_1_1_45,2022-04-25T17:18:36.289Z,,,,,,,,,,,,,,,,,54,,,,,,,,,,,,,,1071.93900002382,,response,,,,100,,,,,,,Space,keypress(Space),,,,,,,,-- --- ---- --- ------ ----- ------- ---- -- --- ------- --<br>------- ---------- ------ -- ----- -- ----- -- ---- ------<br>--- ----- --- --- ------ -------- ----- --- ------ ----- --<br>----- ----- ---------- --- --- ------ ------ ---- -- ------<br>------- --- French ----- --- ---- ------- -- ---- --- --<br>------- ------,270059.3000000119,270058.60000002384,268961.301,268967.60000002384,268986.661,270078.17,,45,French
screen,html.Screen,2_1_1_1_46,2022-04-25T17:18:36.978Z,,,,,,,,,,,,,,,,,54,,,,,,,,,,,,,,669.5299999880954,,response,,,,100,,,,,,,Space,keypress(Space),,,,,,,,-- --- ---- --- ------ ----- ------- ---- -- --- ------- --<br>------- ---------- ------ -- ----- -- ----- -- ---- ------<br>--- ----- --- --- ------ -------- ----- --- ------ ----- --<br>----- ----- ---------- --- --- ------ ------ ---- -- ------<br>------- --- ------ state --- ---- ------- -- ---- --- --<br>------- ------,270748.3000000119,270747.6999999881,270052.726,270059.39999997616,270078.17,270769.925,,46,state
screen,html.Screen,2_1_1_1_47,2022-04-25T17:18:37.639Z,,,,,,,,,,,,,,,,,54,,,,,,,,,,,,,,638.6750000238535,,response,,,,100,,,,,,,Space,keypress(Space),,,,,,,,-- --- ---- --- ------ ----- ------- ---- -- --- ------- --<br>------- ---------- ------ -- ----- -- ----- -- ---- ------<br>--- ----- --- --- ------ -------- ----- --- ------ ----- --<br>----- ----- ---------- --- --- ------ ------ ---- -- ------<br>------- --- ------ ----- was ---- ------- -- ---- --- --<br>------- ------,271409.1999999881,271408.60000002384,270744.595,270748.39999997616,270769.925,271411.012,,47,was
screen,html.Screen,2_1_1_1_48,2022-04-25T17:18:38.287Z,,,,,,,,,,,,,,,,,54,,,,,,,,,,,,,,645.788000011933,,response,,,,100,,,,,,,Space,keypress(Space),,,,,,,,-- --- ---- --- ------ ----- ------- ---- -- --- ------- --<br>------- ---------- ------ -- ----- -- ----- -- ---- ------<br>--- ----- --- --- ------ -------- ----- --- ------ ----- --<br>----- ----- ---------- --- --- ------ ------ ---- -- ------<br>------- --- ------ ----- --- left ------- -- ---- --- --<br>------- ------,272057.39999997616,272056.8000000119,271402.949,271409.39999997616,271411.012,272078.146,,48,left
screen,html.Screen,2_1_1_1_49,2022-04-25T17:18:38.960Z,,,,,,,,,,,,,,,,,54,,,,,,,,,,,,,,650.654000011913,,response,,,,100,,,,,,,Space,keypress(Space),,,,,,,,-- --- ---- --- ------ ----- ------- ---- -- --- ------- --<br>------- ---------- ------ -- ----- -- ----- -- ---- ------<br>--- ----- --- --- ------ -------- ----- --- ------ ----- --<br>----- ----- ---------- --- --- ------ ------ ---- -- ------<br>------- --- ------ ----- --- ---- without -- ---- --- --<br>------- ------,272729.60000002384,272728.8000000119,272044.3,272057.60000002384,272078.146,272744.652,,49,without
screen,html.Screen,2_1_1_1_50,2022-04-25T17:18:39.625Z,,,,,,,,,,,,,,,,,54,,,,,,,,,,,,,,649.3479999999981,,response,,,,100,,,,,,,Space,keypress(Space),,,,,,,,-- --- ---- --- ------ ----- ------- ---- -- --- ------- --<br>------- ---------- ------ -- ----- -- ----- -- ---- ------<br>--- ----- --- --- ------ -------- ----- --- ------ ----- --<br>----- ----- ---------- --- --- ------ ------ ---- -- ------<br>------- --- ------ ----- --- ---- ------- an ---- --- --<br>------- ------,273394.60000002384,273394,272727.891,272729.6999999881,272744.652,273411.565,,50,an
screen,html.Screen,2_1_1_1_51,2022-04-25T17:18:40.282Z,,,,,,,,,,,,,,,,,54,,,,,,,,,,,,,,639.8349999761558,,response,,,,100,,,,,,,Space,keypress(Space),,,,,,,,-- --- ---- --- ------ ----- ------- ---- -- --- ------- --<br>------- ---------- ------ -- ----- -- ----- -- ---- ------<br>--- ----- --- --- ------ -------- ----- --- ------ ----- --<br>----- ----- ---------- --- --- ------ ------ ---- -- ------<br>------- --- ------ ----- --- ---- ------- -- easy --- --<br>------- ------,274052,274051.39999997616,273394.191,273394.6999999881,273411.565,274077.824,,51,easy
screen,html.Screen,2_1_1_1_52,2022-04-25T17:18:41.008Z,,,,,,,,,,,,,,,,,54,,,,,,,,,,,,,,699.4760000118986,,response,,,,100,,,,,,,Space,keypress(Space),,,,,,,,-- --- ---- --- ------ ----- ------- ---- -- --- ------- --<br>------- ---------- ------ -- ----- -- ----- -- ---- ------<br>--- ----- --- --- ------ -------- ----- --- ------ ----- --<br>----- ----- ---------- --- --- ------ ------ ---- -- ------<br>------- --- ------ ----- --- ---- ------- -- ---- way --<br>------- ------,274777.89999997616,274777.3000000119,274044.528,274052.1999999881,274077.824,274794.7,,52,way
screen,html.Screen,2_1_1_1_53,2022-04-25T17:18:41.645Z,,,,,,,,,,,,,,,,,54,,,,,,,,,,,,,,619.7999999999884,,response,,,,100,,,,,,,Space,keypress(Space),,,,,,,,-- --- ---- --- ------ ----- ------- ---- -- --- ------- --<br>------- ---------- ------ -- ----- -- ----- -- ---- ------<br>--- ----- --- --- ------ -------- ----- --- ------ ----- --<br>----- ----- ---------- --- --- ------ ------ ---- -- ------<br>------- --- ------ ----- --- ---- ------- -- ---- --- of<br>------- ------,275415.10000002384,275414.5,274777.212,274778.10000002384,274794.7,275436.573,,53,of
screen,html.Screen,2_1_1_1_54,2022-04-25T17:18:42.300Z,,,,,,,,,,,,,,,,,54,,,,,,,,,,,,,,633.1269999881042,,response,,,,100,,,,,,,Space,keypress(Space),,,,,,,,-- --- ---- --- ------ ----- ------- ---- -- --- ------- --<br>------- ---------- ------ -- ----- -- ----- -- ---- ------<br>--- ----- --- --- ------ -------- ----- --- ------ ----- --<br>----- ----- ---------- --- --- ------ ------ ---- -- ------<br>------- --- ------ ----- --- ---- ------- -- ---- --- --<br>raising ------,276070.3000000119,276069.6999999881,275411.188,275415.1999999881,275436.573,276078.134,,54,raising
screen,html.Screen,2_1_1_1_55,2022-04-25T17:18:43.008Z,,,,,,,,,,,,,,,,,54,,,,,,,,,,,,,,699.1660000119009,,response,,,,100,,,,,,,Space,keypress(Space),,,,,,,,-- --- ---- --- ------ ----- ------- ---- -- --- ------- --<br>------- ---------- ------ -- ----- -- ----- -- ---- ------<br>--- ----- --- --- ------ -------- ----- --- ------ ----- --<br>----- ----- ---------- --- --- ------ ------ ---- -- ------<br>------- --- ------ ----- --- ---- ------- -- ---- --- --<br>------- money.,276777.89999997616,276777.3000000119,276068.923,276070.39999997616,276078.134,276794.801,,55,money.
Item 100,flow.Loop,2_1_1_1,2022-04-25T17:18:43.008Z,,,,,,,,,,,,,,,,,,,,,,,,,,,,,,,41181.48300001191,,completion,,,,,B,,,,,,,,,,,silence,,,,,276778.10000002384,276777.3000000119,235579.132,235580,235595.817,276794.801,,,
Question 1,html.Screen,2_1_1_2,2022-04-25T17:18:48.764Z,,,,,,,,,,,,,,,,,,,,,,,,,,,,true,TRUE,,5736.199000000022,,response,,,,100,B,,,,,,TRUE,click #choice-1,,,,silence,,,,,282533,282531,276777.79,276778.1999999881,276794.801,282535.751,,,
Question 2,html.Screen,2_1_1_3,2022-04-25T17:18:53.732Z,,,,,,,,,,,,,,,,,,,,,,,,,,,,true,FALSE,,4964.549000011932,,response,,,,100,B,,,,,,FALSE,click #choice-2,,,,silence,,,,,287501.39999997616,287500.3000000119,282519.58,282533.10000002384,282535.751,287511.314,,,
Item 100,flow.Sequence,2_1_1,2022-04-25T17:18:53.732Z,,,,,,,,,,,,,,,,,,,,,,,,,,,,,,,61896.48100001193,,completion,,,,,,,,,,,,,,,,,,,,,287501.6999999881,287500.3000000119,225587.056,225598.39999997616,225603.819,287511.314,,,
End of Practice,html.Page,2_1_2,2022-04-25T17:19:00.317Z,,,,,,,,,,,,,,,,,,,,,,,,,,,,,,,6574.986000011908,,form submission,,,,,,,,,,,,,,,,,,,,,294086.60000002384,294086.3000000119,287485.899,287501.6999999881,287511.314,294093.821,,,
Practice,flow.Sequence,2_1,2022-04-25T17:19:00.317Z,,,,,,,,,,,,,,,,,,,,,,,,,,,,,,,134105.99300001192,,completion,,,,,,,,,,,,,,,,,,,,,294086.6999999881,294086.3000000119,159964.216,159977.69999998808,159980.307,294093.821,,,
Trap_instruction,html.Page,2_2_0,2022-04-25T17:19:06.661Z,,,,,,,,,,,,,,,,,,,,,,,,,,,,,,,6336.479000011925,,form submission,,,,,,,,,,,,,,,,,,,,,300430.60000002384,300430.3000000119,294077.464,294086.89999997616,294093.821,300435.304,,,
trap_trial,html.Screen,2_2_1,2022-04-25T17:19:10.861Z,,,,,,,,,,,,,,,,,,,,,,,,,,,,true,1,,4194.395999988075,,response,,,,,,,,,,,1,click #choice-1,,,,,,,,,304630.8000000119,304629.6999999881,300426.883,300430.6999999881,300435.304,304643.908,,,
end of trap trial,html.Page,2_2_2,2022-04-25T17:19:13.548Z,,,,,,,,,,,,,,,,,,,,,,,,,,,,,,,2673.4919999761623,,form submission,,,,,,,,,,,,,,,,,,,,,307317.60000002384,307317.39999997616,304618.494,304631,304643.908,307335.183,,,
Trap 1,flow.Sequence,2_2,2022-04-25T17:19:13.548Z,,,,,,,,,,,,,,,,,,,,,,,,,,,,,,,13223.578999976162,,completion,,,,,,,,,,,,,,,,,,,,,307317.8000000119,307317.39999997616,294077.464,294086.8000000119,294093.821,307335.183,,,
Standby,html.Page,2_3_0,2022-04-25T17:19:21.550Z,,,,,,,,,,,,,,,,,,,,,,,,,,,,,,,8000.321999999986,,timeout,,,,,,,,,,,,,,,,,,,,,315319.6999999881,315318.824,307310.088,307317.89999997616,307335.183,315335.505,,,
Holding screen,html.Screen,2_3_1_0_0,2022-04-25T17:19:28.559Z,,,,,,,,,,,,,,,,,,,,,,,,,,,,,,,7008.325000000012,,timeout,,,,,,,,,,,,,,,,,,,,,322328,322326.543,315318.824,315319.89999997616,315335.505,322343.83,,,
screen,html.Screen,2_3_1_0_1_0,2022-04-25T17:19:30.348Z,,,,,,,,,,,,,,,,,2,,,,,,,,,,,,,,1772.8699999880628,,response,,,,1,B,,,,,,Space,keypress(Space),,,,lyrical,,,,Two ---- ------ --- ------- ---------- ------- ----------<br>--- --------- --- ----------- ------- ----- ------- ---<br>--------- ---- -- --- ---- -- --------- -- ---- -------<br>-- --------- ------ --- ----- ------ ---- --- --------- --<br>------ - ---- -- --- ----------- ------- ---- ----- -----<br>--- -------- - ------ ---- -- ----- ---- --- --- -----------<br>-- -------,324117.3000000119,324116.6999999881,322326.543,322328.10000002384,322343.83,324135.187,,0,Two
screen,html.Screen,2_3_1_0_1_1,2022-04-25T17:19:30.963Z,,,,,,,,,,,,,,,,,2,,,,,,,,,,,,,,597.2129999761819,,response,,,,1,B,,,,,,Space,keypress(Space),,,,lyrical,,,,--- days ------ --- ------- ---------- ------- ----------<br>--- --------- --- ----------- ------- ----- ------- ---<br>--------- ---- -- --- ---- -- --------- -- ---- -------<br>-- --------- ------ --- ----- ------ ---- --- --------- --<br>------ - ---- -- --- ----------- ------- ---- ----- -----<br>--- -------- - ------ ---- -- ----- ---- --- --- -----------<br>-- -------,324733,324732.39999997616,324109.344,324117.5,324135.187,324751.969,,1,days
screen,html.Screen,2_3_1_0_1_2,2022-04-25T17:19:31.617Z,,,,,,,,,,,,,,,,,2,,,,,,,,,,,,,,633.9309999761754,,response,,,,1,B,,,,,,Space,keypress(Space),,,,lyrical,,,,"--- ---- later, --- ------- ---------- ------- ----------<br>--- --------- --- ----------- ------- ----- ------- ---<br>--------- ---- -- --- ---- -- --------- -- ---- -------<br>-- --------- ------ --- ----- ------ ---- --- --------- --<br>------ - ---- -- --- ----------- ------- ---- ----- -----<br>--- -------- - ------ ---- -- ----- ---- --- --- -----------<br>-- -------",325386.60000002384,325385.89999997616,324718.341,324733.10000002384,324751.969,325393.728,,2,"later,"
screen,html.Screen,2_3_1_0_1_3,2022-04-25T17:19:32.379Z,,,,,,,,,,,,,,,,,2,,,,,,,,,,,,,,753.8720000238391,,response,,,,1,B,,,,,,Space,keypress(Space),,,,lyrical,,,,--- ---- ------ the ------- ---------- ------- ----------<br>--- --------- --- ----------- ------- ----- ------- ---<br>--------- ---- -- --- ---- -- --------- -- ---- -------<br>-- --------- ------ --- ----- ------ ---- --- --------- --<br>------ - ---- -- --- ----------- ------- ---- ----- -----<br>--- -------- - ------ ---- -- ----- ---- --- --- -----------<br>-- -------,326148.3000000119,326147.60000002384,325384.44,325386.6999999881,325393.728,326160.163,,3,the
screen,html.Screen,2_3_1_0_1_4,2022-04-25T17:19:33.003Z,,,,,,,,,,,,,,,,,2,,,,,,,,,,,,,,609.6370000119205,,response,,,,1,B,,,,,,Space,keypress(Space),,,,lyrical,,,,--- ---- ------ --- British ---------- ------- ----------<br>--- --------- --- ----------- ------- ----- ------- ---<br>--------- ---- -- --- ---- -- --------- -- ---- -------<br>-- --------- ------ --- ----- ------ ---- --- --------- --<br>------ - ---- -- --- ----------- ------- ---- ----- -----<br>--- -------- - ------ ---- -- ----- ---- --- --- -----------<br>-- -------,326772.8000000119,326769.8000000119,326142.997,326148.39999997616,326160.163,326776.332,,4,British
screen,html.Screen,2_3_1_0_1_5,2022-04-25T17:19:33.817Z,,,,,,,,,,,,,,,,,2,,,,,,,,,,,,,,809.5679999761633,,response,,,,1,B,,,,,,Space,keypress(Space),,,,lyrical,,,,--- ---- ------ --- ------- astronomer ------- ----------<br>--- --------- --- ----------- ------- ----- ------- ---<br>--------- ---- -- --- ---- -- --------- -- ---- -------<br>-- --------- ------ --- ----- ------ ---- --- --------- --<br>------ - ---- -- --- ----------- ------- ---- ----- -----<br>--- -------- - ------ ---- -- ----- ---- --- --- -----------<br>-- -------,327586.60000002384,327585.89999997616,326759.384,326772.89999997616,326776.332,327593.081,,5,astronomer
screen,html.Screen,2_3_1_0_1_6,2022-04-25T17:19:34.531Z,,,,,,,,,,,,,,,,,2,,,,,,,,,,,,,,706.8189999761526,,response,,,,1,B,,,,,,Space,keypress(Space),,,,lyrical,,,,--- ---- ------ --- ------- ---------- Richard ----------<br>--- --------- --- ----------- ------- ----- ------- ---<br>--------- ---- -- --- ---- -- --------- -- ---- -------<br>-- --------- ------ --- ----- ------ ---- --- --------- --<br>------ - ---- -- --- ----------- ------- ---- ----- -----<br>--- -------- - ------ ---- -- ----- ---- --- --- -----------<br>-- -------,328300.5,328299.89999997616,327576.132,327586.6999999881,327593.081,328310.236,,6,Richard
screen,html.Screen,2_3_1_0_1_7,2022-04-25T17:19:35.336Z,,,,,,,,,,,,,,,,,2,,,,,,,,,,,,,,794.5640000119456,,response,,,,1,B,,,,,,Space,keypress(Space),,,,lyrical,,,,--- ---- ------ --- ------- ---------- ------- Carrington<br>--- --------- --- ----------- ------- ----- ------- ---<br>--------- ---- -- --- ---- -- --------- -- ---- -------<br>-- --------- ------ --- ----- ------ ---- --- --------- --<br>------ - ---- -- --- ----------- ------- ---- ----- -----<br>--- -------- - ------ ---- -- ----- ---- --- --- -----------<br>-- -------,329105.5,329104.8000000119,328293.16,328300.6999999881,328310.236,329126.621,,7,Carrington
screen,html.Screen,2_3_1_0_1_8,2022-04-25T17:19:36.084Z,,,,,,,,,,,,,,,,,2,,,,,,,,,,,,,,726.4790000238572,,response,,,,1,B,,,,,,Space,keypress(Space),,,,lyrical,,,,--- ---- ------ --- ------- ---------- ------- ----------<br>was --------- --- ----------- ------- ----- ------- ---<br>--------- ---- -- --- ---- -- --------- -- ---- -------<br>-- --------- ------ --- ----- ------ ---- --- --------- --<br>------ - ---- -- --- ----------- ------- ---- ----- -----<br>--- -------- - ------ ---- -- ----- ---- --- --- -----------<br>-- -------,329853.8000000119,329853.10000002384,329093.209,329105.60000002384,329126.621,329868.355,,8,was
screen,html.Screen,2_3_1_0_1_9,2022-04-25T17:19:36.779Z,,,,,,,,,,,,,,,,,2,,,,,,,,,,,,,,679.8449999880977,,response,,,,1,B,,,,,,Space,keypress(Space),,,,lyrical,,,,--- ---- ------ --- ------- ---------- ------- ----------<br>--- observing --- ----------- ------- ----- ------- ---<br>--------- ---- -- --- ---- -- --------- -- ---- -------<br>-- --------- ------ --- ----- ------ ---- --- --------- --<br>------ - ---- -- --- ----------- ------- ---- ----- -----<br>--- -------- - ------ ---- -- ----- ---- --- --- -----------<br>-- -------,330548.89999997616,330548.1999999881,329842.62,329853.89999997616,329868.355,330560.144,,9,observing
screen,html.Screen,2_3_1_0_1_10,2022-04-25T17:19:37.531Z,,,,,,,,,,,,,,,,,2,,,,,,,,,,,,,,739.3560000000289,,response,,,,1,B,,,,,,Space,keypress(Space),,,,lyrical,,,,--- ---- ------ --- ------- ---------- ------- ----------<br>--- --------- the ----------- ------- ----- ------- ---<br>--------- ---- -- --- ---- -- --------- -- ---- -------<br>-- --------- ------ --- ----- ------ ---- --- --------- --<br>------ - ---- -- --- ----------- ------- ---- ----- -----<br>--- -------- - ------ ---- -- ----- ---- --- --- -----------<br>-- -------,331300.1999999881,331299.5,330534.291,330549,330560.144,331326.496,,10,the
screen,html.Screen,2_3_1_0_1_11,2022-04-25T17:19:38.240Z,,,,,,,,,,,,,,,,,2,,,,,,,,,,,,,,682.3040000119363,,response,,,,1,B,,,,,,Space,keypress(Space),,,,lyrical,,,,--- ---- ------ --- ------- ---------- ------- ----------<br>--- --------- --- interesting ------- ----- ------- ---<br>--------- ---- -- --- ---- -- --------- -- ---- -------<br>-- --------- ------ --- ----- ------ ---- --- --------- --<br>------ - ---- -- --- ----------- ------- ---- ----- -----<br>--- -------- - ------ ---- -- ----- ---- --- --- -----------<br>-- -------,332009.5,332008.8000000119,331292.858,331300.3000000119,331326.496,332035.198,,11,interesting
screen,html.Screen,2_3_1_0_1_12,2022-04-25T17:19:38.964Z,,,,,,,,,,,,,,,,,2,,,,,,,,,,,,,,697.3020000000251,,response,,,,1,B,,,,,,Space,keypress(Space),,,,lyrical,,,,--- ---- ------ --- ------- ---------- ------- ----------<br>--- --------- --- ----------- sunspot ----- ------- ---<br>--------- ---- -- --- ---- -- --------- -- ---- -------<br>-- --------- ------ --- ----- ------ ---- --- --------- --<br>------ - ---- -- --- ----------- ------- ---- ----- -----<br>--- -------- - ------ ---- -- ----- ---- --- --- -----------<br>-- -------,332733.10000002384,332732.5,332001.393,332009.60000002384,332035.198,332751.307,,12,sunspot
screen,html.Screen,2_3_1_0_1_13,2022-04-25T17:19:39.802Z,,,,,,,,,,,,,,,,,2,,,,,,,,,,,,,,819.9930000119493,,response,,,,1,B,,,,,,Space,keypress(Space),,,,lyrical,,,,--- ---- ------ --- ------- ---------- ------- ----------<br>--- --------- --- ----------- ------- group ------- ---<br>--------- ---- -- --- ---- -- --------- -- ---- -------<br>-- --------- ------ --- ----- ------ ---- --- --------- --<br>------ - ---- -- --- ----------- ------- ---- ----- -----<br>--- -------- - ------ ---- -- ----- ---- --- --- -----------<br>-- -------,333571.89999997616,333571.3000000119,332717.573,332733.3000000119,332751.307,333593.443,,13,group
screen,html.Screen,2_3_1_0_1_14,2022-04-25T17:19:40.583Z,,,,,,,,,,,,,,,,,2,,,,,,,,,,,,,,758.0569999999716,,response,,,,1,B,,,,,,Space,keypress(Space),,,,lyrical,,,,--- ---- ------ --- ------- ---------- ------- ----------<br>--- --------- --- ----------- ------- ----- through ---<br>--------- ---- -- --- ---- -- --------- -- ---- -------<br>-- --------- ------ --- ----- ------ ---- --- --------- --<br>------ - ---- -- --- ----------- ------- ---- ----- -----<br>--- -------- - ------ ---- -- ----- ---- --- --- -----------<br>-- -------,334352.10000002384,334351.5,333567.809,333572,333593.443,334376.444,,14,through
screen,html.Screen,2_3_1_0_1_15,2022-04-25T17:19:41.257Z,,,,,,,,,,,,,,,,,2,,,,,,,,,,,,,,649.6560000238242,,response,,,,1,B,,,,,,Space,keypress(Space),,,,lyrical,,,,--- ---- ------ --- ------- ---------- ------- ----------<br>--- --------- --- ----------- ------- ----- ------- his<br>--------- ---- -- --- ---- -- --------- -- ---- -------<br>-- --------- ------ --- ----- ------ ---- --- --------- --<br>------ - ---- -- --- ----------- ------- ---- ----- -----<br>--- -------- - ------ ---- -- ----- ---- --- --- -----------<br>-- -------,335026.60000002384,335026.10000002384,334343.118,334352.1999999881,334376.444,335043.309,,15,his
screen,html.Screen,2_3_1_0_1_16,2022-04-25T17:19:42.135Z,,,,,,,,,,,,,,,,,2,,,,,,,,,,,,,,860.3909999880707,,response,,,,1,B,,,,,,Space,keypress(Space),,,,lyrical,,,,--- ---- ------ --- ------- ---------- ------- ----------<br>--- --------- --- ----------- ------- ----- ------- ---<br>telescope ---- -- --- ---- -- --------- -- ---- -------<br>-- --------- ------ --- ----- ------ ---- --- --------- --<br>------ - ---- -- --- ----------- ------- ---- ----- -----<br>--- -------- - ------ ---- -- ----- ---- --- --- -----------<br>-- -------,335904.3000000119,335903.6999999881,335026.362,335026.8000000119,335043.309,335909.558,,16,telescope
screen,html.Screen,2_3_1_0_1_17,2022-04-25T17:19:42.898Z,,,,,,,,,,,,,,,,,2,,,,,,,,,,,,,,756.841999976139,,response,,,,1,B,,,,,,Space,keypress(Space),,,,lyrical,,,,--- ---- ------ --- ------- ---------- ------- ----------<br>--- --------- --- ----------- ------- ----- ------- ---<br>--------- when -- --- ---- -- --------- -- ---- -------<br>-- --------- ------ --- ----- ------ ---- --- --------- --<br>------ - ---- -- --- ----------- ------- ---- ----- -----<br>--- -------- - ------ ---- -- ----- ---- --- --- -----------<br>-- -------,336667,336666.39999997616,335892.399,335904.39999997616,335909.558,336676.126,,17,when
screen,html.Screen,2_3_1_0_1_18,2022-04-25T17:19:43.569Z,,,,,,,,,,,,,,,,,2,,,,,,,,,,,,,,661.2739999761689,,response,,,,1,B,,,,,,Space,keypress(Space),,,,lyrical,,,,--- ---- ------ --- ------- ---------- ------- ----------<br>--- --------- --- ----------- ------- ----- ------- ---<br>--------- ---- he --- ---- -- --------- -- ---- -------<br>-- --------- ------ --- ----- ------ ---- --- --------- --<br>------ - ---- -- --- ----------- ------- ---- ----- -----<br>--- -------- - ------ ---- -- ----- ---- --- --- -----------<br>-- -------,337338.10000002384,337337.39999997616,336659.199,336667.10000002384,336676.126,337342.83,,18,he
screen,html.Screen,2_3_1_0_1_19,2022-04-25T17:19:44.177Z,,,,,,,,,,,,,,,,,2,,,,,,,,,,,,,,603.2700000238256,,response,,,,1,B,,,,,,Space,keypress(Space),,,,lyrical,,,,--- ---- ------ --- ------- ---------- ------- ----------<br>--- --------- --- ----------- ------- ----- ------- ---<br>--------- ---- -- saw ---- -- --------- -- ---- -------<br>-- --------- ------ --- ----- ------ ---- --- --------- --<br>------ - ---- -- --- ----------- ------- ---- ----- -----<br>--- -------- - ------ ---- -- ----- ---- --- --- -----------<br>-- -------,337946.60000002384,337946.10000002384,337325.85,337338.1999999881,337342.83,337959.777,,19,saw
screen,html.Screen,2_3_1_0_1_20,2022-04-25T17:19:44.938Z,,,,,,,,,,,,,,,,,2,,,,,,,,,,,,,,746.82300002384,,response,,,,1,B,,,,,,Space,keypress(Space),,,,lyrical,,,,--- ---- ------ --- ------- ---------- ------- ----------<br>--- --------- --- ----------- ------- ----- ------- ---<br>--------- ---- -- --- what -- --------- -- ---- -------<br>-- --------- ------ --- ----- ------ ---- --- --------- --<br>------ - ---- -- --- ----------- ------- ---- ----- -----<br>--- -------- - ------ ---- -- ----- ---- --- --- -----------<br>-- -------,338707.39999997616,338706.60000002384,337942.824,337946.8000000119,337959.777,338726.134,,20,what
screen,html.Screen,2_3_1_0_1_21,2022-04-25T17:19:45.618Z,,,,,,,,,,,,,,,,,2,,,,,,,,,,,,,,660.7659999761381,,response,,,,1,B,,,,,,Space,keypress(Space),,,,lyrical,,,,--- ---- ------ --- ------- ---------- ------- ----------<br>--- --------- --- ----------- ------- ----- ------- ---<br>--------- ---- -- --- ---- he --------- -- ---- -------<br>-- --------- ------ --- ----- ------ ---- --- --------- --<br>------ - ---- -- --- ----------- ------- ---- ----- -----<br>--- -------- - ------ ---- -- ----- ---- --- --- -----------<br>-- -------,339387.39999997616,339386.89999997616,338692.379,338707.39999997616,338726.134,339392.814,,21,he
screen,html.Screen,2_3_1_0_1_22,2022-04-25T17:19:46.314Z,,,,,,,,,,,,,,,,,2,,,,,,,,,,,,,,691.0859999761451,,response,,,,1,B,,,,,,Space,keypress(Space),,,,lyrical,,,,--- ---- ------ --- ------- ---------- ------- ----------<br>--- --------- --- ----------- ------- ----- ------- ---<br>--------- ---- -- --- ---- -- described -- ---- -------<br>-- --------- ------ --- ----- ------ ---- --- --------- --<br>------ - ---- -- --- ----------- ------- ---- ----- -----<br>--- -------- - ------ ---- -- ----- ---- --- --- -----------<br>-- -------,340084.60000002384,340083.89999997616,339375.953,339387.60000002384,339392.814,340109.814,,22,described
screen,html.Screen,2_3_1_0_1_23,2022-04-25T17:19:46.945Z,,,,,,,,,,,,,,,,,2,,,,,,,,,,,,,,605.385999988066,,response,,,,1,B,,,,,,Space,keypress(Space),,,,lyrical,,,,--- ---- ------ --- ------- ---------- ------- ----------<br>--- --------- --- ----------- ------- ----- ------- ---<br>--------- ---- -- --- ---- -- --------- as ---- -------<br>-- --------- ------ --- ----- ------ ---- --- --------- --<br>------ - ---- -- --- ----------- ------- ---- ----- -----<br>--- -------- - ------ ---- -- ----- ---- --- --- -----------<br>-- -------,340715.89999997616,340715.1999999881,340075.979,340084.6999999881,340109.814,340726.115,,23,as
screen,html.Screen,2_3_1_0_1_24,2022-04-25T17:19:47.647Z,,,,,,,,,,,,,,,,,2,,,,,,,,,,,,,,690.2849999761675,,response,,,,1,B,,,,,,Space,keypress(Space),,,,lyrical,,,,"--- ---- ------ --- ------- ---------- ------- ----------<br>--- --------- --- ----------- ------- ----- ------- ---<br>--------- ---- -- --- ---- -- --------- -- ""two -------<br>-- --------- ------ --- ----- ------ ---- --- --------- --<br>------ - ---- -- --- ----------- ------- ---- ----- -----<br>--- -------- - ------ ---- -- ----- ---- --- --- -----------<br>-- -------",341417.10000002384,341416.39999997616,340709.609,340716,340726.115,341442.732,,24,"""two"
screen,html.Screen,2_3_1_0_1_25,2022-04-25T17:19:48.490Z,,,,,,,,,,,,,,,,,2,,,,,,,,,,,,,,817.16799997614,,response,,,,1,B,,,,,,Space,keypress(Space),,,,lyrical,,,,--- ---- ------ --- ------- ---------- ------- ----------<br>--- --------- --- ----------- ------- ----- ------- ---<br>--------- ---- -- --- ---- -- --------- -- ---- patches<br>-- --------- ------ --- ----- ------ ---- --- --------- --<br>------ - ---- -- --- ----------- ------- ---- ----- -----<br>--- -------- - ------ ---- -- ----- ---- --- --- -----------<br>-- -------,342260.5,342259.89999997616,341409.117,341417.1999999881,341442.732,342284.671,,25,patches
screen,html.Screen,2_3_1_0_1_26,2022-04-25T17:19:49.222Z,,,,,,,,,,,,,,,,,2,,,,,,,,,,,,,,707.329000000027,,response,,,,1,B,,,,,,Space,keypress(Space),,,,lyrical,,,,--- ---- ------ --- ------- ---------- ------- ----------<br>--- --------- --- ----------- ------- ----- ------- ---<br>--------- ---- -- --- ---- -- --------- -- ---- -------<br>of --------- ------ --- ----- ------ ---- --- --------- --<br>------ - ---- -- --- ----------- ------- ---- ----- -----<br>--- -------- - ------ ---- -- ----- ---- --- --- -----------<br>-- -------,342992.60000002384,342992,342258.971,342260.60000002384,342284.671,343001.562,,26,of
screen,html.Screen,2_3_1_0_1_27,2022-04-25T17:19:50.129Z,,,,,,,,,,,,,,,,,2,,,,,,,,,,,,,,897.4380000000237,,response,,,,1,B,,,,,,Space,keypress(Space),,,,lyrical,,,,--- ---- ------ --- ------- ---------- ------- ----------<br>--- --------- --- ----------- ------- ----- ------- ---<br>--------- ---- -- --- ---- -- --------- -- ---- -------<br>-- intensely ------ --- ----- ------ ---- --- --------- --<br>------ - ---- -- --- ----------- ------- ---- ----- -----<br>--- -------- - ------ ---- -- ----- ---- --- --- -----------<br>-- -------,343899.60000002384,343899,342984.214,342992.8000000119,343001.562,343917.973,,27,intensely
screen,html.Screen,2_3_1_0_1_28,2022-04-25T17:19:50.885Z,,,,,,,,,,,,,,,,,2,,,,,,,,,,,,,,736.7269999880809,,response,,,,1,B,,,,,,Space,keypress(Space),,,,lyrical,,,,--- ---- ------ --- ------- ---------- ------- ----------<br>--- --------- --- ----------- ------- ----- ------- ---<br>--------- ---- -- --- ---- -- --------- -- ---- -------<br>-- --------- bright --- ----- ------ ---- --- --------- --<br>------ - ---- -- --- ----------- ------- ---- ----- -----<br>--- -------- - ------ ---- -- ----- ---- --- --- -----------<br>-- -------,344655.39999997616,344654.6999999881,343884.084,343899.6999999881,343917.973,344676.323,,28,bright
screen,html.Screen,2_3_1_0_1_29,2022-04-25T17:19:51.768Z,,,,,,,,,,,,,,,,,2,,,,,,,,,,,,,,860.9770000119461,,response,,,,1,B,,,,,,Space,keypress(Space),,,,lyrical,,,,--- ---- ------ --- ------- ---------- ------- ----------<br>--- --------- --- ----------- ------- ----- ------- ---<br>--------- ---- -- --- ---- -- --------- -- ---- -------<br>-- --------- ------ and ----- ------ ---- --- --------- --<br>------ - ---- -- --- ----------- ------- ---- ----- -----<br>--- -------- - ------ ---- -- ----- ---- --- --- -----------<br>-- -------,345538,345537.3000000119,344650.917,344655.5,344676.323,345542.596,,29,and
screen,html.Screen,2_3_1_0_1_30,2022-04-25T17:19:52.478Z,,,,,,,,,,,,,,,,,2,,,,,,,,,,,,,,704.8039999761386,,response,,,,1,B,,,,,,Space,keypress(Space),,,,lyrical,,,,--- ---- ------ --- ------- ---------- ------- ----------<br>--- --------- --- ----------- ------- ----- ------- ---<br>--------- ---- -- --- ---- -- --------- -- ---- -------<br>-- --------- ------ --- white ------ ---- --- --------- --<br>------ - ---- -- --- ----------- ------- ---- ----- -----<br>--- -------- - ------ ---- -- ----- ---- --- --- -----------<br>-- -------,346248,346247.39999997616,345526.084,345538.10000002384,345542.596,346259.361,,30,white
screen,html.Screen,2_3_1_0_1_31,2022-04-25T17:19:53.200Z,,,,,,,,,,,,,,,,,2,,,,,,,,,,,,,,710.5389999761828,,response,,,,1,B,,,,,,Space,keypress(Space),,,,lyrical,,,,"--- ---- ------ --- ------- ---------- ------- ----------<br>--- --------- --- ----------- ------- ----- ------- ---<br>--------- ---- -- --- ---- -- --------- -- ---- -------<br>-- --------- ------ --- ----- light"" ---- --- --------- --<br>------ - ---- -- --- ----------- ------- ---- ----- -----<br>--- -------- - ------ ---- -- ----- ---- --- --- -----------<br>-- -------",346970.6999999881,346969.89999997616,346242.232,346248.1999999881,346259.361,346993.174,,31,"light"""
screen,html.Screen,2_3_1_0_1_32,2022-04-25T17:19:53.995Z,,,,,,,,,,,,,,,,,2,,,,,,,,,,,,,,772.02599998808,,response,,,,1,B,,,,,,Space,keypress(Space),,,,lyrical,,,,--- ---- ------ --- ------- ---------- ------- ----------<br>--- --------- --- ----------- ------- ----- ------- ---<br>--------- ---- -- --- ---- -- --------- -- ---- -------<br>-- --------- ------ --- ----- ------ over --- --------- --<br>------ - ---- -- --- ----------- ------- ---- ----- -----<br>--- -------- - ------ ---- -- ----- ---- --- --- -----------<br>-- -------,347765.8000000119,347765.1999999881,346958.986,346970.8000000119,346993.174,347784.629,,32,over
screen,html.Screen,2_3_1_0_1_33,2022-04-25T17:19:54.595Z,,,,,,,,,,,,,,,,,2,,,,,,,,,,,,,,579.9710000238265,,response,,,,1,B,,,,,,Space,keypress(Space),,,,lyrical,,,,--- ---- ------ --- ------- ---------- ------- ----------<br>--- --------- --- ----------- ------- ----- ------- ---<br>--------- ---- -- --- ---- -- --------- -- ---- -------<br>-- --------- ------ --- ----- ------ ---- the --------- --<br>------ - ---- -- --- ----------- ------- ---- ----- -----<br>--- -------- - ------ ---- -- ----- ---- --- --- -----------<br>-- -------,348365.1999999881,348364.60000002384,347759.33,347766,347784.629,348376.41,,33,the
screen,html.Screen,2_3_1_0_1_34,2022-04-25T17:19:55.337Z,,,,,,,,,,,,,,,,,2,,,,,,,,,,,,,,730.5900000000256,,response,,,,1,B,,,,,,Space,keypress(Space),,,,lyrical,,,,--- ---- ------ --- ------- ---------- ------- ----------<br>--- --------- --- ----------- ------- ----- ------- ---<br>--------- ---- -- --- ---- -- --------- -- ---- -------<br>-- --------- ------ --- ----- ------ ---- --- sunspots. --<br>------ - ---- -- --- ----------- ------- ---- ----- -----<br>--- -------- - ------ ---- -- ----- ---- --- --- -----------<br>-- -------,349107.60000002384,349107,348351.062,348365.39999997616,348376.41,349117.519,,34,sunspots.
screen,html.Screen,2_3_1_0_1_35,2022-04-25T17:19:56.037Z,,,,,,,,,,,,,,,,,2,,,,,,,,,,,,,,689.1809999881079,,response,,,,1,B,,,,,,Space,keypress(Space),,,,lyrical,,,,--- ---- ------ --- ------- ---------- ------- ----------<br>--- --------- --- ----------- ------- ----- ------- ---<br>--------- ---- -- --- ---- -- --------- -- ---- -------<br>-- --------- ------ --- ----- ------ ---- --- --------- He<br>------ - ---- -- --- ----------- ------- ---- ----- -----<br>--- -------- - ------ ---- -- ----- ---- --- --- -----------<br>-- -------,349807.39999997616,349806.6999999881,349092.37,349107.8000000119,349117.519,349834.733,,35,He
screen,html.Screen,2_3_1_0_1_36,2022-04-25T17:19:56.765Z,,,,,,,,,,,,,,,,,2,,,,,,,,,,,,,,699.8670000238344,,response,,,,1,B,,,,,,Space,keypress(Space),,,,lyrical,,,,--- ---- ------ --- ------- ---------- ------- ----------<br>--- --------- --- ----------- ------- ----- ------- ---<br>--------- ---- -- --- ---- -- --------- -- ---- -------<br>-- --------- ------ --- ----- ------ ---- --- --------- --<br>jotted - ---- -- --- ----------- ------- ---- ----- -----<br>--- -------- - ------ ---- -- ----- ---- --- --- -----------<br>-- -------,350535.1999999881,350534.60000002384,349800.768,349808.3000000119,349834.733,350551.462,,36,jotted
screen,html.Screen,2_3_1_0_1_37,2022-04-25T17:19:57.384Z,,,,,,,,,,,,,,,,,2,,,,,,,,,,,,,,601.8380000119214,,response,,,,1,B,,,,,,Space,keypress(Space),,,,lyrical,,,,--- ---- ------ --- ------- ---------- ------- ----------<br>--- --------- --- ----------- ------- ----- ------- ---<br>--------- ---- -- --- ---- -- --------- -- ---- -------<br>-- --------- ------ --- ----- ------ ---- --- --------- --<br>------ a ---- -- --- ----------- ------- ---- ----- -----<br>--- -------- - ------ ---- -- ----- ---- --- --- -----------<br>-- -------,351154,351153.3000000119,350534.117,350535.3000000119,350551.462,351167.84,,37,a
screen,html.Screen,2_3_1_0_1_38,2022-04-25T17:19:58.065Z,,,,,,,,,,,,,,,,,2,,,,,,,,,,,,,,666.9600000118953,,response,,,,1,B,,,,,,Space,keypress(Space),,,,lyrical,,,,--- ---- ------ --- ------- ---------- ------- ----------<br>--- --------- --- ----------- ------- ----- ------- ---<br>--------- ---- -- --- ---- -- --------- -- ---- -------<br>-- --------- ------ --- ----- ------ ---- --- --------- --<br>------ - note -- --- ----------- ------- ---- ----- -----<br>--- -------- - ------ ---- -- ----- ---- --- --- -----------<br>-- -------,351835.39999997616,351834.8000000119,351151.036,351154.10000002384,351167.84,351859.669,,38,note
