sender,sender_type,sender_id,timestamp,meta,,Blues,Classical,Country,Dance,Electronic,Folk,Gospel,Hip-Hop,Jazz,Latin,Musical/Film,New-age,Pop,Prolific_id,Provo_ID,R&B,Rap,Reggae,Religious,Rock,Soul,Swing,Traditional,age,artist_name,correct,correctResponse,distraction,duration,education,ended_on,familiarity,gender,headphone_check_performance,item,list,music_frequency,offensiveness,pleasantness,position_correct,preference,response,response_action,snippet_file,song_name,song_rating,sound,stimulus_1,stimulus_2,stimulus_3,text,time_commit,time_end,time_render,time_run,time_show,time_switch,url,word,word_ID
Prolific ID,html.Form,0,2022-05-09T16:21:23.806Z,"{""labjs_version"":""20.2.2"",""labjs_build"":{""flavor"":""production"",""commit"":""a25486e0c714a0ae2ce03ff94b7bb6896854dcfa""},""location"":""https://run.pavlovia.org/mvasilev/prolific3_music_g/"",""userAgent"":""Mozilla/5.0 (X11; CrOS x86_64 14526.89.0) AppleWebKit/537.36 (KHTML, like Gecko) Chrome/100.0.4896.133 Safari/537.36"",""platform"":""Linux x86_64"",""language"":""en-GB"",""locale"":""en-GB"",""timeZone"":""Europe/London"",""timezoneOffset"":-60,""screen_width"":1300,""screen_height"":731,""scroll_width"":1300,""scroll_height"":580,""window_innerWidth"":1300,""window_innerHeight"":580,""devicePixelRatio"":1.0499999523162842}",,,,,,,,,,,,,,,5e94750cc1e0092b6b028461,,,,,,,,,,,,,,,21459.593999999626,,form submission,,,,,,,,,,,,,,,,,,,,,39984.299999999814,39981.59999999963,18388.806,18363.599999999627,18522.006,40034.31,{},,
Introduction,html.Screen,1_0,2022-05-09T16:21:32.891Z,,,,,,,,,,,,,,,,,,,,,,,,,,,,,,,9028.690000000002,,response,,,,,,,,,,,continue,click button,,,,,,,,,49069.69999999972,49063,39951.06,39986.5,40034.31,49092.111,,,
Volume calibration,html.Screen,1_1,2022-05-09T16:21:51.622Z,,,,,,,,,,,,,,,,,,,,,,,,,,,,,,,18698.98899999963,,response,,,,,,,,,,,continue,click button,,,,,,,,,67800.19999999972,67791.09999999963,49058.811,49069.89999999991,49092.111,67807.137,,,
Task instructions,html.Screen,1_2,2022-05-09T16:21:57.227Z,,,,,,,,,,,,,,,,,,,,,,,,,,,,,,,5591.062999999718,,response,,,,,,,,,,,continue,click button,,,,,,,,,73405.5,73398.19999999972,67790.487,67800.3999999999,67807.137,73401.61,,,
Sounds,html.Screen,1_3_0_0,2022-05-09T16:22:01.461Z,,,,,,,,,,,,,,,,,,,,,,,,,,,,,,,4245.797000000006,,timeout,,,,,,,,,3,,,,,,,,I,O,S,,77639.3999999999,77630.757,73384.96,73405.79999999981,73401.61,77647.407,,,
Judgement,html.Screen,1_3_0_1,2022-05-09T16:22:10.618Z,,,,,,,,,,,,,,,,,,,,,,,,,,,,false,3,,9144.4929999999,,response,,,,,,,,,3,,2,click #choice-2,,,,,I,O,S,,86796.59999999963,86791.8999999999,77630.757,77640,77647.407,86805.205,,,
Trial,flow.Sequence,1_3_0,2022-05-09T16:22:10.621Z,,,,,,,,,,,,,,,,,,,,,,,,,,,,,,,13390.289999999906,,completion,,,,,,,,,3,,,,,,,,I,O,S,,86799.3999999999,86791.8999999999,73384.96,73405.79999999981,73401.61,86805.205,,,
Sounds,html.Screen,1_3_1_0,2022-05-09T16:22:14.858Z,,,,,,,,,,,,,,,,,,,,,,,,,,,,,,,4245.830999999991,,timeout,,,,,,,,,3,,,,,,,,O,I,S,,91036.5,91034.386,86788.555,86800,86805.205,91051.036,,,
Judgement,html.Screen,1_3_1_1,2022-05-09T16:22:16.848Z,,,,,,,,,,,,,,,,,,,,,,,,,,,,true,3,,1970.5639999996347,,response,,,,,,,,,3,,3,click #choice-3,,,,,O,I,S,,93026.19999999972,93021.59999999963,91034.386,91037,91051.036,93032.45,,,
Trial,flow.Sequence,1_3_1,2022-05-09T16:22:16.848Z,,,,,,,,,,,,,,,,,,,,,,,,,,,,,,,6216.394999999626,,completion,,,,,,,,,3,,,,,,,,O,I,S,,93026.59999999963,93021.59999999963,86788.555,86799.59999999963,86805.205,93032.45,,,
Sounds,html.Screen,1_3_2_0,2022-05-09T16:22:21.086Z,,,,,,,,,,,,,,,,,,,,,,,,,,,,,,,4245.76400000001,,timeout,,,,,,,,,2,,,,,,,,I,S,O,,97264.29999999981,97261.564,93015.8,93027,93032.45,97278.214,,,
Judgement,html.Screen,1_3_2_1,2022-05-09T16:22:22.732Z,,,,,,,,,,,,,,,,,,,,,,,,,,,,true,2,,1626.9859999997134,,response,,,,,,,,,2,,2,click #choice-2,,,,,I,S,O,,98909.79999999981,98905.19999999972,97261.564,97264.8999999999,97278.214,98910.035,,,
Trial,flow.Sequence,1_3_2,2022-05-09T16:22:22.732Z,,,,,,,,,,,,,,,,,,,,,,,,,,,,,,,5872.7499999997235,,completion,,,,,,,,,2,,,,,,,,I,S,O,,98910.5,98905.19999999972,93015.8,93027,93032.45,98910.035,,,
Sounds,html.Screen,1_3_3_0,2022-05-09T16:22:26.963Z,,,,,,,,,,,,,,,,,,,,,,,,,,,,,,,4245.762000000002,,timeout,,,,,,,,,1,,,,,,,,S,I,O,,103141.5,103139.147,98893.385,98910.8999999999,98910.035,103155.797,,,
Judgement,html.Screen,1_3_3_1,2022-05-09T16:22:28.347Z,,,,,,,,,,,,,,,,,,,,,,,,,,,,true,1,,1365.9029999997147,,response,,,,,,,,,1,,1,click #choice-1,,,,,S,I,O,,104525.19999999972,104521.69999999972,103139.147,103142,103155.797,104537.861,,,
Trial,flow.Sequence,1_3_3,2022-05-09T16:22:28.347Z,,,,,,,,,,,,,,,,,,,,,,,,,,,,,,,5611.664999999717,,completion,,,,,,,,,1,,,,,,,,S,I,O,,104525.59999999963,104521.69999999972,98893.385,98910.69999999972,98910.035,104537.861,,,
Sounds,html.Screen,1_3_4_0,2022-05-09T16:22:32.590Z,,,,,,,,,,,,,,,,,,,,,,,,,,,,,,,4245.747999999992,,timeout,,,,,,,,,2,,,,,,,,O,S,I,,108768.29999999981,108766.959,104521.211,104525.79999999981,104537.861,108783.609,,,
Judgement,html.Screen,1_3_4_1,2022-05-09T16:22:33.024Z,,,,,,,,,,,,,,,,,,,,,,,,,,,,true,2,,412.89100000000326,,response,,,,,,,,,2,,2,click #choice-2,,,,,O,S,I,,109201.8999999999,109196.5,108766.959,108768.5,108783.609,109199.965,,,
Trial,flow.Sequence,1_3_4,2022-05-09T16:22:33.024Z,,,,,,,,,,,,,,,,,,,,,,,,,,,,,,,4658.638999999996,,completion,,,,,,,,,2,,,,,,,,O,S,I,,109202.19999999972,109196.5,104521.211,104525.69999999972,104537.861,109199.965,,,
Sounds,html.Screen,1_3_5_0,2022-05-09T16:22:37.252Z,,,,,,,,,,,,,,,,,,,,,,,,,,,,,,,4245.751000000004,,timeout,,,,,,,,,1,,,,,,,,S,O,I,,113430.19999999972,113429.066,109183.315,109202.3999999999,109199.965,113445.716,,,
Judgement,html.Screen,1_3_5_1,2022-05-09T16:22:37.747Z,,,,,,,,,,,,,,,,,,,,,,,,,,,,true,1,,475.98399999972025,,response,,,,,,,,,1,,1,click #choice-1,,,,,S,O,I,,113925.69999999972,113921.69999999972,113429.066,113430.3999999999,113445.716,113928.672,,,
Trial,flow.Sequence,1_3_5,2022-05-09T16:22:37.748Z,,,,,,,,,,,,,,,,,,,,,,,,,,,,,,,4721.734999999724,,completion,,,,,,,,,1,,,,,,,,S,O,I,,113926,113921.69999999972,109183.315,109202.19999999972,109199.965,113928.672,,,
Task,flow.Loop,1_3,2022-05-09T16:22:37.755Z,,,,,,,,,,,,,,,,,,,,,,,,,,,,,,,40520.08999999972,,completion,,,0.8333333333333334,,,,,,,,,,,,,,,,,,113933.29999999981,113921.69999999972,73384.96,73405.69999999972,73401.61,113928.672,,,
Trap,html.Screen,1_4,2022-05-09T16:22:37.758Z,,,,,,,,,,,,,,,,,,,,,,,,,,,,,,,NaN,,skipped,,,,,,,,,,,,,,,,,,,,,113935.8999999999,113921.69999999972,,113935.59999999963,,113928.672,,,
Thanks,html.Screen,1_5,2022-05-09T16:22:43.057Z,,,,,,,,,,,,,,,,,,,,,,,,,,,,,,,5302.127999999808,,response,,,,,,,,,,,continue,click button,,,,,,,,,119235.59999999963,119230.79999999981,113912.022,113936,113928.672,121254.807,,,
Headphone screening,flow.Sequence,1,2022-05-09T16:22:43.058Z,,,,,,,,,,,,,,,,,,,,,,,,,,,,,,,79196.48999999982,,completion,,,,,,,,,,,,,,,,,,,,,119236.09999999963,119230.79999999981,39951.06,39986.39999999991,40034.31,121254.807,,,
Instructions,html.Page,2_0,2022-05-09T16:22:54.135Z,,,,,,,,,,,,,,,,,,,,,,,,,,,,,,,9057.092999999906,,form submission,,,,,,,,,,,,,,,,,,,,,130312.8999999999,130311.8999999999,121238.157,121233.59999999963,121254.807,130312.582,,,
Holding screen,html.Screen,2_1_0_0,2022-05-09T16:23:04.127Z,,,,,,,,,,,,,,,,,,,,,,,,,,,,,,,10056.887000000017,,timeout,,,,,,,,,,,,,,,,,,,,,140305.09999999963,140302.869,130295.932,130313.3999999999,130312.582,140369.469,,,
screen,html.Screen,2_1_0_1_0,2022-05-09T16:23:05.630Z,,,,,,,,,,,,,,,,,53,,,,,,,,,,,,,,1433.1309999996156,,response,,,,99,,,,,,,Space,keypress(Space),,,,,,,,When -- ----- -- ------ - ------- --- ----------<br>------------- ------ ------ ---- ---- ------- ----- -- ----<br>-------- ------- -- ---------- --- - --- ----- ----- ----<br>---- --- --- ----- --- ---- ---- ------- ----- ---- -------<br>--- --- -- ----- -- --- ---- -- --- ---- -- ------ ------<br>--- ----- -- ----,141808.09999999963,141802.59999999963,140302.869,140305.7999999998,140369.469,141818.032,,0,When
screen,html.Screen,2_1_0_1_1,2022-05-09T16:23:06.079Z,,,,,,,,,,,,,,,,,53,,,,,,,,,,,,,,436.4679999999935,,response,,,,99,,,,,,,Space,keypress(Space),,,,,,,,---- it ----- -- ------ - ------- --- ----------<br>------------- ------ ------ ---- ---- ------- ----- -- ----<br>-------- ------- -- ---------- --- - --- ----- ----- ----<br>---- --- --- ----- --- ---- ---- ------- ----- ---- -------<br>--- --- -- ----- -- --- ---- -- --- ---- -- ------ ------<br>--- ----- -- ----,142256.7999999998,142254.5,141801.382,141808.3999999999,141818.032,142267.601,,1,it
screen,html.Screen,2_1_0_1_2,2022-05-09T16:23:06.425Z,,,,,,,,,,,,,,,,,53,,,,,,,,,,,,,,333.5989999997255,,response,,,,99,,,,,,,Space,keypress(Space),,,,,,,,---- -- comes -- ------ - ------- --- ----------<br>------------- ------ ------ ---- ---- ------- ----- -- ----<br>-------- ------- -- ---------- --- - --- ----- ----- ----<br>---- --- --- ----- --- ---- ---- ------- ----- ---- -------<br>--- --- -- ----- -- --- ---- -- --- ---- -- ------ ------<br>--- ----- -- ----,142603.3999999999,142601.19999999972,142250.951,142257.09999999963,142267.601,142617.269,,2,comes
screen,html.Screen,2_1_0_1_3,2022-05-09T16:23:06.766Z,,,,,,,,,,,,,,,,,53,,,,,,,,,,,,,,324.83099999962724,,response,,,,99,,,,,,,Space,keypress(Space),,,,,,,,---- -- ----- to ------ - ------- --- ----------<br>------------- ------ ------ ---- ---- ------- ----- -- ----<br>-------- ------- -- ---------- --- - --- ----- ----- ----<br>---- --- --- ----- --- ---- ---- ------- ----- ---- -------<br>--- --- -- ----- -- --- ---- -- --- ---- -- ------ ------<br>--- ----- -- ----,142944.7999999998,142942.09999999963,142600.619,142603.59999999963,142617.269,142950.288,,3,to
screen,html.Screen,2_1_0_1_4,2022-05-09T16:23:07.146Z,,,,,,,,,,,,,,,,,53,,,,,,,,,,,,,,371.91199999972014,,response,,,,99,,,,,,,Space,keypress(Space),,,,,,,,---- -- ----- -- having - ------- --- ----------<br>------------- ------ ------ ---- ---- ------- ----- -- ----<br>-------- ------- -- ---------- --- - --- ----- ----- ----<br>---- --- --- ----- --- ---- ---- ------- ----- ---- -------<br>--- --- -- ----- -- --- ---- -- --- ---- -- ------ ------<br>--- ----- -- ----,143324.69999999972,143322.19999999972,142933.638,142944.8999999999,142950.288,143333.234,,4,having
screen,html.Screen,2_1_0_1_5,2022-05-09T16:23:07.574Z,,,,,,,,,,,,,,,,,53,,,,,,,,,,,,,,416.26600000000326,,response,,,,99,,,,,,,Space,keypress(Space),,,,,,,,---- -- ----- -- ------ a ------- --- ----------<br>------------- ------ ------ ---- ---- ------- ----- -- ----<br>-------- ------- -- ---------- --- - --- ----- ----- ----<br>---- --- --- ----- --- ---- ---- ------- ----- ---- -------<br>--- --- -- ----- -- --- ---- -- --- ---- -- ------ ------<br>--- ----- -- ----,143751.7999999998,143749.5,143316.584,143325,143333.234,143766.138,,5,a
screen,html.Screen,2_1_0_1_6,2022-05-09T16:23:07.979Z,,,,,,,,,,,,,,,,,53,,,,,,,,,,,,,,388.4619999996212,,response,,,,99,,,,,,,Space,keypress(Space),,,,,,,,---- -- ----- -- ------ - lasting --- ----------<br>------------- ------ ------ ---- ---- ------- ----- -- ----<br>-------- ------- -- ---------- --- - --- ----- ----- ----<br>---- --- --- ----- --- ---- ---- ------- ----- ---- -------<br>--- --- -- ----- -- --- ---- -- --- ---- -- ------ ------<br>--- ----- -- ----,144157.2999999998,144154.59999999963,143749.488,143752.09999999963,143766.138,144165.754,,6,lasting
screen,html.Screen,2_1_0_1_7,2022-05-09T16:23:08.334Z,,,,,,,,,,,,,,,,,53,,,,,,,,,,,,,,344.1459999999206,,response,,,,99,,,,,,,Space,keypress(Space),,,,,,,,---- -- ----- -- ------ - ------- and ----------<br>------------- ------ ------ ---- ---- ------- ----- -- ----<br>-------- ------- -- ---------- --- - --- ----- ----- ----<br>---- --- --- ----- --- ---- ---- ------- ----- ---- -------<br>--- --- -- ----- -- --- ---- -- --- ---- -- ------ ------<br>--- ----- -- ----,144512.09999999963,144509.8999999999,144149.104,144157.5,144165.754,144515.42,,7,and
screen,html.Screen,2_1_0_1_8,2022-05-09T16:23:08.721Z,,,,,,,,,,,,,,,,,53,,,,,,,,,,,,,,381.0799999999872,,response,,,,99,,,,,,,Space,keypress(Space),,,,,,,,---- -- ----- -- ------ - ------- --- fulfilling<br>------------- ------ ------ ---- ---- ------- ----- -- ----<br>-------- ------- -- ---------- --- - --- ----- ----- ----<br>---- --- --- ----- --- ---- ---- ------- ----- ---- -------<br>--- --- -- ----- -- --- ---- -- --- ---- -- ------ ------<br>--- ----- -- ----,144899,144896.5,144498.77,144512.2999999998,144515.42,144915.023,,8,fulfilling
screen,html.Screen,2_1_0_1_9,2022-05-09T16:23:09.109Z,,,,,,,,,,,,,,,,,53,,,,,,,,,,,,,,369.576999999641,,response,,,,99,,,,,,,Space,keypress(Space),,,,,,,,"---- -- ----- -- ------ - ------- --- ----------<br>relationship, ------ ------ ---- ---- ------- ----- -- ----<br>-------- ------- -- ---------- --- - --- ----- ----- ----<br>---- --- --- ----- --- ---- ---- ------- ----- ---- -------<br>--- --- -- ----- -- --- ---- -- --- ---- -- ------ ------<br>--- ----- -- ----",145287.19999999972,145284.59999999963,144898.373,144899.2999999998,144915.023,145297.99,,9,"relationship,"
screen,html.Screen,2_1_0_1_10,2022-05-09T16:23:09.481Z,,,,,,,,,,,,,,,,,53,,,,,,,,,,,,,,359.0100000000093,,response,,,,99,,,,,,,Space,keypress(Space),,,,,,,,---- -- ----- -- ------ - ------- --- ----------<br>------------- common ------ ---- ---- ------- ----- -- ----<br>-------- ------- -- ---------- --- - --- ----- ----- ----<br>---- --- --- ----- --- ---- ---- ------- ----- ---- -------<br>--- --- -- ----- -- --- ---- -- --- ---- -- ------ ------<br>--- ----- -- ----,145659.5,145657,145281.34,145287.3999999999,145297.99,145664.285,,10,common
screen,html.Screen,2_1_0_1_11,2022-05-09T16:23:09.873Z,,,,,,,,,,,,,,,,,53,,,,,,,,,,,,,,384.51499999981024,,response,,,,99,,,,,,,Space,keypress(Space),,,,,,,,---- -- ----- -- ------ - ------- --- ----------<br>------------- ------ wisdom ---- ---- ------- ----- -- ----<br>-------- ------- -- ---------- --- - --- ----- ----- ----<br>---- --- --- ----- --- ---- ---- ------- ----- ---- -------<br>--- --- -- ----- -- --- ---- -- --- ---- -- ------ ------<br>--- ----- -- ----,146051.09999999963,146048.7999999998,145647.635,145659.8999999999,145664.285,146063.896,,11,wisdom
screen,html.Screen,2_1_0_1_12,2022-05-09T16:23:10.217Z,,,,,,,,,,,,,,,,,53,,,,,,,,,,,,,,328.3039999997127,,response,,,,99,,,,,,,Space,keypress(Space),,,,,,,,---- -- ----- -- ------ - ------- --- ----------<br>------------- ------ ------ says ---- ------- ----- -- ----<br>-------- ------- -- ---------- --- - --- ----- ----- ----<br>---- --- --- ----- --- ---- ---- ------- ----- ---- -------<br>--- --- -- ----- -- --- ---- -- --- ---- -- ------ ------<br>--- ----- -- ----,146395.59999999963,146392.19999999972,146047.246,146051.3999999999,146063.896,146413.565,,12,says
screen,html.Screen,2_1_0_1_13,2022-05-09T16:23:10.560Z,,,,,,,,,,,,,,,,,53,,,,,,,,,,,,,,321.7349999998114,,response,,,,99,,,,,,,Space,keypress(Space),,,,,,,,---- -- ----- -- ------ - ------- --- ----------<br>------------- ------ ------ ---- that ------- ----- -- ----<br>-------- ------- -- ---------- --- - --- ----- ----- ----<br>---- --- --- ----- --- ---- ---- ------- ----- ---- -------<br>--- --- -- ----- -- --- ---- -- --- ---- -- ------ ------<br>--- ----- -- ----,146738.2999999998,146735.2999999998,146396.915,146395.69999999972,146413.565,146746.555,,13,that
screen,html.Screen,2_1_0_1_14,2022-05-09T16:23:10.903Z,,,,,,,,,,,,,,,,,53,,,,,,,,,,,,,,332.54499999963446,,response,,,,99,,,,,,,Space,keypress(Space),,,,,,,,---- -- ----- -- ------ - ------- --- ----------<br>------------- ------ ------ ---- ---- feeling ----- -- ----<br>-------- ------- -- ---------- --- - --- ----- ----- ----<br>---- --- --- ----- --- ---- ---- ------- ----- ---- -------<br>--- --- -- ----- -- --- ---- -- --- ---- -- ------ ------<br>--- ----- -- ----,147081.69999999972,147079.09999999963,146729.905,146738.5,146746.555,147096.224,,14,feeling
screen,html.Screen,2_1_0_1_15,2022-05-09T16:23:11.223Z,,,,,,,,,,,,,,,,,53,,,,,,,,,,,,,,302.67599999991944,,response,,,,99,,,,,,,Space,keypress(Space),,,,,,,,---- -- ----- -- ------ - ------- --- ----------<br>------------- ------ ------ ---- ---- ------- close -- ----<br>-------- ------- -- ---------- --- - --- ----- ----- ----<br>---- --- --- ----- --- ---- ---- ------- ----- ---- -------<br>--- --- -- ----- -- --- ---- -- --- ---- -- ------ ------<br>--- ----- -- ----,147401.2999999998,147398.8999999999,147079.574,147082,147096.224,147412.581,,15,close
screen,html.Screen,2_1_0_1_16,2022-05-09T16:23:11.611Z,,,,,,,,,,,,,,,,,53,,,,,,,,,,,,,,374.8189999999013,,response,,,,99,,,,,,,Space,keypress(Space),,,,,,,,---- -- ----- -- ------ - ------- --- ----------<br>------------- ------ ------ ---- ---- ------- ----- to ----<br>-------- ------- -- ---------- --- - --- ----- ----- ----<br>---- --- --- ----- --- ---- ---- ------- ----- ---- -------<br>--- --- -- ----- -- --- ---- -- --- ---- -- ------ ------<br>--- ----- -- ----,147789.69999999972,147787.3999999999,147395.931,147401.3999999999,147412.581,147795.531,,16,to
screen,html.Screen,2_1_0_1_17,2022-05-09T16:23:11.970Z,,,,,,,,,,,,,,,,,53,,,,,,,,,,,,,,350.36899999991874,,response,,,,99,,,,,,,Space,keypress(Space),,,,,,,,---- -- ----- -- ------ - ------- --- ----------<br>------------- ------ ------ ---- ---- ------- ----- -- your<br>-------- ------- -- ---------- --- - --- ----- ----- ----<br>---- --- --- ----- --- ---- ---- ------- ----- ---- -------<br>--- --- -- ----- -- --- ---- -- --- ---- -- ------ ------<br>--- ----- -- ----,148148,148145.8999999999,147778.881,147789.8999999999,147795.531,148161.839,,17,your
screen,html.Screen,2_1_0_1_18,2022-05-09T16:23:12.298Z,,,,,,,,,,,,,,,,,53,,,,,,,,,,,,,,312.26099999962025,,response,,,,99,,,,,,,Space,keypress(Space),,,,,,,,---- -- ----- -- ------ - ------- --- ----------<br>------------- ------ ------ ---- ---- ------- ----- -- ----<br>romantic ------- -- ---------- --- - --- ----- ----- ----<br>---- --- --- ----- --- ---- ---- ------- ----- ---- -------<br>--- --- -- ----- -- --- ---- -- --- ---- -- ------ ------<br>--- ----- -- ----,148476.3999999999,148474.09999999963,148145.189,148148.19999999972,148161.839,148478.195,,18,romantic
screen,html.Screen,2_1_0_1_19,2022-05-09T16:23:12.638Z,,,,,,,,,,,,,,,,,53,,,,,,,,,,,,,,335.7049999998999,,response,,,,99,,,,,,,Space,keypress(Space),,,,,,,,---- -- ----- -- ------ - ------- --- ----------<br>------------- ------ ------ ---- ---- ------- ----- -- ----<br>-------- partner -- ---------- --- - --- ----- ----- ----<br>---- --- --- ----- --- ---- ---- ------- ----- ---- -------<br>--- --- -- ----- -- --- ---- -- --- ---- -- ------ ------<br>--- ----- -- ----,148816,148813.8999999999,148461.545,148476.59999999963,148478.195,148827.863,,19,partner
screen,html.Screen,2_1_0_1_20,2022-05-09T16:23:12.958Z,,,,,,,,,,,,,,,,,53,,,,,,,,,,,,,,306.53699999989476,,response,,,,99,,,,,,,Space,keypress(Space),,,,,,,,---- -- ----- -- ------ - ------- --- ----------<br>------------- ------ ------ ---- ---- ------- ----- -- ----<br>-------- ------- is ---------- --- - --- ----- ----- ----<br>---- --- --- ----- --- ---- ---- ------- ----- ---- -------<br>--- --- -- ----- -- --- ---- -- --- ---- -- ------ ------<br>--- ----- -- ----,149136.3999999999,149134.3999999999,148811.213,148816.19999999972,148827.863,149144.212,,20,is
screen,html.Screen,2_1_0_1_21,2022-05-09T16:23:13.287Z,,,,,,,,,,,,,,,,,53,,,,,,,,,,,,,,318.18799999990733,,response,,,,99,,,,,,,Space,keypress(Space),,,,,,,,---- -- ----- -- ------ - ------- --- ----------<br>------------- ------ ------ ---- ---- ------- ----- -- ----<br>-------- ------- -- paramount. --- - --- ----- ----- ----<br>---- --- --- ----- --- ---- ---- ------- ----- ---- -------<br>--- --- -- ----- -- --- ---- -- --- ---- -- ------ ------<br>--- ----- -- ----,149464.7999999998,149462.3999999999,149127.562,149136.69999999972,149144.212,149477.227,,21,paramount.
screen,html.Screen,2_1_0_1_22,2022-05-09T16:23:13.628Z,,,,,,,,,,,,,,,,,53,,,,,,,,,,,,,,326.37299999961397,,response,,,,99,,,,,,,Space,keypress(Space),,,,,,,,---- -- ----- -- ------ - ------- --- ----------<br>------------- ------ ------ ---- ---- ------- ----- -- ----<br>-------- ------- -- ---------- But - --- ----- ----- ----<br>---- --- --- ----- --- ---- ---- ------- ----- ---- -------<br>--- --- -- ----- -- --- ---- -- --- ---- -- ------ ------<br>--- ----- -- ----,149805.8999999999,149803.59999999963,149460.577,149465,149477.227,149810.24,,22,But
screen,html.Screen,2_1_0_1_23,2022-05-09T16:23:13.972Z,,,,,,,,,,,,,,,,,53,,,,,,,,,,,,,,336.6599999999162,,response,,,,99,,,,,,,Space,keypress(Space),,,,,,,,---- -- ----- -- ------ - ------- --- ----------<br>------------- ------ ------ ---- ---- ------- ----- -- ----<br>-------- ------- -- ---------- --- a --- ----- ----- ----<br>---- --- --- ----- --- ---- ---- ------- ----- ---- -------<br>--- --- -- ----- -- --- ---- -- --- ---- -- ------ ------<br>--- ----- -- ----,150149.7999999998,150146.8999999999,149793.59,149806.09999999963,149810.24,150159.897,,23,a
screen,html.Screen,2_1_0_1_24,2022-05-09T16:23:14.295Z,,,,,,,,,,,,,,,,,53,,,,,,,,,,,,,,310.70299999963026,,response,,,,99,,,,,,,Space,keypress(Space),,,,,,,,---- -- ----- -- ------ - ------- --- ----------<br>------------- ------ ------ ---- ---- ------- ----- -- ----<br>-------- ------- -- ---------- --- - new ----- ----- ----<br>---- --- --- ----- --- ---- ---- ------- ----- ---- -------<br>--- --- -- ----- -- --- ---- -- --- ---- -- ------ ------<br>--- ----- -- ----,150473.3999999999,150470.59999999963,150143.247,150150,150159.897,150476.256,,24,new
screen,html.Screen,2_1_0_1_25,2022-05-09T16:23:14.635Z,,,,,,,,,,,,,,,,,53,,,,,,,,,,,,,,334.3439999996335,,response,,,,99,,,,,,,Space,keypress(Space),,,,,,,,---- -- ----- -- ------ - ------- --- ----------<br>------------- ------ ------ ---- ---- ------- ----- -- ----<br>-------- ------- -- ---------- --- - --- study ----- ----<br>---- --- --- ----- --- ---- ---- ------- ----- ---- -------<br>--- --- -- ----- -- --- ---- -- --- ---- -- ------ ------<br>--- ----- -- ----,150812.8999999999,150810.59999999963,150459.606,150473.5,150476.256,150825.917,,25,study
screen,html.Screen,2_1_0_1_26,2022-05-09T16:23:14.931Z,,,,,,,,,,,,,,,,,53,,,,,,,,,,,,,,280.7829999997339,,response,,,,99,,,,,,,Space,keypress(Space),,,,,,,,---- -- ----- -- ------ - ------- --- ----------<br>------------- ------ ------ ---- ---- ------- ----- -- ----<br>-------- ------- -- ---------- --- - --- ----- finds ----<br>---- --- --- ----- --- ---- ---- ------- ----- ---- -------<br>--- --- -- ----- -- --- ---- -- --- ---- -- ------ ------<br>--- ----- -- ----,151109.2999999998,151106.69999999972,150809.267,150813.09999999963,150825.917,151125.615,,26,finds
screen,html.Screen,2_1_0_1_27,2022-05-09T16:23:15.252Z,,,,,,,,,,,,,,,,,53,,,,,,,,,,,,,,301.2849999999162,,response,,,,99,,,,,,,Space,keypress(Space),,,,,,,,---- -- ----- -- ------ - ------- --- ----------<br>------------- ------ ------ ---- ---- ------- ----- -- ----<br>-------- ------- -- ---------- --- - --- ----- ----- that<br>---- --- --- ----- --- ---- ---- ------- ----- ---- -------<br>--- --- -- ----- -- --- ---- -- --- ---- -- ------ ------<br>--- ----- -- ----,151430.2999999998,151426.8999999999,151108.965,151109.5,151125.615,151441.961,,27,that
screen,html.Screen,2_1_0_1_28,2022-05-09T16:23:15.544Z,,,,,,,,,,,,,,,,,53,,,,,,,,,,,,,,278.03899999998976,,response,,,,99,,,,,,,Space,keypress(Space),,,,,,,,---- -- ----- -- ------ - ------- --- ----------<br>------------- ------ ------ ---- ---- ------- ----- -- ----<br>-------- ------- -- ---------- --- - --- ----- ----- ----<br>it's --- --- ----- --- ---- ---- ------- ----- ---- -------<br>--- --- -- ----- -- --- ---- -- --- ---- -- ------ ------<br>--- ----- -- ----,151722.19999999972,151720,151425.311,151430.3999999999,151441.961,151725.034,,28,it's
screen,html.Screen,2_1_0_1_29,2022-05-09T16:23:15.858Z,,,,,,,,,,,,,,,,,53,,,,,,,,,,,,,,307.86599999989267,,response,,,,99,,,,,,,Space,keypress(Space),,,,,,,,---- -- ----- -- ------ - ------- --- ----------<br>------------- ------ ------ ---- ---- ------- ----- -- ----<br>-------- ------- -- ---------- --- - --- ----- ----- ----<br>---- not --- ----- --- ---- ---- ------- ----- ---- -------<br>--- --- -- ----- -- --- ---- -- --- ---- -- ------ ------<br>--- ----- -- ----,152036.19999999972,152032.8999999999,151708.384,151722.3999999999,151725.034,152041.376,,29,not
screen,html.Screen,2_1_0_1_30,2022-05-09T16:23:16.127Z,,,,,,,,,,,,,,,,,53,,,,,,,,,,,,,,260.8239999997313,,response,,,,99,,,,,,,Space,keypress(Space),,,,,,,,---- -- ----- -- ------ - ------- --- ----------<br>------------- ------ ------ ---- ---- ------- ----- -- ----<br>-------- ------- -- ---------- --- - --- ----- ----- ----<br>---- --- how ----- --- ---- ---- ------- ----- ---- -------<br>--- --- -- ----- -- --- ---- -- --- ---- -- ------ ------<br>--- ----- -- ----,152305.5,152302.19999999972,152024.726,152036.2999999998,152041.376,152307.798,,30,how
screen,html.Screen,2_1_0_1_31,2022-05-09T16:23:16.420Z,,,,,,,,,,,,,,,,,53,,,,,,,,,,,,,,288.2019999999902,,response,,,,99,,,,,,,Space,keypress(Space),,,,,,,,---- -- ----- -- ------ - ------- --- ----------<br>------------- ------ ------ ---- ---- ------- ----- -- ----<br>-------- ------- -- ---------- --- - --- ----- ----- ----<br>---- --- --- close --- ---- ---- ------- ----- ---- -------<br>--- --- -- ----- -- --- ---- -- --- ---- -- ------ ------<br>--- ----- -- ----,152598.69999999972,152596,152291.148,152305.59999999963,152307.798,152607.502,,31,close
screen,html.Screen,2_1_0_1_32,2022-05-09T16:23:16.684Z,,,,,,,,,,,,,,,,,53,,,,,,,,,,,,,,251.89799999989918,,response,,,,99,,,,,,,Space,keypress(Space),,,,,,,,---- -- ----- -- ------ - ------- --- ----------<br>------------- ------ ------ ---- ---- ------- ----- -- ----<br>-------- ------- -- ---------- --- - --- ----- ----- ----<br>---- --- --- ----- you ---- ---- ------- ----- ---- -------<br>--- --- -- ----- -- --- ---- -- --- ---- -- ------ ------<br>--- ----- -- ----,152862.59999999963,152859.3999999999,152590.852,152598.8999999999,152607.502,152873.911,,32,you
screen,html.Screen,2_1_0_1_33,2022-05-09T16:23:16.958Z,,,,,,,,,,,,,,,,,53,,,,,,,,,,,,,,259.2889999997278,,response,,,,99,,,,,,,Space,keypress(Space),,,,,,,,---- -- ----- -- ------ - ------- --- ----------<br>------------- ------ ------ ---- ---- ------- ----- -- ----<br>-------- ------- -- ---------- --- - --- ----- ----- ----<br>---- --- --- ----- --- feel ---- ------- ----- ---- -------<br>--- --- -- ----- -- --- ---- -- --- ---- -- ------ ------<br>--- ----- -- ----,153136,153133.19999999972,152857.261,152862.8999999999,152873.911,153140.304,,33,feel
screen,html.Screen,2_1_0_1_34,2022-05-09T16:23:17.220Z,,,,,,,,,,,,,,,,,53,,,,,,,,,,,,,,255.49599999981,,response,,,,99,,,,,,,Space,keypress(Space),,,,,,,,---- -- ----- -- ------ - ------- --- ----------<br>------------- ------ ------ ---- ---- ------- ----- -- ----<br>-------- ------- -- ---------- --- - --- ----- ----- ----<br>---- --- --- ----- --- ---- that ------- ----- ---- -------<br>--- --- -- ----- -- --- ---- -- --- ---- -- ------ ------<br>--- ----- -- ----,153398.2999999998,153395.7999999998,153123.654,153136.19999999972,153140.304,153406.715,,34,that
screen,html.Screen,2_1_0_1_35,2022-05-09T16:23:17.552Z,,,,,,,,,,,,,,,,,53,,,,,,,,,,,,,,321.68499999991036,,response,,,,99,,,,,,,Space,keypress(Space),,,,,,,,---- -- ----- -- ------ - ------- --- ----------<br>------------- ------ ------ ---- ---- ------- ----- -- ----<br>-------- ------- -- ---------- --- - --- ----- ----- ----<br>---- --- --- ----- --- ---- ---- matters ----- ---- -------<br>--- --- -- ----- -- --- ---- -- --- ---- -- ------ ------<br>--- ----- -- ----,153730.5,153728.3999999999,153390.065,153398.5,153406.715,153739.725,,35,matters
screen,html.Screen,2_1_0_1_36,2022-05-09T16:23:17.808Z,,,,,,,,,,,,,,,,,53,,,,,,,,,,,,,,244.17499999990105,,response,,,,99,,,,,,,Space,keypress(Space),,,,,,,,"---- -- ----- -- ------ - ------- --- ----------<br>------------- ------ ------ ---- ---- ------- ----- -- ----<br>-------- ------- -- ---------- --- - --- ----- ----- ----<br>---- --- --- ----- --- ---- ---- ------- most, ---- -------<br>--- --- -- ----- -- --- ---- -- --- ---- -- ------ ------<br>--- ----- -- ----",153986.5,153983.8999999999,153723.075,153730.69999999972,153739.725,153989.487,,36,"most,"
screen,html.Screen,2_1_0_1_37,2022-05-09T16:23:18.071Z,,,,,,,,,,,,,,,,,53,,,,,,,,,,,,,,257.31299999982,,response,,,,99,,,,,,,Space,keypress(Space),,,,,,,,---- -- ----- -- ------ - ------- --- ----------<br>------------- ------ ------ ---- ---- ------- ----- -- ----<br>-------- ------- -- ---------- --- - --- ----- ----- ----<br>---- --- --- ----- --- ---- ---- ------- ----- it's -------<br>--- --- -- ----- -- --- ---- -- --- ---- -- ------ ------<br>--- ----- -- ----,154248.7999999998,154246.7999999998,153972.837,153986.69999999972,153989.487,154255.893,,37,it's
screen,html.Screen,2_1_0_1_38,2022-05-09T16:23:18.329Z,,,,,,,,,,,,,,,,,53,,,,,,,,,,,,,,248.9069999998028,,response,,,,99,,,,,,,Space,keypress(Space),,,,,,,,---- -- ----- -- ------ - ------- --- ----------<br>------------- ------ ------ ---- ---- ------- ----- -- ----<br>-------- ------- -- ---------- --- - --- ----- ----- ----<br>---- --- --- ----- --- ---- ---- ------- ----- ---- whether<br>--- --- -- ----- -- --- ---- -- --- ---- -- ------ ------<br>--- ----- -- ----,154507.2999999998,154504.7999999998,154239.243,154249.09999999963,154255.893,154522.293,,38,whether
screen,html.Screen,2_1_0_1_39,2022-05-09T16:23:18.614Z,,,,,,,,,,,,,,,,,53,,,,,,,,,,,,,,267.9069999997155,,response,,,,99,,,,,,,Space,keypress(Space),,,,,,,,---- -- ----- -- ------ - ------- --- ----------<br>------------- ------ ------ ---- ---- ------- ----- -- ----<br>-------- ------- -- ---------- --- - --- ----- ----- ----<br>---- --- --- ----- --- ---- ---- ------- ----- ---- -------<br>you --- -- ----- -- --- ---- -- --- ---- -- ------ ------<br>--- ----- -- ----,154792.69999999972,154790.19999999972,154505.643,154507.59999999963,154522.293,154805.358,,39,you
screen,html.Screen,2_1_0_1_40,2022-05-09T16:23:18.857Z,,,,,,,,,,,,,,,,,53,,,,,,,,,,,,,,227.24199999962002,,response,,,,99,,,,,,,Space,keypress(Space),,,,,,,,---- -- ----- -- ------ - ------- --- ----------<br>------------- ------ ------ ---- ---- ------- ----- -- ----<br>-------- ------- -- ---------- --- - --- ----- ----- ----<br>---- --- --- ----- --- ---- ---- ------- ----- ---- -------<br>--- are -- ----- -- --- ---- -- --- ---- -- ------ ------<br>--- ----- -- ----,155035,155032.59999999963,154788.708,154793,154805.358,155038.447,,40,are
screen,html.Screen,2_1_0_1_41,2022-05-09T16:23:19.109Z,,,,,,,,,,,,,,,,,53,,,,,,,,,,,,,,246.4529999999213,,response,,,,99,,,,,,,Space,keypress(Space),,,,,,,,---- -- ----- -- ------ - ------- --- ----------<br>------------- ------ ------ ---- ---- ------- ----- -- ----<br>-------- ------- -- ---------- --- - --- ----- ----- ----<br>---- --- --- ----- --- ---- ---- ------- ----- ---- -------<br>--- --- as ----- -- --- ---- -- --- ---- -- ------ ------<br>--- ----- -- ----,155287.2999999998,155284.8999999999,155021.797,155035.19999999972,155038.447,155304.865,,41,as
screen,html.Screen,2_1_0_1_42,2022-05-09T16:23:19.365Z,,,,,,,,,,,,,,,,,53,,,,,,,,,,,,,,236.03499999991618,,response,,,,99,,,,,,,Space,keypress(Space),,,,,,,,---- -- ----- -- ------ - ------- --- ----------<br>------------- ------ ------ ---- ---- ------- ----- -- ----<br>-------- ------- -- ---------- --- - --- ----- ----- ----<br>---- --- --- ----- --- ---- ---- ------- ----- ---- -------<br>--- --- -- close -- --- ---- -- --- ---- -- ------ ------<br>--- ----- -- ----,155543.5,155540.8999999999,155288.215,155287.3999999999,155304.865,155554.609,,42,close
screen,html.Screen,2_1_0_1_43,2022-05-09T16:23:19.621Z,,,,,,,,,,,,,,,,,53,,,,,,,,,,,,,,241.79099999991013,,response,,,,99,,,,,,,Space,keypress(Space),,,,,,,,---- -- ----- -- ------ - ------- --- ----------<br>------------- ------ ------ ---- ---- ------- ----- -- ----<br>-------- ------- -- ---------- --- - --- ----- ----- ----<br>---- --- --- ----- --- ---- ---- ------- ----- ---- -------<br>--- --- -- ----- as --- ---- -- --- ---- -- ------ ------<br>--- ----- -- ----,155798.8999999999,155796.3999999999,155537.959,155543.69999999972,155554.609,155804.366,,43,as
screen,html.Screen,2_1_0_1_44,2022-05-09T16:23:19.878Z,,,,,,,,,,,,,,,,,53,,,,,,,,,,,,,,248.5339999998978,,response,,,,99,,,,,,,Space,keypress(Space),,,,,,,,---- -- ----- -- ------ - ------- --- ----------<br>------------- ------ ------ ---- ---- ------- ----- -- ----<br>-------- ------- -- ---------- --- - --- ----- ----- ----<br>---- --- --- ----- --- ---- ---- ------- ----- ---- -------<br>--- --- -- ----- -- you ---- -- --- ---- -- ------ ------<br>--- ----- -- ----,156055.8999999999,156052.8999999999,155787.716,155799.09999999963,155804.366,156070.781,,44,you
screen,html.Screen,2_1_0_1_45,2022-05-09T16:23:20.140Z,,,,,,,,,,,,,,,,,53,,,,,,,,,,,,,,244.81899999963935,,response,,,,99,,,,,,,Space,keypress(Space),,,,,,,,---- -- ----- -- ------ - ------- --- ----------<br>------------- ------ ------ ---- ---- ------- ----- -- ----<br>-------- ------- -- ---------- --- - --- ----- ----- ----<br>---- --- --- ----- --- ---- ---- ------- ----- ---- -------<br>--- --- -- ----- -- --- want -- --- ---- -- ------ ------<br>--- ----- -- ----,156318.19999999972,156315.59999999963,156054.131,156056.2999999998,156070.781,156320.54,,45,want
screen,html.Screen,2_1_0_1_46,2022-05-09T16:23:20.376Z,,,,,,,,,,,,,,,,,53,,,,,,,,,,,,,,230.65999999971245,,response,,,,99,,,,,,,Space,keypress(Space),,,,,,,,---- -- ----- -- ------ - ------- --- ----------<br>------------- ------ ------ ---- ---- ------- ----- -- ----<br>-------- ------- -- ---------- --- - --- ----- ----- ----<br>---- --- --- ----- --- ---- ---- ------- ----- ---- -------<br>--- --- -- ----- -- --- ---- to --- ---- -- ------ ------<br>--- ----- -- ----,156554.3999999999,156551.19999999972,156303.89,156318.3999999999,156320.54,156570.288,,46,to
screen,html.Screen,2_1_0_1_47,2022-05-09T16:23:20.620Z,,,,,,,,,,,,,,,,,53,,,,,,,,,,,,,,225.51199999981327,,response,,,,99,,,,,,,Space,keypress(Space),,,,,,,,"---- -- ----- -- ------ - ------- --- ----------<br>------------- ------ ------ ---- ---- ------- ----- -- ----<br>-------- ------- -- ---------- --- - --- ----- ----- ----<br>---- --- --- ----- --- ---- ---- ------- ----- ---- -------<br>--- --- -- ----- -- --- ---- -- be, ---- -- ------ ------<br>--- ----- -- ----",156798.19999999972,156795.7999999998,156553.638,156554.59999999963,156570.288,156803.399,,47,"be,"
screen,html.Screen,2_1_0_1_48,2022-05-09T16:23:20.860Z,,,,,,,,,,,,,,,,,53,,,,,,,,,,,,,,232.00099999990198,,response,,,,99,,,,,,,Space,keypress(Space),,,,,,,,---- -- ----- -- ------ - ------- --- ----------<br>------------- ------ ------ ---- ---- ------- ----- -- ----<br>-------- ------- -- ---------- --- - --- ----- ----- ----<br>---- --- --- ----- --- ---- ---- ------- ----- ---- -------<br>--- --- -- ----- -- --- ---- -- --- even -- ------ ------<br>--- ----- -- ----,157038,157035.3999999999,156786.749,156798.3999999999,156803.399,157053.157,,48,even
screen,html.Screen,2_1_0_1_49,2022-05-09T16:23:21.122Z,,,,,,,,,,,,,,,,,53,,,,,,,,,,,,,,244.74299999990035,,response,,,,99,,,,,,,Space,keypress(Space),,,,,,,,---- -- ----- -- ------ - ------- --- ----------<br>------------- ------ ------ ---- ---- ------- ----- -- ----<br>-------- ------- -- ---------- --- - --- ----- ----- ----<br>---- --- --- ----- --- ---- ---- ------- ----- ---- -------<br>--- --- -- ----- -- --- ---- -- --- ---- if ------ ------<br>--- ----- -- ----,157300.59999999963,157297.8999999999,157036.507,157038.19999999972,157053.157,157302.912,,49,if
screen,html.Screen,2_1_0_1_50,2022-05-09T16:23:21.368Z,,,,,,,,,,,,,,,,,53,,,,,,,,,,,,,,241.28799999970943,,response,,,,99,,,,,,,Space,keypress(Space),,,,,,,,---- -- ----- -- ------ - ------- --- ----------<br>------------- ------ ------ ---- ---- ------- ----- -- ----<br>-------- ------- -- ---------- --- - --- ----- ----- ----<br>---- --- --- ----- --- ---- ---- ------- ----- ---- -------<br>--- --- -- ----- -- --- ---- -- --- ---- -- that's ------<br>--- ----- -- ----,157546.7999999998,157544.19999999972,157286.262,157300.69999999972,157302.912,157552.66,,50,that's
screen,html.Screen,2_1_0_1_51,2022-05-09T16:23:21.629Z,,,,,,,,,,,,,,,,,53,,,,,,,,,,,,,,251.43999999962398,,response,,,,99,,,,,,,Space,keypress(Space),,,,,,,,---- -- ----- -- ------ - ------- --- ----------<br>------------- ------ ------ ---- ---- ------- ----- -- ----<br>-------- ------- -- ---------- --- - --- ----- ----- ----<br>---- --- --- ----- --- ---- ---- ------- ----- ---- -------<br>--- --- -- ----- -- --- ---- -- --- ---- -- ------ really<br>--- ----- -- ----,157807,157804.09999999963,157536.01,157547,157552.66,157819.057,,51,really
screen,html.Screen,2_1_0_1_52,2022-05-09T16:23:21.915Z,,,,,,,,,,,,,,,,,53,,,,,,,,,,,,,,271.34299999990617,,response,,,,99,,,,,,,Space,keypress(Space),,,,,,,,---- -- ----- -- ------ - ------- --- ----------<br>------------- ------ ------ ---- ---- ------- ----- -- ----<br>-------- ------- -- ---------- --- - --- ----- ----- ----<br>---- --- --- ----- --- ---- ---- ------- ----- ---- -------<br>--- --- -- ----- -- --- ---- -- --- ---- -- ------ ------<br>not ----- -- ----,158093.19999999972,158090.3999999999,157802.407,157807.19999999972,157819.057,158102.124,,52,not
screen,html.Screen,2_1_0_1_53,2022-05-09T16:23:22.180Z,,,,,,,,,,,,,,,,,53,,,,,,,,,,,,,,253.67599999980303,,response,,,,99,,,,,,,Space,keypress(Space),,,,,,,,---- -- ----- -- ------ - ------- --- ----------<br>------------- ------ ------ ---- ---- ------- ----- -- ----<br>-------- ------- -- ---------- --- - --- ----- ----- ----<br>---- --- --- ----- --- ---- ---- ------- ----- ---- -------<br>--- --- -- ----- -- --- ---- -- --- ---- -- ------ ------<br>--- close -- ----,158357.7999999998,158355.7999999998,158085.474,158093.2999999998,158102.124,158368.527,,53,close
screen,html.Screen,2_1_0_1_54,2022-05-09T16:23:22.460Z,,,,,,,,,,,,,,,,,53,,,,,,,,,,,,,,267.67299999971874,,response,,,,99,,,,,,,Space,keypress(Space),,,,,,,,---- -- ----- -- ------ - ------- --- ----------<br>------------- ------ ------ ---- ---- ------- ----- -- ----<br>-------- ------- -- ---------- --- - --- ----- ----- ----<br>---- --- --- ----- --- ---- ---- ------- ----- ---- -------<br>--- --- -- ----- -- --- ---- -- --- ---- -- ------ ------<br>--- ----- at ----,158638.69999999972,158636.19999999972,158351.877,158358.09999999963,158368.527,158651.591,,54,at
screen,html.Screen,2_1_0_1_55,2022-05-09T16:23:22.785Z,,,,,,,,,,,,,,,,,53,,,,,,,,,,,,,,308.80899999992107,,response,,,,99,,,,,,,Space,keypress(Space),,,,,,,,---- -- ----- -- ------ - ------- --- ----------<br>------------- ------ ------ ---- ---- ------- ----- -- ----<br>-------- ------- -- ---------- --- - --- ----- ----- ----<br>---- --- --- ----- --- ---- ---- ------- ----- ---- -------<br>--- --- -- ----- -- --- ---- -- --- ---- -- ------ ------<br>--- ----- -- all.,158963.59999999963,158960.3999999999,158634.941,158639,158651.591,158967.938,,55,all.
Item 99,flow.Loop,2_1_0_1,2022-05-09T16:23:22.786Z,,,,,,,,,,,,,,,,,,,,,,,,,,,,,,,18590.930999999895,,completion,,,,,G,,,,,,,,,,,silence,,,,,158964.19999999972,158960.3999999999,140302.869,140305.59999999963,140369.469,158967.938,,,
Question 1,html.Screen,2_1_0_2,2022-05-09T16:23:27.022Z,,,,,,,,,,,,,,,,,,,,,,,,,,,,true,FALSE,,4227.761999999726,,response,,,,99,G,,,,,,FALSE,click #choice-2,,,,silence,,,,,163200.59999999963,163195.69999999972,158951.288,158964.3999999999,158967.938,163213.782,,,
Question 2,html.Screen,2_1_0_3,2022-05-09T16:23:29.915Z,,,,,,,,,,,,,,,,,,,,,,,,,,,,true,TRUE,,2874.7179999999935,,response,,,,99,G,,,,,,TRUE,click #choice-1,,,,silence,,,,,166093.69999999972,166088.5,163197.132,163200.8999999999,163213.782,166094.296,,,
Item 99,flow.Sequence,2_1_0,2022-05-09T16:23:29.916Z,,,,,,,,,,,,,,,,,,,,,,,,,,,,,,,35775.918000000005,,completion,,,,,,,,,,,,,,,,,,,,,166094.09999999963,166088.5,130295.932,130313.29999999981,130312.582,166094.296,,,
Holding screen,html.Screen,2_1_1_0,2022-05-09T16:23:39.908Z,,,,,,,,,,,,,,,,,,,,,,,,,,,,,,,10006.875,,timeout,,,,,,,,,,,,,,,,,,,,,176086.69999999972,176084.521,166077.646,166094.19999999972,166094.296,176101.171,,,
screen,html.Screen,2_1_1_1_0,2022-05-09T16:23:41.717Z,,,,,,,,,,,,,,,,,54,,,,,,,,,,,,,,1785.5289999997185,,response,,,,100,,,,,,,Space,keypress(Space),,,,,,,,At --- ---- --- ------ ----- ------- ---- -- --- ------- --<br>------- ---------- ------ -- ----- -- ----- -- ---- ------<br>--- ----- --- --- ------ -------- ----- --- ------ ----- --<br>----- ----- ---------- --- --- ------ ------ ---- -- ------<br>------- --- ------ ----- --- ---- ------- -- ---- --- --<br>------- ------,177894.8999999999,177886.69999999972,176084.521,176087.2999999998,176101.171,177899.378,,0,At
screen,html.Screen,2_1_1_1_1,2022-05-09T16:23:42.142Z,,,,,,,,,,,,,,,,,54,,,,,,,,,,,,,,419.32199999972363,,response,,,,100,,,,,,,Space,keypress(Space),,,,,,,,-- the ---- --- ------ ----- ------- ---- -- --- ------- --<br>------- ---------- ------ -- ----- -- ----- -- ---- ------<br>--- ----- --- --- ------ -------- ----- --- ------ ----- --<br>----- ----- ---------- --- --- ------ ------ ---- -- ------<br>------- --- ------ ----- --- ---- ------- -- ---- --- --<br>------- ------,178320.69999999972,178318.69999999972,177882.728,177895.09999999963,177899.378,178332.327,,1,the
screen,html.Screen,2_1_1_1_2,2022-05-09T16:23:42.450Z,,,,,,,,,,,,,,,,,54,,,,,,,,,,,,,,294.1730000000098,,response,,,,100,,,,,,,Space,keypress(Space),,,,,,,,-- --- time --- ------ ----- ------- ---- -- --- ------- --<br>------- ---------- ------ -- ----- -- ----- -- ---- ------<br>--- ----- --- --- ------ -------- ----- --- ------ ----- --<br>----- ----- ---------- --- --- ------ ------ ---- -- ------<br>------- --- ------ ----- --- ---- ------- -- ---- --- --<br>------- ------,178628.3999999999,178626.5,178315.677,178321,178332.327,178632.037,,2,time
screen,html.Screen,2_1_1_1_3,2022-05-09T16:23:42.724Z,,,,,,,,,,,,,,,,,54,,,,,,,,,,,,,,267.3629999998957,,response,,,,100,,,,,,,Space,keypress(Space),,,,,,,,-- --- ---- the ------ ----- ------- ---- -- --- ------- --<br>------- ---------- ------ -- ----- -- ----- -- ---- ------<br>--- ----- --- --- ------ -------- ----- --- ------ ----- --<br>----- ----- ---------- --- --- ------ ------ ---- -- ------<br>------- --- ------ ----- --- ---- ------- -- ---- --- --<br>------- ------,178902.59999999963,178899.3999999999,178615.387,178628.5,178632.037,178915.093,,3,the
screen,html.Screen,2_1_1_1_4,2022-05-09T16:23:42.976Z,,,,,,,,,,,,,,,,,54,,,,,,,,,,,,,,237.006999999634,,response,,,,100,,,,,,,Space,keypress(Space),,,,,,,,-- --- ---- --- French ----- ------- ---- -- --- ------- --<br>------- ---------- ------ -- ----- -- ----- -- ---- ------<br>--- ----- --- --- ------ -------- ----- --- ------ ----- --<br>----- ----- ---------- --- --- ------ ------ ---- -- ------<br>------- --- ------ ----- --- ---- ------- -- ---- --- --<br>------- ------,179154.19999999972,179152.09999999963,178898.443,178902.8999999999,178915.093,179164.851,,4,French
screen,html.Screen,2_1_1_1_5,2022-05-09T16:23:43.249Z,,,,,,,,,,,,,,,,,54,,,,,,,,,,,,,,261.04899999991176,,response,,,,100,,,,,,,Space,keypress(Space),,,,,,,,-- --- ---- --- ------ crown ------- ---- -- --- ------- --<br>------- ---------- ------ -- ----- -- ----- -- ---- ------<br>--- ----- --- --- ------ -------- ----- --- ------ ----- --<br>----- ----- ---------- --- --- ------ ------ ---- -- ------<br>------- --- ------ ----- --- ---- ------- -- ---- --- --<br>------- ------,179427.69999999972,179425.8999999999,179148.201,179154.3999999999,179164.851,179431.261,,5,crown
screen,html.Screen,2_1_1_1_6,2022-05-09T16:23:43.530Z,,,,,,,,,,,,,,,,,54,,,,,,,,,,,,,,275.13899999990826,,response,,,,100,,,,,,,Space,keypress(Space),,,,,,,,-- --- ---- --- ------ ----- secured ---- -- --- ------- --<br>------- ---------- ------ -- ----- -- ----- -- ---- ------<br>--- ----- --- --- ------ -------- ----- --- ------ ----- --<br>----- ----- ---------- --- --- ------ ------ ---- -- ------<br>------- --- ------ ----- --- ---- ------- -- ---- --- --<br>------- ------,179708.69999999972,179706.3999999999,179414.611,179428,179431.261,179714.302,,6,secured
screen,html.Screen,2_1_1_1_7,2022-05-09T16:23:43.824Z,,,,,,,,,,,,,,,,,54,,,,,,,,,,,,,,285.69800000000396,,response,,,,100,,,,,,,Space,keypress(Space),,,,,,,,-- --- ---- --- ------ ----- ------- much -- --- ------- --<br>------- ---------- ------ -- ----- -- ----- -- ---- ------<br>--- ----- --- --- ------ -------- ----- --- ------ ----- --<br>----- ----- ---------- --- --- ------ ------ ---- -- ------<br>------- --- ------ ----- --- ---- ------- -- ---- --- --<br>------- ------,180001.8999999999,180000,179697.652,179709,179714.302,180014.015,,7,much
screen,html.Screen,2_1_1_1_8,2022-05-09T16:23:44.182Z,,,,,,,,,,,,,,,,,54,,,,,,,,,,,,,,298.48499999998603,,response,,,,100,,,,,,,Space,keypress(Space),,,,,,,,-- --- ---- --- ------ ----- ------- ---- of --- ------- --<br>------- ---------- ------ -- ----- -- ----- -- ---- ------<br>--- ----- --- --- ------ -------- ----- --- ------ ----- --<br>----- ----- ---------- --- --- ------ ------ ---- -- ------<br>------- --- ------ ----- --- ---- ------- -- ---- --- --<br>------- ------,180360.3999999999,180312.5,179997.365,180002.09999999963,180014.015,180380.325,,8,of
screen,html.Screen,2_1_1_1_9,2022-05-09T16:23:44.438Z,,,,,,,,,,,,,,,,,54,,,,,,,,,,,,,,219.67499999998836,,response,,,,100,,,,,,,Space,keypress(Space),,,,,,,,-- --- ---- --- ------ ----- ------- ---- -- its ------- --<br>------- ---------- ------ -- ----- -- ----- -- ---- ------<br>--- ----- --- --- ------ -------- ----- --- ------ ----- --<br>----- ----- ---------- --- --- ------ ------ ---- -- ------<br>------- --- ------ ----- --- ---- ------- -- ---- --- --<br>------- ------,180616,180600,180363.675,180360.59999999963,180380.325,180630.084,,9,its
screen,html.Screen,2_1_1_1_10,2022-05-09T16:23:44.761Z,,,,,,,,,,,,,,,,,54,,,,,,,,,,,,,,259.7159999998112,,response,,,,100,,,,,,,Space,keypress(Space),,,,,,,,-- --- ---- --- ------ ----- ------- ---- -- --- revenue --<br>------- ---------- ------ -- ----- -- ----- -- ---- ------<br>--- ----- --- --- ------ -------- ----- --- ------ ----- --<br>----- ----- ---------- --- --- ------ ------ ---- -- ------<br>------- --- ------ ----- --- ---- ------- -- ---- --- --<br>------- ------,180939.19999999972,180889.7999999998,180613.434,180616.19999999972,180630.084,180946.439,,10,revenue
screen,html.Screen,2_1_1_1_11,2022-05-09T16:23:45.011Z,,,,,,,,,,,,,,,,,54,,,,,,,,,,,,,,233.06099999998696,,response,,,,100,,,,,,,Space,keypress(Space),,,,,,,,-- --- ---- --- ------ ----- ------- ---- -- --- ------- by<br>------- ---------- ------ -- ----- -- ----- -- ---- ------<br>--- ----- --- --- ------ -------- ----- --- ------ ----- --<br>----- ----- ---------- --- --- ------ ------ ---- -- ------<br>------- --- ------ ----- --- ---- ------- -- ---- --- --<br>------- ------,181189.5,181179.5,180929.789,180940.59999999963,180946.439,181196.196,,11,by
screen,html.Screen,2_1_1_1_12,2022-05-09T16:23:45.316Z,,,,,,,,,,,,,,,,,54,,,,,,,,,,,,,,294.60399999981746,,response,,,,100,,,,,,,Space,keypress(Space),,,,,,,,-- --- ---- --- ------ ----- ------- ---- -- --- ------- --<br>issuing ---------- ------ -- ----- -- ----- -- ---- ------<br>--- ----- --- --- ------ -------- ----- --- ------ ----- --<br>----- ----- ---------- --- --- ------ ------ ---- -- ------<br>------- --- ------ ----- --- ---- ------- -- ---- --- --<br>------- ------,181494.69999999972,181490.7999999998,181179.546,181189.7999999998,181196.196,181512.56,,12,issuing
screen,html.Screen,2_1_1_1_13,2022-05-09T16:23:45.620Z,,,,,,,,,,,,,,,,,54,,,,,,,,,,,,,,283.23999999981606,,response,,,,100,,,,,,,Space,keypress(Space),,,,,,,,-- --- ---- --- ------ ----- ------- ---- -- --- ------- --<br>------- government ------ -- ----- -- ----- -- ---- ------<br>--- ----- --- --- ------ -------- ----- --- ------ ----- --<br>----- ----- ---------- --- --- ------ ------ ---- -- ------<br>------- --- ------ ----- --- ---- ------- -- ---- --- --<br>------- ------,181798,181795.7999999998,181495.91,181494.7999999998,181512.56,181812.256,,13,government
screen,html.Screen,2_1_1_1_14,2022-05-09T16:23:45.966Z,,,,,,,,,,,,,,,,,54,,,,,,,,,,,,,,329.5439999998198,,response,,,,100,,,,,,,Space,keypress(Space),,,,,,,,-- --- ---- --- ------ ----- ------- ---- -- --- ------- --<br>------- ---------- bonds. -- ----- -- ----- -- ---- ------<br>--- ----- --- --- ------ -------- ----- --- ------ ----- --<br>----- ----- ---------- --- --- ------ ------ ---- -- ------<br>------- --- ------ ----- --- ---- ------- -- ---- --- --<br>------- ------,182144.3999999999,182141.7999999998,181795.606,181798.2999999998,181812.256,182161.915,,14,bonds.
screen,html.Screen,2_1_1_1_15,2022-05-09T16:23:46.322Z,,,,,,,,,,,,,,,,,54,,,,,,,,,,,,,,336.28499999971245,,response,,,,100,,,,,,,Space,keypress(Space),,,,,,,,-- --- ---- --- ------ ----- ------- ---- -- --- ------- --<br>------- ---------- ------ In ----- -- ----- -- ---- ------<br>--- ----- --- --- ------ -------- ----- --- ------ ----- --<br>----- ----- ---------- --- --- ------ ------ ---- -- ------<br>------- --- ------ ----- --- ---- ------- -- ---- --- --<br>------- ------,182500.3999999999,182498.19999999972,182145.265,182144.59999999963,182161.915,182511.571,,15,In
screen,html.Screen,2_1_1_1_16,2022-05-09T16:23:46.695Z,,,,,,,,,,,,,,,,,54,,,,,,,,,,,,,,359.0289999996312,,response,,,,100,,,,,,,Space,keypress(Space),,,,,,,,"-- --- ---- --- ------ ----- ------- ---- -- --- ------- --<br>------- ---------- ------ -- 1727, -- ----- -- ---- ------<br>--- ----- --- --- ------ -------- ----- --- ------ ----- --<br>----- ----- ---------- --- --- ------ ------ ---- -- ------<br>------- --- ------ ----- --- ---- ------- -- ---- --- --<br>------- ------",182872.8999999999,182870.59999999963,182494.921,182500.5,182511.571,182877.88,,16,"1727,"
screen,html.Screen,2_1_1_1_17,2022-05-09T16:23:47.392Z,,,,,,,,,,,,,,,,,54,,,,,,,,,,,,,,689.7199999996228,,response,,,,100,,,,,,,Space,keypress(Space),,,,,,,,-- --- ---- --- ------ ----- ------- ---- -- --- ------- --<br>------- ---------- ------ -- ----- in ----- -- ---- ------<br>--- ----- --- --- ------ -------- ----- --- ------ ----- --<br>----- ----- ---------- --- --- ------ ------ ---- -- ------<br>------- --- ------ ----- --- ---- ------- -- ---- --- --<br>------- ------,183570.5,183567.59999999963,182861.23,182873.09999999963,182877.88,183577.198,,17,in
screen,html.Screen,2_1_1_1_18,2022-05-09T16:23:48.031Z,,,,,,,,,,,,,,,,,54,,,,,,,,,,,,,,630.4019999996235,,response,,,,100,,,,,,,Space,keypress(Space),,,,,,,,-- --- ---- --- ------ ----- ------- ---- -- --- ------- --<br>------- ---------- ------ -- ----- -- order -- ---- ------<br>--- ----- --- --- ------ -------- ----- --- ------ ----- --<br>----- ----- ---------- --- --- ------ ------ ---- -- ------<br>------- --- ------ ----- --- ---- ------- -- ---- --- --<br>------- ------,184209.7999999998,184207.59999999963,183560.548,183570.69999999972,183577.198,184226.553,,18,order
screen,html.Screen,2_1_1_1_19,2022-05-09T16:23:48.339Z,,,,,,,,,,,,,,,,,54,,,,,,,,,,,,,,288.94699999998556,,response,,,,100,,,,,,,Space,keypress(Space),,,,,,,,-- --- ---- --- ------ ----- ------- ---- -- --- ------- --<br>------- ---------- ------ -- ----- -- ----- to ---- ------<br>--- ----- --- --- ------ -------- ----- --- ------ ----- --<br>----- ----- ---------- --- --- ------ ------ ---- -- ------<br>------- --- ------ ----- --- ---- ------- -- ---- --- --<br>------- ------,184517.69999999972,184515.5,184209.903,184209.8999999999,184226.553,184526.261,,19,to
screen,html.Screen,2_1_1_1_20,2022-05-09T16:23:48.589Z,,,,,,,,,,,,,,,,,54,,,,,,,,,,,,,,238.83899999962887,,response,,,,100,,,,,,,Space,keypress(Space),,,,,,,,-- --- ---- --- ------ ----- ------- ---- -- --- ------- --<br>------- ---------- ------ -- ----- -- ----- -- save ------<br>--- ----- --- --- ------ -------- ----- --- ------ ----- --<br>----- ----- ---------- --- --- ------ ------ ---- -- ------<br>------- --- ------ ----- --- ---- ------- -- ---- --- --<br>------- ------,184767.69999999972,184765.09999999963,184509.611,184518,184526.261,184776.019,,20,save
screen,html.Screen,2_1_1_1_21,2022-05-09T16:23:48.844Z,,,,,,,,,,,,,,,,,54,,,,,,,,,,,,,,243.48099999999977,,response,,,,100,,,,,,,Space,keypress(Space),,,,,,,,"-- --- ---- --- ------ ----- ------- ---- -- --- ------- --<br>------- ---------- ------ -- ----- -- ----- -- ---- money,<br>--- ----- --- --- ------ -------- ----- --- ------ ----- --<br>----- ----- ---------- --- --- ------ ------ ---- -- ------<br>------- --- ------ ----- --- ---- ------- -- ---- --- --<br>------- ------",185021.8999999999,185019.5,184759.369,184767.8999999999,184776.019,185025.781,,21,"money,"
screen,html.Screen,2_1_1_1_22,2022-05-09T16:23:49.107Z,,,,,,,,,,,,,,,,,54,,,,,,,,,,,,,,257.0189999998256,,response,,,,100,,,,,,,Space,keypress(Space),,,,,,,,-- --- ---- --- ------ ----- ------- ---- -- --- ------- --<br>------- ---------- ------ -- ----- -- ----- -- ---- ------<br>the ----- --- --- ------ -------- ----- --- ------ ----- --<br>----- ----- ---------- --- --- ------ ------ ---- -- ------<br>------- --- ------ ----- --- ---- ------- -- ---- --- --<br>------- ------,185285.09999999963,185282.7999999998,185009.131,185022.09999999963,185025.781,185292.193,,22,the
screen,html.Screen,2_1_1_1_23,2022-05-09T16:23:49.357Z,,,,,,,,,,,,,,,,,54,,,,,,,,,,,,,,240.70699999990757,,response,,,,100,,,,,,,Space,keypress(Space),,,,,,,,-- --- ---- --- ------ ----- ------- ---- -- --- ------- --<br>------- ---------- ------ -- ----- -- ----- -- ---- ------<br>--- state --- --- ------ -------- ----- --- ------ ----- --<br>----- ----- ---------- --- --- ------ ------ ---- -- ------<br>------- --- ------ ----- --- ---- ------- -- ---- --- --<br>------- ------,185535.3999999999,185532.8999999999,185275.543,185285.3999999999,185292.193,185541.947,,23,state
screen,html.Screen,2_1_1_1_24,2022-05-09T16:23:49.619Z,,,,,,,,,,,,,,,,,54,,,,,,,,,,,,,,252.55300000001444,,response,,,,100,,,,,,,Space,keypress(Space),,,,,,,,-- --- ---- --- ------ ----- ------- ---- -- --- ------- --<br>------- ---------- ------ -- ----- -- ----- -- ---- ------<br>--- ----- cut --- ------ -------- ----- --- ------ ----- --<br>----- ----- ---------- --- --- ------ ------ ---- -- ------<br>------- --- ------ ----- --- ---- ------- -- ---- --- --<br>------- ------,185797.19999999972,185794.5,185525.297,185535.69999999972,185541.947,185808.352,,24,cut
screen,html.Screen,2_1_1_1_25,2022-05-09T16:23:49.859Z,,,,,,,,,,,,,,,,,54,,,,,,,,,,,,,,226.1479999999865,,response,,,,100,,,,,,,Space,keypress(Space),,,,,,,,-- --- ---- --- ------ ----- ------- ---- -- --- ------- --<br>------- ---------- ------ -- ----- -- ----- -- ---- ------<br>--- ----- --- the ------ -------- ----- --- ------ ----- --<br>----- ----- ---------- --- --- ------ ------ ---- -- ------<br>------- --- ------ ----- --- ---- ------- -- ---- --- --<br>------- ------,186036.8999999999,186034.5,185791.702,185797.3999999999,185808.352,186041.464,,25,the
screen,html.Screen,2_1_1_1_26,2022-05-09T16:23:50.103Z,,,,,,,,,,,,,,,,,54,,,,,,,,,,,,,,237.63599999962025,,response,,,,100,,,,,,,Space,keypress(Space),,,,,,,,-- --- ---- --- ------ ----- ------- ---- -- --- ------- --<br>------- ---------- ------ -- ----- -- ----- -- ---- ------<br>--- ----- --- --- bonds' -------- ----- --- ------ ----- --<br>----- ----- ---------- --- --- ------ ------ ---- -- ------<br>------- --- ------ ----- --- ---- ------- -- ---- --- --<br>------- ------,186281.69999999972,186279.09999999963,186024.814,186037.09999999963,186041.464,186291.205,,26,bonds'
screen,html.Screen,2_1_1_1_27,2022-05-09T16:23:50.345Z,,,,,,,,,,,,,,,,,54,,,,,,,,,,,,,,229.69499999991967,,response,,,,100,,,,,,,Space,keypress(Space),,,,,,,,-- --- ---- --- ------ ----- ------- ---- -- --- ------- --<br>------- ---------- ------ -- ----- -- ----- -- ---- ------<br>--- ----- --- --- ------ interest ----- --- ------ ----- --<br>----- ----- ---------- --- --- ------ ------ ---- -- ------<br>------- --- ------ ----- --- ---- ------- -- ---- --- --<br>------- ------,186523.19999999972,186520.8999999999,186274.555,186281.8999999999,186291.205,186540.956,,27,interest
screen,html.Screen,2_1_1_1_28,2022-05-09T16:23:50.581Z,,,,,,,,,,,,,,,,,54,,,,,,,,,,,,,,216.64399999962188,,response,,,,100,,,,,,,Space,keypress(Space),,,,,,,,-- --- ---- --- ------ ----- ------- ---- -- --- ------- --<br>------- ---------- ------ -- ----- -- ----- -- ---- ------<br>--- ----- --- --- ------ -------- rate. --- ------ ----- --<br>----- ----- ---------- --- --- ------ ------ ---- -- ------<br>------- --- ------ ----- --- ---- ------- -- ---- --- --<br>------- ------,186759.7999999998,186757.59999999963,186524.306,186523.2999999998,186540.956,186774.064,,28,rate.
screen,html.Screen,2_1_1_1_29,2022-05-09T16:23:50.857Z,,,,,,,,,,,,,,,,,54,,,,,,,,,,,,,,258.83599999989383,,response,,,,100,,,,,,,Space,keypress(Space),,,,,,,,-- --- ---- --- ------ ----- ------- ---- -- --- ------- --<br>------- ---------- ------ -- ----- -- ----- -- ---- ------<br>--- ----- --- --- ------ -------- ----- The ------ ----- --<br>----- ----- ---------- --- --- ------ ------ ---- -- ------<br>------- --- ------ ----- --- ---- ------- -- ---- --- --<br>------- ------,187035.69999999972,187032.8999999999,186757.414,186760,186774.064,187040.473,,29,The
screen,html.Screen,2_1_1_1_30,2022-05-09T16:23:51.113Z,,,,,,,,,,,,,,,,,54,,,,,,,,,,,,,,248.02700000000186,,response,,,,100,,,,,,,Space,keypress(Space),,,,,,,,-- --- ---- --- ------ ----- ------- ---- -- --- ------- --<br>------- ---------- ------ -- ----- -- ----- -- ---- ------<br>--- ----- --- --- ------ -------- ----- --- market ----- --<br>----- ----- ---------- --- --- ------ ------ ---- -- ------<br>------- --- ------ ----- --- ---- ------- -- ---- --- --<br>------- ------,187290.8999999999,187288.5,187023.823,187035.8999999999,187040.473,187306.881,,30,market
screen,html.Screen,2_1_1_1_31,2022-05-09T16:23:51.406Z,,,,,,,,,,,,,,,,,54,,,,,,,,,,,,,,275.11900000000605,,response,,,,100,,,,,,,Space,keypress(Space),,,,,,,,-- --- ---- --- ------ ----- ------- ---- -- --- ------- --<br>------- ---------- ------ -- ----- -- ----- -- ---- ------<br>--- ----- --- --- ------ -------- ----- --- ------ value --<br>----- ----- ---------- --- --- ------ ------ ---- -- ------<br>------- --- ------ ----- --- ---- ------- -- ---- --- --<br>------- ------,187584.69999999972,187582,187290.231,187291,187306.881,187589.935,,31,value
screen,html.Screen,2_1_1_1_32,2022-05-09T16:23:51.690Z,,,,,,,,,,,,,,,,,54,,,,,,,,,,,,,,275.4649999999092,,response,,,,100,,,,,,,Space,keypress(Space),,,,,,,,-- --- ---- --- ------ ----- ------- ---- -- --- ------- --<br>------- ---------- ------ -- ----- -- ----- -- ---- ------<br>--- ----- --- --- ------ -------- ----- --- ------ ----- of<br>----- ----- ---------- --- --- ------ ------ ---- -- ------<br>------- --- ------ ----- --- ---- ------- -- ---- --- --<br>------- ------,187867.8999999999,187865.3999999999,187573.285,187584.8999999999,187589.935,187872.997,,32,of
screen,html.Screen,2_1_1_1_33,2022-05-09T16:23:51.963Z,,,,,,,,,,,,,,,,,54,,,,,,,,,,,,,,264.8029999998107,,response,,,,100,,,,,,,Space,keypress(Space),,,,,,,,-- --- ---- --- ------ ----- ------- ---- -- --- ------- --<br>------- ---------- ------ -- ----- -- ----- -- ---- ------<br>--- ----- --- --- ------ -------- ----- --- ------ ----- --<br>these ----- ---------- --- --- ------ ------ ---- -- ------<br>------- --- ------ ----- --- ---- ------- -- ---- --- --<br>------- ------,188141.09999999963,188137.7999999998,187856.347,187868.09999999963,187872.997,188156.042,,33,these
screen,html.Screen,2_1_1_1_34,2022-05-09T16:23:52.211Z,,,,,,,,,,,,,,,,,54,,,,,,,,,,,,,,231.05799999964074,,response,,,,100,,,,,,,Space,keypress(Space),,,,,,,,-- --- ---- --- ------ ----- ------- ---- -- --- ------- --<br>------- ---------- ------ -- ----- -- ----- -- ---- ------<br>--- ----- --- --- ------ -------- ----- --- ------ ----- --<br>----- bonds ---------- --- --- ------ ------ ---- -- ------<br>------- --- ------ ----- --- ---- ------- -- ---- --- --<br>------- ------,188389.5,188387.09999999963,188139.392,188141.2999999998,188156.042,188405.803,,34,bonds
screen,html.Screen,2_1_1_1_35,2022-05-09T16:23:52.462Z,,,,,,,,,,,,,,,,,54,,,,,,,,,,,,,,231.4969999997993,,response,,,,100,,,,,,,Space,keypress(Space),,,,,,,,"-- --- ---- --- ------ ----- ------- ---- -- --- ------- --<br>------- ---------- ------ -- ----- -- ----- -- ---- ------<br>--- ----- --- --- ------ -------- ----- --- ------ ----- --<br>----- ----- plummeted, --- --- ------ ------ ---- -- ------<br>------- --- ------ ----- --- ---- ------- -- ---- --- --<br>------- ------",188640.19999999972,188637.2999999998,188389.153,188389.69999999972,188405.803,188655.567,,35,"plummeted,"
screen,html.Screen,2_1_1_1_36,2022-05-09T16:23:52.731Z,,,,,,,,,,,,,,,,,54,,,,,,,,,,,,,,251.1329999997106,,response,,,,100,,,,,,,Space,keypress(Space),,,,,,,,-- --- ---- --- ------ ----- ------- ---- -- --- ------- --<br>------- ---------- ------ -- ----- -- ----- -- ---- ------<br>--- ----- --- --- ------ -------- ----- --- ------ ----- --<br>----- ----- ---------- and --- ------ ------ ---- -- ------<br>------- --- ------ ----- --- ---- ------- -- ---- --- --<br>------- ------,188909.19999999972,188906.69999999972,188638.917,188640.2999999998,188655.567,188921.96,,36,and
screen,html.Screen,2_1_1_1_37,2022-05-09T16:23:52.989Z,,,,,,,,,,,,,,,,,54,,,,,,,,,,,,,,242.54000000000815,,response,,,,100,,,,,,,Space,keypress(Space),,,,,,,,-- --- ---- --- ------ ----- ------- ---- -- --- ------- --<br>------- ---------- ------ -- ----- -- ----- -- ---- ------<br>--- ----- --- --- ------ -------- ----- --- ------ ----- --<br>----- ----- ---------- --- the ------ ------ ---- -- ------<br>------- --- ------ ----- --- ---- ------- -- ---- --- --<br>------- ------,189167.59999999963,189164.5,188905.31,188909.2999999998,188921.96,189171.718,,37,the
screen,html.Screen,2_1_1_1_38,2022-05-09T16:23:53.250Z,,,,,,,,,,,,,,,,,54,,,,,,,,,,,,,,254.48199999972712,,response,,,,100,,,,,,,Space,keypress(Space),,,,,,,,-- --- ---- --- ------ ----- ------- ---- -- --- ------- --<br>------- ---------- ------ -- ----- -- ----- -- ---- ------<br>--- ----- --- --- ------ -------- ----- --- ------ ----- --<br>----- ----- ---------- --- --- market ------ ---- -- ------<br>------- --- ------ ----- --- ---- ------- -- ---- --- --<br>------- ------,189428.3999999999,189426.19999999972,189155.068,189167.7999999998,189171.718,189438.137,,38,market
screen,html.Screen,2_1_1_1_39,2022-05-09T16:23:53.532Z,,,,,,,,,,,,,,,,,54,,,,,,,,,,,,,,269.5629999997327,,response,,,,100,,,,,,,Space,keypress(Space),,,,,,,,-- --- ---- --- ------ ----- ------- ---- -- --- ------- --<br>------- ---------- ------ -- ----- -- ----- -- ---- ------<br>--- ----- --- --- ------ -------- ----- --- ------ ----- --<br>----- ----- ---------- --- --- ------ became ---- -- ------<br>------- --- ------ ----- --- ---- ------- -- ---- --- --<br>------- ------,189710.19999999972,189707.69999999972,189421.487,189428.59999999963,189438.137,189721.181,,39,became
screen,html.Screen,2_1_1_1_40,2022-05-09T16:23:53.800Z,,,,,,,,,,,,,,,,,54,,,,,,,,,,,,,,254.71899999989546,,response,,,,100,,,,,,,Space,keypress(Space),,,,,,,,-- --- ---- --- ------ ----- ------- ---- -- --- ------- --<br>------- ---------- ------ -- ----- -- ----- -- ---- ------<br>--- ----- --- --- ------ -------- ----- --- ------ ----- --<br>----- ----- ---------- --- --- ------ ------ wary -- ------<br>------- --- ------ ----- --- ---- ------- -- ---- --- --<br>------- ------,189978.09999999963,189975.8999999999,189704.531,189710.2999999998,189721.181,189987.587,,40,wary
screen,html.Screen,2_1_1_1_41,2022-05-09T16:23:54.090Z,,,,,,,,,,,,,,,,,54,,,,,,,,,,,,,,278.41300000000047,,response,,,,100,,,,,,,Space,keypress(Space),,,,,,,,-- --- ---- --- ------ ----- ------- ---- -- --- ------- --<br>------- ---------- ------ -- ----- -- ----- -- ---- ------<br>--- ----- --- --- ------ -------- ----- --- ------ ----- --<br>----- ----- ---------- --- --- ------ ------ ---- of ------<br>------- --- ------ ----- --- ---- ------- -- ---- --- --<br>------- ------,190268.7999999998,190266,189970.937,189978.2999999998,189987.587,190270.654,,41,of
screen,html.Screen,2_1_1_1_42,2022-05-09T16:23:54.347Z,,,,,,,,,,,,,,,,,54,,,,,,,,,,,,,,252.1459999998042,,response,,,,100,,,,,,,Space,keypress(Space),,,,,,,,-- --- ---- --- ------ ----- ------- ---- -- --- ------- --<br>------- ---------- ------ -- ----- -- ----- -- ---- ------<br>--- ----- --- --- ------ -------- ----- --- ------ ----- --<br>----- ----- ---------- --- --- ------ ------ ---- -- French<br>------- --- ------ ----- --- ---- ------- -- ---- --- --<br>------- ------,190525.3999999999,190522.7999999998,190254.004,190268.8999999999,190270.654,190537.046,,42,French
screen,html.Screen,2_1_1_1_43,2022-05-09T16:23:54.642Z,,,,,,,,,,,,,,,,,54,,,,,,,,,,,,,,279.75399999981164,,response,,,,100,,,,,,,Space,keypress(Space),,,,,,,,-- --- ---- --- ------ ----- ------- ---- -- --- ------- --<br>------- ---------- ------ -- ----- -- ----- -- ---- ------<br>--- ----- --- --- ------ -------- ----- --- ------ ----- --<br>----- ----- ---------- --- --- ------ ------ ---- -- ------<br>credit. --- ------ ----- --- ---- ------- -- ---- --- --<br>------- ------,190820.7999999998,190816.7999999998,190520.396,190525.69999999972,190537.046,190836.762,,43,credit.
screen,html.Screen,2_1_1_1_44,2022-05-09T16:23:54.894Z,,,,,,,,,,,,,,,,,54,,,,,,,,,,,,,,227.03799999982584,,response,,,,100,,,,,,,Space,keypress(Space),,,,,,,,-- --- ---- --- ------ ----- ------- ---- -- --- ------- --<br>------- ---------- ------ -- ----- -- ----- -- ---- ------<br>--- ----- --- --- ------ -------- ----- --- ------ ----- --<br>----- ----- ---------- --- --- ------ ------ ---- -- ------<br>------- The ------ ----- --- ---- ------- -- ---- --- --<br>------- ------,191072,191063.7999999998,190820.112,190820.8999999999,190836.762,191086.523,,44,The
screen,html.Screen,2_1_1_1_45,2022-05-09T16:23:55.166Z,,,,,,,,,,,,,,,,,54,,,,,,,,,,,,,,255.77699999982724,,response,,,,100,,,,,,,Space,keypress(Space),,,,,,,,-- --- ---- --- ------ ----- ------- ---- -- --- ------- --<br>------- ---------- ------ -- ----- -- ----- -- ---- ------<br>--- ----- --- --- ------ -------- ----- --- ------ ----- --<br>----- ----- ---------- --- --- ------ ------ ---- -- ------<br>------- --- French ----- --- ---- ------- -- ---- --- --<br>------- ------,191344.5,191342.2999999998,191069.873,191072.09999999963,191086.523,191352.922,,45,French
screen,html.Screen,2_1_1_1_46,2022-05-09T16:23:55.456Z,,,,,,,,,,,,,,,,,54,,,,,,,,,,,,,,279.2779999997292,,response,,,,100,,,,,,,Space,keypress(Space),,,,,,,,-- --- ---- --- ------ ----- ------- ---- -- --- ------- --<br>------- ---------- ------ -- ----- -- ----- -- ---- ------<br>--- ----- --- --- ------ -------- ----- --- ------ ----- --<br>----- ----- ---------- --- --- ------ ------ ---- -- ------<br>------- --- ------ state --- ---- ------- -- ---- --- --<br>------- ------,191634.59999999963,191632.19999999972,191336.272,191344.7999999998,191352.922,191652.621,,46,state
screen,html.Screen,2_1_1_1_47,2022-05-09T16:23:55.718Z,,,,,,,,,,,,,,,,,54,,,,,,,,,,,,,,241.07899999970687,,response,,,,100,,,,,,,Space,keypress(Space),,,,,,,,-- --- ---- --- ------ ----- ------- ---- -- --- ------- --<br>------- ---------- ------ -- ----- -- ----- -- ---- ------<br>--- ----- --- --- ------ -------- ----- --- ------ ----- --<br>----- ----- ---------- --- --- ------ ------ ---- -- ------<br>------- --- ------ ----- was ---- ------- -- ---- --- --<br>------- ------,191896.09999999963,191893.69999999972,191635.971,191634.8999999999,191652.621,191902.397,,47,was
screen,html.Screen,2_1_1_1_48,2022-05-09T16:23:55.983Z,,,,,,,,,,,,,,,,,54,,,,,,,,,,,,,,256.50299999990966,,response,,,,100,,,,,,,Space,keypress(Space),,,,,,,,-- --- ---- --- ------ ----- ------- ---- -- --- ------- --<br>------- ---------- ------ -- ----- -- ----- -- ---- ------<br>--- ----- --- --- ------ -------- ----- --- ------ ----- --<br>----- ----- ---------- --- --- ------ ------ ---- -- ------<br>------- --- ------ ----- --- left ------- -- ---- --- --<br>------- ------,192161.5,192158.8999999999,191885.747,191896.2999999998,191902.397,192168.801,,48,left
screen,html.Screen,2_1_1_1_49,2022-05-09T16:23:56.230Z,,,,,,,,,,,,,,,,,54,,,,,,,,,,,,,,237.39899999971385,,response,,,,100,,,,,,,Space,keypress(Space),,,,,,,,-- --- ---- --- ------ ----- ------- ---- -- --- ------- --<br>------- ---------- ------ -- ----- -- ----- -- ---- ------<br>--- ----- --- --- ------ -------- ----- --- ------ ----- --<br>----- ----- ---------- --- --- ------ ------ ---- -- ------<br>------- --- ------ ----- --- ---- without -- ---- --- --<br>------- ------,192408.59999999963,192406.19999999972,192152.151,192161.69999999972,192168.801,192418.556,,49,without
screen,html.Screen,2_1_1_1_50,2022-05-09T16:23:56.530Z,,,,,,,,,,,,,,,,,54,,,,,,,,,,,,,,287.84399999989546,,response,,,,100,,,,,,,Space,keypress(Space),,,,,,,,-- --- ---- --- ------ ----- ------- ---- -- --- ------- --<br>------- ---------- ------ -- ----- -- ----- -- ---- ------<br>--- ----- --- --- ------ -------- ----- --- ------ ----- --<br>----- ----- ---------- --- --- ------ ------ ---- -- ------<br>------- --- ------ ----- --- ---- ------- an ---- --- --<br>------- ------,192708.69999999972,192706.3999999999,192401.906,192408.8999999999,192418.556,192718.261,,50,an
screen,html.Screen,2_1_1_1_51,2022-05-09T16:23:56.772Z,,,,,,,,,,,,,,,,,54,,,,,,,,,,,,,,229.2390000000014,,response,,,,100,,,,,,,Space,keypress(Space),,,,,,,,-- --- ---- --- ------ ----- ------- ---- -- --- ------- --<br>------- ---------- ------ -- ----- -- ----- -- ---- ------<br>--- ----- --- --- ------ -------- ----- --- ------ ----- --<br>----- ----- ---------- --- --- ------ ------ ---- -- ------<br>------- --- ------ ----- --- ---- ------- -- easy --- --<br>------- ------,192950.69999999972,192947.5,192701.611,192708.8999999999,192718.261,192968.016,,51,easy
screen,html.Screen,2_1_1_1_52,2022-05-09T16:23:57.062Z,,,,,,,,,,,,,,,,,54,,,,,,,,,,,,,,269.68399999971734,,response,,,,100,,,,,,,Space,keypress(Space),,,,,,,,-- --- ---- --- ------ ----- ------- ---- -- --- ------- --<br>------- ---------- ------ -- ----- -- ----- -- ---- ------<br>--- ----- --- --- ------ -------- ----- --- ------ ----- --<br>----- ----- ---------- --- --- ------ ------ ---- -- ------<br>------- --- ------ ----- --- ---- ------- -- ---- way --<br>------- ------,193240.19999999972,193237.69999999972,192951.366,192951,192968.016,193251.06,,52,way
screen,html.Screen,2_1_1_1_53,2022-05-09T16:23:57.736Z,,,,,,,,,,,,,,,,,54,,,,,,,,,,,,,,660.7399999998161,,response,,,,100,,,,,,,Space,keypress(Space),,,,,,,,-- --- ---- --- ------ ----- ------- ---- -- --- ------- --<br>------- ---------- ------ -- ----- -- ----- -- ---- ------<br>--- ----- --- --- ------ -------- ----- --- ------ ----- --<br>----- ----- ---------- --- --- ------ ------ ---- -- ------<br>------- --- ------ ----- --- ---- ------- -- ---- --- of<br>------- ------,193914.09999999963,193911.7999999998,193234.41,193240.3999999999,193251.06,193917.068,,53,of
screen,html.Screen,2_1_1_1_54,2022-05-09T16:23:58.131Z,,,,,,,,,,,,,,,,,54,,,,,,,,,,,,,,390.33199999990757,,response,,,,100,,,,,,,Space,keypress(Space),,,,,,,,-- --- ---- --- ------ ----- ------- ---- -- --- ------- --<br>------- ---------- ------ -- ----- -- ----- -- ---- ------<br>--- ----- --- --- ------ -------- ----- --- ------ ----- --<br>----- ----- ---------- --- --- ------ ------ ---- -- ------<br>------- --- ------ ----- --- ---- ------- -- ---- --- --<br>raising ------,194309.5,194307.3999999999,193900.418,193914.2999999998,193917.068,194316.686,,54,raising
screen,html.Screen,2_1_1_1_55,2022-05-09T16:23:58.527Z,,,,,,,,,,,,,,,,,54,,,,,,,,,,,,,,385.6139999998268,,response,,,,100,,,,,,,Space,keypress(Space),,,,,,,,-- --- ---- --- ------ ----- ------- ---- -- --- ------- --<br>------- ---------- ------ -- ----- -- ----- -- ---- ------<br>--- ----- --- --- ------ -------- ----- --- ------ ----- --<br>----- ----- ---------- --- --- ------ ------ ---- -- ------<br>------- --- ------ ----- --- ---- ------- -- ---- --- --<br>------- money.,194705,194702.2999999998,194300.036,194309.69999999972,194316.686,194716.306,,55,money.
Item 100,flow.Loop,2_1_1_1,2022-05-09T16:23:58.527Z,,,,,,,,,,,,,,,,,,,,,,,,,,,,,,,18601.12899999981,,completion,,,,,G,,,,,,,,,,,silence,,,,,194705.2999999998,194702.2999999998,176084.521,176087.09999999963,176101.171,194716.306,,,
Question 1,html.Screen,2_1_1_2,2022-05-09T16:24:01.189Z,,,,,,,,,,,,,,,,,,,,,,,,,,,,true,TRUE,,2646.793999999616,,response,,,,100,G,,,,,,TRUE,click #choice-1,,,,silence,,,,,197367,197363.09999999963,194699.656,194705.3999999999,194716.306,197380.352,,,
Question 2,html.Screen,2_1_1_3,2022-05-09T16:24:03.190Z,,,,,,,,,,,,,,,,,,,,,,,,,,,,true,FALSE,,1983.6479999999865,,response,,,,100,G,,,,,,FALSE,click #choice-2,,,,silence,,,,,199368.19999999972,199364,197363.702,197367.3999999999,197380.352,199378.397,,,
Item 100,flow.Sequence,2_1_1,2022-05-09T16:24:03.190Z,,,,,,,,,,,,,,,,,,,,,,,,,,,,,,,33269.704,,completion,,,,,,,,,,,,,,,,,,,,,199368.5,199364,166077.646,166094.19999999972,166094.296,199378.397,,,
End of Practice,html.Page,2_1_2,2022-05-09T16:24:05.549Z,,,,,,,,,,,,,,,,,,,,,,,,,,,,,,,2348.0029999999097,,form submission,,,,,,,,,,,,,,,,,,,,,201726.8999999999,201726.3999999999,199361.747,199368.69999999972,199378.397,201726.103,,,
Practice,flow.Sequence,2_1,2022-05-09T16:24:05.549Z,,,,,,,,,,,,,,,,,,,,,,,,,,,,,,,71413.81799999991,,completion,,,,,,,,,,,,,,,,,,,,,201727.2999999998,201726.3999999999,130295.932,130313.29999999981,130312.582,201726.103,,,
Trap_instruction,html.Page,2_2_0,2022-05-09T16:24:08.382Z,,,,,,,,,,,,,,,,,,,,,,,,,,,,,,,2833.296999999904,,form submission,,,,,,,,,,,,,,,,,,,,,204559.7999999998,204559.3999999999,201709.453,201727.5,201726.103,204623.232,,,
trap_trial,html.Screen,2_2_1,2022-05-09T16:24:11.264Z,,,,,,,,,,,,,,,,,,,,,,,,,,,,true,1,,2814.9679999997315,,response,,,,,,,,,,,1,click #choice-1,,,,,,,,,207442.19999999972,207438.19999999972,204556.632,204560,204623.232,207453.799,,,
end of trap trial,html.Page,2_2_2,2022-05-09T16:24:12.929Z,,,,,,,,,,,,,,,,,,,,,,,,,,,,,,,1653.3009999996284,,form submission,,,,,,,,,,,,,,,,,,,,,209107.5,209107.09999999963,207437.149,207442.59999999963,207453.799,209118.868,,,
Trap 1,flow.Sequence,2_2,2022-05-09T16:24:12.930Z,,,,,,,,,,,,,,,,,,,,,,,,,,,,,,,7380.996999999625,,completion,,,,,,,,,,,,,,,,,,,,,209107.8999999999,209107.09999999963,201709.453,201727.3999999999,201726.103,209118.868,,,
Standby,html.Page,2_3_0,2022-05-09T16:24:20.918Z,,,,,,,,,,,,,,,,,,,,,,,,,,,,,,,7992.1720000000205,,timeout,,,,,,,,,,,,,,,,,,,,,217096.5,217094.39,209102.218,209108.09999999963,209118.868,217111.04,,,
Holding screen,html.Screen,2_3_1_0_0,2022-05-09T16:24:27.911Z,,,,,,,,,,,,,,,,,,,,,,,,,,,,,,,6993.154999999999,,timeout,,,,,,,,,,,,,,,,,,,,,224089.2999999998,224087.545,217094.39,217097.2999999998,217111.04,224104.195,,,
screen,html.Screen,2_3_1_0_1_0,2022-05-09T16:24:28.917Z,,,,,,,,,,,,,,,,,51,,,,,,,,,,,,,,987.9049999996205,,response,,,,13,G,,,,,,Space,keypress(Space),,,,instrumental,,,,American -------- --- --- ---- --- --- ------ -- --------<br>---- --------- --- ------- ------------ ---------- ---------<br>--- ---------- ------- ---------- ------- -- -------- ----<br>---- --- ------ ----- ------ -- ---- --- ----- -- - -------<br>-------- -- --- --- -- ----- ----------- ----- -----------<br>---- --- ---------- --- ---- --- -- ----------,225095.5,225092.09999999963,224087.545,224090.09999999963,224104.195,225103.227,,0,American
screen,html.Screen,2_3_1_0_1_1,2022-05-09T16:24:29.220Z,,,,,,,,,,,,,,,,,51,,,,,,,,,,,,,,292.67299999989336,,response,,,,13,G,,,,,,Space,keypress(Space),,,,instrumental,,,,-------- industry --- --- ---- --- --- ------ -- --------<br>---- --------- --- ------- ------------ ---------- ---------<br>--- ---------- ------- ---------- ------- -- -------- ----<br>---- --- ------ ----- ------ -- ---- --- ----- -- - -------<br>-------- -- --- --- -- ----- ----------- ----- -----------<br>---- --- ---------- --- ---- --- -- ----------,225398.09999999963,225395.8999999999,225086.577,225095.69999999972,225103.227,225402.948,,1,industry
screen,html.Screen,2_3_1_0_1_2,2022-05-09T16:24:29.478Z,,,,,,,,,,,,,,,,,51,,,,,,,,,,,,,,250.9519999999029,,response,,,,13,G,,,,,,Space,keypress(Space),,,,instrumental,,,,-------- -------- may --- ---- --- --- ------ -- --------<br>---- --------- --- ------- ------------ ---------- ---------<br>--- ---------- ------- ---------- ------- -- -------- ----<br>---- --- ------ ----- ------ -- ---- --- ----- -- - -------<br>-------- -- --- --- -- ----- ----------- ----- -----------<br>---- --- ---------- --- ---- --- -- ----------,225656.19999999972,225653.8999999999,225386.298,225398.2999999998,225402.948,225669.357,,2,may
screen,html.Screen,2_3_1_0_1_3,2022-05-09T16:24:29.766Z,,,,,,,,,,,,,,,,,51,,,,,,,,,,,,,,272.7429999996384,,response,,,,13,G,,,,,,Space,keypress(Space),,,,instrumental,,,,-------- -------- --- not ---- --- --- ------ -- --------<br>---- --------- --- ------- ------------ ---------- ---------<br>--- ---------- ------- ---------- ------- -- -------- ----<br>---- --- ------ ----- ------ -- ---- --- ----- -- - -------<br>-------- -- --- --- -- ----- ----------- ----- -----------<br>---- --- ---------- --- ---- --- -- ----------,225944.3999999999,225942.09999999963,225652.707,225656.3999999999,225669.357,225952.417,,3,not
screen,html.Screen,2_3_1_0_1_4,2022-05-09T16:24:30.048Z,,,,,,,,,,,,,,,,,51,,,,,,,,,,,,,,271.382999999827,,response,,,,13,G,,,,,,Space,keypress(Space),,,,instrumental,,,,-------- -------- --- --- know --- --- ------ -- --------<br>---- --------- --- ------- ------------ ---------- ---------<br>--- ---------- ------- ---------- ------- -- -------- ----<br>---- --- ------ ----- ------ -- ---- --- ----- -- - -------<br>-------- -- --- --- -- ----- ----------- ----- -----------<br>---- --- ---------- --- ---- --- -- ----------,226226.2999999998,226223.7999999998,225935.767,225944.59999999963,225952.417,226235.468,,4,know
screen,html.Screen,2_3_1_0_1_5,2022-05-09T16:24:30.303Z,,,,,,,,,,,,,,,,,51,,,,,,,,,,,,,,242.9319999999134,,response,,,,13,G,,,,,,Space,keypress(Space),,,,instrumental,,,,"-------- -------- --- --- ---- it, --- ------ -- --------<br>---- --------- --- ------- ------------ ---------- ---------<br>--- ---------- ------- ---------- ------- -- -------- ----<br>---- --- ------ ----- ------ -- ---- --- ----- -- - -------<br>-------- -- --- --- -- ----- ----------- ----- -----------<br>---- --- ---------- --- ---- --- -- ----------",226481.19999999972,226478.3999999999,226218.818,226226.5,226235.468,226485.223,,5,"it,"
screen,html.Screen,2_3_1_0_1_6,2022-05-09T16:24:30.543Z,,,,,,,,,,,,,,,,,51,,,,,,,,,,,,,,234.67699999990873,,response,,,,13,G,,,,,,Space,keypress(Space),,,,instrumental,,,,-------- -------- --- --- ---- --- but ------ -- --------<br>---- --------- --- ------- ------------ ---------- ---------<br>--- ---------- ------- ---------- ------- -- -------- ----<br>---- --- ------ ----- ------ -- ---- --- ----- -- - -------<br>-------- -- --- --- -- ----- ----------- ----- -----------<br>---- --- ---------- --- ---- --- -- ----------,226721.7999999998,226719.8999999999,226468.573,226481.2999999998,226485.223,226734.98,,6,but
screen,html.Screen,2_3_1_0_1_7,2022-05-09T16:24:30.791Z,,,,,,,,,,,,,,,,,51,,,,,,,,,,,,,,232.21999999971013,,response,,,,13,G,,,,,,Space,keypress(Space),,,,instrumental,,,,-------- -------- --- --- ---- --- --- debate -- --------<br>---- --------- --- ------- ------------ ---------- ---------<br>--- ---------- ------- ---------- ------- -- -------- ----<br>---- --- ------ ----- ------ -- ---- --- ----- -- - -------<br>-------- -- --- --- -- ----- ----------- ----- -----------<br>---- --- ---------- --- ---- --- -- ----------,226969.2999999998,226967.19999999972,226718.33,226722,226734.98,226984.736,,7,debate
screen,html.Screen,2_3_1_0_1_8,2022-05-09T16:24:31.038Z,,,,,,,,,,,,,,,,,51,,,,,,,,,,,,,,229.66399999990244,,response,,,,13,G,,,,,,Space,keypress(Space),,,,instrumental,,,,-------- -------- --- --- ---- --- --- ------ in --------<br>---- --------- --- ------- ------------ ---------- ---------<br>--- ---------- ------- ---------- ------- -- -------- ----<br>---- --- ------ ----- ------ -- ---- --- ----- -- - -------<br>-------- -- --- --- -- ----- ----------- ----- -----------<br>---- --- ---------- --- ---- --- -- ----------,227216.59999999963,227214.3999999999,226968.086,226969.3999999999,226984.736,227234.482,,8,in
screen,html.Screen,2_3_1_0_1_9,2022-05-09T16:24:31.266Z,,,,,,,,,,,,,,,,,51,,,,,,,,,,,,,,207.6179999996384,,response,,,,13,G,,,,,,Space,keypress(Space),,,,instrumental,,,,-------- -------- --- --- ---- --- --- ------ -- Congress<br>---- --------- --- ------- ------------ ---------- ---------<br>--- ---------- ------- ---------- ------- -- -------- ----<br>---- --- ------ ----- ------ -- ---- --- ----- -- - -------<br>-------- -- --- --- -- ----- ----------- ----- -----------<br>---- --- ---------- --- ---- --- -- ----------,227444.2999999998,227442.09999999963,227217.832,227216.69999999972,227234.482,227450.946,,9,Congress
screen,html.Screen,2_3_1_0_1_10,2022-05-09T16:24:31.511Z,,,,,,,,,,,,,,,,,51,,,,,,,,,,,,,,236.55400000000373,,response,,,,13,G,,,,,,Space,keypress(Space),,,,instrumental,,,,-------- -------- --- --- ---- --- --- ------ -- --------<br>over --------- --- ------- ------------ ---------- ---------<br>--- ---------- ------- ---------- ------- -- -------- ----<br>---- --- ------ ----- ------ -- ---- --- ----- -- - -------<br>-------- -- --- --- -- ----- ----------- ----- -----------<br>---- --- ---------- --- ---- --- -- ----------,227689.5,227687.5,227434.296,227444.5,227450.946,227700.704,,10,over
screen,html.Screen,2_3_1_0_1_11,2022-05-09T16:24:31.747Z,,,,,,,,,,,,,,,,,51,,,,,,,,,,,,,,221.2960000000021,,response,,,,13,G,,,,,,Space,keypress(Space),,,,instrumental,,,,-------- -------- --- --- ---- --- --- ------ -- --------<br>---- reforming --- ------- ------------ ---------- ---------<br>--- ---------- ------- ---------- ------- -- -------- ----<br>---- --- ------ ----- ------ -- ---- --- ----- -- - -------<br>-------- -- --- --- -- ----- ----------- ----- -----------<br>---- --- ---------- --- ---- --- -- ----------,227925.09999999963,227922,227684.054,227689.69999999972,227700.704,227933.805,,11,reforming
screen,html.Screen,2_3_1_0_1_12,2022-05-09T16:24:31.990Z,,,,,,,,,,,,,,,,,51,,,,,,,,,,,,,,231.09499999991385,,response,,,,13,G,,,,,,Space,keypress(Space),,,,instrumental,,,,-------- -------- --- --- ---- --- --- ------ -- --------<br>---- --------- the ------- ------------ ---------- ---------<br>--- ---------- ------- ---------- ------- -- -------- ----<br>---- --- ------ ----- ------ -- ---- --- ----- -- - -------<br>-------- -- --- --- -- ----- ----------- ----- -----------<br>---- --- ---------- --- ---- --- -- ----------,228167.8999999999,228164.8999999999,227917.155,227925.19999999972,227933.805,228183.557,,12,the
screen,html.Screen,2_3_1_0_1_13,2022-05-09T16:24:32.231Z,,,,,,,,,,,,,,,,,51,,,,,,,,,,,,,,222.54299999962677,,response,,,,13,G,,,,,,Space,keypress(Space),,,,instrumental,,,,-------- -------- --- --- ---- --- --- ------ -- --------<br>---- --------- --- federal ------------ ---------- ---------<br>--- ---------- ------- ---------- ------- -- -------- ----<br>---- --- ------ ----- ------ -- ---- --- ----- -- - -------<br>-------- -- --- --- -- ----- ----------- ----- -----------<br>---- --- ---------- --- ---- --- -- ----------,228409.19999999972,228406.09999999963,228166.907,228168.09999999963,228183.557,228416.672,,13,federal
screen,html.Screen,2_3_1_0_1_14,2022-05-09T16:24:32.494Z,,,,,,,,,,,,,,,,,51,,,,,,,,,,,,,,253.62799999982235,,response,,,,13,G,,,,,,Space,keypress(Space),,,,instrumental,,,,-------- -------- --- --- ---- --- --- ------ -- --------<br>---- --------- --- ------- government's ---------- ---------<br>--- ---------- ------- ---------- ------- -- -------- ----<br>---- --- ------ ----- ------ -- ---- --- ----- -- - -------<br>-------- -- --- --- -- ----- ----------- ----- -----------<br>---- --- ---------- --- ---- --- -- ----------,228672.5,228670.2999999998,228400.022,228409.3999999999,228416.672,228683.067,,14,government's
screen,html.Screen,2_3_1_0_1_15,2022-05-09T16:24:32.758Z,,,,,,,,,,,,,,,,,51,,,,,,,,,,,,,,250.43299999999,,response,,,,13,G,,,,,,Space,keypress(Space),,,,instrumental,,,,-------- -------- --- --- ---- --- --- ------ -- --------<br>---- --------- --- ------- ------------ regulatory ---------<br>--- ---------- ------- ---------- ------- -- -------- ----<br>---- --- ------ ----- ------ -- ---- --- ----- -- - -------<br>-------- -- --- --- -- ----- ----------- ----- -----------<br>---- --- ---------- --- ---- --- -- ----------,228936.3999999999,228933.5,228666.417,228672.7999999998,228683.067,228949.466,,15,regulatory
screen,html.Screen,2_3_1_0_1_16,2022-05-09T16:24:33.390Z,,,,,,,,,,,,,,,,,51,,,,,,,,,,,,,,616.0340000000142,,response,,,,13,G,,,,,,Space,keypress(Space),,,,instrumental,,,,-------- -------- --- --- ---- --- --- ------ -- --------<br>---- --------- --- ------- ------------ ---------- apparatus<br>--- ---------- ------- ---------- ------- -- -------- ----<br>---- --- ------ ----- ------ -- ---- --- ----- -- - -------<br>-------- -- --- --- -- ----- ----------- ----- -----------<br>---- --- ---------- --- ---- --- -- ----------,229568.3999999999,229565.5,228932.816,228936.59999999963,228949.466,229582.183,,16,apparatus
screen,html.Screen,2_3_1_0_1_17,2022-05-09T16:24:33.716Z,,,,,,,,,,,,,,,,,51,,,,,,,,,,,,,,309.4169999996375,,response,,,,13,G,,,,,,Space,keypress(Space),,,,instrumental,,,,-------- -------- --- --- ---- --- --- ------ -- --------<br>---- --------- --- ------- ------------ ---------- ---------<br>may ---------- ------- ---------- ------- -- -------- ----<br>---- --- ------ ----- ------ -- ---- --- ----- -- - -------<br>-------- -- --- --- -- ----- ----------- ----- -----------<br>---- --- ---------- --- ---- --- -- ----------,229894.3999999999,229891.59999999963,229565.533,229568.59999999963,229582.183,229898.54,,17,may
screen,html.Screen,2_3_1_0_1_18,2022-05-09T16:24:34.020Z,,,,,,,,,,,,,,,,,51,,,,,,,,,,,,,,296.5599999996193,,response,,,,13,G,,,,,,Space,keypress(Space),,,,instrumental,,,,-------- -------- --- --- ---- --- --- ------ -- --------<br>---- --------- --- ------- ------------ ---------- ---------<br>--- profoundly ------- ---------- ------- -- -------- ----<br>---- --- ------ ----- ------ -- ---- --- ----- -- - -------<br>-------- -- --- --- -- ----- ----------- ----- -----------<br>---- --- ---------- --- ---- --- -- ----------,230198.09999999963,230195.09999999963,229881.89,229894.5,229898.54,230214.902,,18,profoundly
screen,html.Screen,2_3_1_0_1_19,2022-05-09T16:24:34.349Z,,,,,,,,,,,,,,,,,51,,,,,,,,,,,,,,309.79799999971874,,response,,,,13,G,,,,,,Space,keypress(Space),,,,instrumental,,,,-------- -------- --- --- ---- --- --- ------ -- --------<br>---- --------- --- ------- ------------ ---------- ---------<br>--- ---------- improve ---------- ------- -- -------- ----<br>---- --- ------ ----- ------ -- ---- --- ----- -- - -------<br>-------- -- --- --- -- ----- ----------- ----- -----------<br>---- --- ---------- --- ---- --- -- ----------,230527.5,230524.69999999972,230198.252,230198.2999999998,230214.902,230531.259,,19,improve
screen,html.Screen,2_3_1_0_1_20,2022-05-09T16:24:34.707Z,,,,,,,,,,,,,,,,,51,,,,,,,,,,,,,,350.7410000000091,,response,,,,13,G,,,,,,Space,keypress(Space),,,,instrumental,,,,-------- -------- --- --- ---- --- --- ------ -- --------<br>---- --------- --- ------- ------------ ---------- ---------<br>--- ---------- ------- companies' ------- -- -------- ----<br>---- --- ------ ----- ------ -- ---- --- ----- -- - -------<br>-------- -- --- --- -- ----- ----------- ----- -----------<br>---- --- ---------- --- ---- --- -- ----------,230884.7999999998,230882,230514.609,230527.59999999963,230531.259,230897.564,,20,companies'
screen,html.Screen,2_3_1_0_1_21,2022-05-09T16:24:35.059Z,,,,,,,,,,,,,,,,,51,,,,,,,,,,,,,,337.43599999998696,,response,,,,13,G,,,,,,Space,keypress(Space),,,,instrumental,,,,-------- -------- --- --- ---- --- --- ------ -- --------<br>---- --------- --- ------- ------------ ---------- ---------<br>--- ---------- ------- ---------- ability -- -------- ----<br>---- --- ------ ----- ------ -- ---- --- ----- -- - -------<br>-------- -- --- --- -- ----- ----------- ----- -----------<br>---- --- ---------- --- ---- --- -- ----------,231237,231235,230880.914,230885,230897.564,231247.219,,21,ability
screen,html.Screen,2_3_1_0_1_22,2022-05-09T16:24:35.409Z,,,,,,,,,,,,,,,,,51,,,,,,,,,,,,,,337.68099999942933,,response,,,,13,G,,,,,,Space,keypress(Space),,,,instrumental,,,,-------- -------- --- --- ---- --- --- ------ -- --------<br>---- --------- --- ------- ------------ ---------- ---------<br>--- ---------- ------- ---------- ------- to -------- ----<br>---- --- ------ ----- ------ -- ---- --- ----- -- - -------<br>-------- -- --- --- -- ----- ----------- ----- -----------<br>---- --- ---------- --- ---- --- -- ----------,231587.59999999963,231584.89999999944,231230.569,231237.19999999972,231247.219,231596.883,,22,to
screen,html.Screen,2_3_1_0_1_23,2022-05-09T16:24:35.736Z,,,,,,,,,,,,,,,,,51,,,,,,,,,,,,,,315.21699999962584,,response,,,,13,G,,,,,,Space,keypress(Space),,,,instrumental,,,,-------- -------- --- --- ---- --- --- ------ -- --------<br>---- --------- --- ------- ------------ ---------- ---------<br>--- ---------- ------- ---------- ------- -- survive. ----<br>---- --- ------ ----- ------ -- ---- --- ----- -- - -------<br>-------- -- --- --- -- ----- ----------- ----- -----------<br>---- --- ---------- --- ---- --- -- ----------,231914.2999999998,231912.09999999963,231580.233,231587.7999999998,231596.883,231929.889,,23,survive.
screen,html.Screen,2_3_1_0_1_24,2022-05-09T16:24:36.128Z,,,,,,,,,,,,,,,,,51,,,,,,,,,,,,,,374.2109999996319,,response,,,,13,G,,,,,,Space,keypress(Space),,,,instrumental,,,,-------- -------- --- --- ---- --- --- ------ -- --------<br>---- --------- --- ------- ------------ ---------- ---------<br>--- ---------- ------- ---------- ------- -- -------- This<br>---- --- ------ ----- ------ -- ---- --- ----- -- - -------<br>-------- -- --- --- -- ----- ----------- ----- -----------<br>---- --- ---------- --- ---- --- -- ----------,232306.39999999944,232304.09999999963,231913.239,231914.5,231929.889,232312.839,,24,This
screen,html.Screen,2_3_1_0_1_25,2022-05-09T16:24:36.450Z,,,,,,,,,,,,,,,,,51,,,,,,,,,,,,,,311.560999999434,,response,,,,13,G,,,,,,Space,keypress(Space),,,,instrumental,,,,-------- -------- --- --- ---- --- --- ------ -- --------<br>---- --------- --- ------- ------------ ---------- ---------<br>--- ---------- ------- ---------- ------- -- -------- ----<br>week --- ------ ----- ------ -- ---- --- ----- -- - -------<br>-------- -- --- --- -- ----- ----------- ----- -----------<br>---- --- ---------- --- ---- --- -- ----------,232628,232624.39999999944,232296.189,232306.7000000002,232312.839,232629.211,,25,week
screen,html.Screen,2_3_1_0_1_26,2022-05-09T16:24:36.742Z,,,,,,,,,,,,,,,,,51,,,,,,,,,,,,,,288.28899999998976,,response,,,,13,G,,,,,,Space,keypress(Space),,,,instrumental,,,,-------- -------- --- --- ---- --- --- ------ -- --------<br>---- --------- --- ------- ------------ ---------- ---------<br>--- ---------- ------- ---------- ------- -- -------- ----<br>---- the ------ ----- ------ -- ---- --- ----- -- - -------<br>-------- -- --- --- -- ----- ----------- ----- -----------<br>---- --- ---------- --- ---- --- -- ----------,232919.89999999944,232917.5,232612.561,232628.09999999963,232629.211,232928.921,,26,the
screen,html.Screen,2_3_1_0_1_27,2022-05-09T16:24:37.051Z,,,,,,,,,,,,,,,,,51,,,,,,,,,,,,,,298.0789999999979,,response,,,,13,G,,,,,,Space,keypress(Space),,,,instrumental,,,,-------- -------- --- --- ---- --- --- ------ -- --------<br>---- --------- --- ------- ------------ ---------- ---------<br>--- ---------- ------- ---------- ------- -- -------- ----<br>---- --- Senate ----- ------ -- ---- --- ----- -- - -------<br>-------- -- --- --- -- ----- ----------- ----- -----------<br>---- --- ---------- --- ---- --- -- ----------,233229.7000000002,233227,232912.271,232920.09999999963,232928.921,233245.278,,27,Senate
screen,html.Screen,2_3_1_0_1_28,2022-05-09T16:24:37.396Z,,,,,,,,,,,,,,,,,51,,,,,,,,,,,,,,327.0219999998226,,response,,,,13,G,,,,,,Space,keypress(Space),,,,instrumental,,,,-------- -------- --- --- ---- --- --- ------ -- --------<br>---- --------- --- ------- ------------ ---------- ---------<br>--- ---------- ------- ---------- ------- -- -------- ----<br>---- --- ------ seems ------ -- ---- --- ----- -- - -------<br>-------- -- --- --- -- ----- ----------- ----- -----------<br>---- --- ---------- --- ---- --- -- ----------,233574.2999999998,233572.2999999998,233228.628,233229.89999999944,233245.278,233578.282,,28,seems
screen,html.Screen,2_3_1_0_1_29,2022-05-09T16:24:37.706Z,,,,,,,,,,,,,,,,,51,,,,,,,,,,,,,,302.6179999994347,,response,,,,13,G,,,,,,Space,keypress(Space),,,,instrumental,,,,-------- -------- --- --- ---- --- --- ------ -- --------<br>---- --------- --- ------- ------------ ---------- ---------<br>--- ---------- ------- ---------- ------- -- -------- ----<br>---- --- ------ ----- poised -- ---- --- ----- -- - -------<br>-------- -- --- --- -- ----- ----------- ----- -----------<br>---- --- ---------- --- ---- --- -- ----------,233884.2000000002,233880.89999999944,233561.632,233574.5,233578.282,233894.634,,29,poised
screen,html.Screen,2_3_1_0_1_30,2022-05-09T16:24:38.109Z,,,,,,,,,,,,,,,,,51,,,,,,,,,,,,,,390.8660000000091,,response,,,,13,G,,,,,,Space,keypress(Space),,,,instrumental,,,,-------- -------- --- --- ---- --- --- ------ -- --------<br>---- --------- --- ------- ------------ ---------- ---------<br>--- ---------- ------- ---------- ------- -- -------- ----<br>---- --- ------ ----- ------ to ---- --- ----- -- - -------<br>-------- -- --- --- -- ----- ----------- ----- -----------<br>---- --- ---------- --- ---- --- -- ----------,234287.7999999998,234285.5,233877.984,233884.39999999944,233894.634,234294.233,,30,to
screen,html.Screen,2_3_1_0_1_31,2022-05-09T16:24:38.423Z,,,,,,,,,,,,,,,,,51,,,,,,,,,,,,,,304.0669999998063,,response,,,,13,G,,,,,,Space,keypress(Space),,,,instrumental,,,,-------- -------- --- --- ---- --- --- ------ -- --------<br>---- --------- --- ------- ------------ ---------- ---------<br>--- ---------- ------- ---------- ------- -- -------- ----<br>---- --- ------ ----- ------ -- join --- ----- -- - -------<br>-------- -- --- --- -- ----- ----------- ----- -----------<br>---- --- ---------- --- ---- --- -- ----------,234601.2999999998,234598.2999999998,234277.583,234288,234294.233,234610.603,,31,join
screen,html.Screen,2_3_1_0_1_32,2022-05-09T16:24:38.740Z,,,,,,,,,,,,,,,,,51,,,,,,,,,,,,,,305.2969999994384,,response,,,,13,G,,,,,,Space,keypress(Space),,,,instrumental,,,,-------- -------- --- --- ---- --- --- ------ -- --------<br>---- --------- --- ------- ------------ ---------- ---------<br>--- ---------- ------- ---------- ------- -- -------- ----<br>---- --- ------ ----- ------ -- ---- the ----- -- - -------<br>-------- -- --- --- -- ----- ----------- ----- -----------<br>---- --- ---------- --- ---- --- -- ----------,234918.2000000002,234915.89999999944,234593.953,234601.5,234610.603,234926.949,,32,the
screen,html.Screen,2_3_1_0_1_33,2022-05-09T16:24:39.092Z,,,,,,,,,,,,,,,,,51,,,,,,,,,,,,,,339.751000000193,,response,,,,13,G,,,,,,Space,keypress(Space),,,,instrumental,,,,-------- -------- --- --- ---- --- --- ------ -- --------<br>---- --------- --- ------- ------------ ---------- ---------<br>--- ---------- ------- ---------- ------- -- -------- ----<br>---- --- ------ ----- ------ -- ---- --- House -- - -------<br>-------- -- --- --- -- ----- ----------- ----- -----------<br>---- --- ---------- --- ---- --- -- ----------,235270.7000000002,235266.7000000002,234910.299,234918.39999999944,234926.949,235276.613,,33,House
screen,html.Screen,2_3_1_0_1_34,2022-05-09T16:24:39.449Z,,,,,,,,,,,,,,,,,51,,,,,,,,,,,,,,348.08700000017416,,response,,,,13,G,,,,,,Space,keypress(Space),,,,instrumental,,,,-------- -------- --- --- ---- --- --- ------ -- --------<br>---- --------- --- ------- ------------ ---------- ---------<br>--- ---------- ------- ---------- ------- -- -------- ----<br>---- --- ------ ----- ------ -- ---- --- ----- in - -------<br>-------- -- --- --- -- ----- ----------- ----- -----------<br>---- --- ---------- --- ---- --- -- ----------,235627.5,235624.7000000002,235259.963,235270.89999999944,235276.613,235642.92,,34,in
screen,html.Screen,2_3_1_0_1_35,2022-05-09T16:24:39.770Z,,,,,,,,,,,,,,,,,51,,,,,,,,,,,,,,302.67999999961467,,response,,,,13,G,,,,,,Space,keypress(Space),,,,instrumental,,,,-------- -------- --- --- ---- --- --- ------ -- --------<br>---- --------- --- ------- ------------ ---------- ---------<br>--- ---------- ------- ---------- ------- -- -------- ----<br>---- --- ------ ----- ------ -- ---- --- ----- -- a -------<br>-------- -- --- --- -- ----- ----------- ----- -----------<br>---- --- ---------- --- ---- --- -- ----------,235948.09999999963,235945.59999999963,235626.27,235627.7000000002,235642.92,235959.282,,35,a
screen,html.Screen,2_3_1_0_1_36,2022-05-09T16:24:40.161Z,,,,,,,,,,,,,,,,,51,,,,,,,,,,,,,,378.0179999998072,,response,,,,13,G,,,,,,Space,keypress(Space),,,,instrumental,,,,-------- -------- --- --- ---- --- --- ------ -- --------<br>---- --------- --- ------- ------------ ---------- ---------<br>--- ---------- ------- ---------- ------- -- -------- ----<br>---- --- ------ ----- ------ -- ---- --- ----- -- - massive<br>-------- -- --- --- -- ----- ----------- ----- -----------<br>---- --- ---------- --- ---- --- -- ----------,236339.7000000002,236337.2999999998,235942.632,235948.2999999998,235959.282,236342.237,,36,massive
screen,html.Screen,2_3_1_0_1_37,2022-05-09T16:24:40.498Z,,,,,,,,,,,,,,,,,51,,,,,,,,,,,,,,331.7630000000063,,response,,,,13,G,,,,,,Space,keypress(Space),,,,instrumental,,,,-------- -------- --- --- ---- --- --- ------ -- --------<br>---- --------- --- ------- ------------ ---------- ---------<br>--- ---------- ------- ---------- ------- -- -------- ----<br>---- --- ------ ----- ------ -- ---- --- ----- -- - -------<br>overhaul -- --- --- -- ----- ----------- ----- -----------<br>---- --- ---------- --- ---- --- -- ----------,236676.2999999998,236674,236325.587,236339.89999999944,236342.237,236691.904,,37,overhaul
screen,html.Screen,2_3_1_0_1_38,2022-05-09T16:24:40.824Z,,,,,,,,,,,,,,,,,51,,,,,,,,,,,,,,307.8959999998042,,response,,,,13,G,,,,,,Space,keypress(Space),,,,instrumental,,,,-------- -------- --- --- ---- --- --- ------ -- --------<br>---- --------- --- ------- ------------ ---------- ---------<br>--- ---------- ------- ---------- ------- -- -------- ----<br>---- --- ------ ----- ------ -- ---- --- ----- -- - -------<br>-------- of --- --- -- ----- ----------- ----- -----------<br>---- --- ---------- --- ---- --- -- ----------,237002.09999999963,236999.7999999998,236675.254,236676.5,236691.904,237008.265,,38,of
