sender,sender_type,sender_id,timestamp,meta,,Blues,Classical,Country,Dance,Electronic,Folk,Gospel,Hip-Hop,Jazz,Latin,Musical/Film,New-age,Pop,Prolific_id,Provo_ID,R&B,Rap,Reggae,Religious,Rock,Soul,Swing,Traditional,age,artist_name,correct,correctResponse,distraction,duration,education,ended_on,familiarity,gender,headphone_check_performance,item,list,music_frequency,offensiveness,pleasantness,position_correct,preference,response,response_action,snippet_file,song_name,song_rating,sound,stimulus_1,stimulus_2,stimulus_3,text,time_commit,time_end,time_render,time_run,time_show,time_switch,url,word,word_ID
Prolific ID,html.Form,0,2022-04-28T09:51:41.973Z,"{""labjs_version"":""20.2.2"",""labjs_build"":{""flavor"":""production"",""commit"":""a25486e0c714a0ae2ce03ff94b7bb6896854dcfa""},""location"":""https://run.pavlovia.org/mvasilev/prolific3_music_d/"",""userAgent"":""Mozilla/5.0 (Windows NT 10.0; Win64; x64) AppleWebKit/537.36 (KHTML, like Gecko) Chrome/100.0.4896.127 Safari/537.36"",""platform"":""Win32"",""language"":""en-US"",""locale"":""en-US"",""timeZone"":""Europe/London"",""timezoneOffset"":-60,""screen_width"":1366,""screen_height"":768,""scroll_width"":1366,""scroll_height"":577,""window_innerWidth"":1366,""window_innerHeight"":625,""devicePixelRatio"":1}",,,,,,,,,,,,,,,5e83247a6d7daf01d9a33632,,,,,,,,,,,,,,,10738.486,,form submission,,,,,,,,,,,,,,,,,,,,,29851,29850.5,19049.19,19051.5,19112.014,29862.104,{},,
Introduction,html.Screen,1_0,2022-04-28T09:51:52.688Z,,,,,,,,,,,,,,,,,,,,,,,,,,,,,,,10700.996000023842,,response,,,,,,,,,,,continue,click button,,,,,,,,,40566.5,40563.10000002384,29841.252,29851.299999952316,29862.104,40570.393,,,
Volume calibration,html.Screen,1_1,2022-04-28T09:52:30.866Z,,,,,,,,,,,,,,,,,,,,,,,,,,,,,,,38171.607,,response,,,,,,,,,,,continue,click button,,,,,,,,,78745.89999997616,78742,40549.597,40566.60000002384,40570.393,78758.015,,,
Task instructions,html.Screen,1_2,2022-04-28T09:52:52.813Z,,,,,,,,,,,,,,,,,,,,,,,,,,,,,,,21932.985,,response,,,,,,,,,,,continue,click button,,,,,,,,,100693,100691,78737.247,78746,78758.015,100695.632,,,
Sounds,html.Screen,1_3_0_0,2022-04-28T09:52:57.048Z,,,,,,,,,,,,,,,,,,,,,,,,,,,,,,,4250.089000000007,,timeout,,,,,,,,,2,,,,,,,,I,S,O,,104927.29999995232,104924.874,100674.443,100693.20000004768,100695.632,104945.721,,,
Judgement,html.Screen,1_3_0_1,2022-04-28T09:52:58.464Z,,,,,,,,,,,,,,,,,,,,,,,,,,,,true,2,,1395.4790000476787,,response,,,,,,,,,2,,2,click #choice-2,,,,,I,S,O,,106343.39999997616,106341.20000004768,104924.874,104927.5,104945.721,106362.359,,,
Trial,flow.Sequence,1_3_0,2022-04-28T09:52:58.464Z,,,,,,,,,,,,,,,,,,,,,,,,,,,,,,,5645.568000047686,,completion,,,,,,,,,2,,,,,,,,I,S,O,,106343.60000002384,106341.20000004768,100674.443,100693.20000004768,100695.632,106362.359,,,
Sounds,html.Screen,1_3_1_0,2022-04-28T09:53:02.713Z,,,,,,,,,,,,,,,,,,,,,,,,,,,,,,,4249.968000000008,,timeout,,,,,,,,,1,,,,,,,,S,O,I,,110592.89999997616,110591.632,106341.507,106343.89999997616,106362.359,110612.327,,,
Judgement,html.Screen,1_3_1_1,2022-04-28T09:53:03.983Z,,,,,,,,,,,,,,,,,,,,,,,,,,,,true,1,,1247.6729999999952,,response,,,,,,,,,1,,1,click #choice-1,,,,,S,O,I,,111862.29999995232,111860,110591.632,110593.20000004768,110612.327,111862.345,,,
Trial,flow.Sequence,1_3_1,2022-04-28T09:53:03.983Z,,,,,,,,,,,,,,,,,,,,,,,,,,,,,,,5497.641000000003,,completion,,,,,,,,,1,,,,,,,,S,O,I,,111862.89999997616,111860,106341.507,106343.70000004768,106362.359,111862.345,,,
Sounds,html.Screen,1_3_2_0,2022-04-28T09:53:08.213Z,,,,,,,,,,,,,,,,,,,,,,,,,,,,,,,4250.082999999999,,timeout,,,,,,,,,1,,,,,,,,S,I,O,,116092.89999997616,116091.631,111841.548,111863,111862.345,116112.428,,,
Judgement,html.Screen,1_3_2_1,2022-04-28T09:53:09.034Z,,,,,,,,,,,,,,,,,,,,,,,,,,,,true,1,,798.8719999523164,,response,,,,,,,,,1,,1,click #choice-1,,,,,S,I,O,,116913.20000004768,116911.29999995232,116091.631,116093.20000004768,116112.428,116924.949,,,
Trial,flow.Sequence,1_3_2,2022-04-28T09:53:09.034Z,,,,,,,,,,,,,,,,,,,,,,,,,,,,,,,5048.954999952315,,completion,,,,,,,,,1,,,,,,,,S,I,O,,116913.39999997616,116911.29999995232,111841.548,111863,111862.345,116924.949,,,
Sounds,html.Screen,1_3_3_0,2022-04-28T09:53:13.275Z,,,,,,,,,,,,,,,,,,,,,,,,,,,,,,,4249.984000000011,,timeout,,,,,,,,,3,,,,,,,,O,I,S,,121154.79999995232,121154.113,116904.076,116913.5,116924.949,121174.933,,,
Judgement,html.Screen,1_3_3_1,2022-04-28T09:53:14.048Z,,,,,,,,,,,,,,,,,,,,,,,,,,,,true,3,,751.2670000476792,,response,,,,,,,,,3,,3,click #choice-3,,,,,O,I,S,,121928.10000002384,121926.20000004768,121154.113,121155,121174.933,121945.795,,,
Trial,flow.Sequence,1_3_3,2022-04-28T09:53:14.049Z,,,,,,,,,,,,,,,,,,,,,,,,,,,,,,,5001.2510000476905,,completion,,,,,,,,,3,,,,,,,,O,I,S,,121928.29999995232,121926.20000004768,116904.076,116913.5,116924.949,121945.795,,,
Sounds,html.Screen,1_3_4_0,2022-04-28T09:53:18.297Z,,,,,,,,,,,,,,,,,,,,,,,,,,,,,,,4249.928,,timeout,,,,,,,,,2,,,,,,,,O,S,I,,126176.29999995232,126175.021,121924.887,121928.29999995232,121945.795,126195.723,,,
Judgement,html.Screen,1_3_4_1,2022-04-28T09:53:19.166Z,,,,,,,,,,,,,,,,,,,,,,,,,,,,true,2,,847.5769999523181,,response,,,,,,,,,2,,2,click #choice-2,,,,,O,S,I,,127045.89999997616,127043.29999995232,126175.021,126176.60000002384,126195.723,127049.918,,,
Trial,flow.Sequence,1_3_4,2022-04-28T09:53:19.166Z,,,,,,,,,,,,,,,,,,,,,,,,,,,,,,,5097.504999952318,,completion,,,,,,,,,2,,,,,,,,O,S,I,,127046.10000002384,127043.29999995232,121924.887,121928.29999995232,121945.795,127049.918,,,
Sounds,html.Screen,1_3_5_0,2022-04-28T09:53:23.407Z,,,,,,,,,,,,,,,,,,,,,,,,,,,,,,,4250.046000000002,,timeout,,,,,,,,,3,,,,,,,,I,O,S,,131280.29999995232,131279.221,127029.154,127046.29999995232,127049.918,131299.964,,,
Judgement,html.Screen,1_3_5_1,2022-04-28T09:53:24.158Z,,,,,,,,,,,,,,,,,,,,,,,,,,,,true,3,,729.1360000238346,,response,,,,,,,,,3,,3,click #choice-3,,,,,I,O,S,,132031.10000002384,132029.10000002384,131279.221,131280.70000004768,131299.964,132050.013,,,
Trial,flow.Sequence,1_3_5,2022-04-28T09:53:24.158Z,,,,,,,,,,,,,,,,,,,,,,,,,,,,,,,4979.182000023837,,completion,,,,,,,,,3,,,,,,,,I,O,S,,132031.39999997616,132029.10000002384,127029.154,127046.20000004768,127049.918,132050.013,,,
Task,flow.Loop,1_3,2022-04-28T09:53:24.162Z,,,,,,,,,,,,,,,,,,,,,,,,,,,,,,,31333.468000023844,,completion,,,1,,,,,,,,,,,,,,,,,,132035.20000004768,132029.10000002384,100674.443,100693.20000004768,100695.632,132050.013,,,
Trap,html.Screen,1_4,2022-04-28T09:53:24.163Z,,,,,,,,,,,,,,,,,,,,,,,,,,,,,,,NaN,,skipped,,,,,,,,,,,,,,,,,,,,,132036.10000002384,132029.10000002384,,132036,,132050.013,,,
Thanks,html.Screen,1_5,2022-04-28T09:53:29.873Z,,,,,,,,,,,,,,,,,,,,,,,,,,,,,,,5694.187000047677,,response,,,,,,,,,,,continue,click button,,,,,,,,,137746.20000004768,137744.20000004768,132029.127,132036.20000004768,132050.013,144904.429,,,
Headphone screening,flow.Sequence,1,2022-04-28T09:53:29.873Z,,,,,,,,,,,,,,,,,,,,,,,,,,,,,,,107882.09600004769,,completion,,,,,,,,,,,,,,,,,,,,,137746.29999995232,137744.20000004768,29841.252,29851.200000047684,29862.104,144904.429,,,
Instructions,html.Page,2_0,2022-04-28T09:54:00.702Z,,,,,,,,,,,,,,,,,,,,,,,,,,,,,,,23671.070999999996,,form submission,,,,,,,,,,,,,,,,,,,,,168575.60000002384,168575.5,144862.587,144898.10000002384,144904.429,168591.895,,,
Holding screen,html.Screen,2_1_0_0,2022-04-28T09:54:10.699Z,,,,,,,,,,,,,,,,,,,,,,,,,,,,,,,9999.982000000018,,timeout,,,,,,,,,,,,,,,,,,,,,178572.10000002384,178571.072,168570.516,168575.70000004768,168591.895,178591.877,,,
screen,html.Screen,2_1_0_1_0,2022-04-28T09:54:11.997Z,,,,,,,,,,,,,,,,,53,,,,,,,,,,,,,,1272.7230000238342,,response,,,,99,,,,,,,Space,keypress(Space),,,,,,,,When -- ----- -- ------ - ------- --- ----------<br>------------- ------ ------ ---- ---- ------- ----- -- ----<br>-------- ------- -- ---------- --- - --- ----- ----- ----<br>---- --- --- ----- --- ---- ---- ------- ----- ---- -------<br>--- --- -- ----- -- --- ---- -- --- ---- -- ------ ------<br>--- ----- -- ----,179870.5,179864.60000002384,178571.072,178572.39999997616,178591.877,179883.638,,0,When
screen,html.Screen,2_1_0_1_1,2022-04-28T09:54:12.717Z,,,,,,,,,,,,,,,,,53,,,,,,,,,,,,,,705.5620000476774,,response,,,,99,,,,,,,Space,keypress(Space),,,,,,,,---- it ----- -- ------ - ------- --- ----------<br>------------- ------ ------ ---- ---- ------- ----- -- ----<br>-------- ------- -- ---------- --- - --- ----- ----- ----<br>---- --- --- ----- --- ---- ---- ------- ----- ---- -------<br>--- --- -- ----- -- --- ---- -- --- ---- -- ------ ------<br>--- ----- -- ----,180590.20000004768,180589.20000004768,179862.678,179870.89999997616,179883.638,180626.856,,1,it
screen,html.Screen,2_1_0_1_2,2022-04-28T09:54:13.242Z,,,,,,,,,,,,,,,,,53,,,,,,,,,,,,,,487.5439999761584,,response,,,,99,,,,,,,Space,keypress(Space),,,,,,,,---- -- comes -- ------ - ------- --- ----------<br>------------- ------ ------ ---- ---- ------- ----- -- ----<br>-------- ------- -- ---------- --- - --- ----- ----- ----<br>---- --- --- ----- --- ---- ---- ------- ----- ---- -------<br>--- --- -- ----- -- --- ---- -- --- ---- -- ------ ------<br>--- ----- -- ----,181115.60000002384,181114.39999997616,180571.021,180590.5,180626.856,181133.606,,2,comes
screen,html.Screen,2_1_0_1_3,2022-04-28T09:54:13.708Z,,,,,,,,,,,,,,,,,53,,,,,,,,,,,,,,446.2939999761584,,response,,,,99,,,,,,,Space,keypress(Space),,,,,,,,---- -- ----- to ------ - ------- --- ----------<br>------------- ------ ------ ---- ---- ------- ----- -- ----<br>-------- ------- -- ---------- --- - --- ----- ----- ----<br>---- --- --- ----- --- ---- ---- ------- ----- ---- -------<br>--- --- -- ----- -- --- ---- -- --- ---- -- ------ ------<br>--- ----- -- ----,181581,181579.89999997616,181112.702,181115.79999995232,181133.606,181591.954,,3,to
screen,html.Screen,2_1_0_1_4,2022-04-28T09:54:14.188Z,,,,,,,,,,,,,,,,,53,,,,,,,,,,,,,,467.7460000476858,,response,,,,99,,,,,,,Space,keypress(Space),,,,,,,,---- -- ----- -- having - ------- --- ----------<br>------------- ------ ------ ---- ---- ------- ----- -- ----<br>-------- ------- -- ---------- --- - --- ----- ----- ----<br>---- --- --- ----- --- ---- ---- ------- ----- ---- -------<br>--- --- -- ----- -- --- ---- -- --- ---- -- ------ ------<br>--- ----- -- ----,182060.89999997616,182059.70000004768,181571.071,181581.20000004768,181591.954,182071.069,,4,having
screen,html.Screen,2_1_0_1_5,2022-04-28T09:54:14.663Z,,,,,,,,,,,,,,,,,53,,,,,,,,,,,,,,463.83099997616955,,response,,,,99,,,,,,,Space,keypress(Space),,,,,,,,---- -- ----- -- ------ a ------- --- ----------<br>------------- ------ ------ ---- ---- ------- ----- -- ----<br>-------- ------- -- ---------- --- - --- ----- ----- ----<br>---- --- --- ----- --- ---- ---- ------- ----- ---- -------<br>--- --- -- ----- -- --- ---- -- --- ---- -- ------ ------<br>--- ----- -- ----,182536.20000004768,182534.89999997616,182050.244,182061.10000002384,182071.069,182550.33,,5,a
screen,html.Screen,2_1_0_1_6,2022-04-28T09:54:15.188Z,,,,,,,,,,,,,,,,,53,,,,,,,,,,,,,,509.8700000476965,,response,,,,99,,,,,,,Space,keypress(Space),,,,,,,,---- -- ----- -- ------ - lasting --- ----------<br>------------- ------ ------ ---- ---- ------- ----- -- ----<br>-------- ------- -- ---------- --- - --- ----- ----- ----<br>---- --- --- ----- --- ---- ---- ------- ----- ---- -------<br>--- --- -- ----- -- --- ---- -- --- ---- -- ------ ------<br>--- ----- -- ----,183061.29999995232,183060.20000004768,182529.344,182536.39999997616,182550.33,183071.059,,6,lasting
screen,html.Screen,2_1_0_1_7,2022-04-28T09:54:15.720Z,,,,,,,,,,,,,,,,,53,,,,,,,,,,,,,,521.4409999999916,,response,,,,99,,,,,,,Space,keypress(Space),,,,,,,,---- -- ----- -- ------ - ------- and ----------<br>------------- ------ ------ ---- ---- ------- ----- -- ----<br>-------- ------- -- ---------- --- - --- ----- ----- ----<br>---- --- --- ----- --- ---- ---- ------- ----- ---- -------<br>--- --- -- ----- -- --- ---- -- --- ---- -- ------ ------<br>--- ----- -- ----,183593.60000002384,183592.5,183050.247,183061.5,183071.059,183612.744,,7,and
screen,html.Screen,2_1_0_1_8,2022-04-28T09:54:16.330Z,,,,,,,,,,,,,,,,,53,,,,,,,,,,,,,,588.8560000238358,,response,,,,99,,,,,,,Space,keypress(Space),,,,,,,,---- -- ----- -- ------ - ------- --- fulfilling<br>------------- ------ ------ ---- ---- ------- ----- -- ----<br>-------- ------- -- ---------- --- - --- ----- ----- ----<br>---- --- --- ----- --- ---- ---- ------- ----- ---- -------<br>--- --- -- ----- -- --- ---- -- --- ---- -- ------ ------<br>--- ----- -- ----,184202.70000004768,184201.60000002384,183591.843,183593.89999997616,183612.744,184216.996,,8,fulfilling
screen,html.Screen,2_1_0_1_9,2022-04-28T09:54:16.889Z,,,,,,,,,,,,,,,,,53,,,,,,,,,,,,,,543.9039999761444,,response,,,,99,,,,,,,Space,keypress(Space),,,,,,,,"---- -- ----- -- ------ - ------- --- ----------<br>relationship, ------ ------ ---- ---- ------- ----- -- ----<br>-------- ------- -- ---------- --- - --- ----- ----- ----<br>---- --- --- ----- --- ---- ---- ------- ----- ---- -------<br>--- --- -- ----- -- --- ---- -- --- ---- -- ------ ------<br>--- ----- -- ----",184762,184760.89999997616,184196.084,184202.89999997616,184216.996,184779.421,,9,"relationship,"
screen,html.Screen,2_1_0_1_10,2022-04-28T09:54:17.419Z,,,,,,,,,,,,,,,,,53,,,,,,,,,,,,,,511.5789999999979,,response,,,,99,,,,,,,Space,keypress(Space),,,,,,,,---- -- ----- -- ------ - ------- --- ----------<br>------------- common ------ ---- ---- ------- ----- -- ----<br>-------- ------- -- ---------- --- - --- ----- ----- ----<br>---- --- --- ----- --- ---- ---- ------- ----- ---- -------<br>--- --- -- ----- -- --- ---- -- --- ---- -- ------ ------<br>--- ----- -- ----,185292.20000004768,185291,184758.502,184762.29999995232,184779.421,185300.275,,10,common
screen,html.Screen,2_1_0_1_11,2022-04-28T09:54:18.174Z,,,,,,,,,,,,,,,,,53,,,,,,,,,,,,,,745.9250000476895,,response,,,,99,,,,,,,Space,keypress(Space),,,,,,,,---- -- ----- -- ------ - ------- --- ----------<br>------------- ------ wisdom ---- ---- ------- ----- -- ----<br>-------- ------- -- ---------- --- - --- ----- ----- ----<br>---- --- --- ----- --- ---- ---- ------- ----- ---- -------<br>--- --- -- ----- -- --- ---- -- --- ---- -- ------ ------<br>--- ----- -- ----,186047.29999995232,186046.20000004768,185279.349,185292.29999995232,185300.275,186050.215,,11,wisdom
screen,html.Screen,2_1_0_1_12,2022-04-28T09:54:18.614Z,,,,,,,,,,,,,,,,,53,,,,,,,,,,,,,,436.18499997616163,,response,,,,99,,,,,,,Space,keypress(Space),,,,,,,,---- -- ----- -- ------ - ------- --- ----------<br>------------- ------ ------ says ---- ------- ----- -- ----<br>-------- ------- -- ---------- --- - --- ----- ----- ----<br>---- --- --- ----- --- ---- ---- ------- ----- ---- -------<br>--- --- -- ----- -- --- ---- -- --- ---- -- ------ ------<br>--- ----- -- ----,186487.60000002384,186486.39999997616,186029.443,186047.60000002384,186050.215,186508.664,,12,says
screen,html.Screen,2_1_0_1_13,2022-04-28T09:54:19.140Z,,,,,,,,,,,,,,,,,53,,,,,,,,,,,,,,502.83600000001024,,response,,,,99,,,,,,,Space,keypress(Space),,,,,,,,---- -- ----- -- ------ - ------- --- ----------<br>------------- ------ ------ ---- that ------- ----- -- ----<br>-------- ------- -- ---------- --- - --- ----- ----- ----<br>---- --- --- ----- --- ---- ---- ------- ----- ---- -------<br>--- --- -- ----- -- --- ---- -- --- ---- -- ------ ------<br>--- ----- -- ----,187012.79999995232,187011.5,186487.714,186487.79999995232,186508.664,187029.407,,13,that
screen,html.Screen,2_1_0_1_14,2022-04-28T09:54:19.600Z,,,,,,,,,,,,,,,,,53,,,,,,,,,,,,,,442.39299995230976,,response,,,,99,,,,,,,Space,keypress(Space),,,,,,,,---- -- ----- -- ------ - ------- --- ----------<br>------------- ------ ------ ---- ---- feeling ----- -- ----<br>-------- ------- -- ---------- --- - --- ----- ----- ----<br>---- --- --- ----- --- ---- ---- ------- ----- ---- -------<br>--- --- -- ----- -- --- ---- -- --- ---- -- ------ ------<br>--- ----- -- ----,187472.79999995232,187471.79999995232,187008.609,187013,187029.407,187487.847,,14,feeling
screen,html.Screen,2_1_0_1_15,2022-04-28T09:54:20.240Z,,,,,,,,,,,,,,,,,53,,,,,,,,,,,,,,624.1529999999912,,response,,,,99,,,,,,,Space,keypress(Space),,,,,,,,---- -- ----- -- ------ - ------- --- ----------<br>------------- ------ ------ ---- ---- ------- close -- ----<br>-------- ------- -- ---------- --- - --- ----- ----- ----<br>---- --- --- ----- --- ---- ---- ------- ----- ---- -------<br>--- --- -- ----- -- --- ---- -- --- ---- -- ------ ------<br>--- ----- -- ----,188113.5,188112,187466.866,187473.10000002384,187487.847,188133.489,,15,close
screen,html.Screen,2_1_0_1_16,2022-04-28T09:54:20.667Z,,,,,,,,,,,,,,,,,53,,,,,,,,,,,,,,405.2110000476823,,response,,,,99,,,,,,,Space,keypress(Space),,,,,,,,---- -- ----- -- ------ - ------- --- ----------<br>------------- ------ ------ ---- ---- ------- ----- to ----<br>-------- ------- -- ---------- --- - --- ----- ----- ----<br>---- --- --- ----- --- ---- ---- ------- ----- ---- -------<br>--- --- -- ----- -- --- ---- -- --- ---- -- ------ ------<br>--- ----- -- ----,188540,188538.70000004768,188112.768,188113.70000004768,188133.489,188550.346,,16,to
screen,html.Screen,2_1_0_1_17,2022-04-28T09:54:21.115Z,,,,,,,,,,,,,,,,,53,,,,,,,,,,,,,,437.0539999761677,,response,,,,99,,,,,,,Space,keypress(Space),,,,,,,,---- -- ----- -- ------ - ------- --- ----------<br>------------- ------ ------ ---- ---- ------- ----- -- your<br>-------- ------- -- ---------- --- - --- ----- ----- ----<br>---- --- --- ----- --- ---- ---- ------- ----- ---- -------<br>--- --- -- ----- -- --- ---- -- --- ---- -- ------ ------<br>--- ----- -- ----,188988.5,188987.39999997616,188529.374,188540.29999995232,188550.346,189008.675,,17,your
screen,html.Screen,2_1_0_1_18,2022-04-28T09:54:21.685Z,,,,,,,,,,,,,,,,,53,,,,,,,,,,,,,,548.8250000000116,,response,,,,99,,,,,,,Space,keypress(Space),,,,,,,,---- -- ----- -- ------ - ------- --- ----------<br>------------- ------ ------ ---- ---- ------- ----- -- ----<br>romantic ------- -- ---------- --- - --- ----- ----- ----<br>---- --- --- ----- --- ---- ---- ------- ----- ---- -------<br>--- --- -- ----- -- --- ---- -- --- ---- -- ------ ------<br>--- ----- -- ----,189558.60000002384,189557.5,188987.772,188988.79999995232,189008.675,189571.174,,18,romantic
screen,html.Screen,2_1_0_1_19,2022-04-28T09:54:22.231Z,,,,,,,,,,,,,,,,,53,,,,,,,,,,,,,,532.1259999523172,,response,,,,99,,,,,,,Space,keypress(Space),,,,,,,,---- -- ----- -- ------ - ------- --- ----------<br>------------- ------ ------ ---- ---- ------- ----- -- ----<br>-------- partner -- ---------- --- - --- ----- ----- ----<br>---- --- --- ----- --- ---- ---- ------- ----- ---- -------<br>--- --- -- ----- -- --- ---- -- --- ---- -- ------ ------<br>--- ----- -- ----,190104.29999995232,190103.29999995232,189550.263,189558.89999997616,189571.174,190112.699,,19,partner
screen,html.Screen,2_1_0_1_20,2022-04-28T09:54:22.711Z,,,,,,,,,,,,,,,,,53,,,,,,,,,,,,,,470.30100000000675,,response,,,,99,,,,,,,Space,keypress(Space),,,,,,,,---- -- ----- -- ------ - ------- --- ----------<br>------------- ------ ------ ---- ---- ------- ----- -- ----<br>-------- ------- is ---------- --- - --- ----- ----- ----<br>---- --- --- ----- --- ---- ---- ------- ----- ---- -------<br>--- --- -- ----- -- --- ---- -- --- ---- -- ------ ------<br>--- ----- -- ----,190584,190583,190091.918,190104.60000002384,190112.699,190591.946,,20,is
screen,html.Screen,2_1_0_1_21,2022-04-28T09:54:23.279Z,,,,,,,,,,,,,,,,,53,,,,,,,,,,,,,,563.4539999761619,,response,,,,99,,,,,,,Space,keypress(Space),,,,,,,,---- -- ----- -- ------ - ------- --- ----------<br>------------- ------ ------ ---- ---- ------- ----- -- ----<br>-------- ------- -- paramount. --- - --- ----- ----- ----<br>---- --- --- ----- --- ---- ---- ------- ----- ---- -------<br>--- --- -- ----- -- --- ---- -- --- ---- -- ------ ------<br>--- ----- -- ----,191156.39999997616,191155.39999997616,190571.132,190584.20000004768,190591.946,191175.274,,21,paramount.
screen,html.Screen,2_1_0_1_22,2022-04-28T09:54:24.515Z,,,,,,,,,,,,,,,,,53,,,,,,,,,,,,,,1215.6259999761533,,response,,,,99,,,,,,,Space,keypress(Space),,,,,,,,---- -- ----- -- ------ - ------- --- ----------<br>------------- ------ ------ ---- ---- ------- ----- -- ----<br>-------- ------- -- ---------- But - --- ----- ----- ----<br>---- --- --- ----- --- ---- ---- ------- ----- ---- -------<br>--- --- -- ----- -- --- ---- -- --- ---- -- ------ ------<br>--- ----- -- ----,192392,192390.89999997616,191154.463,191156.79999995232,191175.274,192404.449,,22,But
screen,html.Screen,2_1_0_1_23,2022-04-28T09:54:25.525Z,,,,,,,,,,,,,,,,,53,,,,,,,,,,,,,,996.9509999761649,,response,,,,99,,,,,,,Space,keypress(Space),,,,,,,,---- -- ----- -- ------ - ------- --- ----------<br>------------- ------ ------ ---- ---- ------- ----- -- ----<br>-------- ------- -- ---------- --- a --- ----- ----- ----<br>---- --- --- ----- --- ---- ---- ------- ----- ---- -------<br>--- --- -- ----- -- --- ---- -- --- ---- -- ------ ------<br>--- ----- -- ----,193402.60000002384,193401.39999997616,192383.56,192392.29999995232,192404.449,193433.791,,23,a
screen,html.Screen,2_1_0_1_24,2022-04-28T09:54:25.935Z,,,,,,,,,,,,,,,,,53,,,,,,,,,,,,,,377.9090000476863,,response,,,,99,,,,,,,Space,keypress(Space),,,,,,,,---- -- ----- -- ------ - ------- --- ----------<br>------------- ------ ------ ---- ---- ------- ----- -- ----<br>-------- ------- -- ---------- --- - new ----- ----- ----<br>---- --- --- ----- --- ---- ---- ------- ----- ---- -------<br>--- --- -- ----- -- --- ---- -- --- ---- -- ------ ------<br>--- ----- -- ----,193812.79999995232,193811.70000004768,193383.529,193402.79999995232,193433.791,193821.109,,24,new
screen,html.Screen,2_1_0_1_25,2022-04-28T09:54:26.360Z,,,,,,,,,,,,,,,,,53,,,,,,,,,,,,,,415.4910000238451,,response,,,,99,,,,,,,Space,keypress(Space),,,,,,,,---- -- ----- -- ------ - ------- --- ----------<br>------------- ------ ------ ---- ---- ------- ----- -- ----<br>-------- ------- -- ---------- --- - --- study ----- ----<br>---- --- --- ----- --- ---- ---- ------- ----- ---- -------<br>--- --- -- ----- -- --- ---- -- --- ---- -- ------ ------<br>--- ----- -- ----,194237.5,194236.60000002384,193800.246,193813,193821.109,194258.625,,25,study
screen,html.Screen,2_1_0_1_26,2022-04-28T09:54:26.781Z,,,,,,,,,,,,,,,,,53,,,,,,,,,,,,,,398.47500002384186,,response,,,,99,,,,,,,Space,keypress(Space),,,,,,,,---- -- ----- -- ------ - ------- --- ----------<br>------------- ------ ------ ---- ---- ------- ----- -- ----<br>-------- ------- -- ---------- --- - --- ----- finds ----<br>---- --- --- ----- --- ---- ---- ------- ----- ---- -------<br>--- --- -- ----- -- --- ---- -- --- ---- -- ------ ------<br>--- ----- -- ----,194658.20000004768,194657.10000002384,194237.822,194237.79999995232,194258.625,194675.369,,26,finds
screen,html.Screen,2_1_0_1_27,2022-04-28T09:54:27.201Z,,,,,,,,,,,,,,,,,53,,,,,,,,,,,,,,401.5309999761521,,response,,,,99,,,,,,,Space,keypress(Space),,,,,,,,---- -- ----- -- ------ - ------- --- ----------<br>------------- ------ ------ ---- ---- ------- ----- -- ----<br>-------- ------- -- ---------- --- - --- ----- ----- that<br>---- --- --- ----- --- ---- ---- ------- ----- ---- -------<br>--- --- -- ----- -- --- ---- -- --- ---- -- ------ ------<br>--- ----- -- ----,195077.79999995232,195076.89999997616,194654.455,194658.60000002384,194675.369,195092.033,,27,that
screen,html.Screen,2_1_0_1_28,2022-04-28T09:54:27.727Z,,,,,,,,,,,,,,,,,53,,,,,,,,,,,,,,511.56700002384605,,response,,,,99,,,,,,,Space,keypress(Space),,,,,,,,---- -- ----- -- ------ - ------- --- ----------<br>------------- ------ ------ ---- ---- ------- ----- -- ----<br>-------- ------- -- ---------- --- - --- ----- ----- ----<br>it's --- --- ----- --- ---- ---- ------- ----- ---- -------<br>--- --- -- ----- -- --- ---- -- --- ---- -- ------ ------<br>--- ----- -- ----,195604.79999995232,195603.60000002384,195071.12,195078.10000002384,195092.033,195612.767,,28,it's
screen,html.Screen,2_1_0_1_29,2022-04-28T09:54:28.166Z,,,,,,,,,,,,,,,,,53,,,,,,,,,,,,,,429.53299995232373,,response,,,,99,,,,,,,Space,keypress(Space),,,,,,,,---- -- ----- -- ------ - ------- --- ----------<br>------------- ------ ------ ---- ---- ------- ----- -- ----<br>-------- ------- -- ---------- --- - --- ----- ----- ----<br>---- not --- ----- --- ---- ---- ------- ----- ---- -------<br>--- --- -- ----- -- --- ---- -- --- ---- -- ------ ------<br>--- ----- -- ----,196043.79999995232,196042.29999995232,195591.941,195605.10000002384,195612.767,196050.248,,29,not
screen,html.Screen,2_1_0_1_30,2022-04-28T09:54:28.581Z,,,,,,,,,,,,,,,,,53,,,,,,,,,,,,,,407.35200002384954,,response,,,,99,,,,,,,Space,keypress(Space),,,,,,,,---- -- ----- -- ------ - ------- --- ----------<br>------------- ------ ------ ---- ---- ------- ----- -- ----<br>-------- ------- -- ---------- --- - --- ----- ----- ----<br>---- --- how ----- --- ---- ---- ------- ----- ---- -------<br>--- --- -- ----- -- --- ---- -- --- ---- -- ------ ------<br>--- ----- -- ----,196458.70000004768,196457.60000002384,196029.409,196044.20000004768,196050.248,196466.988,,30,how
screen,html.Screen,2_1_0_1_31,2022-04-28T09:54:29.028Z,,,,,,,,,,,,,,,,,53,,,,,,,,,,,,,,436.8119999523042,,response,,,,99,,,,,,,Space,keypress(Space),,,,,,,,---- -- ----- -- ------ - ------- --- ----------<br>------------- ------ ------ ---- ---- ------- ----- -- ----<br>-------- ------- -- ---------- --- - --- ----- ----- ----<br>---- --- --- close --- ---- ---- ------- ----- ---- -------<br>--- --- -- ----- -- --- ---- -- --- ---- -- ------ ------<br>--- ----- -- ----,196905,196903.79999995232,196446.135,196459,196466.988,196925.387,,31,close
screen,html.Screen,2_1_0_1_32,2022-04-28T09:54:29.463Z,,,,,,,,,,,,,,,,,53,,,,,,,,,,,,,,413.51299997617025,,response,,,,99,,,,,,,Space,keypress(Space),,,,,,,,---- -- ----- -- ------ - ------- --- ----------<br>------------- ------ ------ ---- ---- ------- ----- -- ----<br>-------- ------- -- ---------- --- - --- ----- ----- ----<br>---- --- --- ----- you ---- ---- ------- ----- ---- -------<br>--- --- -- ----- -- --- ---- -- --- ---- -- ------ ------<br>--- ----- -- ----,197340.10000002384,197338.89999997616,196904.489,196905.20000004768,196925.387,197370.63,,32,you
screen,html.Screen,2_1_0_1_33,2022-04-28T09:54:29.918Z,,,,,,,,,,,,,,,,,53,,,,,,,,,,,,,,423.57000004767906,,response,,,,99,,,,,,,Space,keypress(Space),,,,,,,,---- -- ----- -- ------ - ------- --- ----------<br>------------- ------ ------ ---- ---- ------- ----- -- ----<br>-------- ------- -- ---------- --- - --- ----- ----- ----<br>---- --- --- ----- --- feel ---- ------- ----- ---- -------<br>--- --- -- ----- -- --- ---- -- --- ---- -- ------ ------<br>--- ----- -- ----,197795.29999995232,197794.20000004768,197321.142,197340.29999995232,197370.63,197800.241,,33,feel
screen,html.Screen,2_1_0_1_34,2022-04-28T09:54:30.323Z,,,,,,,,,,,,,,,,,53,,,,,,,,,,,,,,399.0589999523072,,response,,,,99,,,,,,,Space,keypress(Space),,,,,,,,---- -- ----- -- ------ - ------- --- ----------<br>------------- ------ ------ ---- ---- ------- ----- -- ----<br>-------- ------- -- ---------- --- - --- ----- ----- ----<br>---- --- --- ----- --- ---- that ------- ----- ---- -------<br>--- --- -- ----- -- --- ---- -- --- ---- -- ------ ------<br>--- ----- -- ----,198200.39999997616,198199.29999995232,197779.468,197795.60000002384,197800.241,198217.048,,34,that
screen,html.Screen,2_1_0_1_35,2022-04-28T09:54:30.723Z,,,,,,,,,,,,,,,,,53,,,,,,,,,,,,,,382.4519999999902,,response,,,,99,,,,,,,Space,keypress(Space),,,,,,,,---- -- ----- -- ------ - ------- --- ----------<br>------------- ------ ------ ---- ---- ------- ----- -- ----<br>-------- ------- -- ---------- --- - --- ----- ----- ----<br>---- --- --- ----- --- ---- ---- matters ----- ---- -------<br>--- --- -- ----- -- --- ---- -- --- ---- -- ------ ------<br>--- ----- -- ----,198600.70000004768,198599.5,198196.127,198200.60000002384,198217.048,198612.811,,35,matters
screen,html.Screen,2_1_0_1_36,2022-04-28T09:54:31.258Z,,,,,,,,,,,,,,,,,53,,,,,,,,,,,,,,521.7890000238549,,response,,,,99,,,,,,,Space,keypress(Space),,,,,,,,"---- -- ----- -- ------ - ------- --- ----------<br>------------- ------ ------ ---- ---- ------- ----- -- ----<br>-------- ------- -- ---------- --- - --- ----- ----- ----<br>---- --- --- ----- --- ---- ---- ------- most, ---- -------<br>--- --- -- ----- -- --- ---- -- --- ---- -- ------ ------<br>--- ----- -- ----",199135.79999995232,199134.60000002384,198591.982,198600.89999997616,198612.811,199154.477,,36,"most,"
screen,html.Screen,2_1_0_1_37,2022-04-28T09:54:31.744Z,,,,,,,,,,,,,,,,,53,,,,,,,,,,,,,,465.3229999523028,,response,,,,99,,,,,,,Space,keypress(Space),,,,,,,,---- -- ----- -- ------ - ------- --- ----------<br>------------- ------ ------ ---- ---- ------- ----- -- ----<br>-------- ------- -- ---------- --- - --- ----- ----- ----<br>---- --- --- ----- --- ---- ---- ------- ----- it's -------<br>--- --- -- ----- -- --- ---- -- --- ---- -- ------ ------<br>--- ----- -- ----,199621,199619.79999995232,199133.579,199136,199154.477,199633.623,,37,it's
screen,html.Screen,2_1_0_1_38,2022-04-28T09:54:32.154Z,,,,,,,,,,,,,,,,,53,,,,,,,,,,,,,,396.3770000000077,,response,,,,99,,,,,,,Space,keypress(Space),,,,,,,,---- -- ----- -- ------ - ------- --- ----------<br>------------- ------ ------ ---- ---- ------- ----- -- ----<br>-------- ------- -- ---------- --- - --- ----- ----- ----<br>---- --- --- ----- --- ---- ---- ------- ----- ---- whether<br>--- --- -- ----- -- --- ---- -- --- ---- -- ------ ------<br>--- ----- -- ----,200031.29999995232,200030,199612.818,199621.20000004768,199633.623,200050.296,,38,whether
screen,html.Screen,2_1_0_1_39,2022-04-28T09:54:32.600Z,,,,,,,,,,,,,,,,,53,,,,,,,,,,,,,,425.5039999523142,,response,,,,99,,,,,,,Space,keypress(Space),,,,,,,,---- -- ----- -- ------ - ------- --- ----------<br>------------- ------ ------ ---- ---- ------- ----- -- ----<br>-------- ------- -- ---------- --- - --- ----- ----- ----<br>---- --- --- ----- --- ---- ---- ------- ----- ---- -------<br>you --- -- ----- -- --- ---- -- --- ---- -- ------ ------<br>--- ----- -- ----,200476.79999995232,200475.79999995232,200029.499,200033.39999997616,200050.296,200487.898,,39,you
screen,html.Screen,2_1_0_1_40,2022-04-28T09:54:32.999Z,,,,,,,,,,,,,,,,,53,,,,,,,,,,,,,,387.4019999523298,,response,,,,99,,,,,,,Space,keypress(Space),,,,,,,,---- -- ----- -- ------ - ------- --- ----------<br>------------- ------ ------ ---- ---- ------- ----- -- ----<br>-------- ------- -- ---------- --- - --- ----- ----- ----<br>---- --- --- ----- --- ---- ---- ------- ----- ---- -------<br>--- are -- ----- -- --- ---- -- --- ---- -- ------ ------<br>--- ----- -- ----,200876.60000002384,200875.29999995232,200466.928,200477.10000002384,200487.898,200883.583,,40,are
screen,html.Screen,2_1_0_1_41,2022-04-28T09:54:33.495Z,,,,,,,,,,,,,,,,,53,,,,,,,,,,,,,,487.716999952303,,response,,,,99,,,,,,,Space,keypress(Space),,,,,,,,---- -- ----- -- ------ - ------- --- ----------<br>------------- ------ ------ ---- ---- ------- ----- -- ----<br>-------- ------- -- ---------- --- - --- ----- ----- ----<br>---- --- --- ----- --- ---- ---- ------- ----- ---- -------<br>--- --- as ----- -- --- ---- -- --- ---- -- ------ ------<br>--- ----- -- ----,201372.5,201371.29999995232,200862.824,200877,200883.583,201383.706,,41,as
screen,html.Screen,2_1_0_1_42,2022-04-28T09:54:33.819Z,,,,,,,,,,,,,,,,,53,,,,,,,,,,,,,,311.89400002383627,,response,,,,99,,,,,,,Space,keypress(Space),,,,,,,,---- -- ----- -- ------ - ------- --- ----------<br>------------- ------ ------ ---- ---- ------- ----- -- ----<br>-------- ------- -- ---------- --- - --- ----- ----- ----<br>---- --- --- ----- --- ---- ---- ------- ----- ---- -------<br>--- --- -- close -- --- ---- -- --- ---- -- ------ ------<br>--- ----- -- ----,201696.70000004768,201695.60000002384,201362.839,201372.70000004768,201383.706,201717.054,,42,close
screen,html.Screen,2_1_0_1_43,2022-04-28T09:54:34.165Z,,,,,,,,,,,,,,,,,53,,,,,,,,,,,,,,323.74599995231256,,response,,,,99,,,,,,,Space,keypress(Space),,,,,,,,---- -- ----- -- ------ - ------- --- ----------<br>------------- ------ ------ ---- ---- ------- ----- -- ----<br>-------- ------- -- ---------- --- - --- ----- ----- ----<br>---- --- --- ----- --- ---- ---- ------- ----- ---- -------<br>--- --- -- ----- as --- ---- -- --- ---- -- ------ ------<br>--- ----- -- ----,202042,202040.79999995232,201696.161,201696.89999997616,201717.054,202050.287,,43,as
screen,html.Screen,2_1_0_1_44,2022-04-28T09:54:34.610Z,,,,,,,,,,,,,,,,,53,,,,,,,,,,,,,,435.7129999999888,,response,,,,99,,,,,,,Space,keypress(Space),,,,,,,,---- -- ----- -- ------ - ------- --- ----------<br>------------- ------ ------ ---- ---- ------- ----- -- ----<br>-------- ------- -- ---------- --- - --- ----- ----- ----<br>---- --- --- ----- --- ---- ---- ------- ----- ---- -------<br>--- --- -- ----- -- you ---- -- --- ---- -- ------ ------<br>--- ----- -- ----,202487,202486,202029.498,202042.20000004768,202050.287,202529.568,,44,you
screen,html.Screen,2_1_0_1_45,2022-04-28T09:54:34.955Z,,,,,,,,,,,,,,,,,53,,,,,,,,,,,,,,301.4320000000007,,response,,,,99,,,,,,,Space,keypress(Space),,,,,,,,---- -- ----- -- ------ - ------- --- ----------<br>------------- ------ ------ ---- ---- ------- ----- -- ----<br>-------- ------- -- ---------- --- - --- ----- ----- ----<br>---- --- --- ----- --- ---- ---- ------- ----- ---- -------<br>--- --- -- ----- -- --- want -- --- ---- -- ------ ------<br>--- ----- -- ----,202832,202831,202508.672,202487.29999995232,202529.568,202841.988,,45,want
screen,html.Screen,2_1_0_1_46,2022-04-28T09:54:35.365Z,,,,,,,,,,,,,,,,,53,,,,,,,,,,,,,,399.3119999523042,,response,,,,99,,,,,,,Space,keypress(Space),,,,,,,,---- -- ----- -- ------ - ------- --- ----------<br>------------- ------ ------ ---- ---- ------- ----- -- ----<br>-------- ------- -- ---------- --- - --- ----- ----- ----<br>---- --- --- ----- --- ---- ---- ------- ----- ---- -------<br>--- --- -- ----- -- --- ---- to --- ---- -- ------ ------<br>--- ----- -- ----,203242.5,203241.29999995232,202821.183,202832.29999995232,202841.988,203258.648,,46,to
screen,html.Screen,2_1_0_1_47,2022-04-28T09:54:35.965Z,,,,,,,,,,,,,,,,,53,,,,,,,,,,,,,,582.7519999761716,,response,,,,99,,,,,,,Space,keypress(Space),,,,,,,,"---- -- ----- -- ------ - ------- --- ----------<br>------------- ------ ------ ---- ---- ------- ----- -- ----<br>-------- ------- -- ---------- --- - --- ----- ----- ----<br>---- --- --- ----- --- ---- ---- ------- ----- ---- -------<br>--- --- -- ----- -- --- ---- -- be, ---- -- ------ ------<br>--- ----- -- ----",203842.60000002384,203841.39999997616,203237.776,203242.70000004768,203258.648,203862.85,,47,"be,"
screen,html.Screen,2_1_0_1_48,2022-04-28T09:54:36.330Z,,,,,,,,,,,,,,,,,53,,,,,,,,,,,,,,343.75000002383604,,response,,,,99,,,,,,,Space,keypress(Space),,,,,,,,---- -- ----- -- ------ - ------- --- ----------<br>------------- ------ ------ ---- ---- ------- ----- -- ----<br>-------- ------- -- ---------- --- - --- ----- ----- ----<br>---- --- --- ----- --- ---- ---- ------- ----- ---- -------<br>--- --- -- ----- -- --- ---- -- --- even -- ------ ------<br>--- ----- -- ----,204207.60000002384,204206.60000002384,203841.932,203843,203862.85,204217.046,,48,even
screen,html.Screen,2_1_0_1_49,2022-04-28T09:54:36.801Z,,,,,,,,,,,,,,,,,53,,,,,,,,,,,,,,459.7539999523142,,response,,,,99,,,,,,,Space,keypress(Space),,,,,,,,---- -- ----- -- ------ - ------- --- ----------<br>------------- ------ ------ ---- ---- ------- ----- -- ----<br>-------- ------- -- ---------- --- - --- ----- ----- ----<br>---- --- --- ----- --- ---- ---- ------- ----- ---- -------<br>--- --- -- ----- -- --- ---- -- --- ---- if ------ ------<br>--- ----- -- ----,204677.89999997616,204676.79999995232,204196.148,204207.89999997616,204217.046,204696.273,,49,if
screen,html.Screen,2_1_0_1_50,2022-04-28T09:54:37.241Z,,,,,,,,,,,,,,,,,53,,,,,,,,,,,,,,420.62699997617165,,response,,,,99,,,,,,,Space,keypress(Space),,,,,,,,---- -- ----- -- ------ - ------- --- ----------<br>------------- ------ ------ ---- ---- ------- ----- -- ----<br>-------- ------- -- ---------- --- - --- ----- ----- ----<br>---- --- --- ----- --- ---- ---- ------- ----- ---- -------<br>--- --- -- ----- -- --- ---- -- --- ---- -- that's ------<br>--- ----- -- ----,205118.10000002384,205116.89999997616,204675.291,204678.20000004768,204696.273,205133.719,,50,that's
screen,html.Screen,2_1_0_1_51,2022-04-28T09:54:37.676Z,,,,,,,,,,,,,,,,,53,,,,,,,,,,,,,,418.38100002383,,response,,,,99,,,,,,,Space,keypress(Space),,,,,,,,---- -- ----- -- ------ - ------- --- ----------<br>------------- ------ ------ ---- ---- ------- ----- -- ----<br>-------- ------- -- ---------- --- - --- ----- ----- ----<br>---- --- --- ----- --- ---- ---- ------- ----- ---- -------<br>--- --- -- ----- -- --- ---- -- --- ---- -- ------ really<br>--- ----- -- ----,205553.20000004768,205552.10000002384,205112.796,205118.39999997616,205133.719,205571.21,,51,really
screen,html.Screen,2_1_0_1_52,2022-04-28T09:54:38.151Z,,,,,,,,,,,,,,,,,53,,,,,,,,,,,,,,456.08999995232443,,response,,,,99,,,,,,,Space,keypress(Space),,,,,,,,---- -- ----- -- ------ - ------- --- ----------<br>------------- ------ ------ ---- ---- ------- ----- -- ----<br>-------- ------- -- ---------- --- - --- ----- ----- ----<br>---- --- --- ----- --- ---- ---- ------- ----- ---- -------<br>--- --- -- ----- -- --- ---- -- --- ---- -- ------ ------<br>not ----- -- ----,206028.5,206027.29999995232,205550.265,205553.5,205571.21,206071.189,,52,not
screen,html.Screen,2_1_0_1_53,2022-04-28T09:54:38.556Z,,,,,,,,,,,,,,,,,53,,,,,,,,,,,,,,361.31099999998696,,response,,,,99,,,,,,,Space,keypress(Space),,,,,,,,---- -- ----- -- ------ - ------- --- ----------<br>------------- ------ ------ ---- ---- ------- ----- -- ----<br>-------- ------- -- ---------- --- - --- ----- ----- ----<br>---- --- --- ----- --- ---- ---- ------- ----- ---- -------<br>--- --- -- ----- -- --- ---- -- --- ---- -- ------ ------<br>--- close -- ----,206433.60000002384,206432.5,206050.352,206028.70000004768,206071.189,206446.25,,53,close
screen,html.Screen,2_1_0_1_54,2022-04-28T09:54:39.012Z,,,,,,,,,,,,,,,,,53,,,,,,,,,,,,,,441.5499999523163,,response,,,,99,,,,,,,Space,keypress(Space),,,,,,,,---- -- ----- -- ------ - ------- --- ----------<br>------------- ------ ------ ---- ---- ------- ----- -- ----<br>-------- ------- -- ---------- --- - --- ----- ----- ----<br>---- --- --- ----- --- ---- ---- ------- ----- ---- -------<br>--- --- -- ----- -- --- ---- -- --- ---- -- ------ ------<br>--- ----- at ----,206889,206887.79999995232,206425.33,206433.89999997616,206446.25,206904.567,,54,at
screen,html.Screen,2_1_0_1_55,2022-04-28T09:54:43.029Z,,,,,,,,,,,,,,,,,53,,,,,,,,,,,,,,4000.43299999999,,response,,,,99,,,,,,,Space,keypress(Space),,,,,,,,---- -- ----- -- ------ - ------- --- ----------<br>------------- ------ ------ ---- ---- ------- ----- -- ----<br>-------- ------- -- ---------- --- - --- ----- ----- ----<br>---- --- --- ----- --- ---- ---- ------- ----- ---- -------<br>--- --- -- ----- -- --- ---- -- --- ---- -- ------ ------<br>--- ----- -- all.,210906.5,210905,206883.624,206889.29999995232,206904.567,210925.34,,55,all.
Item 99,flow.Loop,2_1_0_1,2022-04-28T09:54:43.030Z,,,,,,,,,,,,,,,,,,,,,,,,,,,,,,,32313.122999999992,,completion,,,,,D,,,,,,,,,,,silence,,,,,210907.10000002384,210905,178571.072,178572.39999997616,178591.877,210925.34,,,
Question 1,html.Screen,2_1_0_2,2022-04-28T09:54:47.761Z,,,,,,,,,,,,,,,,,,,,,,,,,,,,true,FALSE,,4710.860000047687,,response,,,,99,D,,,,,,FALSE,click #choice-2,,,,silence,,,,,215638.20000004768,215636.20000004768,210904.433,210907.29999995232,210925.34,215654.515,,,
Question 2,html.Screen,2_1_0_3,2022-04-28T09:54:53.477Z,,,,,,,,,,,,,,,,,,,,,,,,,,,,true,TRUE,,5697.884999976144,,response,,,,99,D,,,,,,TRUE,click #choice-1,,,,silence,,,,,221354.29999995232,221352.39999997616,215633.722,215638.20000004768,215654.515,221362.873,,,
Item 99,flow.Sequence,2_1_0,2022-04-28T09:54:53.477Z,,,,,,,,,,,,,,,,,,,,,,,,,,,,,,,52760.50499997617,,completion,,,,,,,,,,,,,,,,,,,,,221354.5,221352.39999997616,168570.516,168575.70000004768,168591.895,221362.873,,,
Holding screen,html.Screen,2_1_1_0,2022-04-28T09:55:03.466Z,,,,,,,,,,,,,,,,,,,,,,,,,,,,,,,10000.104000000021,,timeout,,,,,,,,,,,,,,,,,,,,,231343.39999997616,231342.124,221342.066,221354.5,221362.873,231362.977,,,
screen,html.Screen,2_1_1_1_0,2022-04-28T09:55:04.205Z,,,,,,,,,,,,,,,,,54,,,,,,,,,,,,,,717.8229999523028,,response,,,,100,,,,,,,Space,keypress(Space),,,,,,,,At --- ---- --- ------ ----- ------- ---- -- --- ------- --<br>------- ---------- ------ -- ----- -- ----- -- ---- ------<br>--- ----- --- --- ------ -------- ----- --- ------ ----- --<br>----- ----- ---------- --- --- ------ ------ ---- -- ------<br>------- --- ------ ----- --- ---- ------- -- ---- --- --<br>------- ------,232082.5,232080.79999995232,231342.124,231343.79999995232,231362.977,232092.105,,0,At
screen,html.Screen,2_1_1_1_1,2022-04-28T09:55:04.499Z,,,,,,,,,,,,,,,,,54,,,,,,,,,,,,,,283.1949999523058,,response,,,,100,,,,,,,Space,keypress(Space),,,,,,,,-- the ---- --- ------ ----- ------- ---- -- --- ------- --<br>------- ---------- ------ -- ----- -- ----- -- ---- ------<br>--- ----- --- --- ------ -------- ----- --- ------ ----- --<br>----- ----- ---------- --- --- ------ ------ ---- -- ------<br>------- --- ------ ----- --- ---- ------- -- ---- --- --<br>------- ------,232376.39999997616,232375.29999995232,232071.234,232082.70000004768,232092.105,232383.706,,1,the
screen,html.Screen,2_1_1_1_2,2022-04-28T09:55:04.738Z,,,,,,,,,,,,,,,,,54,,,,,,,,,,,,,,231.19399997615255,,response,,,,100,,,,,,,Space,keypress(Space),,,,,,,,-- --- time --- ------ ----- ------- ---- -- --- ------- --<br>------- ---------- ------ -- ----- -- ----- -- ---- ------<br>--- ----- --- --- ------ -------- ----- --- ------ ----- --<br>----- ----- ---------- --- --- ------ ------ ---- -- ------<br>------- --- ------ ----- --- ---- ------- -- ---- --- --<br>------- ------,232615.39999997616,232614.89999997616,232362.958,232376.60000002384,232383.706,232633.783,,2,time
screen,html.Screen,2_1_1_1_3,2022-04-28T09:55:05.019Z,,,,,,,,,,,,,,,,,54,,,,,,,,,,,,,,261.81700002384605,,response,,,,100,,,,,,,Space,keypress(Space),,,,,,,,-- --- ---- the ------ ----- ------- ---- -- --- ------- --<br>------- ---------- ------ -- ----- -- ----- -- ---- ------<br>--- ----- --- --- ------ -------- ----- --- ------ ----- --<br>----- ----- ---------- --- --- ------ ------ ---- -- ------<br>------- --- ------ ----- --- ---- ------- -- ---- --- --<br>------- ------,232896.60000002384,232895.60000002384,232612.936,232615.5,232633.783,232904.607,,3,the
screen,html.Screen,2_1_1_1_4,2022-04-28T09:55:05.309Z,,,,,,,,,,,,,,,,,54,,,,,,,,,,,,,,280.9930000238528,,response,,,,100,,,,,,,Space,keypress(Space),,,,,,,,-- --- ---- --- French ----- ------- ---- -- --- ------- --<br>------- ---------- ------ -- ----- -- ----- -- ---- ------<br>--- ----- --- --- ------ -------- ----- --- ------ ----- --<br>----- ----- ---------- --- --- ------ ------ ---- -- ------<br>------- --- ------ ----- --- ---- ------- -- ---- --- --<br>------- ------,233186.79999995232,233185.60000002384,232883.743,232896.89999997616,232904.607,233196.273,,4,French
screen,html.Screen,2_1_1_1_5,2022-04-28T09:55:05.565Z,,,,,,,,,,,,,,,,,54,,,,,,,,,,,,,,244.42700004769722,,response,,,,100,,,,,,,Space,keypress(Space),,,,,,,,-- --- ---- --- ------ crown ------- ---- -- --- ------- --<br>------- ---------- ------ -- ----- -- ----- -- ---- ------<br>--- ----- --- --- ------ -------- ----- --- ------ ----- --<br>----- ----- ---------- --- --- ------ ------ ---- -- ------<br>------- --- ------ ----- --- ---- ------- -- ---- --- --<br>------- ------,233441.89999997616,233440.70000004768,233175.469,233187,233196.273,233446.235,,5,crown
screen,html.Screen,2_1_1_1_6,2022-04-28T09:55:05.959Z,,,,,,,,,,,,,,,,,54,,,,,,,,,,,,,,389.56499995233025,,response,,,,100,,,,,,,Space,keypress(Space),,,,,,,,-- --- ---- --- ------ ----- secured ---- -- --- ------- --<br>------- ---------- ------ -- ----- -- ----- -- ---- ------<br>--- ----- --- --- ------ -------- ----- --- ------ ----- --<br>----- ----- ---------- --- --- ------ ------ ---- -- ------<br>------- --- ------ ----- --- ---- ------- -- ---- --- --<br>------- ------,233836.79999995232,233835.79999995232,233425.403,233442.20000004768,233446.235,233842.076,,6,secured
screen,html.Screen,2_1_1_1_7,2022-04-28T09:55:06.365Z,,,,,,,,,,,,,,,,,54,,,,,,,,,,,,,,398.8239999761572,,response,,,,100,,,,,,,Space,keypress(Space),,,,,,,,-- --- ---- --- ------ ----- ------- much -- --- ------- --<br>------- ---------- ------ -- ----- -- ----- -- ---- ------<br>--- ----- --- --- ------ -------- ----- --- ------ ----- --<br>----- ----- ---------- --- --- ------ ------ ---- -- ------<br>------- --- ------ ----- --- ---- ------- -- ---- --- --<br>------- ------,234241.89999997616,234240.89999997616,233821.246,233837.10000002384,233842.076,234258.869,,7,much
screen,html.Screen,2_1_1_1_8,2022-04-28T09:55:06.765Z,,,,,,,,,,,,,,,,,54,,,,,,,,,,,,,,382.13099999999395,,response,,,,100,,,,,,,Space,keypress(Space),,,,,,,,-- --- ---- --- ------ ----- ------- ---- of --- ------- --<br>------- ---------- ------ -- ----- -- ----- -- ---- ------<br>--- ----- --- --- ------ -------- ----- --- ------ ----- --<br>----- ----- ---------- --- --- ------ ------ ---- -- ------<br>------- --- ------ ----- --- ---- ------- -- ---- --- --<br>------- ------,234642.10000002384,234641,234237.982,234242.20000004768,234258.869,234654.667,,8,of
screen,html.Screen,2_1_1_1_9,2022-04-28T09:55:07.110Z,,,,,,,,,,,,,,,,,54,,,,,,,,,,,,,,331.63299995232956,,response,,,,100,,,,,,,Space,keypress(Space),,,,,,,,-- --- ---- --- ------ ----- ------- ---- -- its ------- --<br>------- ---------- ------ -- ----- -- ----- -- ---- ------<br>--- ----- --- --- ------ -------- ----- --- ------ ----- --<br>----- ----- ---------- --- --- ------ ------ ---- -- ------<br>------- --- ------ ----- --- ---- ------- -- ---- --- --<br>------- ------,234987.39999997616,234986.29999995232,234633.751,234642.29999995232,234654.667,235008.785,,9,its
screen,html.Screen,2_1_1_1_10,2022-04-28T09:55:07.560Z,,,,,,,,,,,,,,,,,54,,,,,,,,,,,,,,427.61499997615465,,response,,,,100,,,,,,,Space,keypress(Space),,,,,,,,-- --- ---- --- ------ ----- ------- ---- -- --- revenue --<br>------- ---------- ------ -- ----- -- ----- -- ---- ------<br>--- ----- --- --- ------ -------- ----- --- ------ ----- --<br>----- ----- ---------- --- --- ------ ------ ---- -- ------<br>------- --- ------ ----- --- ---- ------- -- ---- --- --<br>------- ------,235437.60000002384,235436.39999997616,234987.941,234987.70000004768,235008.785,235446.257,,10,revenue
screen,html.Screen,2_1_1_1_11,2022-04-28T09:55:07.940Z,,,,,,,,,,,,,,,,,54,,,,,,,,,,,,,,370.1429999761458,,response,,,,100,,,,,,,Space,keypress(Space),,,,,,,,-- --- ---- --- ------ ----- ------- ---- -- --- ------- by<br>------- ---------- ------ -- ----- -- ----- -- ---- ------<br>--- ----- --- --- ------ -------- ----- --- ------ ----- --<br>----- ----- ---------- --- --- ------ ------ ---- -- ------<br>------- --- ------ ----- --- ---- ------- -- ---- --- --<br>------- ------,235817.60000002384,235816.39999997616,235425.441,235437.79999995232,235446.257,235821.236,,11,by
screen,html.Screen,2_1_1_1_12,2022-04-28T09:55:08.360Z,,,,,,,,,,,,,,,,,54,,,,,,,,,,,,,,415.4640000476793,,response,,,,100,,,,,,,Space,keypress(Space),,,,,,,,-- --- ---- --- ------ ----- ------- ---- -- --- ------- --<br>issuing ---------- ------ -- ----- -- ----- -- ---- ------<br>--- ----- --- --- ------ -------- ----- --- ------ ----- --<br>----- ----- ---------- --- --- ------ ------ ---- -- ------<br>------- --- ------ ----- --- ---- ------- -- ---- --- --<br>------- ------,236237.70000004768,236236.70000004768,235800.388,235817.89999997616,235821.236,236258.799,,12,issuing
screen,html.Screen,2_1_1_1_13,2022-04-28T09:55:08.671Z,,,,,,,,,,,,,,,,,54,,,,,,,,,,,,,,288.0009999523172,,response,,,,100,,,,,,,Space,keypress(Space),,,,,,,,-- --- ---- --- ------ ----- ------- ---- -- --- ------- --<br>------- government ------ -- ----- -- ----- -- ---- ------<br>--- ----- --- --- ------ -------- ----- --- ------ ----- --<br>----- ----- ---------- --- --- ------ ------ ---- -- ------<br>------- --- ------ ----- --- ---- ------- -- ---- --- --<br>------- ------,236548,236546.79999995232,236237.938,236238,236258.799,236550.425,,13,government
screen,html.Screen,2_1_1_1_14,2022-04-28T09:55:09.036Z,,,,,,,,,,,,,,,,,54,,,,,,,,,,,,,,361.9749999761698,,response,,,,100,,,,,,,Space,keypress(Space),,,,,,,,-- --- ---- --- ------ ----- ------- ---- -- --- ------- --<br>------- ---------- bonds. -- ----- -- ----- -- ---- ------<br>--- ----- --- --- ------ -------- ----- --- ------ ----- --<br>----- ----- ---------- --- --- ------ ------ ---- -- ------<br>------- --- ------ ----- --- ---- ------- -- ---- --- --<br>------- ------,236913.60000002384,236912.39999997616,236529.633,236548.20000004768,236550.425,236925.444,,14,bonds.
screen,html.Screen,2_1_1_1_15,2022-04-28T09:55:10.396Z,,,,,,,,,,,,,,,,,54,,,,,,,,,,,,,,1346.9559999761696,,response,,,,100,,,,,,,Space,keypress(Space),,,,,,,,-- --- ---- --- ------ ----- ------- ---- -- --- ------- --<br>------- ---------- ------ In ----- -- ----- -- ---- ------<br>--- ----- --- --- ------ -------- ----- --- ------ ----- --<br>----- ----- ---------- --- --- ------ ------ ---- -- ------<br>------- --- ------ ----- --- ---- ------- -- ---- --- --<br>------- ------,238273.60000002384,238272.39999997616,236904.656,236913.79999995232,236925.444,238279.576,,15,In
screen,html.Screen,2_1_1_1_16,2022-04-28T09:55:10.756Z,,,,,,,,,,,,,,,,,54,,,,,,,,,,,,,,353.1240000476828,,response,,,,100,,,,,,,Space,keypress(Space),,,,,,,,"-- --- ---- --- ------ ----- ------- ---- -- --- ------- --<br>------- ---------- ------ -- 1727, -- ----- -- ---- ------<br>--- ----- --- --- ------ -------- ----- --- ------ ----- --<br>----- ----- ---------- --- --- ------ ------ ---- -- ------<br>------- --- ------ ----- --- ---- ------- -- ---- --- --<br>------- ------",238633.70000004768,238632.70000004768,238258.795,238273.79999995232,238279.576,238654.726,,16,"1727,"
screen,html.Screen,2_1_1_1_17,2022-04-28T09:55:11.793Z,,,,,,,,,,,,,,,,,54,,,,,,,,,,,,,,1014.9740000476886,,response,,,,100,,,,,,,Space,keypress(Space),,,,,,,,-- --- ---- --- ------ ----- ------- ---- -- --- ------- --<br>------- ---------- ------ -- ----- in ----- -- ---- ------<br>--- ----- --- --- ------ -------- ----- --- ------ ----- --<br>----- ----- ---------- --- --- ------ ------ ---- -- ------<br>------- --- ------ ----- --- ---- ------- -- ---- --- --<br>------- ------,239670.70000004768,239669.70000004768,238633.834,238633.89999997616,238654.726,239696.392,,17,in
screen,html.Screen,2_1_1_1_18,2022-04-28T09:55:12.074Z,,,,,,,,,,,,,,,,,54,,,,,,,,,,,,,,253.40799995232373,,response,,,,100,,,,,,,Space,keypress(Space),,,,,,,,-- --- ---- --- ------ ----- ------- ---- -- --- ------- --<br>------- ---------- ------ -- ----- -- order -- ---- ------<br>--- ----- --- --- ------ -------- ----- --- ------ ----- --<br>----- ----- ---------- --- --- ------ ------ ---- -- ------<br>------- --- ------ ----- --- ---- ------- -- ---- --- --<br>------- ------,239950.89999997616,239949.79999995232,239654.643,239670.89999997616,239696.392,239967.247,,18,order
screen,html.Screen,2_1_1_1_19,2022-04-28T09:55:12.454Z,,,,,,,,,,,,,,,,,54,,,,,,,,,,,,,,362.6529999761551,,response,,,,100,,,,,,,Space,keypress(Space),,,,,,,,-- --- ---- --- ------ ----- ------- ---- -- --- ------- --<br>------- ---------- ------ -- ----- -- ----- to ---- ------<br>--- ----- --- --- ------ -------- ----- --- ------ ----- --<br>----- ----- ---------- --- --- ------ ------ ---- -- ------<br>------- --- ------ ----- --- ---- ------- -- ---- --- --<br>------- ------,240330.89999997616,240329.89999997616,239946.318,239951.10000002384,239967.247,240342.223,,19,to
screen,html.Screen,2_1_1_1_20,2022-04-28T09:55:12.734Z,,,,,,,,,,,,,,,,,54,,,,,,,,,,,,,,267.77700000000186,,response,,,,100,,,,,,,Space,keypress(Space),,,,,,,,-- --- ---- --- ------ ----- ------- ---- -- --- ------- --<br>------- ---------- ------ -- ----- -- ----- -- save ------<br>--- ----- --- --- ------ -------- ----- --- ------ ----- --<br>----- ----- ---------- --- --- ------ ------ ---- -- ------<br>------- --- ------ ----- --- ---- ------- -- ---- --- --<br>------- ------,240611.39999997616,240610,240321.312,240331.20000004768,240342.223,240636.006,,20,save
screen,html.Screen,2_1_1_1_21,2022-04-28T09:55:13.109Z,,,,,,,,,,,,,,,,,54,,,,,,,,,,,,,,349.19400004768977,,response,,,,100,,,,,,,Space,keypress(Space),,,,,,,,"-- --- ---- --- ------ ----- ------- ---- -- --- ------- --<br>------- ---------- ------ -- ----- -- ----- -- ---- money,<br>--- ----- --- --- ------ -------- ----- --- ------ ----- --<br>----- ----- ---------- --- --- ------ ------ ---- -- ------<br>------- --- ------ ----- --- ---- ------- -- ---- --- --<br>------- ------",240986.10000002384,240985.20000004768,240592.203,240611.70000004768,240636.006,241012.48,,21,"money,"
screen,html.Screen,2_1_1_1_22,2022-04-28T09:55:13.819Z,,,,,,,,,,,,,,,,,54,,,,,,,,,,,,,,682.9199999761477,,response,,,,100,,,,,,,Space,keypress(Space),,,,,,,,-- --- ---- --- ------ ----- ------- ---- -- --- ------- --<br>------- ---------- ------ -- ----- -- ----- -- ---- ------<br>the ----- --- --- ------ -------- ----- --- ------ ----- --<br>----- ----- ---------- --- --- ------ ------ ---- -- ------<br>------- --- ------ ----- --- ---- ------- -- ---- --- --<br>------- ------,241696.70000004768,241695.39999997616,240967.123,240986.39999997616,241012.48,241717.225,,22,the
screen,html.Screen,2_1_1_1_23,2022-04-28T09:55:14.225Z,,,,,,,,,,,,,,,,,54,,,,,,,,,,,,,,383.87500002383604,,response,,,,100,,,,,,,Space,keypress(Space),,,,,,,,-- --- ---- --- ------ ----- ------- ---- -- --- ------- --<br>------- ---------- ------ -- ----- -- ----- -- ---- ------<br>--- state --- --- ------ -------- ----- --- ------ ----- --<br>----- ----- ---------- --- --- ------ ------ ---- -- ------<br>------- --- ------ ----- --- ---- ------- -- ---- --- --<br>------- ------,242102.10000002384,242101.10000002384,241696.297,241696.89999997616,241717.225,242112.99,,23,state
screen,html.Screen,2_1_1_1_24,2022-04-28T09:55:14.595Z,,,,,,,,,,,,,,,,,54,,,,,,,,,,,,,,357.71000004769303,,response,,,,100,,,,,,,Space,keypress(Space),,,,,,,,-- --- ---- --- ------ ----- ------- ---- -- --- ------- --<br>------- ---------- ------ -- ----- -- ----- -- ---- ------<br>--- ----- cut --- ------ -------- ----- --- ------ ----- --<br>----- ----- ---------- --- --- ------ ------ ---- -- ------<br>------- --- ------ ----- --- ---- ------- -- ---- --- --<br>------- ------,242471.89999997616,242470.70000004768,242092.164,242102.39999997616,242112.99,242488.048,,24,cut
screen,html.Screen,2_1_1_1_25,2022-04-28T09:55:14.865Z,,,,,,,,,,,,,,,,,54,,,,,,,,,,,,,,252.85199997614836,,response,,,,100,,,,,,,Space,keypress(Space),,,,,,,,-- --- ---- --- ------ ----- ------- ---- -- --- ------- --<br>------- ---------- ------ -- ----- -- ----- -- ---- ------<br>--- ----- --- the ------ -------- ----- --- ------ ----- --<br>----- ----- ---------- --- --- ------ ------ ---- -- ------<br>------- --- ------ ----- --- ---- ------- -- ---- --- --<br>------- ------,242741.79999995232,242740.89999997616,242467.129,242472.20000004768,242488.048,242758.905,,25,the
screen,html.Screen,2_1_1_1_26,2022-04-28T09:55:15.170Z,,,,,,,,,,,,,,,,,54,,,,,,,,,,,,,,287.4949999761593,,response,,,,100,,,,,,,Space,keypress(Space),,,,,,,,-- --- ---- --- ------ ----- ------- ---- -- --- ------- --<br>------- ---------- ------ -- ----- -- ----- -- ---- ------<br>--- ----- --- --- bonds' -------- ----- --- ------ ----- --<br>----- ----- ---------- --- --- ------ ------ ---- -- ------<br>------- --- ------ ----- --- ---- ------- -- ---- --- --<br>------- ------,243047.79999995232,243046.39999997616,242738.012,242742.10000002384,242758.905,243050.458,,26,bonds'
screen,html.Screen,2_1_1_1_27,2022-04-28T09:55:15.659Z,,,,,,,,,,,,,,,,,54,,,,,,,,,,,,,,485.24200004767044,,response,,,,100,,,,,,,Space,keypress(Space),,,,,,,,-- --- ---- --- ------ ----- ------- ---- -- --- ------- --<br>------- ---------- ------ -- ----- -- ----- -- ---- ------<br>--- ----- --- --- ------ interest ----- --- ------ ----- --<br>----- ----- ---------- --- --- ------ ------ ---- -- ------<br>------- --- ------ ----- --- ---- ------- -- ---- --- --<br>------- ------,243536.20000004768,243535.70000004768,243029.648,243048,243050.458,243550.576,,27,interest
screen,html.Screen,2_1_1_1_28,2022-04-28T09:55:16.065Z,,,,,,,,,,,,,,,,,54,,,,,,,,,,,,,,390.72399995231535,,response,,,,100,,,,,,,Space,keypress(Space),,,,,,,,-- --- ---- --- ------ ----- ------- ---- -- --- ------- --<br>------- ---------- ------ -- ----- -- ----- -- ---- ------<br>--- ----- --- --- ------ -------- rate. --- ------ ----- --<br>----- ----- ---------- --- --- ------ ------ ---- -- ------<br>------- --- ------ ----- --- ---- ------- -- ---- --- --<br>------- ------,243942.60000002384,243941.29999995232,243529.615,243536.29999995232,243550.576,243946.299,,28,rate.
screen,html.Screen,2_1_1_1_29,2022-04-28T09:55:17.511Z,,,,,,,,,,,,,,,,,54,,,,,,,,,,,,,,1440.600999976159,,response,,,,100,,,,,,,Space,keypress(Space),,,,,,,,-- --- ---- --- ------ ----- ------- ---- -- --- ------- --<br>------- ---------- ------ -- ----- -- ----- -- ---- ------<br>--- ----- --- --- ------ -------- ----- The ------ ----- --<br>----- ----- ---------- --- --- ------ ------ ---- -- ------<br>------- --- ------ ----- --- ---- ------- -- ---- --- --<br>------- ------,245387.89999997616,245386.89999997616,243925.492,243942.79999995232,243946.299,245404.627,,29,The
screen,html.Screen,2_1_1_1_30,2022-04-28T09:55:17.811Z,,,,,,,,,,,,,,,,,54,,,,,,,,,,,,,,282.27299997615046,,response,,,,100,,,,,,,Space,keypress(Space),,,,,,,,-- --- ---- --- ------ ----- ------- ---- -- --- ------- --<br>------- ---------- ------ -- ----- -- ----- -- ---- ------<br>--- ----- --- --- ------ -------- ----- --- market ----- --<br>----- ----- ---------- --- --- ------ ------ ---- -- ------<br>------- --- ------ ----- --- ---- ------- -- ---- --- --<br>------- ------,245688.20000004768,245686.89999997616,245383.839,245388.10000002384,245404.627,245696.282,,30,market
screen,html.Screen,2_1_1_1_31,2022-04-28T09:55:18.066Z,,,,,,,,,,,,,,,,,54,,,,,,,,,,,,,,245.81800002383534,,response,,,,100,,,,,,,Space,keypress(Space),,,,,,,,-- --- ---- --- ------ ----- ------- ---- -- --- ------- --<br>------- ---------- ------ -- ----- -- ----- -- ---- ------<br>--- ----- --- --- ------ -------- ----- --- ------ value --<br>----- ----- ---------- --- --- ------ ------ ---- -- ------<br>------- --- ------ ----- --- ---- ------- -- ---- --- --<br>------- ------,245943.29999995232,245942.10000002384,245675.464,245688.39999997616,245696.282,245946.302,,31,value
screen,html.Screen,2_1_1_1_32,2022-04-28T09:55:18.416Z,,,,,,,,,,,,,,,,,54,,,,,,,,,,,,,,345.99799995232024,,response,,,,100,,,,,,,Space,keypress(Space),,,,,,,,-- --- ---- --- ------ ----- ------- ---- -- --- ------- --<br>------- ---------- ------ -- ----- -- ----- -- ---- ------<br>--- ----- --- --- ------ -------- ----- --- ------ ----- of<br>----- ----- ---------- --- --- ------ ------ ---- -- ------<br>------- --- ------ ----- --- ---- ------- -- ---- --- --<br>------- ------,246293.29999995232,246292.29999995232,245925.464,245943.5,245946.302,246300.559,,32,of
screen,html.Screen,2_1_1_1_33,2022-04-28T09:55:18.781Z,,,,,,,,,,,,,,,,,54,,,,,,,,,,,,,,356.9409999999916,,response,,,,100,,,,,,,Space,keypress(Space),,,,,,,,-- --- ---- --- ------ ----- ------- ---- -- --- ------- --<br>------- ---------- ------ -- ----- -- ----- -- ---- ------<br>--- ----- --- --- ------ -------- ----- --- ------ ----- --<br>these ----- ---------- --- --- ------ ------ ---- -- ------<br>------- --- ------ ----- --- ---- ------- -- ---- --- --<br>------- ------,246658.70000004768,246657.5,246279.61,246293.5,246300.559,246675.58,,33,these
screen,html.Screen,2_1_1_1_34,2022-04-28T09:55:19.066Z,,,,,,,,,,,,,,,,,54,,,,,,,,,,,,,,267.02000002385466,,response,,,,100,,,,,,,Space,keypress(Space),,,,,,,,-- --- ---- --- ------ ----- ------- ---- -- --- ------- --<br>------- ---------- ------ -- ----- -- ----- -- ---- ------<br>--- ----- --- --- ------ -------- ----- --- ------ ----- --<br>----- bonds ---------- --- --- ------ ------ ---- -- ------<br>------- --- ------ ----- --- ---- ------- -- ---- --- --<br>------- ------,246943.70000004768,246942.60000002384,246654.698,246658.89999997616,246675.58,246946.308,,34,bonds
screen,html.Screen,2_1_1_1_35,2022-04-28T09:55:19.421Z,,,,,,,,,,,,,,,,,54,,,,,,,,,,,,,,351.3920000476937,,response,,,,100,,,,,,,Space,keypress(Space),,,,,,,,"-- --- ---- --- ------ ----- ------- ---- -- --- ------- --<br>------- ---------- ------ -- ----- -- ----- -- ---- ------<br>--- ----- --- --- ------ -------- ----- --- ------ ----- --<br>----- ----- plummeted, --- --- ------ ------ ---- -- ------<br>------- --- ------ ----- --- ---- ------- -- ---- --- --<br>------- ------",247298.70000004768,247297.70000004768,246925.518,246944,246946.308,247328.286,,35,"plummeted,"
screen,html.Screen,2_1_1_1_36,2022-04-28T09:55:20.152Z,,,,,,,,,,,,,,,,,54,,,,,,,,,,,,,,699.8140000238491,,response,,,,100,,,,,,,Space,keypress(Space),,,,,,,,-- --- ---- --- ------ ----- ------- ---- -- --- ------- --<br>------- ---------- ------ -- ----- -- ----- -- ---- ------<br>--- ----- --- --- ------ -------- ----- --- ------ ----- --<br>----- ----- ---------- and --- ------ ------ ---- -- ------<br>------- --- ------ ----- --- ---- ------- -- ---- --- --<br>------- ------,248029.29999995232,248028.10000002384,247279.702,247298.89999997616,247328.286,248050.518,,36,and
screen,html.Screen,2_1_1_1_37,2022-04-28T09:55:20.507Z,,,,,,,,,,,,,,,,,54,,,,,,,,,,,,,,332.5820000238309,,response,,,,100,,,,,,,Space,keypress(Space),,,,,,,,-- --- ---- --- ------ ----- ------- ---- -- --- ------- --<br>------- ---------- ------ -- ----- -- ----- -- ---- ------<br>--- ----- --- --- ------ -------- ----- --- ------ ----- --<br>----- ----- ---------- --- the ------ ------ ---- -- ------<br>------- --- ------ ----- --- ---- ------- -- ---- --- --<br>------- ------,248384.10000002384,248383.10000002384,248029.623,248029.60000002384,248050.518,248404.758,,37,the
screen,html.Screen,2_1_1_1_38,2022-04-28T09:55:20.848Z,,,,,,,,,,,,,,,,,54,,,,,,,,,,,,,,319.8420000238402,,response,,,,100,,,,,,,Space,keypress(Space),,,,,,,,-- --- ---- --- ------ ----- ------- ---- -- --- ------- --<br>------- ---------- ------ -- ----- -- ----- -- ---- ------<br>--- ----- --- --- ------ -------- ----- --- ------ ----- --<br>----- ----- ---------- --- --- market ------ ---- -- ------<br>------- --- ------ ----- --- ---- ------- -- ---- --- --<br>------- ------,248725.70000004768,248724.60000002384,248383.797,248384.29999995232,248404.758,248738.012,,38,market
screen,html.Screen,2_1_1_1_39,2022-04-28T09:55:21.227Z,,,,,,,,,,,,,,,,,54,,,,,,,,,,,,,,365.38799997617025,,response,,,,100,,,,,,,Space,keypress(Space),,,,,,,,-- --- ---- --- ------ ----- ------- ---- -- --- ------- --<br>------- ---------- ------ -- ----- -- ----- -- ---- ------<br>--- ----- --- --- ------ -------- ----- --- ------ ----- --<br>----- ----- ---------- --- --- ------ became ---- -- ------<br>------- --- ------ ----- --- ---- ------- -- ---- --- --<br>------- ------,249104.39999997616,249103.39999997616,248717.191,248725.79999995232,248738.012,249113.105,,39,became
screen,html.Screen,2_1_1_1_40,2022-04-28T09:55:21.533Z,,,,,,,,,,,,,,,,,54,,,,,,,,,,,,,,296.3949999999895,,response,,,,100,,,,,,,Space,keypress(Space),,,,,,,,-- --- ---- --- ------ ----- ------- ---- -- --- ------- --<br>------- ---------- ------ -- ----- -- ----- -- ---- ------<br>--- ----- --- --- ------ -------- ----- --- ------ ----- --<br>----- ----- ---------- --- --- ------ ------ wary -- ------<br>------- --- ------ ----- --- ---- ------- -- ---- --- --<br>------- ------,249410.5,249409.5,249092.153,249104.70000004768,249113.105,249425.595,,40,wary
screen,html.Screen,2_1_1_1_41,2022-04-28T09:55:21.843Z,,,,,,,,,,,,,,,,,54,,,,,,,,,,,,,,294.0050000238407,,response,,,,100,,,,,,,Space,keypress(Space),,,,,,,,-- --- ---- --- ------ ----- ------- ---- -- --- ------- --<br>------- ---------- ------ -- ----- -- ----- -- ---- ------<br>--- ----- --- --- ------ -------- ----- --- ------ ----- --<br>----- ----- ---------- --- --- ------ ------ ---- of ------<br>------- --- ------ ----- --- ---- ------- -- ---- --- --<br>------- ------,249720.5,249719.60000002384,249404.699,249410.70000004768,249425.595,249738.079,,41,of
screen,html.Screen,2_1_1_1_42,2022-04-28T09:55:22.118Z,,,,,,,,,,,,,,,,,54,,,,,,,,,,,,,,256.6210000476858,,response,,,,100,,,,,,,Space,keypress(Space),,,,,,,,-- --- ---- --- ------ ----- ------- ---- -- --- ------- --<br>------- ---------- ------ -- ----- -- ----- -- ---- ------<br>--- ----- --- --- ------ -------- ----- --- ------ ----- --<br>----- ----- ---------- --- --- ------ ------ ---- -- French<br>------- --- ------ ----- --- ---- ------- -- ---- --- --<br>------- ------,249995.70000004768,249994.70000004768,249717.195,249720.70000004768,249738.079,250008.931,,42,French
screen,html.Screen,2_1_1_1_43,2022-04-28T09:55:22.393Z,,,,,,,,,,,,,,,,,54,,,,,,,,,,,,,,260.7690000476723,,response,,,,100,,,,,,,Space,keypress(Space),,,,,,,,-- --- ---- --- ------ ----- ------- ---- -- --- ------- --<br>------- ---------- ------ -- ----- -- ----- -- ---- ------<br>--- ----- --- --- ------ -------- ----- --- ------ ----- --<br>----- ----- ---------- --- --- ------ ------ ---- -- ------<br>credit. --- ------ ----- --- ---- ------- -- ---- --- --<br>------- ------,250270.79999995232,250269.70000004768,249987.974,249996,250008.931,250279.692,,43,credit.
screen,html.Screen,2_1_1_1_44,2022-04-28T09:55:22.614Z,,,,,,,,,,,,,,,,,54,,,,,,,,,,,,,,210.10799995230627,,response,,,,100,,,,,,,Space,keypress(Space),,,,,,,,-- --- ---- --- ------ ----- ------- ---- -- --- ------- --<br>------- ---------- ------ -- ----- -- ----- -- ---- ------<br>--- ----- --- --- ------ -------- ----- --- ------ ----- --<br>----- ----- ---------- --- --- ------ ------ ---- -- ------<br>------- The ------ ----- --- ---- ------- -- ---- --- --<br>------- ------,250491,250489.79999995232,250258.886,250271,250279.692,250508.826,,44,The
screen,html.Screen,2_1_1_1_45,2022-04-28T09:55:23.159Z,,,,,,,,,,,,,,,,,54,,,,,,,,,,,,,,526.2740000238409,,response,,,,100,,,,,,,Space,keypress(Space),,,,,,,,-- --- ---- --- ------ ----- ------- ---- -- --- ------- --<br>------- ---------- ------ -- ----- -- ----- -- ---- ------<br>--- ----- --- --- ------ -------- ----- --- ------ ----- --<br>----- ----- ---------- --- --- ------ ------ ---- -- ------<br>------- --- French ----- --- ---- ------- -- ---- --- --<br>------- ------,251036.20000004768,251035.10000002384,250487.976,250491.29999995232,250508.826,251050.518,,45,French
screen,html.Screen,2_1_1_1_46,2022-04-28T09:55:23.423Z,,,,,,,,,,,,,,,,,54,,,,,,,,,,,,,,244.68200004767277,,response,,,,100,,,,,,,Space,keypress(Space),,,,,,,,-- --- ---- --- ------ ----- ------- ---- -- --- ------- --<br>------- ---------- ------ -- ----- -- ----- -- ---- ------<br>--- ----- --- --- ------ -------- ----- --- ------ ----- --<br>----- ----- ---------- --- --- ------ ------ ---- -- ------<br>------- --- ------ state --- ---- ------- -- ---- --- --<br>------- ------,251296.5,251295.20000004768,251029.697,251036.5,251050.518,251300.485,,46,state
screen,html.Screen,2_1_1_1_47,2022-04-28T09:55:23.648Z,,,,,,,,,,,,,,,,,54,,,,,,,,,,,,,,219.71500004769769,,response,,,,100,,,,,,,Space,keypress(Space),,,,,,,,-- --- ---- --- ------ ----- ------- ---- -- --- ------- --<br>------- ---------- ------ -- ----- -- ----- -- ---- ------<br>--- ----- --- --- ------ -------- ----- --- ------ ----- --<br>----- ----- ---------- --- --- ------ ------ ---- -- ------<br>------- --- ------ ----- was ---- ------- -- ---- --- --<br>------- ------,251521.29999995232,251520.20000004768,251279.621,251296.79999995232,251300.485,251529.614,,47,was
screen,html.Screen,2_1_1_1_48,2022-04-28T09:55:23.993Z,,,,,,,,,,,,,,,,,54,,,,,,,,,,,,,,336.28599997615675,,response,,,,100,,,,,,,Space,keypress(Space),,,,,,,,-- --- ---- --- ------ ----- ------- ---- -- --- ------- --<br>------- ---------- ------ -- ----- -- ----- -- ---- ------<br>--- ----- --- --- ------ -------- ----- --- ------ ----- --<br>----- ----- ---------- --- --- ------ ------ ---- -- ------<br>------- --- ------ ----- --- left ------- -- ---- --- --<br>------- ------,251866.89999997616,251865.89999997616,251508.725,251521.5,251529.614,251883.937,,48,left
screen,html.Screen,2_1_1_1_49,2022-04-28T09:55:24.358Z,,,,,,,,,,,,,,,,,54,,,,,,,,,,,,,,347.1630000238365,,response,,,,100,,,,,,,Space,keypress(Space),,,,,,,,-- --- ---- --- ------ ----- ------- ---- -- --- ------- --<br>------- ---------- ------ -- ----- -- ----- -- ---- ------<br>--- ----- --- --- ------ -------- ----- --- ------ ----- --<br>----- ----- ---------- --- --- ------ ------ ---- -- ------<br>------- --- ------ ----- --- ---- without -- ---- --- --<br>------- ------,252232.20000004768,252231.10000002384,251862.956,251867.20000004768,251883.937,252237.992,,49,without
screen,html.Screen,2_1_1_1_50,2022-04-28T09:55:24.698Z,,,,,,,,,,,,,,,,,54,,,,,,,,,,,,,,332.70800004768535,,response,,,,100,,,,,,,Space,keypress(Space),,,,,,,,-- --- ---- --- ------ ----- ------- ---- -- --- ------- --<br>------- ---------- ------ -- ----- -- ----- -- ---- ------<br>--- ----- --- --- ------ -------- ----- --- ------ ----- --<br>----- ----- ---------- --- --- ------ ------ ---- -- ------<br>------- --- ------ ----- --- ---- ------- an ---- --- --<br>------- ------,252571.70000004768,252570.70000004768,252217.161,252232.39999997616,252237.992,252592.263,,50,an
screen,html.Screen,2_1_1_1_51,2022-04-28T09:55:24.994Z,,,,,,,,,,,,,,,,,54,,,,,,,,,,,,,,274.63699997615186,,response,,,,100,,,,,,,Space,keypress(Space),,,,,,,,-- --- ---- --- ------ ----- ------- ---- -- --- ------- --<br>------- ---------- ------ -- ----- -- ----- -- ---- ------<br>--- ----- --- --- ------ -------- ----- --- ------ ----- --<br>----- ----- ---------- --- --- ------ ------ ---- -- ------<br>------- --- ------ ----- --- ---- ------- -- easy --- --<br>------- ------,252868,252866.89999997616,252571.391,252571.89999997616,252592.263,252883.941,,51,easy
screen,html.Screen,2_1_1_1_52,2022-04-28T09:55:25.373Z,,,,,,,,,,,,,,,,,54,,,,,,,,,,,,,,361.9589999761665,,response,,,,100,,,,,,,Space,keypress(Space),,,,,,,,-- --- ---- --- ------ ----- ------- ---- -- --- ------- --<br>------- ---------- ------ -- ----- -- ----- -- ---- ------<br>--- ----- --- --- ------ -------- ----- --- ------ ----- --<br>----- ----- ---------- --- --- ------ ------ ---- -- ------<br>------- --- ------ ----- --- ---- ------- -- ---- way --<br>------- ------,253246.89999997616,253245.89999997616,252863.041,252868.29999995232,252883.941,253258.942,,52,way
screen,html.Screen,2_1_1_1_53,2022-04-28T09:55:25.789Z,,,,,,,,,,,,,,,,,54,,,,,,,,,,,,,,402.15800002383185,,response,,,,100,,,,,,,Space,keypress(Space),,,,,,,,-- --- ---- --- ------ ----- ------- ---- -- --- ------- --<br>------- ---------- ------ -- ----- -- ----- -- ---- ------<br>--- ----- --- --- ------ -------- ----- --- ------ ----- --<br>----- ----- ---------- --- --- ------ ------ ---- -- ------<br>------- --- ------ ----- --- ---- ------- -- ---- --- of<br>------- ------,253662.29999995232,253661.10000002384,253237.996,253247.10000002384,253258.942,253675.613,,53,of
screen,html.Screen,2_1_1_1_54,2022-04-28T09:55:26.234Z,,,,,,,,,,,,,,,,,54,,,,,,,,,,,,,,430.6869999523042,,response,,,,100,,,,,,,Space,keypress(Space),,,,,,,,-- --- ---- --- ------ ----- ------- ---- -- --- ------- --<br>------- ---------- ------ -- ----- -- ----- -- ---- ------<br>--- ----- --- --- ------ -------- ----- --- ------ ----- --<br>----- ----- ---------- --- --- ------ ------ ---- -- ------<br>------- --- ------ ----- --- ---- ------- -- ---- --- --<br>raising ------,254107.20000004768,254106.29999995232,253654.714,253662.5,253675.613,254112.924,,54,raising
screen,html.Screen,2_1_1_1_55,2022-04-28T09:55:27.890Z,,,,,,,,,,,,,,,,,54,,,,,,,,,,,,,,1649.076000000001,,response,,,,100,,,,,,,Space,keypress(Space),,,,,,,,-- --- ---- --- ------ ----- ------- ---- -- --- ------- --<br>------- ---------- ------ -- ----- -- ----- -- ---- ------<br>--- ----- --- --- ------ -------- ----- --- ------ ----- --<br>----- ----- ---------- --- --- ------ ------ ---- -- ------<br>------- --- ------ ----- --- ---- ------- -- ---- --- --<br>------- money.,255763.20000004768,255762,254092.172,254107.5,254112.924,255779.65,,55,money.
Item 100,flow.Loop,2_1_1_1,2022-04-28T09:55:27.890Z,,,,,,,,,,,,,,,,,,,,,,,,,,,,,,,24399.022999999986,,completion,,,,,D,,,,,,,,,,,silence,,,,,255763.70000004768,255762,231342.124,231343.70000004768,231362.977,255779.65,,,
Question 1,html.Screen,2_1_1_2,2022-04-28T09:55:31.085Z,,,,,,,,,,,,,,,,,,,,,,,,,,,,true,TRUE,,3177.0500000476895,,response,,,,100,D,,,,,,TRUE,click #choice-1,,,,silence,,,,,258958.60000002384,258956.70000004768,255758.822,255763.89999997616,255779.65,258967.228,,,
Question 2,html.Screen,2_1_1_3,2022-04-28T09:55:34.062Z,,,,,,,,,,,,,,,,,,,,,,,,,,,,true,FALSE,,2966.372000023839,,response,,,,100,D,,,,,,FALSE,click #choice-2,,,,silence,,,,,261935.5,261933.60000002384,258946.372,258958.70000004768,258967.228,261946.409,,,
Item 100,flow.Sequence,2_1_1,2022-04-28T09:55:34.062Z,,,,,,,,,,,,,,,,,,,,,,,,,,,,,,,40570.72700002385,,completion,,,,,,,,,,,,,,,,,,,,,261935.60000002384,261933.60000002384,221342.066,221354.5,221362.873,261946.409,,,
End of Practice,html.Page,2_1_2,2022-04-28T09:55:54.053Z,,,,,,,,,,,,,,,,,,,,,,,,,,,,,,,20000.025999999983,,timeout,,,,,,,,,,,,,,,,,,,,,281926.7000000477,281925.669,261925.584,261935.70000004768,261946.409,281946.435,,,
Practice,flow.Sequence,2_1,2022-04-28T09:55:54.053Z,,,,,,,,,,,,,,,,,,,,,,,,,,,,,,,113333.774,,completion,,,,,,,,,,,,,,,,,,,,,281927.2000000477,281925.669,168570.516,168575.70000004768,168591.895,281946.435,,,
Trap_instruction,html.Page,2_2_0,2022-04-28T09:56:10.025Z,,,,,,,,,,,,,,,,,,,,,,,,,,,,,,,15951.864999952319,,form submission,,,,,,,,,,,,,,,,,,,,,297898.5,297898.2999999523,281925.669,281927.2999999523,281946.435,297904.78,,,
trap_trial,html.Screen,2_2_1,2022-04-28T09:56:13.197Z,,,,,,,,,,,,,,,,,,,,,,,,,,,,true,1,,3164.11999997613,,response,,,,,,,,,,,1,click #choice-1,,,,,,,,,301070.5,301068.89999997616,297883.729,297898.60000002384,297904.78,301071.463,,,
end of trap trial,html.Page,2_2_2,2022-04-28T09:56:14.966Z,,,,,,,,,,,,,,,,,,,,,,,,,,,,,,,1768.0370000000112,,form submission,,,,,,,,,,,,,,,,,,,,,302839.7000000477,302839.5,301050.634,301070.60000002384,301071.463,302863.266,,,
Trap 1,flow.Sequence,2_2,2022-04-28T09:56:14.966Z,,,,,,,,,,,,,,,,,,,,,,,,,,,,,,,20893.065000000002,,completion,,,,,,,,,,,,,,,,,,,,,302839.7999999523,302839.5,281925.669,281927.2999999523,281946.435,302863.266,,,
Standby,html.Page,2_3_0,2022-04-28T09:56:22.969Z,,,,,,,,,,,,,,,,,,,,,,,,,,,,,,,7999.979999999981,,timeout,,,,,,,,,,,,,,,,,,,,,310843,310842.398,302842.607,302840,302863.266,310863.246,,,
Holding screen,html.Screen,2_3_1_0_0,2022-04-28T09:56:29.970Z,,,,,,,,,,,,,,,,,,,,,,,,,,,,,,,6999.958000000042,,timeout,,,,,,,,,,,,,,,,,,,,,317843.5,317842.486,310842.398,310843.2000000477,310863.246,317863.204,,,
screen,html.Screen,2_3_1_0_1_0,2022-04-28T09:56:32.205Z,,,,,,,,,,,,,,,,,40,,,,,,,,,,,,,,2214.4960000476567,,response,,,,9,D,,,,,,Space,keypress(Space),,,,speech,,,,Police -- ------- ---- ---- ---- - -------- ----- --- --<br>----- ----- ------ -- ---- -- --- - ---- -- - ----- -----<br>------ ---- ------ ---- - -------- ------- -- --- --------<br>-------- ----------- ---- ------ ---- ------ ---- --- ---<br>-------- --- -----,320078.39999997616,320077.7000000477,317842.486,317843.7999999523,317863.204,320092.487,,0,Police
screen,html.Screen,2_3_1_0_1_1,2022-04-28T09:56:32.500Z,,,,,,,,,,,,,,,,,40,,,,,,,,,,,,,,280.2130000476609,,response,,,,9,D,,,,,,Space,keypress(Space),,,,speech,,,,------ in ------- ---- ---- ---- - -------- ----- --- --<br>----- ----- ------ -- ---- -- --- - ---- -- - ----- -----<br>------ ---- ------ ---- - -------- ------- -- --- --------<br>-------- ----------- ---- ------ ---- ------ ---- --- ---<br>-------- --- -----,320373.7999999523,320372.7000000477,320071.562,320078.5,320092.487,320384.071,,1,in
screen,html.Screen,2_3_1_0_1_2,2022-04-28T09:56:32.800Z,,,,,,,,,,,,,,,,,40,,,,,,,,,,,,,,288.62900004768744,,response,,,,9,D,,,,,,Space,keypress(Space),,,,speech,,,,------ -- Georgia ---- ---- ---- - -------- ----- --- --<br>----- ----- ------ -- ---- -- --- - ---- -- - ----- -----<br>------ ---- ------ ---- - -------- ------- -- --- --------<br>-------- ----------- ---- ------ ---- ------ ---- --- ---<br>-------- --- -----,320673.89999997616,320672.7000000477,320363.276,320374.10000002384,320384.071,320715.987,,2,Georgia
screen,html.Screen,2_3_1_0_1_3,2022-04-28T09:56:33.148Z,,,,,,,,,,,,,,,,,40,,,,,,,,,,,,,,304.5129999999772,,response,,,,9,D,,,,,,Space,keypress(Space),,,,speech,,,,------ -- ------- have ---- ---- - -------- ----- --- --<br>----- ----- ------ -- ---- -- --- - ---- -- - ----- -----<br>------ ---- ------ ---- - -------- ------- -- --- --------<br>-------- ----------- ---- ------ ---- ------ ---- --- ---<br>-------- --- -----,321021.5,321020.5,320654.933,320674.2000000477,320715.987,321029.956,,3,have
screen,html.Screen,2_3_1_0_1_4,2022-04-28T09:56:33.466Z,,,,,,,,,,,,,,,,,40,,,,,,,,,,,,,,308.0439999999944,,response,,,,9,D,,,,,,Space,keypress(Space),,,,speech,,,,------ -- ------- ---- shut ---- - -------- ----- --- --<br>----- ----- ------ -- ---- -- --- - ---- -- - ----- -----<br>------ ---- ------ ---- - -------- ------- -- --- --------<br>-------- ----------- ---- ------ ---- ------ ---- --- ---<br>-------- --- -----,321339.10000002384,321338,321009.152,321021.7999999523,321029.956,321342.454,,4,shut
screen,html.Screen,2_3_1_0_1_5,2022-04-28T09:56:33.806Z,,,,,,,,,,,,,,,,,40,,,,,,,,,,,,,,335.7460000476567,,response,,,,9,D,,,,,,Space,keypress(Space),,,,speech,,,,------ -- ------- ---- ---- down - -------- ----- --- --<br>----- ----- ------ -- ---- -- --- - ---- -- - ----- -----<br>------ ---- ------ ---- - -------- ------- -- --- --------<br>-------- ----------- ---- ------ ---- ------ ---- --- ---<br>-------- --- -----,321679.2000000477,321678.2000000477,321321.615,321339.39999997616,321342.454,321696.617,,5,down
screen,html.Screen,2_3_1_0_1_6,2022-04-28T09:56:34.215Z,,,,,,,,,,,,,,,,,40,,,,,,,,,,,,,,391.08300004765624,,response,,,,9,D,,,,,,Space,keypress(Space),,,,speech,,,,------ -- ------- ---- ---- ---- a -------- ----- --- --<br>----- ----- ------ -- ---- -- --- - ---- -- - ----- -----<br>------ ---- ------ ---- - -------- ------- -- --- --------<br>-------- ----------- ---- ------ ---- ------ ---- --- ---<br>-------- --- -----,322088.2999999523,322087.7000000477,321675.838,321679.5,321696.617,322092.402,,6,a
screen,html.Screen,2_3_1_0_1_7,2022-04-28T09:56:34.551Z,,,,,,,,,,,,,,,,,40,,,,,,,,,,,,,,330.8979999523144,,response,,,,9,D,,,,,,Space,keypress(Space),,,,speech,,,,------ -- ------- ---- ---- ---- - lemonade ----- --- --<br>----- ----- ------ -- ---- -- --- - ---- -- - ----- -----<br>------ ---- ------ ---- - -------- ------- -- --- --------<br>-------- ----------- ---- ------ ---- ------ ---- --- ---<br>-------- --- -----,322424.5,322423.2999999523,322071.591,322088.2999999523,322092.402,322467.41,,7,lemonade
screen,html.Screen,2_3_1_0_1_8,2022-04-28T09:56:35.146Z,,,,,,,,,,,,,,,,,40,,,,,,,,,,,,,,551.0900000000256,,response,,,,9,D,,,,,,Space,keypress(Space),,,,speech,,,,------ -- ------- ---- ---- ---- - -------- stand --- --<br>----- ----- ------ -- ---- -- --- - ---- -- - ----- -----<br>------ ---- ------ ---- - -------- ------- -- --- --------<br>-------- ----------- ---- ------ ---- ------ ---- --- ---<br>-------- --- -----,323019.7000000477,323018.5,322446.547,322424.7000000477,322467.41,323030.042,,8,stand
screen,html.Screen,2_3_1_0_1_9,2022-04-28T09:56:35.481Z,,,,,,,,,,,,,,,,,40,,,,,,,,,,,,,,323.558000023826,,response,,,,9,D,,,,,,Space,keypress(Space),,,,speech,,,,------ -- ------- ---- ---- ---- - -------- ----- run --<br>----- ----- ------ -- ---- -- --- - ---- -- - ----- -----<br>------ ---- ------ ---- - -------- ------- -- --- --------<br>-------- ----------- ---- ------ ---- ------ ---- --- ---<br>-------- --- -----,323354.60000002384,323353.60000002384,323009.143,323019.89999997616,323030.042,323363.323,,9,run
screen,html.Screen,2_3_1_0_1_10,2022-04-28T09:56:35.821Z,,,,,,,,,,,,,,,,,40,,,,,,,,,,,,,,330.47699995234143,,response,,,,9,D,,,,,,Space,keypress(Space),,,,speech,,,,------ -- ------- ---- ---- ---- - -------- ----- --- by<br>----- ----- ------ -- ---- -- --- - ---- -- - ----- -----<br>------ ---- ------ ---- - -------- ------- -- --- --------<br>-------- ----------- ---- ------ ---- ------ ---- --- ---<br>-------- --- -----,323694.7999999523,323693.7999999523,323342.444,323354.7999999523,323363.323,323736.3,,10,by
screen,html.Screen,2_3_1_0_1_11,2022-04-28T09:56:36.176Z,,,,,,,,,,,,,,,,,40,,,,,,,,,,,,,,311.70000000001164,,response,,,,9,D,,,,,,Space,keypress(Space),,,,speech,,,,------ -- ------- ---- ---- ---- - -------- ----- --- --<br>three ----- ------ -- ---- -- --- - ---- -- - ----- -----<br>------ ---- ------ ---- - -------- ------- -- --- --------<br>-------- ----------- ---- ------ ---- ------ ---- --- ---<br>-------- --- -----,324049.2999999523,324048,323675.837,323695,323736.3,324092.489,,11,three
screen,html.Screen,2_3_1_0_1_12,2022-04-28T09:56:36.558Z,,,,,,,,,,,,,,,,,40,,,,,,,,,,,,,,338.11100002384046,,response,,,,9,D,,,,,,Space,keypress(Space),,,,speech,,,,------ -- ------- ---- ---- ---- - -------- ----- --- --<br>----- girls ------ -- ---- -- --- - ---- -- - ----- -----<br>------ ---- ------ ---- - -------- ------- -- --- --------<br>-------- ----------- ---- ------ ---- ------ ---- --- ---<br>-------- --- -----,324431.60000002384,324430.60000002384,324076.23,324049.60000002384,324092.489,324446.587,,12,girls
screen,html.Screen,2_3_1_0_1_13,2022-04-28T09:56:37.198Z,,,,,,,,,,,,,,,,,40,,,,,,,,,,,,,,624.3129999761586,,response,,,,9,D,,,,,,Space,keypress(Space),,,,speech,,,,------ -- ------- ---- ---- ---- - -------- ----- --- --<br>----- ----- trying -- ---- -- --- - ---- -- - ----- -----<br>------ ---- ------ ---- - -------- ------- -- --- --------<br>-------- ----------- ---- ------ ---- ------ ---- --- ---<br>-------- --- -----,325072,325070.89999997616,324425.758,324432,324446.587,325092.579,,13,trying
screen,html.Screen,2_3_1_0_1_14,2022-04-28T09:56:37.674Z,,,,,,,,,,,,,,,,,40,,,,,,,,,,,,,,453.52100002381485,,response,,,,9,D,,,,,,Space,keypress(Space),,,,speech,,,,------ -- ------- ---- ---- ---- - -------- ----- --- --<br>----- ----- ------ to ---- -- --- - ---- -- - ----- -----<br>------ ---- ------ ---- - -------- ------- -- --- --------<br>-------- ----------- ---- ------ ---- ------ ---- --- ---<br>-------- --- -----,325547.2000000477,325546.10000002384,325071.601,325072.2000000477,325092.579,325550.774,,14,to
screen,html.Screen,2_3_1_0_1_15,2022-04-28T09:56:38.019Z,,,,,,,,,,,,,,,,,40,,,,,,,,,,,,,,340.3260000238661,,response,,,,9,D,,,,,,Space,keypress(Space),,,,speech,,,,------ -- ------- ---- ---- ---- - -------- ----- --- --<br>----- ----- ------ -- save -- --- - ---- -- - ----- -----<br>------ ---- ------ ---- - -------- ------- -- --- --------<br>-------- ----------- ---- ------ ---- ------ ---- --- ---<br>-------- --- -----,325892.39999997616,325891.10000002384,325530.011,325547.5,325550.774,325904.945,,15,save
screen,html.Screen,2_3_1_0_1_16,2022-04-28T09:56:38.379Z,,,,,,,,,,,,,,,,,40,,,,,,,,,,,,,,346.3549999523093,,response,,,,9,D,,,,,,Space,keypress(Space),,,,speech,,,,------ -- ------- ---- ---- ---- - -------- ----- --- --<br>----- ----- ------ -- ---- up --- - ---- -- - ----- -----<br>------ ---- ------ ---- - -------- ------- -- --- --------<br>-------- ----------- ---- ------ ---- ------ ---- --- ---<br>-------- --- -----,326252.2999999523,326251.2999999523,325884.113,325892.60000002384,325904.945,326259.14,,16,up
screen,html.Screen,2_3_1_0_1_17,2022-04-28T09:56:38.684Z,,,,,,,,,,,,,,,,,40,,,,,,,,,,,,,,297.2599999761442,,response,,,,9,D,,,,,,Space,keypress(Space),,,,speech,,,,------ -- ------- ---- ---- ---- - -------- ----- --- --<br>----- ----- ------ -- ---- -- for - ---- -- - ----- -----<br>------ ---- ------ ---- - -------- ------- -- --- --------<br>-------- ----------- ---- ------ ---- ------ ---- --- ---<br>-------- --- -----,326558,326556.39999997616,326238.267,326252.60000002384,326259.14,326571.752,,17,for
screen,html.Screen,2_3_1_0_1_18,2022-04-28T09:56:38.989Z,,,,,,,,,,,,,,,,,40,,,,,,,,,,,,,,289.7480000000214,,response,,,,9,D,,,,,,Space,keypress(Space),,,,speech,,,,------ -- ------- ---- ---- ---- - -------- ----- --- --<br>----- ----- ------ -- ---- -- --- a ---- -- - ----- -----<br>------ ---- ------ ---- - -------- ------- -- --- --------<br>-------- ----------- ---- ------ ---- ------ ---- --- ---<br>-------- --- -----,326862.5,326861.5,326550.792,326558.2999999523,326571.752,326884.195,,18,a
screen,html.Screen,2_3_1_0_1_19,2022-04-28T09:56:39.259Z,,,,,,,,,,,,,,,,,40,,,,,,,,,,,,,,247.40500002383487,,response,,,,9,D,,,,,,Space,keypress(Space),,,,speech,,,,------ -- ------- ---- ---- ---- - -------- ----- --- --<br>----- ----- ------ -- ---- -- --- - trip -- - ----- -----<br>------ ---- ------ ---- - -------- ------- -- --- --------<br>-------- ----------- ---- ------ ---- ------ ---- --- ---<br>-------- --- -----,327132.60000002384,327131.60000002384,326863.277,326862.7999999523,326884.195,327156.319,,19,trip
screen,html.Screen,2_3_1_0_1_20,2022-04-28T09:56:39.624Z,,,,,,,,,,,,,,,,,40,,,,,,,,,,,,,,340.381000047666,,response,,,,9,D,,,,,,Space,keypress(Space),,,,speech,,,,------ -- ------- ---- ---- ---- - -------- ----- --- --<br>----- ----- ------ -- ---- -- --- - ---- to - ----- -----<br>------ ---- ------ ---- - -------- ------- -- --- --------<br>-------- ----------- ---- ------ ---- ------ ---- --- ---<br>-------- --- -----,327497.89999997616,327496.7000000477,327113.353,327132.7999999523,327156.319,327509.258,,20,to
screen,html.Screen,2_3_1_0_1_21,2022-04-28T09:56:39.915Z,,,,,,,,,,,,,,,,,40,,,,,,,,,,,,,,277.7420000000275,,response,,,,9,D,,,,,,Space,keypress(Space),,,,speech,,,,------ -- ------- ---- ---- ---- - -------- ----- --- --<br>----- ----- ------ -- ---- -- --- - ---- -- a ----- -----<br>------ ---- ------ ---- - -------- ------- -- --- --------<br>-------- ----------- ---- ------ ---- ------ ---- --- ---<br>-------- --- -----,327788.2000000477,327787,327488.282,327498.10000002384,327509.258,327800.918,,21,a
screen,html.Screen,2_3_1_0_1_22,2022-04-28T09:56:40.269Z,,,,,,,,,,,,,,,,,40,,,,,,,,,,,,,,340.981999976153,,response,,,,9,D,,,,,,Space,keypress(Space),,,,speech,,,,------ -- ------- ---- ---- ---- - -------- ----- --- --<br>----- ----- ------ -- ---- -- --- - ---- -- - water -----<br>------ ---- ------ ---- - -------- ------- -- --- --------<br>-------- ----------- ---- ------ ---- ------ ---- --- ---<br>-------- --- -----,328143,328141.89999997616,327780,327788.5,327800.918,328155.017,,22,water
screen,html.Screen,2_3_1_0_1_23,2022-04-28T09:56:40.575Z,,,,,,,,,,,,,,,,,40,,,,,,,,,,,,,,292.18300004769117,,response,,,,9,D,,,,,,Space,keypress(Space),,,,speech,,,,"------ -- ------- ---- ---- ---- - -------- ----- --- --<br>----- ----- ------ -- ---- -- --- - ---- -- - ----- park,<br>------ ---- ------ ---- - -------- ------- -- --- --------<br>-------- ----------- ---- ------ ---- ------ ---- --- ---<br>-------- --- -----",328448.5,328447.2000000477,328134.163,328143.2999999523,328155.017,328467.542,,23,"park,"
screen,html.Screen,2_3_1_0_1_24,2022-04-28T09:56:40.965Z,,,,,,,,,,,,,,,,,40,,,,,,,,,,,,,,369.558000023826,,response,,,,9,D,,,,,,Space,keypress(Space),,,,speech,,,,------ -- ------- ---- ---- ---- - -------- ----- --- --<br>----- ----- ------ -- ---- -- --- - ---- -- - ----- -----<br>saying ---- ------ ---- - -------- ------- -- --- --------<br>-------- ----------- ---- ------ ---- ------ ---- --- ---<br>-------- --- -----,328838.60000002384,328837.10000002384,328446.609,328448.7000000477,328467.542,328842.477,,24,saying
screen,html.Screen,2_3_1_0_1_25,2022-04-28T09:56:41.270Z,,,,,,,,,,,,,,,,,40,,,,,,,,,,,,,,299.8229999523028,,response,,,,9,D,,,,,,Space,keypress(Space),,,,speech,,,,------ -- ------- ---- ---- ---- - -------- ----- --- --<br>----- ----- ------ -- ---- -- --- - ---- -- - ----- -----<br>------ they ------ ---- - -------- ------- -- --- --------<br>-------- ----------- ---- ------ ---- ------ ---- --- ---<br>-------- --- -----,329143.2999999523,329142.2999999523,328821.678,328838.7999999523,328842.477,329155.094,,25,they
screen,html.Screen,2_3_1_0_1_26,2022-04-28T09:56:41.575Z,,,,,,,,,,,,,,,,,40,,,,,,,,,,,,,,292.5060000238591,,response,,,,9,D,,,,,,Space,keypress(Space),,,,speech,,,,------ -- ------- ---- ---- ---- - -------- ----- --- --<br>----- ----- ------ -- ---- -- --- - ---- -- - ----- -----<br>------ ---- didn't ---- - -------- ------- -- --- --------<br>-------- ----------- ---- ------ ---- ------ ---- --- ---<br>-------- --- -----,329449,329447.60000002384,329134.122,329143.5,329155.094,329467.484,,26,didn't
screen,html.Screen,2_3_1_0_1_27,2022-04-28T09:56:41.980Z,,,,,,,,,,,,,,,,,40,,,,,,,,,,,,,,385.1160000238451,,response,,,,9,D,,,,,,Space,keypress(Space),,,,speech,,,,------ -- ------- ---- ---- ---- - -------- ----- --- --<br>----- ----- ------ -- ---- -- --- - ---- -- - ----- -----<br>------ ---- ------ have - -------- ------- -- --- --------<br>-------- ----------- ---- ------ ---- ------ ---- --- ---<br>-------- --- -----,329853.60000002384,329852.60000002384,329446.688,329449.2000000477,329467.484,329863.356,,27,have
screen,html.Screen,2_3_1_0_1_28,2022-04-28T09:56:42.301Z,,,,,,,,,,,,,,,,,40,,,,,,,,,,,,,,309.9439999522874,,response,,,,9,D,,,,,,Space,keypress(Space),,,,speech,,,,------ -- ------- ---- ---- ---- - -------- ----- --- --<br>----- ----- ------ -- ---- -- --- - ---- -- - ----- -----<br>------ ---- ------ ---- a -------- ------- -- --- --------<br>-------- ----------- ---- ------ ---- ------ ---- --- ---<br>-------- --- -----,330174.5,330173.2999999523,329842.508,329853.89999997616,329863.356,330196.646,,28,a
screen,html.Screen,2_3_1_0_1_29,2022-04-28T09:56:42.610Z,,,,,,,,,,,,,,,,,40,,,,,,,,,,,,,,286.15399995230837,,response,,,,9,D,,,,,,Space,keypress(Space),,,,speech,,,,------ -- ------- ---- ---- ---- - -------- ----- --- --<br>----- ----- ------ -- ---- -- --- - ---- -- - ----- -----<br>------ ---- ------ ---- - business ------- -- --- --------<br>-------- ----------- ---- ------ ---- ------ ---- --- ---<br>-------- --- -----,330484,330482.7999999523,330154.984,330174.7000000477,330196.646,330488.317,,29,business
screen,html.Screen,2_3_1_0_1_30,2022-04-28T09:56:43.000Z,,,,,,,,,,,,,,,,,40,,,,,,,,,,,,,,384.6830000000191,,response,,,,9,D,,,,,,Space,keypress(Space),,,,speech,,,,------ -- ------- ---- ---- ---- - -------- ----- --- --<br>----- ----- ------ -- ---- -- --- - ---- -- - ----- -----<br>------ ---- ------ ---- - -------- license -- --- --------<br>-------- ----------- ---- ------ ---- ------ ---- --- ---<br>-------- --- -----,330874.10000002384,330873,330467.462,330484.2000000477,330488.317,330884.195,,30,license
screen,html.Screen,2_3_1_0_1_31,2022-04-28T09:56:43.306Z,,,,,,,,,,,,,,,,,40,,,,,,,,,,,,,,294.1049999523093,,response,,,,9,D,,,,,,Space,keypress(Space),,,,speech,,,,------ -- ------- ---- ---- ---- - -------- ----- --- --<br>----- ----- ------ -- ---- -- --- - ---- -- - ----- -----<br>------ ---- ------ ---- - -------- ------- or --- --------<br>-------- ----------- ---- ------ ---- ------ ---- --- ---<br>-------- --- -----,331179.5,331178.2999999523,330863.358,330874.2999999523,330884.195,331196.768,,31,or
screen,html.Screen,2_3_1_0_1_32,2022-04-28T09:56:43.601Z,,,,,,,,,,,,,,,,,40,,,,,,,,,,,,,,276.53199995233444,,response,,,,9,D,,,,,,Space,keypress(Space),,,,speech,,,,------ -- ------- ---- ---- ---- - -------- ----- --- --<br>----- ----- ------ -- ---- -- --- - ---- -- - ----- -----<br>------ ---- ------ ---- - -------- ------- -- the --------<br>-------- ----------- ---- ------ ---- ------ ---- --- ---<br>-------- --- -----,331474.2999999523,331473.2999999523,331175.81,331179.7999999523,331196.768,331488.348,,32,the
screen,html.Screen,2_3_1_0_1_33,2022-04-28T09:56:43.960Z,,,,,,,,,,,,,,,,,40,,,,,,,,,,,,,,343.7520000238437,,response,,,,9,D,,,,,,Space,keypress(Space),,,,speech,,,,------ -- ------- ---- ---- ---- - -------- ----- --- --<br>----- ----- ------ -- ---- -- --- - ---- -- - ----- -----<br>------ ---- ------ ---- - -------- ------- -- --- required<br>-------- ----------- ---- ------ ---- ------ ---- --- ---<br>-------- --- -----,331833.10000002384,331832.10000002384,331467.511,331474.5,331488.348,331842.519,,33,required
screen,html.Screen,2_3_1_0_1_34,2022-04-28T09:56:44.296Z,,,,,,,,,,,,,,,,,40,,,,,,,,,,,,,,325.98100000002887,,response,,,,9,D,,,,,,Space,keypress(Space),,,,speech,,,,------ -- ------- ---- ---- ---- - -------- ----- --- --<br>----- ----- ------ -- ---- -- --- - ---- -- - ----- -----<br>------ ---- ------ ---- - -------- ------- -- --- --------<br>permits. ----------- ---- ------ ---- ------ ---- --- ---<br>-------- --- -----,332169.7999999523,332168.5,331821.631,331833.39999997616,331842.519,332175.891,,34,permits.
screen,html.Screen,2_3_1_0_1_35,2022-04-28T09:56:44.651Z,,,,,,,,,,,,,,,,,40,,,,,,,,,,,,,,347.7090000238386,,response,,,,9,D,,,,,,Space,keypress(Space),,,,speech,,,,------ -- ------- ---- ---- ---- - -------- ----- --- --<br>----- ----- ------ -- ---- -- --- - ---- -- - ----- -----<br>------ ---- ------ ---- - -------- ------- -- --- --------<br>-------- Morningstar ---- ------ ---- ------ ---- --- ---<br>-------- --- -----,332524.7000000477,332523.60000002384,332154.976,332170,332175.891,332529.991,,35,Morningstar
screen,html.Screen,2_3_1_0_1_36,2022-04-28T09:56:45.407Z,,,,,,,,,,,,,,,,,40,,,,,,,,,,,,,,749.00900000002,,response,,,,9,D,,,,,,Space,keypress(Space),,,,speech,,,,------ -- ------- ---- ---- ---- - -------- ----- --- --<br>----- ----- ------ -- ---- -- --- - ---- -- - ----- -----<br>------ ---- ------ ---- - -------- ------- -- --- --------<br>-------- ----------- says ------ ---- ------ ---- --- ---<br>-------- --- -----,333280.10000002384,333279,332509.136,332525,332529.991,333300.853,,36,says
screen,html.Screen,2_3_1_0_1_37,2022-04-28T09:56:45.692Z,,,,,,,,,,,,,,,,,40,,,,,,,,,,,,,,263.1469999999972,,response,,,,9,D,,,,,,Space,keypress(Space),,,,speech,,,,------ -- ------- ---- ---- ---- - -------- ----- --- --<br>----- ----- ------ -- ---- -- --- - ---- -- - ----- -----<br>------ ---- ------ ---- - -------- ------- -- --- --------<br>-------- ----------- ---- police ---- ------ ---- --- ---<br>-------- --- -----,333565.39999997616,333564,333279.987,333280.60000002384,333300.853,333571.675,,37,police
screen,html.Screen,2_3_1_0_1_38,2022-04-28T09:56:45.987Z,,,,,,,,,,,,,,,,,40,,,,,,,,,,,,,,287.52500004769536,,response,,,,9,D,,,,,,Space,keypress(Space),,,,speech,,,,------ -- ------- ---- ---- ---- - -------- ----- --- --<br>----- ----- ------ -- ---- -- --- - ---- -- - ----- -----<br>------ ---- ------ ---- - -------- ------- -- --- --------<br>-------- ----------- ---- ------ also ------ ---- --- ---<br>-------- --- -----,333860.2999999523,333859.2000000477,333550.797,333565.60000002384,333571.675,333863.34,,38,also
screen,html.Screen,2_3_1_0_1_39,2022-04-28T09:56:46.352Z,,,,,,,,,,,,,,,,,40,,,,,,,,,,,,,,361.05999997613253,,response,,,,9,D,,,,,,Space,keypress(Space),,,,speech,,,,------ -- ------- ---- ---- ---- - -------- ----- --- --<br>----- ----- ------ -- ---- -- --- - ---- -- - ----- -----<br>------ ---- ------ ---- - -------- ------- -- --- --------<br>-------- ----------- ---- ------ ---- didn't ---- --- ---<br>-------- --- -----,334225.5,334224.39999997616,333842.505,333860.60000002384,333863.34,334238.34,,39,didn't
screen,html.Screen,2_3_1_0_1_40,2022-04-28T09:56:46.867Z,,,,,,,,,,,,,,,,,40,,,,,,,,,,,,,,501.1599999999744,,response,,,,9,D,,,,,,Space,keypress(Space),,,,speech,,,,------ -- ------- ---- ---- ---- - -------- ----- --- --<br>----- ----- ------ -- ---- -- --- - ---- -- - ----- -----<br>------ ---- ------ ---- - -------- ------- -- --- --------<br>-------- ----------- ---- ------ ---- ------ know --- ---<br>-------- --- -----,334740.60000002384,334739.5,334217.51,334225.7999999523,334238.34,334759.208,,40,know
screen,html.Screen,2_3_1_0_1_41,2022-04-28T09:56:47.249Z,,,,,,,,,,,,,,,,,40,,,,,,,,,,,,,,362.49200004769955,,response,,,,9,D,,,,,,Space,keypress(Space),,,,speech,,,,------ -- ------- ---- ---- ---- - -------- ----- --- --<br>----- ----- ------ -- ---- -- --- - ---- -- - ----- -----<br>------ ---- ------ ---- - -------- ------- -- --- --------<br>-------- ----------- ---- ------ ---- ------ ---- how ---<br>-------- --- -----,335122.7999999523,335121.7000000477,334738.31,334740.89999997616,334759.208,335134.219,,41,how
screen,html.Screen,2_3_1_0_1_42,2022-04-28T09:56:47.619Z,,,,,,,,,,,,,,,,,40,,,,,,,,,,,,,,357.68099997617537,,response,,,,9,D,,,,,,Space,keypress(Space),,,,speech,,,,------ -- ------- ---- ---- ---- - -------- ----- --- --<br>----- ----- ------ -- ---- -- --- - ---- -- - ----- -----<br>------ ---- ------ ---- - -------- ------- -- --- --------<br>-------- ----------- ---- ------ ---- ------ ---- --- the<br>-------- --- -----,335493,335491.89999997616,335113.299,335122.89999997616,335134.219,335509.263,,42,the
screen,html.Screen,2_3_1_0_1_43,2022-04-28T09:56:48.159Z,,,,,,,,,,,,,,,,,40,,,,,,,,,,,,,,522.4370000477065,,response,,,,9,D,,,,,,Space,keypress(Space),,,,speech,,,,------ -- ------- ---- ---- ---- - -------- ----- --- --<br>----- ----- ------ -- ---- -- --- - ---- -- - ----- -----<br>------ ---- ------ ---- - -------- ------- -- --- --------<br>-------- ----------- ---- ------ ---- ------ ---- --- ---<br>lemonade --- -----,336032.10000002384,336031.7000000477,335488.288,335493.2000000477,335509.263,336050.788,,43,lemonade
screen,html.Screen,2_3_1_0_1_44,2022-04-28T09:56:48.965Z,,,,,,,,,,,,,,,,,40,,,,,,,,,,,,,,786.7119999999995,,response,,,,9,D,,,,,,Space,keypress(Space),,,,speech,,,,------ -- ------- ---- ---- ---- - -------- ----- --- --<br>----- ----- ------ -- ---- -- --- - ---- -- - ----- -----<br>------ ---- ------ ---- - -------- ------- -- --- --------<br>-------- ----------- ---- ------ ---- ------ ---- --- ---<br>-------- was -----,336838.7000000477,336837.5,336029.993,336032.2999999523,336050.788,336842.467,,44,was
screen,html.Screen,2_3_1_0_1_45,2022-04-28T09:56:50.606Z,,,,,,,,,,,,,,,,,40,,,,,,,,,,,,,,1635.832999952312,,response,,,,9,D,,,,,,Space,keypress(Space),,,,speech,,,,------ -- ------- ---- ---- ---- - -------- ----- --- --<br>----- ----- ------ -- ---- -- --- - ---- -- - ----- -----<br>------ ---- ------ ---- - -------- ------- -- --- --------<br>-------- ----------- ---- ------ ---- ------ ---- --- ---<br>-------- --- made.,338479.7000000477,338478.2999999523,336821.634,336839,336842.467,338488.336,,45,made.
Item 9,flow.Loop,2_3_1_0_1,2022-04-28T09:56:50.606Z,,,,,,,,,,,,,,,,,,,,,,,,,,,,,,,20615.09599995229,,completion,,,,,,,,,,,,,,,,,,,,,338480.10000002384,338478.2999999523,317842.486,317843.7000000477,317863.204,338488.336,,,
Question 1,html.Screen,2_3_1_0_2,2022-04-28T09:56:53.672Z,,,,,,,,,,,,,,,,,,,,,,,,,,,,true,FALSE,,3055.063999976148,,response,,,,9,D,,,,,,FALSE,click #choice-2,,,,speech,,,,,341545.10000002384,341543.39999997616,338467.529,338480.2999999523,338488.336,341571.747,,,
Question 2,html.Screen,2_3_1_0_3,2022-04-28T09:57:00.888Z,,,,,,,,,,,,,,,,,,,,,,,,,,,,false,FALSE,,7187.552999952342,,response,,,,9,D,,,,,,TRUE,click #choice-1,,,,speech,,,,,348761.10000002384,348759.2999999523,341550.872,341545.2000000477,341571.747,348780.088,,,
