sender,sender_type,sender_id,timestamp,meta,,Blues,Classical,Country,Dance,Electronic,Folk,Gospel,Hip-Hop,Jazz,Latin,Musical/Film,New-age,Pop,Prolific_id,Provo_ID,R&B,Rap,Reggae,Religious,Rock,Soul,Swing,Traditional,age,artist_name,correct,correctResponse,distraction,duration,education,ended_on,familiarity,gender,headphone_check_performance,item,list,music_frequency,offensiveness,pleasantness,position_correct,preference,response,response_action,snippet_file,song_name,song_rating,sound,stimulus_1,stimulus_2,stimulus_3,text,time_commit,time_end,time_render,time_run,time_show,time_switch,url,word,word_ID
Prolific ID,html.Form,0,2022-05-03T11:21:57.288Z,"{""labjs_version"":""20.2.2"",""labjs_build"":{""flavor"":""production"",""commit"":""a25486e0c714a0ae2ce03ff94b7bb6896854dcfa""},""location"":""https://run.pavlovia.org/mvasilev/prolific3_music_h/"",""userAgent"":""Mozilla/5.0 (Windows NT 10.0; Win64; x64) AppleWebKit/537.36 (KHTML, like Gecko) Chrome/100.0.4896.127 Safari/537.36"",""platform"":""Win32"",""language"":""en-GB"",""locale"":""en-GB"",""timeZone"":""Europe/London"",""timezoneOffset"":-60,""screen_width"":1366,""screen_height"":768,""scroll_width"":1366,""scroll_height"":619,""window_innerWidth"":1366,""window_innerHeight"":667,""devicePixelRatio"":1}",,,,,,,,,,,,,,,5f8eeed471a1830af422d7a1,,,,,,,,,,,,,,,4744.89999996424,,form submission,,,,,,,,,,,,,,,,,,,,,40597.30000001192,40595.09999996424,35733.408,35733.39999997616,35850.2,40649.963,{},,
Introduction,html.Screen,1_0,2022-05-03T11:22:04.128Z,,,,,,,,,,,,,,,,,,,,,,,,,,,,,,,6778.337000011918,,response,,,,,,,,,,,continue,click button,,,,,,,,,47437.5,47428.30000001192,40566.94,40599.39999997616,40649.963,47499.619,,,
Volume calibration,html.Screen,1_1,2022-05-03T11:22:18.090Z,,,,,,,,,,,,,,,,,,,,,,,,,,,,,,,13897.381000000001,,response,,,,,,,,,,,continue,click button,,,,,,,,,61398.80000001192,61397,47416.331,47438.19999998808,47499.619,61436.442,,,
Task instructions,html.Screen,1_2,2022-05-03T11:22:25.455Z,,,,,,,,,,,,,,,,,,,,,,,,,,,,,,,7326.557999999997,,response,,,,,,,,,,,continue,click button,,,,,,,,,68764.5,68763,61382.252,61399,61436.442,68765.264,,,
Sounds,html.Screen,1_3_0_0,2022-05-03T11:22:29.694Z,,,,,,,,,,,,,,,,,,,,,,,,,,,,,,,4266.5030000000115,,timeout,,,,,,,,,1,,,,,,,,S,I,O,,73003.39999997616,72998.452,68748.635,68764.80000001192,68765.264,73031.767,,,
Judgement,html.Screen,1_3_0_1,2022-05-03T11:22:31.260Z,,,,,,,,,,,,,,,,,,,,,,,,,,,,true,1,,1535.5330000119138,,response,,,,,,,,,1,,1,click #choice-1,,,,,S,I,O,,74569.39999997616,74567.30000001192,72998.452,73003.80000001192,73031.767,74581.687,,,
Trial,flow.Sequence,1_3_0,2022-05-03T11:22:31.261Z,,,,,,,,,,,,,,,,,,,,,,,,,,,,,,,5802.036000011925,,completion,,,,,,,,,1,,,,,,,,S,I,O,,74570.19999998808,74567.30000001192,68748.635,68764.80000001192,68765.264,74581.687,,,
Sounds,html.Screen,1_3_1_0,2022-05-03T11:22:35.507Z,,,,,,,,,,,,,,,,,,,,,,,,,,,,,,,4250.009999999995,,timeout,,,,,,,,,3,,,,,,,,O,I,S,,78816.09999996424,78814.79,74564.977,74570.5,74581.687,78831.697,,,
Judgement,html.Screen,1_3_1_1,2022-05-03T11:22:36.512Z,,,,,,,,,,,,,,,,,,,,,,,,,,,,true,3,,986.4029999642371,,response,,,,,,,,,3,,3,click #choice-3,,,,,O,I,S,,79820.80000001192,79818.09999996424,78814.79,78816.39999997616,78831.697,79831.902,,,
Trial,flow.Sequence,1_3_1,2022-05-03T11:22:36.526Z,,,,,,,,,,,,,,,,,,,,,,,,,,,,,,,5236.412999964232,,completion,,,,,,,,,3,,,,,,,,O,I,S,,79835.39999997616,79818.09999996424,74564.977,74570.39999997616,74581.687,79831.902,,,
Sounds,html.Screen,1_3_2_0,2022-05-03T11:22:40.758Z,,,,,,,,,,,,,,,,,,,,,,,,,,,,,,,4249.654999999999,,timeout,,,,,,,,,2,,,,,,,,I,S,O,,84066.80000001192,84064.869,79814.832,79836.39999997616,79831.902,84081.557,,,
Judgement,html.Screen,1_3_2_1,2022-05-03T11:22:41.421Z,,,,,,,,,,,,,,,,,,,,,,,,,,,,true,2,,646.0429999642365,,response,,,,,,,,,2,,2,click #choice-2,,,,,I,S,O,,84730.5,84727.59999996424,84064.869,84067.39999997616,84081.557,84731.301,,,
Trial,flow.Sequence,1_3_2,2022-05-03T11:22:41.423Z,,,,,,,,,,,,,,,,,,,,,,,,,,,,,,,4895.697999964235,,completion,,,,,,,,,2,,,,,,,,I,S,O,,84732.09999996424,84727.59999996424,79814.832,79836.09999996424,79831.902,84731.301,,,
Sounds,html.Screen,1_3_3_0,2022-05-03T11:22:45.657Z,,,,,,,,,,,,,,,,,,,,,,,,,,,,,,,4249.712999999989,,timeout,,,,,,,,,1,,,,,,,,S,O,I,,88966.59999996424,88964.558,84714.559,84733.09999996424,84731.301,88981.014,,,
Judgement,html.Screen,1_3_3_1,2022-05-03T11:22:46.493Z,,,,,,,,,,,,,,,,,,,,,,,,,,,,true,1,,816.9860000000044,,response,,,,,,,,,1,,1,click #choice-1,,,,,S,O,I,,89802.19999998808,89798,88964.558,88967,88981.014,89814.265,,,
Trial,flow.Sequence,1_3_3,2022-05-03T11:22:46.494Z,,,,,,,,,,,,,,,,,,,,,,,,,,,,,,,5066.698999999993,,completion,,,,,,,,,1,,,,,,,,S,O,I,,89803.30000001192,89798,84714.559,84732.80000001192,84731.301,89814.265,,,
Sounds,html.Screen,1_3_4_0,2022-05-03T11:22:50.740Z,,,,,,,,,,,,,,,,,,,,,,,,,,,,,,,4249.889999999999,,timeout,,,,,,,,,3,,,,,,,,I,O,S,,94049.30000001192,94047.478,89797.651,89804.19999998808,89814.265,94064.155,,,
Judgement,html.Screen,1_3_4_1,2022-05-03T11:22:51.371Z,,,,,,,,,,,,,,,,,,,,,,,,,,,,true,3,,613.8450000000012,,response,,,,,,,,,3,,3,click #choice-3,,,,,I,O,S,,94680.59999996424,94678,94047.478,94049.69999998808,94064.155,94716.881,,,
Trial,flow.Sequence,1_3_4,2022-05-03T11:22:51.372Z,,,,,,,,,,,,,,,,,,,,,,,,,,,,,,,4863.735000000001,,completion,,,,,,,,,3,,,,,,,,I,O,S,,94681.39999997616,94678,89797.651,89803.89999997616,89814.265,94716.881,,,
Sounds,html.Screen,1_3_5_0,2022-05-03T11:22:55.640Z,,,,,,,,,,,,,,,,,,,,,,,,,,,,,,,4247.06700000001,,timeout,,,,,,,,,2,,,,,,,,O,S,I,,98949.30000001192,98947.443,94664.008,94682.09999996424,94716.881,98963.948,,,
Judgement,html.Screen,1_3_5_1,2022-05-03T11:22:56.272Z,,,,,,,,,,,,,,,,,,,,,,,,,,,,true,2,,614.1519999642333,,response,,,,,,,,,2,,2,click #choice-2,,,,,O,S,I,,99581.30000001192,99578.09999996424,98947.443,98949.69999998808,98963.948,99630.587,,,
Trial,flow.Sequence,1_3_5,2022-05-03T11:22:56.273Z,,,,,,,,,,,,,,,,,,,,,,,,,,,,,,,4861.218999964243,,completion,,,,,,,,,2,,,,,,,,O,S,I,,99582.09999996424,99578.09999996424,94664.008,94681.89999997616,94716.881,99630.587,,,
Task,flow.Loop,1_3,2022-05-03T11:22:56.291Z,,,,,,,,,,,,,,,,,,,,,,,,,,,,,,,30812.83599996424,,completion,,,1,,,,,,,,,,,,,,,,,,99600.69999998808,99578.09999996424,68748.635,68764.69999998808,68765.264,99630.587,,,
Trap,html.Screen,1_4,2022-05-03T11:22:56.311Z,,,,,,,,,,,,,,,,,,,,,,,,,,,,,,,NaN,,skipped,,,,,,,,,,,,,,,,,,,,,99620,99578.09999996424,,99619.39999997616,,99630.587,,,
Thanks,html.Screen,1_5,2022-05-03T11:23:00.030Z,,,,,,,,,,,,,,,,,,,,,,,,,,,,,,,3706.3129999761586,,response,,,,,,,,,,,continue,click button,,,,,,,,,103339.39999997616,103336.89999997616,99564.013,99620.39999997616,99630.587,110996.557,,,
Headphone screening,flow.Sequence,1,2022-05-03T11:23:00.031Z,,,,,,,,,,,,,,,,,,,,,,,,,,,,,,,62686.936999976155,,completion,,,,,,,,,,,,,,,,,,,,,103339.69999998808,103336.89999997616,40566.94,40599.19999998808,40649.963,110996.557,,,
Instructions,html.Page,2_0,2022-05-03T11:23:33.338Z,,,,,,,,,,,,,,,,,,,,,,,,,,,,,,,25650.342999976157,,form submission,,,,,,,,,,,,,,,,,,,,,136648.19999998808,136646.89999997616,110963.42,111029.09999996424,110996.557,136662.083,,,
Holding screen,html.Screen,2_1_0_0,2022-05-03T11:23:43.337Z,,,,,,,,,,,,,,,,,,,,,,,,,,,,,,,10049.703999999998,,timeout,,,,,,,,,,,,,,,,,,,,,146646.59999996424,146645.114,136628.705,136649,136662.083,146711.787,,,
screen,html.Screen,2_1_0_1_0,2022-05-03T11:23:44.907Z,,,,,,,,,,,,,,,,,53,,,,,,,,,,,,,,1496.0130000119098,,response,,,,99,,,,,,,Space,keypress(Space),,,,,,,,When -- ----- -- ------ - ------- --- ----------<br>------------- ------ ------ ---- ---- ------- ----- -- ----<br>-------- ------- -- ---------- --- - --- ----- ----- ----<br>---- --- --- ----- --- ---- ---- ------- ----- ---- -------<br>--- --- -- ----- -- --- ---- -- --- ---- -- ------ ------<br>--- ----- -- ----,148217.19999998808,148207.80000001192,146645.114,146647.39999997616,146711.787,148228.225,,0,When
screen,html.Screen,2_1_0_1_1,2022-05-03T11:23:45.485Z,,,,,,,,,,,,,,,,,53,,,,,,,,,,,,,,564.3749999642314,,response,,,,99,,,,,,,Space,keypress(Space),,,,,,,,---- it ----- -- ------ - ------- --- ----------<br>------------- ------ ------ ---- ---- ------- ----- -- ----<br>-------- ------- -- ---------- --- - --- ----- ----- ----<br>---- --- --- ----- --- ---- ---- ------- ----- ---- -------<br>--- --- -- ----- -- --- ---- -- --- ---- -- ------ ------<br>--- ----- -- ----,148795.19999998808,148792.59999996424,148211.634,148217.69999998808,148228.225,148811.559,,1,it
screen,html.Screen,2_1_0_1_2,2022-05-03T11:23:46.002Z,,,,,,,,,,,,,,,,,53,,,,,,,,,,,,,,497.9409999999916,,response,,,,99,,,,,,,Space,keypress(Space),,,,,,,,---- -- comes -- ------ - ------- --- ----------<br>------------- ------ ------ ---- ---- ------- ----- -- ----<br>-------- ------- -- ---------- --- - --- ----- ----- ----<br>---- --- --- ----- --- ---- ---- ------- ----- ---- -------<br>--- --- -- ----- -- --- ---- -- --- ---- -- ------ ------<br>--- ----- -- ----,149311.30000001192,149309.5,148795.009,148795.69999998808,148811.559,149328.447,,2,comes
screen,html.Screen,2_1_0_1_3,2022-05-03T11:23:46.420Z,,,,,,,,,,,,,,,,,53,,,,,,,,,,,,,,400.05300000001444,,response,,,,99,,,,,,,Space,keypress(Space),,,,,,,,---- -- ----- to ------ - ------- --- ----------<br>------------- ------ ------ ---- ---- ------- ----- -- ----<br>-------- ------- -- ---------- --- - --- ----- ----- ----<br>---- --- --- ----- --- ---- ---- ------- ----- ---- -------<br>--- --- -- ----- -- --- ---- -- --- ---- -- ------ ------<br>--- ----- -- ----,149730.19999998808,149728.5,149311.461,149311.80000001192,149328.447,149744.854,,3,to
screen,html.Screen,2_1_0_1_4,2022-05-03T11:23:46.773Z,,,,,,,,,,,,,,,,,53,,,,,,,,,,,,,,336.74599996424513,,response,,,,99,,,,,,,Space,keypress(Space),,,,,,,,---- -- ----- -- having - ------- --- ----------<br>------------- ------ ------ ---- ---- ------- ----- -- ----<br>-------- ------- -- ---------- --- - --- ----- ----- ----<br>---- --- --- ----- --- ---- ---- ------- ----- ---- -------<br>--- --- -- ----- -- --- ---- -- --- ---- -- ------ ------<br>--- ----- -- ----,150083.09999996424,150081.59999996424,149728.116,149730.69999998808,149744.854,150094.864,,4,having
screen,html.Screen,2_1_0_1_5,2022-05-03T11:23:47.234Z,,,,,,,,,,,,,,,,,53,,,,,,,,,,,,,,447.53599997615675,,response,,,,99,,,,,,,Space,keypress(Space),,,,,,,,---- -- ----- -- ------ a ------- --- ----------<br>------------- ------ ------ ---- ---- ------- ----- -- ----<br>-------- ------- -- ---------- --- - --- ----- ----- ----<br>---- --- --- ----- --- ---- ---- ------- ----- ---- -------<br>--- --- -- ----- -- --- ---- -- --- ---- -- ------ ------<br>--- ----- -- ----,150543.30000001192,150542.39999997616,150078.356,150083.5,150094.864,150564.631,,5,a
screen,html.Screen,2_1_0_1_6,2022-05-03T11:23:47.629Z,,,,,,,,,,,,,,,,,53,,,,,,,,,,,,,,372.36900000000605,,response,,,,99,,,,,,,Space,keypress(Space),,,,,,,,---- -- ----- -- ------ - lasting --- ----------<br>------------- ------ ------ ---- ---- ------- ----- -- ----<br>-------- ------- -- ---------- --- - --- ----- ----- ----<br>---- --- --- ----- --- ---- ---- ------- ----- ---- -------<br>--- --- -- ----- -- --- ---- -- --- ---- -- ------ ------<br>--- ----- -- ----,150938.69999998808,150937,150528.235,150543.59999996424,150564.631,150944.808,,6,lasting
screen,html.Screen,2_1_0_1_7,2022-05-03T11:23:47.972Z,,,,,,,,,,,,,,,,,53,,,,,,,,,,,,,,334.8919999880891,,response,,,,99,,,,,,,Space,keypress(Space),,,,,,,,---- -- ----- -- ------ - ------- and ----------<br>------------- ------ ------ ---- ---- ------- ----- -- ----<br>-------- ------- -- ---------- --- - --- ----- ----- ----<br>---- --- --- ----- --- ---- ---- ------- ----- ---- -------<br>--- --- -- ----- -- --- ---- -- --- ---- -- ------ ------<br>--- ----- -- ----,151281.5,151279.69999998808,150928.222,150939.19999998808,150944.808,151294.783,,7,and
screen,html.Screen,2_1_0_1_8,2022-05-03T11:23:48.348Z,,,,,,,,,,,,,,,,,53,,,,,,,,,,,,,,361.0170000119251,,response,,,,99,,,,,,,Space,keypress(Space),,,,,,,,---- -- ----- -- ------ - ------- --- fulfilling<br>------------- ------ ------ ---- ---- ------- ----- -- ----<br>-------- ------- -- ---------- --- - --- ----- ----- ----<br>---- --- --- ----- --- ---- ---- ------- ----- ---- -------<br>--- --- -- ----- -- --- ---- -- --- ---- -- ------ ------<br>--- ----- -- ----,151657.80000001192,151655.80000001192,151278.132,151281.89999997616,151294.783,151661.396,,8,fulfilling
screen,html.Screen,2_1_0_1_9,2022-05-03T11:23:48.913Z,,,,,,,,,,,,,,,,,53,,,,,,,,,,,,,,559.6039999999921,,response,,,,99,,,,,,,Space,keypress(Space),,,,,,,,"---- -- ----- -- ------ - ------- --- ----------<br>relationship, ------ ------ ---- ---- ------- ----- -- ----<br>-------- ------- -- ---------- --- - --- ----- ----- ----<br>---- --- --- ----- --- ---- ---- ------- ----- ---- -------<br>--- --- -- ----- -- --- ---- -- --- ---- -- ------ ------<br>--- ----- -- ----",152222.69999998808,152221,151644.87,151658.30000001192,151661.396,152244.626,,9,"relationship,"
screen,html.Screen,2_1_0_1_10,2022-05-03T11:23:49.459Z,,,,,,,,,,,,,,,,,53,,,,,,,,,,,,,,522.6740000119316,,response,,,,99,,,,,,,Space,keypress(Space),,,,,,,,---- -- ----- -- ------ - ------- --- ----------<br>------------- common ------ ---- ---- ------- ----- -- ----<br>-------- ------- -- ---------- --- - --- ----- ----- ----<br>---- --- --- ----- --- ---- ---- ------- ----- ---- -------<br>--- --- -- ----- -- --- ---- -- --- ---- -- ------ ------<br>--- ----- -- ----,152768.89999997616,152767.30000001192,152227.999,152228.09999996424,152244.626,152778.015,,10,common
screen,html.Screen,2_1_0_1_11,2022-05-03T11:23:49.851Z,,,,,,,,,,,,,,,,,53,,,,,,,,,,,,,,380.8849999761442,,response,,,,99,,,,,,,Space,keypress(Space),,,,,,,,---- -- ----- -- ------ - ------- --- ----------<br>------------- ------ wisdom ---- ---- ------- ----- -- ----<br>-------- ------- -- ---------- --- - --- ----- ----- ----<br>---- --- --- ----- --- ---- ---- ------- ----- ---- -------<br>--- --- -- ----- -- --- ---- -- --- ---- -- ------ ------<br>--- ----- -- ----,153160.80000001192,153158.89999997616,152761.27,152769.39999997616,152778.015,153178.145,,11,wisdom
screen,html.Screen,2_1_0_1_12,2022-05-03T11:23:50.565Z,,,,,,,,,,,,,,,,,53,,,,,,,,,,,,,,694.5549999880895,,response,,,,99,,,,,,,Space,keypress(Space),,,,,,,,---- -- ----- -- ------ - ------- --- ----------<br>------------- ------ ------ says ---- ------- ----- -- ----<br>-------- ------- -- ---------- --- - --- ----- ----- ----<br>---- --- --- ----- --- ---- ---- ------- ----- ---- -------<br>--- --- -- ----- -- --- ---- -- --- ---- -- ------ ------<br>--- ----- -- ----,153874.39999997616,153872.69999998808,153161.361,153161.19999998808,153178.145,153878.013,,12,says
screen,html.Screen,2_1_0_1_13,2022-05-03T11:23:51.200Z,,,,,,,,,,,,,,,,,53,,,,,,,,,,,,,,630.7870000119146,,response,,,,99,,,,,,,Space,keypress(Space),,,,,,,,---- -- ----- -- ------ - ------- --- ----------<br>------------- ------ ------ ---- that ------- ----- -- ----<br>-------- ------- -- ---------- --- - --- ----- ----- ----<br>---- --- --- ----- --- ---- ---- ------- ----- ---- -------<br>--- --- -- ----- -- --- ---- -- --- ---- -- ------ ------<br>--- ----- -- ----,154509.80000001192,154508.80000001192,153861.404,153874.80000001192,153878.013,154539.13,,13,that
screen,html.Screen,2_1_0_1_14,2022-05-03T11:23:51.623Z,,,,,,,,,,,,,,,,,53,,,,,,,,,,,,,,391.96999996423256,,response,,,,99,,,,,,,Space,keypress(Space),,,,,,,,---- -- ----- -- ------ - ------- --- ----------<br>------------- ------ ------ ---- ---- feeling ----- -- ----<br>-------- ------- -- ---------- --- - --- ----- ----- ----<br>---- --- --- ----- --- ---- ---- ------- ----- ---- -------<br>--- --- -- ----- -- --- ---- -- --- ---- -- ------ ------<br>--- ----- -- ----,154932.69999998808,154931.09999996424,154494.592,154510,154539.13,154944.611,,14,feeling
screen,html.Screen,2_1_0_1_15,2022-05-03T11:23:52.001Z,,,,,,,,,,,,,,,,,53,,,,,,,,,,,,,,364.1890000119165,,response,,,,99,,,,,,,Space,keypress(Space),,,,,,,,---- -- ----- -- ------ - ------- --- ----------<br>------------- ------ ------ ---- ---- ------- close -- ----<br>-------- ------- -- ---------- --- - --- ----- ----- ----<br>---- --- --- ----- --- ---- ---- ------- ----- ---- -------<br>--- --- -- ----- -- --- ---- -- --- ---- -- ------ ------<br>--- ----- -- ----,155310.59999996424,155308.80000001192,154927.942,154933.09999996424,154944.611,155328.161,,15,close
screen,html.Screen,2_1_0_1_16,2022-05-03T11:23:52.412Z,,,,,,,,,,,,,,,,,53,,,,,,,,,,,,,,391.63900001192815,,response,,,,99,,,,,,,Space,keypress(Space),,,,,,,,---- -- ----- -- ------ - ------- --- ----------<br>------------- ------ ------ ---- ---- ------- ----- to ----<br>-------- ------- -- ---------- --- - --- ----- ----- ----<br>---- --- --- ----- --- ---- ---- ------- ----- ---- -------<br>--- --- -- ----- -- --- ---- -- --- ---- -- ------ ------<br>--- ----- -- ----,155721.5,155719.80000001192,155311.369,155311,155328.161,155727.924,,16,to
screen,html.Screen,2_1_0_1_17,2022-05-03T11:23:52.861Z,,,,,,,,,,,,,,,,,53,,,,,,,,,,,,,,440.87600001192186,,response,,,,99,,,,,,,Space,keypress(Space),,,,,,,,---- -- ----- -- ------ - ------- --- ----------<br>------------- ------ ------ ---- ---- ------- ----- -- your<br>-------- ------- -- ---------- --- - --- ----- ----- ----<br>---- --- --- ----- --- ---- ---- ------- ----- ---- -------<br>--- --- -- ----- -- --- ---- -- --- ---- -- ------ ------<br>--- ----- -- ----,156170.59999996424,156168.80000001192,155711.272,155721.80000001192,155727.924,156177.824,,17,your
screen,html.Screen,2_1_0_1_18,2022-05-03T11:23:53.320Z,,,,,,,,,,,,,,,,,53,,,,,,,,,,,,,,449.77599996424397,,response,,,,99,,,,,,,Space,keypress(Space),,,,,,,,---- -- ----- -- ------ - ------- --- ----------<br>------------- ------ ------ ---- ---- ------- ----- -- ----<br>romantic ------- -- ---------- --- - --- ----- ----- ----<br>---- --- --- ----- --- ---- ---- ------- ----- ---- -------<br>--- --- -- ----- -- --- ---- -- --- ---- -- ------ ------<br>--- ----- -- ----,156629.30000001192,156627.59999996424,156161.099,156171.09999996424,156177.824,156644.535,,18,romantic
screen,html.Screen,2_1_0_1_19,2022-05-03T11:23:53.702Z,,,,,,,,,,,,,,,,,53,,,,,,,,,,,,,,365.36499997615465,,response,,,,99,,,,,,,Space,keypress(Space),,,,,,,,---- -- ----- -- ------ - ------- --- ----------<br>------------- ------ ------ ---- ---- ------- ----- -- ----<br>-------- partner -- ---------- --- - --- ----- ----- ----<br>---- --- --- ----- --- ---- ---- ------- ----- ---- -------<br>--- --- -- ----- -- --- ---- -- --- ---- -- ------ ------<br>--- ----- -- ----,157011.69999998808,157009.89999997616,156627.816,156629.80000001192,156644.535,157028.072,,19,partner
screen,html.Screen,2_1_0_1_20,2022-05-03T11:23:54.079Z,,,,,,,,,,,,,,,,,53,,,,,,,,,,,,,,359.1279999880935,,response,,,,99,,,,,,,Space,keypress(Space),,,,,,,,---- -- ----- -- ------ - ------- --- ----------<br>------------- ------ ------ ---- ---- ------- ----- -- ----<br>-------- ------- is ---------- --- - --- ----- ----- ----<br>---- --- --- ----- --- ---- ---- ------- ----- ---- -------<br>--- --- -- ----- -- --- ---- -- --- ---- -- ------ ------<br>--- ----- -- ----,157389.09999996424,157387.19999998808,157011.244,157012.19999998808,157028.072,157394.425,,20,is
screen,html.Screen,2_1_0_1_21,2022-05-03T11:23:54.463Z,,,,,,,,,,,,,,,,,53,,,,,,,,,,,,,,376.4749999761698,,response,,,,99,,,,,,,Space,keypress(Space),,,,,,,,---- -- ----- -- ------ - ------- --- ----------<br>------------- ------ ------ ---- ---- ------- ----- -- ----<br>-------- ------- -- paramount. --- - --- ----- ----- ----<br>---- --- --- ----- --- ---- ---- ------- ----- ---- -------<br>--- --- -- ----- -- --- ---- -- --- ---- -- ------ ------<br>--- ----- -- ----,157772.5,157770.89999997616,157377.919,157389.59999996424,157394.425,157777.813,,21,paramount.
screen,html.Screen,2_1_0_1_22,2022-05-03T11:23:54.953Z,,,,,,,,,,,,,,,,,53,,,,,,,,,,,,,,483.18700000000536,,response,,,,99,,,,,,,Space,keypress(Space),,,,,,,,---- -- ----- -- ------ - ------- --- ----------<br>------------- ------ ------ ---- ---- ------- ----- -- ----<br>-------- ------- -- ---------- But - --- ----- ----- ----<br>---- --- --- ----- --- ---- ---- ------- ----- ---- -------<br>--- --- -- ----- -- --- ---- -- --- ---- -- ------ ------<br>--- ----- -- ----,158262.59999996424,158261,157761.063,157772.89999997616,157777.813,158277.762,,22,But
screen,html.Screen,2_1_0_1_23,2022-05-03T11:23:55.342Z,,,,,,,,,,,,,,,,,53,,,,,,,,,,,,,,371.8379999642493,,response,,,,99,,,,,,,Space,keypress(Space),,,,,,,,---- -- ----- -- ------ - ------- --- ----------<br>------------- ------ ------ ---- ---- ------- ----- -- ----<br>-------- ------- -- ---------- --- a --- ----- ----- ----<br>---- --- --- ----- --- ---- ---- ------- ----- ---- -------<br>--- --- -- ----- -- --- ---- -- --- ---- -- ------ ------<br>--- ----- -- ----,158651.5,158649.59999996424,158261.166,158263.09999996424,158277.762,158660.984,,23,a
screen,html.Screen,2_1_0_1_24,2022-05-03T11:23:55.725Z,,,,,,,,,,,,,,,,,53,,,,,,,,,,,,,,371.6159999642405,,response,,,,99,,,,,,,Space,keypress(Space),,,,,,,,---- -- ----- -- ------ - ------- --- ----------<br>------------- ------ ------ ---- ---- ------- ----- -- ----<br>-------- ------- -- ---------- --- - new ----- ----- ----<br>---- --- --- ----- --- ---- ---- ------- ----- ---- -------<br>--- --- -- ----- -- --- ---- -- --- ---- -- ------ ------<br>--- ----- -- ----,159034.30000001192,159032.59999996424,158644.542,158652,158660.984,159044.363,,24,new
screen,html.Screen,2_1_0_1_25,2022-05-03T11:23:56.090Z,,,,,,,,,,,,,,,,,53,,,,,,,,,,,,,,353.2369999642251,,response,,,,99,,,,,,,Space,keypress(Space),,,,,,,,---- -- ----- -- ------ - ------- --- ----------<br>------------- ------ ------ ---- ---- ------- ----- -- ----<br>-------- ------- -- ---------- --- - --- study ----- ----<br>---- --- --- ----- --- ---- ---- ------- ----- ---- -------<br>--- --- -- ----- -- --- ---- -- --- ---- -- ------ ------<br>--- ----- -- ----,159399.19999998808,159397.59999996424,159027.73,159034.69999998808,159044.363,159411.068,,25,study
screen,html.Screen,2_1_0_1_26,2022-05-03T11:23:56.504Z,,,,,,,,,,,,,,,,,53,,,,,,,,,,,,,,400.9320000000007,,response,,,,99,,,,,,,Space,keypress(Space),,,,,,,,---- -- ----- -- ------ - ------- --- ----------<br>------------- ------ ------ ---- ---- ------- ----- -- ----<br>-------- ------- -- ---------- --- - --- ----- finds ----<br>---- --- --- ----- --- ---- ---- ------- ----- ---- -------<br>--- --- -- ----- -- --- ---- -- --- ---- -- ------ ------<br>--- ----- -- ----,159813.69999998808,159812,159394.49,159399.89999997616,159411.068,159827.623,,26,finds
screen,html.Screen,2_1_0_1_27,2022-05-03T11:23:56.834Z,,,,,,,,,,,,,,,,,53,,,,,,,,,,,,,,314.4769999642449,,response,,,,99,,,,,,,Space,keypress(Space),,,,,,,,---- -- ----- -- ------ - ------- --- ----------<br>------------- ------ ------ ---- ---- ------- ----- -- ----<br>-------- ------- -- ---------- --- - --- ----- ----- that<br>---- --- --- ----- --- ---- ---- ------- ----- ---- -------<br>--- --- -- ----- -- --- ---- -- --- ---- -- ------ ------<br>--- ----- -- ----,160143.69999998808,160142.09999996424,159811.097,159814.30000001192,159827.623,160161.26,,27,that
screen,html.Screen,2_1_0_1_28,2022-05-03T11:23:57.172Z,,,,,,,,,,,,,,,,,53,,,,,,,,,,,,,,318.5400000119116,,response,,,,99,,,,,,,Space,keypress(Space),,,,,,,,---- -- ----- -- ------ - ------- --- ----------<br>------------- ------ ------ ---- ---- ------- ----- -- ----<br>-------- ------- -- ---------- --- - --- ----- ----- ----<br>it's --- --- ----- --- ---- ---- ------- ----- ---- -------<br>--- --- -- ----- -- --- ---- -- --- ---- -- ------ ------<br>--- ----- -- ----,160481.19999998808,160479.80000001192,160144.317,160144.09999996424,160161.26,160494.252,,28,it's
screen,html.Screen,2_1_0_1_29,2022-05-03T11:23:57.505Z,,,,,,,,,,,,,,,,,53,,,,,,,,,,,,,,318.54800001191325,,response,,,,99,,,,,,,Space,keypress(Space),,,,,,,,---- -- ----- -- ------ - ------- --- ----------<br>------------- ------ ------ ---- ---- ------- ----- -- ----<br>-------- ------- -- ---------- --- - --- ----- ----- ----<br>---- not --- ----- --- ---- ---- ------- ----- ---- -------<br>--- --- -- ----- -- --- ---- -- --- ---- -- ------ ------<br>--- ----- -- ----,160814.59999996424,160812.80000001192,160477.691,160481.5,160494.252,160827.851,,29,not
screen,html.Screen,2_1_0_1_30,2022-05-03T11:23:57.760Z,,,,,,,,,,,,,,,,,53,,,,,,,,,,,,,,240.04899997616303,,response,,,,99,,,,,,,Space,keypress(Space),,,,,,,,---- -- ----- -- ------ - ------- --- ----------<br>------------- ------ ------ ---- ---- ------- ----- -- ----<br>-------- ------- -- ---------- --- - --- ----- ----- ----<br>---- --- how ----- --- ---- ---- ------- ----- ---- -------<br>--- --- -- ----- -- --- ---- -- --- ---- -- ------ ------<br>--- ----- -- ----,161069.5,161067.89999997616,160810.938,160815,160827.851,161077.619,,30,how
screen,html.Screen,2_1_0_1_31,2022-05-03T11:23:58.227Z,,,,,,,,,,,,,,,,,53,,,,,,,,,,,,,,457.38099999999395,,response,,,,99,,,,,,,Space,keypress(Space),,,,,,,,---- -- ----- -- ------ - ------- --- ----------<br>------------- ------ ------ ---- ---- ------- ----- -- ----<br>-------- ------- -- ---------- --- - --- ----- ----- ----<br>---- --- --- close --- ---- ---- ------- ----- ---- -------<br>--- --- -- ----- -- --- ---- -- --- ---- -- ------ ------<br>--- ----- -- ----,161536.5,161535,161061.078,161069.89999997616,161077.619,161544.269,,31,close
screen,html.Screen,2_1_0_1_32,2022-05-03T11:23:58.669Z,,,,,,,,,,,,,,,,,53,,,,,,,,,,,,,,432.830999964237,,response,,,,99,,,,,,,Space,keypress(Space),,,,,,,,---- -- ----- -- ------ - ------- --- ----------<br>------------- ------ ------ ---- ---- ------- ----- -- ----<br>-------- ------- -- ---------- --- - --- ----- ----- ----<br>---- --- --- ----- you ---- ---- ------- ----- ---- -------<br>--- --- -- ----- -- --- ---- -- --- ---- -- ------ ------<br>--- ----- -- ----,161978.89999997616,161977.09999996424,161527.773,161536.89999997616,161544.269,161994.325,,32,you
screen,html.Screen,2_1_0_1_33,2022-05-03T11:23:59.171Z,,,,,,,,,,,,,,,,,53,,,,,,,,,,,,,,484.4750000119093,,response,,,,99,,,,,,,Space,keypress(Space),,,,,,,,---- -- ----- -- ------ - ------- --- ----------<br>------------- ------ ------ ---- ---- ------- ----- -- ----<br>-------- ------- -- ---------- --- - --- ----- ----- ----<br>---- --- --- ----- --- feel ---- ------- ----- ---- -------<br>--- --- -- ----- -- --- ---- -- --- ---- -- ------ ------<br>--- ----- -- ----,162480.89999997616,162478.80000001192,161977.57,161979.39999997616,161994.325,162494.229,,33,feel
screen,html.Screen,2_1_0_1_34,2022-05-03T11:23:59.471Z,,,,,,,,,,,,,,,,,53,,,,,,,,,,,,,,284.7710000000079,,response,,,,99,,,,,,,Space,keypress(Space),,,,,,,,---- -- ----- -- ------ - ------- --- ----------<br>------------- ------ ------ ---- ---- ------- ----- -- ----<br>-------- ------- -- ---------- --- - --- ----- ----- ----<br>---- --- --- ----- --- ---- that ------- ----- ---- -------<br>--- --- -- ----- -- --- ---- -- --- ---- -- ------ ------<br>--- ----- -- ----,162780.80000001192,162779,162477.673,162481.59999996424,162494.229,162794.275,,34,that
screen,html.Screen,2_1_0_1_35,2022-05-03T11:23:59.869Z,,,,,,,,,,,,,,,,,53,,,,,,,,,,,,,,383.12499997616396,,response,,,,99,,,,,,,Space,keypress(Space),,,,,,,,---- -- ----- -- ------ - ------- --- ----------<br>------------- ------ ------ ---- ---- ------- ----- -- ----<br>-------- ------- -- ---------- --- - --- ----- ----- ----<br>---- --- --- ----- --- ---- ---- matters ----- ---- -------<br>--- --- -- ----- -- --- ---- -- --- ---- -- ------ ------<br>--- ----- -- ----,163179,163177.39999997616,162777.518,162781.39999997616,162794.275,163194.252,,35,matters
screen,html.Screen,2_1_0_1_36,2022-05-03T11:24:00.112Z,,,,,,,,,,,,,,,,,53,,,,,,,,,,,,,,225.14799997615046,,response,,,,99,,,,,,,Space,keypress(Space),,,,,,,,"---- -- ----- -- ------ - ------- --- ----------<br>------------- ------ ------ ---- ---- ------- ----- -- ----<br>-------- ------- -- ---------- --- - --- ----- ----- ----<br>---- --- --- ----- --- ---- ---- ------- most, ---- -------<br>--- --- -- ----- -- --- ---- -- --- ---- -- ------ ------<br>--- ----- -- ----",163421.19999998808,163419.39999997616,163177.483,163179.59999996424,163194.252,163427.426,,36,"most,"
screen,html.Screen,2_1_0_1_37,2022-05-03T11:24:00.376Z,,,,,,,,,,,,,,,,,53,,,,,,,,,,,,,,255.87400001191418,,response,,,,99,,,,,,,Space,keypress(Space),,,,,,,,---- -- ----- -- ------ - ------- --- ----------<br>------------- ------ ------ ---- ---- ------- ----- -- ----<br>-------- ------- -- ---------- --- - --- ----- ----- ----<br>---- --- --- ----- --- ---- ---- ------- ----- it's -------<br>--- --- -- ----- -- --- ---- -- --- ---- -- ------ ------<br>--- ----- -- ----,163685.30000001192,163683.30000001192,163410.778,163421.80000001192,163427.426,163694.077,,37,it's
screen,html.Screen,2_1_0_1_38,2022-05-03T11:24:00.662Z,,,,,,,,,,,,,,,,,53,,,,,,,,,,,,,,276.022999964247,,response,,,,99,,,,,,,Space,keypress(Space),,,,,,,,---- -- ----- -- ------ - ------- --- ----------<br>------------- ------ ------ ---- ---- ------- ----- -- ----<br>-------- ------- -- ---------- --- - --- ----- ----- ----<br>---- --- --- ----- --- ---- ---- ------- ----- ---- whether<br>--- --- -- ----- -- --- ---- -- --- ---- -- ------ ------<br>--- ----- -- ----,163971.69999998808,163970.09999996424,163677.361,163685.69999998808,163694.077,163977.499,,38,whether
screen,html.Screen,2_1_0_1_39,2022-05-03T11:24:00.967Z,,,,,,,,,,,,,,,,,53,,,,,,,,,,,,,,297.70099998806836,,response,,,,99,,,,,,,Space,keypress(Space),,,,,,,,---- -- ----- -- ------ - ------- --- ----------<br>------------- ------ ------ ---- ---- ------- ----- -- ----<br>-------- ------- -- ---------- --- - --- ----- ----- ----<br>---- --- --- ----- --- ---- ---- ------- ----- ---- -------<br>you --- -- ----- -- --- ---- -- --- ---- -- ------ ------<br>--- ----- -- ----,164276.80000001192,164275.19999998808,163960.893,163972,163977.499,164294.388,,39,you
screen,html.Screen,2_1_0_1_40,2022-05-03T11:24:01.312Z,,,,,,,,,,,,,,,,,53,,,,,,,,,,,,,,325.7119999642309,,response,,,,99,,,,,,,Space,keypress(Space),,,,,,,,---- -- ----- -- ------ - ------- --- ----------<br>------------- ------ ------ ---- ---- ------- ----- -- ----<br>-------- ------- -- ---------- --- - --- ----- ----- ----<br>---- --- --- ----- --- ---- ---- ------- ----- ---- -------<br>--- are -- ----- -- --- ---- -- --- ---- -- ------ ------<br>--- ----- -- ----,164621.69999998808,164620.09999996424,164277.598,164277.19999998808,164294.388,164627.421,,40,are
screen,html.Screen,2_1_0_1_41,2022-05-03T11:24:01.571Z,,,,,,,,,,,,,,,,,53,,,,,,,,,,,,,,251.5789999999979,,response,,,,99,,,,,,,Space,keypress(Space),,,,,,,,---- -- ----- -- ------ - ------- --- ----------<br>------------- ------ ------ ---- ---- ------- ----- -- ----<br>-------- ------- -- ---------- --- - --- ----- ----- ----<br>---- --- --- ----- --- ---- ---- ------- ----- ---- -------<br>--- --- as ----- -- --- ---- -- --- ---- -- ------ ------<br>--- ----- -- ----,164880.59999996424,164879,164610.94,164622.09999996424,164627.421,164894.139,,41,as
screen,html.Screen,2_1_0_1_42,2022-05-03T11:24:01.805Z,,,,,,,,,,,,,,,,,53,,,,,,,,,,,,,,219.26099997616257,,response,,,,99,,,,,,,Space,keypress(Space),,,,,,,,---- -- ----- -- ------ - ------- --- ----------<br>------------- ------ ------ ---- ---- ------- ----- -- ----<br>-------- ------- -- ---------- --- - --- ----- ----- ----<br>---- --- --- ----- --- ---- ---- ------- ----- ---- -------<br>--- --- -- close -- --- ---- -- --- ---- -- ------ ------<br>--- ----- -- ----,165114.89999997616,165113.39999997616,164877.479,164881,164894.139,165127.435,,42,close
screen,html.Screen,2_1_0_1_43,2022-05-03T11:24:02.234Z,,,,,,,,,,,,,,,,,53,,,,,,,,,,,,,,414.96499997616047,,response,,,,99,,,,,,,Space,keypress(Space),,,,,,,,---- -- ----- -- ------ - ------- --- ----------<br>------------- ------ ------ ---- ---- ------- ----- -- ----<br>-------- ------- -- ---------- --- - --- ----- ----- ----<br>---- --- --- ----- --- ---- ---- ------- ----- ---- -------<br>--- --- -- ----- as --- ---- -- --- ---- -- ------ ------<br>--- ----- -- ----,165543.5,165542.39999997616,165110.892,165115.30000001192,165127.435,165560.998,,43,as
screen,html.Screen,2_1_0_1_44,2022-05-03T11:24:02.601Z,,,,,,,,,,,,,,,,,53,,,,,,,,,,,,,,348.20199998808675,,response,,,,99,,,,,,,Space,keypress(Space),,,,,,,,---- -- ----- -- ------ - ------- --- ----------<br>------------- ------ ------ ---- ---- ------- ----- -- ----<br>-------- ------- -- ---------- --- - --- ----- ----- ----<br>---- --- --- ----- --- ---- ---- ------- ----- ---- -------<br>--- --- -- ----- -- you ---- -- --- ---- -- ------ ------<br>--- ----- -- ----,165911,165909.19999998808,165544.19,165543.69999998808,165560.998,165927.648,,44,you
screen,html.Screen,2_1_0_1_45,2022-05-03T11:24:02.889Z,,,,,,,,,,,,,,,,,53,,,,,,,,,,,,,,269.15200001193443,,response,,,,99,,,,,,,Space,keypress(Space),,,,,,,,---- -- ----- -- ------ - ------- --- ----------<br>------------- ------ ------ ---- ---- ------- ----- -- ----<br>-------- ------- -- ---------- --- - --- ----- ----- ----<br>---- --- --- ----- --- ---- ---- ------- ----- ---- -------<br>--- --- -- ----- -- --- want -- --- ---- -- ------ ------<br>--- ----- -- ----,166198.39999997616,166196.80000001192,165910.84,165911.5,165927.648,166210.698,,45,want
screen,html.Screen,2_1_0_1_46,2022-05-03T11:24:03.251Z,,,,,,,,,,,,,,,,,53,,,,,,,,,,,,,,348.10200001191697,,response,,,,99,,,,,,,Space,keypress(Space),,,,,,,,---- -- ----- -- ------ - ------- --- ----------<br>------------- ------ ------ ---- ---- ------- ----- -- ----<br>-------- ------- -- ---------- --- - --- ----- ----- ----<br>---- --- --- ----- --- ---- ---- ------- ----- ---- -------<br>--- --- -- ----- -- --- ---- to --- ---- -- ------ ------<br>--- ----- -- ----,166560.5,166558.80000001192,166194.169,166199,166210.698,166577.604,,46,to
screen,html.Screen,2_1_0_1_47,2022-05-03T11:24:03.541Z,,,,,,,,,,,,,,,,,53,,,,,,,,,,,,,,271.8960000000079,,response,,,,99,,,,,,,Space,keypress(Space),,,,,,,,"---- -- ----- -- ------ - ------- --- ----------<br>------------- ------ ------ ---- ---- ------- ----- -- ----<br>-------- ------- -- ---------- --- - --- ----- ----- ----<br>---- --- --- ----- --- ---- ---- ------- ----- ---- -------<br>--- --- -- ----- -- --- ---- -- be, ---- -- ------ ------<br>--- ----- -- ----",166851,166849.5,166560.835,166560.89999997616,166577.604,166860.736,,47,"be,"
screen,html.Screen,2_1_0_1_48,2022-05-03T11:24:03.946Z,,,,,,,,,,,,,,,,,53,,,,,,,,,,,,,,393.46399998807465,,response,,,,99,,,,,,,Space,keypress(Space),,,,,,,,---- -- ----- -- ------ - ------- --- ----------<br>------------- ------ ------ ---- ---- ------- ----- -- ----<br>-------- ------- -- ---------- --- - --- ----- ----- ----<br>---- --- --- ----- --- ---- ---- ------- ----- ---- -------<br>--- --- -- ----- -- --- ---- -- --- even -- ------ ------<br>--- ----- -- ----,167255.89999997616,167254.19999998808,166844.058,166851.5,166860.736,167260.724,,48,even
screen,html.Screen,2_1_0_1_49,2022-05-03T11:24:04.281Z,,,,,,,,,,,,,,,,,53,,,,,,,,,,,,,,328.1759999761707,,response,,,,99,,,,,,,Space,keypress(Space),,,,,,,,---- -- ----- -- ------ - ------- --- ----------<br>------------- ------ ------ ---- ---- ------- ----- -- ----<br>-------- ------- -- ---------- --- - --- ----- ----- ----<br>---- --- --- ----- --- ---- ---- ------- ----- ---- -------<br>--- --- -- ----- -- --- ---- -- --- ---- if ------ ------<br>--- ----- -- ----,167590.59999996424,167588.89999997616,167244.133,167256.30000001192,167260.724,167593.934,,49,if
screen,html.Screen,2_1_0_1_50,2022-05-03T11:24:04.582Z,,,,,,,,,,,,,,,,,53,,,,,,,,,,,,,,296.46599997614976,,response,,,,99,,,,,,,Space,keypress(Space),,,,,,,,---- -- ----- -- ------ - ------- --- ----------<br>------------- ------ ------ ---- ---- ------- ----- -- ----<br>-------- ------- -- ---------- --- - --- ----- ----- ----<br>---- --- --- ----- --- ---- ---- ------- ----- ---- -------<br>--- --- -- ----- -- --- ---- -- --- ---- -- that's ------<br>--- ----- -- ----,167891.5,167890.39999997616,167577.438,167591.09999996424,167593.934,167893.852,,50,that's
screen,html.Screen,2_1_0_1_51,2022-05-03T11:24:04.947Z,,,,,,,,,,,,,,,,,53,,,,,,,,,,,,,,361.34799998806557,,response,,,,99,,,,,,,Space,keypress(Space),,,,,,,,---- -- ----- -- ------ - ------- --- ----------<br>------------- ------ ------ ---- ---- ------- ----- -- ----<br>-------- ------- -- ---------- --- - --- ----- ----- ----<br>---- --- --- ----- --- ---- ---- ------- ----- ---- -------<br>--- --- -- ----- -- --- ---- -- --- ---- -- ------ really<br>--- ----- -- ----,168257.09999996424,168255.19999998808,167877.255,167891.59999996424,167893.852,168260.574,,51,really
screen,html.Screen,2_1_0_1_52,2022-05-03T11:24:05.326Z,,,,,,,,,,,,,,,,,53,,,,,,,,,,,,,,373.02599996424397,,response,,,,99,,,,,,,Space,keypress(Space),,,,,,,,---- -- ----- -- ------ - ------- --- ----------<br>------------- ------ ------ ---- ---- ------- ----- -- ----<br>-------- ------- -- ---------- --- - --- ----- ----- ----<br>---- --- --- ----- --- ---- ---- ------- ----- ---- -------<br>--- --- -- ----- -- --- ---- -- --- ---- -- ------ ------<br>not ----- -- ----,168635.30000001192,168633.59999996424,168243.847,168257.5,168260.574,168643.934,,52,not
screen,html.Screen,2_1_0_1_53,2022-05-03T11:24:05.639Z,,,,,,,,,,,,,,,,,53,,,,,,,,,,,,,,303.36600001191255,,response,,,,99,,,,,,,Space,keypress(Space),,,,,,,,---- -- ----- -- ------ - ------- --- ----------<br>------------- ------ ------ ---- ---- ------- ----- -- ----<br>-------- ------- -- ---------- --- - --- ----- ----- ----<br>---- --- --- ----- --- ---- ---- ------- ----- ---- -------<br>--- --- -- ----- -- --- ---- -- --- ---- -- ------ ------<br>--- close -- ----,168949,168947.30000001192,168627.249,168635.69999998808,168643.934,168960.583,,53,close
screen,html.Screen,2_1_0_1_54,2022-05-03T11:24:06.002Z,,,,,,,,,,,,,,,,,53,,,,,,,,,,,,,,349.21700001190766,,response,,,,99,,,,,,,Space,keypress(Space),,,,,,,,---- -- ----- -- ------ - ------- --- ----------<br>------------- ------ ------ ---- ---- ------- ----- -- ----<br>-------- ------- -- ---------- --- - --- ----- ----- ----<br>---- --- --- ----- --- ---- ---- ------- ----- ---- -------<br>--- --- -- ----- -- --- ---- -- --- ---- -- ------ ------<br>--- ----- at ----,169311.39999997616,169309.80000001192,168944.054,168949.5,168960.583,169327.329,,54,at
screen,html.Screen,2_1_0_1_55,2022-05-03T11:24:06.444Z,,,,,,,,,,,,,,,,,53,,,,,,,,,,,,,,424.1710000000021,,response,,,,99,,,,,,,Space,keypress(Space),,,,,,,,---- -- ----- -- ------ - ------- --- ----------<br>------------- ------ ------ ---- ---- ------- ----- -- ----<br>-------- ------- -- ---------- --- - --- ----- ----- ----<br>---- --- --- ----- --- ---- ---- ------- ----- ---- -------<br>--- --- -- ----- -- --- ---- -- --- ---- -- ------ ------<br>--- ----- -- all.,169753.39999997616,169751.5,169310.585,169311.80000001192,169327.329,169782.888,,55,all.
Item 99,flow.Loop,2_1_0_1,2022-05-03T11:24:06.445Z,,,,,,,,,,,,,,,,,,,,,,,,,,,,,,,23039.71299999999,,completion,,,,,H,,,,,,,,,,,silence,,,,,169754.39999997616,169751.5,146645.114,146647.09999996424,146711.787,169782.888,,,
Question 1,html.Screen,2_1_0_2,2022-05-03T11:24:16.363Z,,,,,,,,,,,,,,,,,,,,,,,,,,,,true,FALSE,,9887.412000011915,,response,,,,99,H,,,,,,FALSE,click #choice-2,,,,silence,,,,,179673,179670.30000001192,169743.956,169754.89999997616,169782.888,179693.405,,,
Question 2,html.Screen,2_1_0_3,2022-05-03T11:24:22.972Z,,,,,,,,,,,,,,,,,,,,,,,,,,,,false,TRUE,,6586.194999964238,,response,,,,99,H,,,,,,FALSE,click #choice-2,,,,silence,,,,,186282,186279.59999996424,179660.136,179673.5,179693.405,186309.744,,,
Item 99,flow.Sequence,2_1_0,2022-05-03T11:24:22.973Z,,,,,,,,,,,,,,,,,,,,,,,,,,,,,,,49617.516999964224,,completion,,,,,,,,,,,,,,,,,,,,,186282.80000001192,186279.59999996424,136628.705,136648.89999997616,136662.083,186309.744,,,
Holding screen,html.Screen,2_1_1_0,2022-05-03T11:24:32.985Z,,,,,,,,,,,,,,,,,,,,,,,,,,,,,,,9999.541999999987,,timeout,,,,,,,,,,,,,,,,,,,,,196294.39999997616,196292.755,186276.546,186283.30000001192,186309.744,196309.286,,,
screen,html.Screen,2_1_1_1_0,2022-05-03T11:24:33.823Z,,,,,,,,,,,,,,,,,54,,,,,,,,,,,,,,821.7140000000072,,response,,,,100,,,,,,,Space,keypress(Space),,,,,,,,At --- ---- --- ------ ----- ------- ---- -- --- ------- --<br>------- ---------- ------ -- ----- -- ----- -- ---- ------<br>--- ----- --- --- ------ -------- ----- --- ------ ----- --<br>----- ----- ---------- --- --- ------ ------ ---- -- ------<br>------- --- ------ ----- --- ---- ------- -- ---- --- --<br>------- ------,197132.69999998808,197131,196292.755,196295,196309.286,197142.478,,0,At
screen,html.Screen,2_1_1_1_1,2022-05-03T11:24:34.217Z,,,,,,,,,,,,,,,,,54,,,,,,,,,,,,,,383.1219999642344,,response,,,,100,,,,,,,Space,keypress(Space),,,,,,,,-- the ---- --- ------ ----- ------- ---- -- --- ------- --<br>------- ---------- ------ -- ----- -- ----- -- ---- ------<br>--- ----- --- --- ------ -------- ----- --- ------ ----- --<br>----- ----- ---------- --- --- ------ ------ ---- -- ------<br>------- --- ------ ----- --- ---- ------- -- ---- --- --<br>------- ------,197526.5,197525.59999996424,197126.07,197133.19999998808,197142.478,197542.626,,1,the
screen,html.Screen,2_1_1_1_2,2022-05-03T11:24:34.630Z,,,,,,,,,,,,,,,,,54,,,,,,,,,,,,,,396.0739999880898,,response,,,,100,,,,,,,Space,keypress(Space),,,,,,,,-- --- time --- ------ ----- ------- ---- -- --- ------- --<br>------- ---------- ------ -- ----- -- ----- -- ---- ------<br>--- ----- --- --- ------ -------- ----- --- ------ ----- --<br>----- ----- ---------- --- --- ------ ------ ---- -- ------<br>------- --- ------ ----- --- ---- ------- -- ---- --- --<br>------- ------,197940.09999996424,197938.69999998808,197525.964,197526.80000001192,197542.626,197965.415,,2,time
screen,html.Screen,2_1_1_1_3,2022-05-03T11:24:34.981Z,,,,,,,,,,,,,,,,,54,,,,,,,,,,,,,,324.2849999880709,,response,,,,100,,,,,,,Space,keypress(Space),,,,,,,,-- --- ---- the ------ ----- ------- ---- -- --- ------- --<br>------- ---------- ------ -- ----- -- ----- -- ---- ------<br>--- ----- --- --- ------ -------- ----- --- ------ ----- --<br>----- ----- ---------- --- --- ------ ------ ---- -- ------<br>------- --- ------ ----- --- ---- ------- -- ---- --- --<br>------- ------,198291.19999998808,198289.69999998808,197925.816,197940.59999996424,197965.415,198309.404,,3,the
screen,html.Screen,2_1_1_1_4,2022-05-03T11:24:35.351Z,,,,,,,,,,,,,,,,,54,,,,,,,,,,,,,,350.19599996422767,,response,,,,100,,,,,,,Space,keypress(Space),,,,,,,,-- --- ---- --- French ----- ------- ---- -- --- ------- --<br>------- ---------- ------ -- ----- -- ----- -- ---- ------<br>--- ----- --- --- ------ -------- ----- --- ------ ----- --<br>----- ----- ---------- --- --- ------ ------ ---- -- ------<br>------- --- ------ ----- --- ---- ------- -- ---- --- --<br>------- ------,198661.09999996424,198659.59999996424,198292.458,198291.69999998808,198309.404,198675.793,,4,French
screen,html.Screen,2_1_1_1_5,2022-05-03T11:24:35.726Z,,,,,,,,,,,,,,,,,54,,,,,,,,,,,,,,358.7069999999949,,response,,,,100,,,,,,,Space,keypress(Space),,,,,,,,-- --- ---- --- ------ crown ------- ---- -- --- ------- --<br>------- ---------- ------ -- ----- -- ----- -- ---- ------<br>--- ----- --- --- ------ -------- ----- --- ------ ----- --<br>----- ----- ---------- --- --- ------ ------ ---- -- ------<br>------- --- ------ ----- --- ---- ------- -- ---- --- --<br>------- ------,199036.09999996424,199034.5,198659.281,198661.59999996424,198675.793,199042.514,,5,crown
screen,html.Screen,2_1_1_1_6,2022-05-03T11:24:36.253Z,,,,,,,,,,,,,,,,,54,,,,,,,,,,,,,,518.3859999761626,,response,,,,100,,,,,,,Space,keypress(Space),,,,,,,,-- --- ---- --- ------ ----- secured ---- -- --- ------- --<br>------- ---------- ------ -- ----- -- ----- -- ---- ------<br>--- ----- --- --- ------ -------- ----- --- ------ ----- --<br>----- ----- ---------- --- --- ------ ------ ---- -- ------<br>------- --- ------ ----- --- ---- ------- -- ---- --- --<br>------- ------,199562.39999997616,199560.89999997616,199025.918,199036.5,199042.514,199575.787,,6,secured
screen,html.Screen,2_1_1_1_7,2022-05-03T11:24:36.613Z,,,,,,,,,,,,,,,,,54,,,,,,,,,,,,,,345.9129999880679,,response,,,,100,,,,,,,Space,keypress(Space),,,,,,,,-- --- ---- --- ------ ----- ------- much -- --- ------- --<br>------- ---------- ------ -- ----- -- ----- -- ---- ------<br>--- ----- --- --- ------ -------- ----- --- ------ ----- --<br>----- ----- ---------- --- --- ------ ------ ---- -- ------<br>------- --- ------ ----- --- ---- ------- -- ---- --- --<br>------- ------,199923.30000001192,199921.69999998808,199559.105,199562.89999997616,199575.787,199947.625,,7,much
screen,html.Screen,2_1_1_1_8,2022-05-03T11:24:37.199Z,,,,,,,,,,,,,,,,,54,,,,,,,,,,,,,,560.375,,response,,,,100,,,,,,,Space,keypress(Space),,,,,,,,-- --- ---- --- ------ ----- ------- ---- of --- ------- --<br>------- ---------- ------ -- ----- -- ----- -- ---- ------<br>--- ----- --- --- ------ -------- ----- --- ------ ----- --<br>----- ----- ---------- --- --- ------ ------ ---- -- ------<br>------- --- ------ ----- --- ---- ------- -- ---- --- --<br>------- ------,200509,200508,199909.214,199923.69999998808,199947.625,200525.88,,8,of
screen,html.Screen,2_1_1_1_9,2022-05-03T11:24:37.555Z,,,,,,,,,,,,,,,,,54,,,,,,,,,,,,,,337.71999996423256,,response,,,,100,,,,,,,Space,keypress(Space),,,,,,,,-- --- ---- --- ------ ----- ------- ---- -- its ------- --<br>------- ---------- ------ -- ----- -- ----- -- ---- ------<br>--- ----- --- --- ------ -------- ----- --- ------ ----- --<br>----- ----- ---------- --- --- ------ ------ ---- -- ------<br>------- --- ------ ----- --- ---- ------- -- ---- --- --<br>------- ------,200865.19999998808,200863.59999996424,200509.202,200509.19999998808,200525.88,200875.638,,9,its
screen,html.Screen,2_1_1_1_10,2022-05-03T11:24:37.861Z,,,,,,,,,,,,,,,,,54,,,,,,,,,,,,,,293.8619999999937,,response,,,,100,,,,,,,Space,keypress(Space),,,,,,,,-- --- ---- --- ------ ----- ------- ---- -- --- revenue --<br>------- ---------- ------ -- ----- -- ----- -- ---- ------<br>--- ----- --- --- ------ -------- ----- --- ------ ----- --<br>----- ----- ---------- --- --- ------ ------ ---- -- ------<br>------- --- ------ ----- --- ---- ------- -- ---- --- --<br>------- ------,201171.30000001192,201169.5,200858.97,200865.59999996424,200875.638,201175.721,,10,revenue
screen,html.Screen,2_1_1_1_11,2022-05-03T11:24:38.254Z,,,,,,,,,,,,,,,,,54,,,,,,,,,,,,,,386.77900000000955,,response,,,,100,,,,,,,Space,keypress(Space),,,,,,,,-- --- ---- --- ------ ----- ------- ---- -- --- ------- by<br>------- ---------- ------ -- ----- -- ----- -- ---- ------<br>--- ----- --- --- ------ -------- ----- --- ------ ----- --<br>----- ----- ---------- --- --- ------ ------ ---- -- ------<br>------- --- ------ ----- --- ---- ------- -- ---- --- --<br>------- ------,201563.39999997616,201562.5,201158.917,201172,201175.721,201575.65,,11,by
screen,html.Screen,2_1_1_1_12,2022-05-03T11:24:38.830Z,,,,,,,,,,,,,,,,,54,,,,,,,,,,,,,,562.449999964243,,response,,,,100,,,,,,,Space,keypress(Space),,,,,,,,-- --- ---- --- ------ ----- ------- ---- -- --- ------- --<br>issuing ---------- ------ -- ----- -- ----- -- ---- ------<br>--- ----- --- --- ------ -------- ----- --- ------ ----- --<br>----- ----- ---------- --- --- ------ ------ ---- -- ------<br>------- --- ------ ----- --- ---- ------- -- ---- --- --<br>------- ------,202139.69999998808,202138.09999996424,201559.043,201563.69999998808,201575.65,202142.368,,12,issuing
screen,html.Screen,2_1_1_1_13,2022-05-03T11:24:39.171Z,,,,,,,,,,,,,,,,,54,,,,,,,,,,,,,,336.23199996424955,,response,,,,100,,,,,,,Space,keypress(Space),,,,,,,,-- --- ---- --- ------ ----- ------- ---- -- --- ------- --<br>------- government ------ -- ----- -- ----- -- ---- ------<br>--- ----- --- --- ------ -------- ----- --- ------ ----- --<br>----- ----- ---------- --- --- ------ ------ ---- -- ------<br>------- --- ------ ----- --- ---- ------- -- ---- --- --<br>------- ------,202480.59999996424,202478.59999996424,202125.798,202140.09999996424,202142.368,202492.378,,13,government
screen,html.Screen,2_1_1_1_14,2022-05-03T11:24:39.657Z,,,,,,,,,,,,,,,,,54,,,,,,,,,,,,,,473.122000000003,,response,,,,100,,,,,,,Space,keypress(Space),,,,,,,,-- --- ---- --- ------ ----- ------- ---- -- --- ------- --<br>------- ---------- bonds. -- ----- -- ----- -- ---- ------<br>--- ----- --- --- ------ -------- ----- --- ------ ----- --<br>----- ----- ---------- --- --- ------ ------ ---- -- ------<br>------- --- ------ ----- --- ---- ------- -- ---- --- --<br>------- ------,202967.09999996424,202965.5,202475.79,202480.69999998808,202492.378,202975.58,,14,bonds.
screen,html.Screen,2_1_1_1_15,2022-05-03T11:24:40.474Z,,,,,,,,,,,,,,,,,54,,,,,,,,,,,,,,806.7200000119337,,response,,,,100,,,,,,,Space,keypress(Space),,,,,,,,-- --- ---- --- ------ ----- ------- ---- -- --- ------- --<br>------- ---------- ------ In ----- -- ----- -- ---- ------<br>--- ----- --- --- ------ -------- ----- --- ------ ----- --<br>----- ----- ---------- --- --- ------ ------ ---- -- ------<br>------- --- ------ ----- --- ---- ------- -- ---- --- --<br>------- ------,203783.89999997616,203782.30000001192,202959.08,202967.5,202975.58,203792.25,,15,In
screen,html.Screen,2_1_1_1_16,2022-05-03T11:24:41.590Z,,,,,,,,,,,,,,,,,54,,,,,,,,,,,,,,1105.75,,response,,,,100,,,,,,,Space,keypress(Space),,,,,,,,"-- --- ---- --- ------ ----- ------- ---- -- --- ------- --<br>------- ---------- ------ -- 1727, -- ----- -- ---- ------<br>--- ----- --- --- ------ -------- ----- --- ------ ----- --<br>----- ----- ---------- --- --- ------ ------ ---- -- ------<br>------- --- ------ ----- --- ---- ------- -- ---- --- --<br>------- ------",204899.69999998808,204898,203775.545,203784.30000001192,203792.25,204908.911,,16,"1727,"
screen,html.Screen,2_1_1_1_17,2022-05-03T11:24:42.230Z,,,,,,,,,,,,,,,,,54,,,,,,,,,,,,,,629.3890000119281,,response,,,,100,,,,,,,Space,keypress(Space),,,,,,,,-- --- ---- --- ------ ----- ------- ---- -- --- ------- --<br>------- ---------- ------ -- ----- in ----- -- ---- ------<br>--- ----- --- --- ------ -------- ----- --- ------ ----- --<br>----- ----- ---------- --- --- ------ ------ ---- -- ------<br>------- --- ------ ----- --- ---- ------- -- ---- --- --<br>------- ------,205539.39999997616,205538.30000001192,204892.277,204900.19999998808,204908.911,205542.112,,17,in
screen,html.Screen,2_1_1_1_18,2022-05-03T11:24:42.599Z,,,,,,,,,,,,,,,,,54,,,,,,,,,,,,,,364.8880000000063,,response,,,,100,,,,,,,Space,keypress(Space),,,,,,,,-- --- ---- --- ------ ----- ------- ---- -- --- ------- --<br>------- ---------- ------ -- ----- -- order -- ---- ------<br>--- ----- --- --- ------ -------- ----- --- ------ ----- --<br>----- ----- ---------- --- --- ------ ------ ---- -- ------<br>------- --- ------ ----- --- ---- ------- -- ---- --- --<br>------- ------,205908.59999996424,205907,205525.559,205539.59999996424,205542.112,205925.747,,18,order
screen,html.Screen,2_1_1_1_19,2022-05-03T11:24:42.940Z,,,,,,,,,,,,,,,,,54,,,,,,,,,,,,,,322.252999999997,,response,,,,100,,,,,,,Space,keypress(Space),,,,,,,,-- --- ---- --- ------ ----- ------- ---- -- --- ------- --<br>------- ---------- ------ -- ----- -- ----- to ---- ------<br>--- ----- --- --- ------ -------- ----- --- ------ ----- --<br>----- ----- ---------- --- --- ------ ------ ---- -- ------<br>------- --- ------ ----- --- ---- ------- -- ---- --- --<br>------- ------,206250,206248,205908.947,205909,205925.747,206258.785,,19,to
screen,html.Screen,2_1_1_1_20,2022-05-03T11:24:43.287Z,,,,,,,,,,,,,,,,,54,,,,,,,,,,,,,,336.9149999880756,,response,,,,100,,,,,,,Space,keypress(Space),,,,,,,,-- --- ---- --- ------ ----- ------- ---- -- --- ------- --<br>------- ---------- ------ -- ----- -- ----- -- save ------<br>--- ----- --- --- ------ -------- ----- --- ------ ----- --<br>----- ----- ---------- --- --- ------ ------ ---- -- ------<br>------- --- ------ ----- --- ---- ------- -- ---- --- --<br>------- ------,206597.30000001192,206595.69999998808,206242.119,206250.39999997616,206258.785,206608.826,,20,save
screen,html.Screen,2_1_1_1_21,2022-05-03T11:24:43.605Z,,,,,,,,,,,,,,,,,54,,,,,,,,,,,,,,304.0739999761572,,response,,,,100,,,,,,,Space,keypress(Space),,,,,,,,"-- --- ---- --- ------ ----- ------- ---- -- --- ------- --<br>------- ---------- ------ -- ----- -- ----- -- ---- money,<br>--- ----- --- --- ------ -------- ----- --- ------ ----- --<br>----- ----- ---------- --- --- ------ ------ ---- -- ------<br>------- --- ------ ----- --- ---- ------- -- ---- --- --<br>------- ------",206914.5,206912.89999997616,206592.247,206597.80000001192,206608.826,206925.466,,21,"money,"
screen,html.Screen,2_1_1_1_22,2022-05-03T11:24:43.932Z,,,,,,,,,,,,,,,,,54,,,,,,,,,,,,,,314.5340000000142,,response,,,,100,,,,,,,Space,keypress(Space),,,,,,,,-- --- ---- --- ------ ----- ------- ---- -- --- ------- --<br>------- ---------- ------ -- ----- -- ----- -- ---- ------<br>the ----- --- --- ------ -------- ----- --- ------ ----- --<br>----- ----- ---------- --- --- ------ ------ ---- -- ------<br>------- --- ------ ----- --- ---- ------- -- ---- --- --<br>------- ------,207241.69999998808,207240,206908.894,206914.89999997616,206925.466,207258.924,,22,the
screen,html.Screen,2_1_1_1_23,2022-05-03T11:24:44.214Z,,,,,,,,,,,,,,,,,54,,,,,,,,,,,,,,264.17599996423814,,response,,,,100,,,,,,,Space,keypress(Space),,,,,,,,-- --- ---- --- ------ ----- ------- ---- -- --- ------- --<br>------- ---------- ------ -- ----- -- ----- -- ---- ------<br>--- state --- --- ------ -------- ----- --- ------ ----- --<br>----- ----- ---------- --- --- ------ ------ ---- -- ------<br>------- --- ------ ----- --- ---- ------- -- ---- --- --<br>------- ------,207524.09999996424,207523.09999996424,207242.067,207242.09999996424,207258.924,207544.031,,23,state
screen,html.Screen,2_1_1_1_24,2022-05-03T11:24:44.506Z,,,,,,,,,,,,,,,,,54,,,,,,,,,,,,,,269.9690000000119,,response,,,,100,,,,,,,Space,keypress(Space),,,,,,,,-- --- ---- --- ------ ----- ------- ---- -- --- ------- --<br>------- ---------- ------ -- ----- -- ----- -- ---- ------<br>--- ----- cut --- ------ -------- ----- --- ------ ----- --<br>----- ----- ---------- --- --- ------ ------ ---- -- ------<br>------- --- ------ ----- --- ---- ------- -- ---- --- --<br>------- ------,207815.59999996424,207814,207508.866,207524.19999998808,207544.031,207825.385,,24,cut
screen,html.Screen,2_1_1_1_25,2022-05-03T11:24:44.797Z,,,,,,,,,,,,,,,,,54,,,,,,,,,,,,,,279.7149999642279,,response,,,,100,,,,,,,Space,keypress(Space),,,,,,,,-- --- ---- --- ------ ----- ------- ---- -- --- ------- --<br>------- ---------- ------ -- ----- -- ----- -- ---- ------<br>--- ----- --- the ------ -------- ----- --- ------ ----- --<br>----- ----- ---------- --- --- ------ ------ ---- -- ------<br>------- --- ------ ----- --- ---- ------- -- ---- --- --<br>------- ------,208106.80000001192,208105.09999996424,207808.734,207816.09999996424,207825.385,208138.002,,25,the
screen,html.Screen,2_1_1_1_26,2022-05-03T11:24:45.089Z,,,,,,,,,,,,,,,,,54,,,,,,,,,,,,,,258.29800001191325,,response,,,,100,,,,,,,Space,keypress(Space),,,,,,,,-- --- ---- --- ------ ----- ------- ---- -- --- ------- --<br>------- ---------- ------ -- ----- -- ----- -- ---- ------<br>--- ----- --- --- bonds' -------- ----- --- ------ ----- --<br>----- ----- ---------- --- --- ------ ------ ---- -- ------<br>------- --- ------ ----- --- ---- ------- -- ---- --- --<br>------- ------,208398.39999997616,208396.30000001192,208092.221,208107.09999996424,208138.002,208408.659,,26,bonds'
screen,html.Screen,2_1_1_1_27,2022-05-03T11:24:45.577Z,,,,,,,,,,,,,,,,,54,,,,,,,,,,,,,,476.54099998806487,,response,,,,100,,,,,,,Space,keypress(Space),,,,,,,,-- --- ---- --- ------ ----- ------- ---- -- --- ------- --<br>------- ---------- ------ -- ----- -- ----- -- ---- ------<br>--- ----- --- --- ------ interest ----- --- ------ ----- --<br>----- ----- ---------- --- --- ------ ------ ---- -- ------<br>------- --- ------ ----- --- ---- ------- -- ---- --- --<br>------- ------,208886.80000001192,208885.19999998808,208392.075,208398.89999997616,208408.659,208891.976,,27,interest
screen,html.Screen,2_1_1_1_28,2022-05-03T11:24:45.971Z,,,,,,,,,,,,,,,,,54,,,,,,,,,,,,,,387.3240000119258,,response,,,,100,,,,,,,Space,keypress(Space),,,,,,,,-- --- ---- --- ------ ----- ------- ---- -- --- ------- --<br>------- ---------- ------ -- ----- -- ----- -- ---- ------<br>--- ----- --- --- ------ -------- rate. --- ------ ----- --<br>----- ----- ---------- --- --- ------ ------ ---- -- ------<br>------- --- ------ ----- --- ---- ------- -- ---- --- --<br>------- ------,209280.80000001192,209279.30000001192,208875.469,208887.39999997616,208891.976,209291.971,,28,rate.
screen,html.Screen,2_1_1_1_29,2022-05-03T11:24:46.310Z,,,,,,,,,,,,,,,,,54,,,,,,,,,,,,,,326.2289999880886,,response,,,,100,,,,,,,Space,keypress(Space),,,,,,,,-- --- ---- --- ------ ----- ------- ---- -- --- ------- --<br>------- ---------- ------ -- ----- -- ----- -- ---- ------<br>--- ----- --- --- ------ -------- ----- The ------ ----- --<br>----- ----- ---------- --- --- ------ ------ ---- -- ------<br>------- --- ------ ----- --- ---- ------- -- ---- --- --<br>------- ------,209620.09999996424,209618.19999998808,209275.272,209281.30000001192,209291.971,209625.348,,29,The
screen,html.Screen,2_1_1_1_30,2022-05-03T11:24:46.673Z,,,,,,,,,,,,,,,,,54,,,,,,,,,,,,,,356.4520000119228,,response,,,,100,,,,,,,Space,keypress(Space),,,,,,,,-- --- ---- --- ------ ----- ------- ---- -- --- ------- --<br>------- ---------- ------ -- ----- -- ----- -- ---- ------<br>--- ----- --- --- ------ -------- ----- --- market ----- --<br>----- ----- ---------- --- --- ------ ------ ---- -- ------<br>------- --- ------ ----- --- ---- ------- -- ---- --- --<br>------- ------,209982.80000001192,209981.80000001192,209608.763,209620.5,209625.348,209991.87,,30,market
screen,html.Screen,2_1_1_1_31,2022-05-03T11:24:47.040Z,,,,,,,,,,,,,,,,,54,,,,,,,,,,,,,,356.4300000119256,,response,,,,100,,,,,,,Space,keypress(Space),,,,,,,,-- --- ---- --- ------ ----- ------- ---- -- --- ------- --<br>------- ---------- ------ -- ----- -- ----- -- ---- ------<br>--- ----- --- --- ------ -------- ----- --- ------ value --<br>----- ----- ---------- --- --- ------ ------ ---- -- ------<br>------- --- ------ ----- --- ---- ------- -- ---- --- --<br>------- ------,210350.09999996424,210348.30000001192,209975.274,209983.09999996424,209991.87,210358.552,,31,value
screen,html.Screen,2_1_1_1_32,2022-05-03T11:24:47.365Z,,,,,,,,,,,,,,,,,54,,,,,,,,,,,,,,314.04799996424117,,response,,,,100,,,,,,,Space,keypress(Space),,,,,,,,-- --- ---- --- ------ ----- ------- ---- -- --- ------- --<br>------- ---------- ------ -- ----- -- ----- -- ---- ------<br>--- ----- --- --- ------ -------- ----- --- ------ ----- of<br>----- ----- ---------- --- --- ------ ------ ---- -- ------<br>------- --- ------ ----- --- ---- ------- -- ---- --- --<br>------- ------,210674.59999996424,210672.59999996424,210342.035,210350.5,210358.552,210692.113,,32,of
screen,html.Screen,2_1_1_1_33,2022-05-03T11:24:47.753Z,,,,,,,,,,,,,,,,,54,,,,,,,,,,,,,,368.9869999642251,,response,,,,100,,,,,,,Space,keypress(Space),,,,,,,,-- --- ---- --- ------ ----- ------- ---- -- --- ------- --<br>------- ---------- ------ -- ----- -- ----- -- ---- ------<br>--- ----- --- --- ------ -------- ----- --- ------ ----- --<br>these ----- ---------- --- --- ------ ------ ---- -- ------<br>------- --- ------ ----- --- ---- ------- -- ---- --- --<br>------- ------,211062.69999998808,211061.09999996424,210675.362,210675,210692.113,211075.309,,33,these
screen,html.Screen,2_1_1_1_34,2022-05-03T11:24:48.070Z,,,,,,,,,,,,,,,,,54,,,,,,,,,,,,,,303.29099996422883,,response,,,,100,,,,,,,Space,keypress(Space),,,,,,,,-- --- ---- --- ------ ----- ------- ---- -- --- ------- --<br>------- ---------- ------ -- ----- -- ----- -- ---- ------<br>--- ----- --- --- ------ -------- ----- --- ------ ----- --<br>----- bonds ---------- --- --- ------ ------ ---- -- ------<br>------- --- ------ ----- --- ---- ------- -- ---- --- --<br>------- ------,211380.30000001192,211378.59999996424,211058.631,211063,211075.309,211391.89,,34,bonds
screen,html.Screen,2_1_1_1_35,2022-05-03T11:24:48.496Z,,,,,,,,,,,,,,,,,54,,,,,,,,,,,,,,412.20999996422324,,response,,,,100,,,,,,,Space,keypress(Space),,,,,,,,"-- --- ---- --- ------ ----- ------- ---- -- --- ------- --<br>------- ---------- ------ -- ----- -- ----- -- ---- ------<br>--- ----- --- --- ------ -------- ----- --- ------ ----- --<br>----- ----- plummeted, --- --- ------ ------ ---- -- ------<br>------- --- ------ ----- --- ---- ------- -- ---- --- --<br>------- ------",211805.69999998808,211804.09999996424,211375.356,211380.80000001192,211391.89,211808.578,,35,"plummeted,"
screen,html.Screen,2_1_1_1_36,2022-05-03T11:24:48.940Z,,,,,,,,,,,,,,,,,54,,,,,,,,,,,,,,439.8219999761495,,response,,,,100,,,,,,,Space,keypress(Space),,,,,,,,-- --- ---- --- ------ ----- ------- ---- -- --- ------- --<br>------- ---------- ------ -- ----- -- ----- -- ---- ------<br>--- ----- --- --- ------ -------- ----- --- ------ ----- --<br>----- ----- ---------- and --- ------ ------ ---- -- ------<br>------- --- ------ ----- --- ---- ------- -- ---- --- --<br>------- ------,212250.39999997616,212248.39999997616,211791.988,211806.09999996424,211808.578,212258.463,,36,and
screen,html.Screen,2_1_1_1_37,2022-05-03T11:24:49.285Z,,,,,,,,,,,,,,,,,54,,,,,,,,,,,,,,334.4369999761693,,response,,,,100,,,,,,,Space,keypress(Space),,,,,,,,-- --- ---- --- ------ ----- ------- ---- -- --- ------- --<br>------- ---------- ------ -- ----- -- ----- -- ---- ------<br>--- ----- --- --- ------ -------- ----- --- ------ ----- --<br>----- ----- ---------- --- the ------ ------ ---- -- ------<br>------- --- ------ ----- --- ---- ------- -- ---- --- --<br>------- ------,212594.59999996424,212592.89999997616,212241.774,212250.80000001192,212258.463,212608.564,,37,the
screen,html.Screen,2_1_1_1_38,2022-05-03T11:24:49.540Z,,,,,,,,,,,,,,,,,54,,,,,,,,,,,,,,239.8359999761451,,response,,,,100,,,,,,,Space,keypress(Space),,,,,,,,-- --- ---- --- ------ ----- ------- ---- -- --- ------- --<br>------- ---------- ------ -- ----- -- ----- -- ---- ------<br>--- ----- --- --- ------ -------- ----- --- ------ ----- --<br>----- ----- ---------- --- --- market ------ ---- -- ------<br>------- --- ------ ----- --- ---- ------- -- ---- --- --<br>------- ------,212850,212848.39999997616,212591.995,212594.89999997616,212608.564,212858.462,,38,market
screen,html.Screen,2_1_1_1_39,2022-05-03T11:24:49.774Z,,,,,,,,,,,,,,,,,54,,,,,,,,,,,,,,224.3380000119214,,response,,,,100,,,,,,,Space,keypress(Space),,,,,,,,-- --- ---- --- ------ ----- ------- ---- -- --- ------- --<br>------- ---------- ------ -- ----- -- ----- -- ---- ------<br>--- ----- --- --- ------ -------- ----- --- ------ ----- --<br>----- ----- ---------- --- --- ------ became ---- -- ------<br>------- --- ------ ----- --- ---- ------- -- ---- --- --<br>------- ------,213084.30000001192,213082.80000001192,212841.86,212850.5,212858.462,213091.85,,39,became
screen,html.Screen,2_1_1_1_40,2022-05-03T11:24:50.012Z,,,,,,,,,,,,,,,,,54,,,,,,,,,,,,,,228.04999997615232,,response,,,,100,,,,,,,Space,keypress(Space),,,,,,,,-- --- ---- --- ------ ----- ------- ---- -- --- ------- --<br>------- ---------- ------ -- ----- -- ----- -- ---- ------<br>--- ----- --- --- ------ -------- ----- --- ------ ----- --<br>----- ----- ---------- --- --- ------ ------ wary -- ------<br>------- --- ------ ----- --- ---- ------- -- ---- --- --<br>------- ------,213321.59999996424,213319.89999997616,213075.335,213084.80000001192,213091.85,213325.179,,40,wary
screen,html.Screen,2_1_1_1_41,2022-05-03T11:24:50.359Z,,,,,,,,,,,,,,,,,54,,,,,,,,,,,,,,341.6210000119172,,response,,,,100,,,,,,,Space,keypress(Space),,,,,,,,-- --- ---- --- ------ ----- ------- ---- -- --- ------- --<br>------- ---------- ------ -- ----- -- ----- -- ---- ------<br>--- ----- --- --- ------ -------- ----- --- ------ ----- --<br>----- ----- ---------- --- --- ------ ------ ---- of ------<br>------- --- ------ ----- --- ---- ------- -- ---- --- --<br>------- ------,213668.39999997616,213666.80000001192,213308.611,213321.89999997616,213325.179,213675.138,,41,of
screen,html.Screen,2_1_1_1_42,2022-05-03T11:24:50.624Z,,,,,,,,,,,,,,,,,54,,,,,,,,,,,,,,257.5619999880728,,response,,,,100,,,,,,,Space,keypress(Space),,,,,,,,-- --- ---- --- ------ ----- ------- ---- -- --- ------- --<br>------- ---------- ------ -- ----- -- ----- -- ---- ------<br>--- ----- --- --- ------ -------- ----- --- ------ ----- --<br>----- ----- ---------- --- --- ------ ------ ---- -- French<br>------- --- ------ ----- --- ---- ------- -- ---- --- --<br>------- ------,213934.19999998808,213932.69999998808,213658.469,213668.89999997616,213675.138,213941.718,,42,French
screen,html.Screen,2_1_1_1_43,2022-05-03T11:24:50.994Z,,,,,,,,,,,,,,,,,54,,,,,,,,,,,,,,360.4819999880856,,response,,,,100,,,,,,,Space,keypress(Space),,,,,,,,-- --- ---- --- ------ ----- ------- ---- -- --- ------- --<br>------- ---------- ------ -- ----- -- ----- -- ---- ------<br>--- ----- --- --- ------ -------- ----- --- ------ ----- --<br>----- ----- ---------- --- --- ------ ------ ---- -- ------<br>credit. --- ------ ----- --- ---- ------- -- ---- --- --<br>------- ------,214303.80000001192,214302.19999998808,213925.172,213934.59999996424,213941.718,214308.449,,43,credit.
screen,html.Screen,2_1_1_1_44,2022-05-03T11:24:51.521Z,,,,,,,,,,,,,,,,,54,,,,,,,,,,,,,,520.5510000000068,,response,,,,100,,,,,,,Space,keypress(Space),,,,,,,,-- --- ---- --- ------ ----- ------- ---- -- --- ------- --<br>------- ---------- ------ -- ----- -- ----- -- ---- ------<br>--- ----- --- --- ------ -------- ----- --- ------ ----- --<br>----- ----- ---------- --- --- ------ ------ ---- -- ------<br>------- The ------ ----- --- ---- ------- -- ---- --- --<br>------- ------,214830.69999998808,214829,214291.787,214304.19999998808,214308.449,214841.758,,44,The
screen,html.Screen,2_1_1_1_45,2022-05-03T11:24:51.950Z,,,,,,,,,,,,,,,,,54,,,,,,,,,,,,,,416.24199999999837,,response,,,,100,,,,,,,Space,keypress(Space),,,,,,,,-- --- ---- --- ------ ----- ------- ---- -- --- ------- --<br>------- ---------- ------ -- ----- -- ----- -- ---- ------<br>--- ----- --- --- ------ -------- ----- --- ------ ----- --<br>----- ----- ---------- --- --- ------ ------ ---- -- ------<br>------- --- French ----- --- ---- ------- -- ---- --- --<br>------- ------,215259.69999998808,215258,214825.173,214831.09999996424,214841.758,215275.282,,45,French
screen,html.Screen,2_1_1_1_46,2022-05-03T11:24:52.162Z,,,,,,,,,,,,,,,,,54,,,,,,,,,,,,,,195.11799997615162,,response,,,,100,,,,,,,Space,keypress(Space),,,,,,,,-- --- ---- --- ------ ----- ------- ---- -- --- ------- --<br>------- ---------- ------ -- ----- -- ----- -- ---- ------<br>--- ----- --- --- ------ -------- ----- --- ------ ----- --<br>----- ----- ---------- --- --- ------ ------ ---- -- ------<br>------- --- ------ state --- ---- ------- -- ---- --- --<br>------- ------,215471.5,215470.39999997616,215258.465,215260.30000001192,215275.282,215474.92,,46,state
screen,html.Screen,2_1_1_1_47,2022-05-03T11:24:52.355Z,,,,,,,,,,,,,,,,,54,,,,,,,,,,,,,,188.0799999999872,,response,,,,100,,,,,,,Space,keypress(Space),,,,,,,,-- --- ---- --- ------ ----- ------- ---- -- --- ------- --<br>------- ---------- ------ -- ----- -- ----- -- ---- ------<br>--- ----- --- --- ------ -------- ----- --- ------ ----- --<br>----- ----- ---------- --- --- ------ ------ ---- -- ------<br>------- --- ------ ----- was ---- ------- -- ---- --- --<br>------- ------,215664.69999998808,215663,215458.406,215471.80000001192,215474.92,215674.936,,47,was
screen,html.Screen,2_1_1_1_48,2022-05-03T11:24:52.686Z,,,,,,,,,,,,,,,,,54,,,,,,,,,,,,,,319.66399996425025,,response,,,,100,,,,,,,Space,keypress(Space),,,,,,,,-- --- ---- --- ------ ----- ------- ---- -- --- ------- --<br>------- ---------- ------ -- ----- -- ----- -- ---- ------<br>--- ----- --- --- ------ -------- ----- --- ------ ----- --<br>----- ----- ---------- --- --- ------ ------ ---- -- ------<br>------- --- ------ ----- --- left ------- -- ---- --- --<br>------- ------,215996.09999996424,215994.59999996424,215658.501,215667,215674.936,216008.381,,48,left
screen,html.Screen,2_1_1_1_49,2022-05-03T11:24:52.915Z,,,,,,,,,,,,,,,,,54,,,,,,,,,,,,,,214.41900001192698,,response,,,,100,,,,,,,Space,keypress(Space),,,,,,,,-- --- ---- --- ------ ----- ------- ---- -- --- ------- --<br>------- ---------- ------ -- ----- -- ----- -- ---- ------<br>--- ----- --- --- ------ -------- ----- --- ------ ----- --<br>----- ----- ---------- --- --- ------ ------ ---- -- ------<br>------- --- ------ ----- --- ---- without -- ---- --- --<br>------- ------,216224.39999997616,216222.80000001192,215991.865,215996.59999996424,216008.381,216241.797,,49,without
screen,html.Screen,2_1_1_1_50,2022-05-03T11:24:53.294Z,,,,,,,,,,,,,,,,,54,,,,,,,,,,,,,,360.60299997616676,,response,,,,100,,,,,,,Space,keypress(Space),,,,,,,,-- --- ---- --- ------ ----- ------- ---- -- --- ------- --<br>------- ---------- ------ -- ----- -- ----- -- ---- ------<br>--- ----- --- --- ------ -------- ----- --- ------ ----- --<br>----- ----- ---------- --- --- ------ ------ ---- -- ------<br>------- --- ------ ----- --- ---- ------- an ---- --- --<br>------- ------,216604.09999996424,216602.39999997616,216225.118,216224.89999997616,216241.797,216608.349,,50,an
screen,html.Screen,2_1_1_1_51,2022-05-03T11:24:53.552Z,,,,,,,,,,,,,,,,,54,,,,,,,,,,,,,,252.05099997617071,,response,,,,100,,,,,,,Space,keypress(Space),,,,,,,,-- --- ---- --- ------ ----- ------- ---- -- --- ------- --<br>------- ---------- ------ -- ----- -- ----- -- ---- ------<br>--- ----- --- --- ------ -------- ----- --- ------ ----- --<br>----- ----- ---------- --- --- ------ ------ ---- -- ------<br>------- --- ------ ----- --- ---- ------- -- easy --- --<br>------- ------,216862,216860.39999997616,216591.762,216604.39999997616,216608.349,216874.93,,51,easy
screen,html.Screen,2_1_1_1_52,2022-05-03T11:24:53.935Z,,,,,,,,,,,,,,,,,54,,,,,,,,,,,,,,368.3700000119279,,response,,,,100,,,,,,,Space,keypress(Space),,,,,,,,-- --- ---- --- ------ ----- ------- ---- -- --- ------- --<br>------- ---------- ------ -- ----- -- ----- -- ---- ------<br>--- ----- --- --- ------ -------- ----- --- ------ ----- --<br>----- ----- ---------- --- --- ------ ------ ---- -- ------<br>------- --- ------ ----- --- ---- ------- -- ---- way --<br>------- ------,217245,217243.30000001192,216858.408,216862.5,216874.93,217258.307,,52,way
screen,html.Screen,2_1_1_1_53,2022-05-03T11:24:54.211Z,,,,,,,,,,,,,,,,,54,,,,,,,,,,,,,,261.59299997615744,,response,,,,100,,,,,,,Space,keypress(Space),,,,,,,,-- --- ---- --- ------ ----- ------- ---- -- --- ------- --<br>------- ---------- ------ -- ----- -- ----- -- ---- ------<br>--- ----- --- --- ------ -------- ----- --- ------ ----- --<br>----- ----- ---------- --- --- ------ ------ ---- -- ------<br>------- --- ------ ----- --- ---- ------- -- ---- --- of<br>------- ------,217521.30000001192,217519.89999997616,217241.736,217245.39999997616,217258.307,217524.922,,53,of
screen,html.Screen,2_1_1_1_54,2022-05-03T11:24:54.519Z,,,,,,,,,,,,,,,,,54,,,,,,,,,,,,,,302.1779999642458,,response,,,,100,,,,,,,Space,keypress(Space),,,,,,,,-- --- ---- --- ------ ----- ------- ---- -- --- ------- --<br>------- ---------- ------ -- ----- -- ----- -- ---- ------<br>--- ----- --- --- ------ -------- ----- --- ------ ----- --<br>----- ----- ---------- --- --- ------ ------ ---- -- ------<br>------- --- ------ ----- --- ---- ------- -- ---- --- --<br>raising ------,217828.89999997616,217827.09999996424,217508.39,217521.59999996424,217524.922,217841.619,,54,raising
screen,html.Screen,2_1_1_1_55,2022-05-03T11:24:54.947Z,,,,,,,,,,,,,,,,,54,,,,,,,,,,,,,,413.48099996423116,,response,,,,100,,,,,,,Space,keypress(Space),,,,,,,,-- --- ---- --- ------ ----- ------- ---- -- --- ------- --<br>------- ---------- ------ -- ----- -- ----- -- ---- ------<br>--- ----- --- --- ------ -------- ----- --- ------ ----- --<br>----- ----- ---------- --- --- ------ ------ ---- -- ------<br>------- --- ------ ----- --- ---- ------- -- ---- --- --<br>------- money.,218256.69999998808,218255.09999996424,217824.927,217829.5,217841.619,218291.469,,55,money.
Item 100,flow.Loop,2_1_1_1,2022-05-03T11:24:54.948Z,,,,,,,,,,,,,,,,,,,,,,,,,,,,,,,21945.813999964244,,completion,,,,,H,,,,,,,,,,,silence,,,,,218257.59999996424,218255.09999996424,196292.755,196294.80000001192,196309.286,218291.469,,,
Question 1,html.Screen,2_1_1_2,2022-05-03T11:24:57.996Z,,,,,,,,,,,,,,,,,,,,,,,,,,,,true,TRUE,,3011.6309999642253,,response,,,,100,H,,,,,,TRUE,click #choice-1,,,,silence,,,,,221305.5,221303.09999996424,218258.319,218257.89999997616,218291.469,221324.725,,,
Question 2,html.Screen,2_1_1_3,2022-05-03T11:25:02.542Z,,,,,,,,,,,,,,,,,,,,,,,,,,,,true,FALSE,,4524.974999988073,,response,,,,100,H,,,,,,FALSE,click #choice-2,,,,silence,,,,,225852.19999998808,225849.69999998808,221291.681,221305.89999997616,221324.725,225874.532,,,
Item 100,flow.Sequence,2_1_1,2022-05-03T11:25:02.543Z,,,,,,,,,,,,,,,,,,,,,,,,,,,,,,,39539.95599998807,,completion,,,,,,,,,,,,,,,,,,,,,225853.19999998808,225849.69999998808,186276.546,186283.19999998808,186309.744,225874.532,,,
End of Practice,html.Page,2_1_2,2022-05-03T11:25:09.004Z,,,,,,,,,,,,,,,,,,,,,,,,,,,,,,,6438.167999988073,,form submission,,,,,,,,,,,,,,,,,,,,,232313.5,232312.69999998808,225841.158,225853.5,225874.532,232324.148,,,
Practice,flow.Sequence,2_1,2022-05-03T11:25:09.004Z,,,,,,,,,,,,,,,,,,,,,,,,,,,,,,,95650.61699998807,,completion,,,,,,,,,,,,,,,,,,,,,232314.30000001192,232312.69999998808,136628.705,136648.69999998808,136662.083,232324.148,,,
Trap_instruction,html.Page,2_2_0,2022-05-03T11:25:12.642Z,,,,,,,,,,,,,,,,,,,,,,,,,,,,,,,3626.4519999642507,,form submission,,,,,,,,,,,,,,,,,,,,,235951.39999997616,235950.59999996424,232307.672,232314.80000001192,232324.148,236024.032,,,
trap_trial,html.Screen,2_2_1,2022-05-03T11:25:17.684Z,,,,,,,,,,,,,,,,,,,,,,,,,,,,true,1,,4966.067999964231,,response,,,,,,,,,,,1,click #choice-1,,,,,,,,,240993.39999997616,240990.09999996424,235940.818,235952,236024.032,241023.865,,,
end of trap trial,html.Page,2_2_2,2022-05-03T11:25:20.057Z,,,,,,,,,,,,,,,,,,,,,,,,,,,,,,,2342.5349999761675,,form submission,,,,,,,,,,,,,,,,,,,,,243367.19999998808,243366.39999997616,240990.497,240993.89999997616,241023.865,243373.69,,,
Trap 1,flow.Sequence,2_2,2022-05-03T11:25:20.058Z,,,,,,,,,,,,,,,,,,,,,,,,,,,,,,,11042.251999976172,,completion,,,,,,,,,,,,,,,,,,,,,243367.89999997616,243366.39999997616,232307.672,232314.59999996424,232324.148,243373.69,,,
Standby,html.Page,2_3_0,2022-05-03T11:25:28.049Z,,,,,,,,,,,,,,,,,,,,,,,,,,,,,,,7999.660999999993,,timeout,,,,,,,,,,,,,,,,,,,,,251358.59999996424,251356.784,243357.174,243368.39999997616,243373.69,251373.351,,,
Holding screen,html.Screen,2_3_1_0_0,2022-05-03T11:25:35.048Z,,,,,,,,,,,,,,,,,,,,,,,,,,,,,,,6999.676999999996,,timeout,,,,,,,,,,,,,,,,,,,,,258358,258356.455,251356.784,251359.39999997616,251373.351,258373.028,,,
screen,html.Screen,2_3_1_0_1_0,2022-05-03T11:25:39.492Z,,,,,,,,,,,,,,,,,12,,,,,,,,,,,,,,4426.571999964246,,response,,,,5,H,,,,,,Space,keypress(Space),,,,speech,,,,Some ------ ------ ------- ------ --- ------- -----------<br>-- ----- --- ---- -- --- ------ ---- - ---- -- ----------<br>-- ------ ---- --- ---- --- --- --- ----- -- -------- ---<br>------ ------- -------- --- ---- -- ------- ------------ --<br>------ -- ---- -- --- ---- -- -------- -- --- ------ ------,262802.1999999881,262799.59999996424,258356.455,258358.69999998808,258373.028,262806.054,,0,Some
screen,html.Screen,2_3_1_0_1_1,2022-05-03T11:25:40.025Z,,,,,,,,,,,,,,,,,12,,,,,,,,,,,,,,526.7460000119172,,response,,,,5,H,,,,,,Space,keypress(Space),,,,speech,,,,---- months ------ ------- ------ --- ------- -----------<br>-- ----- --- ---- -- --- ------ ---- - ---- -- ----------<br>-- ------ ---- --- ---- --- --- --- ----- -- -------- ---<br>------ ------- -------- --- ---- -- ------- ------------ --<br>------ -- ---- -- --- ---- -- -------- -- --- ------ ------,263334.3000000119,263332.8000000119,262789.199,262802.59999996424,262806.054,263339.344,,1,months
screen,html.Screen,2_3_1_0_1_2,2022-05-03T11:25:40.378Z,,,,,,,,,,,,,,,,,12,,,,,,,,,,,,,,346.45600001193816,,response,,,,5,H,,,,,,Space,keypress(Space),,,,speech,,,,"---- ------ later, ------- ------ --- ------- -----------<br>-- ----- --- ---- -- --- ------ ---- - ---- -- ----------<br>-- ------ ---- --- ---- --- --- --- ----- -- -------- ---<br>------ ------- -------- --- ---- -- ------- ------------ --<br>------ -- ---- -- --- ---- -- -------- -- --- ------ ------",263687.3000000119,263685.8000000119,263322.879,263334.8000000119,263339.344,263710.94,,2,"later,"
screen,html.Screen,2_3_1_0_1_3,2022-05-03T11:25:40.794Z,,,,,,,,,,,,,,,,,12,,,,,,,,,,,,,,390.8600000119186,,response,,,,5,H,,,,,,Space,keypress(Space),,,,speech,,,,---- ------ ------ Michael ------ --- ------- -----------<br>-- ----- --- ---- -- --- ------ ---- - ---- -- ----------<br>-- ------ ---- --- ---- --- --- --- ----- -- -------- ---<br>------ ------- -------- --- ---- -- ------- ------------ --<br>------ -- ---- -- --- ---- -- -------- -- --- ------ ------,264103.59999996424,264101.8000000119,263672.847,263687.8000000119,263710.94,264130.501,,3,Michael
screen,html.Screen,2_3_1_0_1_4,2022-05-03T11:25:41.124Z,,,,,,,,,,,,,,,,,12,,,,,,,,,,,,,,301.5989999642479,,response,,,,5,H,,,,,,Space,keypress(Space),,,,speech,,,,---- ------ ------ ------- Larson --- ------- -----------<br>-- ----- --- ---- -- --- ------ ---- - ---- -- ----------<br>-- ------ ---- --- ---- --- --- --- ----- -- -------- ---<br>------ ------- -------- --- ---- -- ------- ------------ --<br>------ -- ---- -- --- ---- -- -------- -- --- ------ ------,264433.59999996424,264432.09999996424,264089.496,264104.09999996424,264130.501,264439.362,,4,Larson
screen,html.Screen,2_3_1_0_1_5,2022-05-03T11:25:41.734Z,,,,,,,,,,,,,,,,,12,,,,,,,,,,,,,,602.4380000118981,,response,,,,5,H,,,,,,Space,keypress(Space),,,,speech,,,,---- ------ ------ ------- ------ saw ------- -----------<br>-- ----- --- ---- -- --- ------ ---- - ---- -- ----------<br>-- ------ ---- --- ---- --- --- --- ----- -- -------- ---<br>------ ------- -------- --- ---- -- ------- ------------ --<br>------ -- ---- -- --- ---- -- -------- -- --- ------ ------,265043.39999997616,265041.8000000119,264422.819,264434,264439.362,265056.028,,5,saw
screen,html.Screen,2_3_1_0_1_6,2022-05-03T11:25:42.024Z,,,,,,,,,,,,,,,,,12,,,,,,,,,,,,,,275.7720000119298,,response,,,,5,H,,,,,,Space,keypress(Space),,,,speech,,,,---- ------ ------ ------- ------ --- another -----------<br>-- ----- --- ---- -- --- ------ ---- - ---- -- ----------<br>-- ------ ---- --- ---- --- --- --- ----- -- -------- ---<br>------ ------- -------- --- ---- -- ------- ------------ --<br>------ -- ---- -- --- ---- -- -------- -- --- ------ ------,265333.3000000119,265331.8000000119,265039.264,265043.8000000119,265056.028,265339.32,,6,another
screen,html.Screen,2_3_1_0_1_7,2022-05-03T11:25:42.243Z,,,,,,,,,,,,,,,,,12,,,,,,,,,,,,,,211.77999996423023,,response,,,,5,H,,,,,,Space,keypress(Space),,,,speech,,,,---- ------ ------ ------- ------ --- ------- opportunity<br>-- ----- --- ---- -- --- ------ ---- - ---- -- ----------<br>-- ------ ---- --- ---- --- --- --- ----- -- -------- ---<br>------ ------- -------- --- ---- -- ------- ------------ --<br>------ -- ---- -- --- ---- -- -------- -- --- ------ ------,265552.8000000119,265551.09999996424,265322.719,265333.8000000119,265339.32,265556.006,,7,opportunity
screen,html.Screen,2_3_1_0_1_8,2022-05-03T11:25:42.709Z,,,,,,,,,,,,,,,,,12,,,,,,,,,,,,,,461.09399996424327,,response,,,,5,H,,,,,,Space,keypress(Space),,,,speech,,,,---- ------ ------ ------- ------ --- ------- -----------<br>to ----- --- ---- -- --- ------ ---- - ---- -- ----------<br>-- ------ ---- --- ---- --- --- --- ----- -- -------- ---<br>------ ------- -------- --- ---- -- ------- ------------ --<br>------ -- ---- -- --- ---- -- -------- -- --- ------ ------,266018.6999999881,266017.09999996424,265539.445,265553.3000000119,265556.006,266022.66,,8,to
screen,html.Screen,2_3_1_0_1_9,2022-05-03T11:25:43.243Z,,,,,,,,,,,,,,,,,12,,,,,,,,,,,,,,527.9399999642628,,response,,,,5,H,,,,,,Space,keypress(Space),,,,speech,,,,---- ------ ------ ------- ------ --- ------- -----------<br>-- stack --- ---- -- --- ------ ---- - ---- -- ----------<br>-- ------ ---- --- ---- --- --- --- ----- -- -------- ---<br>------ ------- -------- --- ---- -- ------- ------------ --<br>------ -- ---- -- --- ---- -- -------- -- --- ------ ------,266552.8000000119,266550.59999996424,266006.079,266019.1999999881,266022.66,266555.946,,9,stack
screen,html.Screen,2_3_1_0_1_10,2022-05-03T11:25:43.611Z,,,,,,,,,,,,,,,,,12,,,,,,,,,,,,,,362.95399997616187,,response,,,,5,H,,,,,,Space,keypress(Space),,,,speech,,,,---- ------ ------ ------- ------ --- ------- -----------<br>-- ----- the ---- -- --- ------ ---- - ---- -- ----------<br>-- ------ ---- --- ---- --- --- --- ----- -- -------- ---<br>------ ------- -------- --- ---- -- ------- ------------ --<br>------ -- ---- -- --- ---- -- -------- -- --- ------ ------,266920.59999996424,266918.89999997616,266539.365,266553.09999996424,266555.946,266940.38,,10,the
screen,html.Screen,2_3_1_0_1_11,2022-05-03T11:25:43.796Z,,,,,,,,,,,,,,,,,12,,,,,,,,,,,,,,163.51999997615349,,response,,,,5,H,,,,,,Space,keypress(Space),,,,speech,,,,---- ------ ------ ------- ------ --- ------- -----------<br>-- ----- --- odds -- --- ------ ---- - ---- -- ----------<br>-- ------ ---- --- ---- --- --- --- ----- -- -------- ---<br>------ ------- -------- --- ---- -- ------- ------------ --<br>------ -- ---- -- --- ---- -- -------- -- --- ------ ------,267105.5,267103.89999997616,266906.001,266921,266940.38,267122.815,,11,odds
screen,html.Screen,2_3_1_0_1_12,2022-05-03T11:25:44.123Z,,,,,,,,,,,,,,,,,12,,,,,,,,,,,,,,307.6849999999977,,response,,,,5,H,,,,,,Space,keypress(Space),,,,speech,,,,---- ------ ------ ------- ------ --- ------- -----------<br>-- ----- --- ---- in --- ------ ---- - ---- -- ----------<br>-- ------ ---- --- ---- --- --- --- ----- -- -------- ---<br>------ ------- -------- --- ---- -- ------- ------------ --<br>------ -- ---- -- --- ---- -- -------- -- --- ------ ------,267432.5,267430.5,267105.818,267106,267122.815,267439.187,,12,in
screen,html.Screen,2_3_1_0_1_13,2022-05-03T11:25:44.368Z,,,,,,,,,,,,,,,,,12,,,,,,,,,,,,,,237.31300000002375,,response,,,,5,H,,,,,,Space,keypress(Space),,,,speech,,,,---- ------ ------ ------- ------ --- ------- -----------<br>-- ----- --- ---- -- his ------ ---- - ---- -- ----------<br>-- ------ ---- --- ---- --- --- --- ----- -- -------- ---<br>------ ------- -------- --- ---- -- ------- ------------ --<br>------ -- ---- -- --- ---- -- -------- -- --- ------ ------,267678.1999999881,267676.5,267422.671,267432.89999997616,267439.187,267689.176,,13,his
screen,html.Screen,2_3_1_0_1_14,2022-05-03T11:25:44.649Z,,,,,,,,,,,,,,,,,12,,,,,,,,,,,,,,268.42399996425956,,response,,,,5,H,,,,,,Space,keypress(Space),,,,speech,,,,---- ------ ------ ------- ------ --- ------- -----------<br>-- ----- --- ---- -- --- favour ---- - ---- -- ----------<br>-- ------ ---- --- ---- --- --- --- ----- -- -------- ---<br>------ ------- -------- --- ---- -- ------- ------------ --<br>------ -- ---- -- --- ---- -- -------- -- --- ------ ------,267959.3000000119,267957.59999996424,267672.394,267681,267689.176,267972.44,,14,favour
screen,html.Screen,2_3_1_0_1_15,2022-05-03T11:25:45.021Z,,,,,,,,,,,,,,,,,12,,,,,,,,,,,,,,356.3600000119186,,response,,,,5,H,,,,,,Space,keypress(Space),,,,speech,,,,---- ------ ------ ------- ------ --- ------- -----------<br>-- ----- --- ---- -- --- ------ with - ---- -- ----------<br>-- ------ ---- --- ---- --- --- --- ----- -- -------- ---<br>------ ------- -------- --- ---- -- ------- ------------ --<br>------ -- ---- -- --- ---- -- -------- -- --- ------ ------,268330.59999996424,268328.8000000119,267955.984,267959.59999996424,267972.44,268339.167,,15,with
screen,html.Screen,2_3_1_0_1_16,2022-05-03T11:25:45.252Z,,,,,,,,,,,,,,,,,12,,,,,,,,,,,,,,220.7329999761423,,response,,,,5,H,,,,,,Space,keypress(Space),,,,speech,,,,---- ------ ------ ------- ------ --- ------- -----------<br>-- ----- --- ---- -- --- ------ ---- a ---- -- ----------<br>-- ------ ---- --- ---- --- --- --- ----- -- -------- ---<br>------ ------- -------- --- ---- -- ------- ------------ --<br>------ -- ---- -- --- ---- -- -------- -- --- ------ ------,268561.8000000119,268559.89999997616,268322.621,268331.59999996424,268339.167,268572.54,,16,a
screen,html.Screen,2_3_1_0_1_17,2022-05-03T11:25:45.561Z,,,,,,,,,,,,,,,,,12,,,,,,,,,,,,,,296.55999996425817,,response,,,,5,H,,,,,,Space,keypress(Space),,,,speech,,,,---- ------ ------ ------- ------ --- ------- -----------<br>-- ----- --- ---- -- --- ------ ---- - dash -- ----------<br>-- ------ ---- --- ---- --- --- --- ----- -- -------- ---<br>------ ------- -------- --- ---- -- ------- ------------ --<br>------ -- ---- -- --- ---- -- -------- -- --- ------ ------,268870.8000000119,268869.09999996424,268555.952,268562.1999999881,268572.54,268906.05,,17,dash
screen,html.Screen,2_3_1_0_1_18,2022-05-03T11:25:45.953Z,,,,,,,,,,,,,,,,,12,,,,,,,,,,,,,,354.8499999761698,,response,,,,5,H,,,,,,Space,keypress(Space),,,,speech,,,,---- ------ ------ ------- ------ --- ------- -----------<br>-- ----- --- ---- -- --- ------ ---- - ---- of ----------<br>-- ------ ---- --- ---- --- --- --- ----- -- -------- ---<br>------ ------- -------- --- ---- -- ------- ------------ --<br>------ -- ---- -- --- ---- -- -------- -- --- ------ ------,269262.8000000119,269260.89999997616,268889.284,268871.1999999881,268906.05,269272.407,,18,of
screen,html.Screen,2_3_1_0_1_19,2022-05-03T11:25:46.216Z,,,,,,,,,,,,,,,,,12,,,,,,,,,,,,,,252.49299997615162,,response,,,,5,H,,,,,,Space,keypress(Space),,,,speech,,,,---- ------ ------ ------- ------ --- ------- -----------<br>-- ----- --- ---- -- --- ------ ---- - ---- -- ingenuity.<br>-- ------ ---- --- ---- --- --- --- ----- -- -------- ---<br>------ ------- -------- --- ---- -- ------- ------------ --<br>------ -- ---- -- --- ---- -- -------- -- --- ------ ------,269525.89999997616,269524.89999997616,269255.88,269263.09999996424,269272.407,269539.243,,19,ingenuity.
screen,html.Screen,2_3_1_0_1_20,2022-05-03T11:25:46.814Z,,,,,,,,,,,,,,,,,12,,,,,,,,,,,,,,582.8569999642204,,response,,,,5,H,,,,,,Space,keypress(Space),,,,speech,,,,---- ------ ------ ------- ------ --- ------- -----------<br>-- ----- --- ---- -- --- ------ ---- - ---- -- ----------<br>He ------ ---- --- ---- --- --- --- ----- -- -------- ---<br>------ ------- -------- --- ---- -- ------- ------------ --<br>------ -- ---- -- --- ---- -- -------- -- --- ------ ------,270123.89999997616,270122.09999996424,269522.57,269526.09999996424,269539.243,270139.328,,20,He
screen,html.Screen,2_3_1_0_1_21,2022-05-03T11:25:47.183Z,,,,,,,,,,,,,,,,,12,,,,,,,,,,,,,,352.9720000119414,,response,,,,5,H,,,,,,Space,keypress(Space),,,,speech,,,,---- ------ ------ ------- ------ --- ------- -----------<br>-- ----- --- ---- -- --- ------ ---- - ---- -- ----------<br>-- walked ---- --- ---- --- --- --- ----- -- -------- ---<br>------ ------- -------- --- ---- -- ------- ------------ --<br>------ -- ---- -- --- ---- -- -------- -- --- ------ ------,270493.09999996424,270492.3000000119,270122.512,270124.5,270139.328,270505.759,,21,walked
screen,html.Screen,2_3_1_0_1_22,2022-05-03T11:25:47.521Z,,,,,,,,,,,,,,,,,12,,,,,,,,,,,,,,323.1409999761381,,response,,,,5,H,,,,,,Space,keypress(Space),,,,speech,,,,---- ------ ------ ------- ------ --- ------- -----------<br>-- ----- --- ---- -- --- ------ ---- - ---- -- ----------<br>-- ------ into --- ---- --- --- --- ----- -- -------- ---<br>------ ------- -------- --- ---- -- ------- ------------ --<br>------ -- ---- -- --- ---- -- -------- -- --- ------ ------,270830.6999999881,270828.89999997616,270489.182,270493.3000000119,270505.759,270855.963,,22,into
screen,html.Screen,2_3_1_0_1_23,2022-05-03T11:25:47.758Z,,,,,,,,,,,,,,,,,12,,,,,,,,,,,,,,209.73699998809025,,response,,,,5,H,,,,,,Space,keypress(Space),,,,speech,,,,---- ------ ------ ------- ------ --- ------- -----------<br>-- ----- --- ---- -- --- ------ ---- - ---- -- ----------<br>-- ------ ---- his ---- --- --- --- ----- -- -------- ---<br>------ ------- -------- --- ---- -- ------- ------------ --<br>------ -- ---- -- --- ---- -- -------- -- --- ------ ------,271067.39999997616,271065.6999999881,270822.329,270831.1999999881,270855.963,271072.429,,23,his
screen,html.Screen,2_3_1_0_1_24,2022-05-03T11:25:48.002Z,,,,,,,,,,,,,,,,,12,,,,,,,,,,,,,,237.47099997615442,,response,,,,5,H,,,,,,Space,keypress(Space),,,,speech,,,,---- ------ ------ ------- ------ --- ------- -----------<br>-- ----- --- ---- -- --- ------ ---- - ---- -- ----------<br>-- ------ ---- --- bank --- --- --- ----- -- -------- ---<br>------ ------- -------- --- ---- -- ------- ------------ --<br>------ -- ---- -- --- ---- -- -------- -- --- ------ ------,271311.6999999881,271309.89999997616,271055.85,271067.8000000119,271072.429,271322.396,,24,bank
screen,html.Screen,2_3_1_0_1_25,2022-05-03T11:25:48.081Z,,,,,,,,,,,,,,,,,12,,,,,,,,,,,,,,66.50399997615023,,response,,,,5,H,,,,,,Space,keypress(Space),,,,speech,,,,---- ------ ------ ------- ------ --- ------- -----------<br>-- ----- --- ---- -- --- ------ ---- - ---- -- ----------<br>-- ------ ---- --- ---- one --- --- ----- -- -------- ---<br>------ ------- -------- --- ---- -- ------- ------------ --<br>------ -- ---- -- --- ---- -- -------- -- --- ------ ------,271390.59999996424,271388.89999997616,271305.826,271312.1999999881,271322.396,271405.957,,25,one
screen,html.Screen,2_3_1_0_1_26,2022-05-03T11:25:48.267Z,,,,,,,,,,,,,,,,,12,,,,,,,,,,,,,,169.64299996424234,,response,,,,5,H,,,,,,Space,keypress(Space),,,,speech,,,,---- ------ ------ ------- ------ --- ------- -----------<br>-- ----- --- ---- -- --- ------ ---- - ---- -- ----------<br>-- ------ ---- --- ---- --- day --- ----- -- -------- ---<br>------ ------- -------- --- ---- -- ------- ------------ --<br>------ -- ---- -- --- ---- -- -------- -- --- ------ ------,271577.1999999881,271575.59999996424,271389.165,271391,271405.957,271588.986,,26,day
screen,html.Screen,2_3_1_0_1_27,2022-05-03T11:25:48.628Z,,,,,,,,,,,,,,,,,12,,,,,,,,,,,,,,347.6139999642619,,response,,,,5,H,,,,,,Space,keypress(Space),,,,speech,,,,---- ------ ------ ------- ------ --- ------- -----------<br>-- ----- --- ---- -- --- ------ ---- - ---- -- ----------<br>-- ------ ---- --- ---- --- --- and ----- -- -------- ---<br>------ ------- -------- --- ---- -- ------- ------------ --<br>------ -- ---- -- --- ---- -- -------- -- --- ------ ------,271938.1999999881,271936.59999996424,271572.506,271577.59999996424,271588.986,271955.908,,27,and
screen,html.Screen,2_3_1_0_1_28,2022-05-03T11:25:49.035Z,,,,,,,,,,,,,,,,,12,,,,,,,,,,,,,,387.5920000000042,,response,,,,5,H,,,,,,Space,keypress(Space),,,,speech,,,,---- ------ ------ ------- ------ --- ------- -----------<br>-- ----- --- ---- -- --- ------ ---- - ---- -- ----------<br>-- ------ ---- --- ---- --- --- --- asked -- -------- ---<br>------ ------- -------- --- ---- -- ------- ------------ --<br>------ -- ---- -- --- ---- -- -------- -- --- ------ ------,272345.09999996424,272343.5,271939.102,271938.59999996424,271955.908,272355.682,,28,asked
screen,html.Screen,2_3_1_0_1_29,2022-05-03T11:25:49.379Z,,,,,,,,,,,,,,,,,12,,,,,,,,,,,,,,330.9179999642656,,response,,,,5,H,,,,,,Space,keypress(Space),,,,speech,,,,---- ------ ------ ------- ------ --- ------- -----------<br>-- ----- --- ---- -- --- ------ ---- - ---- -- ----------<br>-- ------ ---- --- ---- --- --- --- ----- to -------- ---<br>------ ------- -------- --- ---- -- ------- ------------ --<br>------ -- ---- -- --- ---- -- -------- -- --- ------ ------,272688.3000000119,272686.59999996424,272339.109,272345.59999996424,272355.682,272705.871,,29,to
screen,html.Screen,2_3_1_0_1_30,2022-05-03T11:25:49.670Z,,,,,,,,,,,,,,,,,12,,,,,,,,,,,,,,272.32899998809444,,response,,,,5,H,,,,,,Space,keypress(Space),,,,speech,,,,---- ------ ------ ------- ------ --- ------- -----------<br>-- ----- --- ---- -- --- ------ ---- - ---- -- ----------<br>-- ------ ---- --- ---- --- --- --- ----- -- withdraw ---<br>------ ------- -------- --- ---- -- ------- ------------ --<br>------ -- ---- -- --- ---- -- -------- -- --- ------ ------,272979.89999997616,272978.1999999881,272689.049,272688.8000000119,272705.871,272988.936,,30,withdraw
screen,html.Screen,2_3_1_0_1_31,2022-05-03T11:25:49.894Z,,,,,,,,,,,,,,,,,12,,,,,,,,,,,,,,212.7639999880921,,response,,,,5,H,,,,,,Space,keypress(Space),,,,speech,,,,---- ------ ------ ------- ------ --- ------- -----------<br>-- ----- --- ---- -- --- ------ ---- - ---- -- ----------<br>-- ------ ---- --- ---- --- --- --- ----- -- -------- his<br>------ ------- -------- --- ---- -- ------- ------------ --<br>------ -- ---- -- --- ---- -- -------- -- --- ------ ------,273203.3000000119,273201.6999999881,272972.402,272980.39999997616,272988.936,273230.523,,31,his
screen,html.Screen,2_3_1_0_1_32,2022-05-03T11:25:50.332Z,,,,,,,,,,,,,,,,,12,,,,,,,,,,,,,,409.4770000000135,,response,,,,5,H,,,,,,Space,keypress(Space),,,,speech,,,,---- ------ ------ ------- ------ --- ------- -----------<br>-- ----- --- ---- -- --- ------ ---- - ---- -- ----------<br>-- ------ ---- --- ---- --- --- --- ----- -- -------- ---<br>entire ------- -------- --- ---- -- ------- ------------ --<br>------ -- ---- -- --- ---- -- -------- -- --- ------ ------,273642.09999996424,273640,273189.09,273203.6999999881,273230.523,273655.627,,32,entire
screen,html.Screen,2_3_1_0_1_33,2022-05-03T11:25:50.647Z,,,,,,,,,,,,,,,,,12,,,,,,,,,,,,,,299.27299997617956,,response,,,,5,H,,,,,,Space,keypress(Space),,,,speech,,,,---- ------ ------ ------- ------ --- ------- -----------<br>-- ----- --- ---- -- --- ------ ---- - ---- -- ----------<br>-- ------ ---- --- ---- --- --- --- ----- -- -------- ---<br>------ account -------- --- ---- -- ------- ------------ --<br>------ -- ---- -- --- ---- -- -------- -- --- ------ ------,273956.6999999881,273954.89999997616,273639.062,273642.5,273655.627,273972.468,,33,account
screen,html.Screen,2_3_1_0_1_34,2022-05-03T11:25:50.924Z,,,,,,,,,,,,,,,,,12,,,,,,,,,,,,,,259.13199996424373,,response,,,,5,H,,,,,,Space,keypress(Space),,,,speech,,,,"---- ------ ------ ------- ------ --- ------- -----------<br>-- ----- --- ---- -- --- ------ ---- - ---- -- ----------<br>-- ------ ---- --- ---- --- --- --- ----- -- -------- ---<br>------ ------- balance, --- ---- -- ------- ------------ --<br>------ -- ---- -- --- ---- -- -------- -- --- ------ ------",274233.39999997616,274231.59999996424,273955.685,273957.09999996424,273972.468,274238.913,,34,"balance,"
screen,html.Screen,2_3_1_0_1_35,2022-05-03T11:25:51.226Z,,,,,,,,,,,,,,,,,12,,,,,,,,,,,,,,295.4869999761577,,response,,,,5,H,,,,,,Space,keypress(Space),,,,speech,,,,---- ------ ------ ------- ------ --- ------- -----------<br>-- ----- --- ---- -- --- ------ ---- - ---- -- ----------<br>-- ------ ---- --- ---- --- --- --- ----- -- -------- ---<br>------ ------- -------- but ---- -- ------- ------------ --<br>------ -- ---- -- --- ---- -- -------- -- --- ------ ------,274535.5,274534.39999997616,274222.253,274233.8000000119,274238.913,274538.891,,35,but
screen,html.Screen,2_3_1_0_1_36,2022-05-03T11:25:51.535Z,,,,,,,,,,,,,,,,,12,,,,,,,,,,,,,,304.70899996423395,,response,,,,5,H,,,,,,Space,keypress(Space),,,,speech,,,,---- ------ ------ ------- ------ --- ------- -----------<br>-- ----- --- ---- -- --- ------ ---- - ---- -- ----------<br>-- ------ ---- --- ---- --- --- --- ----- -- -------- ---<br>------ ------- -------- --- with -- ------- ------------ --<br>------ -- ---- -- --- ---- -- -------- -- --- ------ ------,274845.3000000119,274843.59999996424,274522.211,274535.6999999881,274538.891,274855.453,,36,with
screen,html.Screen,2_3_1_0_1_37,2022-05-03T11:25:51.764Z,,,,,,,,,,,,,,,,,12,,,,,,,,,,,,,,216.1469999642577,,response,,,,5,H,,,,,,Space,keypress(Space),,,,speech,,,,---- ------ ------ ------- ------ --- ------- -----------<br>-- ----- --- ---- -- --- ------ ---- - ---- -- ----------<br>-- ------ ---- --- ---- --- --- --- ----- -- -------- ---<br>------ ------- -------- --- ---- an ------- ------------ --<br>------ -- ---- -- --- ---- -- -------- -- --- ------ ------,275073.5,275071.59999996424,274838.786,274845.6999999881,274855.453,275088.829,,37,an
screen,html.Screen,2_3_1_0_1_38,2022-05-03T11:25:52.013Z,,,,,,,,,,,,,,,,,12,,,,,,,,,,,,,,232.57099997613113,,response,,,,5,H,,,,,,Space,keypress(Space),,,,speech,,,,---- ------ ------ ------- ------ --- ------- -----------<br>-- ----- --- ---- -- --- ------ ---- - ---- -- ----------<br>-- ------ ---- --- ---- --- --- --- ----- -- -------- ---<br>------ ------- -------- --- ---- -- unusual ------------ --<br>------ -- ---- -- --- ---- -- -------- -- --- ------ ------,275323.1999999881,275321.39999997616,275072.305,275074.3000000119,275088.829,275339.064,,38,unusual
screen,html.Screen,2_3_1_0_1_39,2022-05-03T11:25:52.400Z,,,,,,,,,,,,,,,,,12,,,,,,,,,,,,,,368.8359999761451,,response,,,,5,H,,,,,,Space,keypress(Space),,,,speech,,,,---- ------ ------ ------- ------ --- ------- -----------<br>-- ----- --- ---- -- --- ------ ---- - ---- -- ----------<br>-- ------ ---- --- ---- --- --- --- ----- -- -------- ---<br>------ ------- -------- --- ---- -- ------- stipulation: --<br>------ -- ---- -- --- ---- -- -------- -- --- ------ ------,275709.5,275707.89999997616,275322.164,275323.59999996424,275339.064,275722.238,,39,stipulation:
screen,html.Screen,2_3_1_0_1_40,2022-05-03T11:25:52.860Z,,,,,,,,,,,,,,,,,12,,,,,,,,,,,,,,445.7619999999879,,response,,,,5,H,,,,,,Space,keypress(Space),,,,speech,,,,---- ------ ------ ------- ------ --- ------- -----------<br>-- ----- --- ---- -- --- ------ ---- - ---- -- ----------<br>-- ------ ---- --- ---- --- --- --- ----- -- -------- ---<br>------ ------- -------- --- ---- -- ------- ------------ He<br>------ -- ---- -- --- ---- -- -------- -- --- ------ ------,276169.89999997616,276168,275705.502,275709.89999997616,275722.238,276190.485,,40,He
screen,html.Screen,2_3_1_0_1_41,2022-05-03T11:25:53.211Z,,,,,,,,,,,,,,,,,12,,,,,,,,,,,,,,329.01500000001397,,response,,,,5,H,,,,,,Space,keypress(Space),,,,speech,,,,---- ------ ------ ------- ------ --- ------- -----------<br>-- ----- --- ---- -- --- ------ ---- - ---- -- ----------<br>-- ------ ---- --- ---- --- --- --- ----- -- -------- ---<br>------ ------- -------- --- ---- -- ------- ------------ --<br>wanted -- ---- -- --- ---- -- -------- -- --- ------ ------,276520.6999999881,276519.5,276155.597,276170.39999997616,276190.485,276540.142,,41,wanted
screen,html.Screen,2_3_1_0_1_42,2022-05-03T11:25:53.430Z,,,,,,,,,,,,,,,,,12,,,,,,,,,,,,,,198.35800000000745,,response,,,,5,H,,,,,,Space,keypress(Space),,,,speech,,,,---- ------ ------ ------- ------ --- ------- -----------<br>-- ----- --- ---- -- --- ------ ---- - ---- -- ----------<br>-- ------ ---- --- ---- --- --- --- ----- -- -------- ---<br>------ ------- -------- --- ---- -- ------- ------------ --<br>------ as ---- -- --- ---- -- -------- -- --- ------ ------,276740.09999996424,276738.5,276505.529,276520.89999997616,276540.142,276755.676,,42,as
