sender,sender_type,sender_id,timestamp,meta,,Blues,Classical,Country,Dance,Electronic,Folk,Gospel,Hip-Hop,Jazz,Latin,Musical/Film,New-age,Pop,Prolific_id,Provo_ID,R&B,Rap,Reggae,Religious,Rock,Soul,Swing,Traditional,age,artist_name,correct,correctResponse,distraction,duration,education,ended_on,familiarity,gender,headphone_check_performance,item,list,music_frequency,offensiveness,pleasantness,position_correct,preference,response,response_action,snippet_file,song_name,song_rating,sound,stimulus_1,stimulus_2,stimulus_3,text,time_commit,time_end,time_render,time_run,time_show,time_switch,url,word,word_ID
Prolific ID,html.Form,0,2022-05-03T18:27:23.081Z,"{""labjs_version"":""20.2.2"",""labjs_build"":{""flavor"":""production"",""commit"":""a25486e0c714a0ae2ce03ff94b7bb6896854dcfa""},""location"":""https://run.pavlovia.org/mvasilev/prolific3_music_a/"",""userAgent"":""Mozilla/5.0 (Windows NT 10.0; Win64; x64) AppleWebKit/537.36 (KHTML, like Gecko) Chrome/100.0.4896.127 Safari/537.36"",""platform"":""Win32"",""language"":""en-GB"",""locale"":""en-GB"",""timeZone"":""Europe/London"",""timezoneOffset"":-60,""screen_width"":1280,""screen_height"":720,""scroll_width"":1280,""scroll_height"":569,""window_innerWidth"":1280,""window_innerHeight"":569,""devicePixelRatio"":1.5}",,,,,,,,,,,,,,,60fc0d0d296b42c5fa1ffbf4,,,,,,,,,,,,,,,9091.648999904633,,form submission,,,,,,,,,,,,,,,,,,,,,18582.299999952316,18582.099999904633,9473.774,9461,9490.451,18583.742,{},,
Introduction,html.Screen,1_0,2022-05-03T18:28:22.603Z,,,,,,,,,,,,,,,,,,,,,,,,,,,,,,,59519.55799995232,,response,,,,,,,,,,,continue,click button,,,,,,,,,78105.09999990463,78103.29999995232,18567.083,18582.5,18583.742,78113.186,,,
Volume calibration,html.Screen,1_1,2022-05-03T18:28:36.651Z,,,,,,,,,,,,,,,,,,,,,,,,,,,,,,,14037.813999999998,,response,,,,,,,,,,,continue,click button,,,,,,,,,92153.19999992847,92151,78096.523,78105.09999990463,78113.186,92157.481,,,
Task instructions,html.Screen,1_2,2022-05-03T18:28:44.013Z,,,,,,,,,,,,,,,,,,,,,,,,,,,,,,,7356.8189999523165,,response,,,,,,,,,,,continue,click button,,,,,,,,,99515,99514.29999995232,92140.829,92153.19999992847,92157.481,99521.25,,,
Sounds,html.Screen,1_3_0_0,2022-05-03T18:28:48.253Z,,,,,,,,,,,,,,,,,,,,,,,,,,,,,,,4247.974000000002,,timeout,,,,,,,,,1,,,,,,,,S,I,O,,103755.09999990463,103752.566,99504.589,99515.09999990463,99521.25,103769.224,,,
Judgement,html.Screen,1_3_0_1,2022-05-03T18:28:50.194Z,,,,,,,,,,,,,,,,,,,,,,,,,,,,true,1,,1925.4759999284724,,response,,,,,,,,,1,,1,click #choice-1,,,,,S,I,O,,105695.5,105694.69999992847,103752.566,103755.09999990463,103769.224,105701.805,,,
Trial,flow.Sequence,1_3_0,2022-05-03T18:28:50.194Z,,,,,,,,,,,,,,,,,,,,,,,,,,,,,,,6173.449999928474,,completion,,,,,,,,,1,,,,,,,,S,I,O,,105695.69999992847,105694.69999992847,99504.589,99515,99521.25,105701.805,,,
Sounds,html.Screen,1_3_1_0,2022-05-03T18:28:54.433Z,,,,,,,,,,,,,,,,,,,,,,,,,,,,,,,4248.248000000007,,timeout,,,,,,,,,3,,,,,,,,I,O,S,,109934.59999990463,109933.395,105685.153,105695.69999992847,105701.805,109950.053,,,
Judgement,html.Screen,1_3_1_1,2022-05-03T18:28:55.449Z,,,,,,,,,,,,,,,,,,,,,,,,,,,,true,3,,1000.0469999046327,,response,,,,,,,,,3,,3,click #choice-3,,,,,I,O,S,,110950.79999995232,110950.09999990463,109933.395,109934.69999992847,109950.053,110966.386,,,
Trial,flow.Sequence,1_3_1,2022-05-03T18:28:55.449Z,,,,,,,,,,,,,,,,,,,,,,,,,,,,,,,5248.29499990464,,completion,,,,,,,,,3,,,,,,,,I,O,S,,110951,110950.09999990463,105685.153,105695.69999992847,105701.805,110966.386,,,
Sounds,html.Screen,1_3_2_0,2022-05-03T18:28:59.697Z,,,,,,,,,,,,,,,,,,,,,,,,,,,,,,,4248.372000000003,,timeout,,,,,,,,,3,,,,,,,,O,I,S,,115198.69999992847,115198.099,110949.731,110951.09999990463,110966.386,115214.758,,,
Judgement,html.Screen,1_3_2_1,2022-05-03T18:29:00.687Z,,,,,,,,,,,,,,,,,,,,,,,,,,,,true,3,,973.9419999284728,,response,,,,,,,,,3,,3,click #choice-3,,,,,O,I,S,,116189.29999995232,116188.69999992847,115198.099,115198.79999995232,115214.758,116197.982,,,
Trial,flow.Sequence,1_3_2,2022-05-03T18:29:00.688Z,,,,,,,,,,,,,,,,,,,,,,,,,,,,,,,5222.313999928476,,completion,,,,,,,,,3,,,,,,,,O,I,S,,116189.39999997616,116188.69999992847,110949.731,110951.09999990463,110966.386,116197.982,,,
Sounds,html.Screen,1_3_3_0,2022-05-03T18:29:04.929Z,,,,,,,,,,,,,,,,,,,,,,,,,,,,,,,4248.220000000001,,timeout,,,,,,,,,2,,,,,,,,I,S,O,,120431.19999992847,120429.561,116181.321,116189.5,116197.982,120446.202,,,
Judgement,html.Screen,1_3_3_1,2022-05-03T18:29:05.651Z,,,,,,,,,,,,,,,,,,,,,,,,,,,,true,2,,706.1979999761534,,response,,,,,,,,,2,,2,click #choice-2,,,,,I,S,O,,121153,121152.39999997616,120429.561,120431.19999992847,120446.202,121179.218,,,
Trial,flow.Sequence,1_3_3,2022-05-03T18:29:05.651Z,,,,,,,,,,,,,,,,,,,,,,,,,,,,,,,4954.4179999761545,,completion,,,,,,,,,2,,,,,,,,I,S,O,,121153.09999990463,121152.39999997616,116181.321,116189.39999997616,116197.982,121179.218,,,
Sounds,html.Screen,1_3_4_0,2022-05-03T18:29:09.910Z,,,,,,,,,,,,,,,,,,,,,,,,,,,,,,,4248.8110000000015,,timeout,,,,,,,,,2,,,,,,,,O,S,I,,125412,125411.367,121162.559,121153.09999990463,121179.218,125428.029,,,
Judgement,html.Screen,1_3_4_1,2022-05-03T18:29:10.709Z,,,,,,,,,,,,,,,,,,,,,,,,,,,,true,2,,782.471000000005,,response,,,,,,,,,2,,2,click #choice-2,,,,,O,S,I,,126211.09999990463,126210.5,125411.367,125412.09999990463,125428.029,126227.158,,,
Trial,flow.Sequence,1_3_4,2022-05-03T18:29:10.709Z,,,,,,,,,,,,,,,,,,,,,,,,,,,,,,,5031.2820000000065,,completion,,,,,,,,,2,,,,,,,,O,S,I,,126211.09999990463,126210.5,121162.559,121153.09999990463,121179.218,126227.158,,,
Sounds,html.Screen,1_3_5_0,2022-05-03T18:29:14.957Z,,,,,,,,,,,,,,,,,,,,,,,,,,,,,,,4248.635999999999,,timeout,,,,,,,,,1,,,,,,,,S,O,I,,130459.29999995232,130458.802,126210.502,126211.19999992847,126227.158,130475.794,,,
Judgement,html.Screen,1_3_5_1,2022-05-03T18:29:15.659Z,,,,,,,,,,,,,,,,,,,,,,,,,,,,true,1,,684.5059999523219,,response,,,,,,,,,1,,1,click #choice-1,,,,,S,O,I,,131161,131160.29999995232,130458.802,130459.29999995232,130475.794,131191.888,,,
Trial,flow.Sequence,1_3_5,2022-05-03T18:29:15.659Z,,,,,,,,,,,,,,,,,,,,,,,,,,,,,,,4933.1419999523205,,completion,,,,,,,,,1,,,,,,,,S,O,I,,131161,131160.29999995232,126210.502,126211.19999992847,126227.158,131191.888,,,
Task,flow.Loop,1_3,2022-05-03T18:29:15.662Z,,,,,,,,,,,,,,,,,,,,,,,,,,,,,,,31639.049999952316,,completion,,,1,,,,,,,,,,,,,,,,,,131163.79999995232,131160.29999995232,99504.589,99515,99521.25,131191.888,,,
Trap,html.Screen,1_4,2022-05-03T18:29:15.663Z,,,,,,,,,,,,,,,,,,,,,,,,,,,,,,,NaN,,skipped,,,,,,,,,,,,,,,,,,,,,131164.5,131160.29999995232,,131164.39999997616,,131191.888,,,
Thanks,html.Screen,1_5,2022-05-03T18:29:20.646Z,,,,,,,,,,,,,,,,,,,,,,,,,,,,,,,4955.41199995231,,response,,,,,,,,,,,continue,click button,,,,,,,,,136147.79999995232,136147.29999995232,131175.231,131164.59999990463,131191.888,139754.967,,,
Headphone screening,flow.Sequence,1,2022-05-03T18:29:20.646Z,,,,,,,,,,,,,,,,,,,,,,,,,,,,,,,117563.55799995232,,completion,,,,,,,,,,,,,,,,,,,,,136147.89999997616,136147.29999995232,18567.083,18582.5,18583.742,139754.967,,,
Instructions,html.Page,2_0,2022-05-03T18:29:43.878Z,,,,,,,,,,,,,,,,,,,,,,,,,,,,,,,19624.832999952312,,form submission,,,,,,,,,,,,,,,,,,,,,159380,159379.79999995232,139738.311,139764,139754.967,159397.275,,,
Holding screen,html.Screen,2_1_0_0,2022-05-03T18:29:53.874Z,,,,,,,,,,,,,,,,,,,,,,,,,,,,,,,9994.382000000012,,timeout,,,,,,,,,,,,,,,,,,,,,169376.29999995232,169375.011,159380.698,159380.09999990463,159397.275,169391.657,,,
screen,html.Screen,2_1_0_1_0,2022-05-03T18:29:54.750Z,,,,,,,,,,,,,,,,,53,,,,,,,,,,,,,,858.442999904626,,response,,,,99,,,,,,,Space,keypress(Space),,,,,,,,When -- ----- -- ------ - ------- --- ----------<br>------------- ------ ------ ---- ---- ------- ----- -- ----<br>-------- ------- -- ---------- --- - --- ----- ----- ----<br>---- --- --- ----- --- ---- ---- ------- ----- ---- -------<br>--- --- -- ----- -- --- ---- -- --- ---- -- ------ ------<br>--- ----- -- ----,170251.59999990463,170250.09999990463,169375.011,169376.39999997616,169391.657,170259.315,,0,When
screen,html.Screen,2_1_0_1_1,2022-05-03T18:29:55.243Z,,,,,,,,,,,,,,,,,53,,,,,,,,,,,,,,485.6849999999977,,response,,,,99,,,,,,,Space,keypress(Space),,,,,,,,---- it ----- -- ------ - ------- --- ----------<br>------------- ------ ------ ---- ---- ------- ----- -- ----<br>-------- ------- -- ---------- --- - --- ----- ----- ----<br>---- --- --- ----- --- ---- ---- ------- ----- ---- -------<br>--- --- -- ----- -- --- ---- -- --- ---- -- ------ ------<br>--- ----- -- ----,170745.39999997616,170745,170242.658,170251.69999992847,170259.315,170759.274,,1,it
screen,html.Screen,2_1_0_1_2,2022-05-03T18:29:55.749Z,,,,,,,,,,,,,,,,,53,,,,,,,,,,,,,,490.7259999999951,,response,,,,99,,,,,,,Space,keypress(Space),,,,,,,,---- -- comes -- ------ - ------- --- ----------<br>------------- ------ ------ ---- ---- ------- ----- -- ----<br>-------- ------- -- ---------- --- - --- ----- ----- ----<br>---- --- --- ----- --- ---- ---- ------- ----- ---- -------<br>--- --- -- ----- -- --- ---- -- --- ---- -- ------ ------<br>--- ----- -- ----,171250.5,171250,170742.615,170745.5,170759.274,171258.875,,2,comes
screen,html.Screen,2_1_0_1_3,2022-05-03T18:29:56.199Z,,,,,,,,,,,,,,,,,53,,,,,,,,,,,,,,441.3249999284744,,response,,,,99,,,,,,,Space,keypress(Space),,,,,,,,---- -- ----- to ------ - ------- --- ----------<br>------------- ------ ------ ---- ---- ------- ----- -- ----<br>-------- ------- -- ---------- --- - --- ----- ----- ----<br>---- --- --- ----- --- ---- ---- ------- ----- ---- -------<br>--- --- -- ----- -- --- ---- -- --- ---- -- ------ ------<br>--- ----- -- ----,171700.5,171700.19999992847,171242.22,171250.59999990463,171258.875,171709.178,,3,to
screen,html.Screen,2_1_0_1_4,2022-05-03T18:29:56.653Z,,,,,,,,,,,,,,,,,53,,,,,,,,,,,,,,445.62199995230185,,response,,,,99,,,,,,,Space,keypress(Space),,,,,,,,---- -- ----- -- having - ------- --- ----------<br>------------- ------ ------ ---- ---- ------- ----- -- ----<br>-------- ------- -- ---------- --- - --- ----- ----- ----<br>---- --- --- ----- --- ---- ---- ------- ----- ---- -------<br>--- --- -- ----- -- --- ---- -- --- ---- -- ------ ------<br>--- ----- -- ----,172155.29999995232,172154.79999995232,171692.519,171700.69999992847,171709.178,172158.736,,4,having
screen,html.Screen,2_1_0_1_5,2022-05-03T18:29:57.074Z,,,,,,,,,,,,,,,,,53,,,,,,,,,,,,,,416.56399995231186,,response,,,,99,,,,,,,Space,keypress(Space),,,,,,,,---- -- ----- -- ------ a ------- --- ----------<br>------------- ------ ------ ---- ---- ------- ----- -- ----<br>-------- ------- -- ---------- --- - --- ----- ----- ----<br>---- --- --- ----- --- ---- ---- ------- ----- ---- -------<br>--- --- -- ----- -- --- ---- -- --- ---- -- ------ ------<br>--- ----- -- ----,172575.79999995232,172575.29999995232,172142.08,172155.39999997616,172158.736,172592.15,,5,a
screen,html.Screen,2_1_0_1_6,2022-05-03T18:29:57.524Z,,,,,,,,,,,,,,,,,53,,,,,,,,,,,,,,433.04999992848025,,response,,,,99,,,,,,,Space,keypress(Space),,,,,,,,---- -- ----- -- ------ - lasting --- ----------<br>------------- ------ ------ ---- ---- ------- ----- -- ----<br>-------- ------- -- ---------- --- - --- ----- ----- ----<br>---- --- --- ----- --- ---- ---- ------- ----- ---- -------<br>--- --- -- ----- -- --- ---- -- --- ---- -- ------ ------<br>--- ----- -- ----,173025.59999990463,173025.19999992847,172575.494,172575.89999997616,172592.15,173041.905,,6,lasting
screen,html.Screen,2_1_0_1_7,2022-05-03T18:29:58.059Z,,,,,,,,,,,,,,,,,53,,,,,,,,,,,,,,518.4949999761593,,response,,,,99,,,,,,,Space,keypress(Space),,,,,,,,---- -- ----- -- ------ - ------- and ----------<br>------------- ------ ------ ---- ---- ------- ----- -- ----<br>-------- ------- -- ---------- --- - --- ----- ----- ----<br>---- --- --- ----- --- ---- ---- ------- ----- ---- -------<br>--- --- -- ----- -- --- ---- -- --- ---- -- ------ ------<br>--- ----- -- ----,173560.69999992847,173560.39999997616,173025.244,173025.59999990463,173041.905,173575.528,,7,and
screen,html.Screen,2_1_0_1_8,2022-05-03T18:29:58.505Z,,,,,,,,,,,,,,,,,53,,,,,,,,,,,,,,430.871999976167,,response,,,,99,,,,,,,Space,keypress(Space),,,,,,,,---- -- ----- -- ------ - ------- --- fulfilling<br>------------- ------ ------ ---- ---- ------- ----- -- ----<br>-------- ------- -- ---------- --- - --- ----- ----- ----<br>---- --- --- ----- --- ---- ---- ------- ----- ---- -------<br>--- --- -- ----- -- --- ---- -- --- ---- -- ------ ------<br>--- ----- -- ----,174006.79999995232,174006.39999997616,173558.857,173560.79999995232,173575.528,174008.012,,8,fulfilling
screen,html.Screen,2_1_0_1_9,2022-05-03T18:29:58.950Z,,,,,,,,,,,,,,,,,53,,,,,,,,,,,,,,442.9880000000121,,response,,,,99,,,,,,,Space,keypress(Space),,,,,,,,"---- -- ----- -- ------ - ------- --- ----------<br>relationship, ------ ------ ---- ---- ------- ----- -- ----<br>-------- ------- -- ---------- --- - --- ----- ----- ----<br>---- --- --- ----- --- ---- ---- ------- ----- ---- -------<br>--- --- -- ----- -- --- ---- -- --- ---- -- ------ ------<br>--- ----- -- ----",174451.5,174451,173991.355,174006.89999997616,174008.012,174457.808,,9,"relationship,"
screen,html.Screen,2_1_0_1_10,2022-05-03T18:29:59.369Z,,,,,,,,,,,,,,,,,53,,,,,,,,,,,,,,412.69200000001,,response,,,,99,,,,,,,Space,keypress(Space),,,,,,,,---- -- ----- -- ------ - ------- --- ----------<br>------------- common ------ ---- ---- ------- ----- -- ----<br>-------- ------- -- ---------- --- - --- ----- ----- ----<br>---- --- --- ----- --- ---- ---- ------- ----- ---- -------<br>--- --- -- ----- -- --- ---- -- --- ---- -- ------ ------<br>--- ----- -- ----,174871.09999990463,174870.5,174441.149,174451.5,174457.808,174874.78,,10,common
screen,html.Screen,2_1_0_1_11,2022-05-03T18:29:59.796Z,,,,,,,,,,,,,,,,,53,,,,,,,,,,,,,,422.31999990463373,,response,,,,99,,,,,,,Space,keypress(Space),,,,,,,,---- -- ----- -- ------ - ------- --- ----------<br>------------- ------ wisdom ---- ---- ------- ----- -- ----<br>-------- ------- -- ---------- --- - --- ----- ----- ----<br>---- --- --- ----- --- ---- ---- ------- ----- ---- -------<br>--- --- -- ----- -- --- ---- -- --- ---- -- ------ ------<br>--- ----- -- ----,175297.59999990463,175297.09999990463,174858.115,174871.09999990463,174874.78,175307.725,,11,wisdom
screen,html.Screen,2_1_0_1_12,2022-05-03T18:30:00.276Z,,,,,,,,,,,,,,,,,53,,,,,,,,,,,,,,469.6749999761523,,response,,,,99,,,,,,,Space,keypress(Space),,,,,,,,---- -- ----- -- ------ - ------- --- ----------<br>------------- ------ ------ says ---- ------- ----- -- ----<br>-------- ------- -- ---------- --- - --- ----- ----- ----<br>---- --- --- ----- --- ---- ---- ------- ----- ---- -------<br>--- --- -- ----- -- --- ---- -- --- ---- -- ------ ------<br>--- ----- -- ----,175777.79999995232,175777.39999997616,175291.06,175297.59999990463,175307.725,175791.314,,12,says
screen,html.Screen,2_1_0_1_13,2022-05-03T18:30:00.706Z,,,,,,,,,,,,,,,,,53,,,,,,,,,,,,,,416.78599990461953,,response,,,,99,,,,,,,Space,keypress(Space),,,,,,,,---- -- ----- -- ------ - ------- --- ----------<br>------------- ------ ------ ---- that ------- ----- -- ----<br>-------- ------- -- ---------- --- - --- ----- ----- ----<br>---- --- --- ----- --- ---- ---- ------- ----- ---- -------<br>--- --- -- ----- -- --- ---- -- --- ---- -- ------ ------<br>--- ----- -- ----,176208.39999997616,176208.09999990463,175774.649,175777.89999997616,175791.314,176223.891,,13,that
screen,html.Screen,2_1_0_1_14,2022-05-03T18:30:01.094Z,,,,,,,,,,,,,,,,,53,,,,,,,,,,,,,,372.0089999761549,,response,,,,99,,,,,,,Space,keypress(Space),,,,,,,,---- -- ----- -- ------ - ------- --- ----------<br>------------- ------ ------ ---- ---- feeling ----- -- ----<br>-------- ------- -- ---------- --- - --- ----- ----- ----<br>---- --- --- ----- --- ---- ---- ------- ----- ---- -------<br>--- --- -- ----- -- --- ---- -- --- ---- -- ------ ------<br>--- ----- -- ----,176596.29999995232,176595.89999997616,176207.229,176208.5,176223.891,176606.768,,14,feeling
screen,html.Screen,2_1_0_1_15,2022-05-03T18:30:01.625Z,,,,,,,,,,,,,,,,,53,,,,,,,,,,,,,,519.5319999523053,,response,,,,99,,,,,,,Space,keypress(Space),,,,,,,,---- -- ----- -- ------ - ------- --- ----------<br>------------- ------ ------ ---- ---- ------- close -- ----<br>-------- ------- -- ---------- --- - --- ----- ----- ----<br>---- --- --- ----- --- ---- ---- ------- ----- ---- -------<br>--- --- -- ----- -- --- ---- -- --- ---- -- ------ ------<br>--- ----- -- ----,177126.69999992847,177126.29999995232,176590.128,176596.29999995232,176606.768,177140.052,,15,close
screen,html.Screen,2_1_0_1_16,2022-05-03T18:30:02.019Z,,,,,,,,,,,,,,,,,53,,,,,,,,,,,,,,380.8479999761621,,response,,,,99,,,,,,,Space,keypress(Space),,,,,,,,---- -- ----- -- ------ - ------- --- ----------<br>------------- ------ ------ ---- ---- ------- ----- to ----<br>-------- ------- -- ---------- --- - --- ----- ----- ----<br>---- --- --- ----- --- ---- ---- ------- ----- ---- -------<br>--- --- -- ----- -- --- ---- -- --- ---- -- ------ ------<br>--- ----- -- ----,177521.29999995232,177520.89999997616,177123.395,177126.69999992847,177140.052,177523.283,,16,to
screen,html.Screen,2_1_0_1_17,2022-05-03T18:30:02.400Z,,,,,,,,,,,,,,,,,53,,,,,,,,,,,,,,378.0169999523205,,response,,,,99,,,,,,,Space,keypress(Space),,,,,,,,---- -- ----- -- ------ - ------- --- ----------<br>------------- ------ ------ ---- ---- ------- ----- -- your<br>-------- ------- -- ---------- --- - --- ----- ----- ----<br>---- --- --- ----- --- ---- ---- ------- ----- ---- -------<br>--- --- -- ----- -- --- ---- -- --- ---- -- ------ ------<br>--- ----- -- ----,177901.79999995232,177901.29999995232,177506.626,177521.39999997616,177523.283,177906.448,,17,your
screen,html.Screen,2_1_0_1_18,2022-05-03T18:30:02.800Z,,,,,,,,,,,,,,,,,53,,,,,,,,,,,,,,394.6519999046286,,response,,,,99,,,,,,,Space,keypress(Space),,,,,,,,---- -- ----- -- ------ - ------- --- ----------<br>------------- ------ ------ ---- ---- ------- ----- -- ----<br>romantic ------- -- ---------- --- - --- ----- ----- ----<br>---- --- --- ----- --- ---- ---- ------- ----- ---- -------<br>--- --- -- ----- -- --- ---- -- --- ---- -- ------ ------<br>--- ----- -- ----,178301.5,178301.09999990463,177889.789,177901.79999995232,177906.448,178306.106,,18,romantic
screen,html.Screen,2_1_0_1_19,2022-05-03T18:30:03.186Z,,,,,,,,,,,,,,,,,53,,,,,,,,,,,,,,381.39400000000023,,response,,,,99,,,,,,,Space,keypress(Space),,,,,,,,---- -- ----- -- ------ - ------- --- ----------<br>------------- ------ ------ ---- ---- ------- ----- -- ----<br>-------- partner -- ---------- --- - --- ----- ----- ----<br>---- --- --- ----- --- ---- ---- ------- ----- ---- -------<br>--- --- -- ----- -- --- ---- -- --- ---- -- ------ ------<br>--- ----- -- ----,178687.89999997616,178687.5,178289.451,178301.5,178306.106,178689.464,,19,partner
screen,html.Screen,2_1_0_1_20,2022-05-03T18:30:03.560Z,,,,,,,,,,,,,,,,,53,,,,,,,,,,,,,,372.0359999999928,,response,,,,99,,,,,,,Space,keypress(Space),,,,,,,,---- -- ----- -- ------ - ------- --- ----------<br>------------- ------ ------ ---- ---- ------- ----- -- ----<br>-------- ------- is ---------- --- - --- ----- ----- ----<br>---- --- --- ----- --- ---- ---- ------- ----- ---- -------<br>--- --- -- ----- -- --- ---- -- --- ---- -- ------ ------<br>--- ----- -- ----,179061.89999997616,179061.5,178672.805,178688,178689.464,179072.486,,20,is
screen,html.Screen,2_1_0_1_21,2022-05-03T18:30:03.940Z,,,,,,,,,,,,,,,,,53,,,,,,,,,,,,,,369.21399992847,,response,,,,99,,,,,,,Space,keypress(Space),,,,,,,,---- -- ----- -- ------ - ------- --- ----------<br>------------- ------ ------ ---- ---- ------- ----- -- ----<br>-------- ------- -- paramount. --- - --- ----- ----- ----<br>---- --- --- ----- --- ---- ---- ------- ----- ---- -------<br>--- --- -- ----- -- --- ---- -- --- ---- -- ------ ------<br>--- ----- -- ----,179442.19999992847,179441.69999992847,179055.83,179061.89999997616,179072.486,179455.709,,21,paramount.
screen,html.Screen,2_1_0_1_22,2022-05-03T18:30:04.330Z,,,,,,,,,,,,,,,,,53,,,,,,,,,,,,,,375.99099992847187,,response,,,,99,,,,,,,Space,keypress(Space),,,,,,,,---- -- ----- -- ------ - ------- --- ----------<br>------------- ------ ------ ---- ---- ------- ----- -- ----<br>-------- ------- -- ---------- But - --- ----- ----- ----<br>---- --- --- ----- --- ---- ---- ------- ----- ---- -------<br>--- --- -- ----- -- --- ---- -- --- ---- -- ------ ------<br>--- ----- -- ----,179832.19999992847,179831.69999992847,179439.053,179442.29999995232,179455.709,179839.099,,22,But
screen,html.Screen,2_1_0_1_23,2022-05-03T18:30:04.721Z,,,,,,,,,,,,,,,,,53,,,,,,,,,,,,,,383.20099995232886,,response,,,,99,,,,,,,Space,keypress(Space),,,,,,,,---- -- ----- -- ------ - ------- --- ----------<br>------------- ------ ------ ---- ---- ------- ----- -- ----<br>-------- ------- -- ---------- --- a --- ----- ----- ----<br>---- --- --- ----- --- ---- ---- ------- ----- ---- -------<br>--- --- -- ----- -- --- ---- -- --- ---- -- ------ ------<br>--- ----- -- ----,180222.59999990463,180222.29999995232,179822.438,179832.29999995232,179839.099,180239.417,,23,a
screen,html.Screen,2_1_0_1_24,2022-05-03T18:30:05.086Z,,,,,,,,,,,,,,,,,53,,,,,,,,,,,,,,347.68299990464584,,response,,,,99,,,,,,,Space,keypress(Space),,,,,,,,---- -- ----- -- ------ - ------- --- ----------<br>------------- ------ ------ ---- ---- ------- ----- -- ----<br>-------- ------- -- ---------- --- - new ----- ----- ----<br>---- --- --- ----- --- ---- ---- ------- ----- ---- -------<br>--- --- -- ----- -- --- ---- -- --- ---- -- ------ ------<br>--- ----- -- ----,180587.5,180587.09999990463,180222.746,180222.69999992847,180239.417,180588.621,,24,new
screen,html.Screen,2_1_0_1_25,2022-05-03T18:30:05.456Z,,,,,,,,,,,,,,,,,53,,,,,,,,,,,,,,368.5789999284607,,response,,,,99,,,,,,,Space,keypress(Space),,,,,,,,---- -- ----- -- ------ - ------- --- ----------<br>------------- ------ ------ ---- ---- ------- ----- -- ----<br>-------- ------- -- ---------- --- - --- study ----- ----<br>---- --- --- ----- --- ---- ---- ------- ----- ---- -------<br>--- --- -- ----- -- --- ---- -- --- ---- -- ------ ------<br>--- ----- -- ----,180957.59999990463,180957.19999992847,180571.964,180587.59999990463,180588.621,180971.886,,25,study
screen,html.Screen,2_1_0_1_26,2022-05-03T18:30:05.816Z,,,,,,,,,,,,,,,,,53,,,,,,,,,,,,,,345.9139999523177,,response,,,,99,,,,,,,Space,keypress(Space),,,,,,,,---- -- ----- -- ------ - ------- --- ----------<br>------------- ------ ------ ---- ---- ------- ----- -- ----<br>-------- ------- -- ---------- --- - --- ----- finds ----<br>---- --- --- ----- --- ---- ---- ------- ----- ---- -------<br>--- --- -- ----- -- --- ---- -- --- ---- -- ------ ------<br>--- ----- -- ----,181318.19999992847,181317.79999995232,180955.227,180957.69999992847,180971.886,181321.976,,26,finds
screen,html.Screen,2_1_0_1_27,2022-05-03T18:30:06.146Z,,,,,,,,,,,,,,,,,53,,,,,,,,,,,,,,325.2239999284793,,response,,,,99,,,,,,,Space,keypress(Space),,,,,,,,---- -- ----- -- ------ - ------- --- ----------<br>------------- ------ ------ ---- ---- ------- ----- -- ----<br>-------- ------- -- ---------- --- - --- ----- ----- that<br>---- --- --- ----- --- ---- ---- ------- ----- ---- -------<br>--- --- -- ----- -- --- ---- -- --- ---- -- ------ ------<br>--- ----- -- ----,181647.59999990463,181647.19999992847,181305.311,181318.19999992847,181321.976,181655.244,,27,that
screen,html.Screen,2_1_0_1_28,2022-05-03T18:30:06.471Z,,,,,,,,,,,,,,,,,53,,,,,,,,,,,,,,316.8559999046265,,response,,,,99,,,,,,,Space,keypress(Space),,,,,,,,---- -- ----- -- ------ - ------- --- ----------<br>------------- ------ ------ ---- ---- ------- ----- -- ----<br>-------- ------- -- ---------- --- - --- ----- ----- ----<br>it's --- --- ----- --- ---- ---- ------- ----- ---- -------<br>--- --- -- ----- -- --- ---- -- --- ---- -- ------ ------<br>--- ----- -- ----,181972.5,181972.09999990463,181638.578,181647.59999990463,181655.244,181988.408,,28,it's
screen,html.Screen,2_1_0_1_29,2022-05-03T18:30:06.776Z,,,,,,,,,,,,,,,,,53,,,,,,,,,,,,,,288.69199990463676,,response,,,,99,,,,,,,Space,keypress(Space),,,,,,,,---- -- ----- -- ------ - ------- --- ----------<br>------------- ------ ------ ---- ---- ------- ----- -- ----<br>-------- ------- -- ---------- --- - --- ----- ----- ----<br>---- not --- ----- --- ---- ---- ------- ----- ---- -------<br>--- --- -- ----- -- --- ---- -- --- ---- -- ------ ------<br>--- ----- -- ----,182277.69999992847,182277.09999990463,181971.743,181972.5,181988.408,182287.564,,29,not
screen,html.Screen,2_1_0_1_30,2022-05-03T18:30:07.082Z,,,,,,,,,,,,,,,,,53,,,,,,,,,,,,,,295.73599995230325,,response,,,,99,,,,,,,Space,keypress(Space),,,,,,,,---- -- ----- -- ------ - ------- --- ----------<br>------------- ------ ------ ---- ---- ------- ----- -- ----<br>-------- ------- -- ---------- --- - --- ----- ----- ----<br>---- --- how ----- --- ---- ---- ------- ----- ---- -------<br>--- --- -- ----- -- --- ---- -- --- ---- -- ------ ------<br>--- ----- -- ----,182583.69999992847,182583.29999995232,182270.918,182277.89999997616,182287.564,182588.034,,30,how
screen,html.Screen,2_1_0_1_31,2022-05-03T18:30:07.387Z,,,,,,,,,,,,,,,,,53,,,,,,,,,,,,,,300.36599997614394,,response,,,,99,,,,,,,Space,keypress(Space),,,,,,,,---- -- ----- -- ------ - ------- --- ----------<br>------------- ------ ------ ---- ---- ------- ----- -- ----<br>-------- ------- -- ---------- --- - --- ----- ----- ----<br>---- --- --- close --- ---- ---- ------- ----- ---- -------<br>--- --- -- ----- -- --- ---- -- --- ---- -- ------ ------<br>--- ----- -- ----,182888.89999997616,182888.39999997616,182571.372,182583.79999995232,182588.034,182903.76,,31,close
screen,html.Screen,2_1_0_1_32,2022-05-03T18:30:07.696Z,,,,,,,,,,,,,,,,,53,,,,,,,,,,,,,,293.7399999999907,,response,,,,99,,,,,,,Space,keypress(Space),,,,,,,,---- -- ----- -- ------ - ------- --- ----------<br>------------- ------ ------ ---- ---- ------- ----- -- ----<br>-------- ------- -- ---------- --- - --- ----- ----- ----<br>---- --- --- ----- you ---- ---- ------- ----- ---- -------<br>--- --- -- ----- -- --- ---- -- --- ---- -- ------ ------<br>--- ----- -- ----,183198,183197.5,182887.12,182889,182903.76,183204.231,,32,you
screen,html.Screen,2_1_0_1_33,2022-05-03T18:30:07.972Z,,,,,,,,,,,,,,,,,53,,,,,,,,,,,,,,268.96899992847466,,response,,,,99,,,,,,,Space,keypress(Space),,,,,,,,---- -- ----- -- ------ - ------- --- ----------<br>------------- ------ ------ ---- ---- ------- ----- -- ----<br>-------- ------- -- ---------- --- - --- ----- ----- ----<br>---- --- --- ----- --- feel ---- ------- ----- ---- -------<br>--- --- -- ----- -- --- ---- -- --- ---- -- ------ ------<br>--- ----- -- ----,183473.79999995232,183473.19999992847,183187.574,183198,183204.231,183487.573,,33,feel
screen,html.Screen,2_1_0_1_34,2022-05-03T18:30:08.252Z,,,,,,,,,,,,,,,,,53,,,,,,,,,,,,,,265.7269999523123,,response,,,,99,,,,,,,Space,keypress(Space),,,,,,,,---- -- ----- -- ------ - ------- --- ----------<br>------------- ------ ------ ---- ---- ------- ----- -- ----<br>-------- ------- -- ---------- --- - --- ----- ----- ----<br>---- --- --- ----- --- ---- that ------- ----- ---- -------<br>--- --- -- ----- -- --- ---- -- --- ---- -- ------ ------<br>--- ----- -- ----,183753.69999992847,183753.29999995232,183470.914,183473.89999997616,183487.573,183770.648,,34,that
screen,html.Screen,2_1_0_1_35,2022-05-03T18:30:08.541Z,,,,,,,,,,,,,,,,,53,,,,,,,,,,,,,,272.25199997617165,,response,,,,99,,,,,,,Space,keypress(Space),,,,,,,,---- -- ----- -- ------ - ------- --- ----------<br>------------- ------ ------ ---- ---- ------- ----- -- ----<br>-------- ------- -- ---------- --- - --- ----- ----- ----<br>---- --- --- ----- --- ---- ---- matters ----- ---- -------<br>--- --- -- ----- -- --- ---- -- --- ---- -- ------ ------<br>--- ----- -- ----,184043.29999995232,184042.89999997616,183753.993,183753.69999992847,183770.648,184054.009,,35,matters
screen,html.Screen,2_1_0_1_36,2022-05-03T18:30:08.831Z,,,,,,,,,,,,,,,,,53,,,,,,,,,,,,,,278.6909999284835,,response,,,,99,,,,,,,Space,keypress(Space),,,,,,,,"---- -- ----- -- ------ - ------- --- ----------<br>------------- ------ ------ ---- ---- ------- ----- -- ----<br>-------- ------- -- ---------- --- - --- ----- ----- ----<br>---- --- --- ----- --- ---- ---- ------- most, ---- -------<br>--- --- -- ----- -- --- ---- -- --- ---- -- ------ ------<br>--- ----- -- ----",184333.09999990463,184332.69999992847,184037.35,184043.79999995232,184054.009,184337.096,,36,"most,"
screen,html.Screen,2_1_0_1_37,2022-05-03T18:30:09.133Z,,,,,,,,,,,,,,,,,53,,,,,,,,,,,,,,297.0039999046421,,response,,,,99,,,,,,,Space,keypress(Space),,,,,,,,---- -- ----- -- ------ - ------- --- ----------<br>------------- ------ ------ ---- ---- ------- ----- -- ----<br>-------- ------- -- ---------- --- - --- ----- ----- ----<br>---- --- --- ----- --- ---- ---- ------- ----- it's -------<br>--- --- -- ----- -- --- ---- -- --- ---- -- ------ ------<br>--- ----- -- ----,184634.5,184634.09999990463,184320.44,184333.19999992847,184337.096,184637,,37,it's
screen,html.Screen,2_1_0_1_38,2022-05-03T18:30:09.420Z,,,,,,,,,,,,,,,,,53,,,,,,,,,,,,,,284.7999999523163,,response,,,,99,,,,,,,Space,keypress(Space),,,,,,,,---- -- ----- -- ------ - ------- --- ----------<br>------------- ------ ------ ---- ---- ------- ----- -- ----<br>-------- ------- -- ---------- --- - --- ----- ----- ----<br>---- --- --- ----- --- ---- ---- ------- ----- ---- whether<br>--- --- -- ----- -- --- ---- -- --- ---- -- ------ ------<br>--- ----- -- ----,184922.09999990463,184921.79999995232,184620.344,184634.59999990463,184637,184937.077,,38,whether
screen,html.Screen,2_1_0_1_39,2022-05-03T18:30:09.732Z,,,,,,,,,,,,,,,,,53,,,,,,,,,,,,,,296.1229999284842,,response,,,,99,,,,,,,Space,keypress(Space),,,,,,,,---- -- ----- -- ------ - ------- --- ----------<br>------------- ------ ------ ---- ---- ------- ----- -- ----<br>-------- ------- -- ---------- --- - --- ----- ----- ----<br>---- --- --- ----- --- ---- ---- ------- ----- ---- -------<br>you --- -- ----- -- --- ---- -- --- ---- -- ------ ------<br>--- ----- -- ----,185233.69999992847,185233.19999992847,184920.416,184922.19999992847,184937.077,185237.277,,39,you
screen,html.Screen,2_1_0_1_40,2022-05-03T18:30:10.029Z,,,,,,,,,,,,,,,,,53,,,,,,,,,,,,,,292.92299992847256,,response,,,,99,,,,,,,Space,keypress(Space),,,,,,,,---- -- ----- -- ------ - ------- --- ----------<br>------------- ------ ------ ---- ---- ------- ----- -- ----<br>-------- ------- -- ---------- --- - --- ----- ----- ----<br>---- --- --- ----- --- ---- ---- ------- ----- ---- -------<br>--- are -- ----- -- --- ---- -- --- ---- -- ------ ------<br>--- ----- -- ----,185530.59999990463,185530.19999992847,185220.606,185233.79999995232,185237.277,185536.679,,40,are
screen,html.Screen,2_1_0_1_41,2022-05-03T18:30:10.329Z,,,,,,,,,,,,,,,,,53,,,,,,,,,,,,,,293.92099990462884,,response,,,,99,,,,,,,Space,keypress(Space),,,,,,,,---- -- ----- -- ------ - ------- --- ----------<br>------------- ------ ------ ---- ---- ------- ----- -- ----<br>-------- ------- -- ---------- --- - --- ----- ----- ----<br>---- --- --- ----- --- ---- ---- ------- ----- ---- -------<br>--- --- as ----- -- --- ---- -- --- ---- -- ------ ------<br>--- ----- -- ----,185831.09999990463,185830.59999990463,185520.022,185530.69999992847,185536.679,185836.631,,41,as
screen,html.Screen,2_1_0_1_42,2022-05-03T18:30:10.633Z,,,,,,,,,,,,,,,,,53,,,,,,,,,,,,,,297.5689999284805,,response,,,,99,,,,,,,Space,keypress(Space),,,,,,,,---- -- ----- -- ------ - ------- --- ----------<br>------------- ------ ------ ---- ---- ------- ----- -- ----<br>-------- ------- -- ---------- --- - --- ----- ----- ----<br>---- --- --- ----- --- ---- ---- ------- ----- ---- -------<br>--- --- -- close -- --- ---- -- --- ---- -- ------ ------<br>--- ----- -- ----,186134.69999992847,186134.19999992847,185819.972,185831.09999990463,185836.631,186136.715,,42,close
screen,html.Screen,2_1_0_1_43,2022-05-03T18:30:10.937Z,,,,,,,,,,,,,,,,,53,,,,,,,,,,,,,,301.7850000000035,,response,,,,99,,,,,,,Space,keypress(Space),,,,,,,,---- -- ----- -- ------ - ------- --- ----------<br>------------- ------ ------ ---- ---- ------- ----- -- ----<br>-------- ------- -- ---------- --- - --- ----- ----- ----<br>---- --- --- ----- --- ---- ---- ------- ----- ---- -------<br>--- --- -- ----- as --- ---- -- --- ---- -- ------ ------<br>--- ----- -- ----,186438.89999997616,186438.5,186120.05,186134.79999995232,186136.715,186453.298,,43,as
screen,html.Screen,2_1_0_1_44,2022-05-03T18:30:11.232Z,,,,,,,,,,,,,,,,,53,,,,,,,,,,,,,,280.10199997614836,,response,,,,99,,,,,,,Space,keypress(Space),,,,,,,,---- -- ----- -- ------ - ------- --- ----------<br>------------- ------ ------ ---- ---- ------- ----- -- ----<br>-------- ------- -- ---------- --- - --- ----- ----- ----<br>---- --- --- ----- --- ---- ---- ------- ----- ---- -------<br>--- --- -- ----- -- you ---- -- --- ---- -- ------ ------<br>--- ----- -- ----,186734,186733.39999997616,186436.632,186438.89999997616,186453.298,186736.459,,44,you
screen,html.Screen,2_1_0_1_45,2022-05-03T18:30:11.522Z,,,,,,,,,,,,,,,,,53,,,,,,,,,,,,,,286.9409999761556,,response,,,,99,,,,,,,Space,keypress(Space),,,,,,,,---- -- ----- -- ------ - ------- --- ----------<br>------------- ------ ------ ---- ---- ------- ----- -- ----<br>-------- ------- -- ---------- --- - --- ----- ----- ----<br>---- --- --- ----- --- ---- ---- ------- ----- ---- -------<br>--- --- -- ----- -- --- want -- --- ---- -- ------ ------<br>--- ----- -- ----,187023.59999990463,187023.39999997616,186719.794,186734.09999990463,186736.459,187035.692,,45,want
screen,html.Screen,2_1_0_1_46,2022-05-03T18:30:11.827Z,,,,,,,,,,,,,,,,,53,,,,,,,,,,,,,,293.1079999523063,,response,,,,99,,,,,,,Space,keypress(Space),,,,,,,,---- -- ----- -- ------ - ------- --- ----------<br>------------- ------ ------ ---- ---- ------- ----- -- ----<br>-------- ------- -- ---------- --- - --- ----- ----- ----<br>---- --- --- ----- --- ---- ---- ------- ----- ---- -------<br>--- --- -- ----- -- --- ---- to --- ---- -- ------ ------<br>--- ----- -- ----,187329.09999990463,187328.79999995232,187019.046,187023.69999992847,187035.692,187336.128,,46,to
screen,html.Screen,2_1_0_1_47,2022-05-03T18:30:12.128Z,,,,,,,,,,,,,,,,,53,,,,,,,,,,,,,,293.6719999523193,,response,,,,99,,,,,,,Space,keypress(Space),,,,,,,,"---- -- ----- -- ------ - ------- --- ----------<br>------------- ------ ------ ---- ---- ------- ----- -- ----<br>-------- ------- -- ---------- --- - --- ----- ----- ----<br>---- --- --- ----- --- ---- ---- ------- ----- ---- -------<br>--- --- -- ----- -- --- ---- -- be, ---- -- ------ ------<br>--- ----- -- ----",187630.09999990463,187629.79999995232,187319.466,187329.19999992847,187336.128,187635.184,,47,"be,"
screen,html.Screen,2_1_0_1_48,2022-05-03T18:30:12.418Z,,,,,,,,,,,,,,,,,53,,,,,,,,,,,,,,284.4159999046242,,response,,,,99,,,,,,,Space,keypress(Space),,,,,,,,---- -- ----- -- ------ - ------- --- ----------<br>------------- ------ ------ ---- ---- ------- ----- -- ----<br>-------- ------- -- ---------- --- - --- ----- ----- ----<br>---- --- --- ----- --- ---- ---- ------- ----- ---- -------<br>--- --- -- ----- -- --- ---- -- --- even -- ------ ------<br>--- ----- -- ----,187919.89999997616,187919.59999990463,187618.544,187630.19999992847,187635.184,187935.723,,48,even
screen,html.Screen,2_1_0_1_49,2022-05-03T18:30:12.728Z,,,,,,,,,,,,,,,,,53,,,,,,,,,,,,,,293.67699997616,,response,,,,99,,,,,,,Space,keypress(Space),,,,,,,,---- -- ----- -- ------ - ------- --- ----------<br>------------- ------ ------ ---- ---- ------- ----- -- ----<br>-------- ------- -- ---------- --- - --- ----- ----- ----<br>---- --- --- ----- --- ---- ---- ------- ----- ---- -------<br>--- --- -- ----- -- --- ---- -- --- ---- if ------ ------<br>--- ----- -- ----,188229.79999995232,188229.39999997616,187919.066,187919.89999997616,187935.723,188235.721,,49,if
screen,html.Screen,2_1_0_1_50,2022-05-03T18:30:13.019Z,,,,,,,,,,,,,,,,,53,,,,,,,,,,,,,,284.57899995232583,,response,,,,99,,,,,,,Space,keypress(Space),,,,,,,,---- -- ----- -- ------ - ------- --- ----------<br>------------- ------ ------ ---- ---- ------- ----- -- ----<br>-------- ------- -- ---------- --- - --- ----- ----- ----<br>---- --- --- ----- --- ---- ---- ------- ----- ---- -------<br>--- --- -- ----- -- --- ---- -- --- ---- -- that's ------<br>--- ----- -- ----,188520.59999990463,188520.29999995232,188219.062,188229.89999997616,188235.721,188535.535,,50,that's
screen,html.Screen,2_1_0_1_51,2022-05-03T18:30:13.408Z,,,,,,,,,,,,,,,,,53,,,,,,,,,,,,,,373.4649999999965,,response,,,,99,,,,,,,Space,keypress(Space),,,,,,,,---- -- ----- -- ------ - ------- --- ----------<br>------------- ------ ------ ---- ---- ------- ----- -- ----<br>-------- ------- -- ---------- --- - --- ----- ----- ----<br>---- --- --- ----- --- ---- ---- ------- ----- ---- -------<br>--- --- -- ----- -- --- ---- -- --- ---- -- ------ really<br>--- ----- -- ----,188909.5,188909,188518.88,188520.69999992847,188535.535,188918.725,,51,really
screen,html.Screen,2_1_0_1_52,2022-05-03T18:30:13.773Z,,,,,,,,,,,,,,,,,53,,,,,,,,,,,,,,355.57499995231046,,response,,,,99,,,,,,,Space,keypress(Space),,,,,,,,---- -- ----- -- ------ - ------- --- ----------<br>------------- ------ ------ ---- ---- ------- ----- -- ----<br>-------- ------- -- ---------- --- - --- ----- ----- ----<br>---- --- --- ----- --- ---- ---- ------- ----- ---- -------<br>--- --- -- ----- -- --- ---- -- --- ---- -- ------ ------<br>not ----- -- ----,189274.79999995232,189274.29999995232,188902.066,188909.59999990463,188918.725,189285.358,,52,not
screen,html.Screen,2_1_0_1_53,2022-05-03T18:30:14.123Z,,,,,,,,,,,,,,,,,53,,,,,,,,,,,,,,339.2419999046251,,response,,,,99,,,,,,,Space,keypress(Space),,,,,,,,---- -- ----- -- ------ - ------- --- ----------<br>------------- ------ ------ ---- ---- ------- ----- -- ----<br>-------- ------- -- ---------- --- - --- ----- ----- ----<br>---- --- --- ----- --- ---- ---- ------- ----- ---- -------<br>--- --- -- ----- -- --- ---- -- --- ---- -- ------ ------<br>--- close -- ----,189625.09999990463,189624.59999990463,189268.702,189274.89999997616,189285.358,189634.931,,53,close
screen,html.Screen,2_1_0_1_54,2022-05-03T18:30:14.473Z,,,,,,,,,,,,,,,,,53,,,,,,,,,,,,,,339.768999928463,,response,,,,99,,,,,,,Space,keypress(Space),,,,,,,,---- -- ----- -- ------ - ------- --- ----------<br>------------- ------ ------ ---- ---- ------- ----- -- ----<br>-------- ------- -- ---------- --- - --- ----- ----- ----<br>---- --- --- ----- --- ---- ---- ------- ----- ---- -------<br>--- --- -- ----- -- --- ---- -- --- ---- -- ------ ------<br>--- ----- at ----,189975.09999990463,189974.69999992847,189618.275,189625.09999990463,189634.931,189985.054,,54,at
screen,html.Screen,2_1_0_1_55,2022-05-03T18:30:15.074Z,,,,,,,,,,,,,,,,,53,,,,,,,,,,,,,,590.2459999523126,,response,,,,99,,,,,,,Space,keypress(Space),,,,,,,,---- -- ----- -- ------ - ------- --- ----------<br>------------- ------ ------ ---- ---- ------- ----- -- ----<br>-------- ------- -- ---------- --- - --- ----- ----- ----<br>---- --- --- ----- --- ---- ---- ------- ----- ---- -------<br>--- --- -- ----- -- --- ---- -- --- ---- -- ------ ------<br>--- ----- -- all.,190575.5,190575.29999995232,189968.393,189975.19999992847,189985.054,190585.38,,55,all.
Item 99,flow.Loop,2_1_0_1,2022-05-03T18:30:15.074Z,,,,,,,,,,,,,,,,,,,,,,,,,,,,,,,21183.64299995231,,completion,,,,,A,,,,,,,,,,,silence,,,,,190575.69999992847,190575.29999995232,169375.011,169376.39999997616,169391.657,190585.38,,,
Question 1,html.Screen,2_1_0_2,2022-05-03T18:30:20.272Z,,,,,,,,,,,,,,,,,,,,,,,,,,,,true,FALSE,,5188.119999999995,,response,,,,99,A,,,,,,FALSE,click #choice-2,,,,silence,,,,,195774.19999992847,195773.5,190568.709,190575.79999995232,190585.38,195782.834,,,
Question 2,html.Screen,2_1_0_3,2022-05-03T18:30:25.948Z,,,,,,,,,,,,,,,,,,,,,,,,,,,,true,TRUE,,5665.965999952314,,response,,,,99,A,,,,,,TRUE,click #choice-1,,,,silence,,,,,201449.5,201448.79999995232,195766.189,195774.19999992847,195782.834,201480.533,,,
Item 99,flow.Sequence,2_1_0,2022-05-03T18:30:25.948Z,,,,,,,,,,,,,,,,,,,,,,,,,,,,,,,42051.52499995232,,completion,,,,,,,,,,,,,,,,,,,,,201449.69999992847,201448.79999995232,159380.698,159380.09999990463,159397.275,201480.533,,,
Holding screen,html.Screen,2_1_1_0,2022-05-03T18:30:35.959Z,,,,,,,,,,,,,,,,,,,,,,,,,,,,,,,9995.641000000003,,timeout,,,,,,,,,,,,,,,,,,,,,211461,211459.516,201463.854,201449.69999992847,201480.533,211476.174,,,
screen,html.Screen,2_1_1_1_0,2022-05-03T18:30:36.507Z,,,,,,,,,,,,,,,,,54,,,,,,,,,,,,,,531.8260000000009,,response,,,,100,,,,,,,Space,keypress(Space),,,,,,,,At --- ---- --- ------ ----- ------- ---- -- --- ------- --<br>------- ---------- ------ -- ----- -- ----- -- ---- ------<br>--- ----- --- --- ------ -------- ----- --- ------ ----- --<br>----- ----- ---------- --- --- ------ ------ ---- -- ------<br>------- --- ------ ----- --- ---- ------- -- ---- --- --<br>------- ------,212008.39999997616,212008,211459.516,211461.09999990463,211476.174,212009.549,,0,At
screen,html.Screen,2_1_1_1_1,2022-05-03T18:30:36.910Z,,,,,,,,,,,,,,,,,54,,,,,,,,,,,,,,401.95100000000093,,response,,,,100,,,,,,,Space,keypress(Space),,,,,,,,-- the ---- --- ------ ----- ------- ---- -- --- ------- --<br>------- ---------- ------ -- ----- -- ----- -- ---- ------<br>--- ----- --- --- ------ -------- ----- --- ------ ----- --<br>----- ----- ---------- --- --- ------ ------ ---- -- ------<br>------- --- ------ ----- --- ---- ------- -- ---- --- --<br>------- ------,212411.89999997616,212411.5,211992.889,212008.39999997616,212009.549,212425.547,,1,the
screen,html.Screen,2_1_1_1_2,2022-05-03T18:30:37.310Z,,,,,,,,,,,,,,,,,54,,,,,,,,,,,,,,385.85299997616676,,response,,,,100,,,,,,,Space,keypress(Space),,,,,,,,-- --- time --- ------ ----- ------- ---- -- --- ------- --<br>------- ---------- ------ -- ----- -- ----- -- ---- ------<br>--- ----- --- --- ------ -------- ----- --- ------ ----- --<br>----- ----- ---------- --- --- ------ ------ ---- -- ------<br>------- --- ------ ----- --- ---- ------- -- ---- --- --<br>------- ------,212812,212811.39999997616,212408.899,212411.89999997616,212425.547,212826.232,,2,time
screen,html.Screen,2_1_1_1_3,2022-05-03T18:30:37.688Z,,,,,,,,,,,,,,,,,54,,,,,,,,,,,,,,363.46799992848537,,response,,,,100,,,,,,,Space,keypress(Space),,,,,,,,-- --- ---- the ------ ----- ------- ---- -- --- ------- --<br>------- ---------- ------ -- ----- -- ----- -- ---- ------<br>--- ----- --- --- ------ -------- ----- --- ------ ----- --<br>----- ----- ---------- --- --- ------ ------ ---- -- ------<br>------- --- ------ ----- --- ---- ------- -- ---- --- --<br>------- ------,213190.29999995232,213189.69999992847,212809.571,212812.09999990463,212826.232,213192.86,,3,the
screen,html.Screen,2_1_1_1_4,2022-05-03T18:30:38.073Z,,,,,,,,,,,,,,,,,54,,,,,,,,,,,,,,381.64000000001397,,response,,,,100,,,,,,,Space,keypress(Space),,,,,,,,-- --- ---- --- French ----- ------- ---- -- --- ------- --<br>------- ---------- ------ -- ----- -- ----- -- ---- ------<br>--- ----- --- --- ------ -------- ----- --- ------ ----- --<br>----- ----- ---------- --- --- ------ ------ ---- -- ------<br>------- --- ------ ----- --- ---- ------- -- ---- --- --<br>------- ------,213574.89999997616,213574.5,213176.193,213190.29999995232,213192.86,213575.819,,4,French
screen,html.Screen,2_1_1_1_5,2022-05-03T18:30:38.458Z,,,,,,,,,,,,,,,,,54,,,,,,,,,,,,,,383.88099992848583,,response,,,,100,,,,,,,Space,keypress(Space),,,,,,,,-- --- ---- --- ------ crown ------- ---- -- --- ------- --<br>------- ---------- ------ -- ----- -- ----- -- ---- ------<br>--- ----- --- --- ------ -------- ----- --- ------ ----- --<br>----- ----- ---------- --- --- ------ ------ ---- -- ------<br>------- --- ------ ----- --- ---- ------- -- ---- --- --<br>------- ------,213960.29999995232,213959.69999992847,213559.161,213575,213575.819,213976.079,,5,crown
screen,html.Screen,2_1_1_1_6,2022-05-03T18:30:38.844Z,,,,,,,,,,,,,,,,,54,,,,,,,,,,,,,,368.9210000000021,,response,,,,100,,,,,,,Space,keypress(Space),,,,,,,,-- --- ---- --- ------ ----- secured ---- -- --- ------- --<br>------- ---------- ------ -- ----- -- ----- -- ---- ------<br>--- ----- --- --- ------ -------- ----- --- ------ ----- --<br>----- ----- ---------- --- --- ------ ------ ---- -- ------<br>------- --- ------ ----- --- ---- ------- -- ---- --- --<br>------- ------,214345.39999997616,214345,213959.412,213960.29999995232,213976.079,214358.543,,6,secured
screen,html.Screen,2_1_1_1_7,2022-05-03T18:30:39.209Z,,,,,,,,,,,,,,,,,54,,,,,,,,,,,,,,351.6569999284693,,response,,,,100,,,,,,,Space,keypress(Space),,,,,,,,-- --- ---- --- ------ ----- ------- much -- --- ------- --<br>------- ---------- ------ -- ----- -- ----- -- ---- ------<br>--- ----- --- --- ------ -------- ----- --- ------ ----- --<br>----- ----- ---------- --- --- ------ ------ ---- -- ------<br>------- --- ------ ----- --- ---- ------- -- ---- --- --<br>------- ------,214710.69999992847,214710.19999992847,214341.884,214345.39999997616,214358.543,214725.505,,7,much
screen,html.Screen,2_1_1_1_8,2022-05-03T18:30:39.600Z,,,,,,,,,,,,,,,,,54,,,,,,,,,,,,,,375.49499999999534,,response,,,,100,,,,,,,Space,keypress(Space),,,,,,,,-- --- ---- --- ------ ----- ------- ---- of --- ------- --<br>------- ---------- ------ -- ----- -- ----- -- ---- ------<br>--- ----- --- --- ------ -------- ----- --- ------ ----- --<br>----- ----- ---------- --- --- ------ ------ ---- -- ------<br>------- --- ------ ----- --- ---- ------- -- ---- --- --<br>------- ------,215101.5,215101,214708.843,214710.69999992847,214725.505,215108.912,,8,of
screen,html.Screen,2_1_1_1_9,2022-05-03T18:30:39.939Z,,,,,,,,,,,,,,,,,54,,,,,,,,,,,,,,331.28799992846325,,response,,,,100,,,,,,,Space,keypress(Space),,,,,,,,-- --- ---- --- ------ ----- ------- ---- -- its ------- --<br>------- ---------- ------ -- ----- -- ----- -- ---- ------<br>--- ----- --- --- ------ -------- ----- --- ------ ----- --<br>----- ----- ---------- --- --- ------ ------ ---- -- ------<br>------- --- ------ ----- --- ---- ------- -- ---- --- --<br>------- ------,215440.69999992847,215440.19999992847,215092.244,215101.59999990463,215108.912,215441.686,,9,its
screen,html.Screen,2_1_1_1_10,2022-05-03T18:30:40.274Z,,,,,,,,,,,,,,,,,54,,,,,,,,,,,,,,333.9139999046456,,response,,,,100,,,,,,,Space,keypress(Space),,,,,,,,-- --- ---- --- ------ ----- ------- ---- -- --- revenue --<br>------- ---------- ------ -- ----- -- ----- -- ---- ------<br>--- ----- --- --- ------ -------- ----- --- ------ ----- --<br>----- ----- ---------- --- --- ------ ------ ---- -- ------<br>------- --- ------ ----- --- ---- ------- -- ---- --- --<br>------- ------,215776,215775.59999990463,215425.024,215440.69999992847,215441.686,215791.536,,10,revenue
screen,html.Screen,2_1_1_1_11,2022-05-03T18:30:40.604Z,,,,,,,,,,,,,,,,,54,,,,,,,,,,,,,,314.36399997616536,,response,,,,100,,,,,,,Space,keypress(Space),,,,,,,,-- --- ---- --- ------ ----- ------- ---- -- --- ------- by<br>------- ---------- ------ -- ----- -- ----- -- ---- ------<br>--- ----- --- --- ------ -------- ----- --- ------ ----- --<br>----- ----- ---------- --- --- ------ ------ ---- -- ------<br>------- --- ------ ----- --- ---- ------- -- ---- --- --<br>------- ------,216106.19999992847,216105.89999997616,215774.875,215776,215791.536,216107.704,,11,by
screen,html.Screen,2_1_1_1_12,2022-05-03T18:30:40.934Z,,,,,,,,,,,,,,,,,54,,,,,,,,,,,,,,327.4959999284765,,response,,,,100,,,,,,,Space,keypress(Space),,,,,,,,-- --- ---- --- ------ ----- ------- ---- -- --- ------- --<br>issuing ---------- ------ -- ----- -- ----- -- ---- ------<br>--- ----- --- --- ------ -------- ----- --- ------ ----- --<br>----- ----- ---------- --- --- ------ ------ ---- -- ------<br>------- --- ------ ----- --- ---- ------- -- ---- --- --<br>------- ------,216435.59999990463,216435.19999992847,216091.049,216106.29999995232,216107.704,216441.383,,12,issuing
screen,html.Screen,2_1_1_1_13,2022-05-03T18:30:41.255Z,,,,,,,,,,,,,,,,,54,,,,,,,,,,,,,,315.5169999761565,,response,,,,100,,,,,,,Space,keypress(Space),,,,,,,,-- --- ---- --- ------ ----- ------- ---- -- --- ------- --<br>------- government ------ -- ----- -- ----- -- ---- ------<br>--- ----- --- --- ------ -------- ----- --- ------ ----- --<br>----- ----- ---------- --- --- ------ ------ ---- -- ------<br>------- --- ------ ----- --- ---- ------- -- ---- --- --<br>------- ------,216757.29999995232,216756.89999997616,216424.723,216435.69999992847,216441.383,216774.016,,13,government
screen,html.Screen,2_1_1_1_14,2022-05-03T18:30:41.564Z,,,,,,,,,,,,,,,,,54,,,,,,,,,,,,,,291.48399999999674,,response,,,,100,,,,,,,Space,keypress(Space),,,,,,,,-- --- ---- --- ------ ----- ------- ---- -- --- ------- --<br>------- ---------- bonds. -- ----- -- ----- -- ---- ------<br>--- ----- --- --- ------ -------- ----- --- ------ ----- --<br>----- ----- ---------- --- --- ------ ------ ---- -- ------<br>------- --- ------ ----- --- ---- ------- -- ---- --- --<br>------- ------,217065.89999997616,217065.5,216757.366,216757.39999997616,216774.016,217074.058,,14,bonds.
screen,html.Screen,2_1_1_1_15,2022-05-03T18:30:41.884Z,,,,,,,,,,,,,,,,,54,,,,,,,,,,,,,,311.5419999046426,,response,,,,100,,,,,,,Space,keypress(Space),,,,,,,,-- --- ---- --- ------ ----- ------- ---- -- --- ------- --<br>------- ---------- ------ In ----- -- ----- -- ---- ------<br>--- ----- --- --- ------ -------- ----- --- ------ ----- --<br>----- ----- ---------- --- --- ------ ------ ---- -- ------<br>------- --- ------ ----- --- ---- ------- -- ---- --- --<br>------- ------,217386,217385.59999990463,217057.408,217066,217074.058,217390.629,,15,In
screen,html.Screen,2_1_1_1_16,2022-05-03T18:30:42.210Z,,,,,,,,,,,,,,,,,54,,,,,,,,,,,,,,320.2709999761719,,response,,,,100,,,,,,,Space,keypress(Space),,,,,,,,"-- --- ---- --- ------ ----- ------- ---- -- --- ------- --<br>------- ---------- ------ -- 1727, -- ----- -- ---- ------<br>--- ----- --- --- ------ -------- ----- --- ------ ----- --<br>----- ----- ---------- --- --- ------ ------ ---- -- ------<br>------- --- ------ ----- --- ---- ------- -- ---- --- --<br>------- ------",217711.29999995232,217710.89999997616,217373.971,217386.09999990463,217390.629,217723.88,,16,"1727,"
screen,html.Screen,2_1_1_1_17,2022-05-03T18:30:42.534Z,,,,,,,,,,,,,,,,,54,,,,,,,,,,,,,,311.0199999761535,,response,,,,100,,,,,,,Space,keypress(Space),,,,,,,,-- --- ---- --- ------ ----- ------- ---- -- --- ------- --<br>------- ---------- ------ -- ----- in ----- -- ---- ------<br>--- ----- --- --- ------ -------- ----- --- ------ ----- --<br>----- ----- ---------- --- --- ------ ------ ---- -- ------<br>------- --- ------ ----- --- ---- ------- -- ---- --- --<br>------- ------,218035.39999997616,218034.89999997616,217707.22,217711.39999997616,217723.88,218040.072,,17,in
screen,html.Screen,2_1_1_1_18,2022-05-03T18:30:43.121Z,,,,,,,,,,,,,,,,,54,,,,,,,,,,,,,,582.527999904647,,response,,,,100,,,,,,,Space,keypress(Space),,,,,,,,-- --- ---- --- ------ ----- ------- ---- -- --- ------- --<br>------- ---------- ------ -- ----- -- order -- ---- ------<br>--- ----- --- --- ------ -------- ----- --- ------ ----- --<br>----- ----- ---------- --- --- ------ ------ ---- -- ------<br>------- --- ------ ----- --- ---- ------- -- ---- --- --<br>------- ------,218623.19999992847,218622.59999990463,218023.424,218035.5,218040.072,218640.249,,18,order
screen,html.Screen,2_1_1_1_19,2022-05-03T18:30:43.701Z,,,,,,,,,,,,,,,,,54,,,,,,,,,,,,,,561.8509999046219,,response,,,,100,,,,,,,Space,keypress(Space),,,,,,,,-- --- ---- --- ------ ----- ------- ---- -- --- ------- --<br>------- ---------- ------ -- ----- -- ----- to ---- ------<br>--- ----- --- --- ------ -------- ----- --- ------ ----- --<br>----- ----- ---------- --- --- ------ ------ ---- -- ------<br>------- --- ------ ----- --- ---- ------- -- ---- --- --<br>------- ------,219202.59999990463,219202.09999990463,218623.588,218623.19999992847,218640.249,219207.15,,19,to
screen,html.Screen,2_1_1_1_20,2022-05-03T18:30:44.010Z,,,,,,,,,,,,,,,,,54,,,,,,,,,,,,,,304.24999997616396,,response,,,,100,,,,,,,Space,keypress(Space),,,,,,,,-- --- ---- --- ------ ----- ------- ---- -- --- ------- --<br>------- ---------- ------ -- ----- -- ----- -- save ------<br>--- ----- --- --- ------ -------- ----- --- ------ ----- --<br>----- ----- ---------- --- --- ------ ------ ---- -- ------<br>------- --- ------ ----- --- ---- ------- -- ---- --- --<br>------- ------,219511.79999995232,219511.39999997616,219190.483,219202.69999992847,219207.15,219523.068,,20,save
screen,html.Screen,2_1_1_1_21,2022-05-03T18:30:44.390Z,,,,,,,,,,,,,,,,,54,,,,,,,,,,,,,,368.33199997615884,,response,,,,100,,,,,,,Space,keypress(Space),,,,,,,,"-- --- ---- --- ------ ----- ------- ---- -- --- ------- --<br>------- ---------- ------ -- ----- -- ----- -- ---- money,<br>--- ----- --- --- ------ -------- ----- --- ------ ----- --<br>----- ----- ---------- --- --- ------ ------ ---- -- ------<br>------- --- ------ ----- --- ---- ------- -- ---- --- --<br>------- ------",219891.79999995232,219891.39999997616,219506.41,219511.89999997616,219523.068,219906.936,,21,"money,"
screen,html.Screen,2_1_1_1_22,2022-05-03T18:30:44.752Z,,,,,,,,,,,,,,,,,54,,,,,,,,,,,,,,346.06400000001304,,response,,,,100,,,,,,,Space,keypress(Space),,,,,,,,-- --- ---- --- ------ ----- ------- ---- -- --- ------- --<br>------- ---------- ------ -- ----- -- ----- -- ---- ------<br>the ----- --- --- ------ -------- ----- --- ------ ----- --<br>----- ----- ---------- --- --- ------ ------ ---- -- ------<br>------- --- ------ ----- --- ---- ------- -- ---- --- --<br>------- ------,220253.39999997616,220253,219890.269,219891.79999995232,219906.936,220256.463,,22,the
screen,html.Screen,2_1_1_1_23,2022-05-03T18:30:45.081Z,,,,,,,,,,,,,,,,,54,,,,,,,,,,,,,,325.5370000000112,,response,,,,100,,,,,,,Space,keypress(Space),,,,,,,,-- --- ---- --- ------ ----- ------- ---- -- --- ------- --<br>------- ---------- ------ -- ----- -- ----- -- ---- ------<br>--- state --- --- ------ -------- ----- --- ------ ----- --<br>----- ----- ---------- --- --- ------ ------ ---- -- ------<br>------- --- ------ ----- --- ---- ------- -- ---- --- --<br>------- ------,220582.5,220582,220239.804,220253.59999990463,220256.463,220589.872,,23,state
screen,html.Screen,2_1_1_1_24,2022-05-03T18:30:45.436Z,,,,,,,,,,,,,,,,,54,,,,,,,,,,,,,,347.127999999997,,response,,,,100,,,,,,,Space,keypress(Space),,,,,,,,-- --- ---- --- ------ ----- ------- ---- -- --- ------- --<br>------- ---------- ------ -- ----- -- ----- -- ---- ------<br>--- ----- cut --- ------ -------- ----- --- ------ ----- --<br>----- ----- ---------- --- --- ------ ------ ---- -- ------<br>------- --- ------ ----- --- ---- ------- -- ---- --- --<br>------- ------,220937.39999997616,220937,220573.21,220582.5,220589.872,220939.685,,24,cut
screen,html.Screen,2_1_1_1_25,2022-05-03T18:30:45.766Z,,,,,,,,,,,,,,,,,54,,,,,,,,,,,,,,327.4149999046349,,response,,,,100,,,,,,,Space,keypress(Space),,,,,,,,-- --- ---- --- ------ ----- ------- ---- -- --- ------- --<br>------- ---------- ------ -- ----- -- ----- -- ---- ------<br>--- ----- --- the ------ -------- ----- --- ------ ----- --<br>----- ----- ---------- --- --- ------ ------ ---- -- ------<br>------- --- ------ ----- --- ---- ------- -- ---- --- --<br>------- ------,221267.5,221267.09999990463,220923.017,220937.5,220939.685,221272.714,,25,the
screen,html.Screen,2_1_1_1_26,2022-05-03T18:30:46.097Z,,,,,,,,,,,,,,,,,54,,,,,,,,,,,,,,325.38599990462535,,response,,,,100,,,,,,,Space,keypress(Space),,,,,,,,-- --- ---- --- ------ ----- ------- ---- -- --- ------- --<br>------- ---------- ------ -- ----- -- ----- -- ---- ------<br>--- ----- --- --- bonds' -------- ----- --- ------ ----- --<br>----- ----- ---------- --- --- ------ ------ ---- -- ------<br>------- --- ------ ----- --- ---- ------- -- ---- --- --<br>------- ------,221598.39999997616,221598.09999990463,221256.052,221267.59999990463,221272.714,221606.055,,26,bonds'
screen,html.Screen,2_1_1_1_27,2022-05-03T18:30:46.426Z,,,,,,,,,,,,,,,,,54,,,,,,,,,,,,,,321.3449999761651,,response,,,,100,,,,,,,Space,keypress(Space),,,,,,,,-- --- ---- --- ------ ----- ------- ---- -- --- ------- --<br>------- ---------- ------ -- ----- -- ----- -- ---- ------<br>--- ----- --- --- ------ interest ----- --- ------ ----- --<br>----- ----- ---------- --- --- ------ ------ ---- -- ------<br>------- --- ------ ----- --- ---- ------- -- ---- --- --<br>------- ------,221927.79999995232,221927.39999997616,221589.394,221598.5,221606.055,221938.881,,27,interest
screen,html.Screen,2_1_1_1_28,2022-05-03T18:30:46.761Z,,,,,,,,,,,,,,,,,54,,,,,,,,,,,,,,324.0189999761642,,response,,,,100,,,,,,,Space,keypress(Space),,,,,,,,-- --- ---- --- ------ ----- ------- ---- -- --- ------- --<br>------- ---------- ------ -- ----- -- ----- -- ---- ------<br>--- ----- --- --- ------ -------- rate. --- ------ ----- --<br>----- ----- ---------- --- --- ------ ------ ---- -- ------<br>------- --- ------ ----- --- ---- ------- -- ---- --- --<br>------- ------,222263.29999995232,222262.89999997616,221922.226,221927.79999995232,221938.881,222272.212,,28,rate.
screen,html.Screen,2_1_1_1_29,2022-05-03T18:30:47.091Z,,,,,,,,,,,,,,,,,54,,,,,,,,,,,,,,320.38799990463303,,response,,,,100,,,,,,,Space,keypress(Space),,,,,,,,-- --- ---- --- ------ ----- ------- ---- -- --- ------- --<br>------- ---------- ------ -- ----- -- ----- -- ---- ------<br>--- ----- --- --- ------ -------- ----- The ------ ----- --<br>----- ----- ---------- --- --- ------ ------ ---- -- ------<br>------- --- ------ ----- --- ---- ------- -- ---- --- --<br>------- ------,222593,222592.59999990463,222255.552,222263.39999997616,222272.212,222605.092,,29,The
screen,html.Screen,2_1_1_1_30,2022-05-03T18:30:47.447Z,,,,,,,,,,,,,,,,,54,,,,,,,,,,,,,,343.2079999523121,,response,,,,100,,,,,,,Space,keypress(Space),,,,,,,,-- --- ---- --- ------ ----- ------- ---- -- --- ------- --<br>------- ---------- ------ -- ----- -- ----- -- ---- ------<br>--- ----- --- --- ------ -------- ----- --- market ----- --<br>----- ----- ---------- --- --- ------ ------ ---- -- ------<br>------- --- ------ ----- --- ---- ------- -- ---- --- --<br>------- ------,222948.69999992847,222948.29999995232,222588.442,222593.09999990463,222605.092,222954.921,,30,market
screen,html.Screen,2_1_1_1_31,2022-05-03T18:30:47.791Z,,,,,,,,,,,,,,,,,54,,,,,,,,,,,,,,337.8789999523142,,response,,,,100,,,,,,,Space,keypress(Space),,,,,,,,-- --- ---- --- ------ ----- ------- ---- -- --- ------- --<br>------- ---------- ------ -- ----- -- ----- -- ---- ------<br>--- ----- --- --- ------ -------- ----- --- ------ value --<br>----- ----- ---------- --- --- ------ ------ ---- -- ------<br>------- --- ------ ----- --- ---- ------- -- ---- --- --<br>------- ------,223293.19999992847,223292.79999995232,222938.271,222948.79999995232,222954.921,223304.945,,31,value
screen,html.Screen,2_1_1_1_32,2022-05-03T18:30:48.102Z,,,,,,,,,,,,,,,,,54,,,,,,,,,,,,,,298.8549999523093,,response,,,,100,,,,,,,Space,keypress(Space),,,,,,,,-- --- ---- --- ------ ----- ------- ---- -- --- ------- --<br>------- ---------- ------ -- ----- -- ----- -- ---- ------<br>--- ----- --- --- ------ -------- ----- --- ------ ----- of<br>----- ----- ---------- --- --- ------ ------ ---- -- ------<br>------- --- ------ ----- --- ---- ------- -- ---- --- --<br>------- ------,223604.09999990463,223603.79999995232,223288.287,223293.19999992847,223304.945,223605.073,,32,of
screen,html.Screen,2_1_1_1_33,2022-05-03T18:30:48.442Z,,,,,,,,,,,,,,,,,54,,,,,,,,,,,,,,338.12699992847047,,response,,,,100,,,,,,,Space,keypress(Space),,,,,,,,-- --- ---- --- ------ ----- ------- ---- -- --- ------- --<br>------- ---------- ------ -- ----- -- ----- -- ---- ------<br>--- ----- --- --- ------ -------- ----- --- ------ ----- --<br>these ----- ---------- --- --- ------ ------ ---- -- ------<br>------- --- ------ ----- --- ---- ------- -- ---- --- --<br>------- ------,223943.59999990463,223943.19999992847,223588.413,223604.29999995232,223605.073,223954.453,,33,these
screen,html.Screen,2_1_1_1_34,2022-05-03T18:30:48.747Z,,,,,,,,,,,,,,,,,54,,,,,,,,,,,,,,294.0469999999914,,response,,,,100,,,,,,,Space,keypress(Space),,,,,,,,-- --- ---- --- ------ ----- ------- ---- -- --- ------- --<br>------- ---------- ------ -- ----- -- ----- -- ---- ------<br>--- ----- --- --- ------ -------- ----- --- ------ ----- --<br>----- bonds ---------- --- --- ------ ------ ---- -- ------<br>------- --- ------ ----- --- ---- ------- -- ---- --- --<br>------- ------,224248.79999995232,224248.5,223937.805,223943.69999992847,223954.453,224254.945,,34,bonds
screen,html.Screen,2_1_1_1_35,2022-05-03T18:30:49.062Z,,,,,,,,,,,,,,,,,54,,,,,,,,,,,,,,308.054999999993,,response,,,,100,,,,,,,Space,keypress(Space),,,,,,,,"-- --- ---- --- ------ ----- ------- ---- -- --- ------- --<br>------- ---------- ------ -- ----- -- ----- -- ---- ------<br>--- ----- --- --- ------ -------- ----- --- ------ ----- --<br>----- ----- plummeted, --- --- ------ ------ ---- -- ------<br>------- --- ------ ----- --- ---- ------- -- ---- --- --<br>------- ------",224563.29999995232,224563,224238.284,224248.89999997616,224254.945,224571.602,,35,"plummeted,"
screen,html.Screen,2_1_1_1_36,2022-05-03T18:30:49.392Z,,,,,,,,,,,,,,,,,54,,,,,,,,,,,,,,321.8979999999865,,response,,,,100,,,,,,,Space,keypress(Space),,,,,,,,-- --- ---- --- ------ ----- ------- ---- -- --- ------- --<br>------- ---------- ------ -- ----- -- ----- -- ---- ------<br>--- ----- --- --- ------ -------- ----- --- ------ ----- --<br>----- ----- ---------- and --- ------ ------ ---- -- ------<br>------- --- ------ ----- --- ---- ------- -- ---- --- --<br>------- ------,224893.79999995232,224893.5,224554.935,224563.39999997616,224571.602,224904.421,,36,and
screen,html.Screen,2_1_1_1_37,2022-05-03T18:30:49.737Z,,,,,,,,,,,,,,,,,54,,,,,,,,,,,,,,334.1789999046305,,response,,,,100,,,,,,,Space,keypress(Space),,,,,,,,-- --- ---- --- ------ ----- ------- ---- -- --- ------- --<br>------- ---------- ------ -- ----- -- ----- -- ---- ------<br>--- ----- --- --- ------ -------- ----- --- ------ ----- --<br>----- ----- ---------- --- the ------ ------ ---- -- ------<br>------- --- ------ ----- --- ---- ------- -- ---- --- --<br>------- ------,225239,225238.59999990463,224887.763,224893.89999997616,224904.421,225254.63,,37,the
screen,html.Screen,2_1_1_1_38,2022-05-03T18:30:50.072Z,,,,,,,,,,,,,,,,,54,,,,,,,,,,,,,,318.56999992846977,,response,,,,100,,,,,,,Space,keypress(Space),,,,,,,,-- --- ---- --- ------ ----- ------- ---- -- --- ------- --<br>------- ---------- ------ -- ----- -- ----- -- ---- ------<br>--- ----- --- --- ------ -------- ----- --- ------ ----- --<br>----- ----- ---------- --- --- market ------ ---- -- ------<br>------- --- ------ ----- --- ---- ------- -- ---- --- --<br>------- ------,225573.5,225573.19999992847,225237.963,225239.09999990463,225254.63,225587.688,,38,market
screen,html.Screen,2_1_1_1_39,2022-05-03T18:30:50.412Z,,,,,,,,,,,,,,,,,54,,,,,,,,,,,,,,325.9119999046379,,response,,,,100,,,,,,,Space,keypress(Space),,,,,,,,-- --- ---- --- ------ ----- ------- ---- -- --- ------- --<br>------- ---------- ------ -- ----- -- ----- -- ---- ------<br>--- ----- --- --- ------ -------- ----- --- ------ ----- --<br>----- ----- ---------- --- --- ------ became ---- -- ------<br>------- --- ------ ----- --- ---- ------- -- ---- --- --<br>------- ------,225914,225913.59999990463,225571.029,225573.59999990463,225587.688,225920.814,,39,became
screen,html.Screen,2_1_1_1_40,2022-05-03T18:30:50.728Z,,,,,,,,,,,,,,,,,54,,,,,,,,,,,,,,308.28599990461953,,response,,,,100,,,,,,,Space,keypress(Space),,,,,,,,-- --- ---- --- ------ ----- ------- ---- -- --- ------- --<br>------- ---------- ------ -- ----- -- ----- -- ---- ------<br>--- ----- --- --- ------ -------- ----- --- ------ ----- --<br>----- ----- ---------- --- --- ------ ------ wary -- ------<br>------- --- ------ ----- --- ---- ------- -- ---- --- --<br>------- ------,226229.59999990463,226229.09999990463,225904.152,225914.09999990463,225920.814,226237.471,,40,wary
screen,html.Screen,2_1_1_1_41,2022-05-03T18:30:51.124Z,,,,,,,,,,,,,,,,,54,,,,,,,,,,,,,,388.1289999046421,,response,,,,100,,,,,,,Space,keypress(Space),,,,,,,,-- --- ---- --- ------ ----- ------- ---- -- --- ------- --<br>------- ---------- ------ -- ----- -- ----- -- ---- ------<br>--- ----- --- --- ------ -------- ----- --- ------ ----- --<br>----- ----- ---------- --- --- ------ ------ ---- of ------<br>------- --- ------ ----- --- ---- ------- -- ---- --- --<br>------- ------,226625.89999997616,226625.59999990463,226220.803,226229.69999992847,226237.471,226637.19,,41,of
screen,html.Screen,2_1_1_1_42,2022-05-03T18:30:51.469Z,,,,,,,,,,,,,,,,,54,,,,,,,,,,,,,,333.10999995231396,,response,,,,100,,,,,,,Space,keypress(Space),,,,,,,,-- --- ---- --- ------ ----- ------- ---- -- --- ------- --<br>------- ---------- ------ -- ----- -- ----- -- ---- ------<br>--- ----- --- --- ------ -------- ----- --- ------ ----- --<br>----- ----- ---------- --- --- ------ ------ ---- -- French<br>------- --- ------ ----- --- ---- ------- -- ---- --- --<br>------- ------,226970.79999995232,226970.29999995232,226620.528,226626.09999990463,226637.19,226987.063,,42,French
screen,html.Screen,2_1_1_1_43,2022-05-03T18:30:51.828Z,,,,,,,,,,,,,,,,,54,,,,,,,,,,,,,,342.3369999761635,,response,,,,100,,,,,,,Space,keypress(Space),,,,,,,,-- --- ---- --- ------ ----- ------- ---- -- --- ------- --<br>------- ---------- ------ -- ----- -- ----- -- ---- ------<br>--- ----- --- --- ------ -------- ----- --- ------ ----- --<br>----- ----- ---------- --- --- ------ ------ ---- -- ------<br>credit. --- ------ ----- --- ---- ------- -- ---- --- --<br>------- ------,227329.79999995232,227329.39999997616,226970.402,226970.79999995232,226987.063,227336.892,,43,credit.
screen,html.Screen,2_1_1_1_44,2022-05-03T18:30:52.188Z,,,,,,,,,,,,,,,,,54,,,,,,,,,,,,,,352.90799995232373,,response,,,,100,,,,,,,Space,keypress(Space),,,,,,,,-- --- ---- --- ------ ----- ------- ---- -- --- ------- --<br>------- ---------- ------ -- ----- -- ----- -- ---- ------<br>--- ----- --- --- ------ -------- ----- --- ------ ----- --<br>----- ----- ---------- --- --- ------ ------ ---- -- ------<br>------- The ------ ----- --- ---- ------- -- ---- --- --<br>------- ------,227690.29999995232,227689.79999995232,227320.237,227329.89999997616,227336.892,227703.604,,44,The
screen,html.Screen,2_1_1_1_45,2022-05-03T18:30:52.508Z,,,,,,,,,,,,,,,,,54,,,,,,,,,,,,,,305.8960000000079,,response,,,,100,,,,,,,Space,keypress(Space),,,,,,,,-- --- ---- --- ------ ----- ------- ---- -- --- ------- --<br>------- ---------- ------ -- ----- -- ----- -- ---- ------<br>--- ----- --- --- ------ -------- ----- --- ------ ----- --<br>----- ----- ---------- --- --- ------ ------ ---- -- ------<br>------- --- French ----- --- ---- ------- -- ---- --- --<br>------- ------,228009.89999997616,228009.5,227686.944,227690.29999995232,227703.604,228019.633,,45,French
screen,html.Screen,2_1_1_1_46,2022-05-03T18:30:52.723Z,,,,,,,,,,,,,,,,,54,,,,,,,,,,,,,,205.16699995231465,,response,,,,100,,,,,,,Space,keypress(Space),,,,,,,,-- --- ---- --- ------ ----- ------- ---- -- --- ------- --<br>------- ---------- ------ -- ----- -- ----- -- ---- ------<br>--- ----- --- --- ------ -------- ----- --- ------ ----- --<br>----- ----- ---------- --- --- ------ ------ ---- -- ------<br>------- --- ------ state --- ---- ------- -- ---- --- --<br>------- ------,228225.19999992847,228224.79999995232,228002.983,228010,228019.633,228236.066,,46,state
screen,html.Screen,2_1_1_1_47,2022-05-03T18:30:53.215Z,,,,,,,,,,,,,,,,,54,,,,,,,,,,,,,,480.03399990464095,,response,,,,100,,,,,,,Space,keypress(Space),,,,,,,,-- --- ---- --- ------ ----- ------- ---- -- --- ------- --<br>------- ---------- ------ -- ----- -- ----- -- ---- ------<br>--- ----- --- --- ------ -------- ----- --- ------ ----- --<br>----- ----- ---------- --- --- ------ ------ ---- -- ------<br>------- --- ------ ----- was ---- ------- -- ---- --- --<br>------- ------,228716.5,228716.09999990463,228219.416,228225.29999995232,228236.066,228719.431,,47,was
screen,html.Screen,2_1_1_1_48,2022-05-03T18:30:53.464Z,,,,,,,,,,,,,,,,,54,,,,,,,,,,,,,,245.5689999999886,,response,,,,100,,,,,,,Space,keypress(Space),,,,,,,,-- --- ---- --- ------ ----- ------- ---- -- --- ------- --<br>------- ---------- ------ -- ----- -- ----- -- ---- ------<br>--- ----- --- --- ------ -------- ----- --- ------ ----- --<br>----- ----- ---------- --- --- ------ ------ ---- -- ------<br>------- --- ------ ----- --- left ------- -- ---- --- --<br>------- ------,228965.29999995232,228965,228702.773,228716.59999990463,228719.431,228969.734,,48,left
screen,html.Screen,2_1_1_1_49,2022-05-03T18:30:53.744Z,,,,,,,,,,,,,,,,,54,,,,,,,,,,,,,,275.1659999761614,,response,,,,100,,,,,,,Space,keypress(Space),,,,,,,,-- --- ---- --- ------ ----- ------- ---- -- --- ------- --<br>------- ---------- ------ -- ----- -- ----- -- ---- ------<br>--- ----- --- --- ------ -------- ----- --- ------ ----- --<br>----- ----- ---------- --- --- ------ ------ ---- -- ------<br>------- --- ------ ----- --- ---- without -- ---- --- --<br>------- ------,229245.39999997616,229244.89999997616,228953.074,228965.39999997616,228969.734,229252.602,,49,without
screen,html.Screen,2_1_1_1_50,2022-05-03T18:30:54.029Z,,,,,,,,,,,,,,,,,54,,,,,,,,,,,,,,277.6979999523028,,response,,,,100,,,,,,,Space,keypress(Space),,,,,,,,-- --- ---- --- ------ ----- ------- ---- -- --- ------- --<br>------- ---------- ------ -- ----- -- ----- -- ---- ------<br>--- ----- --- --- ------ -------- ----- --- ------ ----- --<br>----- ----- ---------- --- --- ------ ------ ---- -- ------<br>------- --- ------ ----- --- ---- ------- an ---- --- --<br>------- ------,229530.79999995232,229530.29999995232,229235.954,229245.5,229252.602,229536.036,,50,an
screen,html.Screen,2_1_1_1_51,2022-05-03T18:30:54.309Z,,,,,,,,,,,,,,,,,54,,,,,,,,,,,,,,274.16399992848164,,response,,,,100,,,,,,,Space,keypress(Space),,,,,,,,-- --- ---- --- ------ ----- ------- ---- -- --- ------- --<br>------- ---------- ------ -- ----- -- ----- -- ---- ------<br>--- ----- --- --- ------ -------- ----- --- ------ ----- --<br>----- ----- ---------- --- --- ------ ------ ---- -- ------<br>------- --- ------ ----- --- ---- ------- -- easy --- --<br>------- ------,229810.79999995232,229810.19999992847,229519.375,229530.89999997616,229536.036,229819.359,,51,easy
screen,html.Screen,2_1_1_1_52,2022-05-03T18:30:54.614Z,,,,,,,,,,,,,,,,,54,,,,,,,,,,,,,,295.8409999284777,,response,,,,100,,,,,,,Space,keypress(Space),,,,,,,,-- --- ---- --- ------ ----- ------- ---- -- --- ------- --<br>------- ---------- ------ -- ----- -- ----- -- ---- ------<br>--- ----- --- --- ------ -------- ----- --- ------ ----- --<br>----- ----- ---------- --- --- ------ ------ ---- -- ------<br>------- --- ------ ----- --- ---- ------- -- ---- way --<br>------- ------,230115.69999992847,230115.19999992847,229802.692,229810.79999995232,229819.359,230119.046,,52,way
screen,html.Screen,2_1_1_1_53,2022-05-03T18:30:54.909Z,,,,,,,,,,,,,,,,,54,,,,,,,,,,,,,,291.15399992847233,,response,,,,100,,,,,,,Space,keypress(Space),,,,,,,,-- --- ---- --- ------ ----- ------- ---- -- --- ------- --<br>------- ---------- ------ -- ----- -- ----- -- ---- ------<br>--- ----- --- --- ------ -------- ----- --- ------ ----- --<br>----- ----- ---------- --- --- ------ ------ ---- -- ------<br>------- --- ------ ----- --- ---- ------- -- ---- --- of<br>------- ------,230410.59999990463,230410.19999992847,230102.388,230115.69999992847,230119.046,230419.436,,53,of
screen,html.Screen,2_1_1_1_54,2022-05-03T18:30:55.254Z,,,,,,,,,,,,,,,,,54,,,,,,,,,,,,,,335.6639999046456,,response,,,,100,,,,,,,Space,keypress(Space),,,,,,,,-- --- ---- --- ------ ----- ------- ---- -- --- ------- --<br>------- ---------- ------ -- ----- -- ----- -- ---- ------<br>--- ----- --- --- ------ -------- ----- --- ------ ----- --<br>----- ----- ---------- --- --- ------ ------ ---- -- ------<br>------- --- ------ ----- --- ---- ------- -- ---- --- --<br>raising ------,230755.5,230755.09999990463,230402.769,230410.69999992847,230419.436,230768.861,,54,raising
screen,html.Screen,2_1_1_1_55,2022-05-03T18:30:55.614Z,,,,,,,,,,,,,,,,,54,,,,,,,,,,,,,,346.6389999999956,,response,,,,100,,,,,,,Space,keypress(Space),,,,,,,,-- --- ---- --- ------ ----- ------- ---- -- --- ------- --<br>------- ---------- ------ -- ----- -- ----- -- ---- ------<br>--- ----- --- --- ------ -------- ----- --- ------ ----- --<br>----- ----- ---------- --- --- ------ ------ ---- -- ------<br>------- --- ------ ----- --- ---- ------- -- ---- --- --<br>------- money.,231115.89999997616,231115.5,230752.202,230755.59999990463,230768.861,231118.75,,55,money.
Item 100,flow.Loop,2_1_1_1,2022-05-03T18:30:55.614Z,,,,,,,,,,,,,,,,,,,,,,,,,,,,,,,19639.326,,completion,,,,,A,,,,,,,,,,,silence,,,,,231116,231115.5,211459.516,211461.09999990463,211476.174,231118.75,,,
Question 1,html.Screen,2_1_1_2,2022-05-03T18:30:58.414Z,,,,,,,,,,,,,,,,,,,,,,,,,,,,true,TRUE,,2796.0499999523163,,response,,,,100,A,,,,,,TRUE,click #choice-1,,,,silence,,,,,233915.5,233914.79999995232,231102.088,231116.09999990463,231118.75,233934.27,,,
Question 2,html.Screen,2_1_1_3,2022-05-03T18:31:01.590Z,,,,,,,,,,,,,,,,,,,,,,,,,,,,false,FALSE,,3156.829999904643,,response,,,,100,A,,,,,,TRUE,click #choice-1,,,,silence,,,,,237091.89999997616,237091.09999990463,233917.581,233915.5,233934.27,237099.6,,,
Item 100,flow.Sequence,2_1_1,2022-05-03T18:31:01.590Z,,,,,,,,,,,,,,,,,,,,,,,,,,,,,,,35610.56699990464,,completion,,,,,,,,,,,,,,,,,,,,,237092.09999990463,237091.09999990463,201463.854,201449.69999992847,201480.533,237099.6,,,
End of Practice,html.Page,2_1_2,2022-05-03T18:31:05.808Z,,,,,,,,,,,,,,,,,,,,,,,,,,,,,,,4209.599999928469,,form submission,,,,,,,,,,,,,,,,,,,,,241309.39999997616,241309.19999992847,237082.939,237092.09999990463,237099.6,241314.431,,,
Practice,flow.Sequence,2_1,2022-05-03T18:31:05.808Z,,,,,,,,,,,,,,,,,,,,,,,,,,,,,,,81911.92499992848,,completion,,,,,,,,,,,,,,,,,,,,,241309.5,241309.19999992847,159380.698,159380.09999990463,159397.275,241314.431,,,
Trap_instruction,html.Page,2_2_0,2022-05-03T18:31:09.455Z,,,,,,,,,,,,,,,,,,,,,,,,,,,,,,,3642.4689999761467,,form submission,,,,,,,,,,,,,,,,,,,,,244957.19999992847,244956.89999997616,241297.775,241309.5,241314.431,244977.48,,,
trap_trial,html.Screen,2_2_1,2022-05-03T18:31:12.790Z,,,,,,,,,,,,,,,,,,,,,,,,,,,,true,1,,3313.4199999761477,,response,,,,,,,,,,,1,click #choice-1,,,,,,,,,248291.59999990463,248290.89999997616,244944.18,244957.19999992847,244977.48,248295.877,,,
end of trap trial,html.Page,2_2_2,2022-05-03T18:31:15.308Z,,,,,,,,,,,,,,,,,,,,,,,,,,,,,,,2514.0229999761505,,form submission,,,,,,,,,,,,,,,,,,,,,250810.09999990463,250809.89999997616,248279.204,248291.59999990463,248295.877,250810.944,,,
Trap 1,flow.Sequence,2_2,2022-05-03T18:31:15.308Z,,,,,,,,,,,,,,,,,,,,,,,,,,,,,,,9495.468999976147,,completion,,,,,,,,,,,,,,,,,,,,,250810.29999995232,250809.89999997616,241297.775,241309.5,241314.431,250810.944,,,
Standby,html.Page,2_3_0,2022-05-03T18:31:23.291Z,,,,,,,,,,,,,,,,,,,,,,,,,,,,,,,7996.483000000007,,timeout,,,,,,,,,,,,,,,,,,,,,258792.39999997616,258790.768,250794.277,250810.29999995232,250810.944,258807.427,,,
Holding screen,html.Screen,2_3_1_0_0,2022-05-03T18:31:30.289Z,,,,,,,,,,,,,,,,,,,,,,,,,,,,,,,6998.879999999976,,timeout,,,,,,,,,,,,,,,,,,,,,265791,265789.636,258790.768,258792.5,258807.427,265806.307,,,
screen,html.Screen,2_3_1_0_1_0,2022-05-03T18:31:31.084Z,,,,,,,,,,,,,,,,,12,,,,,,,,,,,,,,779.292999904661,,response,,,,5,A,,,,,,Space,keypress(Space),,,,silence,,,,Some ------ ------ ------- ------ --- ------- -----------<br>-- ----- --- ---- -- --- ------ ---- - ---- -- ----------<br>-- ------ ---- --- ---- --- --- --- ----- -- -------- ---<br>------ ------- -------- --- ---- -- ------- ------------ --<br>------ -- ---- -- --- ---- -- -------- -- --- ------ ------,266586.1999999285,266585.59999990463,265789.636,265791.1999999285,265806.307,266587.717,,0,Some
screen,html.Screen,2_3_1_0_1_1,2022-05-03T18:31:31.555Z,,,,,,,,,,,,,,,,,12,,,,,,,,,,,,,,468.5829999523121,,response,,,,5,A,,,,,,Space,keypress(Space),,,,silence,,,,---- months ------ ------- ------ --- ------- -----------<br>-- ----- --- ---- -- --- ------ ---- - ---- -- ----------<br>-- ------ ---- --- ---- --- --- --- ----- -- -------- ---<br>------ ------- -------- --- ---- -- ------- ------------ --<br>------ -- ---- -- --- ---- -- -------- -- --- ------ ------,267056.7999999523,267056.2999999523,266571.06,266586.2999999523,266587.717,267071.435,,1,months
screen,html.Screen,2_3_1_0_1_2,2022-05-03T18:31:31.990Z,,,,,,,,,,,,,,,,,12,,,,,,,,,,,,,,419.3649999523186,,response,,,,5,A,,,,,,Space,keypress(Space),,,,silence,,,,"---- ------ later, ------- ------ --- ------- -----------<br>-- ----- --- ---- -- --- ------ ---- - ---- -- ----------<br>-- ------ ---- --- ---- --- --- --- ----- -- -------- ---<br>------ ------- -------- --- ---- -- ------- ------------ --<br>------ -- ---- -- --- ---- -- -------- -- --- ------ ------",267491.2999999523,267490.7999999523,267054.769,267056.7999999523,267071.435,267503.903,,2,"later,"
screen,html.Screen,2_3_1_0_1_3,2022-05-03T18:31:32.384Z,,,,,,,,,,,,,,,,,12,,,,,,,,,,,,,,381.6969999046414,,response,,,,5,A,,,,,,Space,keypress(Space),,,,silence,,,,---- ------ ------ Michael ------ --- ------- -----------<br>-- ----- --- ---- -- --- ------ ---- - ---- -- ----------<br>-- ------ ---- --- ---- --- --- --- ----- -- -------- ---<br>------ ------- -------- --- ---- -- ------- ------------ --<br>------ -- ---- -- --- ---- -- -------- -- --- ------ ------,267886.09999990463,267885.59999990463,267487.245,267491.39999997616,267503.903,267887.191,,3,Michael
screen,html.Screen,2_3_1_0_1_4,2022-05-03T18:31:32.750Z,,,,,,,,,,,,,,,,,12,,,,,,,,,,,,,,364.0089999284828,,response,,,,5,A,,,,,,Space,keypress(Space),,,,silence,,,,---- ------ ------ ------- Larson --- ------- -----------<br>-- ----- --- ---- -- --- ------ ---- - ---- -- ----------<br>-- ------ ---- --- ---- --- --- --- ----- -- -------- ---<br>------ ------- -------- --- ---- -- ------- ------------ --<br>------ -- ---- -- --- ---- -- -------- -- --- ------ ------,268251.7999999523,268251.1999999285,267870.537,267886.1999999285,267887.191,268253.938,,4,Larson
screen,html.Screen,2_3_1_0_1_5,2022-05-03T18:31:33.160Z,,,,,,,,,,,,,,,,,12,,,,,,,,,,,,,,407.2619999284507,,response,,,,5,A,,,,,,Space,keypress(Space),,,,silence,,,,---- ------ ------ ------- ------ saw ------- -----------<br>-- ----- --- ---- -- --- ------ ---- - ---- -- ----------<br>-- ------ ---- --- ---- --- --- --- ----- -- -------- ---<br>------ ------- -------- --- ---- -- ------- ------------ --<br>------ -- ---- -- --- ---- -- -------- -- --- ------ ------,268661.59999990463,268661.1999999285,268237.273,268251.7999999523,268253.938,268669.523,,5,saw
screen,html.Screen,2_3_1_0_1_6,2022-05-03T18:31:33.560Z,,,,,,,,,,,,,,,,,12,,,,,,,,,,,,,,391.5769999046461,,response,,,,5,A,,,,,,Space,keypress(Space),,,,silence,,,,---- ------ ------ ------- ------ --- another -----------<br>-- ----- --- ---- -- --- ------ ---- - ---- -- ----------<br>-- ------ ---- --- ---- --- --- --- ----- -- -------- ---<br>------ ------- -------- --- ---- -- ------- ------------ --<br>------ -- ---- -- --- ---- -- -------- -- --- ------ ------,269061.5,269061.09999990463,268652.881,268661.6999999285,268669.523,269069.972,,6,another
screen,html.Screen,2_3_1_0_1_7,2022-05-03T18:31:33.935Z,,,,,,,,,,,,,,,,,12,,,,,,,,,,,,,,366.1279999046237,,response,,,,5,A,,,,,,Space,keypress(Space),,,,silence,,,,---- ------ ------ ------- ------ --- ------- opportunity<br>-- ----- --- ---- -- --- ------ ---- - ---- -- ----------<br>-- ------ ---- --- ---- --- --- --- ----- -- -------- ---<br>------ ------- -------- --- ---- -- ------- ------------ --<br>------ -- ---- -- --- ---- -- -------- -- --- ------ ------,269436.59999990463,269436.09999990463,269053.314,269061.59999990463,269069.972,269453.094,,7,opportunity
screen,html.Screen,2_3_1_0_1_8,2022-05-03T18:31:34.330Z,,,,,,,,,,,,,,,,,12,,,,,,,,,,,,,,377.80599997617537,,response,,,,5,A,,,,,,Space,keypress(Space),,,,silence,,,,---- ------ ------ ------- ------ --- ------- -----------<br>to ----- --- ---- -- --- ------ ---- - ---- -- ----------<br>-- ------ ---- --- ---- --- --- --- ----- -- -------- ---<br>------ ------- -------- --- ---- -- ------- ------------ --<br>------ -- ---- -- --- ---- -- -------- -- --- ------ ------,269831.39999997616,269830.89999997616,269436.437,269436.6999999285,269453.094,269836.34,,8,to
screen,html.Screen,2_3_1_0_1_9,2022-05-03T18:31:34.696Z,,,,,,,,,,,,,,,,,12,,,,,,,,,,,,,,361.05999997613253,,response,,,,5,A,,,,,,Space,keypress(Space),,,,silence,,,,---- ------ ------ ------- ------ --- ------- -----------<br>-- stack --- ---- -- --- ------ ---- - ---- -- ----------<br>-- ------ ---- --- ---- --- --- --- ----- -- -------- ---<br>------ ------- -------- --- ---- -- ------- ------------ --<br>------ -- ---- -- --- ---- -- -------- -- --- ------ ------,270198,270197.39999997616,269819.681,269831.5,269836.34,270202.667,,9,stack
screen,html.Screen,2_3_1_0_1_10,2022-05-03T18:31:35.070Z,,,,,,,,,,,,,,,,,12,,,,,,,,,,,,,,368.83299999998417,,response,,,,5,A,,,,,,Space,keypress(Space),,,,silence,,,,---- ------ ------ ------- ------ --- ------- -----------<br>-- ----- the ---- -- --- ------ ---- - ---- -- ----------<br>-- ------ ---- --- ---- --- --- --- ----- -- -------- ---<br>------ ------- -------- --- ---- -- ------- ------------ --<br>------ -- ---- -- --- ---- -- -------- -- --- ------ ------,270571.89999997616,270571.5,270186.014,270198,270202.667,270586.082,,10,the
screen,html.Screen,2_3_1_0_1_11,2022-05-03T18:31:35.460Z,,,,,,,,,,,,,,,,,12,,,,,,,,,,,,,,375.2179999523214,,response,,,,5,A,,,,,,Space,keypress(Space),,,,silence,,,,---- ------ ------ ------- ------ --- ------- -----------<br>-- ----- --- odds -- --- ------ ---- - ---- -- ----------<br>-- ------ ---- --- ---- --- --- --- ----- -- -------- ---<br>------ ------- -------- --- ---- -- ------- ------------ --<br>------ -- ---- -- --- ---- -- -------- -- --- ------ ------,270961.6999999285,270961.2999999523,270569.427,270572,270586.082,270969.462,,11,odds
screen,html.Screen,2_3_1_0_1_12,2022-05-03T18:31:35.840Z,,,,,,,,,,,,,,,,,12,,,,,,,,,,,,,,371.9379999761586,,response,,,,5,A,,,,,,Space,keypress(Space),,,,silence,,,,---- ------ ------ ------- ------ --- ------- -----------<br>-- ----- --- ---- in --- ------ ---- - ---- -- ----------<br>-- ------ ---- --- ---- --- --- --- ----- -- -------- ---<br>------ ------- -------- --- ---- -- ------- ------------ --<br>------ -- ---- -- --- ---- -- -------- -- --- ------ ------,271341.7999999523,271341.39999997616,270952.798,270961.7999999523,270969.462,271352.62,,12,in
screen,html.Screen,2_3_1_0_1_13,2022-05-03T18:31:36.196Z,,,,,,,,,,,,,,,,,12,,,,,,,,,,,,,,344.2799999761628,,response,,,,5,A,,,,,,Space,keypress(Space),,,,silence,,,,---- ------ ------ ------- ------ --- ------- -----------<br>-- ----- --- ---- -- his ------ ---- - ---- -- ----------<br>-- ------ ---- --- ---- --- --- --- ----- -- -------- ---<br>------ ------- -------- --- ---- -- ------- ------------ --<br>------ -- ---- -- --- ---- -- -------- -- --- ------ ------,271697.39999997616,271696.89999997616,271335.963,271341.89999997616,271352.62,271702.227,,13,his
screen,html.Screen,2_3_1_0_1_14,2022-05-03T18:31:36.566Z,,,,,,,,,,,,,,,,,12,,,,,,,,,,,,,,364.67299997614464,,response,,,,5,A,,,,,,Space,keypress(Space),,,,silence,,,,---- ------ ------ ------- ------ --- ------- -----------<br>-- ----- --- ---- -- --- favour ---- - ---- -- ----------<br>-- ------ ---- --- ---- --- --- --- ----- -- -------- ---<br>------ ------- -------- --- ---- -- ------- ------------ --<br>------ -- ---- -- --- ---- -- -------- -- --- ------ ------,272067.39999997616,272066.89999997616,271685.57,271697.39999997616,271702.227,272068.977,,14,favour
screen,html.Screen,2_3_1_0_1_15,2022-05-03T18:31:36.925Z,,,,,,,,,,,,,,,,,12,,,,,,,,,,,,,,357.8229999523028,,response,,,,5,A,,,,,,Space,keypress(Space),,,,silence,,,,---- ------ ------ ------- ------ --- ------- -----------<br>-- ----- --- ---- -- --- ------ with - ---- -- ----------<br>-- ------ ---- --- ---- --- --- --- ----- -- -------- ---<br>------ ------- -------- --- ---- -- ------- ------------ --<br>------ -- ---- -- --- ---- -- -------- -- --- ------ ------,272427.1999999285,272426.7999999523,272052.318,272067.39999997616,272068.977,272436.14,,15,with
screen,html.Screen,2_3_1_0_1_16,2022-05-03T18:31:37.276Z,,,,,,,,,,,,,,,,,12,,,,,,,,,,,,,,340.7599999761442,,response,,,,5,A,,,,,,Space,keypress(Space),,,,silence,,,,---- ------ ------ ------- ------ --- ------- -----------<br>-- ----- --- ---- -- --- ------ ---- a ---- -- ----------<br>-- ------ ---- --- ---- --- --- --- ----- -- -------- ---<br>------ ------- -------- --- ---- -- ------- ------------ --<br>------ -- ---- -- --- ---- -- -------- -- --- ------ ------,272777.39999997616,272776.89999997616,272419.469,272427.2999999523,272436.14,272785.397,,16,a
screen,html.Screen,2_3_1_0_1_17,2022-05-03T18:31:37.616Z,,,,,,,,,,,,,,,,,12,,,,,,,,,,,,,,332.00299997616094,,response,,,,5,A,,,,,,Space,keypress(Space),,,,silence,,,,---- ------ ------ ------- ------ --- ------- -----------<br>-- ----- --- ---- -- --- ------ ---- - dash -- ----------<br>-- ------ ---- --- ---- --- --- --- ----- -- -------- ---<br>------ ------- -------- --- ---- -- ------- ------------ --<br>------ -- ---- -- --- ---- -- -------- -- --- ------ ------,273117.7999999523,273117.39999997616,272768.74,272777.5,272785.397,273118.787,,17,dash
screen,html.Screen,2_3_1_0_1_18,2022-05-03T18:31:37.971Z,,,,,,,,,,,,,,,,,12,,,,,,,,,,,,,,353.3129999046214,,response,,,,5,A,,,,,,Space,keypress(Space),,,,silence,,,,---- ------ ------ ------- ------ --- ------- -----------<br>-- ----- --- ---- -- --- ------ ---- - ---- of ----------<br>-- ------ ---- --- ---- --- --- --- ----- -- -------- ---<br>------ ------- -------- --- ---- -- ------- ------------ --<br>------ -- ---- -- --- ---- -- -------- -- --- ------ ------,273472.5,273472.09999990463,273102.121,273117.89999997616,273118.787,273485.037,,18,of
screen,html.Screen,2_3_1_0_1_19,2022-05-03T18:31:38.358Z,,,,,,,,,,,,,,,,,12,,,,,,,,,,,,,,374.4629999999888,,response,,,,5,A,,,,,,Space,keypress(Space),,,,silence,,,,---- ------ ------ ------- ------ --- ------- -----------<br>-- ----- --- ---- -- --- ------ ---- - ---- -- ingenuity.<br>-- ------ ---- --- ---- --- --- --- ----- -- -------- ---<br>------ ------- -------- --- ---- -- ------- ------------ --<br>------ -- ---- -- --- ---- -- -------- -- --- ------ ------,273859.89999997616,273859.5,273468.379,273472.59999990463,273485.037,273868.142,,19,ingenuity.
screen,html.Screen,2_3_1_0_1_20,2022-05-03T18:31:39.476Z,,,,,,,,,,,,,,,,,12,,,,,,,,,,,,,,1109.6579999523237,,response,,,,5,A,,,,,,Space,keypress(Space),,,,silence,,,,---- ------ ------ ------- ------ --- ------- -----------<br>-- ----- --- ---- -- --- ------ ---- - ---- -- ----------<br>He ------ ---- --- ---- --- --- --- ----- -- -------- ---<br>------ ------- -------- --- ---- -- ------- ------------ --<br>------ -- ---- -- --- ---- -- -------- -- --- ------ ------,274978.09999990463,274977.7999999523,273851.488,273860,273868.142,274984.821,,20,He
screen,html.Screen,2_3_1_0_1_21,2022-05-03T18:31:39.881Z,,,,,,,,,,,,,,,,,12,,,,,,,,,,,,,,397.87899992847815,,response,,,,5,A,,,,,,Space,keypress(Space),,,,silence,,,,---- ------ ------ ------- ------ --- ------- -----------<br>-- ----- --- ---- -- --- ------ ---- - ---- -- ----------<br>-- walked ---- --- ---- --- --- --- ----- -- -------- ---<br>------ ------- -------- --- ---- -- ------- ------------ --<br>------ -- ---- -- --- ---- -- -------- -- --- ------ ------,275383.09999990463,275382.6999999285,274968.156,274978.2999999523,274984.821,275399.396,,21,walked
screen,html.Screen,2_3_1_0_1_22,2022-05-03T18:31:40.237Z,,,,,,,,,,,,,,,,,12,,,,,,,,,,,,,,339.0039999761502,,response,,,,5,A,,,,,,Space,keypress(Space),,,,silence,,,,---- ------ ------ ------- ------ --- ------- -----------<br>-- ----- --- ---- -- --- ------ ---- - ---- -- ----------<br>-- ------ into --- ---- --- --- --- ----- -- -------- ---<br>------ ------- -------- --- ---- -- ------- ------------ --<br>------ -- ---- -- --- ---- -- -------- -- --- ------ ------,275738.59999990463,275738.39999997616,275382.754,275383.1999999285,275399.396,275750.633,,22,into
screen,html.Screen,2_3_1_0_1_23,2022-05-03T18:31:40.601Z,,,,,,,,,,,,,,,,,12,,,,,,,,,,,,,,351.8670000000275,,response,,,,5,A,,,,,,Space,keypress(Space),,,,silence,,,,---- ------ ------ ------- ------ --- ------- -----------<br>-- ----- --- ---- -- --- ------ ---- - ---- -- ----------<br>-- ------ ---- his ---- --- --- --- ----- -- -------- ---<br>------ ------- -------- --- ---- -- ------- ------------ --<br>------ -- ---- -- --- ---- -- -------- -- --- ------ ------,276102.89999997616,276102.5,275733.975,275738.7999999523,275750.633,276117.136,,23,his
screen,html.Screen,2_3_1_0_1_24,2022-05-03T18:31:40.967Z,,,,,,,,,,,,,,,,,12,,,,,,,,,,,,,,350.96399990463397,,response,,,,5,A,,,,,,Space,keypress(Space),,,,silence,,,,---- ------ ------ ------- ------ --- ------- -----------<br>-- ----- --- ---- -- --- ------ ---- - ---- -- ----------<br>-- ------ ---- --- bank --- --- --- ----- -- -------- ---<br>------ ------- -------- --- ---- -- ------- ------------ --<br>------ -- ---- -- --- ---- -- -------- -- --- ------ ------,276468.59999990463,276468.09999990463,276100.479,276103,276117.136,276484.071,,24,bank
screen,html.Screen,2_3_1_0_1_25,2022-05-03T18:31:41.357Z,,,,,,,,,,,,,,,,,12,,,,,,,,,,,,,,373.82899997616187,,response,,,,5,A,,,,,,Space,keypress(Space),,,,silence,,,,---- ------ ------ ------- ------ --- ------- -----------<br>-- ----- --- ---- -- --- ------ ---- - ---- -- ----------<br>-- ------ ---- --- ---- one --- --- ----- -- -------- ---<br>------ ------- -------- --- ---- -- ------- ------------ --<br>------ -- ---- -- --- ---- -- -------- -- --- ------ ------,276858.39999997616,276857.89999997616,276467.412,276468.59999990463,276484.071,276867.022,,25,one
screen,html.Screen,2_3_1_0_1_26,2022-05-03T18:31:41.717Z,,,,,,,,,,,,,,,,,12,,,,,,,,,,,,,,350.87799997616094,,response,,,,5,A,,,,,,Space,keypress(Space),,,,silence,,,,---- ------ ------ ------- ------ --- ------- -----------<br>-- ----- --- ---- -- --- ------ ---- - ---- -- ----------<br>-- ------ ---- --- ---- --- day --- ----- -- -------- ---<br>------ ------- -------- --- ---- -- ------- ------------ --<br>------ -- ---- -- --- ---- -- -------- -- --- ------ ------,277218.39999997616,277217.89999997616,276850.369,276858.5,276867.022,277233.246,,26,day
screen,html.Screen,2_3_1_0_1_27,2022-05-03T18:31:42.057Z,,,,,,,,,,,,,,,,,12,,,,,,,,,,,,,,324.6539999761735,,response,,,,5,A,,,,,,Space,keypress(Space),,,,silence,,,,---- ------ ------ ------- ------ --- ------- -----------<br>-- ----- --- ---- -- --- ------ ---- - ---- -- ----------<br>-- ------ ---- --- ---- --- --- and ----- -- -------- ---<br>------ ------- -------- --- ---- -- ------- ------------ --<br>------ -- ---- -- --- ---- -- -------- -- --- ------ ------,277558.2999999523,277557.89999997616,277216.591,277218.5,277233.246,277566.984,,27,and
screen,html.Screen,2_3_1_0_1_28,2022-05-03T18:31:42.391Z,,,,,,,,,,,,,,,,,12,,,,,,,,,,,,,,325.31599995231954,,response,,,,5,A,,,,,,Space,keypress(Space),,,,silence,,,,---- ------ ------ ------- ------ --- ------- -----------<br>-- ----- --- ---- -- --- ------ ---- - ---- -- ----------<br>-- ------ ---- --- ---- --- --- --- asked -- -------- ---<br>------ ------- -------- --- ---- -- ------- ------------ --<br>------ -- ---- -- --- ---- -- -------- -- --- ------ ------,277892.6999999285,277892.2999999523,277550.32,277558.39999997616,277566.984,277899.866,,28,asked
screen,html.Screen,2_3_1_0_1_29,2022-05-03T18:31:42.722Z,,,,,,,,,,,,,,,,,12,,,,,,,,,,,,,,323.4339999523363,,response,,,,5,A,,,,,,Space,keypress(Space),,,,silence,,,,---- ------ ------ ------- ------ --- ------- -----------<br>-- ----- --- ---- -- --- ------ ---- - ---- -- ----------<br>-- ------ ---- --- ---- --- --- --- ----- to -------- ---<br>------ ------- -------- --- ---- -- ------- ------------ --<br>------ -- ---- -- --- ---- -- -------- -- --- ------ ------,278223.7999999523,278223.2999999523,277883.209,277892.7999999523,277899.866,278233.277,,29,to
screen,html.Screen,2_3_1_0_1_30,2022-05-03T18:31:43.050Z,,,,,,,,,,,,,,,,,12,,,,,,,,,,,,,,318.1229999761563,,response,,,,5,A,,,,,,Space,keypress(Space),,,,silence,,,,---- ------ ------ ------- ------ --- ------- -----------<br>-- ----- --- ---- -- --- ------ ---- - ---- -- ----------<br>-- ------ ---- --- ---- --- --- --- ----- -- withdraw ---<br>------ ------- -------- --- ---- -- ------- ------------ --<br>------ -- ---- -- --- ---- -- -------- -- --- ------ ------,278551.7999999523,278551.39999997616,278216.62,278223.89999997616,278233.277,278566.485,,30,withdraw
screen,html.Screen,2_3_1_0_1_31,2022-05-03T18:31:43.383Z,,,,,,,,,,,,,,,,,12,,,,,,,,,,,,,,317.9149999761721,,response,,,,5,A,,,,,,Space,keypress(Space),,,,silence,,,,---- ------ ------ ------- ------ --- ------- -----------<br>-- ----- --- ---- -- --- ------ ---- - ---- -- ----------<br>-- ------ ---- --- ---- --- --- --- ----- -- -------- his<br>------ ------- -------- --- ---- -- ------- ------------ --<br>------ -- ---- -- --- ---- -- -------- -- --- ------ ------,278884.7999999523,278884.39999997616,278549.826,278551.89999997616,278566.485,278900.012,,31,his
screen,html.Screen,2_3_1_0_1_32,2022-05-03T18:31:43.722Z,,,,,,,,,,,,,,,,,12,,,,,,,,,,,,,,323.18799992848653,,response,,,,5,A,,,,,,Space,keypress(Space),,,,silence,,,,---- ------ ------ ------- ------ --- ------- -----------<br>-- ----- --- ---- -- --- ------ ---- - ---- -- ----------<br>-- ------ ---- --- ---- --- --- --- ----- -- -------- ---<br>entire ------- -------- --- ---- -- ------- ------------ --<br>------ -- ---- -- --- ---- -- -------- -- --- ------ ------,279223.59999990463,279223.1999999285,278883.341,278884.7999999523,278900.012,279232.893,,32,entire
screen,html.Screen,2_3_1_0_1_33,2022-05-03T18:31:44.057Z,,,,,,,,,,,,,,,,,12,,,,,,,,,,,,,,325.3069999284926,,response,,,,5,A,,,,,,Space,keypress(Space),,,,silence,,,,---- ------ ------ ------- ------ --- ------- -----------<br>-- ----- --- ---- -- --- ------ ---- - ---- -- ----------<br>-- ------ ---- --- ---- --- --- --- ----- -- -------- ---<br>------ account -------- --- ---- -- ------- ------------ --<br>------ -- ---- -- --- ---- -- -------- -- --- ------ ------,279558.59999990463,279558.1999999285,279216.236,279223.7999999523,279232.893,279566.284,,33,account
screen,html.Screen,2_3_1_0_1_34,2022-05-03T18:31:44.432Z,,,,,,,,,,,,,,,,,12,,,,,,,,,,,,,,367.11599997617304,,response,,,,5,A,,,,,,Space,keypress(Space),,,,silence,,,,"---- ------ ------ ------- ------ --- ------- -----------<br>-- ----- --- ---- -- --- ------ ---- - ---- -- ----------<br>-- ------ ---- --- ---- --- --- --- ----- -- -------- ---<br>------ ------- balance, --- ---- -- ------- ------------ --<br>------ -- ---- -- --- ---- -- -------- -- --- ------ ------",279933.7999999523,279933.39999997616,279549.618,279558.6999999285,279566.284,279949.264,,34,"balance,"
screen,html.Screen,2_3_1_0_1_35,2022-05-03T18:31:44.753Z,,,,,,,,,,,,,,,,,12,,,,,,,,,,,,,,304.7359999999753,,response,,,,5,A,,,,,,Space,keypress(Space),,,,silence,,,,---- ------ ------ ------- ------ --- ------- -----------<br>-- ----- --- ---- -- --- ------ ---- - ---- -- ----------<br>-- ------ ---- --- ---- --- --- --- ----- -- -------- ---<br>------ ------- -------- but ---- -- ------- ------------ --<br>------ -- ---- -- --- ---- -- -------- -- --- ------ ------,280254.39999997616,280254,279932.606,279933.7999999523,279949.264,280265.373,,35,but
screen,html.Screen,2_3_1_0_1_36,2022-05-03T18:31:45.092Z,,,,,,,,,,,,,,,,,12,,,,,,,,,,,,,,328.1269999999786,,response,,,,5,A,,,,,,Space,keypress(Space),,,,silence,,,,---- ------ ------ ------- ------ --- ------- -----------<br>-- ----- --- ---- -- --- ------ ---- - ---- -- ----------<br>-- ------ ---- --- ---- --- --- --- ----- -- -------- ---<br>------ ------- -------- --- with -- ------- ------------ --<br>------ -- ---- -- --- ---- -- -------- -- --- ------ ------,280593.7999999523,280593.5,280248.719,280254.5,280265.373,280598.983,,36,with
screen,html.Screen,2_3_1_0_1_37,2022-05-03T18:31:45.518Z,,,,,,,,,,,,,,,,,12,,,,,,,,,,,,,,419.9169999761507,,response,,,,5,A,,,,,,Space,keypress(Space),,,,silence,,,,---- ------ ------ ------- ------ --- ------- -----------<br>-- ----- --- ---- -- --- ------ ---- - ---- -- ----------<br>-- ------ ---- --- ---- --- --- --- ----- -- -------- ---<br>------ ------- -------- --- ---- an ------- ------------ --<br>------ -- ---- -- --- ---- -- -------- -- --- ------ ------,281019.39999997616,281018.89999997616,280582.318,280593.89999997616,280598.983,281031.136,,37,an
screen,html.Screen,2_3_1_0_1_38,2022-05-03T18:31:45.850Z,,,,,,,,,,,,,,,,,12,,,,,,,,,,,,,,319.8640000000014,,response,,,,5,A,,,,,,Space,keypress(Space),,,,silence,,,,---- ------ ------ ------- ------ --- ------- -----------<br>-- ----- --- ---- -- --- ------ ---- - ---- -- ----------<br>-- ------ ---- --- ---- --- --- --- ----- -- -------- ---<br>------ ------- -------- --- ---- -- unusual ------------ --<br>------ -- ---- -- --- ---- -- -------- -- --- ------ ------,281351.5,281351,281014.494,281019.39999997616,281031.136,281365.226,,38,unusual
screen,html.Screen,2_3_1_0_1_39,2022-05-03T18:31:46.262Z,,,,,,,,,,,,,,,,,12,,,,,,,,,,,,,,398.2739999999758,,response,,,,5,A,,,,,,Space,keypress(Space),,,,silence,,,,---- ------ ------ ------- ------ --- ------- -----------<br>-- ----- --- ---- -- --- ------ ---- - ---- -- ----------<br>-- ------ ---- --- ---- --- --- --- ----- -- -------- ---<br>------ ------- -------- --- ---- -- ------- stipulation: --<br>------ -- ---- -- --- ---- -- -------- -- --- ------ ------,281764,281763.5,281348.568,281351.5,281365.226,281765.014,,39,stipulation:
screen,html.Screen,2_3_1_0_1_40,2022-05-03T18:31:46.674Z,,,,,,,,,,,,,,,,,12,,,,,,,,,,,,,,409.88599997613346,,response,,,,5,A,,,,,,Space,keypress(Space),,,,silence,,,,---- ------ ------ ------- ------ --- ------- -----------<br>-- ----- --- ---- -- --- ------ ---- - ---- -- ----------<br>-- ------ ---- --- ---- --- --- --- ----- -- -------- ---<br>------ ------- -------- --- ---- -- ------- ------------ He<br>------ -- ---- -- --- ---- -- -------- -- --- ------ ------,282175.39999997616,282174.89999997616,281748.357,281764.09999990463,281765.014,282181.452,,40,He
screen,html.Screen,2_3_1_0_1_41,2022-05-03T18:31:47.058Z,,,,,,,,,,,,,,,,,12,,,,,,,,,,,,,,377.5480000000098,,response,,,,5,A,,,,,,Space,keypress(Space),,,,silence,,,,---- ------ ------ ------- ------ --- ------- -----------<br>-- ----- --- ---- -- --- ------ ---- - ---- -- ----------<br>-- ------ ---- --- ---- --- --- --- ----- -- -------- ---<br>------ ------- -------- --- ---- -- ------- ------------ --<br>wanted -- ---- -- --- ---- -- -------- -- --- ------ ------,282559.2999999523,282559,282164.793,282175.39999997616,282181.452,282564.619,,41,wanted
screen,html.Screen,2_3_1_0_1_42,2022-05-03T18:31:47.373Z,,,,,,,,,,,,,,,,,12,,,,,,,,,,,,,,309.4809999046265,,response,,,,5,A,,,,,,Space,keypress(Space),,,,silence,,,,---- ------ ------ ------- ------ --- ------- -----------<br>-- ----- --- ---- -- --- ------ ---- - ---- -- ----------<br>-- ------ ---- --- ---- --- --- --- ----- -- -------- ---<br>------ ------- -------- --- ---- -- ------- ------------ --<br>------ as ---- -- --- ---- -- -------- -- --- ------ ------,282874.5,282874.09999990463,282547.966,282559.39999997616,282564.619,282881.021,,42,as
