sender,sender_type,sender_id,timestamp,meta,,Blues,Classical,Country,Dance,Electronic,Folk,Gospel,Hip-Hop,Jazz,Latin,Musical/Film,New-age,Pop,Prolific_id,Provo_ID,R&B,Rap,Reggae,Religious,Rock,Soul,Swing,Traditional,age,artist_name,correct,correctResponse,distraction,duration,education,ended_on,familiarity,gender,headphone_check_performance,item,list,music_frequency,offensiveness,pleasantness,position_correct,preference,response,response_action,snippet_file,song_name,song_rating,sound,stimulus_1,stimulus_2,stimulus_3,text,time_commit,time_end,time_render,time_run,time_show,time_switch,url,word,word_ID
Prolific ID,html.Form,0,2022-04-27T11:02:12.011Z,"{""labjs_version"":""20.2.2"",""labjs_build"":{""flavor"":""production"",""commit"":""a25486e0c714a0ae2ce03ff94b7bb6896854dcfa""},""location"":""https://run.pavlovia.org/mvasilev/prolific3_music_b/"",""userAgent"":""Mozilla/5.0 (Windows NT 10.0; Win64; x64) AppleWebKit/537.36 (KHTML, like Gecko) Chrome/100.0.4896.127 Safari/537.36"",""platform"":""Win32"",""language"":""en-US"",""locale"":""en-GB"",""timeZone"":""Europe/London"",""timezoneOffset"":-60,""screen_width"":1366,""screen_height"":768,""scroll_width"":1366,""scroll_height"":577,""window_innerWidth"":1366,""window_innerHeight"":625,""devicePixelRatio"":1}",,,,,,,,,,,,,,,542a893dfdf99b324f76329e,,,,,,,,,,,,,,,7285.312999952317,,form submission,,,,,,,,,,,,,,,,,,,,,17255.699999809265,17255.299999952316,9936.716,9951,9969.987,17268.762,{},,
Introduction,html.Screen,1_0,2022-04-27T11:02:22.166Z,,,,,,,,,,,,,,,,,,,,,,,,,,,,,,,10138.937999809266,,response,,,,,,,,,,,continue,click button,,,,,,,,,27410.89999985695,27407.699999809265,17252.066,17256.099999904633,17268.762,27417.033,,,
Volume calibration,html.Screen,1_1,2022-04-27T11:02:52.374Z,,,,,,,,,,,,,,,,,,,,,,,,,,,,,,,30198.766999952317,,response,,,,,,,,,,,continue,click button,,,,,,,,,57619.39999985695,57615.799999952316,27400.563,27411.199999809265,27417.033,57629.014,,,
Task instructions,html.Screen,1_2,2022-04-27T11:02:56.097Z,,,,,,,,,,,,,,,,,,,,,,,,,,,,,,,3712.485999999997,,response,,,,,,,,,,,continue,click button,,,,,,,,,61342.199999809265,61341.5,57612.195,57619.39999985695,57629.014,61344.789,,,
Sounds,html.Screen,1_3_0_0,2022-04-27T11:03:00.335Z,,,,,,,,,,,,,,,,,,,,,,,,,,,,,,,4249.337000000007,,timeout,,,,,,,,,2,,,,,,,,I,S,O,,65580.29999995232,65577.427,61328.233,61342.39999985695,61344.789,65594.126,,,
Judgement,html.Screen,1_3_0_1,2022-04-27T11:03:05.012Z,,,,,,,,,,,,,,,,,,,,,,,,,,,,false,2,,4661.573999809261,,response,,,,,,,,,2,,1,click #choice-1,,,,,I,S,O,,70256.59999990463,70255.69999980927,65577.427,65580.5,65594.126,70260.041,,,
Trial,flow.Sequence,1_3_0,2022-04-27T11:03:05.013Z,,,,,,,,,,,,,,,,,,,,,,,,,,,,,,,8910.910999809268,,completion,,,,,,,,,2,,,,,,,,I,S,O,,70258.19999980927,70255.69999980927,61328.233,61342.299999952316,61344.789,70260.041,,,
Sounds,html.Screen,1_3_1_0,2022-04-27T11:03:09.250Z,,,,,,,,,,,,,,,,,,,,,,,,,,,,,,,4249.376000000004,,timeout,,,,,,,,,1,,,,,,,,S,I,O,,74495.09999990463,74492.751,70243.509,70258.29999995232,70260.041,74509.417,,,
Judgement,html.Screen,1_3_1_1,2022-04-27T11:03:10.598Z,,,,,,,,,,,,,,,,,,,,,,,,,,,,true,1,,1332.0829999999987,,response,,,,,,,,,1,,1,click #choice-1,,,,,S,I,O,,75842.39999985695,75841.5,74492.751,74495.59999990463,74509.417,75871.112,,,
Trial,flow.Sequence,1_3_1,2022-04-27T11:03:10.599Z,,,,,,,,,,,,,,,,,,,,,,,,,,,,,,,5581.459000000003,,completion,,,,,,,,,1,,,,,,,,S,I,O,,75843.5,75841.5,70243.509,70258.29999995232,70260.041,75871.112,,,
Sounds,html.Screen,1_3_2_0,2022-04-27T11:03:14.864Z,,,,,,,,,,,,,,,,,,,,,,,,,,,,,,,4253.982000000004,,timeout,,,,,,,,,2,,,,,,,,O,S,I,,80109.29999995232,80108.385,75826.089,75843.69999980927,75871.112,80125.094,,,
Judgement,html.Screen,1_3_2_1,2022-04-27T11:03:15.249Z,,,,,,,,,,,,,,,,,,,,,,,,,,,,true,2,,368.30599985695153,,response,,,,,,,,,2,,2,click #choice-2,,,,,O,S,I,,80494.19999980927,80493.39999985695,80108.385,80109.5,80125.094,80508.604,,,
Trial,flow.Sequence,1_3_2,2022-04-27T11:03:15.250Z,,,,,,,,,,,,,,,,,,,,,,,,,,,,,,,4622.287999856955,,completion,,,,,,,,,2,,,,,,,,O,S,I,,80494.5,80493.39999985695,75826.089,75843.69999980927,75871.112,80508.604,,,
Sounds,html.Screen,1_3_3_0,2022-04-27T11:03:19.497Z,,,,,,,,,,,,,,,,,,,,,,,,,,,,,,,4249.344999999987,,timeout,,,,,,,,,1,,,,,,,,S,O,I,,84742.19999980927,84741.324,80491.971,80494.69999980927,80508.604,84757.949,,,
Judgement,html.Screen,1_3_3_1,2022-04-27T11:03:20.690Z,,,,,,,,,,,,,,,,,,,,,,,,,,,,true,1,,1175.850999952323,,response,,,,,,,,,1,,1,click #choice-1,,,,,S,O,I,,85934.69999980927,85933.79999995232,84741.324,84742.39999985695,84757.949,85941.058,,,
Trial,flow.Sequence,1_3_3,2022-04-27T11:03:20.690Z,,,,,,,,,,,,,,,,,,,,,,,,,,,,,,,5425.19599995231,,completion,,,,,,,,,1,,,,,,,,S,O,I,,85934.79999995232,85933.79999995232,80491.971,80494.59999990463,80508.604,85941.058,,,
Sounds,html.Screen,1_3_4_0,2022-04-27T11:03:24.930Z,,,,,,,,,,,,,,,,,,,,,,,,,,,,,,,4249.1449999999895,,timeout,,,,,,,,,3,,,,,,,,O,I,S,,90174.89999985695,90173.484,85924.441,85934.89999985695,85941.058,90190.203,,,
Judgement,html.Screen,1_3_4_1,2022-04-27T11:03:25.432Z,,,,,,,,,,,,,,,,,,,,,,,,,,,,true,3,,485.3969999046385,,response,,,,,,,,,3,,3,click #choice-3,,,,,O,I,S,,90676.39999985695,90675.59999990463,90173.484,90175.19999980927,90190.203,90690.027,,,
Trial,flow.Sequence,1_3_4,2022-04-27T11:03:25.432Z,,,,,,,,,,,,,,,,,,,,,,,,,,,,,,,4734.541999904628,,completion,,,,,,,,,3,,,,,,,,O,I,S,,90676.59999990463,90675.59999990463,85924.441,85934.89999985695,85941.058,90690.027,,,
Sounds,html.Screen,1_3_5_0,2022-04-27T11:03:29.680Z,,,,,,,,,,,,,,,,,,,,,,,,,,,,,,,4249.544999999998,,timeout,,,,,,,,,3,,,,,,,,I,O,S,,94924.29999995232,94922.982,90673.411,90676.69999980927,90690.027,94939.572,,,
Judgement,html.Screen,1_3_5_1,2022-04-27T11:03:30.294Z,,,,,,,,,,,,,,,,,,,,,,,,,,,,true,3,,597.5279999046325,,response,,,,,,,,,3,,3,click #choice-3,,,,,I,O,S,,95538.59999990463,95537.09999990463,94922.982,94924.5,94939.572,95539.236,,,
Trial,flow.Sequence,1_3_5,2022-04-27T11:03:30.294Z,,,,,,,,,,,,,,,,,,,,,,,,,,,,,,,4847.072999904631,,completion,,,,,,,,,3,,,,,,,,I,O,S,,95538.69999980927,95537.09999990463,90673.411,90676.59999990463,90690.027,95539.236,,,
Task,flow.Loop,1_3,2022-04-27T11:03:30.299Z,,,,,,,,,,,,,,,,,,,,,,,,,,,,,,,34192.310999904636,,completion,,,0.8333333333333334,,,,,,,,,,,,,,,,,,95543.89999985695,95537.09999990463,61328.233,61342.299999952316,61344.789,95539.236,,,
Trap,html.Screen,1_4,2022-04-27T11:03:30.300Z,,,,,,,,,,,,,,,,,,,,,,,,,,,,,,,NaN,,skipped,,,,,,,,,,,,,,,,,,,,,95544.79999995232,95537.09999990463,,95544.69999980927,,95539.236,,,
Thanks,html.Screen,1_5,2022-04-27T11:03:34.116Z,,,,,,,,,,,,,,,,,,,,,,,,,,,,,,,3820.563999952312,,response,,,,,,,,,,,continue,click button,,,,,,,,,99360.59999990463,99359.79999995232,95522.671,95544.79999995232,95539.236,101304.986,,,
Headphone screening,flow.Sequence,1,2022-04-27T11:03:34.116Z,,,,,,,,,,,,,,,,,,,,,,,,,,,,,,,82091.03799995231,,completion,,,,,,,,,,,,,,,,,,,,,99360.69999980927,99359.79999995232,17252.066,17256.099999904633,17268.762,101304.986,,,
Instructions,html.Page,2_0,2022-04-27T11:03:59.614Z,,,,,,,,,,,,,,,,,,,,,,,,,,,,,,,23553.613999904628,,form submission,,,,,,,,,,,,,,,,,,,,,124858.69999980927,124858.59999990463,101289.611,101298,101304.986,124867.795,,,
Holding screen,html.Screen,2_1_0_0,2022-04-27T11:04:09.606Z,,,,,,,,,,,,,,,,,,,,,,,,,,,,,,,10015.104000000007,,timeout,,,,,,,,,,,,,,,,,,,,,134851.09999990463,134849.553,124851.119,124858.79999995232,124867.795,134882.899,,,
screen,html.Screen,2_1_0_1_0,2022-04-27T11:04:10.693Z,,,,,,,,,,,,,,,,,53,,,,,,,,,,,,,,1053.100999999995,,response,,,,99,,,,,,,Space,keypress(Space),,,,,,,,When -- ----- -- ------ - ------- --- ----------<br>------------- ------ ------ ---- ---- ------- ----- -- ----<br>-------- ------- -- ---------- --- - --- ----- ----- ----<br>---- --- --- ----- --- ---- ---- ------- ----- ---- -------<br>--- --- -- ----- -- --- ---- -- --- ---- -- ------ ------<br>--- ----- -- ----,135938.09999990463,135936,134849.553,134851.69999980927,134882.899,135949.304,,0,When
screen,html.Screen,2_1_0_1_1,2022-04-27T11:04:11.341Z,,,,,,,,,,,,,,,,,53,,,,,,,,,,,,,,635.3959998092614,,response,,,,99,,,,,,,Space,keypress(Space),,,,,,,,---- it ----- -- ------ - ------- --- ----------<br>------------- ------ ------ ---- ---- ------- ----- -- ----<br>-------- ------- -- ---------- --- - --- ----- ----- ----<br>---- --- --- ----- --- ---- ---- ------- ----- ---- -------<br>--- --- -- ----- -- --- ---- -- --- ---- -- ------ ------<br>--- ----- -- ----,136585.59999990463,136584.69999980927,135932.836,135938.09999990463,135949.304,136599.229,,1,it
screen,html.Screen,2_1_0_1_2,2022-04-27T11:04:11.949Z,,,,,,,,,,,,,,,,,53,,,,,,,,,,,,,,593.7710000000079,,response,,,,99,,,,,,,Space,keypress(Space),,,,,,,,---- -- comes -- ------ - ------- --- ----------<br>------------- ------ ------ ---- ---- ------- ----- -- ----<br>-------- ------- -- ---------- --- - --- ----- ----- ----<br>---- --- --- ----- --- ---- ---- ------- ----- ---- -------<br>--- --- -- ----- -- --- ---- -- --- ---- -- ------ ------<br>--- ----- -- ----,137193.59999990463,137193,136582.555,136585.79999995232,136599.229,137199.139,,2,comes
screen,html.Screen,2_1_0_1_3,2022-04-27T11:04:12.431Z,,,,,,,,,,,,,,,,,53,,,,,,,,,,,,,,474.960999904637,,response,,,,99,,,,,,,Space,keypress(Space),,,,,,,,---- -- ----- to ------ - ------- --- ----------<br>------------- ------ ------ ---- ---- ------- ----- -- ----<br>-------- ------- -- ---------- --- - --- ----- ----- ----<br>---- --- --- ----- --- ---- ---- ------- ----- ---- -------<br>--- --- -- ----- -- --- ---- -- --- ---- -- ------ ------<br>--- ----- -- ----,137675.39999985695,137674.09999990463,137182.696,137193.89999985695,137199.139,137682.503,,3,to
screen,html.Screen,2_1_0_1_4,2022-04-27T11:04:12.940Z,,,,,,,,,,,,,,,,,53,,,,,,,,,,,,,,501.997000000003,,response,,,,99,,,,,,,Space,keypress(Space),,,,,,,,---- -- ----- -- having - ------- --- ----------<br>------------- ------ ------ ---- ---- ------- ----- -- ----<br>-------- ------- -- ---------- --- - --- ----- ----- ----<br>---- --- --- ----- --- ---- ---- ------- ----- ---- -------<br>--- --- -- ----- -- --- ---- -- --- ---- -- ------ ------<br>--- ----- -- ----,138184.79999995232,138184.5,137666.057,137675.59999990463,137682.503,138199.257,,4,having
screen,html.Screen,2_1_0_1_5,2022-04-27T11:04:13.396Z,,,,,,,,,,,,,,,,,53,,,,,,,,,,,,,,441.04299995230394,,response,,,,99,,,,,,,Space,keypress(Space),,,,,,,,---- -- ----- -- ------ a ------- --- ----------<br>------------- ------ ------ ---- ---- ------- ----- -- ----<br>-------- ------- -- ---------- --- - --- ----- ----- ----<br>---- --- --- ----- --- ---- ---- ------- ----- ---- -------<br>--- --- -- ----- -- --- ---- -- --- ---- -- ------ ------<br>--- ----- -- ----,138641,138640.29999995232,138182.48,138185,138199.257,138648.866,,5,a
screen,html.Screen,2_1_0_1_6,2022-04-27T11:04:13.877Z,,,,,,,,,,,,,,,,,53,,,,,,,,,,,,,,472.33399980925606,,response,,,,99,,,,,,,Space,keypress(Space),,,,,,,,---- -- ----- -- ------ - lasting --- ----------<br>------------- ------ ------ ---- ---- ------- ----- -- ----<br>-------- ------- -- ---------- --- - --- ----- ----- ----<br>---- --- --- ----- --- ---- ---- ------- ----- ---- -------<br>--- --- -- ----- -- --- ---- -- --- ---- -- ------ ------<br>--- ----- -- ----,139122.19999980927,139121.19999980927,138632.367,138641.19999980927,138648.866,139132.152,,6,lasting
screen,html.Screen,2_1_0_1_7,2022-04-27T11:04:14.279Z,,,,,,,,,,,,,,,,,53,,,,,,,,,,,,,,390.0479998092633,,response,,,,99,,,,,,,Space,keypress(Space),,,,,,,,---- -- ----- -- ------ - ------- and ----------<br>------------- ------ ------ ---- ---- ------- ----- -- ----<br>-------- ------- -- ---------- --- - --- ----- ----- ----<br>---- --- --- ----- --- ---- ---- ------- ----- ---- -------<br>--- --- -- ----- -- --- ---- -- --- ---- -- ------ ------<br>--- ----- -- ----,139523.39999985695,139522.19999980927,139115.788,139122.5,139132.152,139532.108,,7,and
screen,html.Screen,2_1_0_1_8,2022-04-27T11:04:14.700Z,,,,,,,,,,,,,,,,,53,,,,,,,,,,,,,,411.7919998569414,,response,,,,99,,,,,,,Space,keypress(Space),,,,,,,,---- -- ----- -- ------ - ------- --- fulfilling<br>------------- ------ ------ ---- ---- ------- ----- -- ----<br>-------- ------- -- ---------- --- - --- ----- ----- ----<br>---- --- --- ----- --- ---- ---- ------- ----- ---- -------<br>--- --- -- ----- -- --- ---- -- --- ---- -- ------ ------<br>--- ----- -- ----,139944.29999995232,139943.89999985695,139515.595,139523.69999980927,139532.108,139948.603,,8,fulfilling
screen,html.Screen,2_1_0_1_9,2022-04-27T11:04:15.134Z,,,,,,,,,,,,,,,,,53,,,,,,,,,,,,,,429.09699980926234,,response,,,,99,,,,,,,Space,keypress(Space),,,,,,,,"---- -- ----- -- ------ - ------- --- ----------<br>relationship, ------ ------ ---- ---- ------- ----- -- ----<br>-------- ------- -- ---------- --- - --- ----- ----- ----<br>---- --- --- ----- --- ---- ---- ------- ----- ---- -------<br>--- --- -- ----- -- --- ---- -- --- ---- -- ------ ------<br>--- ----- -- ----",140378.59999990463,140377.69999980927,139932.214,139944.39999985695,139948.603,140381.965,,9,"relationship,"
screen,html.Screen,2_1_0_1_10,2022-04-27T11:04:15.628Z,,,,,,,,,,,,,,,,,53,,,,,,,,,,,,,,490.0350000000035,,response,,,,99,,,,,,,Space,keypress(Space),,,,,,,,---- -- ----- -- ------ - ------- --- ----------<br>------------- common ------ ---- ---- ------- ----- -- ----<br>-------- ------- -- ---------- --- - --- ----- ----- ----<br>---- --- --- ----- --- ---- ---- ------- ----- ---- -------<br>--- --- -- ----- -- --- ---- -- --- ---- -- ------ ------<br>--- ----- -- ----,140872.5,140872,140365.308,140378.79999995232,140381.965,140881.836,,10,common
screen,html.Screen,2_1_0_1_11,2022-04-27T11:04:16.085Z,,,,,,,,,,,,,,,,,53,,,,,,,,,,,,,,447.2639999046223,,response,,,,99,,,,,,,Space,keypress(Space),,,,,,,,---- -- ----- -- ------ - ------- --- ----------<br>------------- ------ wisdom ---- ---- ------- ----- -- ----<br>-------- ------- -- ---------- --- - --- ----- ----- ----<br>---- --- --- ----- --- ---- ---- ------- ----- ---- -------<br>--- --- -- ----- -- --- ---- -- --- ---- -- ------ ------<br>--- ----- -- ----,141329.5,141329.09999990463,140865.24,140872.69999980927,140881.836,141331.816,,11,wisdom
screen,html.Screen,2_1_0_1_12,2022-04-27T11:04:16.572Z,,,,,,,,,,,,,,,,,53,,,,,,,,,,,,,,483.98399995232467,,response,,,,99,,,,,,,Space,keypress(Space),,,,,,,,---- -- ----- -- ------ - ------- --- ----------<br>------------- ------ ------ says ---- ------- ----- -- ----<br>-------- ------- -- ---------- --- - --- ----- ----- ----<br>---- --- --- ----- --- ---- ---- ------- ----- ---- -------<br>--- --- -- ----- -- --- ---- -- --- ---- -- ------ ------<br>--- ----- -- ----,141816.39999985695,141815.79999995232,141315.069,141329.59999990463,141331.816,141831.762,,12,says
screen,html.Screen,2_1_0_1_13,2022-04-27T11:04:16.996Z,,,,,,,,,,,,,,,,,53,,,,,,,,,,,,,,408.0379999523284,,response,,,,99,,,,,,,Space,keypress(Space),,,,,,,,---- -- ----- -- ------ - ------- --- ----------<br>------------- ------ ------ ---- that ------- ----- -- ----<br>-------- ------- -- ---------- --- - --- ----- ----- ----<br>---- --- --- ----- --- ---- ---- ------- ----- ---- -------<br>--- --- -- ----- -- --- ---- -- --- ---- -- ------ ------<br>--- ----- -- ----,142240.09999990463,142239.79999995232,141815.274,141816.5,141831.762,142248.257,,13,that
screen,html.Screen,2_1_0_1_14,2022-04-27T11:04:17.413Z,,,,,,,,,,,,,,,,,53,,,,,,,,,,,,,,408.74299999998766,,response,,,,99,,,,,,,Space,keypress(Space),,,,,,,,---- -- ----- -- ------ - ------- --- ----------<br>------------- ------ ------ ---- ---- feeling ----- -- ----<br>-------- ------- -- ---------- --- - --- ----- ----- ----<br>---- --- --- ----- --- ---- ---- ------- ----- ---- -------<br>--- --- -- ----- -- --- ---- -- --- ---- -- ------ ------<br>--- ----- -- ----,142657.59999990463,142657,142231.706,142240.19999980927,142248.257,142665.139,,14,feeling
screen,html.Screen,2_1_0_1_15,2022-04-27T11:04:18.062Z,,,,,,,,,,,,,,,,,53,,,,,,,,,,,,,,640.2609998569533,,response,,,,99,,,,,,,Space,keypress(Space),,,,,,,,---- -- ----- -- ------ - ------- --- ----------<br>------------- ------ ------ ---- ---- ------- close -- ----<br>-------- ------- -- ---------- --- - --- ----- ----- ----<br>---- --- --- ----- --- ---- ---- ------- ----- ---- -------<br>--- --- -- ----- -- --- ---- -- --- ---- -- ------ ------<br>--- ----- -- ----,143306.69999980927,143305.39999985695,142648.229,142657.59999990463,142665.139,143314.843,,15,close
screen,html.Screen,2_1_0_1_16,2022-04-27T11:04:18.430Z,,,,,,,,,,,,,,,,,53,,,,,,,,,,,,,,359.0569998569554,,response,,,,99,,,,,,,Space,keypress(Space),,,,,,,,---- -- ----- -- ------ - ------- --- ----------<br>------------- ------ ------ ---- ---- ------- ----- to ----<br>-------- ------- -- ---------- --- - --- ----- ----- ----<br>---- --- --- ----- --- ---- ---- ------- ----- ---- -------<br>--- --- -- ----- -- --- ---- -- --- ---- -- ------ ------<br>--- ----- -- ----,143674.79999995232,143673.89999985695,143298.339,143306.89999985695,143314.843,143681.431,,16,to
screen,html.Screen,2_1_0_1_17,2022-04-27T11:04:18.837Z,,,,,,,,,,,,,,,,,53,,,,,,,,,,,,,,399.46899985693744,,response,,,,99,,,,,,,Space,keypress(Space),,,,,,,,---- -- ----- -- ------ - ------- --- ----------<br>------------- ------ ------ ---- ---- ------- ----- -- your<br>-------- ------- -- ---------- --- - --- ----- ----- ----<br>---- --- --- ----- --- ---- ---- ------- ----- ---- -------<br>--- --- -- ----- -- --- ---- -- --- ---- -- ------ ------<br>--- ----- -- ----,144081.89999985695,144080.89999985695,143664.81,143675.09999990463,143681.431,144098.234,,17,your
screen,html.Screen,2_1_0_1_18,2022-04-27T11:04:19.253Z,,,,,,,,,,,,,,,,,53,,,,,,,,,,,,,,398.9659998092684,,response,,,,99,,,,,,,Space,keypress(Space),,,,,,,,---- -- ----- -- ------ - ------- --- ----------<br>------------- ------ ------ ---- ---- ------- ----- -- ----<br>romantic ------- -- ---------- --- - --- ----- ----- ----<br>---- --- --- ----- --- ---- ---- ------- ----- ---- -------<br>--- --- -- ----- -- --- ---- -- --- ---- -- ------ ------<br>--- ----- -- ----,144497.69999980927,144497.19999980927,144081.522,144082.09999990463,144098.234,144514.849,,18,romantic
screen,html.Screen,2_1_0_1_19,2022-04-27T11:04:19.660Z,,,,,,,,,,,,,,,,,53,,,,,,,,,,,,,,389.0509998569614,,response,,,,99,,,,,,,Space,keypress(Space),,,,,,,,---- -- ----- -- ------ - ------- --- ----------<br>------------- ------ ------ ---- ---- ------- ----- -- ----<br>-------- partner -- ---------- --- - --- ----- ----- ----<br>---- --- --- ----- --- ---- ---- ------- ----- ---- -------<br>--- --- -- ----- -- --- ---- -- --- ---- -- ------ ------<br>--- ----- -- ----,144904.19999980927,144903.89999985695,144481.492,144497.69999980927,144514.849,144914.48,,19,partner
screen,html.Screen,2_1_0_1_20,2022-04-27T11:04:20.028Z,,,,,,,,,,,,,,,,,53,,,,,,,,,,,,,,357.5199999999895,,response,,,,99,,,,,,,Space,keypress(Space),,,,,,,,---- -- ----- -- ------ - ------- --- ----------<br>------------- ------ ------ ---- ---- ------- ----- -- ----<br>-------- ------- is ---------- --- - --- ----- ----- ----<br>---- --- --- ----- --- ---- ---- ------- ----- ---- -------<br>--- --- -- ----- -- --- ---- -- --- ---- -- ------ ------<br>--- ----- -- ----,145272.5,145272,144898.146,144904.39999985695,144914.48,145281.137,,20,is
screen,html.Screen,2_1_0_1_21,2022-04-27T11:04:20.429Z,,,,,,,,,,,,,,,,,53,,,,,,,,,,,,,,391.3630000000121,,response,,,,99,,,,,,,Space,keypress(Space),,,,,,,,---- -- ----- -- ------ - ------- --- ----------<br>------------- ------ ------ ---- ---- ------- ----- -- ----<br>-------- ------- -- paramount. --- - --- ----- ----- ----<br>---- --- --- ----- --- ---- ---- ------- ----- ---- -------<br>--- --- -- ----- -- --- ---- -- --- ---- -- ------ ------<br>--- ----- -- ----,145673.29999995232,145672.5,145264.731,145272.69999980927,145281.137,145681.123,,21,paramount.
screen,html.Screen,2_1_0_1_22,2022-04-27T11:04:20.984Z,,,,,,,,,,,,,,,,,53,,,,,,,,,,,,,,546.3770000000077,,response,,,,99,,,,,,,Space,keypress(Space),,,,,,,,---- -- ----- -- ------ - ------- --- ----------<br>------------- ------ ------ ---- ---- ------- ----- -- ----<br>-------- ------- -- ---------- But - --- ----- ----- ----<br>---- --- --- ----- --- ---- ---- ------- ----- ---- -------<br>--- --- -- ----- -- --- ---- -- --- ---- -- ------ ------<br>--- ----- -- ----,146228.69999980927,146227.5,145664.489,145673.59999990463,145681.123,146231.039,,22,But
screen,html.Screen,2_1_0_1_23,2022-04-27T11:04:21.310Z,,,,,,,,,,,,,,,,,53,,,,,,,,,,,,,,322.6609998092754,,response,,,,99,,,,,,,Space,keypress(Space),,,,,,,,---- -- ----- -- ------ - ------- --- ----------<br>------------- ------ ------ ---- ---- ------- ----- -- ----<br>-------- ------- -- ---------- --- a --- ----- ----- ----<br>---- --- --- ----- --- ---- ---- ------- ----- ---- -------<br>--- --- -- ----- -- --- ---- -- --- ---- -- ------ ------<br>--- ----- -- ----,146554.89999985695,146553.69999980927,146214.458,146229.09999990463,146231.039,146564.314,,23,a
screen,html.Screen,2_1_0_1_24,2022-04-27T11:04:21.494Z,,,,,,,,,,,,,,,,,53,,,,,,,,,,,,,,173.68599999998696,,response,,,,99,,,,,,,Space,keypress(Space),,,,,,,,---- -- ----- -- ------ - ------- --- ----------<br>------------- ------ ------ ---- ---- ------- ----- -- ----<br>-------- ------- -- ---------- --- - new ----- ----- ----<br>---- --- --- ----- --- ---- ---- ------- ----- ---- -------<br>--- --- -- ----- -- --- ---- -- --- ---- -- ------ ------<br>--- ----- -- ----,146738.89999985695,146738,146547.779,146555.19999980927,146564.314,146747.579,,24,new
screen,html.Screen,2_1_0_1_25,2022-04-27T11:04:21.926Z,,,,,,,,,,,,,,,,,53,,,,,,,,,,,,,,422.32099985695095,,response,,,,99,,,,,,,Space,keypress(Space),,,,,,,,---- -- ----- -- ------ - ------- --- ----------<br>------------- ------ ------ ---- ---- ------- ----- -- ----<br>-------- ------- -- ---------- --- - --- study ----- ----<br>---- --- --- ----- --- ---- ---- ------- ----- ---- -------<br>--- --- -- ----- -- --- ---- -- --- ---- -- ------ ------<br>--- ----- -- ----,147171,147169.89999985695,146730.916,146739.19999980927,146747.579,147180.949,,25,study
screen,html.Screen,2_1_0_1_26,2022-04-27T11:04:22.119Z,,,,,,,,,,,,,,,,,53,,,,,,,,,,,,,,181.15099990463932,,response,,,,99,,,,,,,Space,keypress(Space),,,,,,,,---- -- ----- -- ------ - ------- --- ----------<br>------------- ------ ------ ---- ---- ------- ----- -- ----<br>-------- ------- -- ---------- --- - --- ----- finds ----<br>---- --- --- ----- --- ---- ---- ------- ----- ---- -------<br>--- --- -- ----- -- --- ---- -- --- ---- -- ------ ------<br>--- ----- -- ----,147363.39999985695,147362.09999990463,147164.232,147171.29999995232,147180.949,147381.058,,26,finds
screen,html.Screen,2_1_0_1_27,2022-04-27T11:04:22.509Z,,,,,,,,,,,,,,,,,53,,,,,,,,,,,,,,371.64199980927515,,response,,,,99,,,,,,,Space,keypress(Space),,,,,,,,---- -- ----- -- ------ - ------- --- ----------<br>------------- ------ ------ ---- ---- ------- ----- -- ----<br>-------- ------- -- ---------- --- - --- ----- ----- that<br>---- --- --- ----- --- ---- ---- ------- ----- ---- -------<br>--- --- -- ----- -- --- ---- -- --- ---- -- ------ ------<br>--- ----- -- ----,147753.89999985695,147752.69999980927,147364.138,147363.69999980927,147381.058,147764.107,,27,that
screen,html.Screen,2_1_0_1_28,2022-04-27T11:04:22.775Z,,,,,,,,,,,,,,,,,53,,,,,,,,,,,,,,254.19299995232723,,response,,,,99,,,,,,,Space,keypress(Space),,,,,,,,---- -- ----- -- ------ - ------- --- ----------<br>------------- ------ ------ ---- ---- ------- ----- -- ----<br>-------- ------- -- ---------- --- - --- ----- ----- ----<br>it's --- --- ----- --- ---- ---- ------- ----- ---- -------<br>--- --- -- ----- -- --- ---- -- --- ---- -- ------ ------<br>--- ----- -- ----,148019.39999985695,148018.29999995232,147747.575,147754.29999995232,147764.107,148030.948,,28,it's
screen,html.Screen,2_1_0_1_29,2022-04-27T11:04:23.020Z,,,,,,,,,,,,,,,,,53,,,,,,,,,,,,,,233.1519999046286,,response,,,,99,,,,,,,Space,keypress(Space),,,,,,,,---- -- ----- -- ------ - ------- --- ----------<br>------------- ------ ------ ---- ---- ------- ----- -- ----<br>-------- ------- -- ---------- --- - --- ----- ----- ----<br>---- not --- ----- --- ---- ---- ------- ----- ---- -------<br>--- --- -- ----- -- --- ---- -- --- ---- -- ------ ------<br>--- ----- -- ----,148264.79999995232,148264.09999990463,148014.227,148019.79999995232,148030.948,148280.616,,29,not
screen,html.Screen,2_1_0_1_30,2022-04-27T11:04:23.236Z,,,,,,,,,,,,,,,,,53,,,,,,,,,,,,,,199.38399999999092,,response,,,,99,,,,,,,Space,keypress(Space),,,,,,,,---- -- ----- -- ------ - ------- --- ----------<br>------------- ------ ------ ---- ---- ------- ----- -- ----<br>-------- ------- -- ---------- --- - --- ----- ----- ----<br>---- --- how ----- --- ---- ---- ------- ----- ---- -------<br>--- --- -- ----- -- --- ---- -- --- ---- -- ------ ------<br>--- ----- -- ----,148480.5,148480,148264.01,148265,148280.616,148497.256,,30,how
screen,html.Screen,2_1_0_1_31,2022-04-27T11:04:23.717Z,,,,,,,,,,,,,,,,,53,,,,,,,,,,,,,,463.24400000000605,,response,,,,99,,,,,,,Space,keypress(Space),,,,,,,,---- -- ----- -- ------ - ------- --- ----------<br>------------- ------ ------ ---- ---- ------- ----- -- ----<br>-------- ------- -- ---------- --- - --- ----- ----- ----<br>---- --- --- close --- ---- ---- ------- ----- ---- -------<br>--- --- -- ----- -- --- ---- -- --- ---- -- ------ ------<br>--- ----- -- ----,148961.29999995232,148960.5,148480.601,148480.69999980927,148497.256,148963.826,,31,close
screen,html.Screen,2_1_0_1_32,2022-04-27T11:04:23.916Z,,,,,,,,,,,,,,,,,53,,,,,,,,,,,,,,195.97399995231535,,response,,,,99,,,,,,,Space,keypress(Space),,,,,,,,---- -- ----- -- ------ - ------- --- ----------<br>------------- ------ ------ ---- ---- ------- ----- -- ----<br>-------- ------- -- ---------- --- - --- ----- ----- ----<br>---- --- --- ----- you ---- ---- ------- ----- ---- -------<br>--- --- -- ----- -- --- ---- -- --- ---- -- ------ ------<br>--- ----- -- ----,149160.19999980927,149159.79999995232,148947.205,148961.59999990463,148963.826,149163.795,,32,you
screen,html.Screen,2_1_0_1_33,2022-04-27T11:04:24.156Z,,,,,,,,,,,,,,,,,53,,,,,,,,,,,,,,236.90499980925233,,response,,,,99,,,,,,,Space,keypress(Space),,,,,,,,---- -- ----- -- ------ - ------- --- ----------<br>------------- ------ ------ ---- ---- ------- ----- -- ----<br>-------- ------- -- ---------- --- - --- ----- ----- ----<br>---- --- --- ----- --- feel ---- ------- ----- ---- -------<br>--- --- -- ----- -- --- ---- -- --- ---- -- ------ ------<br>--- ----- -- ----,149401.19999980927,149400.69999980927,149147.143,149160.29999995232,149163.795,149413.819,,33,feel
screen,html.Screen,2_1_0_1_34,2022-04-27T11:04:24.782Z,,,,,,,,,,,,,,,,,53,,,,,,,,,,,,,,612.280999904644,,response,,,,99,,,,,,,Space,keypress(Space),,,,,,,,---- -- ----- -- ------ - ------- --- ----------<br>------------- ------ ------ ---- ---- ------- ----- -- ----<br>-------- ------- -- ---------- --- - --- ----- ----- ----<br>---- --- --- ----- --- ---- that ------- ----- ---- -------<br>--- --- -- ----- -- --- ---- -- --- ---- -- ------ ------<br>--- ----- -- ----,150027.09999990463,150026.09999990463,149397.105,149401.19999980927,149413.819,150030.364,,34,that
screen,html.Screen,2_1_0_1_35,2022-04-27T11:04:25.693Z,,,,,,,,,,,,,,,,,53,,,,,,,,,,,,,,906.6359999999986,,response,,,,99,,,,,,,Space,keypress(Space),,,,,,,,---- -- ----- -- ------ - ------- --- ----------<br>------------- ------ ------ ---- ---- ------- ----- -- ----<br>-------- ------- -- ---------- --- - --- ----- ----- ----<br>---- --- --- ----- --- ---- ---- matters ----- ---- -------<br>--- --- -- ----- -- --- ---- -- --- ---- -- ------ ------<br>--- ----- -- ----,150937.39999985695,150937,150013.869,150027.39999985695,150030.364,150947.244,,35,matters
screen,html.Screen,2_1_0_1_36,2022-04-27T11:04:26.414Z,,,,,,,,,,,,,,,,,53,,,,,,,,,,,,,,710.4559998092591,,response,,,,99,,,,,,,Space,keypress(Space),,,,,,,,"---- -- ----- -- ------ - ------- --- ----------<br>------------- ------ ------ ---- ---- ------- ----- -- ----<br>-------- ------- -- ---------- --- - --- ----- ----- ----<br>---- --- --- ----- --- ---- ---- ------- most, ---- -------<br>--- --- -- ----- -- --- ---- -- --- ---- -- ------ ------<br>--- ----- -- ----",151658.79999995232,151657.69999980927,150930.245,150937.5,150947.244,151663.415,,36,"most,"
screen,html.Screen,2_1_0_1_37,2022-04-27T11:04:27.263Z,,,,,,,,,,,,,,,,,53,,,,,,,,,,,,,,842.784999809257,,response,,,,99,,,,,,,Space,keypress(Space),,,,,,,,---- -- ----- -- ------ - ------- --- ----------<br>------------- ------ ------ ---- ---- ------- ----- -- ----<br>-------- ------- -- ---------- --- - --- ----- ----- ----<br>---- --- --- ----- --- ---- ---- ------- ----- it's -------<br>--- --- -- ----- -- --- ---- -- --- ---- -- ------ ------<br>--- ----- -- ----,152507.29999995232,152506.19999980927,151647.056,151659.19999980927,151663.415,152513.422,,37,it's
screen,html.Screen,2_1_0_1_38,2022-04-27T11:04:27.709Z,,,,,,,,,,,,,,,,,53,,,,,,,,,,,,,,439.97799985695747,,response,,,,99,,,,,,,Space,keypress(Space),,,,,,,,---- -- ----- -- ------ - ------- --- ----------<br>------------- ------ ------ ---- ---- ------- ----- -- ----<br>-------- ------- -- ---------- --- - --- ----- ----- ----<br>---- --- --- ----- --- ---- ---- ------- ----- ---- whether<br>--- --- -- ----- -- --- ---- -- --- ---- -- ------ ------<br>--- ----- -- ----,152954.19999980927,152953.39999985695,152496.882,152507.69999980927,152513.422,152963.294,,38,whether
screen,html.Screen,2_1_0_1_39,2022-04-27T11:04:28.013Z,,,,,,,,,,,,,,,,,53,,,,,,,,,,,,,,293.7060000000056,,response,,,,99,,,,,,,Space,keypress(Space),,,,,,,,---- -- ----- -- ------ - ------- --- ----------<br>------------- ------ ------ ---- ---- ------- ----- -- ----<br>-------- ------- -- ---------- --- - --- ----- ----- ----<br>---- --- --- ----- --- ---- ---- ------- ----- ---- -------<br>you --- -- ----- -- --- ---- -- --- ---- -- ------ ------<br>--- ----- -- ----,153257.69999980927,153257,152946.616,152954.39999985695,152963.294,153263.17,,39,you
screen,html.Screen,2_1_0_1_40,2022-04-27T11:04:28.308Z,,,,,,,,,,,,,,,,,53,,,,,,,,,,,,,,288.8299999999872,,response,,,,99,,,,,,,Space,keypress(Space),,,,,,,,---- -- ----- -- ------ - ------- --- ----------<br>------------- ------ ------ ---- ---- ------- ----- -- ----<br>-------- ------- -- ---------- --- - --- ----- ----- ----<br>---- --- --- ----- --- ---- ---- ------- ----- ---- -------<br>--- are -- ----- -- --- ---- -- --- ---- -- ------ ------<br>--- ----- -- ----,153552.5,153552,153246.747,153257.89999985695,153263.17,153563.081,,40,are
screen,html.Screen,2_1_0_1_41,2022-04-27T11:04:28.501Z,,,,,,,,,,,,,,,,,53,,,,,,,,,,,,,,181.7189999523107,,response,,,,99,,,,,,,Space,keypress(Space),,,,,,,,---- -- ----- -- ------ - ------- --- ----------<br>------------- ------ ------ ---- ---- ------- ----- -- ----<br>-------- ------- -- ---------- --- - --- ----- ----- ----<br>---- --- --- ----- --- ---- ---- ------- ----- ---- -------<br>--- --- as ----- -- --- ---- -- --- ---- -- ------ ------<br>--- ----- -- ----,153745.29999995232,153744.79999995232,153546.667,153552.5,153563.081,153768.503,,41,as
screen,html.Screen,2_1_0_1_42,2022-04-27T11:04:28.694Z,,,,,,,,,,,,,,,,,53,,,,,,,,,,,,,,169.0969999046356,,response,,,,99,,,,,,,Space,keypress(Space),,,,,,,,---- -- ----- -- ------ - ------- --- ----------<br>------------- ------ ------ ---- ---- ------- ----- -- ----<br>-------- ------- -- ---------- --- - --- ----- ----- ----<br>---- --- --- ----- --- ---- ---- ------- ----- ---- -------<br>--- --- -- close -- --- ---- -- --- ---- -- ------ ------<br>--- ----- -- ----,153938.69999980927,153937.59999990463,153729.725,153745.5,153768.503,153946.469,,42,close
screen,html.Screen,2_1_0_1_43,2022-04-27T11:04:28.903Z,,,,,,,,,,,,,,,,,53,,,,,,,,,,,,,,199.6309999046207,,response,,,,99,,,,,,,Space,keypress(Space),,,,,,,,---- -- ----- -- ------ - ------- --- ----------<br>------------- ------ ------ ---- ---- ------- ----- -- ----<br>-------- ------- -- ---------- --- - --- ----- ----- ----<br>---- --- --- ----- --- ---- ---- ------- ----- ---- -------<br>--- --- -- ----- as --- ---- -- --- ---- -- ------ ------<br>--- ----- -- ----,154147.79999995232,154146.09999990463,153929.918,153939.09999990463,153946.469,154163.212,,43,as
screen,html.Screen,2_1_0_1_44,2022-04-27T11:04:29.094Z,,,,,,,,,,,,,,,,,53,,,,,,,,,,,,,,174.38799990463303,,response,,,,99,,,,,,,Space,keypress(Space),,,,,,,,---- -- ----- -- ------ - ------- --- ----------<br>------------- ------ ------ ---- ---- ------- ----- -- ----<br>-------- ------- -- ---------- --- - --- ----- ----- ----<br>---- --- --- ----- --- ---- ---- ------- ----- ---- -------<br>--- --- -- ----- -- you ---- -- --- ---- -- ------ ------<br>--- ----- -- ----,154339,154337.59999990463,154146.585,154148.19999980927,154163.212,154346.352,,44,you
screen,html.Screen,2_1_0_1_45,2022-04-27T11:04:29.287Z,,,,,,,,,,,,,,,,,53,,,,,,,,,,,,,,183.74799990461906,,response,,,,99,,,,,,,Space,keypress(Space),,,,,,,,---- -- ----- -- ------ - ------- --- ----------<br>------------- ------ ------ ---- ---- ------- ----- -- ----<br>-------- ------- -- ---------- --- - --- ----- ----- ----<br>---- --- --- ----- --- ---- ---- ------- ----- ---- -------<br>--- --- -- ----- -- --- want -- --- ---- -- ------ ------<br>--- ----- -- ----,154531.39999985695,154530.09999990463,154329.841,154339.29999995232,154346.352,154546.516,,45,want
screen,html.Screen,2_1_0_1_46,2022-04-27T11:04:29.476Z,,,,,,,,,,,,,,,,,53,,,,,,,,,,,,,,173.3839998569456,,response,,,,99,,,,,,,Space,keypress(Space),,,,,,,,---- -- ----- -- ------ - ------- --- ----------<br>------------- ------ ------ ---- ---- ------- ----- -- ----<br>-------- ------- -- ---------- --- - --- ----- ----- ----<br>---- --- --- ----- --- ---- ---- ------- ----- ---- -------<br>--- --- -- ----- -- --- ---- to --- ---- -- ------ ------<br>--- ----- -- ----,154720.29999995232,154719.89999985695,154529.877,154531.79999995232,154546.516,154729.574,,46,to
screen,html.Screen,2_1_0_1_47,2022-04-27T11:04:29.652Z,,,,,,,,,,,,,,,,,53,,,,,,,,,,,,,,166.52599990463932,,response,,,,99,,,,,,,Space,keypress(Space),,,,,,,,"---- -- ----- -- ------ - ------- --- ----------<br>------------- ------ ------ ---- ---- ------- ----- -- ----<br>-------- ------- -- ---------- --- - --- ----- ----- ----<br>---- --- --- ----- --- ---- ---- ------- ----- ---- -------<br>--- --- -- ----- -- --- ---- -- be, ---- -- ------ ------<br>--- ----- -- ----",154896.59999990463,154896.09999990463,154713.131,154720.39999985695,154729.574,154912.858,,47,"be,"
screen,html.Screen,2_1_0_1_48,2022-04-27T11:04:29.830Z,,,,,,,,,,,,,,,,,53,,,,,,,,,,,,,,160.24199990462512,,response,,,,99,,,,,,,Space,keypress(Space),,,,,,,,---- -- ----- -- ------ - ------- --- ----------<br>------------- ------ ------ ---- ---- ------- ----- -- ----<br>-------- ------- -- ---------- --- - --- ----- ----- ----<br>---- --- --- ----- --- ---- ---- ------- ----- ---- -------<br>--- --- -- ----- -- --- ---- -- --- even -- ------ ------<br>--- ----- -- ----,155074.19999980927,155073.09999990463,154896.195,154896.69999980927,154912.858,155079.64,,48,even
screen,html.Screen,2_1_0_1_49,2022-04-27T11:04:30.023Z,,,,,,,,,,,,,,,,,53,,,,,,,,,,,,,,187.55999980925117,,response,,,,99,,,,,,,Space,keypress(Space),,,,,,,,---- -- ----- -- ------ - ------- --- ----------<br>------------- ------ ------ ---- ---- ------- ----- -- ----<br>-------- ------- -- ---------- --- - --- ----- ----- ----<br>---- --- --- ----- --- ---- ---- ------- ----- ---- -------<br>--- --- -- ----- -- --- ---- -- --- ---- if ------ ------<br>--- ----- -- ----,155268.19999980927,155267.19999980927,155063.1,155074.69999980927,155079.64,155279.707,,49,if
screen,html.Screen,2_1_0_1_50,2022-04-27T11:04:30.214Z,,,,,,,,,,,,,,,,,53,,,,,,,,,,,,,,177.99299980927026,,response,,,,99,,,,,,,Space,keypress(Space),,,,,,,,---- -- ----- -- ------ - ------- --- ----------<br>------------- ------ ------ ---- ---- ------- ----- -- ----<br>-------- ------- -- ---------- --- - --- ----- ----- ----<br>---- --- --- ----- --- ---- ---- ------- ----- ---- -------<br>--- --- -- ----- -- --- ---- -- --- ---- -- that's ------<br>--- ----- -- ----,155458.89999985695,155457.69999980927,155262.903,155268.39999985695,155279.707,155462.878,,50,that's
screen,html.Screen,2_1_0_1_51,2022-04-27T11:04:30.414Z,,,,,,,,,,,,,,,,,53,,,,,,,,,,,,,,194.4219999523193,,response,,,,99,,,,,,,Space,keypress(Space),,,,,,,,---- -- ----- -- ------ - ------- --- ----------<br>------------- ------ ------ ---- ---- ------- ----- -- ----<br>-------- ------- -- ---------- --- - --- ----- ----- ----<br>---- --- --- ----- --- ---- ---- ------- ----- ---- -------<br>--- --- -- ----- -- --- ---- -- --- ---- -- ------ really<br>--- ----- -- ----,155658.5,155657.29999995232,155446.223,155459.29999995232,155462.878,155662.793,,51,really
screen,html.Screen,2_1_0_1_52,2022-04-27T11:04:30.629Z,,,,,,,,,,,,,,,,,53,,,,,,,,,,,,,,209.90699980926001,,response,,,,99,,,,,,,Space,keypress(Space),,,,,,,,---- -- ----- -- ------ - ------- --- ----------<br>------------- ------ ------ ---- ---- ------- ----- -- ----<br>-------- ------- -- ---------- --- - --- ----- ----- ----<br>---- --- --- ----- --- ---- ---- ------- ----- ---- -------<br>--- --- -- ----- -- --- ---- -- --- ---- -- ------ ------<br>not ----- -- ----,155873.19999980927,155872.69999980927,155646.391,155658.89999985695,155662.793,155879.666,,52,not
screen,html.Screen,2_1_0_1_53,2022-04-27T11:04:30.967Z,,,,,,,,,,,,,,,,,53,,,,,,,,,,,,,,330.7339998569514,,response,,,,99,,,,,,,Space,keypress(Space),,,,,,,,---- -- ----- -- ------ - ------- --- ----------<br>------------- ------ ------ ---- ---- ------- ----- -- ----<br>-------- ------- -- ---------- --- - --- ----- ----- ----<br>---- --- --- ----- --- ---- ---- ------- ----- ---- -------<br>--- --- -- ----- -- --- ---- -- --- ---- -- ------ ------<br>--- close -- ----,156211.69999980927,156210.39999985695,155862.706,155873.39999985695,155879.666,156245.024,,53,close
screen,html.Screen,2_1_0_1_54,2022-04-27T11:04:31.328Z,,,,,,,,,,,,,,,,,53,,,,,,,,,,,,,,326.17599980926025,,response,,,,99,,,,,,,Space,keypress(Space),,,,,,,,---- -- ----- -- ------ - ------- --- ----------<br>------------- ------ ------ ---- ---- ------- ----- -- ----<br>-------- ------- -- ---------- --- - --- ----- ----- ----<br>---- --- --- ----- --- ---- ---- ------- ----- ---- -------<br>--- --- -- ----- -- --- ---- -- --- ---- -- ------ ------<br>--- ----- at ----,156572.5,156571.19999980927,156196.39,156212,156245.024,156579.347,,54,at
screen,html.Screen,2_1_0_1_55,2022-04-27T11:04:32.620Z,,,,,,,,,,,,,,,,,53,,,,,,,,,,,,,,1284.3529998092563,,response,,,,99,,,,,,,Space,keypress(Space),,,,,,,,---- -- ----- -- ------ - ------- --- ----------<br>------------- ------ ------ ---- ---- ------- ----- -- ----<br>-------- ------- -- ---------- --- - --- ----- ----- ----<br>---- --- --- ----- --- ---- ---- ------- ----- ---- -------<br>--- --- -- ----- -- --- ---- -- --- ---- -- ------ ------<br>--- ----- -- all.,157864.19999980927,157863.69999980927,156562.787,156572.79999995232,156579.347,157879.031,,55,all.
Item 99,flow.Loop,2_1_0_1,2022-04-27T11:04:32.620Z,,,,,,,,,,,,,,,,,,,,,,,,,,,,,,,22980.80099980926,,completion,,,,,B,,,,,,,,,,,silence,,,,,157864.5,157863.69999980927,134849.553,134851.5,134882.899,157879.031,,,
Question 1,html.Screen,2_1_0_2,2022-04-27T11:04:35.430Z,,,,,,,,,,,,,,,,,,,,,,,,,,,,false,FALSE,,2794.668999809277,,response,,,,99,B,,,,,,TRUE,click #choice-1,,,,silence,,,,,160674.5,160673.69999980927,157862.876,157864.5,157879.031,160678.738,,,
Question 2,html.Screen,2_1_0_3,2022-04-27T11:04:39.418Z,,,,,,,,,,,,,,,,,,,,,,,,,,,,false,TRUE,,3983.6619998569367,,response,,,,99,B,,,,,,FALSE,click #choice-2,,,,silence,,,,,164663.19999980927,164662.39999985695,160662.139,160674.59999990463,160678.738,164677.933,,,
Item 99,flow.Sequence,2_1_0,2022-04-27T11:04:39.419Z,,,,,,,,,,,,,,,,,,,,,,,,,,,,,,,39794.60499985695,,completion,,,,,,,,,,,,,,,,,,,,,164663.29999995232,164662.39999985695,124851.119,124858.79999995232,124867.795,164677.933,,,
Holding screen,html.Screen,2_1_1_0,2022-04-27T11:04:49.416Z,,,,,,,,,,,,,,,,,,,,,,,,,,,,,,,9998.57700000002,,timeout,,,,,,,,,,,,,,,,,,,,,174661,174659.695,164661.531,164663.39999985695,164677.933,174676.51,,,
screen,html.Screen,2_1_1_1_0,2022-04-27T11:04:50.335Z,,,,,,,,,,,,,,,,,54,,,,,,,,,,,,,,901.9899999999907,,response,,,,100,,,,,,,Space,keypress(Space),,,,,,,,At --- ---- --- ------ ----- ------- ---- -- --- ------- --<br>------- ---------- ------ -- ----- -- ----- -- ---- ------<br>--- ----- --- --- ------ -------- ----- --- ------ ----- --<br>----- ----- ---------- --- --- ------ ------ ---- -- ------<br>------- --- ------ ----- --- ---- ------- -- ---- --- --<br>------- ------,175579.89999985695,175578.5,174659.695,174661.5,174676.51,175593.173,,0,At
screen,html.Screen,2_1_1_1_1,2022-04-27T11:04:50.708Z,,,,,,,,,,,,,,,,,54,,,,,,,,,,,,,,358.6269999523065,,response,,,,100,,,,,,,Space,keypress(Space),,,,,,,,-- the ---- --- ------ ----- ------- ---- -- --- ------- --<br>------- ---------- ------ -- ----- -- ----- -- ---- ------<br>--- ----- --- --- ------ -------- ----- --- ------ ----- --<br>----- ----- ---------- --- --- ------ ------ ---- -- ------<br>------- --- ------ ----- --- ---- ------- -- ---- --- --<br>------- ------,175952.29999995232,175951.79999995232,175576.229,175580.19999980927,175593.173,175959.415,,1,the
screen,html.Screen,2_1_1_1_2,2022-04-27T11:04:50.988Z,,,,,,,,,,,,,,,,,54,,,,,,,,,,,,,,272.4849998569407,,response,,,,100,,,,,,,Space,keypress(Space),,,,,,,,-- --- time --- ------ ----- ------- ---- -- --- ------- --<br>------- ---------- ------ -- ----- -- ----- -- ---- ------<br>--- ----- --- --- ------ -------- ----- --- ------ ----- --<br>----- ----- ---------- --- --- ------ ------ ---- -- ------<br>------- --- ------ ----- --- ---- ------- -- ---- --- --<br>------- ------,176232.29999995232,176231.89999985695,175942.887,175952.39999985695,175959.415,176242.692,,2,time
screen,html.Screen,2_1_1_1_3,2022-04-27T11:04:51.500Z,,,,,,,,,,,,,,,,,54,,,,,,,,,,,,,,501.0079998092551,,response,,,,100,,,,,,,Space,keypress(Space),,,,,,,,-- --- ---- the ------ ----- ------- ---- -- --- ------- --<br>------- ---------- ------ -- ----- -- ----- -- ---- ------<br>--- ----- --- --- ------ -------- ----- --- ------ ----- --<br>----- ----- ---------- --- --- ------ ------ ---- -- ------<br>------- --- ------ ----- --- ---- ------- -- ---- --- --<br>------- ------,176744.29999995232,176743.69999980927,176226.341,176232.5,176242.692,176759.667,,3,the
screen,html.Screen,2_1_1_1_4,2022-04-27T11:04:51.957Z,,,,,,,,,,,,,,,,,54,,,,,,,,,,,,,,441.43299990464584,,response,,,,100,,,,,,,Space,keypress(Space),,,,,,,,-- --- ---- --- French ----- ------- ---- -- --- ------- --<br>------- ---------- ------ -- ----- -- ----- -- ---- ------<br>--- ----- --- --- ------ -------- ----- --- ------ ----- --<br>----- ----- ---------- --- --- ------ ------ ---- -- ------<br>------- --- ------ ----- --- ---- ------- -- ---- --- --<br>------- ------,177201.59999990463,177201.09999990463,176742.661,176744.29999995232,176759.667,177209.457,,4,French
screen,html.Screen,2_1_1_1_5,2022-04-27T11:04:52.294Z,,,,,,,,,,,,,,,,,54,,,,,,,,,,,,,,327.942999856954,,response,,,,100,,,,,,,Space,keypress(Space),,,,,,,,-- --- ---- --- ------ crown ------- ---- -- --- ------- --<br>------- ---------- ------ -- ----- -- ----- -- ---- ------<br>--- ----- --- --- ------ -------- ----- --- ------ ----- --<br>----- ----- ---------- --- --- ------ ------ ---- -- ------<br>------- --- ------ ----- --- ---- ------- -- ---- --- --<br>------- ------,177538.59999990463,177537.39999985695,177192.594,177201.69999980927,177209.457,177542.569,,5,crown
screen,html.Screen,2_1_1_1_6,2022-04-27T11:04:53.149Z,,,,,,,,,,,,,,,,,54,,,,,,,,,,,,,,850.530999904644,,response,,,,100,,,,,,,Space,keypress(Space),,,,,,,,-- --- ---- --- ------ ----- secured ---- -- --- ------- --<br>------- ---------- ------ -- ----- -- ----- -- ---- ------<br>--- ----- --- --- ------ -------- ----- --- ------ ----- --<br>----- ----- ---------- --- --- ------ ------ ---- -- ------<br>------- --- ------ ----- --- ---- ------- -- ---- --- --<br>------- ------,178393.5,178393.09999990463,177526.127,177538.89999985695,177542.569,178409.34,,6,secured
screen,html.Screen,2_1_1_1_7,2022-04-27T11:04:53.759Z,,,,,,,,,,,,,,,,,54,,,,,,,,,,,,,,593.0599998569523,,response,,,,100,,,,,,,Space,keypress(Space),,,,,,,,-- --- ---- --- ------ ----- ------- much -- --- ------- --<br>------- ---------- ------ -- ----- -- ----- -- ---- ------<br>--- ----- --- --- ------ -------- ----- --- ------ ----- --<br>----- ----- ---------- --- --- ------ ------ ---- -- ------<br>------- --- ------ ----- --- ---- ------- -- ---- --- --<br>------- ------,179003.5,179002.39999985695,178392.642,178393.59999990463,178409.34,179009.088,,7,much
screen,html.Screen,2_1_1_1_8,2022-04-27T11:04:54.166Z,,,,,,,,,,,,,,,,,54,,,,,,,,,,,,,,399.9120000000112,,response,,,,100,,,,,,,Space,keypress(Space),,,,,,,,-- --- ---- --- ------ ----- ------- ---- of --- ------- --<br>------- ---------- ------ -- ----- -- ----- -- ---- ------<br>--- ----- --- --- ------ -------- ----- --- ------ ----- --<br>----- ----- ---------- --- --- ------ ------ ---- -- ------<br>------- --- ------ ----- --- ---- ------- -- ---- --- --<br>------- ------,179410.39999985695,179409,178992.527,179003.89999985695,179009.088,179425.749,,8,of
screen,html.Screen,2_1_1_1_9,2022-04-27T11:04:54.438Z,,,,,,,,,,,,,,,,,54,,,,,,,,,,,,,,255.7509999999893,,response,,,,100,,,,,,,Space,keypress(Space),,,,,,,,-- --- ---- --- ------ ----- ------- ---- -- its ------- --<br>------- ---------- ------ -- ----- -- ----- -- ---- ------<br>--- ----- --- --- ------ -------- ----- --- ------ ----- --<br>----- ----- ---------- --- --- ------ ------ ---- -- ------<br>------- --- ------ ----- --- ---- ------- -- ---- --- --<br>------- ------,179682.29999995232,179681.5,179408.96,179410.79999995232,179425.749,179692.202,,9,its
screen,html.Screen,2_1_1_1_10,2022-04-27T11:04:54.909Z,,,,,,,,,,,,,,,,,54,,,,,,,,,,,,,,460.7980000000098,,response,,,,100,,,,,,,Space,keypress(Space),,,,,,,,-- --- ---- --- ------ ----- ------- ---- -- --- revenue --<br>------- ---------- ------ -- ----- -- ----- -- ---- ------<br>--- ----- --- --- ------ -------- ----- --- ------ ----- --<br>----- ----- ---------- --- --- ------ ------ ---- -- ------<br>------- --- ------ ----- --- ---- ------- -- ---- --- --<br>------- ------,180153.29999995232,180153,179675.735,179682.5,179692.202,180159.069,,10,revenue
screen,html.Screen,2_1_1_1_11,2022-04-27T11:04:55.254Z,,,,,,,,,,,,,,,,,54,,,,,,,,,,,,,,338.9310000000114,,response,,,,100,,,,,,,Space,keypress(Space),,,,,,,,-- --- ---- --- ------ ----- ------- ---- -- --- ------- by<br>------- ---------- ------ -- ----- -- ----- -- ---- ------<br>--- ----- --- --- ------ -------- ----- --- ------ ----- --<br>----- ----- ---------- --- --- ------ ------ ---- -- ------<br>------- --- ------ ----- --- ---- ------- -- ---- --- --<br>------- ------,180499.09999990463,180498,180142.193,180153.39999985695,180159.069,180508.927,,11,by
screen,html.Screen,2_1_1_1_12,2022-04-27T11:04:55.588Z,,,,,,,,,,,,,,,,,54,,,,,,,,,,,,,,323.07300000000396,,response,,,,100,,,,,,,Space,keypress(Space),,,,,,,,-- --- ---- --- ------ ----- ------- ---- -- --- ------- --<br>issuing ---------- ------ -- ----- -- ----- -- ---- ------<br>--- ----- --- --- ------ -------- ----- --- ------ ----- --<br>----- ----- ---------- --- --- ------ ------ ---- -- ------<br>------- --- ------ ----- --- ---- ------- -- ---- --- --<br>------- ------,180832.39999985695,180832,180492.044,180499.29999995232,180508.927,180842.399,,12,issuing
screen,html.Screen,2_1_1_1_13,2022-04-27T11:04:55.988Z,,,,,,,,,,,,,,,,,54,,,,,,,,,,,,,,389.80099980926025,,response,,,,100,,,,,,,Space,keypress(Space),,,,,,,,-- --- ---- --- ------ ----- ------- ---- -- --- ------- --<br>------- government ------ -- ----- -- ----- -- ---- ------<br>--- ----- --- --- ------ -------- ----- --- ------ ----- --<br>----- ----- ---------- --- --- ------ ------ ---- -- ------<br>------- --- ------ ----- --- ---- ------- -- ---- --- --<br>------- ------,181232.89999985695,181232.19999980927,180825.592,180832.5,180842.399,181241.89,,13,government
screen,html.Screen,2_1_1_1_14,2022-04-27T11:04:56.334Z,,,,,,,,,,,,,,,,,54,,,,,,,,,,,,,,336.0099998569349,,response,,,,100,,,,,,,Space,keypress(Space),,,,,,,,-- --- ---- --- ------ ----- ------- ---- -- --- ------- --<br>------- ---------- bonds. -- ----- -- ----- -- ---- ------<br>--- ----- --- --- ------ -------- ----- --- ------ ----- --<br>----- ----- ---------- --- --- ------ ------ ---- -- ------<br>------- --- ------ ----- --- ---- ------- -- ---- --- --<br>------- ------,181578.69999980927,181577.89999985695,181225.236,181233,181241.89,181592.115,,14,bonds.
screen,html.Screen,2_1_1_1_15,2022-04-27T11:04:57.013Z,,,,,,,,,,,,,,,,,54,,,,,,,,,,,,,,664.7849998569582,,response,,,,100,,,,,,,Space,keypress(Space),,,,,,,,-- --- ---- --- ------ ----- ------- ---- -- --- ------- --<br>------- ---------- ------ In ----- -- ----- -- ---- ------<br>--- ----- --- --- ------ -------- ----- --- ------ ----- --<br>----- ----- ---------- --- --- ------ ------ ---- -- ------<br>------- --- ------ ----- --- ---- ------- -- ---- --- --<br>------- ------,182257.29999995232,182256.89999985695,181575.194,181578.89999985695,181592.115,182288.187,,15,In
screen,html.Screen,2_1_1_1_16,2022-04-27T11:04:57.384Z,,,,,,,,,,,,,,,,,54,,,,,,,,,,,,,,339.31299999999464,,response,,,,100,,,,,,,Space,keypress(Space),,,,,,,,"-- --- ---- --- ------ ----- ------- ---- -- --- ------- --<br>------- ---------- ------ -- 1727, -- ----- -- ---- ------<br>--- ----- --- --- ------ -------- ----- --- ------ ----- --<br>----- ----- ---------- --- --- ------ ------ ---- -- ------<br>------- --- ------ ----- --- ---- ------- -- ---- --- --<br>------- ------",182628.69999980927,182627.5,182241.943,182257.39999985695,182288.187,182641.967,,16,"1727,"
screen,html.Screen,2_1_1_1_17,2022-04-27T11:04:57.892Z,,,,,,,,,,,,,,,,,54,,,,,,,,,,,,,,494.6329999046284,,response,,,,100,,,,,,,Space,keypress(Space),,,,,,,,-- --- ---- --- ------ ----- ------- ---- -- --- ------- --<br>------- ---------- ------ -- ----- in ----- -- ---- ------<br>--- ----- --- --- ------ -------- ----- --- ------ ----- --<br>----- ----- ---------- --- --- ------ ------ ---- -- ------<br>------- --- ------ ----- --- ---- ------- -- ---- --- --<br>------- ------,183136.89999985695,183136.59999990463,182625.336,182629,182641.967,183141.643,,17,in
screen,html.Screen,2_1_1_1_18,2022-04-27T11:04:58.335Z,,,,,,,,,,,,,,,,,54,,,,,,,,,,,,,,437.0569998092542,,response,,,,100,,,,,,,Space,keypress(Space),,,,,,,,-- --- ---- --- ------ ----- ------- ---- -- --- ------- --<br>------- ---------- ------ -- ----- -- order -- ---- ------<br>--- ----- --- --- ------ -------- ----- --- ------ ----- --<br>----- ----- ---------- --- --- ------ ------ ---- -- ------<br>------- --- ------ ----- --- ---- ------- -- ---- --- --<br>------- ------,183579.69999980927,183578.69999980927,183125.121,183137.09999990463,183141.643,183591.573,,18,order
screen,html.Screen,2_1_1_1_19,2022-04-27T11:04:58.734Z,,,,,,,,,,,,,,,,,54,,,,,,,,,,,,,,386.1269998092612,,response,,,,100,,,,,,,Space,keypress(Space),,,,,,,,-- --- ---- --- ------ ----- ------- ---- -- --- ------- --<br>------- ---------- ------ -- ----- -- ----- to ---- ------<br>--- ----- --- --- ------ -------- ----- --- ------ ----- --<br>----- ----- ---------- --- --- ------ ------ ---- -- ------<br>------- --- ------ ----- --- ---- ------- -- ---- --- --<br>------- ------,183978.79999995232,183977.69999980927,183575.068,183580.09999990463,183591.573,183991.732,,19,to
screen,html.Screen,2_1_1_1_20,2022-04-27T11:04:59.124Z,,,,,,,,,,,,,,,,,54,,,,,,,,,,,,,,376.9679998092761,,response,,,,100,,,,,,,Space,keypress(Space),,,,,,,,-- --- ---- --- ------ ----- ------- ---- -- --- ------- --<br>------- ---------- ------ -- ----- -- ----- -- save ------<br>--- ----- --- --- ------ -------- ----- --- ------ ----- --<br>----- ----- ---------- --- --- ------ ------ ---- -- ------<br>------- --- ------ ----- --- ---- ------- -- ---- --- --<br>------- ------,184369.09999990463,184368.69999980927,183974.886,183979.09999990463,183991.732,184375.017,,20,save
screen,html.Screen,2_1_1_1_21,2022-04-27T11:04:59.493Z,,,,,,,,,,,,,,,,,54,,,,,,,,,,,,,,361.58299990464,,response,,,,100,,,,,,,Space,keypress(Space),,,,,,,,"-- --- ---- --- ------ ----- ------- ---- -- --- ------- --<br>------- ---------- ------ -- ----- -- ----- -- ---- money,<br>--- ----- --- --- ------ -------- ----- --- ------ ----- --<br>----- ----- ---------- --- --- ------ ------ ---- -- ------<br>------- --- ------ ----- --- ---- ------- -- ---- --- --<br>------- ------",184737.29999995232,184736.59999990463,184358.268,184369.19999980927,184375.017,184741.299,,21,"money,"
screen,html.Screen,2_1_1_1_22,2022-04-27T11:04:59.852Z,,,,,,,,,,,,,,,,,54,,,,,,,,,,,,,,354.6009998569498,,response,,,,100,,,,,,,Space,keypress(Space),,,,,,,,-- --- ---- --- ------ ----- ------- ---- -- --- ------- --<br>------- ---------- ------ -- ----- -- ----- -- ---- ------<br>the ----- --- --- ------ -------- ----- --- ------ ----- --<br>----- ----- ---------- --- --- ------ ------ ---- -- ------<br>------- --- ------ ----- --- ---- ------- -- ---- --- --<br>------- ------,185096.5,185095.89999985695,184724.972,184737.5,184741.299,185107.976,,22,the
screen,html.Screen,2_1_1_1_23,2022-04-27T11:05:00.173Z,,,,,,,,,,,,,,,,,54,,,,,,,,,,,,,,309.0240000000049,,response,,,,100,,,,,,,Space,keypress(Space),,,,,,,,-- --- ---- --- ------ ----- ------- ---- -- --- ------- --<br>------- ---------- ------ -- ----- -- ----- -- ---- ------<br>--- state --- --- ------ -------- ----- --- ------ ----- --<br>----- ----- ---------- --- --- ------ ------ ---- -- ------<br>------- --- ------ ----- --- ---- ------- -- ---- --- --<br>------- ------,185417.89999985695,185417,185091.281,185096.59999990463,185107.976,185424.739,,23,state
screen,html.Screen,2_1_1_1_24,2022-04-27T11:05:00.584Z,,,,,,,,,,,,,,,,,54,,,,,,,,,,,,,,401.86099990463117,,response,,,,100,,,,,,,Space,keypress(Space),,,,,,,,-- --- ---- --- ------ ----- ------- ---- -- --- ------- --<br>------- ---------- ------ -- ----- -- ----- -- ---- ------<br>--- ----- cut --- ------ -------- ----- --- ------ ----- --<br>----- ----- ---------- --- --- ------ ------ ---- -- ------<br>------- --- ------ ----- --- ---- ------- -- ---- --- --<br>------- ------,185828.29999995232,185826.59999990463,185407.9,185418,185424.739,185841.175,,24,cut
screen,html.Screen,2_1_1_1_25,2022-04-27T11:05:00.956Z,,,,,,,,,,,,,,,,,54,,,,,,,,,,,,,,359.2249998569605,,response,,,,100,,,,,,,Space,keypress(Space),,,,,,,,-- --- ---- --- ------ ----- ------- ---- -- --- ------- --<br>------- ---------- ------ -- ----- -- ----- -- ---- ------<br>--- ----- --- the ------ -------- ----- --- ------ ----- --<br>----- ----- ---------- --- --- ------ ------ ---- -- ------<br>------- --- ------ ----- --- ---- ------- -- ---- --- --<br>------- ------,186200.69999980927,186200.39999985695,185824.813,185828.5,185841.175,186207.968,,25,the
screen,html.Screen,2_1_1_1_26,2022-04-27T11:05:01.310Z,,,,,,,,,,,,,,,,,54,,,,,,,,,,,,,,345.4319998569554,,response,,,,100,,,,,,,Space,keypress(Space),,,,,,,,-- --- ---- --- ------ ----- ------- ---- -- --- ------- --<br>------- ---------- ------ -- ----- -- ----- -- ---- ------<br>--- ----- --- --- bonds' -------- ----- --- ------ ----- --<br>----- ----- ---------- --- --- ------ ------ ---- -- ------<br>------- --- ------ ----- --- ---- ------- -- ---- --- --<br>------- ------,186554.39999985695,186553.39999985695,186191.292,186200.89999985695,186207.968,186557.729,,26,bonds'
screen,html.Screen,2_1_1_1_27,2022-04-27T11:05:01.631Z,,,,,,,,,,,,,,,,,54,,,,,,,,,,,,,,316.17099985695677,,response,,,,100,,,,,,,Space,keypress(Space),,,,,,,,-- --- ---- --- ------ ----- ------- ---- -- --- ------- --<br>------- ---------- ------ -- ----- -- ----- -- ---- ------<br>--- ----- --- --- ------ interest ----- --- ------ ----- --<br>----- ----- ---------- --- --- ------ ------ ---- -- ------<br>------- --- ------ ----- --- ---- ------- -- ---- --- --<br>------- ------,186875.59999990463,186873.89999985695,186541.248,186554.59999990463,186557.729,186891.257,,27,interest
screen,html.Screen,2_1_1_1_28,2022-04-27T11:05:01.957Z,,,,,,,,,,,,,,,,,54,,,,,,,,,,,,,,309.9429998092528,,response,,,,100,,,,,,,Space,keypress(Space),,,,,,,,-- --- ---- --- ------ ----- ------- ---- -- --- ------- --<br>------- ---------- ------ -- ----- -- ----- -- ---- ------<br>--- ----- --- --- ------ -------- rate. --- ------ ----- --<br>----- ----- ---------- --- --- ------ ------ ---- -- ------<br>------- --- ------ ----- --- ---- ------- -- ---- --- --<br>------- ------,187202.09999990463,187201.19999980927,186874.621,186875.89999985695,186891.257,187207.616,,28,rate.
screen,html.Screen,2_1_1_1_29,2022-04-27T11:05:02.301Z,,,,,,,,,,,,,,,,,54,,,,,,,,,,,,,,337.8839999999909,,response,,,,100,,,,,,,Space,keypress(Space),,,,,,,,-- --- ---- --- ------ ----- ------- ---- -- --- ------- --<br>------- ---------- ------ -- ----- -- ----- -- ---- ------<br>--- ----- --- --- ------ -------- ----- The ------ ----- --<br>----- ----- ---------- --- --- ------ ------ ---- -- ------<br>------- --- ------ ----- --- ---- ------- -- ---- --- --<br>------- ------,187546,187545.5,187191.105,187202.39999985695,187207.616,187557.757,,29,The
screen,html.Screen,2_1_1_1_30,2022-04-27T11:05:02.684Z,,,,,,,,,,,,,,,,,54,,,,,,,,,,,,,,370.54299995230394,,response,,,,100,,,,,,,Space,keypress(Space),,,,,,,,-- --- ---- --- ------ ----- ------- ---- -- --- ------- --<br>------- ---------- ------ -- ----- -- ----- -- ---- ------<br>--- ----- --- --- ------ -------- ----- --- market ----- --<br>----- ----- ---------- --- --- ------ ------ ---- -- ------<br>------- --- ------ ----- --- ---- ------- -- ---- --- --<br>------- ------,187928.79999995232,187928.29999995232,187540.934,187546.19999980927,187557.757,187941.033,,30,market
screen,html.Screen,2_1_1_1_31,2022-04-27T11:05:03.003Z,,,,,,,,,,,,,,,,,54,,,,,,,,,,,,,,306.6669998092693,,response,,,,100,,,,,,,Space,keypress(Space),,,,,,,,-- --- ---- --- ------ ----- ------- ---- -- --- ------- --<br>------- ---------- ------ -- ----- -- ----- -- ---- ------<br>--- ----- --- --- ------ -------- ----- --- ------ value --<br>----- ----- ---------- --- --- ------ ------ ---- -- ------<br>------- --- ------ ----- --- ---- ------- -- ---- --- --<br>------- ------,188248.19999980927,188247.69999980927,187924.408,187928.89999985695,187941.033,188257.401,,31,value
screen,html.Screen,2_1_1_1_32,2022-04-27T11:05:03.276Z,,,,,,,,,,,,,,,,,54,,,,,,,,,,,,,,263.29899980925256,,response,,,,100,,,,,,,Space,keypress(Space),,,,,,,,-- --- ---- --- ------ ----- ------- ---- -- --- ------- --<br>------- ---------- ------ -- ----- -- ----- -- ---- ------<br>--- ----- --- --- ------ -------- ----- --- ------ ----- of<br>----- ----- ---------- --- --- ------ ------ ---- -- ------<br>------- --- ------ ----- --- ---- ------- -- ---- --- --<br>------- ------,188521.09999990463,188520.69999980927,188240.737,188248.29999995232,188257.401,188524.07,,32,of
screen,html.Screen,2_1_1_1_33,2022-04-27T11:05:03.531Z,,,,,,,,,,,,,,,,,54,,,,,,,,,,,,,,251.62999980925815,,response,,,,100,,,,,,,Space,keypress(Space),,,,,,,,-- --- ---- --- ------ ----- ------- ---- -- --- ------- --<br>------- ---------- ------ -- ----- -- ----- -- ---- ------<br>--- ----- --- --- ------ -------- ----- --- ------ ----- --<br>these ----- ---------- --- --- ------ ------ ---- -- ------<br>------- --- ------ ----- --- ---- ------- -- ---- --- --<br>------- ------,188776.09999990463,188775.69999980927,188507.378,188521.29999995232,188524.07,188790.956,,33,these
screen,html.Screen,2_1_1_1_34,2022-04-27T11:05:03.988Z,,,,,,,,,,,,,,,,,54,,,,,,,,,,,,,,440.8439999523107,,response,,,,100,,,,,,,Space,keypress(Space),,,,,,,,-- --- ---- --- ------ ----- ------- ---- -- --- ------- --<br>------- ---------- ------ -- ----- -- ----- -- ---- ------<br>--- ----- --- --- ------ -------- ----- --- ------ ----- --<br>----- bonds ---------- --- --- ------ ------ ---- -- ------<br>------- --- ------ ----- --- ---- ------- -- ---- --- --<br>------- ------,189232.39999985695,189231.79999995232,188774.282,188776.19999980927,188790.956,189240.578,,34,bonds
screen,html.Screen,2_1_1_1_35,2022-04-27T11:05:04.174Z,,,,,,,,,,,,,,,,,54,,,,,,,,,,,,,,177.02199990462395,,response,,,,100,,,,,,,Space,keypress(Space),,,,,,,,"-- --- ---- --- ------ ----- ------- ---- -- --- ------- --<br>------- ---------- ------ -- ----- -- ----- -- ---- ------<br>--- ----- --- --- ------ -------- ----- --- ------ ----- --<br>----- ----- plummeted, --- --- ------ ------ ---- -- ------<br>------- --- ------ ----- --- ---- ------- -- ---- --- --<br>------- ------",189418.89999985695,189417.59999990463,189223.952,189232.39999985695,189240.578,189424.086,,35,"plummeted,"
screen,html.Screen,2_1_1_1_36,2022-04-27T11:05:04.654Z,,,,,,,,,,,,,,,,,54,,,,,,,,,,,,,,473.6139998092549,,response,,,,100,,,,,,,Space,keypress(Space),,,,,,,,-- --- ---- --- ------ ----- ------- ---- -- --- ------- --<br>------- ---------- ------ -- ----- -- ----- -- ---- ------<br>--- ----- --- --- ------ -------- ----- --- ------ ----- --<br>----- ----- ---------- and --- ------ ------ ---- -- ------<br>------- --- ------ ----- --- ---- ------- -- ---- --- --<br>------- ------,189898.69999980927,189897.69999980927,189407.208,189419.19999980927,189424.086,189907.22,,36,and
screen,html.Screen,2_1_1_1_37,2022-04-27T11:05:04.933Z,,,,,,,,,,,,,,,,,54,,,,,,,,,,,,,,270.27999999999884,,response,,,,100,,,,,,,Space,keypress(Space),,,,,,,,-- --- ---- --- ------ ----- ------- ---- -- --- ------- --<br>------- ---------- ------ -- ----- -- ----- -- ---- ------<br>--- ----- --- --- ------ -------- ----- --- ------ ----- --<br>----- ----- ---------- --- the ------ ------ ---- -- ------<br>------- --- ------ ----- --- ---- ------- -- ---- --- --<br>------- ------,190178,190177.5,189890.657,189899,189907.22,190190.68,,37,the
screen,html.Screen,2_1_1_1_38,2022-04-27T11:05:05.140Z,,,,,,,,,,,,,,,,,54,,,,,,,,,,,,,,193.01999980927212,,response,,,,100,,,,,,,Space,keypress(Space),,,,,,,,-- --- ---- --- ------ ----- ------- ---- -- --- ------- --<br>------- ---------- ------ -- ----- -- ----- -- ---- ------<br>--- ----- --- --- ------ -------- ----- --- ------ ----- --<br>----- ----- ---------- --- --- market ------ ---- -- ------<br>------- --- ------ ----- --- ---- ------- -- ---- --- --<br>------- ------,190384.19999980927,190383.69999980927,190173.806,190178.19999980927,190190.68,190390.4,,38,market
screen,html.Screen,2_1_1_1_39,2022-04-27T11:05:05.315Z,,,,,,,,,,,,,,,,,54,,,,,,,,,,,,,,169.29999980927096,,response,,,,100,,,,,,,Space,keypress(Space),,,,,,,,-- --- ---- --- ------ ----- ------- ---- -- --- ------- --<br>------- ---------- ------ -- ----- -- ----- -- ---- ------<br>--- ----- --- --- ------ -------- ----- --- ------ ----- --<br>----- ----- ---------- --- --- ------ became ---- -- ------<br>------- --- ------ ----- --- ---- ------- -- ---- --- --<br>------- ------,190560.09999990463,190559.69999980927,190373.776,190384.19999980927,190390.4,190573.7,,39,became
screen,html.Screen,2_1_1_1_40,2022-04-27T11:05:05.484Z,,,,,,,,,,,,,,,,,54,,,,,,,,,,,,,,154.29999999998836,,response,,,,100,,,,,,,Space,keypress(Space),,,,,,,,-- --- ---- --- ------ ----- ------- ---- -- --- ------- --<br>------- ---------- ------ -- ----- -- ----- -- ---- ------<br>--- ----- --- --- ------ -------- ----- --- ------ ----- --<br>----- ----- ---------- --- --- ------ ------ wary -- ------<br>------- --- ------ ----- --- ---- ------- -- ---- --- --<br>------- ------,190728.39999985695,190728,190557.037,190560.19999980927,190573.7,190740.355,,40,wary
screen,html.Screen,2_1_1_1_41,2022-04-27T11:05:05.814Z,,,,,,,,,,,,,,,,,54,,,,,,,,,,,,,,316.7449999046221,,response,,,,100,,,,,,,Space,keypress(Space),,,,,,,,-- --- ---- --- ------ ----- ------- ---- -- --- ------- --<br>------- ---------- ------ -- ----- -- ----- -- ---- ------<br>--- ----- --- --- ------ -------- ----- --- ------ ----- --<br>----- ----- ---------- --- --- ------ ------ ---- of ------<br>------- --- ------ ----- --- ---- ------- -- ---- --- --<br>------- ------,191058.29999995232,191057.09999990463,190723.935,190728.59999990463,190740.355,191073.665,,41,of
screen,html.Screen,2_1_1_1_42,2022-04-27T11:05:06.270Z,,,,,,,,,,,,,,,,,54,,,,,,,,,,,,,,439.63499995230814,,response,,,,100,,,,,,,Space,keypress(Space),,,,,,,,-- --- ---- --- ------ ----- ------- ---- -- --- ------- --<br>------- ---------- ------ -- ----- -- ----- -- ---- ------<br>--- ----- --- --- ------ -------- ----- --- ------ ----- --<br>----- ----- ---------- --- --- ------ ------ ---- -- French<br>------- --- ------ ----- --- ---- ------- -- ---- --- --<br>------- ------,191514.29999995232,191513.29999995232,191057.353,191058.69999980927,191073.665,191523.747,,42,French
screen,html.Screen,2_1_1_1_43,2022-04-27T11:05:06.527Z,,,,,,,,,,,,,,,,,54,,,,,,,,,,,,,,246.4529998092621,,response,,,,100,,,,,,,Space,keypress(Space),,,,,,,,-- --- ---- --- ------ ----- ------- ---- -- --- ------- --<br>------- ---------- ------ -- ----- -- ----- -- ---- ------<br>--- ----- --- --- ------ -------- ----- --- ------ ----- --<br>----- ----- ---------- --- --- ------ ------ ---- -- ------<br>credit. --- ------ ----- --- ---- ------- -- ---- --- --<br>------- ------,191771.39999985695,191770.19999980927,191507.153,191514.39999985695,191523.747,191773.59,,43,credit.
screen,html.Screen,2_1_1_1_44,2022-04-27T11:05:06.806Z,,,,,,,,,,,,,,,,,54,,,,,,,,,,,,,,275.60999980926863,,response,,,,100,,,,,,,Space,keypress(Space),,,,,,,,-- --- ---- --- ------ ----- ------- ---- -- --- ------- --<br>------- ---------- ------ -- ----- -- ----- -- ---- ------<br>--- ----- --- --- ------ -------- ----- --- ------ ----- --<br>----- ----- ---------- --- --- ------ ------ ---- -- ------<br>------- The ------ ----- --- ---- ------- -- ---- --- --<br>------- ------,192050.39999985695,192049.19999980927,191757.08,191771.59999990463,191773.59,192056.807,,44,The
screen,html.Screen,2_1_1_1_45,2022-04-27T11:05:07.828Z,,,,,,,,,,,,,,,,,54,,,,,,,,,,,,,,1015.2929999046319,,response,,,,100,,,,,,,Space,keypress(Space),,,,,,,,-- --- ---- --- ------ ----- ------- ---- -- --- ------- --<br>------- ---------- ------ -- ----- -- ----- -- ---- ------<br>--- ----- --- --- ------ -------- ----- --- ------ ----- --<br>----- ----- ---------- --- --- ------ ------ ---- -- ------<br>------- --- French ----- --- ---- ------- -- ---- --- --<br>------- ------,193072.5,193072.09999990463,192040.227,192050.69999980927,192056.807,193096.531,,45,French
screen,html.Screen,2_1_1_1_46,2022-04-27T11:05:08.054Z,,,,,,,,,,,,,,,,,54,,,,,,,,,,,,,,200.76899995232816,,response,,,,100,,,,,,,Space,keypress(Space),,,,,,,,-- --- ---- --- ------ ----- ------- ---- -- --- ------- --<br>------- ---------- ------ -- ----- -- ----- -- ---- ------<br>--- ----- --- --- ------ -------- ----- --- ------ ----- --<br>----- ----- ---------- --- --- ------ ------ ---- -- ------<br>------- --- ------ state --- ---- ------- -- ---- --- --<br>------- ------,193298.29999995232,193297.29999995232,193056.679,193072.69999980927,193096.531,193306.732,,46,state
screen,html.Screen,2_1_1_1_47,2022-04-27T11:05:08.292Z,,,,,,,,,,,,,,,,,54,,,,,,,,,,,,,,229.26800000001094,,response,,,,100,,,,,,,Space,keypress(Space),,,,,,,,-- --- ---- --- ------ ----- ------- ---- -- --- ------- --<br>------- ---------- ------ -- ----- -- ----- -- ---- ------<br>--- ----- --- --- ------ -------- ----- --- ------ ----- --<br>----- ----- ---------- --- --- ------ ------ ---- -- ------<br>------- --- ------ ----- was ---- ------- -- ---- --- --<br>------- ------,193536.39999985695,193536,193289.962,193298.5,193306.732,193539.914,,47,was
screen,html.Screen,2_1_1_1_48,2022-04-27T11:05:08.541Z,,,,,,,,,,,,,,,,,54,,,,,,,,,,,,,,244.88599995232653,,response,,,,100,,,,,,,Space,keypress(Space),,,,,,,,-- --- ---- --- ------ ----- ------- ---- -- --- ------- --<br>------- ---------- ------ -- ----- -- ----- -- ---- ------<br>--- ----- --- --- ------ -------- ----- --- ------ ----- --<br>----- ----- ---------- --- --- ------ ------ ---- -- ------<br>------- --- ------ ----- --- left ------- -- ---- --- --<br>------- ------,193785.69999980927,193784.79999995232,193523.492,193536.5,193539.914,193790.117,,48,left
screen,html.Screen,2_1_1_1_49,2022-04-27T11:05:08.749Z,,,,,,,,,,,,,,,,,54,,,,,,,,,,,,,,202.4829999046342,,response,,,,100,,,,,,,Space,keypress(Space),,,,,,,,-- --- ---- --- ------ ----- ------- ---- -- --- ------- --<br>------- ---------- ------ -- ----- -- ----- -- ---- ------<br>--- ----- --- --- ------ -------- ----- --- ------ ----- --<br>----- ----- ---------- --- --- ------ ------ ---- -- ------<br>------- --- ------ ----- --- ---- without -- ---- --- --<br>------- ------,193993.5,193992.59999990463,193773.182,193786,193790.117,194006.719,,49,without
screen,html.Screen,2_1_1_1_50,2022-04-27T11:05:08.956Z,,,,,,,,,,,,,,,,,54,,,,,,,,,,,,,,193.3809999046207,,response,,,,100,,,,,,,Space,keypress(Space),,,,,,,,-- --- ---- --- ------ ----- ------- ---- -- --- ------- --<br>------- ---------- ------ -- ----- -- ----- -- ---- ------<br>--- ----- --- --- ------ -------- ----- --- ------ ----- --<br>----- ----- ---------- --- --- ------ ------ ---- -- ------<br>------- --- ------ ----- --- ---- ------- an ---- --- --<br>------- ------,194200.69999980927,194200.09999990463,193989.866,193993.69999980927,194006.719,194206.696,,50,an
screen,html.Screen,2_1_1_1_51,2022-04-27T11:05:09.253Z,,,,,,,,,,,,,,,,,54,,,,,,,,,,,,,,290.2039998569526,,response,,,,100,,,,,,,Space,keypress(Space),,,,,,,,-- --- ---- --- ------ ----- ------- ---- -- --- ------- --<br>------- ---------- ------ -- ----- -- ----- -- ---- ------<br>--- ----- --- --- ------ -------- ----- --- ------ ----- --<br>----- ----- ---------- --- --- ------ ------ ---- -- ------<br>------- --- ------ ----- --- ---- ------- -- easy --- --<br>------- ------,194497.5,194496.89999985695,194189.824,194200.79999995232,194206.696,194506.635,,51,easy
screen,html.Screen,2_1_1_1_52,2022-04-27T11:05:09.444Z,,,,,,,,,,,,,,,,,54,,,,,,,,,,,,,,181.16499995230697,,response,,,,100,,,,,,,Space,keypress(Space),,,,,,,,-- --- ---- --- ------ ----- ------- ---- -- --- ------- --<br>------- ---------- ------ -- ----- -- ----- -- ---- ------<br>--- ----- --- --- ------ -------- ----- --- ------ ----- --<br>----- ----- ---------- --- --- ------ ------ ---- -- ------<br>------- --- ------ ----- --- ---- ------- -- ---- way --<br>------- ------,194688.29999995232,194687.79999995232,194490.073,194497.59999990463,194506.635,194706.941,,52,way
screen,html.Screen,2_1_1_1_53,2022-04-27T11:05:09.668Z,,,,,,,,,,,,,,,,,54,,,,,,,,,,,,,,205.85899995232467,,response,,,,100,,,,,,,Space,keypress(Space),,,,,,,,-- --- ---- --- ------ ----- ------- ---- -- --- ------- --<br>------- ---------- ------ -- ----- -- ----- -- ---- ------<br>--- ----- --- --- ------ -------- ----- --- ------ ----- --<br>----- ----- ---------- --- --- ------ ------ ---- -- ------<br>------- --- ------ ----- --- ---- ------- -- ---- --- of<br>------- ------,194913.19999980927,194912.79999995232,194673.323,194688.29999995232,194706.941,194923.171,,53,of
screen,html.Screen,2_1_1_1_54,2022-04-27T11:05:09.942Z,,,,,,,,,,,,,,,,,54,,,,,,,,,,,,,,262.72899985694676,,response,,,,100,,,,,,,Space,keypress(Space),,,,,,,,-- --- ---- --- ------ ----- ------- ---- -- --- ------- --<br>------- ---------- ------ -- ----- -- ----- -- ---- ------<br>--- ----- --- --- ------ -------- ----- --- ------ ----- --<br>----- ----- ---------- --- --- ------ ------ ---- -- ------<br>------- --- ------ ----- --- ---- ------- -- ---- --- --<br>raising ------,195186.5,195185.89999985695,194906.334,194913.29999995232,194923.171,195189.596,,54,raising
screen,html.Screen,2_1_1_1_55,2022-04-27T11:05:10.436Z,,,,,,,,,,,,,,,,,54,,,,,,,,,,,,,,490.40400000000955,,response,,,,100,,,,,,,Space,keypress(Space),,,,,,,,-- --- ---- --- ------ ----- ------- ---- -- --- ------- --<br>------- ---------- ------ -- ----- -- ----- -- ---- ------<br>--- ----- --- --- ------ -------- ----- --- ------ ----- --<br>----- ----- ---------- --- --- ------ ------ ---- -- ------<br>------- --- ------ ----- --- ---- ------- -- ---- --- --<br>------- money.,195680.5,195680,195173.233,195186.59999990463,195189.596,195689.527,,55,money.
Item 100,flow.Loop,2_1_1_1,2022-04-27T11:05:10.436Z,,,,,,,,,,,,,,,,,,,,,,,,,,,,,,,21003.48999999999,,completion,,,,,B,,,,,,,,,,,silence,,,,,195680.69999980927,195680,174659.695,174661.39999985695,174676.51,195689.527,,,
Question 1,html.Screen,2_1_1_2,2022-04-27T11:05:12.918Z,,,,,,,,,,,,,,,,,,,,,,,,,,,,true,TRUE,,2472.0729999046307,,response,,,,100,B,,,,,,TRUE,click #choice-1,,,,silence,,,,,198162.29999995232,198161.59999990463,195673.17,195680.69999980927,195689.527,198189.537,,,
Question 2,html.Screen,2_1_1_3,2022-04-27T11:05:14.837Z,,,,,,,,,,,,,,,,,,,,,,,,,,,,true,FALSE,,1891.9629999999888,,response,,,,100,B,,,,,,FALSE,click #choice-2,,,,silence,,,,,200082,200081.5,198172.81,198162.5,198189.537,200105.485,,,
Item 100,flow.Sequence,2_1_1,2022-04-27T11:05:14.837Z,,,,,,,,,,,,,,,,,,,,,,,,,,,,,,,35403.56700000001,,completion,,,,,,,,,,,,,,,,,,,,,200082.09999990463,200081.5,164661.531,164663.39999985695,164677.933,200105.485,,,
End of Practice,html.Page,2_1_2,2022-04-27T11:05:20.312Z,,,,,,,,,,,,,,,,,,,,,,,,,,,,,,,5451.1149999046465,,form submission,,,,,,,,,,,,,,,,,,,,,205556.89999985695,205556.59999990463,200088.83,200082.09999990463,200105.485,205571.563,,,
Practice,flow.Sequence,2_1,2022-04-27T11:05:20.312Z,,,,,,,,,,,,,,,,,,,,,,,,,,,,,,,80688.80499990463,,completion,,,,,,,,,,,,,,,,,,,,,205557,205556.59999990463,124851.119,124858.79999995232,124867.795,205571.563,,,
Trap_instruction,html.Page,2_2_0,2022-04-27T11:05:23.848Z,,,,,,,,,,,,,,,,,,,,,,,,,,,,,,,3520.9370000000054,,form submission,,,,,,,,,,,,,,,,,,,,,209092.69999980927,209092.5,205554.642,205557.09999990463,205571.563,209104.239,,,
trap_trial,html.Screen,2_2_1,2022-04-27T11:05:27.016Z,,,,,,,,,,,,,,,,,,,,,,,,,,,,true,1,,3155.4609998092637,,response,,,,,,,,,,,1,click #choice-1,,,,,,,,,212260.5,212259.69999980927,209087.377,209092.79999995232,209104.239,212287.11,,,
end of trap trial,html.Page,2_2_2,2022-04-27T11:05:28.248Z,,,,,,,,,,,,,,,,,,,,,,,,,,,,,,,1204.9899999046465,,form submission,,,,,,,,,,,,,,,,,,,,,213492.29999995232,213492.09999990463,212270.463,212260.5,212287.11,213503.3,,,
Trap 1,flow.Sequence,2_2,2022-04-27T11:05:28.248Z,,,,,,,,,,,,,,,,,,,,,,,,,,,,,,,7920.536999904638,,completion,,,,,,,,,,,,,,,,,,,,,213492.5,213492.09999990463,205554.642,205557.09999990463,205571.563,213503.3,,,
Standby,html.Page,2_3_0,2022-04-27T11:05:36.242Z,,,,,,,,,,,,,,,,,,,,,,,,,,,,,,,7998.728000000003,,timeout,,,,,,,,,,,,,,,,,,,,,221486.29999995232,221485.313,213486.628,213492.69999980927,213503.3,221502.028,,,
Holding screen,html.Screen,2_3_1_0_0,2022-04-27T11:05:43.240Z,,,,,,,,,,,,,,,,,,,,,,,,,,,,,,,6999.108000000007,,timeout,,,,,,,,,,,,,,,,,,,,,228485,228484.421,221485.313,221486.59999990463,221502.028,228501.136,,,
screen,html.Screen,2_3_1_0_1_0,2022-04-27T11:05:44.704Z,,,,,,,,,,,,,,,,,2,,,,,,,,,,,,,,1445.7639998569502,,response,,,,1,B,,,,,,Space,keypress(Space),,,,lyrical,,,,Two ---- ------ --- ------- ---------- ------- ----------<br>--- --------- --- ----------- ------- ----- ------- ---<br>--------- ---- -- --- ---- -- --------- -- ---- -------<br>-- --------- ------ --- ----- ------ ---- --- --------- --<br>------ - ---- -- --- ----------- ------- ---- ----- -----<br>--- -------- - ------ ---- -- ----- ---- --- --- -----------<br>-- -------,229948.29999995232,229946.89999985695,228484.421,228485.29999995232,228501.136,229950.664,,0,Two
screen,html.Screen,2_3_1_0_1_1,2022-04-27T11:05:45.052Z,,,,,,,,,,,,,,,,,2,,,,,,,,,,,,,,345.0359998092754,,response,,,,1,B,,,,,,Space,keypress(Space),,,,lyrical,,,,--- days ------ --- ------- ---------- ------- ----------<br>--- --------- --- ----------- ------- ----- ------- ---<br>--------- ---- -- --- ---- -- --------- -- ---- -------<br>-- --------- ------ --- ----- ------ ---- --- --------- --<br>------ - ---- -- --- ----------- ------- ---- ----- -----<br>--- -------- - ------ ---- -- ----- ---- --- --- -----------<br>-- -------,230296.09999990463,230295.69999980927,229934.242,229948.79999995232,229950.664,230300.537,,1,days
screen,html.Screen,2_3_1_0_1_2,2022-04-27T11:05:45.444Z,,,,,,,,,,,,,,,,,2,,,,,,,,,,,,,,387.3629998569377,,response,,,,1,B,,,,,,Space,keypress(Space),,,,lyrical,,,,"--- ---- later, --- ------- ---------- ------- ----------<br>--- --------- --- ----------- ------- ----- ------- ---<br>--------- ---- -- --- ---- -- --------- -- ---- -------<br>-- --------- ------ --- ----- ------ ---- --- --------- --<br>------ - ---- -- --- ----------- ------- ---- ----- -----<br>--- -------- - ------ ---- -- ----- ---- --- --- -----------<br>-- -------",230688.5,230687.89999985695,230284.083,230296.29999995232,230300.537,230700.49,,2,"later,"
screen,html.Screen,2_3_1_0_1_3,2022-04-27T11:05:45.806Z,,,,,,,,,,,,,,,,,2,,,,,,,,,,,,,,348.70999980927445,,response,,,,1,B,,,,,,Space,keypress(Space),,,,lyrical,,,,--- ---- ------ the ------- ---------- ------- ----------<br>--- --------- --- ----------- ------- ----- ------- ---<br>--------- ---- -- --- ---- -- --------- -- ---- -------<br>-- --------- ------ --- ----- ------ ---- --- --------- --<br>------ - ---- -- --- ----------- ------- ---- ----- -----<br>--- -------- - ------ ---- -- ----- ---- --- --- -----------<br>-- -------,231050.59999990463,231049.19999980927,230683.825,230688.59999990463,230700.49,231067.133,,3,the
screen,html.Screen,2_3_1_0_1_4,2022-04-27T11:05:45.996Z,,,,,,,,,,,,,,,,,2,,,,,,,,,,,,,,172.96699990463094,,response,,,,1,B,,,,,,Space,keypress(Space),,,,lyrical,,,,--- ---- ------ --- British ---------- ------- ----------<br>--- --------- --- ----------- ------- ----- ------- ---<br>--------- ---- -- --- ---- -- --------- -- ---- -------<br>-- --------- ------ --- ----- ------ ---- --- --------- --<br>------ - ---- -- --- ----------- ------- ---- ----- -----<br>--- -------- - ------ ---- -- ----- ---- --- --- -----------<br>-- -------,231240.69999980927,231240.09999990463,231050.673,231051.19999980927,231067.133,231250.403,,4,British
screen,html.Screen,2_3_1_0_1_5,2022-04-27T11:05:46.473Z,,,,,,,,,,,,,,,,,2,,,,,,,,,,,,,,465.1969999046414,,response,,,,1,B,,,,,,Space,keypress(Space),,,,lyrical,,,,--- ---- ------ --- ------- astronomer ------- ----------<br>--- --------- --- ----------- ------- ----- ------- ---<br>--------- ---- -- --- ---- -- --------- -- ---- -------<br>-- --------- ------ --- ----- ------ ---- --- --------- --<br>------ - ---- -- --- ----------- ------- ---- ----- -----<br>--- -------- - ------ ---- -- ----- ---- --- --- -----------<br>-- -------,231717.09999990463,231715.59999990463,231233.995,231240.79999995232,231250.403,231733.815,,5,astronomer
screen,html.Screen,2_3_1_0_1_6,2022-04-27T11:05:46.933Z,,,,,,,,,,,,,,,,,2,,,,,,,,,,,,,,442.98499995231396,,response,,,,1,B,,,,,,Space,keypress(Space),,,,lyrical,,,,--- ---- ------ --- ------- ---------- Richard ----------<br>--- --------- --- ----------- ------- ----- ------- ---<br>--------- ---- -- --- ---- -- --------- -- ---- -------<br>-- --------- ------ --- ----- ------ ---- --- --------- --<br>------ - ---- -- --- ----------- ------- ---- ----- -----<br>--- -------- - ------ ---- -- ----- ---- --- --- -----------<br>-- -------,232177.5,232176.79999995232,231717.01,231717.5,231733.815,232183.602,,6,Richard
screen,html.Screen,2_3_1_0_1_7,2022-04-27T11:05:47.364Z,,,,,,,,,,,,,,,,,2,,,,,,,,,,,,,,424.3979999999865,,response,,,,1,B,,,,,,Space,keypress(Space),,,,lyrical,,,,--- ---- ------ --- ------- ---------- ------- Carrington<br>--- --------- --- ----------- ------- ----- ------- ---<br>--------- ---- -- --- ---- -- --------- -- ---- -------<br>-- --------- ------ --- ----- ------ ---- --- --------- --<br>------ - ---- -- --- ----------- ------- ---- ----- -----<br>--- -------- - ------ ---- -- ----- ---- --- --- -----------<br>-- -------,232608.39999985695,232608,232167.029,232177.5,232183.602,232616.833,,7,Carrington
screen,html.Screen,2_3_1_0_1_8,2022-04-27T11:05:47.789Z,,,,,,,,,,,,,,,,,2,,,,,,,,,,,,,,416.2669999046193,,response,,,,1,B,,,,,,Space,keypress(Space),,,,lyrical,,,,--- ---- ------ --- ------- ---------- ------- ----------<br>was --------- --- ----------- ------- ----- ------- ---<br>--------- ---- -- --- ---- -- --------- -- ---- -------<br>-- --------- ------ --- ----- ------ ---- --- --------- --<br>------ - ---- -- --- ----------- ------- ---- ----- -----<br>--- -------- - ------ ---- -- ----- ---- --- --- -----------<br>-- -------,233033.79999995232,233033.09999990463,232600.434,232608.5,232616.833,233050.104,,8,was
screen,html.Screen,2_3_1_0_1_9,2022-04-27T11:05:48.172Z,,,,,,,,,,,,,,,,,2,,,,,,,,,,,,,,365.79599985695677,,response,,,,1,B,,,,,,Space,keypress(Space),,,,lyrical,,,,--- ---- ------ --- ------- ---------- ------- ----------<br>--- observing --- ----------- ------- ----- ------- ---<br>--------- ---- -- --- ---- -- --------- -- ---- -------<br>-- --------- ------ --- ----- ------ ---- --- --------- --<br>------ - ---- -- --- ----------- ------- ---- ----- -----<br>--- -------- - ------ ---- -- ----- ---- --- --- -----------<br>-- -------,233416.29999995232,233415.89999985695,233033.447,233034.09999990463,233050.104,233450.325,,9,observing
screen,html.Screen,2_3_1_0_1_10,2022-04-27T11:05:48.623Z,,,,,,,,,,,,,,,,,2,,,,,,,,,,,,,,415.8749998092535,,response,,,,1,B,,,,,,Space,keypress(Space),,,,lyrical,,,,--- ---- ------ --- ------- ---------- ------- ----------<br>--- --------- the ----------- ------- ----- ------- ---<br>--------- ---- -- --- ---- -- --------- -- ---- -------<br>-- --------- ------ --- ----- ------ ---- --- --------- --<br>------ - ---- -- --- ----------- ------- ---- ----- -----<br>--- -------- - ------ ---- -- ----- ---- --- --- -----------<br>-- -------,233867.89999985695,233866.19999980927,233433.368,233416.39999985695,233450.325,233883.492,,10,the
screen,html.Screen,2_3_1_0_1_11,2022-04-27T11:05:49.654Z,,,,,,,,,,,,,,,,,2,,,,,,,,,,,,,,1013.7079998092668,,response,,,,1,B,,,,,,Space,keypress(Space),,,,lyrical,,,,--- ---- ------ --- ------- ---------- ------- ----------<br>--- --------- --- interesting ------- ----- ------- ---<br>--------- ---- -- --- ---- -- --------- -- ---- -------<br>-- --------- ------ --- ----- ------ ---- --- --------- --<br>------ - ---- -- --- ----------- ------- ---- ----- -----<br>--- -------- - ------ ---- -- ----- ---- --- --- -----------<br>-- -------,234898.29999995232,234897.19999980927,233866.659,233868.29999995232,233883.492,234924.286,,11,interesting
screen,html.Screen,2_3_1_0_1_12,2022-04-27T11:05:49.927Z,,,,,,,,,,,,,,,,,2,,,,,,,,,,,,,,246.0139999523235,,response,,,,1,B,,,,,,Space,keypress(Space),,,,lyrical,,,,--- ---- ------ --- ------- ---------- ------- ----------<br>--- --------- --- ----------- sunspot ----- ------- ---<br>--------- ---- -- --- ---- -- --------- -- ---- -------<br>-- --------- ------ --- ----- ------ ---- --- --------- --<br>------ - ---- -- --- ----------- ------- ---- ----- -----<br>--- -------- - ------ ---- -- ----- ---- --- --- -----------<br>-- -------,235171.29999995232,235170.29999995232,234883.236,234898.5,234924.286,235183.267,,12,sunspot
screen,html.Screen,2_3_1_0_1_13,2022-04-27T11:05:50.468Z,,,,,,,,,,,,,,,,,2,,,,,,,,,,,,,,529.1329998569563,,response,,,,1,B,,,,,,Space,keypress(Space),,,,lyrical,,,,--- ---- ------ --- ------- ---------- ------- ----------<br>--- --------- --- ----------- ------- group ------- ---<br>--------- ---- -- --- ---- -- --------- -- ---- -------<br>-- --------- ------ --- ----- ------ ---- --- --------- --<br>------ - ---- -- --- ----------- ------- ---- ----- -----<br>--- -------- - ------ ---- -- ----- ---- --- --- -----------<br>-- -------,235712.89999985695,235712.39999985695,235166.664,235171.5,235183.267,235716.462,,13,group
screen,html.Screen,2_3_1_0_1_14,2022-04-27T11:05:51.022Z,,,,,,,,,,,,,,,,,2,,,,,,,,,,,,,,548.9379998569493,,response,,,,1,B,,,,,,Space,keypress(Space),,,,lyrical,,,,--- ---- ------ --- ------- ---------- ------- ----------<br>--- --------- --- ----------- ------- ----- through ---<br>--------- ---- -- --- ---- -- --------- -- ---- -------<br>-- --------- ------ --- ----- ------ ---- --- --------- --<br>------ - ---- -- --- ----------- ------- ---- ----- -----<br>--- -------- - ------ ---- -- ----- ---- --- --- -----------<br>-- -------,236266.69999980927,236265.39999985695,235699.946,235712.89999985695,235716.462,236283.169,,14,through
screen,html.Screen,2_3_1_0_1_15,2022-04-27T11:05:51.527Z,,,,,,,,,,,,,,,,,2,,,,,,,,,,,,,,486.43099990463816,,response,,,,1,B,,,,,,Space,keypress(Space),,,,lyrical,,,,--- ---- ------ --- ------- ---------- ------- ----------<br>--- --------- --- ----------- ------- ----- ------- his<br>--------- ---- -- --- ---- -- --------- -- ---- -------<br>-- --------- ------ --- ----- ------ ---- --- --------- --<br>------ - ---- -- --- ----------- ------- ---- ----- -----<br>--- -------- - ------ ---- -- ----- ---- --- --- -----------<br>-- -------,236771.19999980927,236769.59999990463,236266.524,236267.19999980927,236283.169,236782.972,,15,his
screen,html.Screen,2_3_1_0_1_16,2022-04-27T11:05:51.941Z,,,,,,,,,,,,,,,,,2,,,,,,,,,,,,,,402.1279999046237,,response,,,,1,B,,,,,,Space,keypress(Space),,,,lyrical,,,,--- ---- ------ --- ------- ---------- ------- ----------<br>--- --------- --- ----------- ------- ----- ------- ---<br>telescope ---- -- --- ---- -- --------- -- ---- -------<br>-- --------- ------ --- ----- ------ ---- --- --------- --<br>------ - ---- -- --- ----------- ------- ---- ----- -----<br>--- -------- - ------ ---- -- ----- ---- --- --- -----------<br>-- -------,237185.69999980927,237185.09999990463,236766.258,236771.59999990463,236782.972,237199.657,,16,telescope
screen,html.Screen,2_3_1_0_1_17,2022-04-27T11:05:52.446Z,,,,,,,,,,,,,,,,,2,,,,,,,,,,,,,,489.24299985694233,,response,,,,1,B,,,,,,Space,keypress(Space),,,,lyrical,,,,--- ---- ------ --- ------- ---------- ------- ----------<br>--- --------- --- ----------- ------- ----- ------- ---<br>--------- when -- --- ---- -- --------- -- ---- -------<br>-- --------- ------ --- ----- ------ ---- --- --------- --<br>------ - ---- -- --- ----------- ------- ---- ----- -----<br>--- -------- - ------ ---- -- ----- ---- --- --- -----------<br>-- -------,237690.09999990463,237688.89999985695,237182.839,237186,237199.657,237699.417,,17,when
screen,html.Screen,2_3_1_0_1_18,2022-04-27T11:05:52.791Z,,,,,,,,,,,,,,,,,2,,,,,,,,,,,,,,334.68299990464584,,response,,,,1,B,,,,,,Space,keypress(Space),,,,lyrical,,,,--- ---- ------ --- ------- ---------- ------- ----------<br>--- --------- --- ----------- ------- ----- ------- ---<br>--------- ---- he --- ---- -- --------- -- ---- -------<br>-- --------- ------ --- ----- ------ ---- --- --------- --<br>------ - ---- -- --- ----------- ------- ---- ----- -----<br>--- -------- - ------ ---- -- ----- ---- --- --- -----------<br>-- -------,238035.19999980927,238034.09999990463,237682.995,237690.39999985695,237699.417,238049.348,,18,he
screen,html.Screen,2_3_1_0_1_19,2022-04-27T11:05:53.197Z,,,,,,,,,,,,,,,,,2,,,,,,,,,,,,,,390.851999809267,,response,,,,1,B,,,,,,Space,keypress(Space),,,,lyrical,,,,--- ---- ------ --- ------- ---------- ------- ----------<br>--- --------- --- ----------- ------- ----- ------- ---<br>--------- ---- -- saw ---- -- --------- -- ---- -------<br>-- --------- ------ --- ----- ------ ---- --- --------- --<br>------ - ---- -- --- ----------- ------- ---- ----- -----<br>--- -------- - ------ ---- -- ----- ---- --- --- -----------<br>-- -------,238441.19999980927,238440.19999980927,238033.281,238035.59999990463,238049.348,238449.223,,19,saw
screen,html.Screen,2_3_1_0_1_20,2022-04-27T11:05:53.535Z,,,,,,,,,,,,,,,,,2,,,,,,,,,,,,,,328.6769998569507,,response,,,,1,B,,,,,,Space,keypress(Space),,,,lyrical,,,,--- ---- ------ --- ------- ---------- ------- ----------<br>--- --------- --- ----------- ------- ----- ------- ---<br>--------- ---- -- --- what -- --------- -- ---- -------<br>-- --------- ------ --- ----- ------ ---- --- --------- --<br>------ - ---- -- --- ----------- ------- ---- ----- -----<br>--- -------- - ------ ---- -- ----- ---- --- --- -----------<br>-- -------,238779.19999980927,238777.89999985695,238432.558,238441.5,238449.223,238782.57,,20,what
screen,html.Screen,2_3_1_0_1_21,2022-04-27T11:05:53.888Z,,,,,,,,,,,,,,,,,2,,,,,,,,,,,,,,348.32999985694187,,response,,,,1,B,,,,,,Space,keypress(Space),,,,lyrical,,,,--- ---- ------ --- ------- ---------- ------- ----------<br>--- --------- --- ----------- ------- ----- ------- ---<br>--------- ---- -- --- ---- he --------- -- ---- -------<br>-- --------- ------ --- ----- ------ ---- --- --------- --<br>------ - ---- -- --- ----------- ------- ---- ----- -----<br>--- -------- - ------ ---- -- ----- ---- --- --- -----------<br>-- -------,239132.19999980927,239130.89999985695,238766.22,238779.39999985695,238782.57,239149.386,,21,he
screen,html.Screen,2_3_1_0_1_22,2022-04-27T11:05:54.213Z,,,,,,,,,,,,,,,,,2,,,,,,,,,,,,,,307.71399990463397,,response,,,,1,B,,,,,,Space,keypress(Space),,,,lyrical,,,,--- ---- ------ --- ------- ---------- ------- ----------<br>--- --------- --- ----------- ------- ----- ------- ---<br>--------- ---- -- --- ---- -- described -- ---- -------<br>-- --------- ------ --- ----- ------ ---- --- --------- --<br>------ - ---- -- --- ----------- ------- ---- ----- -----<br>--- -------- - ------ ---- -- ----- ---- --- --- -----------<br>-- -------,239458,239457.09999990463,239132.69,239132.5,239149.386,239465.899,,22,described
screen,html.Screen,2_3_1_0_1_23,2022-04-27T11:05:54.589Z,,,,,,,,,,,,,,,,,2,,,,,,,,,,,,,,367.00099985694396,,response,,,,1,B,,,,,,Space,keypress(Space),,,,lyrical,,,,--- ---- ------ --- ------- ---------- ------- ----------<br>--- --------- --- ----------- ------- ----- ------- ---<br>--------- ---- -- --- ---- -- --------- as ---- -------<br>-- --------- ------ --- ----- ------ ---- --- --------- --<br>------ - ---- -- --- ----------- ------- ---- ----- -----<br>--- -------- - ------ ---- -- ----- ---- --- --- -----------<br>-- -------,239833.29999995232,239832.89999985695,239449.246,239458.09999990463,239465.899,239848.997,,23,as
screen,html.Screen,2_3_1_0_1_24,2022-04-27T11:05:54.917Z,,,,,,,,,,,,,,,,,2,,,,,,,,,,,,,,312.30299995231326,,response,,,,1,B,,,,,,Space,keypress(Space),,,,lyrical,,,,"--- ---- ------ --- ------- ---------- ------- ----------<br>--- --------- --- ----------- ------- ----- ------- ---<br>--------- ---- -- --- ---- -- --------- -- ""two -------<br>-- --------- ------ --- ----- ------ ---- --- --------- --<br>------ - ---- -- --- ----------- ------- ---- ----- -----<br>--- -------- - ------ ---- -- ----- ---- --- --- -----------<br>-- -------",240162,240161.29999995232,239832.524,239833.39999985695,239848.997,240165.58,,24,"""two"
screen,html.Screen,2_3_1_0_1_25,2022-04-27T11:05:55.302Z,,,,,,,,,,,,,,,,,2,,,,,,,,,,,,,,379.61999980927794,,response,,,,1,B,,,,,,Space,keypress(Space),,,,lyrical,,,,--- ---- ------ --- ------- ---------- ------- ----------<br>--- --------- --- ----------- ------- ----- ------- ---<br>--------- ---- -- --- ---- -- --------- -- ---- patches<br>-- --------- ------ --- ----- ------ ---- --- --------- --<br>------ - ---- -- --- ----------- ------- ---- ----- -----<br>--- -------- - ------ ---- -- ----- ---- --- --- -----------<br>-- -------,240546.59999990463,240545.19999980927,240148.947,240162.09999990463,240165.58,240548.931,,25,patches
screen,html.Screen,2_3_1_0_1_26,2022-04-27T11:05:55.637Z,,,,,,,,,,,,,,,,,2,,,,,,,,,,,,,,332.16899990462116,,response,,,,1,B,,,,,,Space,keypress(Space),,,,lyrical,,,,--- ---- ------ --- ------- ---------- ------- ----------<br>--- --------- --- ----------- ------- ----- ------- ---<br>--------- ---- -- --- ---- -- --------- -- ---- -------<br>of --------- ------ --- ----- ------ ---- --- --------- --<br>------ - ---- -- --- ----------- ------- ---- ----- -----<br>--- -------- - ------ ---- -- ----- ---- --- --- -----------<br>-- -------,240882,240881.09999990463,240532.425,240546.89999985695,240548.931,240899.066,,26,of
screen,html.Screen,2_3_1_0_1_27,2022-04-27T11:05:55.942Z,,,,,,,,,,,,,,,,,2,,,,,,,,,,,,,,286.1339998092735,,response,,,,1,B,,,,,,Space,keypress(Space),,,,lyrical,,,,--- ---- ------ --- ------- ---------- ------- ----------<br>--- --------- --- ----------- ------- ----- ------- ---<br>--------- ---- -- --- ---- -- --------- -- ---- -------<br>-- intensely ------ --- ----- ------ ---- --- --------- --<br>------ - ---- -- --- ----------- ------- ---- ----- -----<br>--- -------- - ------ ---- -- ----- ---- --- --- -----------<br>-- -------,241186.29999995232,241185.19999980927,240882.172,240882.19999980927,240899.066,241198.912,,27,intensely
screen,html.Screen,2_3_1_0_1_28,2022-04-27T11:05:56.318Z,,,,,,,,,,,,,,,,,2,,,,,,,,,,,,,,362.4879998569377,,response,,,,1,B,,,,,,Space,keypress(Space),,,,lyrical,,,,--- ---- ------ --- ------- ---------- ------- ----------<br>--- --------- --- ----------- ------- ----- ------- ---<br>--------- ---- -- --- ---- -- --------- -- ---- -------<br>-- --------- bright --- ----- ------ ---- --- --------- --<br>------ - ---- -- --- ----------- ------- ---- ----- -----<br>--- -------- - ------ ---- -- ----- ---- --- --- -----------<br>-- -------,241562.59999990463,241561.39999985695,241182.209,241186.69999980927,241198.912,241565.402,,28,bright
screen,html.Screen,2_3_1_0_1_29,2022-04-27T11:05:56.652Z,,,,,,,,,,,,,,,,,2,,,,,,,,,,,,,,330.2979998092633,,response,,,,1,B,,,,,,Space,keypress(Space),,,,lyrical,,,,--- ---- ------ --- ------- ---------- ------- ----------<br>--- --------- --- ----------- ------- ----- ------- ---<br>--------- ---- -- --- ---- -- --------- -- ---- -------<br>-- --------- ------ and ----- ------ ---- --- --------- --<br>------ - ---- -- --- ----------- ------- ---- ----- -----<br>--- -------- - ------ ---- -- ----- ---- --- --- -----------<br>-- -------,241896.19999980927,241895.69999980927,241548.817,241563,241565.402,241898.634,,29,and
screen,html.Screen,2_3_1_0_1_30,2022-04-27T11:05:56.956Z,,,,,,,,,,,,,,,,,2,,,,,,,,,,,,,,301.16599995232536,,response,,,,1,B,,,,,,Space,keypress(Space),,,,lyrical,,,,--- ---- ------ --- ------- ---------- ------- ----------<br>--- --------- --- ----------- ------- ----- ------- ---<br>--------- ---- -- --- ---- -- --------- -- ---- -------<br>-- --------- ------ --- white ------ ---- --- --------- --<br>------ - ---- -- --- ----------- ------- ---- ----- -----<br>--- -------- - ------ ---- -- ----- ---- --- --- -----------<br>-- -------,242200.19999980927,242199.79999995232,241882.007,241896.19999980927,241898.634,242215.391,,30,white
screen,html.Screen,2_3_1_0_1_31,2022-04-27T11:05:57.318Z,,,,,,,,,,,,,,,,,2,,,,,,,,,,,,,,345.8089998092619,,response,,,,1,B,,,,,,Space,keypress(Space),,,,lyrical,,,,"--- ---- ------ --- ------- ---------- ------- ----------<br>--- --------- --- ----------- ------- ----- ------- ---<br>--------- ---- -- --- ---- -- --------- -- ---- -------<br>-- --------- ------ --- ----- light"" ---- --- --------- --<br>------ - ---- -- --- ----------- ------- ---- ----- -----<br>--- -------- - ------ ---- -- ----- ---- --- --- -----------<br>-- -------",242562.39999985695,242561.19999980927,242198.618,242200.29999995232,242215.391,242565.224,,31,"light"""
screen,html.Screen,2_3_1_0_1_32,2022-04-27T11:05:57.653Z,,,,,,,,,,,,,,,,,2,,,,,,,,,,,,,,331.57599995232886,,response,,,,1,B,,,,,,Space,keypress(Space),,,,lyrical,,,,--- ---- ------ --- ------- ---------- ------- ----------<br>--- --------- --- ----------- ------- ----- ------- ---<br>--------- ---- -- --- ---- -- --------- -- ---- -------<br>-- --------- ------ --- ----- ------ over --- --------- --<br>------ - ---- -- --- ----------- ------- ---- ----- -----<br>--- -------- - ------ ---- -- ----- ---- --- --- -----------<br>-- -------,242897.79999995232,242896.79999995232,242548.809,242563.09999990463,242565.224,242932.029,,32,over
screen,html.Screen,2_3_1_0_1_33,2022-04-27T11:05:58.007Z,,,,,,,,,,,,,,,,,2,,,,,,,,,,,,,,318.570999904623,,response,,,,1,B,,,,,,Space,keypress(Space),,,,lyrical,,,,--- ---- ------ --- ------- ---------- ------- ----------<br>--- --------- --- ----------- ------- ----- ------- ---<br>--------- ---- -- --- ---- -- --------- -- ---- -------<br>-- --------- ------ --- ----- ------ ---- the --------- --<br>------ - ---- -- --- ----------- ------- ---- ----- -----<br>--- -------- - ------ ---- -- ----- ---- --- --- -----------<br>-- -------,243251.79999995232,243250.59999990463,242915.36,242898,242932.029,243265.36,,33,the
screen,html.Screen,2_3_1_0_1_34,2022-04-27T11:05:58.342Z,,,,,,,,,,,,,,,,,2,,,,,,,,,,,,,,319.14000000001397,,response,,,,1,B,,,,,,Space,keypress(Space),,,,lyrical,,,,--- ---- ------ --- ------- ---------- ------- ----------<br>--- --------- --- ----------- ------- ----- ------- ---<br>--------- ---- -- --- ---- -- --------- -- ---- -------<br>-- --------- ------ --- ----- ------ ---- --- sunspots. --<br>------ - ---- -- --- ----------- ------- ---- ----- -----<br>--- -------- - ------ ---- -- ----- ---- --- --- -----------<br>-- -------,243586.09999990463,243584.5,243248.492,243252.09999990463,243265.36,243598.448,,34,sunspots.
screen,html.Screen,2_3_1_0_1_35,2022-04-27T11:05:58.700Z,,,,,,,,,,,,,,,,,2,,,,,,,,,,,,,,345.3519999523123,,response,,,,1,B,,,,,,Space,keypress(Space),,,,lyrical,,,,--- ---- ------ --- ------- ---------- ------- ----------<br>--- --------- --- ----------- ------- ----- ------- ---<br>--------- ---- -- --- ---- -- --------- -- ---- -------<br>-- --------- ------ --- ----- ------ ---- --- --------- He<br>------ - ---- -- --- ----------- ------- ---- ----- -----<br>--- -------- - ------ ---- -- ----- ---- --- --- -----------<br>-- -------,243944.29999995232,243943.79999995232,243581.989,243586.5,243598.448,243948.275,,35,He
screen,html.Screen,2_3_1_0_1_36,2022-04-27T11:05:59.039Z,,,,,,,,,,,,,,,,,2,,,,,,,,,,,,,,333.2250000000058,,response,,,,1,B,,,,,,Space,keypress(Space),,,,lyrical,,,,--- ---- ------ --- ------- ---------- ------- ----------<br>--- --------- --- ----------- ------- ----- ------- ---<br>--------- ---- -- --- ---- -- --------- -- ---- -------<br>-- --------- ------ --- ----- ------ ---- --- --------- --<br>jotted - ---- -- --- ----------- ------- ---- ----- -----<br>--- -------- - ------ ---- -- ----- ---- --- --- -----------<br>-- -------,244283.29999995232,244281.5,243931.805,243944.29999995232,243948.275,244298.562,,36,jotted
screen,html.Screen,2_3_1_0_1_37,2022-04-27T11:05:59.380Z,,,,,,,,,,,,,,,,,2,,,,,,,,,,,,,,325.6379998092598,,response,,,,1,B,,,,,,Space,keypress(Space),,,,lyrical,,,,--- ---- ------ --- ------- ---------- ------- ----------<br>--- --------- --- ----------- ------- ----- ------- ---<br>--------- ---- -- --- ---- -- --------- -- ---- -------<br>-- --------- ------ --- ----- ------ ---- --- --------- --<br>------ a ---- -- --- ----------- ------- ---- ----- -----<br>--- -------- - ------ ---- -- ----- ---- --- --- -----------<br>-- -------,244624.59999990463,244624.19999980927,244281.572,244283.79999995232,244298.562,244631.519,,37,a
