sender,sender_type,sender_id,timestamp,meta,,Blues,Classical,Country,Dance,Electronic,Folk,Gospel,Hip-Hop,Jazz,Latin,Musical/Film,New-age,Pop,Prolific_id,Provo_ID,R&B,Rap,Reggae,Religious,Rock,Soul,Swing,Traditional,age,artist_name,correct,correctResponse,distraction,duration,education,ended_on,familiarity,gender,headphone_check_performance,item,list,music_frequency,offensiveness,pleasantness,position_correct,preference,response,response_action,snippet_file,song_name,song_rating,sound,stimulus_1,stimulus_2,stimulus_3,text,time_commit,time_end,time_render,time_run,time_show,time_switch,url,word,word_ID
Prolific ID,html.Form,0,2022-05-03T19:56:56.217Z,"{""labjs_version"":""20.2.2"",""labjs_build"":{""flavor"":""production"",""commit"":""a25486e0c714a0ae2ce03ff94b7bb6896854dcfa""},""location"":""https://run.pavlovia.org/mvasilev/prolific3_music_a/"",""userAgent"":""Mozilla/5.0 (Windows NT 10.0; Win64; x64; rv:98.0) Gecko/20100101 Firefox/98.0"",""platform"":""Win32"",""language"":""en"",""locale"":""en-GB"",""timeZone"":""Europe/London"",""timezoneOffset"":-60,""screen_width"":1700,""screen_height"":960,""scroll_width"":1700,""scroll_height"":721,""window_innerWidth"":1700,""window_innerHeight"":769,""devicePixelRatio"":0.8}",,,,,,,,,,,,,,,6007421356226920359b5f3e,,,,,,,,,,,,,,,5060.800000000003,,form submission,,,,,,,,,,,,,,,,,,,,,102463,102462,97400.68,97401,97401.2,102564.42,{},,
Introduction,html.Screen,1_0,2022-05-03T19:57:05.105Z,,,,,,,,,,,,,,,,,,,,,,,,,,,,,,,8778.580000000002,,response,,,,,,,,,,,continue,click button,,,,,,,,,111350,111343,102457.02,102463,102564.42,111358.5,,,
Volume calibration,html.Screen,1_1,2022-05-03T19:57:27.496Z,,,,,,,,,,,,,,,,,,,,,,,,,,,,,,,22375.5,,response,,,,,,,,,,,continue,click button,,,,,,,,,133741,133734,111348.84,111351,111358.5,133743.46,,,
Task instructions,html.Screen,1_2,2022-05-03T19:57:32.416Z,,,,,,,,,,,,,,,,,,,,,,,,,,,,,,,4912.540000000008,,response,,,,,,,,,,,continue,click button,,,,,,,,,138662,138656,133740.88,133742,133743.46,138673.4,,,
Sounds,html.Screen,1_3_0_0,2022-05-03T19:57:36.660Z,,,,,,,,,,,,,,,,,,,,,,,,,,,,,,,4247.1600000000035,,timeout,,,,,,,,,1,,,,,,,,S,O,I,,142905,142903.9,138660.7,138662,138673.4,142920.56,,,
Judgement,html.Screen,1_3_0_1,2022-05-03T19:57:40.034Z,,,,,,,,,,,,,,,,,,,,,,,,,,,,true,1,,3344.4400000000023,,response,,,,,,,,,1,,1,click #choice-1,,,,,S,O,I,,146280,146265,142903.9,142905,142920.56,146284.94,,,
Trial,flow.Sequence,1_3_0,2022-05-03T19:57:40.035Z,,,,,,,,,,,,,,,,,,,,,,,,,,,,,,,7591.600000000006,,completion,,,,,,,,,1,,,,,,,,S,O,I,,146280,146265,138660.7,138662,138673.4,146284.94,,,
Sounds,html.Screen,1_3_1_0,2022-05-03T19:57:44.272Z,,,,,,,,,,,,,,,,,,,,,,,,,,,,,,,4247.200000000012,,timeout,,,,,,,,,3,,,,,,,,I,O,S,,150517,150515.5,146278.94,146281,146284.94,150532.14,,,
Judgement,html.Screen,1_3_1_1,2022-05-03T19:57:45.036Z,,,,,,,,,,,,,,,,,,,,,,,,,,,,true,3,,732.859999999986,,response,,,,,,,,,3,,3,click #choice-3,,,,,I,O,S,,151281,151265,150515.5,150517,150532.14,151281.64,,,
Trial,flow.Sequence,1_3_1,2022-05-03T19:57:45.036Z,,,,,,,,,,,,,,,,,,,,,,,,,,,,,,,4980.059999999998,,completion,,,,,,,,,3,,,,,,,,I,O,S,,151282,151265,146278.94,146281,146284.94,151281.64,,,
Sounds,html.Screen,1_3_2_0,2022-05-03T19:57:49.269Z,,,,,,,,,,,,,,,,,,,,,,,,,,,,,,,4247.099999999977,,timeout,,,,,,,,,2,,,,,,,,I,S,O,,155513,155512.08,151280.84,151282,151281.64,155528.74,,,
Judgement,html.Screen,1_3_2_1,2022-05-03T19:57:49.930Z,,,,,,,,,,,,,,,,,,,,,,,,,,,,true,2,,643.2600000000093,,response,,,,,,,,,2,,2,click #choice-2,,,,,I,S,O,,156176,156172,155512.08,155514,155528.74,156178.3,,,
Trial,flow.Sequence,1_3_2,2022-05-03T19:57:49.930Z,,,,,,,,,,,,,,,,,,,,,,,,,,,,,,,4890.359999999986,,completion,,,,,,,,,2,,,,,,,,I,S,O,,156176,156172,151280.84,151282,151281.64,156178.3,,,
Sounds,html.Screen,1_3_3_0,2022-05-03T19:57:54.164Z,,,,,,,,,,,,,,,,,,,,,,,,,,,,,,,4247.200000000012,,timeout,,,,,,,,,1,,,,,,,,S,I,O,,160410,160408.84,156174.68,156176,156178.3,160425.5,,,
Judgement,html.Screen,1_3_3_1,2022-05-03T19:57:54.926Z,,,,,,,,,,,,,,,,,,,,,,,,,,,,true,1,,730.5,,response,,,,,,,,,1,,1,click #choice-1,,,,,S,I,O,,161171,161156,160408.84,160410,160425.5,161174.94,,,
Trial,flow.Sequence,1_3_3,2022-05-03T19:57:54.926Z,,,,,,,,,,,,,,,,,,,,,,,,,,,,,,,4977.700000000012,,completion,,,,,,,,,1,,,,,,,,S,I,O,,161172,161156,156174.68,156176,156178.3,161174.94,,,
Sounds,html.Screen,1_3_4_0,2022-05-03T19:57:59.162Z,,,,,,,,,,,,,,,,,,,,,,,,,,,,,,,4247.139999999985,,timeout,,,,,,,,,2,,,,,,,,O,S,I,,165406,165405.42,161170.8,161172,161174.94,165422.08,,,
Judgement,html.Screen,1_3_4_1,2022-05-03T19:57:59.773Z,,,,,,,,,,,,,,,,,,,,,,,,,,,,true,2,,576.9200000000128,,response,,,,,,,,,2,,2,click #choice-2,,,,,O,S,I,,166018,165999,165405.42,165406,165422.08,166021.7,,,
Trial,flow.Sequence,1_3_4,2022-05-03T19:57:59.773Z,,,,,,,,,,,,,,,,,,,,,,,,,,,,,,,4824.059999999998,,completion,,,,,,,,,2,,,,,,,,O,S,I,,166018,165999,161170.8,161172,161174.94,166021.7,,,
Sounds,html.Screen,1_3_5_0,2022-05-03T19:58:04.008Z,,,,,,,,,,,,,,,,,,,,,,,,,,,,,,,4247.099999999977,,timeout,,,,,,,,,3,,,,,,,,O,I,S,,170253,170252.14,166016.82,166018,166021.7,170268.8,,,
Judgement,html.Screen,1_3_5_1,2022-05-03T19:58:04.515Z,,,,,,,,,,,,,,,,,,,,,,,,,,,,true,3,,481.20000000001164,,response,,,,,,,,,3,,3,click #choice-3,,,,,O,I,S,,170759,170750,170252.14,170254,170268.8,170768.48,,,
Trial,flow.Sequence,1_3_5,2022-05-03T19:58:04.515Z,,,,,,,,,,,,,,,,,,,,,,,,,,,,,,,4728.299999999988,,completion,,,,,,,,,3,,,,,,,,O,I,S,,170760,170750,166016.82,166018,166021.7,170768.48,,,
Task,flow.Loop,1_3,2022-05-03T19:58:04.516Z,,,,,,,,,,,,,,,,,,,,,,,,,,,,,,,32076.600000000006,,completion,,,1,,,,,,,,,,,,,,,,,,170760,170750,138660.7,138662,138673.4,170768.48,,,
Trap,html.Screen,1_4,2022-05-03T19:58:04.518Z,,,,,,,,,,,,,,,,,,,,,,,,,,,,,,,NaN,,skipped,,,,,,,,,,,,,,,,,,,,,170763,170750,,170762,,170768.48,,,
Thanks,html.Screen,1_5,2022-05-03T19:58:08.870Z,,,,,,,,,,,,,,,,,,,,,,,,,,,,,,,4340.5199999999895,,response,,,,,,,,,,,continue,click button,,,,,,,,,175115,175109,170758.76,170763,170768.48,179329.36,,,
Headphone screening,flow.Sequence,1,2022-05-03T19:58:08.871Z,,,,,,,,,,,,,,,,,,,,,,,,,,,,,,,72544.58,,completion,,,,,,,,,,,,,,,,,,,,,175115,175109,102457.02,102463,102564.42,179329.36,,,
Instructions,html.Page,2_0,2022-05-03T19:59:03.730Z,,,,,,,,,,,,,,,,,,,,,,,,,,,,,,,50644.640000000014,,form submission,,,,,,,,,,,,,,,,,,,,,229976,229974,179312.7,179301,179329.36,229978.6,,,
Holding screen,html.Screen,2_1_0_0,2022-05-03T19:59:13.711Z,,,,,,,,,,,,,,,,,,,,,,,,,,,,,,,9993.23999999999,,timeout,,,,,,,,,,,,,,,,,,,,,239956,239955.18,229972.6,229976,229978.6,239971.84,,,
screen,html.Screen,2_1_0_1_0,2022-05-03T19:59:14.642Z,,,,,,,,,,,,,,,,,53,,,,,,,,,,,,,,902.1600000000035,,response,,,,99,,,,,,,Space,keypress(Space),,,,,,,,When -- ----- -- ------ - ------- --- ----------<br>------------- ------ ------ ---- ---- ------- ----- -- ----<br>-------- ------- -- ---------- --- - --- ----- ----- ----<br>---- --- --- ----- --- ---- ---- ------- ----- ---- -------<br>--- --- -- ----- -- --- ---- -- --- ---- -- ------ ------<br>--- ----- -- ----,240886,240874,239955.18,239957,239971.84,240887.92,,0,When
screen,html.Screen,2_1_0_1_1,2022-05-03T19:59:15.042Z,,,,,,,,,,,,,,,,,53,,,,,,,,,,,,,,394.0799999999872,,response,,,,99,,,,,,,Space,keypress(Space),,,,,,,,---- it ----- -- ------ - ------- --- ----------<br>------------- ------ ------ ---- ---- ------- ----- -- ----<br>-------- ------- -- ---------- --- - --- ----- ----- ----<br>---- --- --- ----- --- ---- ---- ------- ----- ---- -------<br>--- --- -- ----- -- --- ---- -- --- ---- -- ------ ------<br>--- ----- -- ----,241287,241282,240886.52,240887,240887.92,241287.7,,1,it
screen,html.Screen,2_1_0_1_2,2022-05-03T19:59:15.421Z,,,,,,,,,,,,,,,,,53,,,,,,,,,,,,,,368.29999999998836,,response,,,,99,,,,,,,Space,keypress(Space),,,,,,,,---- -- comes -- ------ - ------- --- ----------<br>------------- ------ ------ ---- ---- ------- ----- -- ----<br>-------- ------- -- ---------- --- - --- ----- ----- ----<br>---- --- --- ----- --- ---- ---- ------- ----- ---- -------<br>--- --- -- ----- -- --- ---- -- --- ---- -- ------ ------<br>--- ----- -- ----,241665,241656,241287.5,241288,241287.7,241670.74,,2,comes
screen,html.Screen,2_1_0_1_3,2022-05-03T19:59:15.809Z,,,,,,,,,,,,,,,,,53,,,,,,,,,,,,,,375.2600000000093,,response,,,,99,,,,,,,Space,keypress(Space),,,,,,,,---- -- ----- to ------ - ------- --- ----------<br>------------- ------ ------ ---- ---- ------- ----- -- ----<br>-------- ------- -- ---------- --- - --- ----- ----- ----<br>---- --- --- ----- --- ---- ---- ------- ----- ---- -------<br>--- --- -- ----- -- --- ---- -- --- ---- -- ------ ------<br>--- ----- -- ----,242055,242046,241665.22,241665,241670.74,242070.48,,3,to
screen,html.Screen,2_1_0_1_4,2022-05-03T19:59:16.160Z,,,,,,,,,,,,,,,,,53,,,,,,,,,,,,,,320.5199999999895,,response,,,,99,,,,,,,Space,keypress(Space),,,,,,,,---- -- ----- -- having - ------- --- ----------<br>------------- ------ ------ ---- ---- ------- ----- -- ----<br>-------- ------- -- ---------- --- - --- ----- ----- ----<br>---- --- --- ----- --- ---- ---- ------- ----- ---- -------<br>--- --- -- ----- -- --- ---- -- --- ---- -- ------ ------<br>--- ----- -- ----,242405,242391,242054.88,242055,242070.48,242420.22,,4,having
screen,html.Screen,2_1_0_1_5,2022-05-03T19:59:16.531Z,,,,,,,,,,,,,,,,,53,,,,,,,,,,,,,,344.77999999999884,,response,,,,99,,,,,,,Space,keypress(Space),,,,,,,,---- -- ----- -- ------ a ------- --- ----------<br>------------- ------ ------ ---- ---- ------- ----- -- ----<br>-------- ------- -- ---------- --- - --- ----- ----- ----<br>---- --- --- ----- --- ---- ---- ------- ----- ---- -------<br>--- --- -- ----- -- --- ---- -- --- ---- -- ------ ------<br>--- ----- -- ----,242776,242765,242406.14,242406,242420.22,242786.66,,5,a
screen,html.Screen,2_1_0_1_6,2022-05-03T19:59:16.952Z,,,,,,,,,,,,,,,,,53,,,,,,,,,,,,,,401.3399999999965,,response,,,,99,,,,,,,Space,keypress(Space),,,,,,,,---- -- ----- -- ------ - lasting --- ----------<br>------------- ------ ------ ---- ---- ------- ----- -- ----<br>-------- ------- -- ---------- --- - --- ----- ----- ----<br>---- --- --- ----- --- ---- ---- ------- ----- ---- -------<br>--- --- -- ----- -- --- ---- -- --- ---- -- ------ ------<br>--- ----- -- ----,243197,243188,242776.24,242777,242786.66,243203.04,,6,lasting
screen,html.Screen,2_1_0_1_7,2022-05-03T19:59:17.331Z,,,,,,,,,,,,,,,,,53,,,,,,,,,,,,,,358.95999999999185,,response,,,,99,,,,,,,Space,keypress(Space),,,,,,,,---- -- ----- -- ------ - ------- and ----------<br>------------- ------ ------ ---- ---- ------- ----- -- ----<br>-------- ------- -- ---------- --- - --- ----- ----- ----<br>---- --- --- ----- --- ---- ---- ------- ----- ---- -------<br>--- --- -- ----- -- --- ---- -- --- ---- -- ------ ------<br>--- ----- -- ----,243576,243562,243197.4,243198,243203.04,243586.08,,7,and
screen,html.Screen,2_1_0_1_8,2022-05-03T19:59:17.722Z,,,,,,,,,,,,,,,,,53,,,,,,,,,,,,,,366.9200000000128,,response,,,,99,,,,,,,Space,keypress(Space),,,,,,,,---- -- ----- -- ------ - ------- --- fulfilling<br>------------- ------ ------ ---- ---- ------- ----- -- ----<br>-------- ------- -- ---------- --- - --- ----- ----- ----<br>---- --- --- ----- --- ---- ---- ------- ----- ---- -------<br>--- --- -- ----- -- --- ---- -- --- ---- -- ------ ------<br>--- ----- -- ----,243967,243953,243576.64,243577,243586.08,243969.22,,8,fulfilling
screen,html.Screen,2_1_0_1_9,2022-05-03T19:59:18.204Z,,,,,,,,,,,,,,,,,53,,,,,,,,,,,,,,468.77999999999884,,response,,,,99,,,,,,,Space,keypress(Space),,,,,,,,"---- -- ----- -- ------ - ------- --- ----------<br>relationship, ------ ------ ---- ---- ------- ----- -- ----<br>-------- ------- -- ---------- --- - --- ----- ----- ----<br>---- --- --- ----- --- ---- ---- ------- ----- ---- -------<br>--- --- -- ----- -- --- ---- -- --- ---- -- ------ ------<br>--- ----- -- ----",244449,244438,243967.3,243968,243969.22,244452.2,,9,"relationship,"
screen,html.Screen,2_1_0_1_10,2022-05-03T19:59:18.533Z,,,,,,,,,,,,,,,,,53,,,,,,,,,,,,,,312.79999999998836,,response,,,,99,,,,,,,Space,keypress(Space),,,,,,,,---- -- ----- -- ------ - ------- --- ----------<br>------------- common ------ ---- ---- ------- ----- -- ----<br>-------- ------- -- ---------- --- - --- ----- ----- ----<br>---- --- --- ----- --- ---- ---- ------- ----- ---- -------<br>--- --- -- ----- -- --- ---- -- --- ---- -- ------ ------<br>--- ----- -- ----,244778,244765,244449.1,244449,244452.2,244785.3,,10,common
screen,html.Screen,2_1_0_1_11,2022-05-03T19:59:18.989Z,,,,,,,,,,,,,,,,,53,,,,,,,,,,,,,,433.70000000001164,,response,,,,99,,,,,,,Space,keypress(Space),,,,,,,,---- -- ----- -- ------ - ------- --- ----------<br>------------- ------ wisdom ---- ---- ------- ----- -- ----<br>-------- ------- -- ---------- --- - --- ----- ----- ----<br>---- --- --- ----- --- ---- ---- ------- ----- ---- -------<br>--- --- -- ----- -- --- ---- -- --- ---- -- ------ ------<br>--- ----- -- ----,245234,245219,244778.32,244778,244785.3,245234.98,,11,wisdom
screen,html.Screen,2_1_0_1_12,2022-05-03T19:59:19.409Z,,,,,,,,,,,,,,,,,53,,,,,,,,,,,,,,405.0199999999895,,response,,,,99,,,,,,,Space,keypress(Space),,,,,,,,---- -- ----- -- ------ - ------- --- ----------<br>------------- ------ ------ says ---- ------- ----- -- ----<br>-------- ------- -- ---------- --- - --- ----- ----- ----<br>---- --- --- ----- --- ---- ---- ------- ----- ---- -------<br>--- --- -- ----- -- --- ---- -- --- ---- -- ------ ------<br>--- ----- -- ----,245654,245640,245234.42,245235,245234.98,245668.08,,12,says
screen,html.Screen,2_1_0_1_13,2022-05-03T19:59:19.788Z,,,,,,,,,,,,,,,,,53,,,,,,,,,,,,,,346.9200000000128,,response,,,,99,,,,,,,Space,keypress(Space),,,,,,,,---- -- ----- -- ------ - ------- --- ----------<br>------------- ------ ------ ---- that ------- ----- -- ----<br>-------- ------- -- ---------- --- - --- ----- ----- ----<br>---- --- --- ----- --- ---- ---- ------- ----- ---- -------<br>--- --- -- ----- -- --- ---- -- --- ---- -- ------ ------<br>--- ----- -- ----,246033,246015,245654.34,245654,245668.08,246034.5,,13,that
screen,html.Screen,2_1_0_1_14,2022-05-03T19:59:20.260Z,,,,,,,,,,,,,,,,,53,,,,,,,,,,,,,,464.5,,response,,,,99,,,,,,,Space,keypress(Space),,,,,,,,---- -- ----- -- ------ - ------- --- ----------<br>------------- ------ ------ ---- ---- feeling ----- -- ----<br>-------- ------- -- ---------- --- - --- ----- ----- ----<br>---- --- --- ----- --- ---- ---- ------- ----- ---- -------<br>--- --- -- ----- -- --- ---- -- --- ---- -- ------ ------<br>--- ----- -- ----,246504,246499,246033.5,246033,246034.5,246517.46,,14,feeling
screen,html.Screen,2_1_0_1_15,2022-05-03T19:59:20.648Z,,,,,,,,,,,,,,,,,53,,,,,,,,,,,,,,356.54000000000815,,response,,,,99,,,,,,,Space,keypress(Space),,,,,,,,---- -- ----- -- ------ - ------- --- ----------<br>------------- ------ ------ ---- ---- ------- close -- ----<br>-------- ------- -- ---------- --- - --- ----- ----- ----<br>---- --- --- ----- --- ---- ---- ------- ----- ---- -------<br>--- --- -- ----- -- --- ---- -- --- ---- -- ------ ------<br>--- ----- -- ----,246893,246874,246504.62,246505,246517.46,246900.58,,15,close
screen,html.Screen,2_1_0_1_16,2022-05-03T19:59:21.006Z,,,,,,,,,,,,,,,,,53,,,,,,,,,,,,,,333.4200000000128,,response,,,,99,,,,,,,Space,keypress(Space),,,,,,,,---- -- ----- -- ------ - ------- --- ----------<br>------------- ------ ------ ---- ---- ------- ----- to ----<br>-------- ------- -- ---------- --- - --- ----- ----- ----<br>---- --- --- ----- --- ---- ---- ------- ----- ---- -------<br>--- --- -- ----- -- --- ---- -- --- ---- -- ------ ------<br>--- ----- -- ----,247251,247234,246893.2,246893,246900.58,247267.02,,16,to
screen,html.Screen,2_1_0_1_17,2022-05-03T19:59:21.387Z,,,,,,,,,,,,,,,,,53,,,,,,,,,,,,,,356.9800000000105,,response,,,,99,,,,,,,Space,keypress(Space),,,,,,,,---- -- ----- -- ------ - ------- --- ----------<br>------------- ------ ------ ---- ---- ------- ----- -- your<br>-------- ------- -- ---------- --- - --- ----- ----- ----<br>---- --- --- ----- --- ---- ---- ------- ----- ---- -------<br>--- --- -- ----- -- --- ---- -- --- ---- -- ------ ------<br>--- ----- -- ----,247632,247624,247251.16,247252,247267.02,247633.38,,17,your
screen,html.Screen,2_1_0_1_18,2022-05-03T19:59:21.763Z,,,,,,,,,,,,,,,,,53,,,,,,,,,,,,,,365.61999999999534,,response,,,,99,,,,,,,Space,keypress(Space),,,,,,,,---- -- ----- -- ------ - ------- --- ----------<br>------------- ------ ------ ---- ---- ------- ----- -- ----<br>romantic ------- -- ---------- --- - --- ----- ----- ----<br>---- --- --- ----- --- ---- ---- ------- ----- ---- -------<br>--- --- -- ----- -- --- ---- -- --- ---- -- ------ ------<br>--- ----- -- ----,248008,247999,247632.2,247632,247633.38,248016.52,,18,romantic
screen,html.Screen,2_1_0_1_19,2022-05-03T19:59:22.149Z,,,,,,,,,,,,,,,,,53,,,,,,,,,,,,,,373.4800000000105,,response,,,,99,,,,,,,Space,keypress(Space),,,,,,,,---- -- ----- -- ------ - ------- --- ----------<br>------------- ------ ------ ---- ---- ------- ----- -- ----<br>-------- partner -- ---------- --- - --- ----- ----- ----<br>---- --- --- ----- --- ---- ---- ------- ----- ---- -------<br>--- --- -- ----- -- --- ---- -- --- ---- -- ------ ------<br>--- ----- -- ----,248394,248390,248008.34,248008,248016.52,248399.5,,19,partner
screen,html.Screen,2_1_0_1_20,2022-05-03T19:59:22.493Z,,,,,,,,,,,,,,,,,53,,,,,,,,,,,,,,335.5,,response,,,,99,,,,,,,Space,keypress(Space),,,,,,,,---- -- ----- -- ------ - ------- --- ----------<br>------------- ------ ------ ---- ---- ------- ----- -- ----<br>-------- ------- is ---------- --- - --- ----- ----- ----<br>---- --- --- ----- --- ---- ---- ------- ----- ---- -------<br>--- --- -- ----- -- --- ---- -- --- ---- -- ------ ------<br>--- ----- -- ----,248738,248735,248394.38,248394,248399.5,248749.28,,20,is
screen,html.Screen,2_1_0_1_21,2022-05-03T19:59:22.868Z,,,,,,,,,,,,,,,,,53,,,,,,,,,,,,,,343.72000000000116,,response,,,,99,,,,,,,Space,keypress(Space),,,,,,,,---- -- ----- -- ------ - ------- --- ----------<br>------------- ------ ------ ---- ---- ------- ----- -- ----<br>-------- ------- -- paramount. --- - --- ----- ----- ----<br>---- --- --- ----- --- ---- ---- ------- ----- ---- -------<br>--- --- -- ----- -- --- ---- -- --- ---- -- ------ ------<br>--- ----- -- ----,249113,249093,248738.42,248738,248749.28,249115.76,,21,paramount.
screen,html.Screen,2_1_0_1_22,2022-05-03T19:59:23.234Z,,,,,,,,,,,,,,,,,53,,,,,,,,,,,,,,352.2399999999907,,response,,,,99,,,,,,,Space,keypress(Space),,,,,,,,---- -- ----- -- ------ - ------- --- ----------<br>------------- ------ ------ ---- ---- ------- ----- -- ----<br>-------- ------- -- ---------- But - --- ----- ----- ----<br>---- --- --- ----- --- ---- ---- ------- ----- ---- -------<br>--- --- -- ----- -- --- ---- -- --- ---- -- ------ ------<br>--- ----- -- ----,249479,249468,249113.14,249113,249115.76,249482.12,,22,But
screen,html.Screen,2_1_0_1_23,2022-05-03T19:59:23.609Z,,,,,,,,,,,,,,,,,53,,,,,,,,,,,,,,360.88000000000466,,response,,,,99,,,,,,,Space,keypress(Space),,,,,,,,---- -- ----- -- ------ - ------- --- ----------<br>------------- ------ ------ ---- ---- ------- ----- -- ----<br>-------- ------- -- ---------- --- a --- ----- ----- ----<br>---- --- --- ----- --- ---- ---- ------- ----- ---- -------<br>--- --- -- ----- -- --- ---- -- --- ---- -- ------ ------<br>--- ----- -- ----,249855,249843,249479.1,249479,249482.12,249865.26,,23,a
screen,html.Screen,2_1_0_1_24,2022-05-03T19:59:23.993Z,,,,,,,,,,,,,,,,,53,,,,,,,,,,,,,,353.7399999999907,,response,,,,99,,,,,,,Space,keypress(Space),,,,,,,,---- -- ----- -- ------ - ------- --- ----------<br>------------- ------ ------ ---- ---- ------- ----- -- ----<br>-------- ------- -- ---------- --- - new ----- ----- ----<br>---- --- --- ----- --- ---- ---- ------- ----- ---- -------<br>--- --- -- ----- -- --- ---- -- --- ---- -- ------ ------<br>--- ----- -- ----,250238,250219,249855.16,249855,249865.26,250248.34,,24,new
screen,html.Screen,2_1_0_1_25,2022-05-03T19:59:24.375Z,,,,,,,,,,,,,,,,,53,,,,,,,,,,,,,,360.6600000000035,,response,,,,99,,,,,,,Space,keypress(Space),,,,,,,,---- -- ----- -- ------ - ------- --- ----------<br>------------- ------ ------ ---- ---- ------- ----- -- ----<br>-------- ------- -- ---------- --- - --- study ----- ----<br>---- --- --- ----- --- ---- ---- ------- ----- ---- -------<br>--- --- -- ----- -- --- ---- -- --- ---- -- ------ ------<br>--- ----- -- ----,250620,250609,250238.2,250238,250248.34,250631.34,,25,study
screen,html.Screen,2_1_0_1_26,2022-05-03T19:59:24.754Z,,,,,,,,,,,,,,,,,53,,,,,,,,,,,,,,352.6600000000035,,response,,,,99,,,,,,,Space,keypress(Space),,,,,,,,---- -- ----- -- ------ - ------- --- ----------<br>------------- ------ ------ ---- ---- ------- ----- -- ----<br>-------- ------- -- ---------- --- - --- ----- finds ----<br>---- --- --- ----- --- ---- ---- ------- ----- ---- -------<br>--- --- -- ----- -- --- ---- -- --- ---- -- ------ ------<br>--- ----- -- ----,250999,250984,250619.8,250620,250631.34,251014.42,,26,finds
screen,html.Screen,2_1_0_1_27,2022-05-03T19:59:25.136Z,,,,,,,,,,,,,,,,,53,,,,,,,,,,,,,,359.5799999999872,,response,,,,99,,,,,,,Space,keypress(Space),,,,,,,,---- -- ----- -- ------ - ------- --- ----------<br>------------- ------ ------ ---- ---- ------- ----- -- ----<br>-------- ------- -- ---------- --- - --- ----- ----- that<br>---- --- --- ----- --- ---- ---- ------- ----- ---- -------<br>--- --- -- ----- -- --- ---- -- --- ---- -- ------ ------<br>--- ----- -- ----,251381,251374,250998.72,250999,251014.42,251380.84,,27,that
screen,html.Screen,2_1_0_1_28,2022-05-03T19:59:25.507Z,,,,,,,,,,,,,,,,,53,,,,,,,,,,,,,,353.1600000000035,,response,,,,99,,,,,,,Space,keypress(Space),,,,,,,,---- -- ----- -- ------ - ------- --- ----------<br>------------- ------ ------ ---- ---- ------- ----- -- ----<br>-------- ------- -- ---------- --- - --- ----- ----- ----<br>it's --- --- ----- --- ---- ---- ------- ----- ---- -------<br>--- --- -- ----- -- --- ---- -- --- ---- -- ------ ------<br>--- ----- -- ----,251751,251734,251380.7,251381,251380.84,251763.9,,28,it's
screen,html.Screen,2_1_0_1_29,2022-05-03T19:59:25.891Z,,,,,,,,,,,,,,,,,53,,,,,,,,,,,,,,361.1000000000058,,response,,,,99,,,,,,,Space,keypress(Space),,,,,,,,---- -- ----- -- ------ - ------- --- ----------<br>------------- ------ ------ ---- ---- ------- ----- -- ----<br>-------- ------- -- ---------- --- - --- ----- ----- ----<br>---- not --- ----- --- ---- ---- ------- ----- ---- -------<br>--- --- -- ----- -- --- ---- -- --- ---- -- ------ ------<br>--- ----- -- ----,252135,252125,251751.42,251751,251763.9,252147.02,,29,not
screen,html.Screen,2_1_0_1_30,2022-05-03T19:59:26.222Z,,,,,,,,,,,,,,,,,53,,,,,,,,,,,,,,305.9800000000105,,response,,,,99,,,,,,,Space,keypress(Space),,,,,,,,---- -- ----- -- ------ - ------- --- ----------<br>------------- ------ ------ ---- ---- ------- ----- -- ----<br>-------- ------- -- ---------- --- - --- ----- ----- ----<br>---- --- how ----- --- ---- ---- ------- ----- ---- -------<br>--- --- -- ----- -- --- ---- -- --- ---- -- ------ ------<br>--- ----- -- ----,252467,252453,252135.64,252136,252147.02,252480.14,,30,how
screen,html.Screen,2_1_0_1_31,2022-05-03T19:59:26.600Z,,,,,,,,,,,,,,,,,53,,,,,,,,,,,,,,347.85999999998603,,response,,,,99,,,,,,,Space,keypress(Space),,,,,,,,---- -- ----- -- ------ - ------- --- ----------<br>------------- ------ ------ ---- ---- ------- ----- -- ----<br>-------- ------- -- ---------- --- - --- ----- ----- ----<br>---- --- --- close --- ---- ---- ------- ----- ---- -------<br>--- --- -- ----- -- --- ---- -- --- ---- -- ------ ------<br>--- ----- -- ----,252845,252828,252467.02,252467,252480.14,252846.52,,31,close
screen,html.Screen,2_1_0_1_32,2022-05-03T19:59:26.942Z,,,,,,,,,,,,,,,,,53,,,,,,,,,,,,,,324.4800000000105,,response,,,,99,,,,,,,Space,keypress(Space),,,,,,,,---- -- ----- -- ------ - ------- --- ----------<br>------------- ------ ------ ---- ---- ------- ----- -- ----<br>-------- ------- -- ---------- --- - --- ----- ----- ----<br>---- --- --- ----- you ---- ---- ------- ----- ---- -------<br>--- --- -- ----- -- --- ---- -- --- ---- -- ------ ------<br>--- ----- -- ----,253187,253171,252845.04,252845,252846.52,253196.28,,32,you
screen,html.Screen,2_1_0_1_33,2022-05-03T19:59:27.313Z,,,,,,,,,,,,,,,,,53,,,,,,,,,,,,,,349.72000000000116,,response,,,,99,,,,,,,Space,keypress(Space),,,,,,,,---- -- ----- -- ------ - ------- --- ----------<br>------------- ------ ------ ---- ---- ------- ----- -- ----<br>-------- ------- -- ---------- --- - --- ----- ----- ----<br>---- --- --- ----- --- feel ---- ------- ----- ---- -------<br>--- --- -- ----- -- --- ---- -- --- ---- -- ------ ------<br>--- ----- -- ----,253558,253546,253186.54,253187,253196.28,253562.72,,33,feel
screen,html.Screen,2_1_0_1_34,2022-05-03T19:59:27.641Z,,,,,,,,,,,,,,,,,53,,,,,,,,,,,,,,311.27999999999884,,response,,,,99,,,,,,,Space,keypress(Space),,,,,,,,---- -- ----- -- ------ - ------- --- ----------<br>------------- ------ ------ ---- ---- ------- ----- -- ----<br>-------- ------- -- ---------- --- - --- ----- ----- ----<br>---- --- --- ----- --- ---- that ------- ----- ---- -------<br>--- --- -- ----- -- --- ---- -- --- ---- -- ------ ------<br>--- ----- -- ----,253886,253874,253558.1,253558,253562.72,253895.8,,34,that
screen,html.Screen,2_1_0_1_35,2022-05-03T19:59:28.004Z,,,,,,,,,,,,,,,,,53,,,,,,,,,,,,,,338.20000000001164,,response,,,,99,,,,,,,Space,keypress(Space),,,,,,,,---- -- ----- -- ------ - ------- --- ----------<br>------------- ------ ------ ---- ---- ------- ----- -- ----<br>-------- ------- -- ---------- --- - --- ----- ----- ----<br>---- --- --- ----- --- ---- ---- matters ----- ---- -------<br>--- --- -- ----- -- --- ---- -- --- ---- -- ------ ------<br>--- ----- -- ----,254250,254234,253886.18,253886,253895.8,254262.24,,35,matters
screen,html.Screen,2_1_0_1_36,2022-05-03T19:59:28.343Z,,,,,,,,,,,,,,,,,53,,,,,,,,,,,,,,315.7600000000093,,response,,,,99,,,,,,,Space,keypress(Space),,,,,,,,"---- -- ----- -- ------ - ------- --- ----------<br>------------- ------ ------ ---- ---- ------- ----- -- ----<br>-------- ------- -- ---------- --- - --- ----- ----- ----<br>---- --- --- ----- --- ---- ---- ------- most, ---- -------<br>--- --- -- ----- -- --- ---- -- --- ---- -- ------ ------<br>--- ----- -- ----",254588,254578,254249.44,254250,254262.24,254595.32,,36,"most,"
screen,html.Screen,2_1_0_1_37,2022-05-03T19:59:28.692Z,,,,,,,,,,,,,,,,,53,,,,,,,,,,,,,,325.679999999993,,response,,,,99,,,,,,,Space,keypress(Space),,,,,,,,---- -- ----- -- ------ - ------- --- ----------<br>------------- ------ ------ ---- ---- ------- ----- -- ----<br>-------- ------- -- ---------- --- - --- ----- ----- ----<br>---- --- --- ----- --- ---- ---- ------- ----- it's -------<br>--- --- -- ----- -- --- ---- -- --- ---- -- ------ ------<br>--- ----- -- ----,254937,254921,254588.32,254588,254595.32,254945.1,,37,it's
screen,html.Screen,2_1_0_1_38,2022-05-03T19:59:29.049Z,,,,,,,,,,,,,,,,,53,,,,,,,,,,,,,,335.8999999999942,,response,,,,99,,,,,,,Space,keypress(Space),,,,,,,,---- -- ----- -- ------ - ------- --- ----------<br>------------- ------ ------ ---- ---- ------- ----- -- ----<br>-------- ------- -- ---------- --- - --- ----- ----- ----<br>---- --- --- ----- --- ---- ---- ------- ----- ---- whether<br>--- --- -- ----- -- --- ---- -- --- ---- -- ------ ------<br>--- ----- -- ----,255294,255281,254937.1,254937,254945.1,255294.86,,38,whether
screen,html.Screen,2_1_0_1_39,2022-05-03T19:59:29.406Z,,,,,,,,,,,,,,,,,53,,,,,,,,,,,,,,345.14000000001397,,response,,,,99,,,,,,,Space,keypress(Space),,,,,,,,---- -- ----- -- ------ - ------- --- ----------<br>------------- ------ ------ ---- ---- ------- ----- -- ----<br>-------- ------- -- ---------- --- - --- ----- ----- ----<br>---- --- --- ----- --- ---- ---- ------- ----- ---- -------<br>you --- -- ----- -- --- ---- -- --- ---- -- ------ ------<br>--- ----- -- ----,255651,255640,255294.24,255295,255294.86,255661.3,,39,you
screen,html.Screen,2_1_0_1_40,2022-05-03T19:59:29.803Z,,,,,,,,,,,,,,,,,53,,,,,,,,,,,,,,370.70000000001164,,response,,,,99,,,,,,,Space,keypress(Space),,,,,,,,---- -- ----- -- ------ - ------- --- ----------<br>------------- ------ ------ ---- ---- ------- ----- -- ----<br>-------- ------- -- ---------- --- - --- ----- ----- ----<br>---- --- --- ----- --- ---- ---- ------- ----- ---- -------<br>--- are -- ----- -- --- ---- -- --- ---- -- ------ ------<br>--- ----- -- ----,256048,256032,255651.18,255651,255661.3,256061,,40,are
screen,html.Screen,2_1_0_1_41,2022-05-03T19:59:30.162Z,,,,,,,,,,,,,,,,,53,,,,,,,,,,,,,,329,,response,,,,99,,,,,,,Space,keypress(Space),,,,,,,,---- -- ----- -- ------ - ------- --- ----------<br>------------- ------ ------ ---- ---- ------- ----- -- ----<br>-------- ------- -- ---------- --- - --- ----- ----- ----<br>---- --- --- ----- --- ---- ---- ------- ----- ---- -------<br>--- --- as ----- -- --- ---- -- --- ---- -- ------ ------<br>--- ----- -- ----,256407,256390,256047.76,256048,256061,256410.78,,41,as
screen,html.Screen,2_1_0_1_42,2022-05-03T19:59:30.537Z,,,,,,,,,,,,,,,,,53,,,,,,,,,,,,,,355.22000000000116,,response,,,,99,,,,,,,Space,keypress(Space),,,,,,,,---- -- ----- -- ------ - ------- --- ----------<br>------------- ------ ------ ---- ---- ------- ----- -- ----<br>-------- ------- -- ---------- --- - --- ----- ----- ----<br>---- --- --- ----- --- ---- ---- ------- ----- ---- -------<br>--- --- -- close -- --- ---- -- --- ---- -- ------ ------<br>--- ----- -- ----,256782,256766,256406.94,256407,256410.78,256793.84,,42,close
screen,html.Screen,2_1_0_1_43,2022-05-03T19:59:30.937Z,,,,,,,,,,,,,,,,,53,,,,,,,,,,,,,,377.1600000000035,,response,,,,99,,,,,,,Space,keypress(Space),,,,,,,,---- -- ----- -- ------ - ------- --- ----------<br>------------- ------ ------ ---- ---- ------- ----- -- ----<br>-------- ------- -- ---------- --- - --- ----- ----- ----<br>---- --- --- ----- --- ---- ---- ------- ----- ---- -------<br>--- --- -- ----- as --- ---- -- --- ---- -- ------ ------<br>--- ----- -- ----,257182,257171,256782.4,256782,256793.84,257193.58,,43,as
screen,html.Screen,2_1_0_1_44,2022-05-03T19:59:31.302Z,,,,,,,,,,,,,,,,,53,,,,,,,,,,,,,,337.4200000000128,,response,,,,99,,,,,,,Space,keypress(Space),,,,,,,,---- -- ----- -- ------ - ------- --- ----------<br>------------- ------ ------ ---- ---- ------- ----- -- ----<br>-------- ------- -- ---------- --- - --- ----- ----- ----<br>---- --- --- ----- --- ---- ---- ------- ----- ---- -------<br>--- --- -- ----- -- you ---- -- --- ---- -- ------ ------<br>--- ----- -- ----,257547,257531,257181.8,257182,257193.58,257560,,44,you
screen,html.Screen,2_1_0_1_45,2022-05-03T19:59:31.687Z,,,,,,,,,,,,,,,,,53,,,,,,,,,,,,,,361,,response,,,,99,,,,,,,Space,keypress(Space),,,,,,,,---- -- ----- -- ------ - ------- --- ----------<br>------------- ------ ------ ---- ---- ------- ----- -- ----<br>-------- ------- -- ---------- --- - --- ----- ----- ----<br>---- --- --- ----- --- ---- ---- ------- ----- ---- -------<br>--- --- -- ----- -- --- want -- --- ---- -- ------ ------<br>--- ----- -- ----,257932,257921,257547.28,257547,257560,257943.1,,45,want
screen,html.Screen,2_1_0_1_46,2022-05-03T19:59:32.048Z,,,,,,,,,,,,,,,,,53,,,,,,,,,,,,,,337.8999999999942,,response,,,,99,,,,,,,Space,keypress(Space),,,,,,,,---- -- ----- -- ------ - ------- --- ----------<br>------------- ------ ------ ---- ---- ------- ----- -- ----<br>-------- ------- -- ---------- --- - --- ----- ----- ----<br>---- --- --- ----- --- ---- ---- ------- ----- ---- -------<br>--- --- -- ----- -- --- ---- to --- ---- -- ------ ------<br>--- ----- -- ----,258292,258281,257931.78,257932,257943.1,258309.54,,46,to
screen,html.Screen,2_1_0_1_47,2022-05-03T19:59:32.441Z,,,,,,,,,,,,,,,,,53,,,,,,,,,,,,,,361.45999999999185,,response,,,,99,,,,,,,Space,keypress(Space),,,,,,,,"---- -- ----- -- ------ - ------- --- ----------<br>------------- ------ ------ ---- ---- ------- ----- -- ----<br>-------- ------- -- ---------- --- - --- ----- ----- ----<br>---- --- --- ----- --- ---- ---- ------- ----- ---- -------<br>--- --- -- ----- -- --- ---- -- be, ---- -- ------ ------<br>--- ----- -- ----",258686,258671,258293.56,258293,258309.54,258692.66,,47,"be,"
screen,html.Screen,2_1_0_1_48,2022-05-03T19:59:32.791Z,,,,,,,,,,,,,,,,,53,,,,,,,,,,,,,,339.3399999999965,,response,,,,99,,,,,,,Space,keypress(Space),,,,,,,,---- -- ----- -- ------ - ------- --- ----------<br>------------- ------ ------ ---- ---- ------- ----- -- ----<br>-------- ------- -- ---------- --- - --- ----- ----- ----<br>---- --- --- ----- --- ---- ---- ------- ----- ---- -------<br>--- --- -- ----- -- --- ---- -- --- even -- ------ ------<br>--- ----- -- ----,259036,259032,258687.18,258687,258692.66,259042.38,,48,even
screen,html.Screen,2_1_0_1_49,2022-05-03T19:59:33.138Z,,,,,,,,,,,,,,,,,53,,,,,,,,,,,,,,332.61999999999534,,response,,,,99,,,,,,,Space,keypress(Space),,,,,,,,---- -- ----- -- ------ - ------- --- ----------<br>------------- ------ ------ ---- ---- ------- ----- -- ----<br>-------- ------- -- ---------- --- - --- ----- ----- ----<br>---- --- --- ----- --- ---- ---- ------- ----- ---- -------<br>--- --- -- ----- -- --- ---- -- --- ---- if ------ ------<br>--- ----- -- ----,259383,259375,259036.32,259036,259042.38,259392.12,,49,if
screen,html.Screen,2_1_0_1_50,2022-05-03T19:59:33.551Z,,,,,,,,,,,,,,,,,53,,,,,,,,,,,,,,388.88000000000466,,response,,,,99,,,,,,,Space,keypress(Space),,,,,,,,---- -- ----- -- ------ - ------- --- ----------<br>------------- ------ ------ ---- ---- ------- ----- -- ----<br>-------- ------- -- ---------- --- - --- ----- ----- ----<br>---- --- --- ----- --- ---- ---- ------- ----- ---- -------<br>--- --- -- ----- -- --- ---- -- --- ---- -- that's ------<br>--- ----- -- ----,259796,259781,259383.96,259383,259392.12,259808.48,,50,that's
screen,html.Screen,2_1_0_1_51,2022-05-03T19:59:33.863Z,,,,,,,,,,,,,,,,,53,,,,,,,,,,,,,,284.5199999999895,,response,,,,99,,,,,,,Space,keypress(Space),,,,,,,,---- -- ----- -- ------ - ------- --- ----------<br>------------- ------ ------ ---- ---- ------- ----- -- ----<br>-------- ------- -- ---------- --- - --- ----- ----- ----<br>---- --- --- ----- --- ---- ---- ------- ----- ---- -------<br>--- --- -- ----- -- --- ---- -- --- ---- -- ------ really<br>--- ----- -- ----,260107,260093,259796.8,259797,259808.48,260108.26,,51,really
screen,html.Screen,2_1_0_1_52,2022-05-03T19:59:34.264Z,,,,,,,,,,,,,,,,,53,,,,,,,,,,,,,,390.7399999999907,,response,,,,99,,,,,,,Space,keypress(Space),,,,,,,,---- -- ----- -- ------ - ------- --- ----------<br>------------- ------ ------ ---- ---- ------- ----- -- ----<br>-------- ------- -- ---------- --- - --- ----- ----- ----<br>---- --- --- ----- --- ---- ---- ------- ----- ---- -------<br>--- --- -- ----- -- --- ---- -- --- ---- -- ------ ------<br>not ----- -- ----,260509,260499,260107.38,260107,260108.26,260524.72,,52,not
screen,html.Screen,2_1_0_1_53,2022-05-03T19:59:34.619Z,,,,,,,,,,,,,,,,,53,,,,,,,,,,,,,,318.27999999999884,,response,,,,99,,,,,,,Space,keypress(Space),,,,,,,,---- -- ----- -- ------ - ------- --- ----------<br>------------- ------ ------ ---- ---- ------- ----- -- ----<br>-------- ------- -- ---------- --- - --- ----- ----- ----<br>---- --- --- ----- --- ---- ---- ------- ----- ---- -------<br>--- --- -- ----- -- --- ---- -- --- ---- -- ------ ------<br>--- close -- ----,260864,260843,260509.14,260509,260524.72,260874.48,,53,close
screen,html.Screen,2_1_0_1_54,2022-05-03T19:59:34.959Z,,,,,,,,,,,,,,,,,53,,,,,,,,,,,,,,312.5199999999895,,response,,,,99,,,,,,,Space,keypress(Space),,,,,,,,---- -- ----- -- ------ - ------- --- ----------<br>------------- ------ ------ ---- ---- ------- ----- -- ----<br>-------- ------- -- ---------- --- - --- ----- ----- ----<br>---- --- --- ----- --- ---- ---- ------- ----- ---- -------<br>--- --- -- ----- -- --- ---- -- --- ---- -- ------ ------<br>--- ----- at ----,261204,261187,260864.22,260864,260874.48,261207.64,,54,at
screen,html.Screen,2_1_0_1_55,2022-05-03T19:59:35.334Z,,,,,,,,,,,,,,,,,53,,,,,,,,,,,,,,354.35999999998603,,response,,,,99,,,,,,,Space,keypress(Space),,,,,,,,---- -- ----- -- ------ - ------- --- ----------<br>------------- ------ ------ ---- ---- ------- ----- -- ----<br>-------- ------- -- ---------- --- - --- ----- ----- ----<br>---- --- --- ----- --- ---- ---- ------- ----- ---- -------<br>--- --- -- ----- -- --- ---- -- --- ---- -- ------ ------<br>--- ----- -- all.,261579,261562,261204.24,261204,261207.64,261590.66,,55,all.
Item 99,flow.Loop,2_1_0_1,2022-05-03T19:59:35.334Z,,,,,,,,,,,,,,,,,,,,,,,,,,,,,,,21590.160000000003,,completion,,,,,A,,,,,,,,,,,silence,,,,,261580,261562,239955.18,239957,239971.84,261590.66,,,
Question 1,html.Screen,2_1_0_2,2022-05-03T19:59:39.460Z,,,,,,,,,,,,,,,,,,,,,,,,,,,,true,FALSE,,4096.3399999999965,,response,,,,99,A,,,,,,FALSE,click #choice-2,,,,silence,,,,,265705,265687,261579.56,261580,261590.66,265721.18,,,
Question 2,html.Screen,2_1_0_3,2022-05-03T19:59:46.432Z,,,,,,,,,,,,,,,,,,,,,,,,,,,,true,TRUE,,6949.820000000007,,response,,,,99,A,,,,,,TRUE,click #choice-1,,,,silence,,,,,272677,272671,265704.6,265705,265721.18,272683.2,,,
Item 99,flow.Sequence,2_1_0,2022-05-03T19:59:46.433Z,,,,,,,,,,,,,,,,,,,,,,,,,,,,,,,42692.399999999994,,completion,,,,,,,,,,,,,,,,,,,,,272677,272671,229972.6,229976,229978.6,272683.2,,,
Holding screen,html.Screen,2_1_1_0,2022-05-03T19:59:56.416Z,,,,,,,,,,,,,,,,,,,,,,,,,,,,,,,9993.320000000007,,timeout,,,,,,,,,,,,,,,,,,,,,282662,282659.86,272676.56,272677,272683.2,282676.52,,,
screen,html.Screen,2_1_1_1_0,2022-05-03T19:59:57.695Z,,,,,,,,,,,,,,,,,54,,,,,,,,,,,,,,1244.4799999999814,,response,,,,100,,,,,,,Space,keypress(Space),,,,,,,,At --- ---- --- ------ ----- ------- ---- -- --- ------- --<br>------- ---------- ------ -- ----- -- ----- -- ---- ------<br>--- ----- --- --- ------ -------- ----- --- ------ ----- --<br>----- ----- ---------- --- --- ------ ------ ---- -- ------<br>------- --- ------ ----- --- ---- ------- -- ---- --- --<br>------- ------,283940,283921,282659.86,282662,282676.52,283942.24,,0,At
screen,html.Screen,2_1_1_1_1,2022-05-03T19:59:58.101Z,,,,,,,,,,,,,,,,,54,,,,,,,,,,,,,,385.7600000000093,,response,,,,100,,,,,,,Space,keypress(Space),,,,,,,,-- the ---- --- ------ ----- ------- ---- -- --- ------- --<br>------- ---------- ------ -- ----- -- ----- -- ---- ------<br>--- ----- --- --- ------ -------- ----- --- ------ ----- --<br>----- ----- ---------- --- --- ------ ------ ---- -- ------<br>------- --- ------ ----- --- ---- ------- -- ---- --- --<br>------- ------,284345,284328,283939.8,283940,283942.24,284358.64,,1,the
screen,html.Screen,2_1_1_1_2,2022-05-03T19:59:58.486Z,,,,,,,,,,,,,,,,,54,,,,,,,,,,,,,,360.35999999998603,,response,,,,100,,,,,,,Space,keypress(Space),,,,,,,,-- --- time --- ------ ----- ------- ---- -- --- ------- --<br>------- ---------- ------ -- ----- -- ----- -- ---- ------<br>--- ----- --- --- ------ -------- ----- --- ------ ----- --<br>----- ----- ---------- --- --- ------ ------ ---- -- ------<br>------- --- ------ ----- --- ---- ------- -- ---- --- --<br>------- ------,284731,284719,284345.94,284346,284358.64,284741.72,,2,time
screen,html.Screen,2_1_1_1_3,2022-05-03T19:59:58.858Z,,,,,,,,,,,,,,,,,54,,,,,,,,,,,,,,351.28000000002794,,response,,,,100,,,,,,,Space,keypress(Space),,,,,,,,-- --- ---- the ------ ----- ------- ---- -- --- ------- --<br>------- ---------- ------ -- ----- -- ----- -- ---- ------<br>--- ----- --- --- ------ -------- ----- --- ------ ----- --<br>----- ----- ---------- --- --- ------ ------ ---- -- ------<br>------- --- ------ ----- --- ---- ------- -- ---- --- --<br>------- ------,285103,285093,284731.32,284731,284741.72,285108.12,,3,the
screen,html.Screen,2_1_1_1_4,2022-05-03T19:59:59.276Z,,,,,,,,,,,,,,,,,54,,,,,,,,,,,,,,406.88000000000466,,response,,,,100,,,,,,,Space,keypress(Space),,,,,,,,-- --- ---- --- French ----- ------- ---- -- --- ------- --<br>------- ---------- ------ -- ----- -- ----- -- ---- ------<br>--- ----- --- --- ------ -------- ----- --- ------ ----- --<br>----- ----- ---------- --- --- ------ ------ ---- -- ------<br>------- --- ------ ----- --- ---- ------- -- ---- --- --<br>------- ------,285521,285515,285103.08,285103,285108.12,285524.52,,4,French
screen,html.Screen,2_1_1_1_5,2022-05-03T19:59:59.691Z,,,,,,,,,,,,,,,,,54,,,,,,,,,,,,,,397.4799999999814,,response,,,,100,,,,,,,Space,keypress(Space),,,,,,,,-- --- ---- --- ------ crown ------- ---- -- --- ------- --<br>------- ---------- ------ -- ----- -- ----- -- ---- ------<br>--- ----- --- --- ------ -------- ----- --- ------ ----- --<br>----- ----- ---------- --- --- ------ ------ ---- -- ------<br>------- --- ------ ----- --- ---- ------- -- ---- --- --<br>------- ------,285937,285922,285521.52,285521,285524.52,285940.96,,5,crown
screen,html.Screen,2_1_1_1_6,2022-05-03T20:00:00.124Z,,,,,,,,,,,,,,,,,54,,,,,,,,,,,,,,418.03999999997905,,response,,,,100,,,,,,,Space,keypress(Space),,,,,,,,-- --- ---- --- ------ ----- secured ---- -- --- ------- --<br>------- ---------- ------ -- ----- -- ----- -- ---- ------<br>--- ----- --- --- ------ -------- ----- --- ------ ----- --<br>----- ----- ---------- --- --- ------ ------ ---- -- ------<br>------- --- ------ ----- --- ---- ------- -- ---- --- --<br>------- ------,286369,286359,285937.38,285937,285940.96,286373.96,,6,secured
screen,html.Screen,2_1_1_1_7,2022-05-03T20:00:00.536Z,,,,,,,,,,,,,,,,,54,,,,,,,,,,,,,,391.03999999997905,,response,,,,100,,,,,,,Space,keypress(Space),,,,,,,,-- --- ---- --- ------ ----- ------- much -- --- ------- --<br>------- ---------- ------ -- ----- -- ----- -- ---- ------<br>--- ----- --- --- ------ -------- ----- --- ------ ----- --<br>----- ----- ---------- --- --- ------ ------ ---- -- ------<br>------- --- ------ ----- --- ---- ------- -- ---- --- --<br>------- ------,286781,286765,286368.98,286369,286373.96,286790.42,,7,much
screen,html.Screen,2_1_1_1_8,2022-05-03T20:00:00.921Z,,,,,,,,,,,,,,,,,54,,,,,,,,,,,,,,365.5800000000163,,response,,,,100,,,,,,,Space,keypress(Space),,,,,,,,-- --- ---- --- ------ ----- ------- ---- of --- ------- --<br>------- ---------- ------ -- ----- -- ----- -- ---- ------<br>--- ----- --- --- ------ -------- ----- --- ------ ----- --<br>----- ----- ---------- --- --- ------ ------ ---- -- ------<br>------- --- ------ ----- --- ---- ------- -- ---- --- --<br>------- ------,287166,287156,286781.22,286781,286790.42,287173.36,,8,of
screen,html.Screen,2_1_1_1_9,2022-05-03T20:00:01.328Z,,,,,,,,,,,,,,,,,54,,,,,,,,,,,,,,389.64000000001397,,response,,,,100,,,,,,,Space,keypress(Space),,,,,,,,-- --- ---- --- ------ ----- ------- ---- -- its ------- --<br>------- ---------- ------ -- ----- -- ----- -- ---- ------<br>--- ----- --- --- ------ -------- ----- --- ------ ----- --<br>----- ----- ---------- --- --- ------ ------ ---- -- ------<br>------- --- ------ ----- --- ---- ------- -- ---- --- --<br>------- ------,287574,287563,287166.34,287166,287173.36,287589.82,,9,its
screen,html.Screen,2_1_1_1_10,2022-05-03T20:00:01.764Z,,,,,,,,,,,,,,,,,54,,,,,,,,,,,,,,410.179999999993,,response,,,,100,,,,,,,Space,keypress(Space),,,,,,,,-- --- ---- --- ------ ----- ------- ---- -- --- revenue --<br>------- ---------- ------ -- ----- -- ----- -- ---- ------<br>--- ----- --- --- ------ -------- ----- --- ------ ----- --<br>----- ----- ---------- --- --- ------ ------ ---- -- ------<br>------- --- ------ ----- --- ---- ------- -- ---- --- --<br>------- ------,288009,288000,287573.72,287574,287589.82,288022.92,,10,revenue
screen,html.Screen,2_1_1_1_11,2022-05-03T20:00:02.209Z,,,,,,,,,,,,,,,,,54,,,,,,,,,,,,,,414.0800000000163,,response,,,,100,,,,,,,Space,keypress(Space),,,,,,,,-- --- ---- --- ------ ----- ------- ---- -- --- ------- by<br>------- ---------- ------ -- ----- -- ----- -- ---- ------<br>--- ----- --- --- ------ -------- ----- --- ------ ----- --<br>----- ----- ---------- --- --- ------ ------ ---- -- ------<br>------- --- ------ ----- --- ---- ------- -- ---- --- --<br>------- ------,288454,288437,288009.62,288010,288022.92,288455.9,,11,by
screen,html.Screen,2_1_1_1_12,2022-05-03T20:00:02.668Z,,,,,,,,,,,,,,,,,54,,,,,,,,,,,,,,450.0999999999767,,response,,,,100,,,,,,,Space,keypress(Space),,,,,,,,-- --- ---- --- ------ ----- ------- ---- -- --- ------- --<br>issuing ---------- ------ -- ----- -- ----- -- ---- ------<br>--- ----- --- --- ------ -------- ----- --- ------ ----- --<br>----- ----- ---------- --- --- ------ ------ ---- -- ------<br>------- --- ------ ----- --- ---- ------- -- ---- --- --<br>------- ------,288913,288906,288454.4,288454,288455.9,288922.32,,12,issuing
screen,html.Screen,2_1_1_1_13,2022-05-03T20:00:03.178Z,,,,,,,,,,,,,,,,,54,,,,,,,,,,,,,,483.679999999993,,response,,,,100,,,,,,,Space,keypress(Space),,,,,,,,-- --- ---- --- ------ ----- ------- ---- -- --- ------- --<br>------- government ------ -- ----- -- ----- -- ---- ------<br>--- ----- --- --- ------ -------- ----- --- ------ ----- --<br>----- ----- ---------- --- --- ------ ------ ---- -- ------<br>------- --- ------ ----- --- ---- ------- -- ---- --- --<br>------- ------,289424,289406,288913.24,288913,288922.32,289438.58,,13,government
screen,html.Screen,2_1_1_1_14,2022-05-03T20:00:03.782Z,,,,,,,,,,,,,,,,,54,,,,,,,,,,,,,,577.4199999999837,,response,,,,100,,,,,,,Space,keypress(Space),,,,,,,,-- --- ---- --- ------ ----- ------- ---- -- --- ------- --<br>------- ---------- bonds. -- ----- -- ----- -- ---- ------<br>--- ----- --- --- ------ -------- ----- --- ------ ----- --<br>----- ----- ---------- --- --- ------ ------ ---- -- ------<br>------- --- ------ ----- --- ---- ------- -- ---- --- --<br>------- ------,290027,290016,289424.26,289424,289438.58,290038.14,,14,bonds.
screen,html.Screen,2_1_1_1_15,2022-05-03T20:00:04.236Z,,,,,,,,,,,,,,,,,54,,,,,,,,,,,,,,429.85999999998603,,response,,,,100,,,,,,,Space,keypress(Space),,,,,,,,-- --- ---- --- ------ ----- ------- ---- -- --- ------- --<br>------- ---------- ------ In ----- -- ----- -- ---- ------<br>--- ----- --- --- ------ -------- ----- --- ------ ----- --<br>----- ----- ---------- --- --- ------ ------ ---- -- ------<br>------- --- ------ ----- --- ---- ------- -- ---- --- --<br>------- ------,290481,290468,290027.78,290027,290038.14,290487.86,,15,In
screen,html.Screen,2_1_1_1_16,2022-05-03T20:00:04.796Z,,,,,,,,,,,,,,,,,54,,,,,,,,,,,,,,543.140000000014,,response,,,,100,,,,,,,Space,keypress(Space),,,,,,,,"-- --- ---- --- ------ ----- ------- ---- -- --- ------- --<br>------- ---------- ------ -- 1727, -- ----- -- ---- ------<br>--- ----- --- --- ------ -------- ----- --- ------ ----- --<br>----- ----- ---------- --- --- ------ ------ ---- -- ------<br>------- --- ------ ----- --- ---- ------- -- ---- --- --<br>------- ------",291041,291031,290481.06,290481,290487.86,291054.1,,16,"1727,"
screen,html.Screen,2_1_1_1_17,2022-05-03T20:00:05.229Z,,,,,,,,,,,,,,,,,54,,,,,,,,,,,,,,398.9000000000233,,response,,,,100,,,,,,,Space,keypress(Space),,,,,,,,-- --- ---- --- ------ ----- ------- ---- -- --- ------- --<br>------- ---------- ------ -- ----- in ----- -- ---- ------<br>--- ----- --- --- ------ -------- ----- --- ------ ----- --<br>----- ----- ---------- --- --- ------ ------ ---- -- ------<br>------- --- ------ ----- --- ---- ------- -- ---- --- --<br>------- ------,291474,291453,291042.08,291042,291054.1,291487.14,,17,in
screen,html.Screen,2_1_1_1_18,2022-05-03T20:00:05.699Z,,,,,,,,,,,,,,,,,54,,,,,,,,,,,,,,449.85999999998603,,response,,,,100,,,,,,,Space,keypress(Space),,,,,,,,-- --- ---- --- ------ ----- ------- ---- -- --- ------- --<br>------- ---------- ------ -- ----- -- order -- ---- ------<br>--- ----- --- --- ------ -------- ----- --- ------ ----- --<br>----- ----- ---------- --- --- ------ ------ ---- -- ------<br>------- --- ------ ----- --- ---- ------- -- ---- --- --<br>------- ------,291944,291937,291474.44,291475,291487.14,291953.58,,18,order
screen,html.Screen,2_1_1_1_19,2022-05-03T20:00:06.159Z,,,,,,,,,,,,,,,,,54,,,,,,,,,,,,,,436.4199999999837,,response,,,,100,,,,,,,Space,keypress(Space),,,,,,,,-- --- ---- --- ------ ----- ------- ---- -- --- ------- --<br>------- ---------- ------ -- ----- -- ----- to ---- ------<br>--- ----- --- --- ------ -------- ----- --- ------ ----- --<br>----- ----- ---------- --- --- ------ ------ ---- -- ------<br>------- --- ------ ----- --- ---- ------- -- ---- --- --<br>------- ------,292405,292390,291944.2,291944,291953.58,292419.94,,19,to
screen,html.Screen,2_1_1_1_20,2022-05-03T20:00:06.571Z,,,,,,,,,,,,,,,,,54,,,,,,,,,,,,,,376.0599999999977,,response,,,,100,,,,,,,Space,keypress(Space),,,,,,,,-- --- ---- --- ------ ----- ------- ---- -- --- ------- --<br>------- ---------- ------ -- ----- -- ----- -- save ------<br>--- ----- --- --- ------ -------- ----- --- ------ ----- --<br>----- ----- ---------- --- --- ------ ------ ---- -- ------<br>------- --- ------ ----- --- ---- ------- -- ---- --- --<br>------- ------,292816,292796,292405.34,292406,292419.94,292819.62,,20,save
screen,html.Screen,2_1_1_1_21,2022-05-03T20:00:07.108Z,,,,,,,,,,,,,,,,,54,,,,,,,,,,,,,,523.3800000000047,,response,,,,100,,,,,,,Space,keypress(Space),,,,,,,,"-- --- ---- --- ------ ----- ------- ---- -- --- ------- --<br>------- ---------- ------ -- ----- -- ----- -- ---- money,<br>--- ----- --- --- ------ -------- ----- --- ------ ----- --<br>----- ----- ---------- --- --- ------ ------ ---- -- ------<br>------- --- ------ ----- --- ---- ------- -- ---- --- --<br>------- ------",293354,293343,292816.34,292816,292819.62,293369.28,,21,"money,"
screen,html.Screen,2_1_1_1_22,2022-05-03T20:00:07.597Z,,,,,,,,,,,,,,,,,54,,,,,,,,,,,,,,458.71999999997206,,response,,,,100,,,,,,,Space,keypress(Space),,,,,,,,-- --- ---- --- ------ ----- ------- ---- -- --- ------- --<br>------- ---------- ------ -- ----- -- ----- -- ---- ------<br>the ----- --- --- ------ -------- ----- --- ------ ----- --<br>----- ----- ---------- --- --- ------ ------ ---- -- ------<br>------- --- ------ ----- --- ---- ------- -- ---- --- --<br>------- ------,293842,293828,293354.02,293354,293369.28,293852.28,,22,the
screen,html.Screen,2_1_1_1_23,2022-05-03T20:00:08.313Z,,,,,,,,,,,,,,,,,54,,,,,,,,,,,,,,694.7199999999721,,response,,,,100,,,,,,,Space,keypress(Space),,,,,,,,-- --- ---- --- ------ ----- ------- ---- -- --- ------- --<br>------- ---------- ------ -- ----- -- ----- -- ---- ------<br>--- state --- --- ------ -------- ----- --- ------ ----- --<br>----- ----- ---------- --- --- ------ ------ ---- -- ------<br>------- --- ------ ----- --- ---- ------- -- ---- --- --<br>------- ------,294558,294547,293841.78,293842,293852.28,294568.48,,23,state
screen,html.Screen,2_1_1_1_24,2022-05-03T20:00:08.727Z,,,,,,,,,,,,,,,,,54,,,,,,,,,,,,,,384.5200000000186,,response,,,,100,,,,,,,Space,keypress(Space),,,,,,,,-- --- ---- --- ------ ----- ------- ---- -- --- ------- --<br>------- ---------- ------ -- ----- -- ----- -- ---- ------<br>--- ----- cut --- ------ -------- ----- --- ------ ----- --<br>----- ----- ---------- --- --- ------ ------ ---- -- ------<br>------- --- ------ ----- --- ---- ------- -- ---- --- --<br>------- ------,294972,294953,294558.9,294559,294568.48,294984.84,,24,cut
screen,html.Screen,2_1_1_1_25,2022-05-03T20:00:09.174Z,,,,,,,,,,,,,,,,,54,,,,,,,,,,,,,,422.1599999999744,,response,,,,100,,,,,,,Space,keypress(Space),,,,,,,,-- --- ---- --- ------ ----- ------- ---- -- --- ------- --<br>------- ---------- ------ -- ----- -- ----- -- ---- ------<br>--- ----- --- the ------ -------- ----- --- ------ ----- --<br>----- ----- ---------- --- --- ------ ------ ---- -- ------<br>------- --- ------ ----- --- ---- ------- -- ---- --- --<br>------- ------,295419,295407,294971.5,294972,294984.84,295434.54,,25,the
screen,html.Screen,2_1_1_1_26,2022-05-03T20:00:09.647Z,,,,,,,,,,,,,,,,,54,,,,,,,,,,,,,,455.46000000002095,,response,,,,100,,,,,,,Space,keypress(Space),,,,,,,,-- --- ---- --- ------ ----- ------- ---- -- --- ------- --<br>------- ---------- ------ -- ----- -- ----- -- ---- ------<br>--- ----- --- --- bonds' -------- ----- --- ------ ----- --<br>----- ----- ---------- --- --- ------ ------ ---- -- ------<br>------- --- ------ ----- --- ---- ------- -- ---- --- --<br>------- ------,295892,295890,295420.02,295420,295434.54,295900.88,,26,bonds'
screen,html.Screen,2_1_1_1_27,2022-05-03T20:00:10.186Z,,,,,,,,,,,,,,,,,54,,,,,,,,,,,,,,520.1199999999953,,response,,,,100,,,,,,,Space,keypress(Space),,,,,,,,-- --- ---- --- ------ ----- ------- ---- -- --- ------- --<br>------- ---------- ------ -- ----- -- ----- -- ---- ------<br>--- ----- --- --- ------ interest ----- --- ------ ----- --<br>----- ----- ---------- --- --- ------ ------ ---- -- ------<br>------- --- ------ ----- --- ---- ------- -- ---- --- --<br>------- ------,296431,296421,295892,295892,295900.88,296433.84,,27,interest
screen,html.Screen,2_1_1_1_28,2022-05-03T20:00:10.655Z,,,,,,,,,,,,,,,,,54,,,,,,,,,,,,,,456.1599999999744,,response,,,,100,,,,,,,Space,keypress(Space),,,,,,,,-- --- ---- --- ------ ----- ------- ---- -- --- ------- --<br>------- ---------- ------ -- ----- -- ----- -- ---- ------<br>--- ----- --- --- ------ -------- rate. --- ------ ----- --<br>----- ----- ---------- --- --- ------ ------ ---- -- ------<br>------- --- ------ ----- --- ---- ------- -- ---- --- --<br>------- ------,296900,296890,296431.04,296431,296433.84,296916.86,,28,rate.
screen,html.Screen,2_1_1_1_29,2022-05-03T20:00:11.100Z,,,,,,,,,,,,,,,,,54,,,,,,,,,,,,,,412.14000000001397,,response,,,,100,,,,,,,Space,keypress(Space),,,,,,,,-- --- ---- --- ------ ----- ------- ---- -- --- ------- --<br>------- ---------- ------ -- ----- -- ----- -- ---- ------<br>--- ----- --- --- ------ -------- ----- The ------ ----- --<br>----- ----- ---------- --- --- ------ ------ ---- -- ------<br>------- --- ------ ----- --- ---- ------- -- ---- --- --<br>------- ------,297345,297329,296900.18,296900,296916.86,297349.9,,29,The
screen,html.Screen,2_1_1_1_30,2022-05-03T20:00:11.734Z,,,,,,,,,,,,,,,,,54,,,,,,,,,,,,,,618.0999999999767,,response,,,,100,,,,,,,Space,keypress(Space),,,,,,,,-- --- ---- --- ------ ----- ------- ---- -- --- ------- --<br>------- ---------- ------ -- ----- -- ----- -- ---- ------<br>--- ----- --- --- ------ -------- ----- --- market ----- --<br>----- ----- ---------- --- --- ------ ------ ---- -- ------<br>------- --- ------ ----- --- ---- ------- -- ---- --- --<br>------- ------,297978,297968,297345.18,297345,297349.9,297982.8,,30,market
screen,html.Screen,2_1_1_1_31,2022-05-03T20:00:12.320Z,,,,,,,,,,,,,,,,,54,,,,,,,,,,,,,,563.2000000000116,,response,,,,100,,,,,,,Space,keypress(Space),,,,,,,,-- --- ---- --- ------ ----- ------- ---- -- --- ------- --<br>------- ---------- ------ -- ----- -- ----- -- ---- ------<br>--- ----- --- --- ------ -------- ----- --- ------ value --<br>----- ----- ---------- --- --- ------ ------ ---- -- ------<br>------- --- ------ ----- --- ---- ------- -- ---- --- --<br>------- ------,298564,298546,297978.98,297979,297982.8,298565.74,,31,value
screen,html.Screen,2_1_1_1_32,2022-05-03T20:00:12.794Z,,,,,,,,,,,,,,,,,54,,,,,,,,,,,,,,465.2600000000093,,response,,,,100,,,,,,,Space,keypress(Space),,,,,,,,-- --- ---- --- ------ ----- ------- ---- -- --- ------- --<br>------- ---------- ------ -- ----- -- ----- -- ---- ------<br>--- ----- --- --- ------ -------- ----- --- ------ ----- of<br>----- ----- ---------- --- --- ------ ------ ---- -- ------<br>------- --- ------ ----- --- ---- ------- -- ---- --- --<br>------- ------,299038,299031,298564.62,298564,298565.74,299048.76,,32,of
screen,html.Screen,2_1_1_1_33,2022-05-03T20:00:13.574Z,,,,,,,,,,,,,,,,,54,,,,,,,,,,,,,,763.2399999999907,,response,,,,100,,,,,,,Space,keypress(Space),,,,,,,,-- --- ---- --- ------ ----- ------- ---- -- --- ------- --<br>------- ---------- ------ -- ----- -- ----- -- ---- ------<br>--- ----- --- --- ------ -------- ----- --- ------ ----- --<br>these ----- ---------- --- --- ------ ------ ---- -- ------<br>------- --- ------ ----- --- ---- ------- -- ---- --- --<br>------- ------,299818,299812,299038.56,299038,299048.76,299831.56,,33,these
screen,html.Screen,2_1_1_1_34,2022-05-03T20:00:14.086Z,,,,,,,,,,,,,,,,,54,,,,,,,,,,,,,,480.4400000000023,,response,,,,100,,,,,,,Space,keypress(Space),,,,,,,,-- --- ---- --- ------ ----- ------- ---- -- --- ------- --<br>------- ---------- ------ -- ----- -- ----- -- ---- ------<br>--- ----- --- --- ------ -------- ----- --- ------ ----- --<br>----- bonds ---------- --- --- ------ ------ ---- -- ------<br>------- --- ------ ----- --- ---- ------- -- ---- --- --<br>------- ------,300331,300312,299818.86,299818,299831.56,300347.88,,34,bonds
screen,html.Screen,2_1_1_1_35,2022-05-03T20:00:14.599Z,,,,,,,,,,,,,,,,,54,,,,,,,,,,,,,,481.11999999999534,,response,,,,100,,,,,,,Space,keypress(Space),,,,,,,,"-- --- ---- --- ------ ----- ------- ---- -- --- ------- --<br>------- ---------- ------ -- ----- -- ----- -- ---- ------<br>--- ----- --- --- ------ -------- ----- --- ------ ----- --<br>----- ----- plummeted, --- --- ------ ------ ---- -- ------<br>------- --- ------ ----- --- ---- ------- -- ---- --- --<br>------- ------",300844,300829,300331.52,300331,300347.88,300847.5,,35,"plummeted,"
screen,html.Screen,2_1_1_1_36,2022-05-03T20:00:15.138Z,,,,,,,,,,,,,,,,,54,,,,,,,,,,,,,,526.5,,response,,,,100,,,,,,,Space,keypress(Space),,,,,,,,-- --- ---- --- ------ ----- ------- ---- -- --- ------- --<br>------- ---------- ------ -- ----- -- ----- -- ---- ------<br>--- ----- --- --- ------ -------- ----- --- ------ ----- --<br>----- ----- ---------- and --- ------ ------ ---- -- ------<br>------- --- ------ ----- --- ---- ------- -- ---- --- --<br>------- ------,301384,301374,300844.26,300844,300847.5,301397.16,,36,and
screen,html.Screen,2_1_1_1_37,2022-05-03T20:00:15.640Z,,,,,,,,,,,,,,,,,54,,,,,,,,,,,,,,476.8400000000256,,response,,,,100,,,,,,,Space,keypress(Space),,,,,,,,-- --- ---- --- ------ ----- ------- ---- -- --- ------- --<br>------- ---------- ------ -- ----- -- ----- -- ---- ------<br>--- ----- --- --- ------ -------- ----- --- ------ ----- --<br>----- ----- ---------- --- the ------ ------ ---- -- ------<br>------- --- ------ ----- --- ---- ------- -- ---- --- --<br>------- ------,301885,301874,301383.94,301384,301397.16,301896.9,,37,the
screen,html.Screen,2_1_1_1_38,2022-05-03T20:00:16.165Z,,,,,,,,,,,,,,,,,54,,,,,,,,,,,,,,510.0999999999767,,response,,,,100,,,,,,,Space,keypress(Space),,,,,,,,-- --- ---- --- ------ ----- ------- ---- -- --- ------- --<br>------- ---------- ------ -- ----- -- ----- -- ---- ------<br>--- ----- --- --- ------ -------- ----- --- ------ ----- --<br>----- ----- ---------- --- --- market ------ ---- -- ------<br>------- --- ------ ----- --- ---- ------- -- ---- --- --<br>------- ------,302411,302407,301885.22,301885,301896.9,302413.14,,38,market
screen,html.Screen,2_1_1_1_39,2022-05-03T20:00:16.641Z,,,,,,,,,,,,,,,,,54,,,,,,,,,,,,,,460.85999999998603,,response,,,,100,,,,,,,Space,keypress(Space),,,,,,,,-- --- ---- --- ------ ----- ------- ---- -- --- ------- --<br>------- ---------- ------ -- ----- -- ----- -- ---- ------<br>--- ----- --- --- ------ -------- ----- --- ------ ----- --<br>----- ----- ---------- --- --- ------ became ---- -- ------<br>------- --- ------ ----- --- ---- ------- -- ---- --- --<br>------- ------,302885,302874,302411,302411,302413.14,302896.22,,39,became
screen,html.Screen,2_1_1_1_40,2022-05-03T20:00:17.037Z,,,,,,,,,,,,,,,,,54,,,,,,,,,,,,,,369.78000000002794,,response,,,,100,,,,,,,Space,keypress(Space),,,,,,,,-- --- ---- --- ------ ----- ------- ---- -- --- ------- --<br>------- ---------- ------ -- ----- -- ----- -- ---- ------<br>--- ----- --- --- ------ -------- ----- --- ------ ----- --<br>----- ----- ---------- --- --- ------ ------ wary -- ------<br>------- --- ------ ----- --- ---- ------- -- ---- --- --<br>------- ------,303281,303266,302885.62,302886,302896.22,303295.84,,40,wary
screen,html.Screen,2_1_1_1_41,2022-05-03T20:00:17.442Z,,,,,,,,,,,,,,,,,54,,,,,,,,,,,,,,375.1599999999744,,response,,,,100,,,,,,,Space,keypress(Space),,,,,,,,-- --- ---- --- ------ ----- ------- ---- -- --- ------- --<br>------- ---------- ------ -- ----- -- ----- -- ---- ------<br>--- ----- --- --- ------ -------- ----- --- ------ ----- --<br>----- ----- ---------- --- --- ------ ------ ---- of ------<br>------- --- ------ ----- --- ---- ------- -- ---- --- --<br>------- ------,303686,303671,303281.72,303281,303295.84,303695.64,,41,of
screen,html.Screen,2_1_1_1_42,2022-05-03T20:00:17.887Z,,,,,,,,,,,,,,,,,54,,,,,,,,,,,,,,428.35999999998603,,response,,,,100,,,,,,,Space,keypress(Space),,,,,,,,-- --- ---- --- ------ ----- ------- ---- -- --- ------- --<br>------- ---------- ------ -- ----- -- ----- -- ---- ------<br>--- ----- --- --- ------ -------- ----- --- ------ ----- --<br>----- ----- ---------- --- --- ------ ------ ---- -- French<br>------- --- ------ ----- --- ---- ------- -- ---- --- --<br>------- ------,304132,304124,303687,303687,303695.64,304145.34,,42,French
screen,html.Screen,2_1_1_1_43,2022-05-03T20:00:18.367Z,,,,,,,,,,,,,,,,,54,,,,,,,,,,,,,,447.6599999999744,,response,,,,100,,,,,,,Space,keypress(Space),,,,,,,,-- --- ---- --- ------ ----- ------- ---- -- --- ------- --<br>------- ---------- ------ -- ----- -- ----- -- ---- ------<br>--- ----- --- --- ------ -------- ----- --- ------ ----- --<br>----- ----- ---------- --- --- ------ ------ ---- -- ------<br>credit. --- ------ ----- --- ---- ------- -- ---- --- --<br>------- ------,304612,304593,304132.38,304132,304145.34,304628.36,,43,credit.
screen,html.Screen,2_1_1_1_44,2022-05-03T20:00:18.711Z,,,,,,,,,,,,,,,,,54,,,,,,,,,,,,,,309.64000000001397,,response,,,,100,,,,,,,Space,keypress(Space),,,,,,,,-- --- ---- --- ------ ----- ------- ---- -- --- ------- --<br>------- ---------- ------ -- ----- -- ----- -- ---- ------<br>--- ----- --- --- ------ -------- ----- --- ------ ----- --<br>----- ----- ---------- --- --- ------ ------ ---- -- ------<br>------- The ------ ----- --- ---- ------- -- ---- --- --<br>------- ------,304956,304938,304612.52,304613,304628.36,304961.52,,44,The
screen,html.Screen,2_1_1_1_45,2022-05-03T20:00:19.174Z,,,,,,,,,,,,,,,,,54,,,,,,,,,,,,,,444.4799999999814,,response,,,,100,,,,,,,Space,keypress(Space),,,,,,,,-- --- ---- --- ------ ----- ------- ---- -- --- ------- --<br>------- ---------- ------ -- ----- -- ----- -- ---- ------<br>--- ----- --- --- ------ -------- ----- --- ------ ----- --<br>----- ----- ---------- --- --- ------ ------ ---- -- ------<br>------- --- French ----- --- ---- ------- -- ---- --- --<br>------- ------,305419,305406,304956.66,304957,304961.52,305427.72,,45,French
screen,html.Screen,2_1_1_1_46,2022-05-03T20:00:19.601Z,,,,,,,,,,,,,,,,,54,,,,,,,,,,,,,,415.28000000002794,,response,,,,100,,,,,,,Space,keypress(Space),,,,,,,,-- --- ---- --- ------ ----- ------- ---- -- --- ------- --<br>------- ---------- ------ -- ----- -- ----- -- ---- ------<br>--- ----- --- --- ------ -------- ----- --- ------ ----- --<br>----- ----- ---------- --- --- ------ ------ ---- -- ------<br>------- --- ------ state --- ---- ------- -- ---- --- --<br>------- ------,305846,305843,305419.76,305420,305427.72,305860.82,,46,state
screen,html.Screen,2_1_1_1_47,2022-05-03T20:00:20.288Z,,,,,,,,,,,,,,,,,54,,,,,,,,,,,,,,670.179999999993,,response,,,,100,,,,,,,Space,keypress(Space),,,,,,,,-- --- ---- --- ------ ----- ------- ---- -- --- ------- --<br>------- ---------- ------ -- ----- -- ----- -- ---- ------<br>--- ----- --- --- ------ -------- ----- --- ------ ----- --<br>----- ----- ---------- --- --- ------ ------ ---- -- ------<br>------- --- ------ ----- was ---- ------- -- ---- --- --<br>------- ------,306533,306531,305846.28,305846,305860.82,306543.64,,47,was
screen,html.Screen,2_1_1_1_48,2022-05-03T20:00:20.715Z,,,,,,,,,,,,,,,,,54,,,,,,,,,,,,,,410.35999999998603,,response,,,,100,,,,,,,Space,keypress(Space),,,,,,,,-- --- ---- --- ------ ----- ------- ---- -- --- ------- --<br>------- ---------- ------ -- ----- -- ----- -- ---- ------<br>--- ----- --- --- ------ -------- ----- --- ------ ----- --<br>----- ----- ---------- --- --- ------ ------ ---- -- ------<br>------- --- ------ ----- --- left ------- -- ---- --- --<br>------- ------,306960,306954,306533.04,306533,306543.64,306976.76,,48,left
screen,html.Screen,2_1_1_1_49,2022-05-03T20:00:21.196Z,,,,,,,,,,,,,,,,,54,,,,,,,,,,,,,,444.2399999999907,,response,,,,100,,,,,,,Space,keypress(Space),,,,,,,,-- --- ---- --- ------ ----- ------- ---- -- --- ------- --<br>------- ---------- ------ -- ----- -- ----- -- ---- ------<br>--- ----- --- --- ------ -------- ----- --- ------ ----- --<br>----- ----- ---------- --- --- ------ ------ ---- -- ------<br>------- --- ------ ----- --- ---- without -- ---- --- --<br>------- ------,307441,307421,306960.52,306960,306976.76,307443.12,,49,without
screen,html.Screen,2_1_1_1_50,2022-05-03T20:00:21.626Z,,,,,,,,,,,,,,,,,54,,,,,,,,,,,,,,415.88000000000466,,response,,,,100,,,,,,,Space,keypress(Space),,,,,,,,-- --- ---- --- ------ ----- ------- ---- -- --- ------- --<br>------- ---------- ------ -- ----- -- ----- -- ---- ------<br>--- ----- --- --- ------ -------- ----- --- ------ ----- --<br>----- ----- ---------- --- --- ------ ------ ---- -- ------<br>------- --- ------ ----- --- ---- ------- an ---- --- --<br>------- ------,307872,307859,307441.5,307441,307443.12,307876.16,,50,an
screen,html.Screen,2_1_1_1_51,2022-05-03T20:00:22.086Z,,,,,,,,,,,,,,,,,54,,,,,,,,,,,,,,435.8400000000256,,response,,,,100,,,,,,,Space,keypress(Space),,,,,,,,-- --- ---- --- ------ ----- ------- ---- -- --- ------- --<br>------- ---------- ------ -- ----- -- ----- -- ---- ------<br>--- ----- --- --- ------ -------- ----- --- ------ ----- --<br>----- ----- ---------- --- --- ------ ------ ---- -- ------<br>------- --- ------ ----- --- ---- ------- -- easy --- --<br>------- ------,308332,308312,307871.9,307872,307876.16,308342.56,,51,easy
screen,html.Screen,2_1_1_1_52,2022-05-03T20:00:22.513Z,,,,,,,,,,,,,,,,,54,,,,,,,,,,,,,,407.4400000000023,,response,,,,100,,,,,,,Space,keypress(Space),,,,,,,,-- --- ---- --- ------ ----- ------- ---- -- --- ------- --<br>------- ---------- ------ -- ----- -- ----- -- ---- ------<br>--- ----- --- --- ------ -------- ----- --- ------ ----- --<br>----- ----- ---------- --- --- ------ ------ ---- -- ------<br>------- --- ------ ----- --- ---- ------- -- ---- way --<br>------- ------,308759,308750,308331.68,308332,308342.56,308758.84,,52,way
screen,html.Screen,2_1_1_1_53,2022-05-03T20:00:22.954Z,,,,,,,,,,,,,,,,,54,,,,,,,,,,,,,,428.1599999999744,,response,,,,100,,,,,,,Space,keypress(Space),,,,,,,,-- --- ---- --- ------ ----- ------- ---- -- --- ------- --<br>------- ---------- ------ -- ----- -- ----- -- ---- ------<br>--- ----- --- --- ------ -------- ----- --- ------ ----- --<br>----- ----- ---------- --- --- ------ ------ ---- -- ------<br>------- --- ------ ----- --- ---- ------- -- ---- --- of<br>------- ------,309199,309187,308758.38,308759,308758.84,309208.62,,53,of
screen,html.Screen,2_1_1_1_54,2022-05-03T20:00:23.438Z,,,,,,,,,,,,,,,,,54,,,,,,,,,,,,,,462.38000000000466,,response,,,,100,,,,,,,Space,keypress(Space),,,,,,,,-- --- ---- --- ------ ----- ------- ---- -- --- ------- --<br>------- ---------- ------ -- ----- -- ----- -- ---- ------<br>--- ----- --- --- ------ -------- ----- --- ------ ----- --<br>----- ----- ---------- --- --- ------ ------ ---- -- ------<br>------- --- ------ ----- --- ---- ------- -- ---- --- --<br>raising ------,309683,309671,309199.28,309200,309208.62,309691.58,,54,raising
screen,html.Screen,2_1_1_1_55,2022-05-03T20:00:23.918Z,,,,,,,,,,,,,,,,,54,,,,,,,,,,,,,,464.4199999999837,,response,,,,100,,,,,,,Space,keypress(Space),,,,,,,,-- --- ---- --- ------ ----- ------- ---- -- --- ------- --<br>------- ---------- ------ -- ----- -- ----- -- ---- ------<br>--- ----- --- --- ------ -------- ----- --- ------ ----- --<br>----- ----- ---------- --- --- ------ ------ ---- -- ------<br>------- --- ------ ----- --- ---- ------- -- ---- --- --<br>------- money.,310164,310156,309683.6,309683,309691.58,310174.58,,55,money.
Item 100,flow.Loop,2_1_1_1,2022-05-03T20:00:23.918Z,,,,,,,,,,,,,,,,,,,,,,,,,,,,,,,27479.47999999998,,completion,,,,,A,,,,,,,,,,,silence,,,,,310164,310156,282659.86,282662,282676.52,310174.58,,,
Question 1,html.Screen,2_1_1_2,2022-05-03T20:00:27.526Z,,,,,,,,,,,,,,,,,,,,,,,,,,,,true,TRUE,,3591.4199999999837,,response,,,,100,A,,,,,,TRUE,click #choice-1,,,,silence,,,,,313770,313766,310163.52,310164,310174.58,313772.14,,,
Question 2,html.Screen,2_1_1_3,2022-05-03T20:00:30.996Z,,,,,,,,,,,,,,,,,,,,,,,,,,,,true,FALSE,,3461.859999999986,,response,,,,100,A,,,,,,FALSE,click #choice-2,,,,silence,,,,,317241,317234,313770.42,313771,313772.14,317253.1,,,
Item 100,flow.Sequence,2_1_1,2022-05-03T20:00:30.997Z,,,,,,,,,,,,,,,,,,,,,,,,,,,,,,,44550.79999999999,,completion,,,,,,,,,,,,,,,,,,,,,317241,317234,272676.56,272677,272683.2,317253.1,,,
End of Practice,html.Page,2_1_2,2022-05-03T20:00:43.772Z,,,,,,,,,,,,,,,,,,,,,,,,,,,,,,,12762.900000000023,,form submission,,,,,,,,,,,,,,,,,,,,,330017,330016,317240.88,317241,317253.1,330027.86,,,
Practice,flow.Sequence,2_1,2022-05-03T20:00:43.772Z,,,,,,,,,,,,,,,,,,,,,,,,,,,,,,,100037.4,,completion,,,,,,,,,,,,,,,,,,,,,330017,330016,229972.6,229976,229978.6,330027.86,,,
Trap_instruction,html.Page,2_2_0,2022-05-03T20:00:47.702Z,,,,,,,,,,,,,,,,,,,,,,,,,,,,,,,3919.140000000014,,form submission,,,,,,,,,,,,,,,,,,,,,333947,333947,330014.7,330017,330027.86,333958.56,,,
trap_trial,html.Screen,2_2_1,2022-05-03T20:00:50.858Z,,,,,,,,,,,,,,,,,,,,,,,,,,,,true,1,,3103.4400000000023,,response,,,,,,,,,,,1,click #choice-1,,,,,,,,,337103,337062,333944.7,333947,333958.56,337106.44,,,
end of trap trial,html.Page,2_2_2,2022-05-03T20:00:52.549Z,,,,,,,,,,,,,,,,,,,,,,,,,,,,,,,1686.5599999999977,,form submission,,,,,,,,,,,,,,,,,,,,,338793,338793,337103.04,337104,337106.44,338805.3,,,
Trap 1,flow.Sequence,2_2,2022-05-03T20:00:52.549Z,,,,,,,,,,,,,,,,,,,,,,,,,,,,,,,8765.140000000014,,completion,,,,,,,,,,,,,,,,,,,,,338794,338793,330014.7,330017,330027.86,338805.3,,,
Standby,html.Page,2_3_0,2022-05-03T20:01:00.539Z,,,,,,,,,,,,,,,,,,,,,,,,,,,,,,,7994.640000000014,,timeout,,,,,,,,,,,,,,,,,,,,,346784,346783.28,338791.38,338794,338805.3,346799.94,,,
Holding screen,html.Screen,2_3_1_0_0,2022-05-03T20:01:07.535Z,,,,,,,,,,,,,,,,,,,,,,,,,,,,,,,6995.260000000009,,timeout,,,,,,,,,,,,,,,,,,,,,353780,353778.54,346783.28,346785,346799.94,353795.2,,,
screen,html.Screen,2_3_1_0_1_0,2022-05-03T20:01:08.388Z,,,,,,,,,,,,,,,,,12,,,,,,,,,,,,,,828.7999999999884,,response,,,,5,A,,,,,,Space,keypress(Space),,,,silence,,,,Some ------ ------ ------- ------ --- ------- -----------<br>-- ----- --- ---- -- --- ------ ---- - ---- -- ----------<br>-- ------ ---- --- ---- --- --- --- ----- -- -------- ---<br>------ ------- -------- --- ---- -- ------- ------------ --<br>------ -- ---- -- --- ---- -- -------- -- --- ------ ------,354633,354624,353778.54,353781,353795.2,354644.62,,0,Some
screen,html.Screen,2_3_1_0_1_1,2022-05-03T20:01:08.807Z,,,,,,,,,,,,,,,,,12,,,,,,,,,,,,,,401.38000000000466,,response,,,,5,A,,,,,,Space,keypress(Space),,,,silence,,,,---- months ------ ------- ------ --- ------- -----------<br>-- ----- --- ---- -- --- ------ ---- - ---- -- ----------<br>-- ------ ---- --- ---- --- --- --- ----- -- -------- ---<br>------ ------- -------- --- ---- -- ------- ------------ --<br>------ -- ---- -- --- ---- -- -------- -- --- ------ ------,355052,355046,354633.46,354633,354644.62,355061.04,,1,months
screen,html.Screen,2_3_1_0_1_2,2022-05-03T20:01:09.474Z,,,,,,,,,,,,,,,,,12,,,,,,,,,,,,,,642.960000000021,,response,,,,5,A,,,,,,Space,keypress(Space),,,,silence,,,,"---- ------ later, ------- ------ --- ------- -----------<br>-- ----- --- ---- -- --- ------ ---- - ---- -- ----------<br>-- ------ ---- --- ---- --- --- --- ----- -- -------- ---<br>------ ------- -------- --- ---- -- ------- ------------ --<br>------ -- ---- -- --- ---- -- -------- -- --- ------ ------",355719,355704,355052.56,355052,355061.04,355727.18,,2,"later,"
screen,html.Screen,2_3_1_0_1_3,2022-05-03T20:01:09.925Z,,,,,,,,,,,,,,,,,12,,,,,,,,,,,,,,428.820000000007,,response,,,,5,A,,,,,,Space,keypress(Space),,,,silence,,,,---- ------ ------ Michael ------ --- ------- -----------<br>-- ----- --- ---- -- --- ------ ---- - ---- -- ----------<br>-- ------ ---- --- ---- --- --- --- ----- -- -------- ---<br>------ ------- -------- --- ---- -- ------- ------------ --<br>------ -- ---- -- --- ---- -- -------- -- --- ------ ------,356169,356156,355719.18,355719,355727.18,356176.96,,3,Michael
screen,html.Screen,2_3_1_0_1_4,2022-05-03T20:01:10.370Z,,,,,,,,,,,,,,,,,12,,,,,,,,,,,,,,432.03999999997905,,response,,,,5,A,,,,,,Space,keypress(Space),,,,silence,,,,---- ------ ------ ------- Larson --- ------- -----------<br>-- ----- --- ---- -- --- ------ ---- - ---- -- ----------<br>-- ------ ---- --- ---- --- --- --- ----- -- -------- ---<br>------ ------- -------- --- ---- -- ------- ------------ --<br>------ -- ---- -- --- ---- -- -------- -- --- ------ ------,356615,356609,356170.08,356170,356176.96,356626.64,,4,Larson
screen,html.Screen,2_3_1_0_1_5,2022-05-03T20:01:10.806Z,,,,,,,,,,,,,,,,,12,,,,,,,,,,,,,,419.35999999998603,,response,,,,5,A,,,,,,Space,keypress(Space),,,,silence,,,,---- ------ ------ ------- ------ saw ------- -----------<br>-- ----- --- ---- -- --- ------ ---- - ---- -- ----------<br>-- ------ ---- --- ---- --- --- --- ----- -- -------- ---<br>------ ------- -------- --- ---- -- ------- ------------ --<br>------ -- ---- -- --- ---- -- -------- -- --- ------ ------,357051,357046,356614.88,356615,356626.64,357059.62,,5,saw
screen,html.Screen,2_3_1_0_1_6,2022-05-03T20:01:11.313Z,,,,,,,,,,,,,,,,,12,,,,,,,,,,,,,,486.38000000000466,,response,,,,5,A,,,,,,Space,keypress(Space),,,,silence,,,,---- ------ ------ ------- ------ --- another -----------<br>-- ----- --- ---- -- --- ------ ---- - ---- -- ----------<br>-- ------ ---- --- ---- --- --- --- ----- -- -------- ---<br>------ ------- -------- --- ---- -- ------- ------------ --<br>------ -- ---- -- --- ---- -- -------- -- --- ------ ------,357557,357546,357051.38,357051,357059.62,357559.36,,6,another
screen,html.Screen,2_3_1_0_1_7,2022-05-03T20:01:11.852Z,,,,,,,,,,,,,,,,,12,,,,,,,,,,,,,,533.640000000014,,response,,,,5,A,,,,,,Space,keypress(Space),,,,silence,,,,---- ------ ------ ------- ------ --- ------- opportunity<br>-- ----- --- ---- -- --- ------ ---- - ---- -- ----------<br>-- ------ ---- --- ---- --- --- --- ----- -- -------- ---<br>------ ------- -------- --- ---- -- ------- ------------ --<br>------ -- ---- -- --- ---- -- -------- -- --- ------ ------,358097,358093,357557.72,357558,357559.36,358108.92,,7,opportunity
screen,html.Screen,2_3_1_0_1_8,2022-05-03T20:01:12.339Z,,,,,,,,,,,,,,,,,12,,,,,,,,,,,,,,470.0800000000163,,response,,,,5,A,,,,,,Space,keypress(Space),,,,silence,,,,---- ------ ------ ------- ------ --- ------- -----------<br>to ----- --- ---- -- --- ------ ---- - ---- -- ----------<br>-- ------ ---- --- ---- --- --- --- ----- -- -------- ---<br>------ ------- -------- --- ---- -- ------- ------------ --<br>------ -- ---- -- --- ---- -- -------- -- --- ------ ------,358584,358579,358097.38,358097,358108.92,358592.02,,8,to
screen,html.Screen,2_3_1_0_1_9,2022-05-03T20:01:12.789Z,,,,,,,,,,,,,,,,,12,,,,,,,,,,,,,,438.9799999999814,,response,,,,5,A,,,,,,Space,keypress(Space),,,,silence,,,,---- ------ ------ ------- ------ --- ------- -----------<br>-- stack --- ---- -- --- ------ ---- - ---- -- ----------<br>-- ------ ---- --- ---- --- --- --- ----- -- -------- ---<br>------ ------- -------- --- ---- -- ------- ------------ --<br>------ -- ---- -- --- ---- -- -------- -- --- ------ ------,359034,359031,358583.7,358584,358592.02,359041.72,,9,stack
screen,html.Screen,2_3_1_0_1_10,2022-05-03T20:01:13.305Z,,,,,,,,,,,,,,,,,12,,,,,,,,,,,,,,505.28000000002794,,response,,,,5,A,,,,,,Space,keypress(Space),,,,silence,,,,---- ------ ------ ------- ------ --- ------- -----------<br>-- ----- the ---- -- --- ------ ---- - ---- -- ----------<br>-- ------ ---- --- ---- --- --- --- ----- -- -------- ---<br>------ ------- -------- --- ---- -- ------- ------------ --<br>------ -- ---- -- --- ---- -- -------- -- --- ------ ------,359550,359547,359034.74,359035,359041.72,359558,,10,the
screen,html.Screen,2_3_1_0_1_11,2022-05-03T20:01:15.249Z,,,,,,,,,,,,,,,,,12,,,,,,,,,,,,,,1926,,response,,,,5,A,,,,,,Space,keypress(Space),,,,silence,,,,---- ------ ------ ------- ------ --- ------- -----------<br>-- ----- --- odds -- --- ------ ---- - ---- -- ----------<br>-- ------ ---- --- ---- --- --- --- ----- -- -------- ---<br>------ ------- -------- --- ---- -- ------- ------------ --<br>------ -- ---- -- --- ---- -- -------- -- --- ------ ------,361493,361484,359550.46,359550,359558,361506.64,,11,odds
screen,html.Screen,2_3_1_0_1_12,2022-05-03T20:01:15.641Z,,,,,,,,,,,,,,,,,12,,,,,,,,,,,,,,368.35999999998603,,response,,,,5,A,,,,,,Space,keypress(Space),,,,silence,,,,---- ------ ------ ------- ------ --- ------- -----------<br>-- ----- --- ---- in --- ------ ---- - ---- -- ----------<br>-- ------ ---- --- ---- --- --- --- ----- -- -------- ---<br>------ ------- -------- --- ---- -- ------- ------------ --<br>------ -- ---- -- --- ---- -- -------- -- --- ------ ------,361886,361875,361493.66,361493,361506.64,361889.76,,12,in
screen,html.Screen,2_3_1_0_1_13,2022-05-03T20:01:16.026Z,,,,,,,,,,,,,,,,,12,,,,,,,,,,,,,,375.2399999999907,,response,,,,5,A,,,,,,Space,keypress(Space),,,,silence,,,,---- ------ ------ ------- ------ --- ------- -----------<br>-- ----- --- ---- -- his ------ ---- - ---- -- ----------<br>-- ------ ---- --- ---- --- --- --- ----- -- -------- ---<br>------ ------- -------- --- ---- -- ------- ------------ --<br>------ -- ---- -- --- ---- -- -------- -- --- ------ ------,362271,362265,361886.18,361886,361889.76,362272.8,,13,his
screen,html.Screen,2_3_1_0_1_14,2022-05-03T20:01:16.568Z,,,,,,,,,,,,,,,,,12,,,,,,,,,,,,,,523.2000000000116,,response,,,,5,A,,,,,,Space,keypress(Space),,,,silence,,,,---- ------ ------ ------- ------ --- ------- -----------<br>-- ----- --- ---- -- --- favour ---- - ---- -- ----------<br>-- ------ ---- --- ---- --- --- --- ----- -- -------- ---<br>------ ------- -------- --- ---- -- ------- ------------ --<br>------ -- ---- -- --- ---- -- -------- -- --- ------ ------,362813,362796,362271.38,362271,362272.8,362822.46,,14,favour
screen,html.Screen,2_3_1_0_1_15,2022-05-03T20:01:17.016Z,,,,,,,,,,,,,,,,,12,,,,,,,,,,,,,,426.53999999997905,,response,,,,5,A,,,,,,Space,keypress(Space),,,,silence,,,,---- ------ ------ ------- ------ --- ------- -----------<br>-- ----- --- ---- -- --- ------ with - ---- -- ----------<br>-- ------ ---- --- ---- --- --- --- ----- -- -------- ---<br>------ ------- -------- --- ---- -- ------- ------------ --<br>------ -- ---- -- --- ---- -- -------- -- --- ------ ------,363261,363249,362813.08,362813,362822.46,363272.18,,15,with
screen,html.Screen,2_3_1_0_1_16,2022-05-03T20:01:17.492Z,,,,,,,,,,,,,,,,,12,,,,,,,,,,,,,,445.820000000007,,response,,,,5,A,,,,,,Space,keypress(Space),,,,silence,,,,---- ------ ------ ------- ------ --- ------- -----------<br>-- ----- --- ---- -- --- ------ ---- a ---- -- ----------<br>-- ------ ---- --- ---- --- --- --- ----- -- -------- ---<br>------ ------- -------- --- ---- -- ------- ------------ --<br>------ -- ---- -- --- ---- -- -------- -- --- ------ ------,363738,363718,363260.84,363261,363272.18,363738.48,,16,a
screen,html.Screen,2_3_1_0_1_17,2022-05-03T20:01:17.914Z,,,,,,,,,,,,,,,,,12,,,,,,,,,,,,,,402.5200000000186,,response,,,,5,A,,,,,,Space,keypress(Space),,,,silence,,,,---- ------ ------ ------- ------ --- ------- -----------<br>-- ----- --- ---- -- --- ------ ---- - dash -- ----------<br>-- ------ ---- --- ---- --- --- --- ----- -- -------- ---<br>------ ------- -------- --- ---- -- ------- ------------ --<br>------ -- ---- -- --- ---- -- -------- -- --- ------ ------,364159,364141,363737.42,363738,363738.48,364171.58,,17,dash
screen,html.Screen,2_3_1_0_1_18,2022-05-03T20:01:18.351Z,,,,,,,,,,,,,,,,,12,,,,,,,,,,,,,,422.4199999999837,,response,,,,5,A,,,,,,Space,keypress(Space),,,,silence,,,,---- ------ ------ ------- ------ --- ------- -----------<br>-- ----- --- ---- -- --- ------ ---- - ---- of ----------<br>-- ------ ---- --- ---- --- --- --- ----- -- -------- ---<br>------ ------- -------- --- ---- -- ------- ------------ --<br>------ -- ---- -- --- ---- -- -------- -- --- ------ ------,364595,364594,364159.26,364159,364171.58,364604.56,,18,of
screen,html.Screen,2_3_1_0_1_19,2022-05-03T20:01:19.819Z,,,,,,,,,,,,,,,,,12,,,,,,,,,,,,,,1441.4400000000023,,response,,,,5,A,,,,,,Space,keypress(Space),,,,silence,,,,---- ------ ------ ------- ------ --- ------- -----------<br>-- ----- --- ---- -- --- ------ ---- - ---- -- ingenuity.<br>-- ------ ---- --- ---- --- --- --- ----- -- -------- ---<br>------ ------- -------- --- ---- -- ------- ------------ --<br>------ -- ---- -- --- ---- -- -------- -- --- ------ ------,366064,366046,364595.52,364595,364604.56,366070.32,,19,ingenuity.
screen,html.Screen,2_3_1_0_1_20,2022-05-03T20:01:20.257Z,,,,,,,,,,,,,,,,,12,,,,,,,,,,,,,,413.679999999993,,response,,,,5,A,,,,,,Space,keypress(Space),,,,silence,,,,---- ------ ------ ------- ------ --- ------- -----------<br>-- ----- --- ---- -- --- ------ ---- - ---- -- ----------<br>He ------ ---- --- ---- --- --- --- ----- -- -------- ---<br>------ ------- -------- --- ---- -- ------- ------------ --<br>------ -- ---- -- --- ---- -- -------- -- --- ------ ------,366502,366484,366063.98,366064,366070.32,366503.34,,20,He
screen,html.Screen,2_3_1_0_1_21,2022-05-03T20:01:20.690Z,,,,,,,,,,,,,,,,,12,,,,,,,,,,,,,,417.6599999999744,,response,,,,5,A,,,,,,Space,keypress(Space),,,,silence,,,,---- ------ ------ ------- ------ --- ------- -----------<br>-- ----- --- ---- -- --- ------ ---- - ---- -- ----------<br>-- walked ---- --- ---- --- --- --- ----- -- -------- ---<br>------ ------- -------- --- ---- -- ------- ------------ --<br>------ -- ---- -- --- ---- -- -------- -- --- ------ ------,366935,366921,366502.22,366503,366503.34,366936.34,,21,walked
screen,html.Screen,2_3_1_0_1_22,2022-05-03T20:01:21.184Z,,,,,,,,,,,,,,,,,12,,,,,,,,,,,,,,484.6599999999744,,response,,,,5,A,,,,,,Space,keypress(Space),,,,silence,,,,---- ------ ------ ------- ------ --- ------- -----------<br>-- ----- --- ---- -- --- ------ ---- - ---- -- ----------<br>-- ------ into --- ---- --- --- --- ----- -- -------- ---<br>------ ------- -------- --- ---- -- ------- ------------ --<br>------ -- ---- -- --- ---- -- -------- -- --- ------ ------,367430,367421,366935.72,366936,366936.34,367436.06,,22,into
screen,html.Screen,2_3_1_0_1_23,2022-05-03T20:01:21.648Z,,,,,,,,,,,,,,,,,12,,,,,,,,,,,,,,438.9400000000023,,response,,,,5,A,,,,,,Space,keypress(Space),,,,silence,,,,---- ------ ------ ------- ------ --- ------- -----------<br>-- ----- --- ---- -- --- ------ ---- - ---- -- ----------<br>-- ------ ---- his ---- --- --- --- ----- -- -------- ---<br>------ ------- -------- --- ---- -- ------- ------------ --<br>------ -- ---- -- --- ---- -- -------- -- --- ------ ------,367892,367875,367429.64,367430,367436.06,367902.38,,23,his
screen,html.Screen,2_3_1_0_1_24,2022-05-03T20:01:22.255Z,,,,,,,,,,,,,,,,,12,,,,,,,,,,,,,,581.6199999999953,,response,,,,5,A,,,,,,Space,keypress(Space),,,,silence,,,,---- ------ ------ ------- ------ --- ------- -----------<br>-- ----- --- ---- -- --- ------ ---- - ---- -- ----------<br>-- ------ ---- --- bank --- --- --- ----- -- -------- ---<br>------ ------- -------- --- ---- -- ------- ------------ --<br>------ -- ---- -- --- ---- -- -------- -- --- ------ ------,368499,368484,367892.66,367892,367902.38,368501.96,,24,bank
screen,html.Screen,2_3_1_0_1_25,2022-05-03T20:01:22.703Z,,,,,,,,,,,,,,,,,12,,,,,,,,,,,,,,435.03999999997905,,response,,,,5,A,,,,,,Space,keypress(Space),,,,silence,,,,---- ------ ------ ------- ------ --- ------- -----------<br>-- ----- --- ---- -- --- ------ ---- - ---- -- ----------<br>-- ------ ---- --- ---- one --- --- ----- -- -------- ---<br>------ ------- -------- --- ---- -- ------- ------------ --<br>------ -- ---- -- --- ---- -- -------- -- --- ------ ------,368948,368937,368499.48,368499,368501.96,368951.66,,25,one
screen,html.Screen,2_3_1_0_1_26,2022-05-03T20:01:23.174Z,,,,,,,,,,,,,,,,,12,,,,,,,,,,,,,,455.3400000000256,,response,,,,5,A,,,,,,Space,keypress(Space),,,,silence,,,,---- ------ ------ ------- ------ --- ------- -----------<br>-- ----- --- ---- -- --- ------ ---- - ---- -- ----------<br>-- ------ ---- --- ---- --- day --- ----- -- -------- ---<br>------ ------- -------- --- ---- -- ------- ------------ --<br>------ -- ---- -- --- ---- -- -------- -- --- ------ ------,369418,369407,368948.38,368948,368951.66,369434.64,,26,day
screen,html.Screen,2_3_1_0_1_27,2022-05-03T20:01:23.660Z,,,,,,,,,,,,,,,,,12,,,,,,,,,,,,,,455.35999999998603,,response,,,,5,A,,,,,,Space,keypress(Space),,,,silence,,,,---- ------ ------ ------- ------ --- ------- -----------<br>-- ----- --- ---- -- --- ------ ---- - ---- -- ----------<br>-- ------ ---- --- ---- --- --- and ----- -- -------- ---<br>------ ------- -------- --- ---- -- ------- ------------ --<br>------ -- ---- -- --- ---- -- -------- -- --- ------ ------,369905,369890,369419.04,369419,369434.64,369917.66,,27,and
screen,html.Screen,2_3_1_0_1_28,2022-05-03T20:01:24.161Z,,,,,,,,,,,,,,,,,12,,,,,,,,,,,,,,472.3400000000256,,response,,,,5,A,,,,,,Space,keypress(Space),,,,silence,,,,---- ------ ------ ------- ------ --- ------- -----------<br>-- ----- --- ---- -- --- ------ ---- - ---- -- ----------<br>-- ------ ---- --- ---- --- --- --- asked -- -------- ---<br>------ ------- -------- --- ---- -- ------- ------------ --<br>------ -- ---- -- --- ---- -- -------- -- --- ------ ------,370407,370390,369904.7,369905,369917.66,370417.36,,28,asked
screen,html.Screen,2_3_1_0_1_29,2022-05-03T20:01:24.587Z,,,,,,,,,,,,,,,,,12,,,,,,,,,,,,,,410.64000000001397,,response,,,,5,A,,,,,,Space,keypress(Space),,,,silence,,,,---- ------ ------ ------- ------ --- ------- -----------<br>-- ----- --- ---- -- --- ------ ---- - ---- -- ----------<br>-- ------ ---- --- ---- --- --- --- ----- to -------- ---<br>------ ------- -------- --- ---- -- ------- ------------ --<br>------ -- ---- -- --- ---- -- -------- -- --- ------ ------,370833,370828,370406.66,370407,370417.36,370833.74,,29,to
screen,html.Screen,2_3_1_0_1_30,2022-05-03T20:01:25.035Z,,,,,,,,,,,,,,,,,12,,,,,,,,,,,,,,431.2600000000093,,response,,,,5,A,,,,,,Space,keypress(Space),,,,silence,,,,---- ------ ------ ------- ------ --- ------- -----------<br>-- ----- --- ---- -- --- ------ ---- - ---- -- ----------<br>-- ------ ---- --- ---- --- --- --- ----- -- withdraw ---<br>------ ------- -------- --- ---- -- ------- ------------ --<br>------ -- ---- -- --- ---- -- -------- -- --- ------ ------,371280,371265,370832.74,370833,370833.74,371283.44,,30,withdraw
screen,html.Screen,2_3_1_0_1_31,2022-05-03T20:01:25.420Z,,,,,,,,,,,,,,,,,12,,,,,,,,,,,,,,372.5599999999977,,response,,,,5,A,,,,,,Space,keypress(Space),,,,silence,,,,---- ------ ------ ------- ------ --- ------- -----------<br>-- ----- --- ---- -- --- ------ ---- - ---- -- ----------<br>-- ------ ---- --- ---- --- --- --- ----- -- -------- his<br>------ ------- -------- --- ---- -- ------- ------------ --<br>------ -- ---- -- --- ---- -- -------- -- --- ------ ------,371665,371656,371280.56,371280,371283.44,371666.56,,31,his
screen,html.Screen,2_3_1_0_1_32,2022-05-03T20:01:25.952Z,,,,,,,,,,,,,,,,,12,,,,,,,,,,,,,,504.4400000000023,,response,,,,5,A,,,,,,Space,keypress(Space),,,,silence,,,,---- ------ ------ ------- ------ --- ------- -----------<br>-- ----- --- ---- -- --- ------ ---- - ---- -- ----------<br>-- ------ ---- --- ---- --- --- --- ----- -- -------- ---<br>entire ------- -------- --- ---- -- ------- ------------ --<br>------ -- ---- -- --- ---- -- -------- -- --- ------ ------,372197,372171,371665.26,371666,371666.56,372199.44,,32,entire
screen,html.Screen,2_3_1_0_1_33,2022-05-03T20:01:26.434Z,,,,,,,,,,,,,,,,,12,,,,,,,,,,,,,,471.5599999999977,,response,,,,5,A,,,,,,Space,keypress(Space),,,,silence,,,,---- ------ ------ ------- ------ --- ------- -----------<br>-- ----- --- ---- -- --- ------ ---- - ---- -- ----------<br>-- ------ ---- --- ---- --- --- --- ----- -- -------- ---<br>------ account -------- --- ---- -- ------- ------------ --<br>------ -- ---- -- --- ---- -- -------- -- --- ------ ------,372679,372671,372197.04,372197,372199.44,372682.46,,33,account
screen,html.Screen,2_3_1_0_1_34,2022-05-03T20:01:26.991Z,,,,,,,,,,,,,,,,,12,,,,,,,,,,,,,,535.539999999979,,response,,,,5,A,,,,,,Space,keypress(Space),,,,silence,,,,"---- ------ ------ ------- ------ --- ------- -----------<br>-- ----- --- ---- -- --- ------ ---- - ---- -- ----------<br>-- ------ ---- --- ---- --- --- --- ----- -- -------- ---<br>------ ------- balance, --- ---- -- ------- ------------ --<br>------ -- ---- -- --- ---- -- -------- -- --- ------ ------",373236,373218,372678.92,372679,372682.46,373248.72,,34,"balance,"
screen,html.Screen,2_3_1_0_1_35,2022-05-03T20:01:27.470Z,,,,,,,,,,,,,,,,,12,,,,,,,,,,,,,,454.28000000002794,,response,,,,5,A,,,,,,Space,keypress(Space),,,,silence,,,,---- ------ ------ ------- ------ --- ------- -----------<br>-- ----- --- ---- -- --- ------ ---- - ---- -- ----------<br>-- ------ ---- --- ---- --- --- --- ----- -- -------- ---<br>------ ------- -------- but ---- -- ------- ------------ --<br>------ -- ---- -- --- ---- -- -------- -- --- ------ ------,373715,373703,373237.08,373237,373248.72,373731.8,,35,but
screen,html.Screen,2_3_1_0_1_36,2022-05-03T20:01:27.945Z,,,,,,,,,,,,,,,,,12,,,,,,,,,,,,,,439.20000000001164,,response,,,,5,A,,,,,,Space,keypress(Space),,,,silence,,,,---- ------ ------ ------- ------ --- ------- -----------<br>-- ----- --- ---- -- --- ------ ---- - ---- -- ----------<br>-- ------ ---- --- ---- --- --- --- ----- -- -------- ---<br>------ ------- -------- --- with -- ------- ------------ --<br>------ -- ---- -- --- ---- -- -------- -- --- ------ ------,374189,374171,373715.28,373715,373731.8,374198.08,,36,with
screen,html.Screen,2_3_1_0_1_37,2022-05-03T20:01:28.348Z,,,,,,,,,,,,,,,,,12,,,,,,,,,,,,,,379.9199999999837,,response,,,,5,A,,,,,,Space,keypress(Space),,,,silence,,,,---- ------ ------ ------- ------ --- ------- -----------<br>-- ----- --- ---- -- --- ------ ---- - ---- -- ----------<br>-- ------ ---- --- ---- --- --- --- ----- -- -------- ---<br>------ ------- -------- --- ---- an ------- ------------ --<br>------ -- ---- -- --- ---- -- -------- -- --- ------ ------,374593,374578,374189.68,374190,374198.08,374597.88,,37,an
screen,html.Screen,2_3_1_0_1_38,2022-05-03T20:01:28.754Z,,,,,,,,,,,,,,,,,12,,,,,,,,,,,,,,387.11999999999534,,response,,,,5,A,,,,,,Space,keypress(Space),,,,silence,,,,---- ------ ------ ------- ------ --- ------- -----------<br>-- ----- --- ---- -- --- ------ ---- - ---- -- ----------<br>-- ------ ---- --- ---- --- --- --- ----- -- -------- ---<br>------ ------- -------- --- ---- -- unusual ------------ --<br>------ -- ---- -- --- ---- -- -------- -- --- ------ ------,374998,374985,374593.34,374593,374597.88,375014.2,,38,unusual
screen,html.Screen,2_3_1_0_1_39,2022-05-03T20:01:29.213Z,,,,,,,,,,,,,,,,,12,,,,,,,,,,,,,,438.79999999998836,,response,,,,5,A,,,,,,Space,keypress(Space),,,,silence,,,,---- ------ ------ ------- ------ --- ------- -----------<br>-- ----- --- ---- -- --- ------ ---- - ---- -- ----------<br>-- ------ ---- --- ---- --- --- --- ----- -- -------- ---<br>------ ------- -------- --- ---- -- ------- stipulation: --<br>------ -- ---- -- --- ---- -- -------- -- --- ------ ------,375458,375453,374998.68,374998,375014.2,375463.92,,39,stipulation:
screen,html.Screen,2_3_1_0_1_40,2022-05-03T20:01:29.641Z,,,,,,,,,,,,,,,,,12,,,,,,,,,,,,,,410.0800000000163,,response,,,,5,A,,,,,,Space,keypress(Space),,,,silence,,,,---- ------ ------ ------- ------ --- ------- -----------<br>-- ----- --- ---- -- --- ------ ---- - ---- -- ----------<br>-- ------ ---- --- ---- --- --- --- ----- -- -------- ---<br>------ ------- -------- --- ---- -- ------- ------------ He<br>------ -- ---- -- --- ---- -- -------- -- --- ------ ------,375886,375874,375458.74,375459,375463.92,375897.02,,40,He
screen,html.Screen,2_3_1_0_1_41,2022-05-03T20:01:30.061Z,,,,,,,,,,,,,,,,,12,,,,,,,,,,,,,,398.9799999999814,,response,,,,5,A,,,,,,Space,keypress(Space),,,,silence,,,,---- ------ ------ ------- ------ --- ------- -----------<br>-- ----- --- ---- -- --- ------ ---- - ---- -- ----------<br>-- ------ ---- --- ---- --- --- --- ----- -- -------- ---<br>------ ------- -------- --- ---- -- ------- ------------ --<br>wanted -- ---- -- --- ---- -- -------- -- --- ------ ------,376307,376296,375886.48,375886,375897.02,376313.4,,41,wanted
screen,html.Screen,2_3_1_0_1_42,2022-05-03T20:01:30.546Z,,,,,,,,,,,,,,,,,12,,,,,,,,,,,,,,467.5999999999767,,response,,,,5,A,,,,,,Space,keypress(Space),,,,silence,,,,---- ------ ------ ------- ------ --- ------- -----------<br>-- ----- --- ---- -- --- ------ ---- - ---- -- ----------<br>-- ------ ---- --- ---- --- --- --- ----- -- -------- ---<br>------ ------- -------- --- ---- -- ------- ------------ --<br>------ as ---- -- --- ---- -- -------- -- --- ------ ------,376791,376781,376306.46,376307,376313.4,376796.4,,42,as
screen,html.Screen,2_3_1_0_1_43,2022-05-03T20:01:31.008Z,,,,,,,,,,,,,,,,,12,,,,,,,,,,,,,,453.5999999999767,,response,,,,5,A,,,,,,Space,keypress(Space),,,,silence,,,,---- ------ ------ ------- ------ --- ------- -----------<br>-- ----- --- ---- -- --- ------ ---- - ---- -- ----------<br>-- ------ ---- --- ---- --- --- --- ----- -- -------- ---<br>------ ------- -------- --- ---- -- ------- ------------ --<br>------ -- much -- --- ---- -- -------- -- --- ------ ------,377253,377250,376791.02,376791,376796.4,377262.76,,43,much
screen,html.Screen,2_3_1_0_1_44,2022-05-03T20:01:31.467Z,,,,,,,,,,,,,,,,,12,,,,,,,,,,,,,,440.2399999999907,,response,,,,5,A,,,,,,Space,keypress(Space),,,,silence,,,,---- ------ ------ ------- ------ --- ------- -----------<br>-- ----- --- ---- -- --- ------ ---- - ---- -- ----------<br>-- ------ ---- --- ---- --- --- --- ----- -- -------- ---<br>------ ------- -------- --- ---- -- ------- ------------ --<br>------ -- ---- of --- ---- -- -------- -- --- ------ ------,377711,377703,377253.16,377254,377262.76,377712.44,,44,of
screen,html.Screen,2_3_1_0_1_45,2022-05-03T20:01:31.866Z,,,,,,,,,,,,,,,,,12,,,,,,,,,,,,,,380.5599999999977,,response,,,,5,A,,,,,,Space,keypress(Space),,,,silence,,,,---- ------ ------ ------- ------ --- ------- -----------<br>-- ----- --- ---- -- --- ------ ---- - ---- -- ----------<br>-- ------ ---- --- ---- --- --- --- ----- -- -------- ---<br>------ ------- -------- --- ---- -- ------- ------------ --<br>------ -- ---- -- the ---- -- -------- -- --- ------ ------,378111,378093,377712.02,377712,377712.44,378112.16,,45,the
screen,html.Screen,2_3_1_0_1_46,2022-05-03T20:01:32.256Z,,,,,,,,,,,,,,,,,12,,,,,,,,,,,,,,386.8400000000256,,response,,,,5,A,,,,,,Space,keypress(Space),,,,silence,,,,---- ------ ------ ------- ------ --- ------- -----------<br>-- ----- --- ---- -- --- ------ ---- - ---- -- ----------<br>-- ------ ---- --- ---- --- --- --- ----- -- -------- ---<br>------ ------- -------- --- ---- -- ------- ------------ --<br>------ -- ---- -- --- cash -- -------- -- --- ------ ------,378501,378499,378111.8,378111,378112.16,378511.84,,46,cash
screen,html.Screen,2_3_1_0_1_47,2022-05-03T20:01:32.619Z,,,,,,,,,,,,,,,,,12,,,,,,,,,,,,,,347.1599999999744,,response,,,,5,A,,,,,,Space,keypress(Space),,,,silence,,,,---- ------ ------ ------- ------ --- ------- -----------<br>-- ----- --- ---- -- --- ------ ---- - ---- -- ----------<br>-- ------ ---- --- ---- --- --- --- ----- -- -------- ---<br>------ ------- -------- --- ---- -- ------- ------------ --<br>------ -- ---- -- --- ---- as -------- -- --- ------ ------,378864,378859,378501.72,378501,378511.84,378878.32,,47,as
screen,html.Screen,2_3_1_0_1_48,2022-05-03T20:01:33.010Z,,,,,,,,,,,,,,,,,12,,,,,,,,,,,,,,370.679999999993,,response,,,,5,A,,,,,,Space,keypress(Space),,,,silence,,,,---- ------ ------ ------- ------ --- ------- -----------<br>-- ----- --- ---- -- --- ------ ---- - ---- -- ----------<br>-- ------ ---- --- ---- --- --- --- ----- -- -------- ---<br>------ ------- -------- --- ---- -- ------- ------------ --<br>------ -- ---- -- --- ---- -- possible -- --- ------ ------,379255,379249,378864.12,378864,378878.32,379261.4,,48,possible
screen,html.Screen,2_3_1_0_1_49,2022-05-03T20:01:33.346Z,,,,,,,,,,,,,,,,,12,,,,,,,,,,,,,,316.5999999999767,,response,,,,5,A,,,,,,Space,keypress(Space),,,,silence,,,,---- ------ ------ ------- ------ --- ------- -----------<br>-- ----- --- ---- -- --- ------ ---- - ---- -- ----------<br>-- ------ ---- --- ---- --- --- --- ----- -- -------- ---<br>------ ------- -------- --- ---- -- ------- ------------ --<br>------ -- ---- -- --- ---- -- -------- in --- ------ ------,379592,379578,379255.92,379256,379261.4,379594.44,,49,in
screen,html.Screen,2_3_1_0_1_50,2022-05-03T20:01:33.754Z,,,,,,,,,,,,,,,,,12,,,,,,,,,,,,,,390.5599999999977,,response,,,,5,A,,,,,,Space,keypress(Space),,,,silence,,,,---- ------ ------ ------- ------ --- ------- -----------<br>-- ----- --- ---- -- --- ------ ---- - ---- -- ----------<br>-- ------ ---- --- ---- --- --- --- ----- -- -------- ---<br>------ ------- -------- --- ---- -- ------- ------------ --<br>------ -- ---- -- --- ---- -- -------- -- one ------ ------,379999,379985,379591.58,379592,379594.44,380010.88,,50,one
screen,html.Screen,2_3_1_0_1_51,2022-05-03T20:01:34.166Z,,,,,,,,,,,,,,,,,12,,,,,,,,,,,,,,395.11999999999534,,response,,,,5,A,,,,,,Space,keypress(Space),,,,silence,,,,---- ------ ------ ------- ------ --- ------- -----------<br>-- ----- --- ---- -- --- ------ ---- - ---- -- ----------<br>-- ------ ---- --- ---- --- --- --- ----- -- -------- ---<br>------ ------- -------- --- ---- -- ------- ------------ --<br>------ -- ---- -- --- ---- -- -------- -- --- dollar ------,380410,380406,379998.58,379999,380010.88,380427.34,,51,dollar
screen,html.Screen,2_3_1_0_1_52,2022-05-03T20:01:34.580Z,,,,,,,,,,,,,,,,,12,,,,,,,,,,,,,,384.6599999999744,,response,,,,5,A,,,,,,Space,keypress(Space),,,,silence,,,,---- ------ ------ ------- ------ --- ------- -----------<br>-- ----- --- ---- -- --- ------ ---- - ---- -- ----------<br>-- ------ ---- --- ---- --- --- --- ----- -- -------- ---<br>------ ------- -------- --- ---- -- ------- ------------ --<br>------ -- ---- -- --- ---- -- -------- -- --- ------ notes.,380825,380812,380410.88,380411,380427.34,380826.98,,52,notes.
Item 5,flow.Loop,2_3_1_0_1,2022-05-03T20:01:34.580Z,,,,,,,,,,,,,,,,,,,,,,,,,,,,,,,27016.79999999999,,completion,,,,,,,,,,,,,,,,,,,,,380825,380812,353778.54,353781,353795.2,380826.98,,,
Question 1,html.Screen,2_3_1_0_2,2022-05-03T20:01:37.658Z,,,,,,,,,,,,,,,,,,,,,,,,,,,,true,TRUE,,3063.0200000000186,,response,,,,5,A,,,,,,TRUE,click #choice-1,,,,silence,,,,,383903,383890,380825.28,380825,380826.98,383908.26,,,
Question 2,html.Screen,2_3_1_0_3,2022-05-03T20:01:39.652Z,,,,,,,,,,,,,,,,,,,,,,,,,,,,true,TRUE,,1981.7399999999907,,response,,,,5,A,,,,,,TRUE,click #choice-1,,,,silence,,,,,385897,385890,383902.08,383903,383908.26,385906.94,,,
Item 5,flow.Sequence,2_3_1_0,2022-05-03T20:01:39.652Z,,,,,,,,,,,,,,,,,,,,,,,,,,,,,,,39090.06,,completion,,,,,,,,,,,,,,,,,,,,,385897,385890,346783.28,346785,346799.94,385906.94,,,
Holding screen,html.Screen,2_3_1_1_0,2022-05-03T20:01:46.641Z,,,,,,,,,,,,,,,,,,,,,,,,,,,,,,,6995.260000000009,,timeout,,,,,,,,,,,,,,,,,,,,,392887,392885.54,385896.34,385897,385906.94,392902.2,,,
