sender,sender_type,sender_id,timestamp,meta,,Blues,Classical,Country,Dance,Electronic,Folk,Gospel,Hip-Hop,Jazz,Latin,Musical/Film,New-age,Pop,Prolific_id,Provo_ID,R&B,Rap,Reggae,Religious,Rock,Soul,Swing,Traditional,age,artist_name,correct,correctResponse,distraction,duration,education,ended_on,familiarity,gender,headphone_check_performance,item,list,music_frequency,offensiveness,pleasantness,position_correct,preference,response,response_action,snippet_file,song_name,song_rating,sound,stimulus_1,stimulus_2,stimulus_3,text,time_commit,time_end,time_render,time_run,time_show,time_switch,url,word,word_ID
Prolific ID,html.Form,0,2022-04-25T14:47:46.627Z,"{""labjs_version"":""20.2.2"",""labjs_build"":{""flavor"":""production"",""commit"":""a25486e0c714a0ae2ce03ff94b7bb6896854dcfa""},""location"":""https://run.pavlovia.org/mvasilev/prolific3_music_a/"",""userAgent"":""Mozilla/5.0 (Windows NT 10.0; Win64; x64) AppleWebKit/537.36 (KHTML, like Gecko) Chrome/101.0.4951.41 Safari/537.36"",""platform"":""Win32"",""language"":""en-GB"",""locale"":""en-US"",""timeZone"":""Europe/London"",""timezoneOffset"":-60,""screen_width"":1920,""screen_height"":1080,""scroll_width"":1894,""scroll_height"":880,""window_innerWidth"":1894,""window_innerHeight"":928,""devicePixelRatio"":1}",,,,,,,,,,,,,,,614b11e399369a0d52b5fbf6,,,,,,,,,,,,,,,13854.165999976161,,form submission,,,,,,,,,,,,,,,,,,,,,116896.09999990463,116895.39999997616,103022.156,39047.299999952316,103041.234,116907.725,{},,
Introduction,html.Screen,1_0,2022-04-25T14:49:56.655Z,,,,,,,,,,,,,,,,,,,,,,,,,,,,,,,130013.17499997615,,response,,,,,,,,,,,continue,click button,,,,,,,,,246924.39999997616,246920.89999997616,116891.059,116896.59999990463,116907.725,246923.577,,,
Volume calibration,html.Screen,1_1,2022-04-25T14:50:23.802Z,,,,,,,,,,,,,,,,,,,,,,,,,,,,,,,27143.122999928484,,response,,,,,,,,,,,continue,click button,,,,,,,,,274072,274066.6999999285,246906.911,246924.59999990463,246923.577,274073.422,,,
Task instructions,html.Screen,1_2,2022-04-25T14:50:40.607Z,,,,,,,,,,,,,,,,,,,,,,,,,,,,,,,16802.57799999998,,response,,,,,,,,,,,continue,click button,,,,,,,,,290876.7999999523,290876,274056.756,274072.09999990463,274073.422,290906.66,,,
Sounds,html.Screen,1_3_0_0,2022-04-25T14:50:44.874Z,,,,,,,,,,,,,,,,,,,,,,,,,,,,,,,4249.773000000045,,timeout,,,,,,,,,2,,,,,,,,O,S,I,,295143.2999999523,295139.767,290889.994,290879.1999999285,290906.66,295156.433,,,
Judgement,html.Screen,1_3_0_1,2022-04-25T14:50:46.155Z,,,,,,,,,,,,,,,,,,,,,,,,,,,,true,2,,1265.8669999522972,,response,,,,,,,,,2,,2,click #choice-2,,,,,O,S,I,,296424.59999990463,296422.2999999523,295139.767,295143.39999997616,295156.433,296439.938,,,
Trial,flow.Sequence,1_3_0,2022-04-25T14:50:46.155Z,,,,,,,,,,,,,,,,,,,,,,,,,,,,,,,5515.639999952342,,completion,,,,,,,,,2,,,,,,,,O,S,I,,296424.89999997616,296422.2999999523,290889.994,290878.59999990463,290906.66,296439.938,,,
Sounds,html.Screen,1_3_1_0,2022-04-25T14:50:50.407Z,,,,,,,,,,,,,,,,,,,,,,,,,,,,,,,4249.830999999947,,timeout,,,,,,,,,2,,,,,,,,I,S,O,,300676.39999997616,300673.103,296423.272,296425.1999999285,296439.938,300689.769,,,
Judgement,html.Screen,1_3_1_1,2022-04-25T14:50:51.088Z,,,,,,,,,,,,,,,,,,,,,,,,,,,,true,2,,666.7310000000289,,response,,,,,,,,,2,,2,click #choice-2,,,,,I,S,O,,301357.59999990463,301356.5,300673.103,300676.7999999523,300689.769,301373.227,,,
Trial,flow.Sequence,1_3_1,2022-04-25T14:50:51.089Z,,,,,,,,,,,,,,,,,,,,,,,,,,,,,,,4916.561999999976,,completion,,,,,,,,,2,,,,,,,,I,S,O,,301358.09999990463,301356.5,296423.272,296425.09999990463,296439.938,301373.227,,,
Sounds,html.Screen,1_3_2_0,2022-04-25T14:50:55.338Z,,,,,,,,,,,,,,,,,,,,,,,,,,,,,,,4249.814000000013,,timeout,,,,,,,,,1,,,,,,,,S,O,I,,305607.7999999523,305606.375,301356.561,301358.59999990463,301373.227,305623.041,,,
Judgement,html.Screen,1_3_2_1,2022-04-25T14:50:56.062Z,,,,,,,,,,,,,,,,,,,,,,,,,,,,true,1,,707.1589999284479,,response,,,,,,,,,1,,1,click #choice-1,,,,,S,O,I,,306331.1999999285,306330.1999999285,305606.375,305608.09999990463,305623.041,306339.891,,,
Trial,flow.Sequence,1_3_2,2022-04-25T14:50:56.062Z,,,,,,,,,,,,,,,,,,,,,,,,,,,,,,,4956.972999928461,,completion,,,,,,,,,1,,,,,,,,S,O,I,,306331.39999997616,306330.1999999285,301356.561,301358.59999990463,301373.227,306339.891,,,
Sounds,html.Screen,1_3_3_0,2022-04-25T14:51:00.305Z,,,,,,,,,,,,,,,,,,,,,,,,,,,,,,,4249.844999999972,,timeout,,,,,,,,,3,,,,,,,,O,I,S,,310574.59999990463,310573.07,306323.225,306331.59999990463,306339.891,310589.736,,,
Judgement,html.Screen,1_3_3_1,2022-04-25T14:51:01.230Z,,,,,,,,,,,,,,,,,,,,,,,,,,,,true,3,,908.563999952341,,response,,,,,,,,,3,,3,click #choice-3,,,,,O,I,S,,311499,311498.2999999523,310573.07,310574.7999999523,310589.736,311506.497,,,
Trial,flow.Sequence,1_3_3,2022-04-25T14:51:01.230Z,,,,,,,,,,,,,,,,,,,,,,,,,,,,,,,5158.408999952313,,completion,,,,,,,,,3,,,,,,,,O,I,S,,311499.2999999523,311498.2999999523,306323.225,306331.59999990463,306339.891,311506.497,,,
Sounds,html.Screen,1_3_4_0,2022-04-25T14:51:05.472Z,,,,,,,,,,,,,,,,,,,,,,,,,,,,,,,4249.832000000053,,timeout,,,,,,,,,1,,,,,,,,S,I,O,,315741.59999990463,315739.663,311489.831,311499.5,311506.497,315756.329,,,
Judgement,html.Screen,1_3_4_1,2022-04-25T14:51:06.219Z,,,,,,,,,,,,,,,,,,,,,,,,,,,,true,1,,731.2709999046056,,response,,,,,,,,,1,,1,click #choice-1,,,,,S,I,O,,316488.6999999285,316487.59999990463,315739.663,315742.09999990463,315756.329,316489.732,,,
Trial,flow.Sequence,1_3_4,2022-04-25T14:51:06.220Z,,,,,,,,,,,,,,,,,,,,,,,,,,,,,,,4981.102999904659,,completion,,,,,,,,,1,,,,,,,,S,I,O,,316489,316487.59999990463,311489.831,311499.2999999523,311506.497,316489.732,,,
Sounds,html.Screen,1_3_5_0,2022-04-25T14:51:10.455Z,,,,,,,,,,,,,,,,,,,,,,,,,,,,,,,4249.8369999999995,,timeout,,,,,,,,,3,,,,,,,,I,O,S,,320724.2999999523,320722.903,316473.066,316489.2999999523,316489.732,320739.569,,,
Judgement,html.Screen,1_3_5_1,2022-04-25T14:51:11.270Z,,,,,,,,,,,,,,,,,,,,,,,,,,,,true,3,,798.8309999761404,,response,,,,,,,,,3,,3,click #choice-3,,,,,I,O,S,,321539.1999999285,321538.39999997616,320722.903,320724.5,320739.569,321539.799,,,
Trial,flow.Sequence,1_3_5,2022-04-25T14:51:11.270Z,,,,,,,,,,,,,,,,,,,,,,,,,,,,,,,5048.66799997614,,completion,,,,,,,,,3,,,,,,,,I,O,S,,321539.5,321538.39999997616,316473.066,316489.1999999285,316489.732,321539.799,,,
Task,flow.Loop,1_3,2022-04-25T14:51:11.277Z,,,,,,,,,,,,,,,,,,,,,,,,,,,,,,,30631.739999976184,,completion,,,1,,,,,,,,,,,,,,,,,,321546.1999999285,321538.39999997616,290889.994,290876.89999997616,290906.66,321539.799,,,
Trap,html.Screen,1_4,2022-04-25T14:51:11.279Z,,,,,,,,,,,,,,,,,,,,,,,,,,,,,,,NaN,,skipped,,,,,,,,,,,,,,,,,,,,,321548.09999990463,321538.39999997616,,321547.89999997616,,321539.799,,,
Thanks,html.Screen,1_5,2022-04-25T14:51:15.353Z,,,,,,,,,,,,,,,,,,,,,,,,,,,,,,,4082.3009999046335,,response,,,,,,,,,,,continue,click button,,,,,,,,,325622.89999997616,325622.09999990463,321523.133,321548.1999999285,321539.799,328889.572,,,
Headphone screening,flow.Sequence,1,2022-04-25T14:51:15.354Z,,,,,,,,,,,,,,,,,,,,,,,,,,,,,,,208714.37499990463,,completion,,,,,,,,,,,,,,,,,,,,,325623.09999990463,325622.09999990463,116891.059,116896.5,116907.725,328889.572,,,
Instructions,html.Page,2_0,2022-04-25T14:55:54.962Z,,,,,,,,,,,,,,,,,,,,,,,,,,,,,,,276340.928,,form submission,,,,,,,,,,,,,,,,,,,,,605230.8999999762,605230.5,328872.906,328884.6999999285,328889.572,605254.526,,,
Holding screen,html.Screen,2_1_0_0,2022-04-25T14:56:04.971Z,,,,,,,,,,,,,,,,,,,,,,,,,,,,,,,10016.552000000025,,timeout,,,,,,,,,,,,,,,,,,,,,615240.0999999046,615237.746,605237.86,605231.1999999285,605254.526,615271.078,,,
screen,html.Screen,2_1_0_1_0,2022-04-25T14:56:06.314Z,,,,,,,,,,,,,,,,,53,,,,,,,,,,,,,,1305.021999904653,,response,,,,99,,,,,,,Space,keypress(Space),,,,,,,,When -- ----- -- ------ - ------- --- ----------<br>------------- ------ ------ ---- ---- ------- ----- -- ----<br>-------- ------- -- ---------- --- - --- ----- ----- ----<br>---- --- --- ----- --- ---- ---- ------- ----- ---- -------<br>--- --- -- ----- -- --- ---- -- --- ---- -- ------ ------<br>--- ----- -- ----,616583.3999999762,616576.0999999046,615237.746,615240.5999999046,615271.078,616587.794,,0,When
screen,html.Screen,2_1_0_1_1,2022-04-25T14:56:06.933Z,,,,,,,,,,,,,,,,,53,,,,,,,,,,,,,,612.7060000000056,,response,,,,99,,,,,,,Space,keypress(Space),,,,,,,,---- it ----- -- ------ - ------- --- ----------<br>------------- ------ ------ ---- ---- ------- ----- -- ----<br>-------- ------- -- ---------- --- - --- ----- ----- ----<br>---- --- --- ----- --- ---- ---- ------- ----- ---- -------<br>--- --- -- ----- -- --- ---- -- --- ---- -- ------ ------<br>--- ----- -- ----,617202.0999999046,617200.5,616571.128,616584,616587.794,617204.397,,1,it
screen,html.Screen,2_1_0_1_2,2022-04-25T14:56:07.532Z,,,,,,,,,,,,,,,,,53,,,,,,,,,,,,,,595.3029999284772,,response,,,,99,,,,,,,Space,keypress(Space),,,,,,,,---- -- comes -- ------ - ------- --- ----------<br>------------- ------ ------ ---- ---- ------- ----- -- ----<br>-------- ------- -- ---------- --- - --- ----- ----- ----<br>---- --- --- ----- --- ---- ---- ------- ----- ---- -------<br>--- --- -- ----- -- --- ---- -- --- ---- -- ------ ------<br>--- ----- -- ----,617801.1999999285,617799.6999999285,617187.731,617202.5999999046,617204.397,617804.44,,2,comes
screen,html.Screen,2_1_0_1_3,2022-04-25T14:56:08.012Z,,,,,,,,,,,,,,,,,53,,,,,,,,,,,,,,475.2599999285303,,response,,,,99,,,,,,,Space,keypress(Space),,,,,,,,---- -- ----- to ------ - ------- --- ----------<br>------------- ------ ------ ---- ---- ------- ----- -- ----<br>-------- ------- -- ---------- --- - --- ----- ----- ----<br>---- --- --- ----- --- ---- ---- ------- ----- ---- -------<br>--- --- -- ----- -- --- ---- -- --- ---- -- ------ ------<br>--- ----- -- ----,618281.0999999046,618279.6999999285,617787.774,617801.5,617804.44,618287.746,,3,to
screen,html.Screen,2_1_0_1_4,2022-04-25T14:56:08.524Z,,,,,,,,,,,,,,,,,53,,,,,,,,,,,,,,503.9539999284316,,response,,,,99,,,,,,,Space,keypress(Space),,,,,,,,---- -- ----- -- having - ------- --- ----------<br>------------- ------ ------ ---- ---- ------- ----- -- ----<br>-------- ------- -- ---------- --- - --- ----- ----- ----<br>---- --- --- ----- --- ---- ---- ------- ----- ---- -------<br>--- --- -- ----- -- --- ---- -- --- ---- -- ------ ------<br>--- ----- -- ----,618793.0999999046,618791.6999999285,618271.08,618281.5,618287.746,618804.44,,4,having
screen,html.Screen,2_1_0_1_5,2022-04-25T14:56:09.068Z,,,,,,,,,,,,,,,,,53,,,,,,,,,,,,,,531.2599999285303,,response,,,,99,,,,,,,Space,keypress(Space),,,,,,,,---- -- ----- -- ------ a ------- --- ----------<br>------------- ------ ------ ---- ---- ------- ----- -- ----<br>-------- ------- -- ---------- --- - --- ----- ----- ----<br>---- --- --- ----- --- ---- ---- ------- ----- ---- -------<br>--- --- -- ----- -- --- ---- -- --- ---- -- ------ ------<br>--- ----- -- ----,619337.5,619335.6999999285,618787.774,618793.5,618804.44,619354.471,,5,a
screen,html.Screen,2_1_0_1_6,2022-04-25T14:56:09.676Z,,,,,,,,,,,,,,,,,53,,,,,,,,,,,,,,589.2289999284549,,response,,,,99,,,,,,,Space,keypress(Space),,,,,,,,---- -- ----- -- ------ - lasting --- ----------<br>------------- ------ ------ ---- ---- ------- ----- -- ----<br>-------- ------- -- ---------- --- - --- ----- ----- ----<br>---- --- --- ----- --- ---- ---- ------- ----- ---- -------<br>--- --- -- ----- -- --- ---- -- --- ---- -- ------ ------<br>--- ----- -- ----,619945.0999999046,619943.6999999285,619337.805,619338.0999999046,619354.471,619954.424,,6,lasting
screen,html.Screen,2_1_0_1_7,2022-04-25T14:56:10.236Z,,,,,,,,,,,,,,,,,53,,,,,,,,,,,,,,549.2759999284754,,response,,,,99,,,,,,,Space,keypress(Space),,,,,,,,---- -- ----- -- ------ - ------- and ----------<br>------------- ------ ------ ---- ---- ------- ----- -- ----<br>-------- ------- -- ---------- --- - --- ----- ----- ----<br>---- --- --- ----- --- ---- ---- ------- ----- ---- -------<br>--- --- -- ----- -- --- ---- -- --- ---- -- ------ ------<br>--- ----- -- ----,620505.1999999285,620503.6999999285,619937.758,619945.3999999762,619954.424,620521.089,,7,and
screen,html.Screen,2_1_0_1_8,2022-04-25T14:56:10.908Z,,,,,,,,,,,,,,,,,53,,,,,,,,,,,,,,654.6109999284381,,response,,,,99,,,,,,,Space,keypress(Space),,,,,,,,---- -- ----- -- ------ - ------- --- fulfilling<br>------------- ------ ------ ---- ---- ------- ----- -- ----<br>-------- ------- -- ---------- --- - --- ----- ----- ----<br>---- --- --- ----- --- ---- ---- ------- ----- ---- -------<br>--- --- -- ----- -- --- ---- -- --- ---- -- ------ ------<br>--- ----- -- ----,621177,621175.6999999285,620504.423,620505.5,620521.089,621187.744,,8,fulfilling
screen,html.Screen,2_1_0_1_9,2022-04-25T14:56:11.772Z,,,,,,,,,,,,,,,,,53,,,,,,,,,,,,,,851.9559999285266,,response,,,,99,,,,,,,Space,keypress(Space),,,,,,,,"---- -- ----- -- ------ - ------- --- ----------<br>relationship, ------ ------ ---- ---- ------- ----- -- ----<br>-------- ------- -- ---------- --- - --- ----- ----- ----<br>---- --- --- ----- --- ---- ---- ------- ----- ---- -------<br>--- --- -- ----- -- --- ---- -- --- ---- -- ------ ------<br>--- ----- -- ----",622041,622039.6999999285,621171.078,621177.2999999523,621187.744,622054.457,,9,"relationship,"
screen,html.Screen,2_1_0_1_10,2022-04-25T14:56:12.492Z,,,,,,,,,,,,,,,,,53,,,,,,,,,,,,,,705.2429999284213,,response,,,,99,,,,,,,Space,keypress(Space),,,,,,,,---- -- ----- -- ------ - ------- --- ----------<br>------------- common ------ ---- ---- ------- ----- -- ----<br>-------- ------- -- ---------- --- - --- ----- ----- ----<br>---- --- --- ----- --- ---- ---- ------- ----- ---- -------<br>--- --- -- ----- -- --- ---- -- --- ---- -- ------ ------<br>--- ----- -- ----,622761,622759.6999999285,622037.791,622041.2999999523,622054.457,622771.102,,10,common
screen,html.Screen,2_1_0_1_11,2022-04-25T14:56:13.084Z,,,,,,,,,,,,,,,,,53,,,,,,,,,,,,,,580.5979999285191,,response,,,,99,,,,,,,Space,keypress(Space),,,,,,,,---- -- ----- -- ------ - ------- --- ----------<br>------------- ------ wisdom ---- ---- ------- ----- -- ----<br>-------- ------- -- ---------- --- - --- ----- ----- ----<br>---- --- --- ----- --- ---- ---- ------- ----- ---- -------<br>--- --- -- ----- -- --- ---- -- --- ---- -- ------ ------<br>--- ----- -- ----,623353.1999999285,623351.6999999285,622754.436,622761.3999999762,622771.102,623371.104,,11,wisdom
screen,html.Screen,2_1_0_1_12,2022-04-25T14:56:13.652Z,,,,,,,,,,,,,,,,,53,,,,,,,,,,,,,,548.4959999045823,,response,,,,99,,,,,,,Space,keypress(Space),,,,,,,,---- -- ----- -- ------ - ------- --- ----------<br>------------- ------ ------ says ---- ------- ----- -- ----<br>-------- ------- -- ---------- --- - --- ----- ----- ----<br>---- --- --- ----- --- ---- ---- ------- ----- ---- -------<br>--- --- -- ----- -- --- ---- -- --- ---- -- ------ ------<br>--- ----- -- ----,623921,623919.5999999046,623354.438,623353.5,623371.104,623937.785,,12,says
screen,html.Screen,2_1_0_1_13,2022-04-25T14:56:14.292Z,,,,,,,,,,,,,,,,,53,,,,,,,,,,,,,,621.9149999284418,,response,,,,99,,,,,,,Space,keypress(Space),,,,,,,,---- -- ----- -- ------ - ------- --- ----------<br>------------- ------ ------ ---- that ------- ----- -- ----<br>-------- ------- -- ---------- --- - --- ----- ----- ----<br>---- --- --- ----- --- ---- ---- ------- ----- ---- -------<br>--- --- -- ----- -- --- ---- -- --- ---- -- ------ ------<br>--- ----- -- ----,624561,624559.6999999285,623921.119,623921.2999999523,623937.785,624571.1,,13,that
screen,html.Screen,2_1_0_1_14,2022-04-25T14:56:14.748Z,,,,,,,,,,,,,,,,,53,,,,,,,,,,,,,,444.49999990465585,,response,,,,99,,,,,,,Space,keypress(Space),,,,,,,,---- -- ----- -- ------ - ------- --- ----------<br>------------- ------ ------ ---- ---- feeling ----- -- ----<br>-------- ------- -- ---------- --- - --- ----- ----- ----<br>---- --- --- ----- --- ---- ---- ------- ----- ---- -------<br>--- --- -- ----- -- --- ---- -- --- ---- -- ------ ------<br>--- ----- -- ----,625017,625015.5999999046,624554.434,624561.3999999762,624571.1,625021.117,,14,feeling
screen,html.Screen,2_1_0_1_15,2022-04-25T14:56:15.396Z,,,,,,,,,,,,,,,,,53,,,,,,,,,,,,,,642.5829999285052,,response,,,,99,,,,,,,Space,keypress(Space),,,,,,,,---- -- ----- -- ------ - ------- --- ----------<br>------------- ------ ------ ---- ---- ------- close -- ----<br>-------- ------- -- ---------- --- - --- ----- ----- ----<br>---- --- --- ----- --- ---- ---- ------- ----- ---- -------<br>--- --- -- ----- -- --- ---- -- --- ---- -- ------ ------<br>--- ----- -- ----,625665.0999999046,625663.6999999285,625004.451,625017.3999999762,625021.117,625671.093,,15,close
screen,html.Screen,2_1_0_1_16,2022-04-25T14:56:15.796Z,,,,,,,,,,,,,,,,,53,,,,,,,,,,,,,,392.60699992848095,,response,,,,99,,,,,,,Space,keypress(Space),,,,,,,,---- -- ----- -- ------ - ------- --- ----------<br>------------- ------ ------ ---- ---- ------- ----- to ----<br>-------- ------- -- ---------- --- - --- ----- ----- ----<br>---- --- --- ----- --- ---- ---- ------- ----- ---- -------<br>--- --- -- ----- -- --- ---- -- --- ---- -- ------ ------<br>--- ----- -- ----,626065.1999999285,626063.6999999285,625654.427,625665.5,625671.093,626071.105,,16,to
screen,html.Screen,2_1_0_1_17,2022-04-25T14:56:16.236Z,,,,,,,,,,,,,,,,,53,,,,,,,,,,,,,,432.59499992849305,,response,,,,99,,,,,,,Space,keypress(Space),,,,,,,,---- -- ----- -- ------ - ------- --- ----------<br>------------- ------ ------ ---- ---- ------- ----- -- your<br>-------- ------- -- ---------- --- - --- ----- ----- ----<br>---- --- --- ----- --- ---- ---- ------- ----- ---- -------<br>--- --- -- ----- -- --- ---- -- --- ---- -- ------ ------<br>--- ----- -- ----,626505.5999999046,626503.6999999285,626054.439,626065.5,626071.105,626521.103,,17,your
screen,html.Screen,2_1_0_1_18,2022-04-25T14:56:16.684Z,,,,,,,,,,,,,,,,,53,,,,,,,,,,,,,,431.09699992847163,,response,,,,99,,,,,,,Space,keypress(Space),,,,,,,,---- -- ----- -- ------ - ------- --- ----------<br>------------- ------ ------ ---- ---- ------- ----- -- ----<br>romantic ------- -- ---------- --- - --- ----- ----- ----<br>---- --- --- ----- --- ---- ---- ------- ----- ---- -------<br>--- --- -- ----- -- --- ---- -- --- ---- -- ------ ------<br>--- ----- -- ----,626953.3999999762,626952.1999999285,626504.437,626505.8999999762,626521.103,626971.068,,18,romantic
screen,html.Screen,2_1_0_1_19,2022-04-25T14:56:17.164Z,,,,,,,,,,,,,,,,,53,,,,,,,,,,,,,,460.63199992850423,,response,,,,99,,,,,,,Space,keypress(Space),,,,,,,,---- -- ----- -- ------ - ------- --- ----------<br>------------- ------ ------ ---- ---- ------- ----- -- ----<br>-------- partner -- ---------- --- - --- ----- ----- ----<br>---- --- --- ----- --- ---- ---- ------- ----- ---- -------<br>--- --- -- ----- -- --- ---- -- --- ---- -- ------ ------<br>--- ----- -- ----,627433,627431.6999999285,626954.402,626953.7999999523,626971.068,627437.761,,19,partner
screen,html.Screen,2_1_0_1_20,2022-04-25T14:56:17.516Z,,,,,,,,,,,,,,,,,53,,,,,,,,,,,,,,346.0389999522595,,response,,,,99,,,,,,,Space,keypress(Space),,,,,,,,---- -- ----- -- ------ - ------- --- ----------<br>------------- ------ ------ ---- ---- ------- ----- -- ----<br>-------- ------- is ---------- --- - --- ----- ----- ----<br>---- --- --- ----- --- ---- ---- ------- ----- ---- -------<br>--- --- -- ----- -- --- ---- -- --- ---- -- ------ ------<br>--- ----- -- ----,627785.0999999046,627783.7999999523,627421.095,627433.2999999523,627437.761,627787.714,,20,is
screen,html.Screen,2_1_0_1_21,2022-04-25T14:56:18.034Z,,,,,,,,,,,,,,,,,53,,,,,,,,,,,,,,514.9859999284381,,response,,,,99,,,,,,,Space,keypress(Space),,,,,,,,---- -- ----- -- ------ - ------- --- ----------<br>------------- ------ ------ ---- ---- ------- ----- -- ----<br>-------- ------- -- paramount. --- - --- ----- ----- ----<br>---- --- --- ----- --- ---- ---- ------- ----- ---- -------<br>--- --- -- ----- -- --- ---- -- --- ---- -- ------ ------<br>--- ----- -- ----,628303.2999999523,628302.6999999285,627771.048,627785.5,627787.714,628304.395,,21,paramount.
screen,html.Screen,2_1_0_1_22,2022-04-25T14:56:19.220Z,,,,,,,,,,,,,,,,,53,,,,,,,,,,,,,,1183.3049999284558,,response,,,,99,,,,,,,Space,keypress(Space),,,,,,,,---- -- ----- -- ------ - ------- --- ----------<br>------------- ------ ------ ---- ---- ------- ----- -- ----<br>-------- ------- -- ---------- But - --- ----- ----- ----<br>---- --- --- ----- --- ---- ---- ------- ----- ---- -------<br>--- --- -- ----- -- --- ---- -- --- ---- -- ------ ------<br>--- ----- -- ----,629489.0999999046,629487.6999999285,628287.729,628303.3999999762,628304.395,629504.332,,22,But
screen,html.Screen,2_1_0_1_23,2022-04-25T14:56:19.652Z,,,,,,,,,,,,,,,,,53,,,,,,,,,,,,,,415.2679999045795,,response,,,,99,,,,,,,Space,keypress(Space),,,,,,,,---- -- ----- -- ------ - ------- --- ----------<br>------------- ------ ------ ---- ---- ------- ----- -- ----<br>-------- ------- -- ---------- --- a --- ----- ----- ----<br>---- --- --- ----- --- ---- ---- ------- ----- ---- -------<br>--- --- -- ----- -- --- ---- -- --- ---- -- ------ ------<br>--- ----- -- ----,629921.1999999285,629919.5999999046,629487.666,629489.5,629504.332,629937.73,,23,a
screen,html.Screen,2_1_0_1_24,2022-04-25T14:56:20.098Z,,,,,,,,,,,,,,,,,53,,,,,,,,,,,,,,429.2700000000186,,response,,,,99,,,,,,,Space,keypress(Space),,,,,,,,---- -- ----- -- ------ - ------- --- ----------<br>------------- ------ ------ ---- ---- ------- ----- -- ----<br>-------- ------- -- ---------- --- - new ----- ----- ----<br>---- --- --- ----- --- ---- ---- ------- ----- ---- -------<br>--- --- -- ----- -- --- ---- -- --- ---- -- ------ ------<br>--- ----- -- ----,630367.7999999523,630367,629921.064,629921.5,629937.73,630371.033,,24,new
screen,html.Screen,2_1_0_1_25,2022-04-25T14:56:20.596Z,,,,,,,,,,,,,,,,,53,,,,,,,,,,,,,,492.76699995226227,,response,,,,99,,,,,,,Space,keypress(Space),,,,,,,,---- -- ----- -- ------ - ------- --- ----------<br>------------- ------ ------ ---- ---- ------- ----- -- ----<br>-------- ------- -- ---------- --- - --- study ----- ----<br>---- --- --- ----- --- ---- ---- ------- ----- ---- -------<br>--- --- -- ----- -- --- ---- -- --- ---- -- ------ ------<br>--- ----- -- ----,630865.1999999285,630863.7999999523,630354.367,630368,630371.033,630871.035,,25,study
screen,html.Screen,2_1_0_1_26,2022-04-25T14:56:21.460Z,,,,,,,,,,,,,,,,,53,,,,,,,,,,,,,,856.5649999046,,response,,,,99,,,,,,,Space,keypress(Space),,,,,,,,---- -- ----- -- ------ - ------- --- ----------<br>------------- ------ ------ ---- ---- ------- ----- -- ----<br>-------- ------- -- ---------- --- - --- ----- finds ----<br>---- --- --- ----- --- ---- ---- ------- ----- ---- -------<br>--- --- -- ----- -- --- ---- -- --- ---- -- ------ ------<br>--- ----- -- ----,631729.1999999285,631727.5999999046,630854.369,630865.5,630871.035,631737.719,,26,finds
screen,html.Screen,2_1_0_1_27,2022-04-25T14:56:22.027Z,,,,,,,,,,,,,,,,,53,,,,,,,,,,,,,,557.780999999959,,response,,,,99,,,,,,,Space,keypress(Space),,,,,,,,---- -- ----- -- ------ - ------- --- ----------<br>------------- ------ ------ ---- ---- ------- ----- -- ----<br>-------- ------- -- ---------- --- - --- ----- ----- that<br>---- --- --- ----- --- ---- ---- ------- ----- ---- -------<br>--- --- -- ----- -- --- ---- -- --- ---- -- ------ ------<br>--- ----- -- ----,632296.8999999762,632295.5,631721.053,631729.5999999046,631737.719,632304.388,,27,that
screen,html.Screen,2_1_0_1_28,2022-04-25T14:56:24.876Z,,,,,,,,,,,,,,,,,53,,,,,,,,,,,,,,2839.211999904597,,response,,,,99,,,,,,,Space,keypress(Space),,,,,,,,---- -- ----- -- ------ - ------- --- ----------<br>------------- ------ ------ ---- ---- ------- ----- -- ----<br>-------- ------- -- ---------- --- - --- ----- ----- ----<br>it's --- --- ----- --- ---- ---- ------- ----- ---- -------<br>--- --- -- ----- -- --- ---- -- --- ---- -- ------ ------<br>--- ----- -- ----,635144.8999999762,635143.5999999046,632287.722,632297.1999999285,632304.388,635154.298,,28,it's
screen,html.Screen,2_1_0_1_29,2022-04-25T14:56:25.492Z,,,,,,,,,,,,,,,,,53,,,,,,,,,,,,,,605.301999904681,,response,,,,99,,,,,,,Space,keypress(Space),,,,,,,,---- -- ----- -- ------ - ------- --- ----------<br>------------- ------ ------ ---- ---- ------- ----- -- ----<br>-------- ------- -- ---------- --- - --- ----- ----- ----<br>---- not --- ----- --- ---- ---- ------- ----- ---- -------<br>--- --- -- ----- -- --- ---- -- --- ---- -- ------ ------<br>--- ----- -- ----,635761,635759.5999999046,635137.632,635145.2999999523,635154.298,635771.012,,29,not
screen,html.Screen,2_1_0_1_30,2022-04-25T14:56:25.988Z,,,,,,,,,,,,,,,,,53,,,,,,,,,,,,,,484.4880000000121,,response,,,,99,,,,,,,Space,keypress(Space),,,,,,,,---- -- ----- -- ------ - ------- --- ----------<br>------------- ------ ------ ---- ---- ------- ----- -- ----<br>-------- ------- -- ---------- --- - --- ----- ----- ----<br>---- --- how ----- --- ---- ---- ------- ----- ---- -------<br>--- --- -- ----- -- --- ---- -- --- ---- -- ------ ------<br>--- ----- -- ----,636257.0999999046,636255.5,635754.346,635761.2999999523,635771.012,636270.986,,30,how
screen,html.Screen,2_1_0_1_31,2022-04-25T14:56:26.451Z,,,,,,,,,,,,,,,,,53,,,,,,,,,,,,,,448.61399990459904,,response,,,,99,,,,,,,Space,keypress(Space),,,,,,,,---- -- ----- -- ------ - ------- --- ----------<br>------------- ------ ------ ---- ---- ------- ----- -- ----<br>-------- ------- -- ---------- --- - --- ----- ----- ----<br>---- --- --- close --- ---- ---- ------- ----- ---- -------<br>--- --- -- ----- -- --- ---- -- --- ---- -- ------ ------<br>--- ----- -- ----,636720.8999999762,636719.5999999046,636254.32,636257.3999999762,636270.986,636737.663,,31,close
screen,html.Screen,2_1_0_1_32,2022-04-25T14:56:26.876Z,,,,,,,,,,,,,,,,,53,,,,,,,,,,,,,,406.53699992853217,,response,,,,99,,,,,,,Space,keypress(Space),,,,,,,,---- -- ----- -- ------ - ------- --- ----------<br>------------- ------ ------ ---- ---- ------- ----- -- ----<br>-------- ------- -- ---------- --- - --- ----- ----- ----<br>---- --- --- ----- you ---- ---- ------- ----- ---- -------<br>--- --- -- ----- -- --- ---- -- --- ---- -- ------ ------<br>--- ----- -- ----,637145.5999999046,637144.1999999285,636720.997,636721.2999999523,636737.663,637154.344,,32,you
screen,html.Screen,2_1_0_1_33,2022-04-25T14:56:27.147Z,,,,,,,,,,,,,,,,,53,,,,,,,,,,,,,,261.155999999959,,response,,,,99,,,,,,,Space,keypress(Space),,,,,,,,---- -- ----- -- ------ - ------- --- ----------<br>------------- ------ ------ ---- ---- ------- ----- -- ----<br>-------- ------- -- ---------- --- - --- ----- ----- ----<br>---- --- --- ----- --- feel ---- ------- ----- ---- -------<br>--- --- -- ----- -- --- ---- -- --- ---- -- ------ ------<br>--- ----- -- ----,637416.7999999523,637415.5,637137.678,637146,637154.344,637421.044,,33,feel
screen,html.Screen,2_1_0_1_34,2022-04-25T14:56:27.596Z,,,,,,,,,,,,,,,,,53,,,,,,,,,,,,,,442.55599990463816,,response,,,,99,,,,,,,Space,keypress(Space),,,,,,,,---- -- ----- -- ------ - ------- --- ----------<br>------------- ------ ------ ---- ---- ------- ----- -- ----<br>-------- ------- -- ---------- --- - --- ----- ----- ----<br>---- --- --- ----- --- ---- that ------- ----- ---- -------<br>--- --- -- ----- -- --- ---- -- --- ---- -- ------ ------<br>--- ----- -- ----,637865.0999999046,637863.5999999046,637404.378,637417.1999999285,637421.044,637871.008,,34,that
screen,html.Screen,2_1_0_1_35,2022-04-25T14:56:27.867Z,,,,,,,,,,,,,,,,,53,,,,,,,,,,,,,,264.49199999996927,,response,,,,99,,,,,,,Space,keypress(Space),,,,,,,,---- -- ----- -- ------ - ------- --- ----------<br>------------- ------ ------ ---- ---- ------- ----- -- ----<br>-------- ------- -- ---------- --- - --- ----- ----- ----<br>---- --- --- ----- --- ---- ---- matters ----- ---- -------<br>--- --- -- ----- -- --- ---- -- --- ---- -- ------ ------<br>--- ----- -- ----,638136.7999999523,638135.5,637854.342,637865.5,637871.008,638154.363,,35,matters
screen,html.Screen,2_1_0_1_36,2022-04-25T14:56:29.579Z,,,,,,,,,,,,,,,,,53,,,,,,,,,,,,,,1692.9369999523042,,response,,,,99,,,,,,,Space,keypress(Space),,,,,,,,"---- -- ----- -- ------ - ------- --- ----------<br>------------- ------ ------ ---- ---- ------- ----- -- ----<br>-------- ------- -- ---------- --- - --- ----- ----- ----<br>---- --- --- ----- --- ---- ---- ------- most, ---- -------<br>--- --- -- ----- -- --- ---- -- --- ---- -- ------ ------<br>--- ----- -- ----",639848.3999999762,639847.2999999523,638137.697,638137.1999999285,638154.363,639870.971,,36,"most,"
screen,html.Screen,2_1_0_1_37,2022-04-25T14:56:29.964Z,,,,,,,,,,,,,,,,,53,,,,,,,,,,,,,,360.628999904613,,response,,,,99,,,,,,,Space,keypress(Space),,,,,,,,---- -- ----- -- ------ - ------- --- ----------<br>------------- ------ ------ ---- ---- ------- ----- -- ----<br>-------- ------- -- ---------- --- - --- ----- ----- ----<br>---- --- --- ----- --- ---- ---- ------- ----- it's -------<br>--- --- -- ----- -- --- ---- -- --- ---- -- ------ ------<br>--- ----- -- ----,640232.8999999762,640231.5999999046,639854.305,639848.7999999523,639870.971,640237.589,,37,it's
screen,html.Screen,2_1_0_1_38,2022-04-25T14:56:30.452Z,,,,,,,,,,,,,,,,,53,,,,,,,,,,,,,,481.9109999999637,,response,,,,99,,,,,,,Space,keypress(Space),,,,,,,,---- -- ----- -- ------ - ------- --- ----------<br>------------- ------ ------ ---- ---- ------- ----- -- ----<br>-------- ------- -- ---------- --- - --- ----- ----- ----<br>---- --- --- ----- --- ---- ---- ------- ----- ---- whether<br>--- --- -- ----- -- --- ---- -- --- ---- -- ------ ------<br>--- ----- -- ----,640720.8999999762,640719.5,640220.923,640233.2999999523,640237.589,640737.682,,38,whether
screen,html.Screen,2_1_0_1_39,2022-04-25T14:56:30.860Z,,,,,,,,,,,,,,,,,53,,,,,,,,,,,,,,389.91799990460277,,response,,,,99,,,,,,,Space,keypress(Space),,,,,,,,---- -- ----- -- ------ - ------- --- ----------<br>------------- ------ ------ ---- ---- ------- ----- -- ----<br>-------- ------- -- ---------- --- - --- ----- ----- ----<br>---- --- --- ----- --- ---- ---- ------- ----- ---- -------<br>you --- -- ----- -- --- ---- -- --- ---- -- ------ ------<br>--- ----- -- ----,641129,641127.5999999046,640721.016,640721.2999999523,640737.682,641137.66,,39,you
screen,html.Screen,2_1_0_1_40,2022-04-25T14:56:31.188Z,,,,,,,,,,,,,,,,,53,,,,,,,,,,,,,,317.9399999046,,response,,,,99,,,,,,,Space,keypress(Space),,,,,,,,---- -- ----- -- ------ - ------- --- ----------<br>------------- ------ ------ ---- ---- ------- ----- -- ----<br>-------- ------- -- ---------- --- - --- ----- ----- ----<br>---- --- --- ----- --- ---- ---- ------- ----- ---- -------<br>--- are -- ----- -- --- ---- -- --- ---- -- ------ ------<br>--- ----- -- ----,641457.0999999046,641455.5999999046,641120.994,641129.3999999762,641137.66,641471.016,,40,are
screen,html.Screen,2_1_0_1_41,2022-04-25T14:56:31.676Z,,,,,,,,,,,,,,,,,53,,,,,,,,,,,,,,472.6839999285294,,response,,,,99,,,,,,,Space,keypress(Space),,,,,,,,---- -- ----- -- ------ - ------- --- ----------<br>------------- ------ ------ ---- ---- ------- ----- -- ----<br>-------- ------- -- ---------- --- - --- ----- ----- ----<br>---- --- --- ----- --- ---- ---- ------- ----- ---- -------<br>--- --- as ----- -- --- ---- -- --- ---- -- ------ ------<br>--- ----- -- ----,641945,641943.6999999285,641454.35,641457.5,641471.016,641954.234,,41,as
screen,html.Screen,2_1_0_1_42,2022-04-25T14:56:32.116Z,,,,,,,,,,,,,,,,,53,,,,,,,,,,,,,,429.3659999045776,,response,,,,99,,,,,,,Space,keypress(Space),,,,,,,,---- -- ----- -- ------ - ------- --- ----------<br>------------- ------ ------ ---- ---- ------- ----- -- ----<br>-------- ------- -- ---------- --- - --- ----- ----- ----<br>---- --- --- ----- --- ---- ---- ------- ----- ---- -------<br>--- --- -- close -- --- ---- -- --- ---- -- ------ ------<br>--- ----- -- ----,642385.0999999046,642383.5999999046,641937.568,641945.2999999523,641954.234,642387.651,,42,close
screen,html.Screen,2_1_0_1_43,2022-04-25T14:56:32.580Z,,,,,,,,,,,,,,,,,53,,,,,,,,,,,,,,459.9489999046782,,response,,,,99,,,,,,,Space,keypress(Space),,,,,,,,---- -- ----- -- ------ - ------- --- ----------<br>------------- ------ ------ ---- ---- ------- ----- -- ----<br>-------- ------- -- ---------- --- - --- ----- ----- ----<br>---- --- --- ----- --- ---- ---- ------- ----- ---- -------<br>--- --- -- ----- as --- ---- -- --- ---- -- ------ ------<br>--- ----- -- ----,642849.0999999046,642847.5999999046,642370.985,642385.5,642387.651,642854.278,,43,as
screen,html.Screen,2_1_0_1_44,2022-04-25T14:56:32.975Z,,,,,,,,,,,,,,,,,53,,,,,,,,,,,,,,385.22199999995064,,response,,,,99,,,,,,,Space,keypress(Space),,,,,,,,---- -- ----- -- ------ - ------- --- ----------<br>------------- ------ ------ ---- ---- ------- ----- -- ----<br>-------- ------- -- ---------- --- - --- ----- ----- ----<br>---- --- --- ----- --- ---- ---- ------- ----- ---- -------<br>--- --- -- ----- -- you ---- -- --- ---- -- ------ ------<br>--- ----- -- ----,643244.5999999046,643239.5,642837.612,642849.5,642854.278,643254.276,,44,you
screen,html.Screen,2_1_0_1_45,2022-04-25T14:56:33.332Z,,,,,,,,,,,,,,,,,53,,,,,,,,,,,,,,345.3239999046782,,response,,,,99,,,,,,,Space,keypress(Space),,,,,,,,---- -- ----- -- ------ - ------- --- ----------<br>------------- ------ ------ ---- ---- ------- ----- -- ----<br>-------- ------- -- ---------- --- - --- ----- ----- ----<br>---- --- --- ----- --- ---- ---- ------- ----- ---- -------<br>--- --- -- ----- -- --- want -- --- ---- -- ------ ------<br>--- ----- -- ----,643601,643599.5999999046,643237.61,643244.7999999523,643254.276,643604.284,,45,want
screen,html.Screen,2_1_0_1_46,2022-04-25T14:56:33.691Z,,,,,,,,,,,,,,,,,53,,,,,,,,,,,,,,355.31599990464747,,response,,,,99,,,,,,,Space,keypress(Space),,,,,,,,---- -- ----- -- ------ - ------- --- ----------<br>------------- ------ ------ ---- ---- ------- ----- -- ----<br>-------- ------- -- ---------- --- - --- ----- ----- ----<br>---- --- --- ----- --- ---- ---- ------- ----- ---- -------<br>--- --- -- ----- -- --- ---- to --- ---- -- ------ ------<br>--- ----- -- ----,643960.8999999762,643959.5999999046,643587.618,643601.2999999523,643604.284,643970.955,,46,to
screen,html.Screen,2_1_0_1_47,2022-04-25T14:56:34.147Z,,,,,,,,,,,,,,,,,53,,,,,,,,,,,,,,444.5450000000419,,response,,,,99,,,,,,,Space,keypress(Space),,,,,,,,"---- -- ----- -- ------ - ------- --- ----------<br>------------- ------ ------ ---- ---- ------- ----- -- ----<br>-------- ------- -- ---------- --- - --- ----- ----- ----<br>---- --- --- ----- --- ---- ---- ------- ----- ---- -------<br>--- --- -- ----- -- --- ---- -- be, ---- -- ------ ------<br>--- ----- -- ----",644416.8999999762,644415.5,643954.289,643961.1999999285,643970.955,644420.949,,47,"be,"
screen,html.Screen,2_1_0_1_48,2022-04-25T14:56:34.676Z,,,,,,,,,,,,,,,,,53,,,,,,,,,,,,,,522.7509999284521,,response,,,,99,,,,,,,Space,keypress(Space),,,,,,,,---- -- ----- -- ------ - ------- --- ----------<br>------------- ------ ------ ---- ---- ------- ----- -- ----<br>-------- ------- -- ---------- --- - --- ----- ----- ----<br>---- --- --- ----- --- ---- ---- ------- ----- ---- -------<br>--- --- -- ----- -- --- ---- -- --- even -- ------ ------<br>--- ----- -- ----,644945.0999999046,644943.6999999285,644404.283,644417.1999999285,644420.949,644954.321,,48,even
screen,html.Screen,2_1_0_1_49,2022-04-25T14:56:35.034Z,,,,,,,,,,,,,,,,,53,,,,,,,,,,,,,,348.57899997616187,,response,,,,99,,,,,,,Space,keypress(Space),,,,,,,,---- -- ----- -- ------ - ------- --- ----------<br>------------- ------ ------ ---- ---- ------- ----- -- ----<br>-------- ------- -- ---------- --- - --- ----- ----- ----<br>---- --- --- ----- --- ---- ---- ------- ----- ---- -------<br>--- --- -- ----- -- --- ---- -- --- ---- if ------ ------<br>--- ----- -- ----,645303.5999999046,645302.8999999762,644937.655,644945.5,644954.321,645320.986,,49,if
screen,html.Screen,2_1_0_1_50,2022-04-25T14:56:35.428Z,,,,,,,,,,,,,,,,,53,,,,,,,,,,,,,,374.61399990459904,,response,,,,99,,,,,,,Space,keypress(Space),,,,,,,,---- -- ----- -- ------ - ------- --- ----------<br>------------- ------ ------ ---- ---- ------- ----- -- ----<br>-------- ------- -- ---------- --- - --- ----- ----- ----<br>---- --- --- ----- --- ---- ---- ------- ----- ---- -------<br>--- --- -- ----- -- --- ---- -- --- ---- -- that's ------<br>--- ----- -- ----,645697,645695.5999999046,645304.32,645303.6999999285,645320.986,645704.279,,50,that's
screen,html.Screen,2_1_0_1_51,2022-04-25T14:56:35.891Z,,,,,,,,,,,,,,,,,53,,,,,,,,,,,,,,455.22100000001956,,response,,,,99,,,,,,,Space,keypress(Space),,,,,,,,---- -- ----- -- ------ - ------- --- ----------<br>------------- ------ ------ ---- ---- ------- ----- -- ----<br>-------- ------- -- ---------- --- - --- ----- ----- ----<br>---- --- --- ----- --- ---- ---- ------- ----- ---- -------<br>--- --- -- ----- -- --- ---- -- --- ---- -- ------ really<br>--- ----- -- ----,646160.7999999523,646159.5,645687.613,645697.2999999523,645704.279,646170.92,,51,really
screen,html.Screen,2_1_0_1_52,2022-04-25T14:56:36.308Z,,,,,,,,,,,,,,,,,53,,,,,,,,,,,,,,404.47999997611623,,response,,,,99,,,,,,,Space,keypress(Space),,,,,,,,---- -- ----- -- ------ - ------- --- ----------<br>------------- ------ ------ ---- ---- ------- ----- -- ----<br>-------- ------- -- ---------- --- - --- ----- ----- ----<br>---- --- --- ----- --- ---- ---- ------- ----- ---- -------<br>--- --- -- ----- -- --- ---- -- --- ---- -- ------ ------<br>not ----- -- ----,646576.8999999762,646575.3999999762,646154.254,646161.0999999046,646170.92,646587.586,,52,not
screen,html.Screen,2_1_0_1_53,2022-04-25T14:56:36.771Z,,,,,,,,,,,,,,,,,53,,,,,,,,,,,,,,451.91399999998976,,response,,,,99,,,,,,,Space,keypress(Space),,,,,,,,---- -- ----- -- ------ - ------- --- ----------<br>------------- ------ ------ ---- ---- ------- ----- -- ----<br>-------- ------- -- ---------- --- - --- ----- ----- ----<br>---- --- --- ----- --- ---- ---- ------- ----- ---- -------<br>--- --- -- ----- -- --- ---- -- --- ---- -- ------ ------<br>--- close -- ----,647040.8999999762,647039.5,646570.92,646577.2999999523,646587.586,647054.301,,53,close
screen,html.Screen,2_1_0_1_54,2022-04-25T14:56:38.276Z,,,,,,,,,,,,,,,,,53,,,,,,,,,,,,,,1489.798999904655,,response,,,,99,,,,,,,Space,keypress(Space),,,,,,,,---- -- ----- -- ------ - ------- --- ----------<br>------------- ------ ------ ---- ---- ------- ----- -- ----<br>-------- ------- -- ---------- --- - --- ----- ----- ----<br>---- --- --- ----- --- ---- ---- ------- ----- ---- -------<br>--- --- -- ----- -- --- ---- -- --- ---- -- ------ ------<br>--- ----- at ----,648545.5999999046,648544.0999999046,647037.635,647041.2999999523,647054.301,648554.254,,54,at
screen,html.Screen,2_1_0_1_55,2022-04-25T14:56:38.724Z,,,,,,,,,,,,,,,,,53,,,,,,,,,,,,,,437.94599992851727,,response,,,,99,,,,,,,Space,keypress(Space),,,,,,,,---- -- ----- -- ------ - ------- --- ----------<br>------------- ------ ------ ---- ---- ------- ----- -- ----<br>-------- ------- -- ---------- --- - --- ----- ----- ----<br>---- --- --- ----- --- ---- ---- ------- ----- ---- -------<br>--- --- -- ----- -- --- ---- -- --- ---- -- ------ ------<br>--- ----- -- all.,648993.6999999285,648992.1999999285,648537.588,648546,648554.254,649020.922,,55,all.
Item 99,flow.Loop,2_1_0_1,2022-04-25T14:56:38.725Z,,,,,,,,,,,,,,,,,,,,,,,,,,,,,,,33721.121999928495,,completion,,,,,A,,,,,,,,,,,silence,,,,,648994.5,648992.1999999285,615237.746,615240.5,615271.078,649020.922,,,
Question 1,html.Screen,2_1_0_2,2022-04-25T14:56:48.600Z,,,,,,,,,,,,,,,,,,,,,,,,,,,,true,FALSE,,9847.377999952296,,response,,,,99,A,,,,,,FALSE,click #choice-2,,,,silence,,,,,658869.2999999523,658868.2999999523,649004.256,648994.7999999523,649020.922,658870.794,,,
Question 2,html.Screen,2_1_0_3,2022-04-25T14:56:52.366Z,,,,,,,,,,,,,,,,,,,,,,,,,,,,true,TRUE,,3764.2060000000056,,response,,,,99,A,,,,,,TRUE,click #choice-1,,,,silence,,,,,662635.7999999523,662635,658854.128,658869.5,658870.794,662654.157,,,
Item 99,flow.Sequence,2_1_0,2022-04-25T14:56:52.367Z,,,,,,,,,,,,,,,,,,,,,,,,,,,,,,,57380.474000000046,,completion,,,,,,,,,,,,,,,,,,,,,662636,662635,605237.86,605231.0999999046,605254.526,662654.157,,,
Holding screen,html.Screen,2_1_1_0,2022-04-25T14:57:02.369Z,,,,,,,,,,,,,,,,,,,,,,,,,,,,,,,9999.956000000006,,timeout,,,,,,,,,,,,,,,,,,,,,672639.3999999762,672637.447,662637.491,662636.3999999762,662654.157,672654.113,,,
screen,html.Screen,2_1_1_1_0,2022-04-25T14:57:02.883Z,,,,,,,,,,,,,,,,,54,,,,,,,,,,,,,,497.98699990462046,,response,,,,100,,,,,,,Space,keypress(Space),,,,,,,,At --- ---- --- ------ ----- ------- ---- -- --- ------- --<br>------- ---------- ------ -- ----- -- ----- -- ---- ------<br>--- ----- --- --- ------ -------- ----- --- ------ ----- --<br>----- ----- ---------- --- --- ------ ------ ---- -- ------<br>------- --- ------ ----- --- ---- ------- -- ---- --- --<br>------- ------,673153.5,673152.0999999046,672637.447,672639.8999999762,672654.113,673170.715,,0,At
screen,html.Screen,2_1_1_1_1,2022-04-25T14:57:03.642Z,,,,,,,,,,,,,,,,,54,,,,,,,,,,,,,,740.5849999523489,,response,,,,100,,,,,,,Space,keypress(Space),,,,,,,,-- the ---- --- ------ ----- ------- ---- -- --- ------- --<br>------- ---------- ------ -- ----- -- ----- -- ---- ------<br>--- ----- --- --- ------ -------- ----- --- ------ ----- --<br>----- ----- ---------- --- --- ------ ------ ---- -- ------<br>------- --- ------ ----- --- ---- ------- -- ---- --- --<br>------- ------,673912.5,673911.2999999523,673154.049,673153.8999999762,673170.715,673920.669,,1,the
screen,html.Screen,2_1_1_1_2,2022-04-25T14:57:03.986Z,,,,,,,,,,,,,,,,,54,,,,,,,,,,,,,,334.6309999523219,,response,,,,100,,,,,,,Space,keypress(Space),,,,,,,,-- --- time --- ------ ----- ------- ---- -- --- ------- --<br>------- ---------- ------ -- ----- -- ----- -- ---- ------<br>--- ----- --- --- ------ -------- ----- --- ------ ----- --<br>----- ----- ---------- --- --- ------ ------ ---- -- ------<br>------- --- ------ ----- --- ---- ------- -- ---- --- --<br>------- ------,674256.5999999046,674255.2999999523,673904.003,673912.8999999762,673920.669,674270.727,,2,time
screen,html.Screen,2_1_1_1_3,2022-04-25T14:57:04.299Z,,,,,,,,,,,,,,,,,54,,,,,,,,,,,,,,296.572999952361,,response,,,,100,,,,,,,Space,keypress(Space),,,,,,,,-- --- ---- the ------ ----- ------- ---- -- --- ------- --<br>------- ---------- ------ -- ----- -- ----- -- ---- ------<br>--- ----- --- --- ------ -------- ----- --- ------ ----- --<br>----- ----- ---------- --- --- ------ ------ ---- -- ------<br>------- --- ------ ----- --- ---- ------- -- ---- --- --<br>------- ------,674568.7999999523,674567.2999999523,674254.061,674257,674270.727,674570.8,,3,the
screen,html.Screen,2_1_1_1_4,2022-04-25T14:57:04.779Z,,,,,,,,,,,,,,,,,54,,,,,,,,,,,,,,476.4999999522697,,response,,,,100,,,,,,,Space,keypress(Space),,,,,,,,-- --- ---- --- French ----- ------- ---- -- --- ------- --<br>------- ---------- ------ -- ----- -- ----- -- ---- ------<br>--- ----- --- --- ------ -------- ----- --- ------ ----- --<br>----- ----- ---------- --- --- ------ ------ ---- -- ------<br>------- --- ------ ----- --- ---- ------- -- ---- --- --<br>------- ------,675048.5999999046,675047.2999999523,674554.134,674569.0999999046,674570.8,675054.023,,4,French
screen,html.Screen,2_1_1_1_5,2022-04-25T14:57:05.076Z,,,,,,,,,,,,,,,,,54,,,,,,,,,,,,,,291.07699990458786,,response,,,,100,,,,,,,Space,keypress(Space),,,,,,,,-- --- ---- --- ------ crown ------- ---- -- --- ------- --<br>------- ---------- ------ -- ----- -- ----- -- ---- ------<br>--- ----- --- --- ------ -------- ----- --- ------ ----- --<br>----- ----- ---------- --- --- ------ ------ ---- -- ------<br>------- --- ------ ----- --- ---- ------- -- ---- --- --<br>------- ------,675346.5,675345.0999999046,675037.357,675049,675054.023,675354.121,,5,crown
screen,html.Screen,2_1_1_1_6,2022-04-25T14:57:05.586Z,,,,,,,,,,,,,,,,,54,,,,,,,,,,,,,,501.0789999284316,,response,,,,100,,,,,,,Space,keypress(Space),,,,,,,,-- --- ---- --- ------ ----- secured ---- -- --- ------- --<br>------- ---------- ------ -- ----- -- ----- -- ---- ------<br>--- ----- --- --- ------ -------- ----- --- ------ ----- --<br>----- ----- ---------- --- --- ------ ------ ---- -- ------<br>------- --- ------ ----- --- ---- ------- -- ---- --- --<br>------- ------,675856.5,675855.1999999285,675337.455,675346.7999999523,675354.121,675870.737,,6,secured
screen,html.Screen,2_1_1_1_7,2022-04-25T14:57:06.131Z,,,,,,,,,,,,,,,,,54,,,,,,,,,,,,,,528.6629999761935,,response,,,,100,,,,,,,Space,keypress(Space),,,,,,,,-- --- ---- --- ------ ----- ------- much -- --- ------- --<br>------- ---------- ------ -- ----- -- ----- -- ---- ------<br>--- ----- --- --- ------ -------- ----- --- ------ ----- --<br>----- ----- ---------- --- --- ------ ------ ---- -- ------<br>------- --- ------ ----- --- ---- ------- -- ---- --- --<br>------- ------,676400.7999999523,676399.3999999762,675854.071,675856.8999999762,675870.737,676404.032,,7,much
screen,html.Screen,2_1_1_1_8,2022-04-25T14:57:06.563Z,,,,,,,,,,,,,,,,,54,,,,,,,,,,,,,,427.3679999761516,,response,,,,100,,,,,,,Space,keypress(Space),,,,,,,,-- --- ---- --- ------ ----- ------- ---- of --- ------- --<br>------- ---------- ------ -- ----- -- ----- -- ---- ------<br>--- ----- --- --- ------ -------- ----- --- ------ ----- --<br>----- ----- ---------- --- --- ------ ------ ---- -- ------<br>------- --- ------ ----- --- ---- ------- -- ---- --- --<br>------- ------,676832.7999999523,676831.3999999762,676387.366,676401.0999999046,676404.032,676837.331,,8,of
screen,html.Screen,2_1_1_1_9,2022-04-25T14:57:06.891Z,,,,,,,,,,,,,,,,,54,,,,,,,,,,,,,,321.9689999523107,,response,,,,100,,,,,,,Space,keypress(Space),,,,,,,,-- --- ---- --- ------ ----- ------- ---- -- its ------- --<br>------- ---------- ------ -- ----- -- ----- -- ---- ------<br>--- ----- --- --- ------ -------- ----- --- ------ ----- --<br>----- ----- ---------- --- --- ------ ------ ---- -- ------<br>------- --- ------ ----- --- ---- ------- -- ---- --- --<br>------- ------,677160.6999999285,677159.2999999523,676820.665,676833.0999999046,676837.331,677170.732,,9,its
screen,html.Screen,2_1_1_1_10,2022-04-25T14:57:07.403Z,,,,,,,,,,,,,,,,,54,,,,,,,,,,,,,,500.6679999761982,,response,,,,100,,,,,,,Space,keypress(Space),,,,,,,,-- --- ---- --- ------ ----- ------- ---- -- --- revenue --<br>------- ---------- ------ -- ----- -- ----- -- ---- ------<br>--- ----- --- --- ------ -------- ----- --- ------ ----- --<br>----- ----- ---------- --- --- ------ ------ ---- -- ------<br>------- --- ------ ----- --- ---- ------- -- ---- --- --<br>------- ------,677672.6999999285,677671.3999999762,677154.066,677161.0999999046,677170.732,677687.346,,10,revenue
screen,html.Screen,2_1_1_1_11,2022-04-25T14:57:07.899Z,,,,,,,,,,,,,,,,,54,,,,,,,,,,,,,,479.85399992845487,,response,,,,100,,,,,,,Space,keypress(Space),,,,,,,,-- --- ---- --- ------ ----- ------- ---- -- --- ------- by<br>------- ---------- ------ -- ----- -- ----- -- ---- ------<br>--- ----- --- --- ------ -------- ----- --- ------ ----- --<br>----- ----- ---------- --- --- ------ ------ ---- -- ------<br>------- --- ------ ----- --- ---- ------- -- ---- --- --<br>------- ------,678168.5999999046,678167.1999999285,677670.68,677673.0999999046,677687.346,678170.768,,11,by
screen,html.Screen,2_1_1_1_12,2022-04-25T14:57:08.499Z,,,,,,,,,,,,,,,,,54,,,,,,,,,,,,,,596.6319999761181,,response,,,,100,,,,,,,Space,keypress(Space),,,,,,,,-- --- ---- --- ------ ----- ------- ---- -- --- ------- --<br>issuing ---------- ------ -- ----- -- ----- -- ---- ------<br>--- ----- --- --- ------ -------- ----- --- ------ ----- --<br>----- ----- ---------- --- --- ------ ------ ---- -- ------<br>------- --- ------ ----- --- ---- ------- -- ---- --- --<br>------- ------,678768.7999999523,678767.3999999762,678154.102,678168.8999999762,678170.768,678770.748,,12,issuing
screen,html.Screen,2_1_1_1_13,2022-04-25T14:57:09.043Z,,,,,,,,,,,,,,,,,54,,,,,,,,,,,,,,540.5519999522949,,response,,,,100,,,,,,,Space,keypress(Space),,,,,,,,-- --- ---- --- ------ ----- ------- ---- -- --- ------- --<br>------- government ------ -- ----- -- ----- -- ---- ------<br>--- ----- --- --- ------ -------- ----- --- ------ ----- --<br>----- ----- ---------- --- --- ------ ------ ---- -- ------<br>------- --- ------ ----- --- ---- ------- -- ---- --- --<br>------- ------,679312.6999999285,679311.2999999523,678754.082,678769.0999999046,678770.748,679320.74,,13,government
screen,html.Screen,2_1_1_1_14,2022-04-25T14:57:10.643Z,,,,,,,,,,,,,,,,,54,,,,,,,,,,,,,,1590.6599999761675,,response,,,,100,,,,,,,Space,keypress(Space),,,,,,,,-- --- ---- --- ------ ----- ------- ---- -- --- ------- --<br>------- ---------- bonds. -- ----- -- ----- -- ---- ------<br>--- ----- --- --- ------ -------- ----- --- ------ ----- --<br>----- ----- ---------- --- --- ------ ------ ---- -- ------<br>------- --- ------ ----- --- ---- ------- -- ---- --- --<br>------- ------,680912.8999999762,680911.3999999762,679304.074,679313,679320.74,680920.707,,14,bonds.
screen,html.Screen,2_1_1_1_15,2022-04-25T14:57:11.299Z,,,,,,,,,,,,,,,,,54,,,,,,,,,,,,,,646.5929999522632,,response,,,,100,,,,,,,Space,keypress(Space),,,,,,,,-- --- ---- --- ------ ----- ------- ---- -- --- ------- --<br>------- ---------- ------ In ----- -- ----- -- ---- ------<br>--- ----- --- --- ------ -------- ----- --- ------ ----- --<br>----- ----- ---------- --- --- ------ ------ ---- -- ------<br>------- --- ------ ----- --- ---- ------- -- ---- --- --<br>------- ------,681568.5999999046,681567.2999999523,680904.041,680913.1999999285,680920.707,681570.625,,15,In
screen,html.Screen,2_1_1_1_16,2022-04-25T14:57:12.611Z,,,,,,,,,,,,,,,,,54,,,,,,,,,,,,,,1308.6749999523163,,response,,,,100,,,,,,,Space,keypress(Space),,,,,,,,"-- --- ---- --- ------ ----- ------- ---- -- --- ------- --<br>------- ---------- ------ -- 1727, -- ----- -- ---- ------<br>--- ----- --- --- ------ -------- ----- --- ------ ----- --<br>----- ----- ---------- --- --- ------ ------ ---- -- ------<br>------- --- ------ ----- --- ---- ------- -- ---- --- --<br>------- ------",682880.8999999762,682879.2999999523,681553.959,681569.0999999046,681570.625,682887.377,,16,"1727,"
screen,html.Screen,2_1_1_1_17,2022-04-25T14:57:14.363Z,,,,,,,,,,,,,,,,,54,,,,,,,,,,,,,,1744.5229999761796,,response,,,,100,,,,,,,Space,keypress(Space),,,,,,,,-- --- ---- --- ------ ----- ------- ---- -- --- ------- --<br>------- ---------- ------ -- ----- in ----- -- ---- ------<br>--- ----- --- --- ------ -------- ----- --- ------ ----- --<br>----- ----- ---------- --- --- ------ ------ ---- -- ------<br>------- --- ------ ----- --- ---- ------- -- ---- --- --<br>------- ------,684633.2999999523,684631.8999999762,682870.711,682881.1999999285,682887.377,684637.304,,17,in
screen,html.Screen,2_1_1_1_18,2022-04-25T14:57:14.931Z,,,,,,,,,,,,,,,,,54,,,,,,,,,,,,,,561.8959999284707,,response,,,,100,,,,,,,Space,keypress(Space),,,,,,,,-- --- ---- --- ------ ----- ------- ---- -- --- ------- --<br>------- ---------- ------ -- ----- -- order -- ---- ------<br>--- ----- --- --- ------ -------- ----- --- ------ ----- --<br>----- ----- ---------- --- --- ------ ------ ---- -- ------<br>------- --- ------ ----- --- ---- ------- -- ---- --- --<br>------- ------,685200.6999999285,685199.1999999285,684620.638,684633.6999999285,684637.304,685203.942,,18,order
screen,html.Screen,2_1_1_1_19,2022-04-25T14:57:15.227Z,,,,,,,,,,,,,,,,,54,,,,,,,,,,,,,,291.2579999284353,,response,,,,100,,,,,,,Space,keypress(Space),,,,,,,,-- --- ---- --- ------ ----- ------- ---- -- --- ------- --<br>------- ---------- ------ -- ----- -- ----- to ---- ------<br>--- ----- --- --- ------ -------- ----- --- ------ ----- --<br>----- ----- ---------- --- --- ------ ------ ---- -- ------<br>------- --- ------ ----- --- ---- ------- -- ---- --- --<br>------- ------,685496.7999999523,685495.1999999285,685187.276,685201.0999999046,685203.942,685503.998,,19,to
screen,html.Screen,2_1_1_1_20,2022-04-25T14:57:15.642Z,,,,,,,,,,,,,,,,,54,,,,,,,,,,,,,,407.201999928453,,response,,,,100,,,,,,,Space,keypress(Space),,,,,,,,-- --- ---- --- ------ ----- ------- ---- -- --- ------- --<br>------- ---------- ------ -- ----- -- ----- -- save ------<br>--- ----- --- --- ------ -------- ----- --- ------ ----- --<br>----- ----- ---------- --- --- ------ ------ ---- -- ------<br>------- --- ------ ----- --- ---- ------- -- ---- --- --<br>------- ------,685912.5999999046,685911.1999999285,685487.332,685497.1999999285,685503.998,685920.611,,20,save
screen,html.Screen,2_1_1_1_21,2022-04-25T14:57:16.459Z,,,,,,,,,,,,,,,,,54,,,,,,,,,,,,,,806.6889999522828,,response,,,,100,,,,,,,Space,keypress(Space),,,,,,,,"-- --- ---- --- ------ ----- ------- ---- -- --- ------- --<br>------- ---------- ------ -- ----- -- ----- -- ---- money,<br>--- ----- --- --- ------ -------- ----- --- ------ ----- --<br>----- ----- ---------- --- --- ------ ------ ---- -- ------<br>------- --- ------ ----- --- ---- ------- -- ---- --- --<br>------- ------",686728.6999999285,686727.2999999523,685903.945,685912.8999999762,685920.611,686737.313,,21,"money,"
screen,html.Screen,2_1_1_1_22,2022-04-25T14:57:17.066Z,,,,,,,,,,,,,,,,,54,,,,,,,,,,,,,,597.8869999285089,,response,,,,100,,,,,,,Space,keypress(Space),,,,,,,,-- --- ---- --- ------ ----- ------- ---- -- --- ------- --<br>------- ---------- ------ -- ----- -- ----- -- ---- ------<br>the ----- --- --- ------ -------- ----- --- ------ ----- --<br>----- ----- ---------- --- --- ------ ------ ---- -- ------<br>------- --- ------ ----- --- ---- ------- -- ---- --- --<br>------- ------,687336.5,687335.1999999285,686720.647,686729.0999999046,686737.313,687354.022,,22,the
screen,html.Screen,2_1_1_1_23,2022-04-25T14:57:17.619Z,,,,,,,,,,,,,,,,,54,,,,,,,,,,,,,,533.9780000000028,,response,,,,100,,,,,,,Space,keypress(Space),,,,,,,,-- --- ---- --- ------ ----- ------- ---- -- --- ------- --<br>------- ---------- ------ -- ----- -- ----- -- ---- ------<br>--- state --- --- ------ -------- ----- --- ------ ----- --<br>----- ----- ---------- --- --- ------ ------ ---- -- ------<br>------- --- ------ ----- --- ---- ------- -- ---- --- --<br>------- ------,687889.2999999523,687888,687337.356,687336.8999999762,687354.022,687904.013,,23,state
screen,html.Screen,2_1_1_1_24,2022-04-25T14:57:18.315Z,,,,,,,,,,,,,,,,,54,,,,,,,,,,,,,,679.186999928439,,response,,,,100,,,,,,,Space,keypress(Space),,,,,,,,-- --- ---- --- ------ ----- ------- ---- -- --- ------- --<br>------- ---------- ------ -- ----- -- ----- -- ---- ------<br>--- ----- cut --- ------ -------- ----- --- ------ ----- --<br>----- ----- ---------- --- --- ------ ------ ---- -- ------<br>------- --- ------ ----- --- ---- ------- -- ---- --- --<br>------- ------,688584.7999999523,688583.1999999285,687887.347,687889.5999999046,687904.013,688587.294,,24,cut
screen,html.Screen,2_1_1_1_25,2022-04-25T14:57:18.899Z,,,,,,,,,,,,,,,,,54,,,,,,,,,,,,,,580.0059999523219,,response,,,,100,,,,,,,Space,keypress(Space),,,,,,,,-- --- ---- --- ------ ----- ------- ---- -- --- ------- --<br>------- ---------- ------ -- ----- -- ----- -- ---- ------<br>--- ----- --- the ------ -------- ----- --- ------ ----- --<br>----- ----- ---------- --- --- ------ ------ ---- -- ------<br>------- --- ------ ----- --- ---- ------- -- ---- --- --<br>------- ------,689168.6999999285,689167.2999999523,688570.628,688585.1999999285,688587.294,689170.627,,25,the
screen,html.Screen,2_1_1_1_26,2022-04-25T14:57:19.658Z,,,,,,,,,,,,,,,,,54,,,,,,,,,,,,,,756.5729999284958,,response,,,,100,,,,,,,Space,keypress(Space),,,,,,,,-- --- ---- --- ------ ----- ------- ---- -- --- ------- --<br>------- ---------- ------ -- ----- -- ----- -- ---- ------<br>--- ----- --- --- bonds' -------- ----- --- ------ ----- --<br>----- ----- ---------- --- --- ------ ------ ---- -- ------<br>------- --- ------ ----- --- ---- ------- -- ---- --- --<br>------- ------,689928.5999999046,689927.1999999285,689153.961,689169.0999999046,689170.627,689937.327,,26,bonds'
screen,html.Screen,2_1_1_1_27,2022-04-25T14:57:20.515Z,,,,,,,,,,,,,,,,,54,,,,,,,,,,,,,,846.0729999761097,,response,,,,100,,,,,,,Space,keypress(Space),,,,,,,,-- --- ---- --- ------ ----- ------- ---- -- --- ------- --<br>------- ---------- ------ -- ----- -- ----- -- ---- ------<br>--- ----- --- --- ------ interest ----- --- ------ ----- --<br>----- ----- ---------- --- --- ------ ------ ---- -- ------<br>------- --- ------ ----- --- ---- ------- -- ---- --- --<br>------- ------,690784.7999999523,690783.3999999762,689920.661,689928.8999999762,689937.327,690787.329,,27,interest
screen,html.Screen,2_1_1_1_28,2022-04-25T14:57:21.355Z,,,,,,,,,,,,,,,,,54,,,,,,,,,,,,,,835.9709999522893,,response,,,,100,,,,,,,Space,keypress(Space),,,,,,,,-- --- ---- --- ------ ----- ------- ---- -- --- ------- --<br>------- ---------- ------ -- ----- -- ----- -- ---- ------<br>--- ----- --- --- ------ -------- rate. --- ------ ----- --<br>----- ----- ---------- --- --- ------ ------ ---- -- ------<br>------- --- ------ ----- --- ---- ------- -- ---- --- --<br>------- ------,691624.6999999285,691623.2999999523,690770.663,690785.1999999285,690787.329,691637.31,,28,rate.
screen,html.Screen,2_1_1_1_29,2022-04-25T14:57:23.610Z,,,,,,,,,,,,,,,,,54,,,,,,,,,,,,,,2241.7899999045767,,response,,,,100,,,,,,,Space,keypress(Space),,,,,,,,-- --- ---- --- ------ ----- ------- ---- -- --- ------- --<br>------- ---------- ------ -- ----- -- ----- -- ---- ------<br>--- ----- --- --- ------ -------- ----- The ------ ----- --<br>----- ----- ---------- --- --- ------ ------ ---- -- ------<br>------- --- ------ ----- --- ---- ------- -- ---- --- --<br>------- ------,693880.3999999762,693879.0999999046,691620.644,691625,691637.31,693887.188,,29,The
screen,html.Screen,2_1_1_1_30,2022-04-25T14:57:24.307Z,,,,,,,,,,,,,,,,,54,,,,,,,,,,,,,,688.1119999523507,,response,,,,100,,,,,,,Space,keypress(Space),,,,,,,,-- --- ---- --- ------ ----- ------- ---- -- --- ------- --<br>------- ---------- ------ -- ----- -- ----- -- ---- ------<br>--- ----- --- --- ------ -------- ----- --- market ----- --<br>----- ----- ---------- --- --- ------ ------ ---- -- ------<br>------- --- ------ ----- --- ---- ------- -- ---- --- --<br>------- ------,694576.7999999523,694575.2999999523,693870.522,693880.7999999523,693887.188,694587.265,,30,market
screen,html.Screen,2_1_1_1_31,2022-04-25T14:57:24.603Z,,,,,,,,,,,,,,,,,54,,,,,,,,,,,,,,284.43499992846046,,response,,,,100,,,,,,,Space,keypress(Space),,,,,,,,-- --- ---- --- ------ ----- ------- ---- -- --- ------- --<br>------- ---------- ------ -- ----- -- ----- -- ---- ------<br>--- ----- --- --- ------ -------- ----- --- ------ value --<br>----- ----- ---------- --- --- ------ ------ ---- -- ------<br>------- --- ------ ----- --- ---- ------- -- ---- --- --<br>------- ------,694873.0999999046,694871.6999999285,694570.599,694577.0999999046,694587.265,694887.298,,31,value
screen,html.Screen,2_1_1_1_32,2022-04-25T14:57:25.482Z,,,,,,,,,,,,,,,,,54,,,,,,,,,,,,,,863.9019999285229,,response,,,,100,,,,,,,Space,keypress(Space),,,,,,,,-- --- ---- --- ------ ----- ------- ---- -- --- ------- --<br>------- ---------- ------ -- ----- -- ----- -- ---- ------<br>--- ----- --- --- ------ -------- ----- --- ------ ----- of<br>----- ----- ---------- --- --- ------ ------ ---- -- ------<br>------- --- ------ ----- --- ---- ------- -- ---- --- --<br>------- ------,695752.5,695751.1999999285,694870.632,694873.3999999762,694887.298,695770.637,,32,of
screen,html.Screen,2_1_1_1_33,2022-04-25T14:57:26.315Z,,,,,,,,,,,,,,,,,54,,,,,,,,,,,,,,812.6629999523284,,response,,,,100,,,,,,,Space,keypress(Space),,,,,,,,-- --- ---- --- ------ ----- ------- ---- -- --- ------- --<br>------- ---------- ------ -- ----- -- ----- -- ---- ------<br>--- ----- --- --- ------ -------- ----- --- ------ ----- --<br>these ----- ---------- --- --- ------ ------ ---- -- ------<br>------- --- ------ ----- --- ---- ------- -- ---- --- --<br>------- ------,696584.6999999285,696583.2999999523,695753.971,695752.7999999523,695770.637,696587.274,,33,these
screen,html.Screen,2_1_1_1_34,2022-04-25T14:57:26.778Z,,,,,,,,,,,,,,,,,54,,,,,,,,,,,,,,459.92599992849864,,response,,,,100,,,,,,,Space,keypress(Space),,,,,,,,-- --- ---- --- ------ ----- ------- ---- -- --- ------- --<br>------- ---------- ------ -- ----- -- ----- -- ---- ------<br>--- ----- --- --- ------ -------- ----- --- ------ ----- --<br>----- bonds ---------- --- --- ------ ------ ---- -- ------<br>------- --- ------ ----- --- ---- ------- -- ---- --- --<br>------- ------,697048.5,697047.1999999285,696570.608,696585.0999999046,696587.274,697053.944,,34,bonds
screen,html.Screen,2_1_1_1_35,2022-04-25T14:57:27.242Z,,,,,,,,,,,,,,,,,54,,,,,,,,,,,,,,457.1559999046149,,response,,,,100,,,,,,,Space,keypress(Space),,,,,,,,"-- --- ---- --- ------ ----- ------- ---- -- --- ------- --<br>------- ---------- ------ -- ----- -- ----- -- ---- ------<br>--- ----- --- --- ------ -------- ----- --- ------ ----- --<br>----- ----- plummeted, --- --- ------ ------ ---- -- ------<br>------- --- ------ ----- --- ---- ------- -- ---- --- --<br>------- ------",697512.5,697511.0999999046,697037.278,697048.7999999523,697053.944,697520.629,,35,"plummeted,"
screen,html.Screen,2_1_1_1_36,2022-04-25T14:57:27.770Z,,,,,,,,,,,,,,,,,54,,,,,,,,,,,,,,518.4709999046754,,response,,,,100,,,,,,,Space,keypress(Space),,,,,,,,-- --- ---- --- ------ ----- ------- ---- -- --- ------- --<br>------- ---------- ------ -- ----- -- ----- -- ---- ------<br>--- ----- --- --- ------ -------- ----- --- ------ ----- --<br>----- ----- ---------- and --- ------ ------ ---- -- ------<br>------- --- ------ ----- --- ---- ------- -- ---- --- --<br>------- ------,698040.5999999046,698039.0999999046,697503.963,697512.8999999762,697520.629,698053.921,,36,and
screen,html.Screen,2_1_1_1_37,2022-04-25T14:57:28.219Z,,,,,,,,,,,,,,,,,54,,,,,,,,,,,,,,433.1789999046596,,response,,,,100,,,,,,,Space,keypress(Space),,,,,,,,-- --- ---- --- ------ ----- ------- ---- -- --- ------- --<br>------- ---------- ------ -- ----- -- ----- -- ---- ------<br>--- ----- --- --- ------ -------- ----- --- ------ ----- --<br>----- ----- ---------- --- the ------ ------ ---- -- ------<br>------- --- ------ ----- --- ---- ------- -- ---- --- --<br>------- ------,698488.5999999046,698487.0999999046,698037.255,698040.7999999523,698053.921,698503.916,,37,the
screen,html.Screen,2_1_1_1_38,2022-04-25T14:57:28.802Z,,,,,,,,,,,,,,,,,54,,,,,,,,,,,,,,567.2839999285061,,response,,,,100,,,,,,,Space,keypress(Space),,,,,,,,-- --- ---- --- ------ ----- ------- ---- -- --- ------- --<br>------- ---------- ------ -- ----- -- ----- -- ---- ------<br>--- ----- --- --- ------ -------- ----- --- ------ ----- --<br>----- ----- ---------- --- --- market ------ ---- -- ------<br>------- --- ------ ----- --- ---- ------- -- ---- --- --<br>------- ------,699072.5,699071.1999999285,698487.25,698488.8999999762,698503.916,699087.198,,38,market
screen,html.Screen,2_1_1_1_39,2022-04-25T14:57:29.402Z,,,,,,,,,,,,,,,,,54,,,,,,,,,,,,,,583.9019999046577,,response,,,,100,,,,,,,Space,keypress(Space),,,,,,,,-- --- ---- --- ------ ----- ------- ---- -- --- ------- --<br>------- ---------- ------ -- ----- -- ----- -- ---- ------<br>--- ----- --- --- ------ -------- ----- --- ------ ----- --<br>----- ----- ---------- --- --- ------ became ---- -- ------<br>------- --- ------ ----- --- ---- ------- -- ---- --- --<br>------- ------,699672.5,699671.0999999046,699070.532,699072.7999999523,699087.198,699687.18,,39,became
screen,html.Screen,2_1_1_1_40,2022-04-25T14:57:29.899Z,,,,,,,,,,,,,,,,,54,,,,,,,,,,,,,,480.11999995226506,,response,,,,100,,,,,,,Space,keypress(Space),,,,,,,,-- --- ---- --- ------ ----- ------- ---- -- --- ------- --<br>------- ---------- ------ -- ----- -- ----- -- ---- ------<br>--- ----- --- --- ------ -------- ----- --- ------ ----- --<br>----- ----- ---------- --- --- ------ ------ wary -- ------<br>------- --- ------ ----- --- ---- ------- -- ---- --- --<br>------- ------,700168.6999999285,700167.2999999523,699670.514,699672.8999999762,699687.18,700170.608,,40,wary
screen,html.Screen,2_1_1_1_41,2022-04-25T14:57:30.338Z,,,,,,,,,,,,,,,,,54,,,,,,,,,,,,,,436.4919999046251,,response,,,,100,,,,,,,Space,keypress(Space),,,,,,,,-- --- ---- --- ------ ----- ------- ---- -- --- ------- --<br>------- ---------- ------ -- ----- -- ----- -- ---- ------<br>--- ----- --- --- ------ -------- ----- --- ------ ----- --<br>----- ----- ---------- --- --- ------ ------ ---- of ------<br>------- --- ------ ----- --- ---- ------- -- ---- --- --<br>------- ------,700608.5,700607.0999999046,700153.942,700169,700170.608,700620.563,,41,of
screen,html.Screen,2_1_1_1_42,2022-04-25T14:57:30.842Z,,,,,,,,,,,,,,,,,54,,,,,,,,,,,,,,490.536999904667,,response,,,,100,,,,,,,Space,keypress(Space),,,,,,,,-- --- ---- --- ------ ----- ------- ---- -- --- ------- --<br>------- ---------- ------ -- ----- -- ----- -- ---- ------<br>--- ----- --- --- ------ -------- ----- --- ------ ----- --<br>----- ----- ---------- --- --- ------ ------ ---- -- French<br>------- --- ------ ----- --- ---- ------- -- ---- --- --<br>------- ------,701112.5,701111.0999999046,700603.897,700608.7999999523,700620.563,701120.584,,42,French
screen,html.Screen,2_1_1_1_43,2022-04-25T14:57:32.163Z,,,,,,,,,,,,,,,,,54,,,,,,,,,,,,,,1310.515999904601,,response,,,,100,,,,,,,Space,keypress(Space),,,,,,,,-- --- ---- --- ------ ----- ------- ---- -- --- ------- --<br>------- ---------- ------ -- ----- -- ----- -- ---- ------<br>--- ----- --- --- ------ -------- ----- --- ------ ----- --<br>----- ----- ---------- --- --- ------ ------ ---- -- ------<br>credit. --- ------ ----- --- ---- ------- -- ---- --- --<br>------- ------,702432.7999999523,702431.0999999046,701103.918,701112.8999999762,701120.584,702437.132,,43,credit.
screen,html.Screen,2_1_1_1_44,2022-04-25T14:57:32.675Z,,,,,,,,,,,,,,,,,54,,,,,,,,,,,,,,505.96799990464933,,response,,,,100,,,,,,,Space,keypress(Space),,,,,,,,-- --- ---- --- ------ ----- ------- ---- -- --- ------- --<br>------- ---------- ------ -- ----- -- ----- -- ---- ------<br>--- ----- --- --- ------ -------- ----- --- ------ ----- --<br>----- ----- ---------- --- --- ------ ------ ---- -- ------<br>------- The ------ ----- --- ---- ------- -- ---- --- --<br>------- ------,702944.5999999046,702943.0999999046,702420.466,702433.0999999046,702437.132,702953.892,,44,The
screen,html.Screen,2_1_1_1_45,2022-04-25T14:57:33.225Z,,,,,,,,,,,,,,,,,54,,,,,,,,,,,,,,540.5079999761656,,response,,,,100,,,,,,,Space,keypress(Space),,,,,,,,-- --- ---- --- ------ ----- ------- ---- -- --- ------- --<br>------- ---------- ------ -- ----- -- ----- -- ---- ------<br>--- ----- --- --- ------ -------- ----- --- ------ ----- --<br>----- ----- ---------- --- --- ------ ------ ---- -- ------<br>------- --- French ----- --- ---- ------- -- ---- --- --<br>------- ------,703495,703494.3999999762,702937.226,702945,702953.892,703503.82,,45,French
screen,html.Screen,2_1_1_1_46,2022-04-25T14:57:33.818Z,,,,,,,,,,,,,,,,,54,,,,,,,,,,,,,,583.3799999285256,,response,,,,100,,,,,,,Space,keypress(Space),,,,,,,,-- --- ---- --- ------ ----- ------- ---- -- --- ------- --<br>------- ---------- ------ -- ----- -- ----- -- ---- ------<br>--- ----- --- --- ------ -------- ----- --- ------ ----- --<br>----- ----- ---------- --- --- ------ ------ ---- -- ------<br>------- --- ------ state --- ---- ------- -- ---- --- --<br>------- ------,704088.5,704087.1999999285,703487.154,703495.2999999523,703503.82,704103.882,,46,state
screen,html.Screen,2_1_1_1_47,2022-04-25T14:57:34.235Z,,,,,,,,,,,,,,,,,54,,,,,,,,,,,,,,399.21799990464933,,response,,,,100,,,,,,,Space,keypress(Space),,,,,,,,-- --- ---- --- ------ ----- ------- ---- -- --- ------- --<br>------- ---------- ------ -- ----- -- ----- -- ---- ------<br>--- ----- --- --- ------ -------- ----- --- ------ ----- --<br>----- ----- ---------- --- --- ------ ------ ---- -- ------<br>------- --- ------ ----- was ---- ------- -- ---- --- --<br>------- ------,704504.7999999523,704503.0999999046,704087.216,704088.7999999523,704103.882,704520.57,,47,was
screen,html.Screen,2_1_1_1_48,2022-04-25T14:57:34.787Z,,,,,,,,,,,,,,,,,54,,,,,,,,,,,,,,534.9300000000512,,response,,,,100,,,,,,,Space,keypress(Space),,,,,,,,-- --- ---- --- ------ ----- ------- ---- -- --- ------- --<br>------- ---------- ------ -- ----- -- ----- -- ---- ------<br>--- ----- --- --- ------ -------- ----- --- ------ ----- --<br>----- ----- ---------- --- --- ------ ------ ---- -- ------<br>------- --- ------ ----- --- left ------- -- ---- --- --<br>------- ------,705057,705055.5,704503.904,704505.0999999046,704520.57,705070.542,,48,left
screen,html.Screen,2_1_1_1_49,2022-04-25T14:57:35.122Z,,,,,,,,,,,,,,,,,54,,,,,,,,,,,,,,320.6579999284586,,response,,,,100,,,,,,,Space,keypress(Space),,,,,,,,-- --- ---- --- ------ ----- ------- ---- -- --- ------- --<br>------- ---------- ------ -- ----- -- ----- -- ---- ------<br>--- ----- --- --- ------ -------- ----- --- ------ ----- --<br>----- ----- ---------- --- --- ------ ------ ---- -- ------<br>------- --- ------ ----- --- ---- without -- ---- --- --<br>------- ------,705392.5,705391.1999999285,705053.876,705057.3999999762,705070.542,705403.913,,49,without
screen,html.Screen,2_1_1_1_50,2022-04-25T14:57:35.626Z,,,,,,,,,,,,,,,,,54,,,,,,,,,,,,,,491.1869999046903,,response,,,,100,,,,,,,Space,keypress(Space),,,,,,,,-- --- ---- --- ------ ----- ------- ---- -- --- ------- --<br>------- ---------- ------ -- ----- -- ----- -- ---- ------<br>--- ----- --- --- ------ -------- ----- --- ------ ----- --<br>----- ----- ---------- --- --- ------ ------ ---- -- ------<br>------- --- ------ ----- --- ---- ------- an ---- --- --<br>------- ------,705896.3999999762,705895.0999999046,705387.247,705392.7999999523,705403.913,705903.916,,50,an
screen,html.Screen,2_1_1_1_51,2022-04-25T14:57:36.067Z,,,,,,,,,,,,,,,,,54,,,,,,,,,,,,,,431.18399990466423,,response,,,,100,,,,,,,Space,keypress(Space),,,,,,,,-- --- ---- --- ------ ----- ------- ---- -- --- ------- --<br>------- ---------- ------ -- ----- -- ----- -- ---- ------<br>--- ----- --- --- ------ -------- ----- --- ------ ----- --<br>----- ----- ---------- --- --- ------ ------ ---- -- ------<br>------- --- ------ ----- --- ---- ------- -- easy --- --<br>------- ------,706336.6999999285,706335.0999999046,705887.25,705896.6999999285,705903.916,706353.865,,51,easy
screen,html.Screen,2_1_1_1_52,2022-04-25T14:57:36.442Z,,,,,,,,,,,,,,,,,54,,,,,,,,,,,,,,357.2349999046419,,response,,,,100,,,,,,,Space,keypress(Space),,,,,,,,-- --- ---- --- ------ ----- ------- ---- -- --- ------- --<br>------- ---------- ------ -- ----- -- ----- -- ---- ------<br>--- ----- --- --- ------ -------- ----- --- ------ ----- --<br>----- ----- ---------- --- --- ------ ------ ---- -- ------<br>------- --- ------ ----- --- ---- ------- -- ---- way --<br>------- ------,706712.3999999762,706711.0999999046,706337.199,706337,706353.865,706720.469,,52,way
screen,html.Screen,2_1_1_1_53,2022-04-25T14:57:37.018Z,,,,,,,,,,,,,,,,,54,,,,,,,,,,,,,,566.6309999045916,,response,,,,100,,,,,,,Space,keypress(Space),,,,,,,,-- --- ---- --- ------ ----- ------- ---- -- --- ------- --<br>------- ---------- ------ -- ----- -- ----- -- ---- ------<br>--- ----- --- --- ------ -------- ----- --- ------ ----- --<br>----- ----- ---------- --- --- ------ ------ ---- -- ------<br>------- --- ------ ----- --- ---- ------- -- ---- --- of<br>------- ------,707288.5,707287.0999999046,706703.803,706712.7999999523,706720.469,707303.809,,53,of
screen,html.Screen,2_1_1_1_54,2022-04-25T14:57:37.619Z,,,,,,,,,,,,,,,,,54,,,,,,,,,,,,,,583.2909999046242,,response,,,,100,,,,,,,Space,keypress(Space),,,,,,,,-- --- ---- --- ------ ----- ------- ---- -- --- ------- --<br>------- ---------- ------ -- ----- -- ----- -- ---- ------<br>--- ----- --- --- ------ -------- ----- --- ------ ----- --<br>----- ----- ---------- --- --- ------ ------ ---- -- ------<br>------- --- ------ ----- --- ---- ------- -- ---- --- --<br>raising ------,707888.5999999046,707887.0999999046,707287.143,707288.8999999762,707303.809,707903.89,,54,raising
screen,html.Screen,2_1_1_1_55,2022-04-25T14:57:38.234Z,,,,,,,,,,,,,,,,,54,,,,,,,,,,,,,,599.0099999761442,,response,,,,100,,,,,,,Space,keypress(Space),,,,,,,,-- --- ---- --- ------ ----- ------- ---- -- --- ------- --<br>------- ---------- ------ -- ----- -- ----- -- ---- ------<br>--- ----- --- --- ------ -------- ----- --- ------ ----- --<br>----- ----- ---------- --- --- ------ ------ ---- -- ------<br>------- --- ------ ----- --- ---- ------- -- ---- --- --<br>------- money.,708504.3999999762,708502.8999999762,707887.224,707888.8999999762,707903.89,708520.449,,55,money.
Item 100,flow.Loop,2_1_1_1,2022-04-25T14:57:38.235Z,,,,,,,,,,,,,,,,,,,,,,,,,,,,,,,35848.786999976146,,completion,,,,,A,,,,,,,,,,,silence,,,,,708505.0999999046,708502.8999999762,672637.447,672639.7999999523,672654.113,708520.449,,,
Question 1,html.Screen,2_1_1_2,2022-04-25T14:57:40.701Z,,,,,,,,,,,,,,,,,,,,,,,,,,,,true,TRUE,,2449.450999976136,,response,,,,100,A,,,,,,TRUE,click #choice-1,,,,silence,,,,,710970.8999999762,710969.8999999762,708503.783,708508.5999999046,708520.449,710987.135,,,
Question 2,html.Screen,2_1_1_3,2022-04-25T14:57:45.189Z,,,,,,,,,,,,,,,,,,,,,,,,,,,,true,FALSE,,4470.764999976149,,response,,,,100,A,,,,,,FALSE,click #choice-2,,,,silence,,,,,715458.8999999762,715457.8999999762,710970.469,710971.0999999046,710987.135,715470.423,,,
Item 100,flow.Sequence,2_1_1,2022-04-25T14:57:45.189Z,,,,,,,,,,,,,,,,,,,,,,,,,,,,,,,52803.74299997615,,completion,,,,,,,,,,,,,,,,,,,,,715459,715457.8999999762,662637.491,662636.1999999285,662654.157,715470.423,,,
End of Practice,html.Page,2_1_2,2022-04-25T14:57:48.909Z,,,,,,,,,,,,,,,,,,,,,,,,,,,,,,,3708.5770000000484,,form submission,,,,,,,,,,,,,,,,,,,,,719179.2999999523,719179,715453.757,715459.1999999285,715470.423,719187.028,,,
Practice,flow.Sequence,2_1,2022-04-25T14:57:48.910Z,,,,,,,,,,,,,,,,,,,,,,,,,,,,,,,113924.47400000005,,completion,,,,,,,,,,,,,,,,,,,,,719179.5999999046,719179,605237.86,605231.0999999046,605254.526,719187.028,,,
Trap_instruction,html.Page,2_2_0,2022-04-25T14:57:53.759Z,,,,,,,,,,,,,,,,,,,,,,,,,,,,,,,4841.971999999951,,form submission,,,,,,,,,,,,,,,,,,,,,724029.5,724029,719170.362,719179.6999999285,719187.028,724053.706,,,
trap_trial,html.Screen,2_2_1,2022-04-25T14:57:56.574Z,,,,,,,,,,,,,,,,,,,,,,,,,,,,true,1,,2789.5939999523107,,response,,,,,,,,,,,1,click #choice-1,,,,,,,,,726844.1999999285,726843.2999999523,724020.374,724029.6999999285,724053.706,726853.575,,,
end of trap trial,html.Page,2_2_2,2022-04-25T14:57:58.083Z,,,,,,,,,,,,,,,,,,,,,,,,,,,,,,,1499.4250000000466,,form submission,,,,,,,,,,,,,,,,,,,,,728353.3999999762,728353,726836.909,726844.3999999762,726853.575,728353.679,,,
Trap 1,flow.Sequence,2_2,2022-04-25T14:57:58.083Z,,,,,,,,,,,,,,,,,,,,,,,,,,,,,,,9165.97199999995,,completion,,,,,,,,,,,,,,,,,,,,,728353.5999999046,728353,719170.362,719179.6999999285,719187.028,728353.679,,,
Standby,html.Page,2_3_0,2022-04-25T14:58:06.069Z,,,,,,,,,,,,,,,,,,,,,,,,,,,,,,,7999.675000000047,,timeout,,,,,,,,,,,,,,,,,,,,,736339.1999999285,736336.688,728337.013,728353.7999999523,728353.679,736353.354,,,
Holding screen,html.Screen,2_3_1_0_0,2022-04-25T14:58:13.068Z,,,,,,,,,,,,,,,,,,,,,,,,,,,,,,,7000.168999999994,,timeout,,,,,,,,,,,,,,,,,,,,,743338.3999999762,743336.857,736336.688,736339.7999999523,736353.354,743353.523,,,
screen,html.Screen,2_3_1_0_1_0,2022-04-25T14:58:15.314Z,,,,,,,,,,,,,,,,,19,,,,,,,,,,,,,,2228.9769999999553,,response,,,,17,A,,,,,,Space,keypress(Space),,,,silence,,,,"Interestingly, --- -------- -------- ---------- ---- -------<br>-- ---------- -- --- ----- ------ ----- ---- --------- ----<br>------- ------ -------- -- ------ ---------- ------ ---<br>------ -- -- ---- -- ---------- -------- ------ ---- -------<br>---- --- --------- ------- ----- --------- ---- ----- --<br>------ -------- -- ------ -- ---- ------------",745584,745582.5,743336.857,743338.7999999523,743353.523,745586.82,,0,"Interestingly,"
screen,html.Screen,2_3_1_0_1_1,2022-04-25T14:58:15.946Z,,,,,,,,,,,,,,,,,19,,,,,,,,,,,,,,627.9799999523675,,response,,,,17,A,,,,,,Space,keypress(Space),,,,silence,,,,-------------- the -------- -------- ---------- ---- -------<br>-- ---------- -- --- ----- ------ ----- ---- --------- ----<br>------- ------ -------- -- ------ ---------- ------ ---<br>------ -- -- ---- -- ---------- -------- ------ ---- -------<br>---- --- --------- ------- ----- --------- ---- ----- --<br>------ -------- -- ------ -- ---- ------------,746216.0999999046,746214.7999999523,745570.154,745584.2999999523,745586.82,746220.244,,1,the
screen,html.Screen,2_3_1_0_1_2,2022-04-25T14:58:16.378Z,,,,,,,,,,,,,,,,,19,,,,,,,,,,,,,,426.8559999046847,,response,,,,17,A,,,,,,Space,keypress(Space),,,,silence,,,,-------------- --- heaviest -------- ---------- ---- -------<br>-- ---------- -- --- ----- ------ ----- ---- --------- ----<br>------- ------ -------- -- ------ ---------- ------ ---<br>------ -- -- ---- -- ---------- -------- ------ ---- -------<br>---- --- --------- ------- ----- --------- ---- ----- --<br>------ -------- -- ------ -- ---- ------------,746648.3999999762,746647.0999999046,746203.578,746216.3999999762,746220.244,746653.599,,2,heaviest
screen,html.Screen,2_3_1_0_1_3,2022-04-25T14:58:17.417Z,,,,,,,,,,,,,,,,,19,,,,,,,,,,,,,,1032.9009999999544,,response,,,,17,A,,,,,,Space,keypress(Space),,,,silence,,,,-------------- --- -------- isotopes ---------- ---- -------<br>-- ---------- -- --- ----- ------ ----- ---- --------- ----<br>------- ------ -------- -- ------ ---------- ------ ---<br>------ -- -- ---- -- ---------- -------- ------ ---- -------<br>---- --- --------- ------- ----- --------- ---- ----- --<br>------ -------- -- ------ -- ---- ------------,747687.3999999762,747686.5,746636.933,746648.7999999523,746653.599,747703.6,,3,isotopes
screen,html.Screen,2_3_1_0_1_4,2022-04-25T14:58:19.226Z,,,,,,,,,,,,,,,,,19,,,,,,,,,,,,,,1791.0999999284977,,response,,,,17,A,,,,,,Space,keypress(Space),,,,silence,,,,-------------- --- -------- -------- physicists ---- -------<br>-- ---------- -- --- ----- ------ ----- ---- --------- ----<br>------- ------ -------- -- ------ ---------- ------ ---<br>------ -- -- ---- -- ---------- -------- ------ ---- -------<br>---- --- --------- ------- ----- --------- ---- ----- --<br>------ -------- -- ------ -- ---- ------------,749496.0999999046,749494.6999999285,747686.934,747687.5999999046,747703.6,749503.474,,4,physicists
screen,html.Screen,2_3_1_0_1_5,2022-04-25T14:58:19.714Z,,,,,,,,,,,,,,,,,19,,,,,,,,,,,,,,479.4259999761125,,response,,,,17,A,,,,,,Space,keypress(Space),,,,silence,,,,-------------- --- -------- -------- ---------- have -------<br>-- ---------- -- --- ----- ------ ----- ---- --------- ----<br>------- ------ -------- -- ------ ---------- ------ ---<br>------ -- -- ---- -- ---------- -------- ------ ---- -------<br>---- --- --------- ------- ----- --------- ---- ----- --<br>------ -------- -- ------ -- ---- ------------,749984.2999999523,749982.8999999762,749486.808,749496.5,749503.474,749986.84,,5,have
screen,html.Screen,2_3_1_0_1_6,2022-04-25T14:58:20.170Z,,,,,,,,,,,,,,,,,19,,,,,,,,,,,,,,452.05999997619074,,response,,,,17,A,,,,,,Space,keypress(Space),,,,silence,,,,-------------- --- -------- -------- ---------- ---- managed<br>-- ---------- -- --- ----- ------ ----- ---- --------- ----<br>------- ------ -------- -- ------ ---------- ------ ---<br>------ -- -- ---- -- ---------- -------- ------ ---- -------<br>---- --- --------- ------- ----- --------- ---- ----- --<br>------ -------- -- ------ -- ---- ------------,750440.1999999285,750438.8999999762,749970.174,749984.6999999285,749986.84,750453.597,,6,managed
screen,html.Screen,2_3_1_0_1_7,2022-04-25T14:58:20.770Z,,,,,,,,,,,,,,,,,19,,,,,,,,,,,,,,585.3029999762075,,response,,,,17,A,,,,,,Space,keypress(Space),,,,silence,,,,-------------- --- -------- -------- ---------- ---- -------<br>to ---------- -- --- ----- ------ ----- ---- --------- ----<br>------- ------ -------- -- ------ ---------- ------ ---<br>------ -- -- ---- -- ---------- -------- ------ ---- -------<br>---- --- --------- ------- ----- --------- ---- ----- --<br>------ -------- -- ------ -- ---- ------------,751040.2999999523,751038.8999999762,750436.931,750440.5999999046,750453.597,751053.617,,7,to
screen,html.Screen,2_3_1_0_1_8,2022-04-25T14:58:23.968Z,,,,,,,,,,,,,,,,,19,,,,,,,,,,,,,,3184.082999928505,,response,,,,17,A,,,,,,Space,keypress(Space),,,,silence,,,,-------------- --- -------- -------- ---------- ---- -------<br>-- synthesize -- --- ----- ------ ----- ---- --------- ----<br>------- ------ -------- -- ------ ---------- ------ ---<br>------ -- -- ---- -- ---------- -------- ------ ---- -------<br>---- --- --------- ------- ----- --------- ---- ----- --<br>------ -------- -- ------ -- ---- ------------,754238.3999999762,754237.6999999285,751036.951,751040.6999999285,751053.617,754253.452,,8,synthesize
screen,html.Screen,2_3_1_0_1_9,2022-04-25T14:58:24.336Z,,,,,,,,,,,,,,,,,19,,,,,,,,,,,,,,352.4479999761097,,response,,,,17,A,,,,,,Space,keypress(Space),,,,silence,,,,-------------- --- -------- -------- ---------- ---- -------<br>-- ---------- so --- ----- ------ ----- ---- --------- ----<br>------- ------ -------- -- ------ ---------- ------ ---<br>------ -- -- ---- -- ---------- -------- ------ ---- -------<br>---- --- --------- ------- ----- --------- ---- ----- --<br>------ -------- -- ------ -- ---- ------------,754606.5999999046,754605.8999999762,754236.786,754238.5999999046,754253.452,754620.124,,9,so
screen,html.Screen,2_3_1_0_1_10,2022-04-25T14:58:24.720Z,,,,,,,,,,,,,,,,,19,,,,,,,,,,,,,,369.77599997620564,,response,,,,17,A,,,,,,Space,keypress(Space),,,,silence,,,,-------------- --- -------- -------- ---------- ---- -------<br>-- ---------- -- far ----- ------ ----- ---- --------- ----<br>------- ------ -------- -- ------ ---------- ------ ---<br>------ -- -- ---- -- ---------- -------- ------ ---- -------<br>---- --- --------- ------- ----- --------- ---- ----- --<br>------ -------- -- ------ -- ---- ------------,754990.3999999762,754989.8999999762,754603.458,754606.6999999285,754620.124,755003.512,,10,far
screen,html.Screen,2_3_1_0_1_11,2022-04-25T14:58:25.160Z,,,,,,,,,,,,,,,,,19,,,,,,,,,,,,,,426.18799992848653,,response,,,,17,A,,,,,,Space,keypress(Space),,,,silence,,,,-------------- --- -------- -------- ---------- ---- -------<br>-- ---------- -- --- don't ------ ----- ---- --------- ----<br>------- ------ -------- -- ------ ---------- ------ ---<br>------ -- -- ---- -- ---------- -------- ------ ---- -------<br>---- --- --------- ------- ----- --------- ---- ----- --<br>------ -------- -- ------ -- ---- ------------,755430.2999999523,755429.6999999285,754986.846,754990.5,755003.512,755436.799,,11,don't
screen,html.Screen,2_3_1_0_1_12,2022-04-25T14:58:25.480Z,,,,,,,,,,,,,,,,,19,,,,,,,,,,,,,,313.0009999523172,,response,,,,17,A,,,,,,Space,keypress(Space),,,,silence,,,,-------------- --- -------- -------- ---------- ---- -------<br>-- ---------- -- --- ----- behave ----- ---- --------- ----<br>------- ------ -------- -- ------ ---------- ------ ---<br>------ -- -- ---- -- ---------- -------- ------ ---- -------<br>---- --- --------- ------- ----- --------- ---- ----- --<br>------ -------- -- ------ -- ---- ------------,755750.5999999046,755749.7999999523,755420.133,755430.3999999762,755436.799,755753.472,,12,behave
screen,html.Screen,2_3_1_0_1_13,2022-04-25T14:58:25.936Z,,,,,,,,,,,,,,,,,19,,,,,,,,,,,,,,452.4279999762075,,response,,,,17,A,,,,,,Space,keypress(Space),,,,silence,,,,-------------- --- -------- -------- ---------- ---- -------<br>-- ---------- -- --- ----- ------ quite ---- --------- ----<br>------- ------ -------- -- ------ ---------- ------ ---<br>------ -- -- ---- -- ---------- -------- ------ ---- -------<br>---- --- --------- ------- ----- --------- ---- ----- --<br>------ -------- -- ------ -- ---- ------------,756206.3999999762,756205.8999999762,755736.806,755750.6999999285,755753.472,756220.136,,13,quite
screen,html.Screen,2_3_1_0_1_14,2022-04-25T14:58:26.352Z,,,,,,,,,,,,,,,,,19,,,,,,,,,,,,,,401.5639999284176,,response,,,,17,A,,,,,,Space,keypress(Space),,,,silence,,,,-------------- --- -------- -------- ---------- ---- -------<br>-- ---------- -- --- ----- ------ ----- like --------- ----<br>------- ------ -------- -- ------ ---------- ------ ---<br>------ -- -- ---- -- ---------- -------- ------ ---- -------<br>---- --- --------- ------- ----- --------- ---- ----- --<br>------ -------- -- ------ -- ---- ------------,756622.1999999285,756621.6999999285,756203.47,756206.5,756220.136,756636.824,,14,like
screen,html.Screen,2_3_1_0_1_15,2022-04-25T14:58:27.152Z,,,,,,,,,,,,,,,,,19,,,,,,,,,,,,,,785.2759999046102,,response,,,,17,A,,,,,,Space,keypress(Space),,,,silence,,,,-------------- --- -------- -------- ---------- ---- -------<br>-- ---------- -- --- ----- ------ ----- ---- science's ----<br>------- ------ -------- -- ------ ---------- ------ ---<br>------ -- -- ---- -- ---------- -------- ------ ---- -------<br>---- --- --------- ------- ----- --------- ---- ----- --<br>------ -------- -- ------ -- ---- ------------,757422.6999999285,757422.0999999046,756620.158,756622.2999999523,756636.824,757436.749,,15,science's
screen,html.Screen,2_3_1_0_1_16,2022-04-25T14:58:27.706Z,,,,,,,,,,,,,,,,,19,,,,,,,,,,,,,,537.9509999285219,,response,,,,17,A,,,,,,Space,keypress(Space),,,,silence,,,,-------------- --- -------- -------- ---------- ---- -------<br>-- ---------- -- --- ----- ------ ----- ---- --------- best<br>------- ------ -------- -- ------ ---------- ------ ---<br>------ -- -- ---- -- ---------- -------- ------ ---- -------<br>---- --- --------- ------- ----- --------- ---- ----- --<br>------ -------- -- ------ -- ---- ------------,757976.0999999046,757974.6999999285,757420.083,757422.7999999523,757436.749,757986.78,,16,best
screen,html.Screen,2_3_1_0_1_17,2022-04-25T14:58:28.266Z,,,,,,,,,,,,,,,,,19,,,,,,,,,,,,,,548.1199999761302,,response,,,,17,A,,,,,,Space,keypress(Space),,,,silence,,,,-------------- --- -------- -------- ---------- ---- -------<br>-- ---------- -- --- ----- ------ ----- ---- --------- ----<br>current ------ -------- -- ------ ---------- ------ ---<br>------ -- -- ---- -- ---------- -------- ------ ---- -------<br>---- --- --------- ------- ----- --------- ---- ----- --<br>------ -------- -- ------ -- ---- ------------,758536.2999999523,758534.8999999762,757970.114,757976.3999999762,757986.78,758553.476,,17,current
screen,html.Screen,2_3_1_0_1_18,2022-04-25T14:58:28.714Z,,,,,,,,,,,,,,,,,19,,,,,,,,,,,,,,429.32399995229207,,response,,,,17,A,,,,,,Space,keypress(Space),,,,silence,,,,-------------- --- -------- -------- ---------- ---- -------<br>-- ---------- -- --- ----- ------ ----- ---- --------- ----<br>------- models -------- -- ------ ---------- ------ ---<br>------ -- -- ---- -- ---------- -------- ------ ---- -------<br>---- --- --------- ------- ----- --------- ---- ----- --<br>------ -------- -- ------ -- ---- ------------,758984.0999999046,758982.7999999523,758536.81,758536.5999999046,758553.476,758986.852,,18,models
screen,html.Screen,2_3_1_0_1_19,2022-04-25T14:58:29.522Z,,,,,,,,,,,,,,,,,19,,,,,,,,,,,,,,803.947999952361,,response,,,,17,A,,,,,,Space,keypress(Space),,,,silence,,,,"-------------- --- -------- -------- ---------- ---- -------<br>-- ---------- -- --- ----- ------ ----- ---- --------- ----<br>------- ------ predict, -- ------ ---------- ------ ---<br>------ -- -- ---- -- ---------- -------- ------ ---- -------<br>---- --- --------- ------- ----- --------- ---- ----- --<br>------ -------- -- ------ -- ---- ------------",759792.0999999046,759790.7999999523,758970.186,758984.5999999046,758986.852,759803.532,,19,"predict,"
screen,html.Screen,2_3_1_0_1_20,2022-04-25T14:58:29.962Z,,,,,,,,,,,,,,,,,19,,,,,,,,,,,,,,427.26799995230976,,response,,,,17,A,,,,,,Space,keypress(Space),,,,silence,,,,-------------- --- -------- -------- ---------- ---- -------<br>-- ---------- -- --- ----- ------ ----- ---- --------- ----<br>------- ------ -------- so ------ ---------- ------ ---<br>------ -- -- ---- -- ---------- -------- ------ ---- -------<br>---- --- --------- ------- ----- --------- ---- ----- --<br>------ -------- -- ------ -- ---- ------------,760232.1999999285,760230.7999999523,759786.866,759792.5,759803.532,760236.867,,20,so
screen,html.Screen,2_3_1_0_1_21,2022-04-25T14:58:30.434Z,,,,,,,,,,,,,,,,,19,,,,,,,,,,,,,,465.932999952347,,response,,,,17,A,,,,,,Space,keypress(Space),,,,silence,,,,-------------- --- -------- -------- ---------- ---- -------<br>-- ---------- -- --- ----- ------ ----- ---- --------- ----<br>------- ------ -------- -- stable ---------- ------ ---<br>------ -- -- ---- -- ---------- -------- ------ ---- -------<br>---- --- --------- ------- ----- --------- ---- ----- --<br>------ -------- -- ------ -- ---- ------------,760704.0999999046,760702.7999999523,760220.201,760232.5,760236.867,760720.181,,21,stable
screen,html.Screen,2_3_1_0_1_22,2022-04-25T14:58:30.954Z,,,,,,,,,,,,,,,,,19,,,,,,,,,,,,,,502.618999952334,,response,,,,17,A,,,,,,Space,keypress(Space),,,,silence,,,,-------------- --- -------- -------- ---------- ---- -------<br>-- ---------- -- --- ----- ------ ----- ---- --------- ----<br>------- ------ -------- -- ------ superheavy ------ ---<br>------ -- -- ---- -- ---------- -------- ------ ---- -------<br>---- --- --------- ------- ----- --------- ---- ----- --<br>------ -------- -- ------ -- ---- ------------,761224.5,761222.7999999523,760703.515,760704.5,760720.181,761236.77,,22,superheavy
screen,html.Screen,2_3_1_0_1_23,2022-04-25T14:58:32.202Z,,,,,,,,,,,,,,,,,19,,,,,,,,,,,,,,1234.1299999761395,,response,,,,17,A,,,,,,Space,keypress(Space),,,,silence,,,,-------------- --- -------- -------- ---------- ---- -------<br>-- ---------- -- --- ----- ------ ----- ---- --------- ----<br>------- ------ -------- -- ------ ---------- nuclei ---<br>------ -- -- ---- -- ---------- -------- ------ ---- -------<br>---- --- --------- ------- ----- --------- ---- ----- --<br>------ -------- -- ------ -- ---- ------------,762472.3999999762,762470.8999999762,761220.104,761224.8999999762,761236.77,762486.816,,23,nuclei
screen,html.Screen,2_3_1_0_1_24,2022-04-25T14:58:32.642Z,,,,,,,,,,,,,,,,,19,,,,,,,,,,,,,,423.8839999284828,,response,,,,17,A,,,,,,Space,keypress(Space),,,,silence,,,,-------------- --- -------- -------- ---------- ---- -------<br>-- ---------- -- --- ----- ------ ----- ---- --------- ----<br>------- ------ -------- -- ------ ---------- ------ are<br>------ -- -- ---- -- ---------- -------- ------ ---- -------<br>---- --- --------- ------- ----- --------- ---- ----- --<br>------ -------- -- ------ -- ---- ------------,762912.0999999046,762910.6999999285,762470.15,762472.7999999523,762486.816,762920.123,,24,are
screen,html.Screen,2_3_1_0_1_25,2022-04-25T14:58:33.186Z,,,,,,,,,,,,,,,,,19,,,,,,,,,,,,,,534.576999928453,,response,,,,17,A,,,,,,Space,keypress(Space),,,,silence,,,,-------------- --- -------- -------- ---------- ---- -------<br>-- ---------- -- --- ----- ------ ----- ---- --------- ----<br>------- ------ -------- -- ------ ---------- ------ ---<br>likely -- -- ---- -- ---------- -------- ------ ---- -------<br>---- --- --------- ------- ----- --------- ---- ----- --<br>------ -------- -- ------ -- ---- ------------,763456,763454.6999999285,762903.457,762912.3999999762,762920.123,763470.174,,25,likely
screen,html.Screen,2_3_1_0_1_26,2022-04-25T14:58:33.610Z,,,,,,,,,,,,,,,,,19,,,,,,,,,,,,,,408.52599992847536,,response,,,,17,A,,,,,,Space,keypress(Space),,,,silence,,,,-------------- --- -------- -------- ---------- ---- -------<br>-- ---------- -- --- ----- ------ ----- ---- --------- ----<br>------- ------ -------- -- ------ ---------- ------ ---<br>------ to -- ---- -- ---------- -------- ------ ---- -------<br>---- --- --------- ------- ----- --------- ---- ----- --<br>------ -------- -- ------ -- ---- ------------,763880.0999999046,763878.6999999285,763453.508,763456.3999999762,763470.174,763886.843,,26,to
screen,html.Screen,2_3_1_0_1_27,2022-04-25T14:58:33.986Z,,,,,,,,,,,,,,,,,19,,,,,,,,,,,,,,367.7569999046391,,response,,,,17,A,,,,,,Space,keypress(Space),,,,silence,,,,-------------- --- -------- -------- ---------- ---- -------<br>-- ---------- -- --- ----- ------ ----- ---- --------- ----<br>------- ------ -------- -- ------ ---------- ------ ---<br>------ -- be ---- -- ---------- -------- ------ ---- -------<br>---- --- --------- ------- ----- --------- ---- ----- --<br>------ -------- -- ------ -- ---- ------------,764255.8999999762,764254.5999999046,763870.177,763880.3999999762,763886.843,764270.182,,27,be
screen,html.Screen,2_3_1_0_1_28,2022-04-25T14:58:34.450Z,,,,,,,,,,,,,,,,,19,,,,,,,,,,,,,,448.6179999522865,,response,,,,17,A,,,,,,Space,keypress(Space),,,,silence,,,,-------------- --- -------- -------- ---------- ---- -------<br>-- ---------- -- --- ----- ------ ----- ---- --------- ----<br>------- ------ -------- -- ------ ---------- ------ ---<br>------ -- -- full -- ---------- -------- ------ ---- -------<br>---- --- --------- ------- ----- --------- ---- ----- --<br>------ -------- -- ------ -- ---- ------------,764720.0999999046,764718.7999999523,764253.516,764256.2999999523,764270.182,764736.84,,28,full
screen,html.Screen,2_3_1_0_1_29,2022-04-25T14:58:35.043Z,,,,,,,,,,,,,,,,,19,,,,,,,,,,,,,,574.6600000000326,,response,,,,17,A,,,,,,Space,keypress(Space),,,,silence,,,,-------------- --- -------- -------- ---------- ---- -------<br>-- ---------- -- --- ----- ------ ----- ---- --------- ----<br>------- ------ -------- -- ------ ---------- ------ ---<br>------ -- -- ---- of ---------- -------- ------ ---- -------<br>---- --- --------- ------- ----- --------- ---- ----- --<br>------ -------- -- ------ -- ---- ------------,765313,765311.5,764720.174,764720.3999999762,764736.84,765320.181,,29,of
screen,html.Screen,2_3_1_0_1_30,2022-04-25T14:58:35.722Z,,,,,,,,,,,,,,,,,19,,,,,,,,,,,,,,670.4189999046503,,response,,,,17,A,,,,,,Space,keypress(Space),,,,silence,,,,-------------- --- -------- -------- ---------- ---- -------<br>-- ---------- -- --- ----- ------ ----- ---- --------- ----<br>------- ------ -------- -- ------ ---------- ------ ---<br>------ -- -- ---- -- surprises. -------- ------ ---- -------<br>---- --- --------- ------- ----- --------- ---- ----- --<br>------ -------- -- ------ -- ---- ------------,765992,765990.5999999046,765303.515,765313.3999999762,765320.181,766003.496,,30,surprises.
screen,html.Screen,2_3_1_0_1_31,2022-04-25T14:58:36.858Z,,,,,,,,,,,,,,,,,19,,,,,,,,,,,,,,1123.3039999522734,,response,,,,17,A,,,,,,Space,keypress(Space),,,,silence,,,,-------------- --- -------- -------- ---------- ---- -------<br>-- ---------- -- --- ----- ------ ----- ---- --------- ----<br>------- ------ -------- -- ------ ---------- ------ ---<br>------ -- -- ---- -- ---------- Chemists ------ ---- -------<br>---- --- --------- ------- ----- --------- ---- ----- --<br>------ -------- -- ------ -- ---- ------------,767128.3999999762,767126.7999999523,765986.83,765992.3999999762,766003.496,767136.803,,31,Chemists
screen,html.Screen,2_3_1_0_1_32,2022-04-25T14:58:37.138Z,,,,,,,,,,,,,,,,,19,,,,,,,,,,,,,,269.8969999285182,,response,,,,17,A,,,,,,Space,keypress(Space),,,,silence,,,,-------------- --- -------- -------- ---------- ---- -------<br>-- ---------- -- --- ----- ------ ----- ---- --------- ----<br>------- ------ -------- -- ------ ---------- ------ ---<br>------ -- -- ---- -- ---------- -------- cannot ---- -------<br>---- --- --------- ------- ----- --------- ---- ----- --<br>------ -------- -- ------ -- ---- ------------,767408.1999999285,767406.6999999285,767120.137,767128.7999999523,767136.803,767420.144,,32,cannot
screen,html.Screen,2_3_1_0_1_33,2022-04-25T14:58:37.778Z,,,,,,,,,,,,,,,,,19,,,,,,,,,,,,,,626.5559999285033,,response,,,,17,A,,,,,,Space,keypress(Space),,,,silence,,,,-------------- --- -------- -------- ---------- ---- -------<br>-- ---------- -- --- ----- ------ ----- ---- --------- ----<br>------- ------ -------- -- ------ ---------- ------ ---<br>------ -- -- ---- -- ---------- -------- ------ even -------<br>---- --- --------- ------- ----- --------- ---- ----- --<br>------ -------- -- ------ -- ---- ------------,768048,768046.6999999285,767403.478,767408.5,767420.144,768053.455,,33,even
screen,html.Screen,2_3_1_0_1_34,2022-04-25T14:58:38.226Z,,,,,,,,,,,,,,,,,19,,,,,,,,,,,,,,441.44499997620005,,response,,,,17,A,,,,,,Space,keypress(Space),,,,silence,,,,-------------- --- -------- -------- ---------- ---- -------<br>-- ---------- -- --- ----- ------ ----- ---- --------- ----<br>------- ------ -------- -- ------ ---------- ------ ---<br>------ -- -- ---- -- ---------- -------- ------ ---- predict<br>---- --- --------- ------- ----- --------- ---- ----- --<br>------ -------- -- ------ -- ---- ------------,768496.5,768494.8999999762,768036.789,768048.2999999523,768053.455,768503.481,,34,predict
screen,html.Screen,2_3_1_0_1_35,2022-04-25T14:58:39.330Z,,,,,,,,,,,,,,,,,19,,,,,,,,,,,,,,1095.2189999284456,,response,,,,17,A,,,,,,Space,keypress(Space),,,,silence,,,,-------------- --- -------- -------- ---------- ---- -------<br>-- ---------- -- --- ----- ------ ----- ---- --------- ----<br>------- ------ -------- -- ------ ---------- ------ ---<br>------ -- -- ---- -- ---------- -------- ------ ---- -------<br>with --- --------- ------- ----- --------- ---- ----- --<br>------ -------- -- ------ -- ---- ------------,769600.0999999046,769598.6999999285,768486.815,768496.7999999523,768503.481,769603.379,,35,with
screen,html.Screen,2_3_1_0_1_36,2022-04-25T14:58:39.938Z,,,,,,,,,,,,,,,,,19,,,,,,,,,,,,,,603.3209999285173,,response,,,,17,A,,,,,,Space,keypress(Space),,,,silence,,,,-------------- --- -------- -------- ---------- ---- -------<br>-- ---------- -- --- ----- ------ ----- ---- --------- ----<br>------- ------ -------- -- ------ ---------- ------ ---<br>------ -- -- ---- -- ---------- -------- ------ ---- -------<br>---- any --------- ------- ----- --------- ---- ----- --<br>------ -------- -- ------ -- ---- ------------,770208,770206.6999999285,769586.713,769600.5,769603.379,770220.067,,36,any
screen,html.Screen,2_3_1_0_1_37,2022-04-25T14:58:40.394Z,,,,,,,,,,,,,,,,,19,,,,,,,,,,,,,,442.73299995227717,,response,,,,17,A,,,,,,Space,keypress(Space),,,,silence,,,,-------------- --- -------- -------- ---------- ---- -------<br>-- ---------- -- --- ----- ------ ----- ---- --------- ----<br>------- ------ -------- -- ------ ---------- ------ ---<br>------ -- -- ---- -- ---------- -------- ------ ---- -------<br>---- --- certainty ------- ----- --------- ---- ----- --<br>------ -------- -- ------ -- ---- ------------,770664.1999999285,770662.7999999523,770203.401,770208.2999999523,770220.067,770670.054,,37,certainty
screen,html.Screen,2_3_1_0_1_38,2022-04-25T14:58:40.826Z,,,,,,,,,,,,,,,,,19,,,,,,,,,,,,,,424.6459999284707,,response,,,,17,A,,,,,,Space,keypress(Space),,,,silence,,,,-------------- --- -------- -------- ---------- ---- -------<br>-- ---------- -- --- ----- ------ ----- ---- --------- ----<br>------- ------ -------- -- ------ ---------- ------ ---<br>------ -- -- ---- -- ---------- -------- ------ ---- -------<br>---- --- --------- whether ----- --------- ---- ----- --<br>------ -------- -- ------ -- ---- ------------,771096.1999999285,771094.6999999285,770653.388,770664.5,770670.054,771103.471,,38,whether
screen,html.Screen,2_3_1_0_1_39,2022-04-25T14:58:41.210Z,,,,,,,,,,,,,,,,,19,,,,,,,,,,,,,,375.22899992845487,,response,,,,17,A,,,,,,Space,keypress(Space),,,,silence,,,,-------------- --- -------- -------- ---------- ---- -------<br>-- ---------- -- --- ----- ------ ----- ---- --------- ----<br>------- ------ -------- -- ------ ---------- ------ ---<br>------ -- -- ---- -- ---------- -------- ------ ---- -------<br>---- --- --------- ------- these --------- ---- ----- --<br>------ -------- -- ------ -- ---- ------------,771480,771478.6999999285,771086.805,771096.5,771103.471,771486.7,,39,these
