sender,sender_type,sender_id,timestamp,meta,,Blues,Classical,Country,Dance,Electronic,Folk,Gospel,Hip-Hop,Jazz,Latin,Musical/Film,New-age,Pop,Prolific_id,Provo_ID,R&B,Rap,Reggae,Religious,Rock,Soul,Swing,Traditional,age,artist_name,correct,correctResponse,distraction,duration,education,ended_on,familiarity,gender,headphone_check_performance,item,list,music_frequency,offensiveness,pleasantness,position_correct,preference,response,response_action,snippet_file,song_name,song_rating,sound,stimulus_1,stimulus_2,stimulus_3,text,time_commit,time_end,time_render,time_run,time_show,time_switch,url,word,word_ID
Prolific ID,html.Form,0,2022-04-25T17:26:53.575Z,"{""labjs_version"":""20.2.2"",""labjs_build"":{""flavor"":""production"",""commit"":""a25486e0c714a0ae2ce03ff94b7bb6896854dcfa""},""location"":""https://run.pavlovia.org/mvasilev/prolific3_music_b/"",""userAgent"":""Mozilla/5.0 (Windows NT 10.0; Win64; x64) AppleWebKit/537.36 (KHTML, like Gecko) Chrome/100.0.4896.127 Safari/537.36"",""platform"":""Win32"",""language"":""en-GB"",""locale"":""en-GB"",""timeZone"":""Europe/London"",""timezoneOffset"":-60,""screen_width"":1366,""screen_height"":768,""scroll_width"":2049,""scroll_height"":1104,""window_innerWidth"":2049,""window_innerHeight"":1152,""devicePixelRatio"":0.6666666865348816}",,,,,,,,,,,,,,,5a75b131eea3d300016ddc70,,,,,,,,,,,,,,,16082.96,,form submission,,,,,,,,,,,,,,,,,,,,,35347.19999998808,35347,19234.195,19249.19999998808,19264.04,35353.819,{},,
Introduction,html.Screen,1_0,2022-04-25T17:27:03.719Z,,,,,,,,,,,,,,,,,,,,,,,,,,,,,,,10134.980999982115,,response,,,,,,,,,,,continue,click button,,,,,,,,,45491.79999998212,45488.79999998212,35337.302,35347.40000000596,35353.819,45506.107,,,
Volume calibration,html.Screen,1_1,2022-04-25T17:27:40.504Z,,,,,,,,,,,,,,,,,,,,,,,,,,,,,,,36766.79300000596,,response,,,,,,,,,,,continue,click button,,,,,,,,,82276.09999999404,82272.90000000596,45472.943,45491.90000000596,45506.107,82285.323,,,
Task instructions,html.Screen,1_2,2022-04-25T17:27:54.574Z,,,,,,,,,,,,,,,,,,,,,,,,,,,,,,,14059.476999982115,,response,,,,,,,,,,,continue,click button,,,,,,,,,96346.29999998212,96344.79999998212,82268.644,82276.09999999404,82285.323,96351.158,,,
Sounds,html.Screen,1_3_0_0,2022-04-25T17:27:58.812Z,,,,,,,,,,,,,,,,,,,,,,,,,,,,,,,4248.414000000004,,timeout,,,,,,,,,3,,,,,,,,O,I,S,,100584.29999998212,100582.878,96334.618,96346.40000000596,96351.158,100599.572,,,
Judgement,html.Screen,1_3_0_1,2022-04-25T17:27:59.694Z,,,,,,,,,,,,,,,,,,,,,,,,,,,,true,3,,865.3280000059603,,response,,,,,,,,,3,,3,click #choice-3,,,,,O,I,S,,101466.40000000596,101464.90000000596,100582.878,100584.40000000596,100599.572,101469.083,,,
Trial,flow.Sequence,1_3_0,2022-04-25T17:27:59.694Z,,,,,,,,,,,,,,,,,,,,,,,,,,,,,,,5113.742000005965,,completion,,,,,,,,,3,,,,,,,,O,I,S,,101466.59999999404,101464.90000000596,96334.618,96346.40000000596,96351.158,101469.083,,,
Sounds,html.Screen,1_3_1_0,2022-04-25T17:28:03.929Z,,,,,,,,,,,,,,,,,,,,,,,,,,,,,,,4248.468000000008,,timeout,,,,,,,,,1,,,,,,,,S,I,O,,105701.40000000596,105700.805,101452.326,101466.69999998808,101469.083,105717.551,,,
Judgement,html.Screen,1_3_1_1,2022-04-25T17:28:04.670Z,,,,,,,,,,,,,,,,,,,,,,,,,,,,true,1,,723.3490000059537,,response,,,,,,,,,1,,1,click #choice-1,,,,,S,I,O,,106442.40000000596,106440.90000000596,105700.805,105701.5,105717.551,106453.358,,,
Trial,flow.Sequence,1_3_1,2022-04-25T17:28:04.670Z,,,,,,,,,,,,,,,,,,,,,,,,,,,,,,,4971.817000005962,,completion,,,,,,,,,1,,,,,,,,S,I,O,,106442.5,106440.90000000596,101452.326,101466.59999999404,101469.083,106453.358,,,
Sounds,html.Screen,1_3_2_0,2022-04-25T17:28:08.913Z,,,,,,,,,,,,,,,,,,,,,,,,,,,,,,,4248.257000000012,,timeout,,,,,,,,,2,,,,,,,,I,S,O,,110685.59999999404,110684.995,106436.747,106442.5,106453.358,110701.615,,,
Judgement,html.Screen,1_3_2_1,2022-04-25T17:28:09.534Z,,,,,,,,,,,,,,,,,,,,,,,,,,,,true,2,,603.2850000059552,,response,,,,,,,,,2,,2,click #choice-2,,,,,I,S,O,,111306.40000000596,111304.90000000596,110684.995,110685.69999998808,110701.615,111320.455,,,
Trial,flow.Sequence,1_3_2,2022-04-25T17:28:09.534Z,,,,,,,,,,,,,,,,,,,,,,,,,,,,,,,4851.542000005968,,completion,,,,,,,,,2,,,,,,,,I,S,O,,111306.5,111304.90000000596,106436.747,106442.5,106453.358,111320.455,,,
Sounds,html.Screen,1_3_3_0,2022-04-25T17:28:13.781Z,,,,,,,,,,,,,,,,,,,,,,,,,,,,,,,4248.289999999994,,timeout,,,,,,,,,3,,,,,,,,I,O,S,,115553.29999998212,115551.752,111303.815,111306.59999999404,111320.455,115568.745,,,
Judgement,html.Screen,1_3_3_1,2022-04-25T17:28:14.494Z,,,,,,,,,,,,,,,,,,,,,,,,,,,,true,3,,696.1550000059651,,response,,,,,,,,,3,,3,click #choice-3,,,,,I,O,S,,116266.40000000596,116264.90000000596,115551.752,115553.40000000596,115568.745,116270.988,,,
Trial,flow.Sequence,1_3_3,2022-04-25T17:28:14.494Z,,,,,,,,,,,,,,,,,,,,,,,,,,,,,,,4944.445000005959,,completion,,,,,,,,,3,,,,,,,,I,O,S,,116266.40000000596,116264.90000000596,111303.815,111306.59999999404,111320.455,116270.988,,,
Sounds,html.Screen,1_3_4_0,2022-04-25T17:28:18.731Z,,,,,,,,,,,,,,,,,,,,,,,,,,,,,,,4248.407999999996,,timeout,,,,,,,,,2,,,,,,,,O,S,I,,120503.29999998212,120502.679,116254.211,116266.5,116270.988,120519.396,,,
Judgement,html.Screen,1_3_4_1,2022-04-25T17:28:19.286Z,,,,,,,,,,,,,,,,,,,,,,,,,,,,true,2,,537.2039999940462,,response,,,,,,,,,2,,2,click #choice-2,,,,,O,S,I,,121058.09999999404,121056.59999999404,120502.679,120503.29999998212,120519.396,121071.319,,,
Trial,flow.Sequence,1_3_4,2022-04-25T17:28:19.286Z,,,,,,,,,,,,,,,,,,,,,,,,,,,,,,,4785.611999994042,,completion,,,,,,,,,2,,,,,,,,O,S,I,,121058.09999999404,121056.59999999404,116254.211,116266.5,116270.988,121071.319,,,
Sounds,html.Screen,1_3_5_0,2022-04-25T17:28:23.531Z,,,,,,,,,,,,,,,,,,,,,,,,,,,,,,,4248.289999999994,,timeout,,,,,,,,,1,,,,,,,,S,O,I,,125303.5,125302.895,121054.583,121058.19999998808,121071.319,125319.609,,,
Judgement,html.Screen,1_3_5_1,2022-04-25T17:28:24.030Z,,,,,,,,,,,,,,,,,,,,,,,,,,,,true,1,,481.19099998212187,,response,,,,,,,,,1,,1,click #choice-1,,,,,S,O,I,,125802.40000000596,125800.79999998212,125302.895,125303.5,125319.609,125804.371,,,
Trial,flow.Sequence,1_3_5,2022-04-25T17:28:24.030Z,,,,,,,,,,,,,,,,,,,,,,,,,,,,,,,4729.4809999821155,,completion,,,,,,,,,1,,,,,,,,S,O,I,,125802.40000000596,125800.79999998212,121054.583,121058.19999998808,121071.319,125804.371,,,
Task,flow.Loop,1_3,2022-04-25T17:28:24.033Z,,,,,,,,,,,,,,,,,,,,,,,,,,,,,,,29449.641999982123,,completion,,,1,,,,,,,,,,,,,,,,,,125805.5,125800.79999998212,96334.618,96346.40000000596,96351.158,125804.371,,,
Trap,html.Screen,1_4,2022-04-25T17:28:24.034Z,,,,,,,,,,,,,,,,,,,,,,,,,,,,,,,NaN,,skipped,,,,,,,,,,,,,,,,,,,,,125806.09999999404,125800.79999998212,,125806,,125804.371,,,
Thanks,html.Screen,1_5,2022-04-25T17:28:27.630Z,,,,,,,,,,,,,,,,,,,,,,,,,,,,,,,3596.5290000059613,,response,,,,,,,,,,,continue,click button,,,,,,,,,129402.29999998212,129400.90000000596,125787.927,125806.19999998808,125804.371,133815.807,,,
Headphone screening,flow.Sequence,1,2022-04-25T17:28:27.630Z,,,,,,,,,,,,,,,,,,,,,,,,,,,,,,,94047.08100000596,,completion,,,,,,,,,,,,,,,,,,,,,129402.40000000596,129400.90000000596,35337.302,35347.40000000596,35353.819,133815.807,,,
Instructions,html.Page,2_0,2022-04-25T17:28:54.430Z,,,,,,,,,,,,,,,,,,,,,,,,,,,,,,,22386.492999982118,,form submission,,,,,,,,,,,,,,,,,,,,,156202.59999999404,156202.29999998212,133799.371,133813.19999998808,133815.807,156211.037,,,
Holding screen,html.Screen,2_1_0_0,2022-04-25T17:29:04.425Z,,,,,,,,,,,,,,,,,,,,,,,,,,,,,,,10002.016999999993,,timeout,,,,,,,,,,,,,,,,,,,,,166196.69999998808,166196.33,156194.49,156202.69999998808,156211.037,166213.054,,,
screen,html.Screen,2_1_0_1_0,2022-04-25T17:29:05.383Z,,,,,,,,,,,,,,,,,53,,,,,,,,,,,,,,940.0459999940358,,response,,,,99,,,,,,,Space,keypress(Space),,,,,,,,When -- ----- -- ------ - ------- --- ----------<br>------------- ------ ------ ---- ---- ------- ----- -- ----<br>-------- ------- -- ---------- --- - --- ----- ----- ----<br>---- --- --- ----- --- ---- ---- ------- ----- ---- -------<br>--- --- -- ----- -- --- ---- -- --- ---- -- ------ ------<br>--- ----- -- ----,167155,167153.09999999404,166196.33,166196.79999998212,166213.054,167166.423,,0,When
screen,html.Screen,2_1_0_1_1,2022-04-25T17:29:06.045Z,,,,,,,,,,,,,,,,,53,,,,,,,,,,,,,,650.4770000059507,,response,,,,99,,,,,,,Space,keypress(Space),,,,,,,,---- it ----- -- ------ - ------- --- ----------<br>------------- ------ ------ ---- ---- ------- ----- -- ----<br>-------- ------- -- ---------- --- - --- ----- ----- ----<br>---- --- --- ----- --- ---- ---- ------- ----- ---- -------<br>--- --- -- ----- -- --- ---- -- --- ---- -- ------ ------<br>--- ----- -- ----,167817.5,167816.90000000596,167149.309,167155.09999999404,167166.423,167848.296,,1,it
screen,html.Screen,2_1_0_1_2,2022-04-25T17:29:06.877Z,,,,,,,,,,,,,,,,,53,,,,,,,,,,,,,,800.403999988077,,response,,,,99,,,,,,,Space,keypress(Space),,,,,,,,---- -- comes -- ------ - ------- --- ----------<br>------------- ------ ------ ---- ---- ------- ----- -- ----<br>-------- ------- -- ---------- --- - --- ----- ----- ----<br>---- --- --- ----- --- ---- ---- ------- ----- ---- -------<br>--- --- -- ----- -- --- ---- -- --- ---- -- ------ ------<br>--- ----- -- ----,168649.40000000596,168648.69999998808,167801.712,167817.5,167848.296,168654.629,,2,comes
screen,html.Screen,2_1_0_1_3,2022-04-25T17:29:07.701Z,,,,,,,,,,,,,,,,,53,,,,,,,,,,,,,,817.9709999940533,,response,,,,99,,,,,,,Space,keypress(Space),,,,,,,,---- -- ----- to ------ - ------- --- ----------<br>------------- ------ ------ ---- ---- ------- ----- -- ----<br>-------- ------- -- ---------- --- - --- ----- ----- ----<br>---- --- --- ----- --- ---- ---- ------- ----- ---- -------<br>--- --- -- ----- -- --- ---- -- --- ---- -- ------ ------<br>--- ----- -- ----,169473.09999999404,169472.59999999404,168637.918,168649.5,168654.629,169503.621,,3,to
screen,html.Screen,2_1_0_1_4,2022-04-25T17:29:08.422Z,,,,,,,,,,,,,,,,,53,,,,,,,,,,,,,,689.2790000059467,,response,,,,99,,,,,,,Space,keypress(Space),,,,,,,,---- -- ----- -- having - ------- --- ----------<br>------------- ------ ------ ---- ---- ------- ----- -- ----<br>-------- ------- -- ---------- --- - --- ----- ----- ----<br>---- --- --- ----- --- ---- ---- ------- ----- ---- -------<br>--- --- -- ----- -- --- ---- -- --- ---- -- ------ ------<br>--- ----- -- ----,170193.69999998808,170192.90000000596,169457.345,169473.09999999404,169503.621,170210.161,,4,having
screen,html.Screen,2_1_0_1_5,2022-04-25T17:29:08.901Z,,,,,,,,,,,,,,,,,53,,,,,,,,,,,,,,462.5389999880863,,response,,,,99,,,,,,,Space,keypress(Space),,,,,,,,---- -- ----- -- ------ a ------- --- ----------<br>------------- ------ ------ ---- ---- ------- ----- -- ----<br>-------- ------- -- ---------- --- - --- ----- ----- ----<br>---- --- --- ----- --- ---- ---- ------- ----- ---- -------<br>--- --- -- ----- -- --- ---- -- --- ---- -- ------ ------<br>--- ----- -- ----,170673.19999998808,170672.69999998808,170193.45,170193.69999998808,170210.161,170678.466,,5,a
screen,html.Screen,2_1_0_1_6,2022-04-25T17:29:09.510Z,,,,,,,,,,,,,,,,,53,,,,,,,,,,,,,,602.4340000059747,,response,,,,99,,,,,,,Space,keypress(Space),,,,,,,,---- -- ----- -- ------ - lasting --- ----------<br>------------- ------ ------ ---- ---- ------- ----- -- ----<br>-------- ------- -- ---------- --- - --- ----- ----- ----<br>---- --- --- ----- --- ---- ---- ------- ----- ---- -------<br>--- --- -- ----- -- --- ---- -- --- ---- -- ------ ------<br>--- ----- -- ----,171281.59999999404,171280.90000000596,170661.79,170673.19999998808,170678.466,171297.596,,6,lasting
screen,html.Screen,2_1_0_1_7,2022-04-25T17:29:09.989Z,,,,,,,,,,,,,,,,,53,,,,,,,,,,,,,,463.30400000597,,response,,,,99,,,,,,,Space,keypress(Space),,,,,,,,---- -- ----- -- ------ - ------- and ----------<br>------------- ------ ------ ---- ---- ------- ----- -- ----<br>-------- ------- -- ---------- --- - --- ----- ----- ----<br>---- --- --- ----- --- ---- ---- ------- ----- ---- -------<br>--- --- -- ----- -- --- ---- -- --- ---- -- ------ ------<br>--- ----- -- ----,171761.40000000596,171760.90000000596,171280.635,171281.69999998808,171297.596,171765.613,,7,and
screen,html.Screen,2_1_0_1_8,2022-04-25T17:29:10.493Z,,,,,,,,,,,,,,,,,53,,,,,,,,,,,,,,499.28700000594836,,response,,,,99,,,,,,,Space,keypress(Space),,,,,,,,---- -- ----- -- ------ - ------- --- fulfilling<br>------------- ------ ------ ---- ---- ------- ----- -- ----<br>-------- ------- -- ---------- --- - --- ----- ----- ----<br>---- --- --- ----- --- ---- ---- ------- ----- ---- -------<br>--- --- -- ----- -- --- ---- -- --- ---- -- ------ ------<br>--- ----- -- ----,172265.40000000596,172264.90000000596,171748.973,171761.5,171765.613,172267.303,,8,fulfilling
screen,html.Screen,2_1_0_1_9,2022-04-25T17:29:11.422Z,,,,,,,,,,,,,,,,,53,,,,,,,,,,,,,,925.597000005946,,response,,,,99,,,,,,,Space,keypress(Space),,,,,,,,"---- -- ----- -- ------ - ------- --- ----------<br>relationship, ------ ------ ---- ---- ------- ----- -- ----<br>-------- ------- -- ---------- --- - --- ----- ----- ----<br>---- --- --- ----- --- ---- ---- ------- ----- ---- -------<br>--- --- -- ----- -- --- ---- -- --- ---- -- ------ ------<br>--- ----- -- ----",173193.69999998808,173192.90000000596,172250.652,172265.40000000596,172267.303,173204.227,,9,"relationship,"
screen,html.Screen,2_1_0_1_10,2022-04-25T17:29:12.117Z,,,,,,,,,,,,,,,,,53,,,,,,,,,,,,,,684.7729999999865,,response,,,,99,,,,,,,Space,keypress(Space),,,,,,,,---- -- ----- -- ------ - ------- --- ----------<br>------------- common ------ ---- ---- ------- ----- -- ----<br>-------- ------- -- ---------- --- - --- ----- ----- ----<br>---- --- --- ----- --- ---- ---- ------- ----- ---- -------<br>--- --- -- ----- -- --- ---- -- --- ---- -- ------ ------<br>--- ----- -- ----,173889.5,173889,173187.192,173193.79999998212,173204.227,173923.499,,10,common
screen,html.Screen,2_1_0_1_11,2022-04-25T17:29:12.678Z,,,,,,,,,,,,,,,,,53,,,,,,,,,,,,,,525.5009999999893,,response,,,,99,,,,,,,Space,keypress(Space),,,,,,,,---- -- ----- -- ------ - ------- --- ----------<br>------------- ------ wisdom ---- ---- ------- ----- -- ----<br>-------- ------- -- ---------- --- - --- ----- ----- ----<br>---- --- --- ----- --- ---- ---- ------- ----- ---- -------<br>--- --- -- ----- -- --- ---- -- --- ---- -- ------ ------<br>--- ----- -- ----,174449.69999998808,174449,173906.67,173889.5,173923.499,174458.583,,11,wisdom
screen,html.Screen,2_1_0_1_12,2022-04-25T17:29:13.125Z,,,,,,,,,,,,,,,,,53,,,,,,,,,,,,,,438.3170000059472,,response,,,,99,,,,,,,Space,keypress(Space),,,,,,,,---- -- ----- -- ------ - ------- --- ----------<br>------------- ------ ------ says ---- ------- ----- -- ----<br>-------- ------- -- ---------- --- - --- ----- ----- ----<br>---- --- --- ----- --- ---- ---- ------- ----- ---- -------<br>--- --- -- ----- -- --- ---- -- --- ---- -- ------ ------<br>--- ----- -- ----,174897.40000000596,174896.90000000596,174441.733,174449.79999998212,174458.583,174910.017,,12,says
screen,html.Screen,2_1_0_1_13,2022-04-25T17:29:13.621Z,,,,,,,,,,,,,,,,,53,,,,,,,,,,,,,,482.8830000059679,,response,,,,99,,,,,,,Space,keypress(Space),,,,,,,,---- -- ----- -- ------ - ------- --- ----------<br>------------- ------ ------ ---- that ------- ----- -- ----<br>-------- ------- -- ---------- --- - --- ----- ----- ----<br>---- --- --- ----- --- ---- ---- ------- ----- ---- -------<br>--- --- -- ----- -- --- ---- -- --- ---- -- ------ ------<br>--- ----- -- ----,175393.5,175392.90000000596,174893.342,174897.5,174910.017,175394.95,,13,that
screen,html.Screen,2_1_0_1_14,2022-04-25T17:29:14.341Z,,,,,,,,,,,,,,,,,53,,,,,,,,,,,,,,717.7499999880674,,response,,,,99,,,,,,,Space,keypress(Space),,,,,,,,---- -- ----- -- ------ - ------- --- ----------<br>------------- ------ ------ ---- ---- feeling ----- -- ----<br>-------- ------- -- ---------- --- - --- ----- ----- ----<br>---- --- --- ----- --- ---- ---- ------- ----- ---- -------<br>--- --- -- ----- -- --- ---- -- --- ---- -- ------ ------<br>--- ----- -- ----,176113.29999998212,176112.69999998808,175378.397,175393.5,175394.95,176141.246,,14,feeling
screen,html.Screen,2_1_0_1_15,2022-04-25T17:29:14.869Z,,,,,,,,,,,,,,,,,53,,,,,,,,,,,,,,499.6540000059467,,response,,,,99,,,,,,,Space,keypress(Space),,,,,,,,---- -- ----- -- ------ - ------- --- ----------<br>------------- ------ ------ ---- ---- ------- close -- ----<br>-------- ------- -- ---------- --- - --- ----- ----- ----<br>---- --- --- ----- --- ---- ---- ------- ----- ---- -------<br>--- --- -- ----- -- --- ---- -- --- ---- -- ------ ------<br>--- ----- -- ----,176641.40000000596,176640.90000000596,176097.513,176113.40000000596,176141.246,176649.619,,15,close
screen,html.Screen,2_1_0_1_16,2022-04-25T17:29:15.285Z,,,,,,,,,,,,,,,,,53,,,,,,,,,,,,,,407.2810000059544,,response,,,,99,,,,,,,Space,keypress(Space),,,,,,,,---- -- ----- -- ------ - ------- --- ----------<br>------------- ------ ------ ---- ---- ------- ----- to ----<br>-------- ------- -- ---------- --- - --- ----- ----- ----<br>---- --- --- ----- --- ---- ---- ------- ----- ---- -------<br>--- --- -- ----- -- --- ---- -- --- ---- -- ------ ------<br>--- ----- -- ----,177057.40000000596,177056.90000000596,176632.77,176641.40000000596,176649.619,177067.751,,16,to
screen,html.Screen,2_1_0_1_17,2022-04-25T17:29:15.710Z,,,,,,,,,,,,,,,,,53,,,,,,,,,,,,,,413.2490000000107,,response,,,,99,,,,,,,Space,keypress(Space),,,,,,,,---- -- ----- -- ------ - ------- --- ----------<br>------------- ------ ------ ---- ---- ------- ----- -- your<br>-------- ------- -- ---------- --- - --- ----- ----- ----<br>---- --- --- ----- --- ---- ---- ------- ----- ---- -------<br>--- --- -- ----- -- --- ---- -- --- ---- -- ------ ------<br>--- ----- -- ----,177481.69999998808,177481,177050.874,177057.40000000596,177067.751,177485.674,,17,your
screen,html.Screen,2_1_0_1_18,2022-04-25T17:29:16.205Z,,,,,,,,,,,,,,,,,53,,,,,,,,,,,,,,491.2260000059614,,response,,,,99,,,,,,,Space,keypress(Space),,,,,,,,---- -- ----- -- ------ - ------- --- ----------<br>------------- ------ ------ ---- ---- ------- ----- -- ----<br>romantic ------- -- ---------- --- - --- ----- ----- ----<br>---- --- --- ----- --- ---- ---- ------- ----- ---- -------<br>--- --- -- ----- -- --- ---- -- --- ---- -- ------ ------<br>--- ----- -- ----,177977.40000000596,177976.90000000596,177468.793,177481.79999998212,177485.674,177987.437,,18,romantic
screen,html.Screen,2_1_0_1_19,2022-04-25T17:29:16.629Z,,,,,,,,,,,,,,,,,53,,,,,,,,,,,,,,413.4630000059551,,response,,,,99,,,,,,,Space,keypress(Space),,,,,,,,---- -- ----- -- ------ - ------- --- ----------<br>------------- ------ ------ ---- ---- ------- ----- -- ----<br>-------- partner -- ---------- --- - --- ----- ----- ----<br>---- --- --- ----- --- ---- ---- ------- ----- ---- -------<br>--- --- -- ----- -- --- ---- -- --- ---- -- ------ ------<br>--- ----- -- ----,178401.29999998212,178400.90000000596,177970.75,177977.40000000596,177987.437,178405.468,,19,partner
screen,html.Screen,2_1_0_1_20,2022-04-25T17:29:17.102Z,,,,,,,,,,,,,,,,,53,,,,,,,,,,,,,,467.432000005967,,response,,,,99,,,,,,,Space,keypress(Space),,,,,,,,---- -- ----- -- ------ - ------- --- ----------<br>------------- ------ ------ ---- ---- ------- ----- -- ----<br>-------- ------- is ---------- --- - --- ----- ----- ----<br>---- --- --- ----- --- ---- ---- ------- ----- ---- -------<br>--- --- -- ----- -- --- ---- -- --- ---- -- ------ ------<br>--- ----- -- ----,178873.59999999404,178872.90000000596,178388.938,178401.40000000596,178405.468,178907.584,,20,is
screen,html.Screen,2_1_0_1_21,2022-04-25T17:29:17.925Z,,,,,,,,,,,,,,,,,53,,,,,,,,,,,,,,789.3160000059579,,response,,,,99,,,,,,,Space,keypress(Space),,,,,,,,---- -- ----- -- ------ - ------- --- ----------<br>------------- ------ ------ ---- ---- ------- ----- -- ----<br>-------- ------- -- paramount. --- - --- ----- ----- ----<br>---- --- --- ----- --- ---- ---- ------- ----- ---- -------<br>--- --- -- ----- -- --- ---- -- --- ---- -- ------ ------<br>--- ----- -- ----,179697.5,179696.90000000596,178890.828,178873.69999998808,178907.584,179710.485,,21,paramount.
screen,html.Screen,2_1_0_1_22,2022-04-25T17:29:18.582Z,,,,,,,,,,,,,,,,,53,,,,,,,,,,,,,,642.4150000059744,,response,,,,99,,,,,,,Space,keypress(Space),,,,,,,,---- -- ----- -- ------ - ------- --- ----------<br>------------- ------ ------ ---- ---- ------- ----- -- ----<br>-------- ------- -- ---------- But - --- ----- ----- ----<br>---- --- --- ----- --- ---- ---- ------- ----- ---- -------<br>--- --- -- ----- -- --- ---- -- --- ---- -- ------ ------<br>--- ----- -- ----,180353.59999999404,180352.90000000596,179693.131,179697.5,179710.485,180362.621,,22,But
screen,html.Screen,2_1_0_1_23,2022-04-25T17:29:19.053Z,,,,,,,,,,,,,,,,,53,,,,,,,,,,,,,,462.2790000059467,,response,,,,99,,,,,,,Space,keypress(Space),,,,,,,,---- -- ----- -- ------ - ------- --- ----------<br>------------- ------ ------ ---- ---- ------- ----- -- ----<br>-------- ------- -- ---------- --- a --- ----- ----- ----<br>---- --- --- ----- --- ---- ---- ------- ----- ---- -------<br>--- --- -- ----- -- --- ---- -- --- ---- -- ------ ------<br>--- ----- -- ----,180825.40000000596,180824.90000000596,180345.475,180353.69999998808,180362.621,180830.746,,23,a
screen,html.Screen,2_1_0_1_24,2022-04-25T17:29:19.477Z,,,,,,,,,,,,,,,,,53,,,,,,,,,,,,,,418.25399999998626,,response,,,,99,,,,,,,Space,keypress(Space),,,,,,,,---- -- ----- -- ------ - ------- --- ----------<br>------------- ------ ------ ---- ---- ------- ----- -- ----<br>-------- ------- -- ---------- --- - new ----- ----- ----<br>---- --- --- ----- --- ---- ---- ------- ----- ---- -------<br>--- --- -- ----- -- --- ---- -- --- ---- -- ------ ------<br>--- ----- -- ----,181249.40000000596,181249,180814.132,180825.5,180830.746,181265.777,,24,new
screen,html.Screen,2_1_0_1_25,2022-04-25T17:29:19.893Z,,,,,,,,,,,,,,,,,53,,,,,,,,,,,,,,399.02299998211674,,response,,,,99,,,,,,,Space,keypress(Space),,,,,,,,---- -- ----- -- ------ - ------- --- ----------<br>------------- ------ ------ ---- ---- ------- ----- -- ----<br>-------- ------- -- ---------- --- - --- study ----- ----<br>---- --- --- ----- --- ---- ---- ------- ----- ---- -------<br>--- --- -- ----- -- --- ---- -- --- ---- -- ------ ------<br>--- ----- -- ----,181665.69999998808,181664.79999998212,181248.997,181249.5,181265.777,181688.3,,25,study
screen,html.Screen,2_1_0_1_26,2022-04-25T17:29:20.277Z,,,,,,,,,,,,,,,,,53,,,,,,,,,,,,,,360.70000000001164,,response,,,,99,,,,,,,Space,keypress(Space),,,,,,,,---- -- ----- -- ------ - ------- --- ----------<br>------------- ------ ------ ---- ---- ------- ----- -- ----<br>-------- ------- -- ---------- --- - --- ----- finds ----<br>---- --- --- ----- --- ---- ---- ------- ----- ---- -------<br>--- --- -- ----- -- --- ---- -- --- ---- -- ------ ------<br>--- ----- -- ----,182049.40000000596,182049,181650.307,181665.69999998808,181688.3,182051.608,,26,finds
screen,html.Screen,2_1_0_1_27,2022-04-25T17:29:20.709Z,,,,,,,,,,,,,,,,,53,,,,,,,,,,,,,,429.19199998211116,,response,,,,99,,,,,,,Space,keypress(Space),,,,,,,,---- -- ----- -- ------ - ------- --- ----------<br>------------- ------ ------ ---- ---- ------- ----- -- ----<br>-------- ------- -- ---------- --- - --- ----- ----- that<br>---- --- --- ----- --- ---- ---- ------- ----- ---- -------<br>--- --- -- ----- -- --- ---- -- --- ---- -- ------ ------<br>--- ----- -- ----,182481.29999998212,182480.79999998212,182035.117,182049.40000000596,182051.608,182486.564,,27,that
screen,html.Screen,2_1_0_1_28,2022-04-25T17:29:21.181Z,,,,,,,,,,,,,,,,,53,,,,,,,,,,,,,,466.3360000059474,,response,,,,99,,,,,,,Space,keypress(Space),,,,,,,,---- -- ----- -- ------ - ------- --- ----------<br>------------- ------ ------ ---- ---- ------- ----- -- ----<br>-------- ------- -- ---------- --- - --- ----- ----- ----<br>it's --- --- ----- --- ---- ---- ------- ----- ---- -------<br>--- --- -- ----- -- --- ---- -- --- ---- -- ------ ------<br>--- ----- -- ----,182953.5,182952.90000000596,182469.911,182481.40000000596,182486.564,182975.996,,28,it's
screen,html.Screen,2_1_0_1_29,2022-04-25T17:29:21.676Z,,,,,,,,,,,,,,,,,53,,,,,,,,,,,,,,472.80399998210487,,response,,,,99,,,,,,,Space,keypress(Space),,,,,,,,---- -- ----- -- ------ - ------- --- ----------<br>------------- ------ ------ ---- ---- ------- ----- -- ----<br>-------- ------- -- ---------- --- - --- ----- ----- ----<br>---- not --- ----- --- ---- ---- ------- ----- ---- -------<br>--- --- -- ----- -- --- ---- -- --- ---- -- ------ ------<br>--- ----- -- ----,183449.29999998212,183448.79999998212,182938.203,182953.69999998808,182975.996,183456.614,,29,not
screen,html.Screen,2_1_0_1_30,2022-04-25T17:29:22.109Z,,,,,,,,,,,,,,,,,53,,,,,,,,,,,,,,424.28600000595907,,response,,,,99,,,,,,,Space,keypress(Space),,,,,,,,---- -- ----- -- ------ - ------- --- ----------<br>------------- ------ ------ ---- ---- ------- ----- -- ----<br>-------- ------- -- ---------- --- - --- ----- ----- ----<br>---- --- how ----- --- ---- ---- ------- ----- ---- -------<br>--- --- -- ----- -- --- ---- -- --- ---- -- ------ ------<br>--- ----- -- ----,183881.40000000596,183880.90000000596,183439.983,183449.29999998212,183456.614,183891.689,,30,how
screen,html.Screen,2_1_0_1_31,2022-04-25T17:29:22.493Z,,,,,,,,,,,,,,,,,53,,,,,,,,,,,,,,373.2110000059474,,response,,,,99,,,,,,,Space,keypress(Space),,,,,,,,---- -- ----- -- ------ - ------- --- ----------<br>------------- ------ ------ ---- ---- ------- ----- -- ----<br>-------- ------- -- ---------- --- - --- ----- ----- ----<br>---- --- --- close --- ---- ---- ------- ----- ---- -------<br>--- --- -- ----- -- --- ---- -- --- ---- -- ------ ------<br>--- ----- -- ----,184265.59999999404,184264.90000000596,183874.838,183881.40000000596,183891.689,184276.467,,31,close
screen,html.Screen,2_1_0_1_32,2022-04-25T17:29:22.868Z,,,,,,,,,,,,,,,,,53,,,,,,,,,,,,,,364.4330000059563,,response,,,,99,,,,,,,Space,keypress(Space),,,,,,,,---- -- ----- -- ------ - ------- --- ----------<br>------------- ------ ------ ---- ---- ------- ----- -- ----<br>-------- ------- -- ---------- --- - --- ----- ----- ----<br>---- --- --- ----- you ---- ---- ------- ----- ---- -------<br>--- --- -- ----- -- --- ---- -- --- ---- -- ------ ------<br>--- ----- -- ----,184641.29999998212,184640.90000000596,184259.543,184265.69999998808,184276.467,184644.098,,32,you
screen,html.Screen,2_1_0_1_33,2022-04-25T17:29:23.381Z,,,,,,,,,,,,,,,,,53,,,,,,,,,,,,,,508.8020000059623,,response,,,,99,,,,,,,Space,keypress(Space),,,,,,,,---- -- ----- -- ------ - ------- --- ----------<br>------------- ------ ------ ---- ---- ------- ----- -- ----<br>-------- ------- -- ---------- --- - --- ----- ----- ----<br>---- --- --- ----- --- feel ---- ------- ----- ---- -------<br>--- --- -- ----- -- --- ---- -- --- ---- -- ------ ------<br>--- ----- -- ----,185153.29999998212,185152.90000000596,184627.482,184641.40000000596,184644.098,185162.651,,33,feel
screen,html.Screen,2_1_0_1_34,2022-04-25T17:29:23.789Z,,,,,,,,,,,,,,,,,53,,,,,,,,,,,,,,398.2490000059479,,response,,,,99,,,,,,,Space,keypress(Space),,,,,,,,---- -- ----- -- ------ - ------- --- ----------<br>------------- ------ ------ ---- ---- ------- ----- -- ----<br>-------- ------- -- ---------- --- - --- ----- ----- ----<br>---- --- --- ----- --- ---- that ------- ----- ---- -------<br>--- --- -- ----- -- --- ---- -- --- ---- -- ------ ------<br>--- ----- -- ----,185561.59999999404,185560.90000000596,185145.901,185153.40000000596,185162.651,185563.966,,34,that
screen,html.Screen,2_1_0_1_35,2022-04-25T17:29:24.156Z,,,,,,,,,,,,,,,,,53,,,,,,,,,,,,,,364.8339999821328,,response,,,,99,,,,,,,Space,keypress(Space),,,,,,,,---- -- ----- -- ------ - ------- --- ----------<br>------------- ------ ------ ---- ---- ------- ----- -- ----<br>-------- ------- -- ---------- --- - --- ----- ----- ----<br>---- --- --- ----- --- ---- ---- matters ----- ---- -------<br>--- --- -- ----- -- --- ---- -- --- ---- -- ------ ------<br>--- ----- -- ----,185929.29999998212,185928.79999998212,185547.423,185561.59999999404,185563.966,185932.037,,35,matters
screen,html.Screen,2_1_0_1_36,2022-04-25T17:29:24.780Z,,,,,,,,,,,,,,,,,53,,,,,,,,,,,,,,620.8630000059493,,response,,,,99,,,,,,,Space,keypress(Space),,,,,,,,"---- -- ----- -- ------ - ------- --- ----------<br>------------- ------ ------ ---- ---- ------- ----- -- ----<br>-------- ------- -- ---------- --- - --- ----- ----- ----<br>---- --- --- ----- --- ---- ---- ------- most, ---- -------<br>--- --- -- ----- -- --- ---- -- --- ---- -- ------ ------<br>--- ----- -- ----",186553.29999998212,186552.90000000596,185915.385,185929.40000000596,185932.037,186567.734,,36,"most,"
screen,html.Screen,2_1_0_1_37,2022-04-25T17:29:25.285Z,,,,,,,,,,,,,,,,,53,,,,,,,,,,,,,,489.06599998212187,,response,,,,99,,,,,,,Space,keypress(Space),,,,,,,,---- -- ----- -- ------ - ------- --- ----------<br>------------- ------ ------ ---- ---- ------- ----- -- ----<br>-------- ------- -- ---------- --- - --- ----- ----- ----<br>---- --- --- ----- --- ---- ---- ------- ----- it's -------<br>--- --- -- ----- -- --- ---- -- --- ---- -- ------ ------<br>--- ----- -- ----,187057.59999999404,187056.79999998212,186550.897,186553.40000000596,186567.734,187069.499,,37,it's
screen,html.Screen,2_1_0_1_38,2022-04-25T17:29:25.749Z,,,,,,,,,,,,,,,,,53,,,,,,,,,,,,,,451.5009999999893,,response,,,,99,,,,,,,Space,keypress(Space),,,,,,,,---- -- ----- -- ------ - ------- --- ----------<br>------------- ------ ------ ---- ---- ------- ----- -- ----<br>-------- ------- -- ---------- --- - --- ----- ----- ----<br>---- --- --- ----- --- ---- ---- ------- ----- ---- whether<br>--- --- -- ----- -- --- ---- -- --- ---- -- ------ ------<br>--- ----- -- ----,187521.5,187521,187052.614,187057.69999998808,187069.499,187537.835,,38,whether
screen,html.Screen,2_1_0_1_39,2022-04-25T17:29:26.173Z,,,,,,,,,,,,,,,,,53,,,,,,,,,,,,,,407.0650000059686,,response,,,,99,,,,,,,Space,keypress(Space),,,,,,,,---- -- ----- -- ------ - ------- --- ----------<br>------------- ------ ------ ---- ---- ------- ----- -- ----<br>-------- ------- -- ---------- --- - --- ----- ----- ----<br>---- --- --- ----- --- ---- ---- ------- ----- ---- -------<br>you --- -- ----- -- --- ---- -- --- ---- -- ------ ------<br>--- ----- -- ----,187945.40000000596,187944.90000000596,187520.942,187521.5,187537.835,187955.747,,39,you
screen,html.Screen,2_1_0_1_40,2022-04-25T17:29:26.517Z,,,,,,,,,,,,,,,,,53,,,,,,,,,,,,,,332.8529999940365,,response,,,,99,,,,,,,Space,keypress(Space),,,,,,,,---- -- ----- -- ------ - ------- --- ----------<br>------------- ------ ------ ---- ---- ------- ----- -- ----<br>-------- ------- -- ---------- --- - --- ----- ----- ----<br>---- --- --- ----- --- ---- ---- ------- ----- ---- -------<br>--- are -- ----- -- --- ---- -- --- ---- -- ------ ------<br>--- ----- -- ----,188289.40000000596,188288.59999999404,187939.095,187945.5,187955.747,188312.153,,40,are
screen,html.Screen,2_1_0_1_41,2022-04-25T17:29:26.941Z,,,,,,,,,,,,,,,,,53,,,,,,,,,,,,,,400.7470000059693,,response,,,,99,,,,,,,Space,keypress(Space),,,,,,,,---- -- ----- -- ------ - ------- --- ----------<br>------------- ------ ------ ---- ---- ------- ----- -- ----<br>-------- ------- -- ---------- --- - --- ----- ----- ----<br>---- --- --- ----- --- ---- ---- ------- ----- ---- -------<br>--- --- as ----- -- --- ---- -- --- ---- -- ------ ------<br>--- ----- -- ----,188713.40000000596,188712.90000000596,188273.585,188289.40000000596,188312.153,188725.322,,41,as
screen,html.Screen,2_1_0_1_42,2022-04-25T17:29:27.253Z,,,,,,,,,,,,,,,,,53,,,,,,,,,,,,,,299.47799998213304,,response,,,,99,,,,,,,Space,keypress(Space),,,,,,,,---- -- ----- -- ------ - ------- --- ----------<br>------------- ------ ------ ---- ---- ------- ----- -- ----<br>-------- ------- -- ---------- --- - --- ----- ----- ----<br>---- --- --- ----- --- ---- ---- ------- ----- ---- -------<br>--- --- -- close -- --- ---- -- --- ---- -- ------ ------<br>--- ----- -- ----,189025.5,189024.79999998212,188708.455,188713.5,188725.322,189052.325,,42,close
screen,html.Screen,2_1_0_1_43,2022-04-25T17:29:27.621Z,,,,,,,,,,,,,,,,,53,,,,,,,,,,,,,,340.5750000059488,,response,,,,99,,,,,,,Space,keypress(Space),,,,,,,,---- -- ----- -- ------ - ------- --- ----------<br>------------- ------ ------ ---- ---- ------- ----- -- ----<br>-------- ------- -- ---------- --- - --- ----- ----- ----<br>---- --- --- ----- --- ---- ---- ------- ----- ---- -------<br>--- --- -- ----- as --- ---- -- --- ---- -- ------ ------<br>--- ----- -- ----,189393.59999999404,189392.90000000596,189009.485,189025.5,189052.325,189411.057,,43,as
screen,html.Screen,2_1_0_1_44,2022-04-25T17:29:27.973Z,,,,,,,,,,,,,,,,,53,,,,,,,,,,,,,,333.7429999821179,,response,,,,99,,,,,,,Space,keypress(Space),,,,,,,,---- -- ----- -- ------ - ------- --- ----------<br>------------- ------ ------ ---- ---- ------- ----- -- ----<br>-------- ------- -- ---------- --- - --- ----- ----- ----<br>---- --- --- ----- --- ---- ---- ------- ----- ---- -------<br>--- --- -- ----- -- you ---- -- --- ---- -- ------ ------<br>--- ----- -- ----,189745.40000000596,189744.79999998212,189377.536,189393.59999999404,189411.057,189762.307,,44,you
screen,html.Screen,2_1_0_1_45,2022-04-25T17:29:28.381Z,,,,,,,,,,,,,,,,,53,,,,,,,,,,,,,,390.4929999821179,,response,,,,99,,,,,,,Space,keypress(Space),,,,,,,,---- -- ----- -- ------ - ------- --- ----------<br>------------- ------ ------ ---- ---- ------- ----- -- ----<br>-------- ------- -- ---------- --- - --- ----- ----- ----<br>---- --- --- ----- --- ---- ---- ------- ----- ---- -------<br>--- --- -- ----- -- --- want -- --- ---- -- ------ ------<br>--- ----- -- ----,190153.40000000596,190152.79999998212,189745.395,189745.40000000596,189762.307,190163.715,,45,want
screen,html.Screen,2_1_0_1_46,2022-04-25T17:29:28.805Z,,,,,,,,,,,,,,,,,53,,,,,,,,,,,,,,413.18500000596396,,response,,,,99,,,,,,,Space,keypress(Space),,,,,,,,---- -- ----- -- ------ - ------- --- ----------<br>------------- ------ ------ ---- ---- ------- ----- -- ----<br>-------- ------- -- ---------- --- - --- ----- ----- ----<br>---- --- --- ----- --- ---- ---- ------- ----- ---- -------<br>--- --- -- ----- -- --- ---- to --- ---- -- ------ ------<br>--- ----- -- ----,190577.59999999404,190576.90000000596,190146.886,190153.40000000596,190163.715,190581.57,,46,to
screen,html.Screen,2_1_0_1_47,2022-04-25T17:29:29.477Z,,,,,,,,,,,,,,,,,53,,,,,,,,,,,,,,667.3300000059535,,response,,,,99,,,,,,,Space,keypress(Space),,,,,,,,"---- -- ----- -- ------ - ------- --- ----------<br>------------- ------ ------ ---- ---- ------- ----- -- ----<br>-------- ------- -- ---------- --- - --- ----- ----- ----<br>---- --- --- ----- --- ---- ---- ------- ----- ---- -------<br>--- --- -- ----- -- --- ---- -- be, ---- -- ------ ------<br>--- ----- -- ----",191249.40000000596,191248.90000000596,190564.756,190577.69999998808,190581.57,191270.438,,47,"be,"
screen,html.Screen,2_1_0_1_48,2022-04-25T17:29:29.933Z,,,,,,,,,,,,,,,,,53,,,,,,,,,,,,,,434.1619999940449,,response,,,,99,,,,,,,Space,keypress(Space),,,,,,,,---- -- ----- -- ------ - ------- --- ----------<br>------------- ------ ------ ---- ---- ------- ----- -- ----<br>-------- ------- -- ---------- --- - --- ----- ----- ----<br>---- --- --- ----- --- ---- ---- ------- ----- ---- -------<br>--- --- -- ----- -- --- ---- -- --- even -- ------ ------<br>--- ----- -- ----,191705.40000000596,191704.59999999404,191233.926,191249.40000000596,191270.438,191718.907,,48,even
screen,html.Screen,2_1_0_1_49,2022-04-25T17:29:30.340Z,,,,,,,,,,,,,,,,,53,,,,,,,,,,,,,,393.5929999999935,,response,,,,99,,,,,,,Space,keypress(Space),,,,,,,,---- -- ----- -- ------ - ------- --- ----------<br>------------- ------ ------ ---- ---- ------- ----- -- ----<br>-------- ------- -- ---------- --- - --- ----- ----- ----<br>---- --- --- ----- --- ---- ---- ------- ----- ---- -------<br>--- --- -- ----- -- --- ---- -- --- ---- if ------ ------<br>--- ----- -- ----,192113,192112.5,191702.021,191705.5,191718.907,192120.3,,49,if
screen,html.Screen,2_1_0_1_50,2022-04-25T17:29:30.773Z,,,,,,,,,,,,,,,,,53,,,,,,,,,,,,,,424.6000000059721,,response,,,,99,,,,,,,Space,keypress(Space),,,,,,,,---- -- ----- -- ------ - ------- --- ----------<br>------------- ------ ------ ---- ---- ------- ----- -- ----<br>-------- ------- -- ---------- --- - --- ----- ----- ----<br>---- --- --- ----- --- ---- ---- ------- ----- ---- -------<br>--- --- -- ----- -- --- ---- -- --- ---- -- that's ------<br>--- ----- -- ----,192545.40000000596,192544.90000000596,192103.447,192113,192120.3,192555.381,,50,that's
screen,html.Screen,2_1_0_1_51,2022-04-25T17:29:31.253Z,,,,,,,,,,,,,,,,,53,,,,,,,,,,,,,,469.5190000059665,,response,,,,99,,,,,,,Space,keypress(Space),,,,,,,,---- -- ----- -- ------ - ------- --- ----------<br>------------- ------ ------ ---- ---- ------- ----- -- ----<br>-------- ------- -- ---------- --- - --- ----- ----- ----<br>---- --- --- ----- --- ---- ---- ------- ----- ---- -------<br>--- --- -- ----- -- --- ---- -- --- ---- -- ------ really<br>--- ----- -- ----,193025.69999998808,193024.90000000596,192538.288,192545.5,192555.381,193040.492,,51,really
screen,html.Screen,2_1_0_1_52,2022-04-25T17:29:31.724Z,,,,,,,,,,,,,,,,,53,,,,,,,,,,,,,,456.10799999404117,,response,,,,99,,,,,,,Space,keypress(Space),,,,,,,,---- -- ----- -- ------ - ------- --- ----------<br>------------- ------ ------ ---- ---- ------- ----- -- ----<br>-------- ------- -- ---------- --- - --- ----- ----- ----<br>---- --- --- ----- --- ---- ---- ------- ----- ---- -------<br>--- --- -- ----- -- --- ---- -- --- ---- -- ------ ------<br>not ----- -- ----,193497.09999999404,193496.59999999404,193023.524,193025.69999998808,193040.492,193508.541,,52,not
screen,html.Screen,2_1_0_1_53,2022-04-25T17:29:32.116Z,,,,,,,,,,,,,,,,,53,,,,,,,,,,,,,,380.0589999940421,,response,,,,99,,,,,,,Space,keypress(Space),,,,,,,,---- -- ----- -- ------ - ------- --- ----------<br>------------- ------ ------ ---- ---- ------- ----- -- ----<br>-------- ------- -- ---------- --- - --- ----- ----- ----<br>---- --- --- ----- --- ---- ---- ------- ----- ---- -------<br>--- --- -- ----- -- --- ---- -- --- ---- -- ------ ------<br>--- close -- ----,193889,193888.59999999404,193491.923,193497.09999999404,193508.541,193893.185,,53,close
screen,html.Screen,2_1_0_1_54,2022-04-25T17:29:32.525Z,,,,,,,,,,,,,,,,,53,,,,,,,,,,,,,,403.3150000000023,,response,,,,99,,,,,,,Space,keypress(Space),,,,,,,,---- -- ----- -- ------ - ------- --- ----------<br>------------- ------ ------ ---- ---- ------- ----- -- ----<br>-------- ------- -- ---------- --- - --- ----- ----- ----<br>---- --- --- ----- --- ---- ---- ------- ----- ---- -------<br>--- --- -- ----- -- --- ---- -- --- ---- -- ------ ------<br>--- ----- at ----,194297.29999998212,194296.5,193876.309,193889.09999999404,193893.185,194311.315,,54,at
screen,html.Screen,2_1_0_1_55,2022-04-25T17:29:33.781Z,,,,,,,,,,,,,,,,,53,,,,,,,,,,,,,,1241.2849999940372,,response,,,,99,,,,,,,Space,keypress(Space),,,,,,,,---- -- ----- -- ------ - ------- --- ----------<br>------------- ------ ------ ---- ---- ------- ----- -- ----<br>-------- ------- -- ---------- --- - --- ----- ----- ----<br>---- --- --- ----- --- ---- ---- ------- ----- ---- -------<br>--- --- -- ----- -- --- ---- -- --- ---- -- ------ ------<br>--- ----- -- all.,195553.59999999404,195552.59999999404,194294.428,194297.40000000596,194311.315,195565.712,,55,all.
Item 99,flow.Loop,2_1_0_1,2022-04-25T17:29:33.781Z,,,,,,,,,,,,,,,,,,,,,,,,,,,,,,,29339.545999994036,,completion,,,,,B,,,,,,,,,,,silence,,,,,195553.69999998808,195552.59999999404,166196.33,166196.69999998808,166213.054,195565.712,,,
Question 1,html.Screen,2_1_0_2,2022-04-25T17:29:43.534Z,,,,,,,,,,,,,,,,,,,,,,,,,,,,false,FALSE,,9739.188000005961,,response,,,,99,B,,,,,,TRUE,click #choice-1,,,,silence,,,,,205306.79999998212,205304.90000000596,195548.803,195553.69999998808,195565.712,205316.864,,,
Question 2,html.Screen,2_1_0_3,2022-04-25T17:29:48.245Z,,,,,,,,,,,,,,,,,,,,,,,,,,,,true,TRUE,,4699.935999982117,,response,,,,99,B,,,,,,TRUE,click #choice-1,,,,silence,,,,,210018.19999998808,210016.79999998212,205300.096,205306.90000000596,205316.864,210033.345,,,
Item 99,flow.Sequence,2_1_0,2022-04-25T17:29:48.245Z,,,,,,,,,,,,,,,,,,,,,,,,,,,,,,,53805.76299998211,,completion,,,,,,,,,,,,,,,,,,,,,210018.29999998212,210016.79999998212,156194.49,156202.69999998808,156211.037,210033.345,,,
Holding screen,html.Screen,2_1_1_0,2022-04-25T17:29:58.247Z,,,,,,,,,,,,,,,,,,,,,,,,,,,,,,,10001.809000000008,,timeout,,,,,,,,,,,,,,,,,,,,,220019.59999999404,220018.131,210016.579,210018.40000000596,210033.345,220035.154,,,
screen,html.Screen,2_1_1_1_0,2022-04-25T17:29:58.949Z,,,,,,,,,,,,,,,,,54,,,,,,,,,,,,,,685.94599999403,,response,,,,100,,,,,,,Space,keypress(Space),,,,,,,,At --- ---- --- ------ ----- ------- ---- -- --- ------- --<br>------- ---------- ------ -- ----- -- ----- -- ---- ------<br>--- ----- --- --- ------ -------- ----- --- ------ ----- --<br>----- ----- ---------- --- --- ------ ------ ---- -- ------<br>------- --- ------ ----- --- ---- ------- -- ---- --- --<br>------- ------,220722.09999999404,220721.09999999404,220018.131,220019.59999999404,220035.154,220737.434,,0,At
screen,html.Screen,2_1_1_1_1,2022-04-25T17:29:59.356Z,,,,,,,,,,,,,,,,,54,,,,,,,,,,,,,,391.4660000059521,,response,,,,100,,,,,,,Space,keypress(Space),,,,,,,,-- the ---- --- ------ ----- ------- ---- -- --- ------- --<br>------- ---------- ------ -- ----- -- ----- -- ---- ------<br>--- ----- --- --- ------ -------- ----- --- ------ ----- --<br>----- ----- ---------- --- --- ------ ------ ---- -- ------<br>------- --- ------ ----- --- ---- ------- -- ---- --- --<br>------- ------,221129.40000000596,221128.90000000596,220720.358,220722.09999999404,220737.434,221138.789,,1,the
screen,html.Screen,2_1_1_1_2,2022-04-25T17:29:59.749Z,,,,,,,,,,,,,,,,,54,,,,,,,,,,,,,,382.01099998212885,,response,,,,100,,,,,,,Space,keypress(Space),,,,,,,,-- --- time --- ------ ----- ------- ---- -- --- ------- --<br>------- ---------- ------ -- ----- -- ----- -- ---- ------<br>--- ----- --- --- ------ -------- ----- --- ------ ----- --<br>----- ----- ---------- --- --- ------ ------ ---- -- ------<br>------- --- ------ ----- --- ---- ------- -- ---- --- --<br>------- ------,221521.29999998212,221520.79999998212,221122.143,221129.40000000596,221138.789,221523.365,,2,time
screen,html.Screen,2_1_1_1_3,2022-04-25T17:30:00.157Z,,,,,,,,,,,,,,,,,54,,,,,,,,,,,,,,405.5350000059698,,response,,,,100,,,,,,,Space,keypress(Space),,,,,,,,-- --- ---- the ------ ----- ------- ---- -- --- ------- --<br>------- ---------- ------ -- ----- -- ----- -- ---- ------<br>--- ----- --- --- ------ -------- ----- --- ------ ----- --<br>----- ----- ---------- --- --- ------ ------ ---- -- ------<br>------- --- ------ ----- --- ---- ------- -- ---- --- --<br>------- ------,221929.69999998808,221928.90000000596,221506.845,221521.40000000596,221523.365,221941.83,,3,the
screen,html.Screen,2_1_1_1_4,2022-04-25T17:30:00.524Z,,,,,,,,,,,,,,,,,54,,,,,,,,,,,,,,354.9699999821314,,response,,,,100,,,,,,,Space,keypress(Space),,,,,,,,-- --- ---- --- French ----- ------- ---- -- --- ------- --<br>------- ---------- ------ -- ----- -- ----- -- ---- ------<br>--- ----- --- --- ------ -------- ----- --- ------ ----- --<br>----- ----- ---------- --- --- ------ ------ ---- -- ------<br>------- --- ------ ----- --- ---- ------- -- ---- --- --<br>------- ------,222297.29999998212,222296.79999998212,221924.825,221929.69999998808,221941.83,222309.766,,4,French
screen,html.Screen,2_1_1_1_5,2022-04-25T17:30:00.925Z,,,,,,,,,,,,,,,,,54,,,,,,,,,,,,,,387.1340000059572,,response,,,,100,,,,,,,Space,keypress(Space),,,,,,,,-- --- ---- --- ------ crown ------- ---- -- --- ------- --<br>------- ---------- ------ -- ----- -- ----- -- ---- ------<br>--- ----- --- --- ------ -------- ----- --- ------ ----- --<br>----- ----- ---------- --- --- ------ ------ ---- -- ------<br>------- --- ------ ----- --- ---- ------- -- ---- --- --<br>------- ------,222697.40000000596,222696.90000000596,222292.938,222297.29999998212,222309.766,222711.16,,5,crown
screen,html.Screen,2_1_1_1_6,2022-04-25T17:30:01.341Z,,,,,,,,,,,,,,,,,54,,,,,,,,,,,,,,401.740000005957,,response,,,,100,,,,,,,Space,keypress(Space),,,,,,,,-- --- ---- --- ------ ----- secured ---- -- --- ------- --<br>------- ---------- ------ -- ----- -- ----- -- ---- ------<br>--- ----- --- --- ------ -------- ----- --- ------ ----- --<br>----- ----- ---------- --- --- ------ ------ ---- -- ------<br>------- --- ------ ----- --- ---- ------- -- ---- --- --<br>------- ------,223113.69999998808,223112.90000000596,222694.307,222697.40000000596,222711.16,223129.288,,6,secured
screen,html.Screen,2_1_1_1_7,2022-04-25T17:30:01.845Z,,,,,,,,,,,,,,,,,54,,,,,,,,,,,,,,487.51199998211814,,response,,,,100,,,,,,,Space,keypress(Space),,,,,,,,-- --- ---- --- ------ ----- ------- much -- --- ------- --<br>------- ---------- ------ -- ----- -- ----- -- ---- ------<br>--- ----- --- --- ------ -------- ----- --- ------ ----- --<br>----- ----- ---------- --- --- ------ ------ ---- -- ------<br>------- --- ------ ----- --- ---- ------- -- ---- --- --<br>------- ------,223617.40000000596,223616.79999998212,223112.483,223113.69999998808,223129.288,223631.195,,7,much
screen,html.Screen,2_1_1_1_8,2022-04-25T17:30:02.260Z,,,,,,,,,,,,,,,,,54,,,,,,,,,,,,,,401.6049999821116,,response,,,,100,,,,,,,Space,keypress(Space),,,,,,,,-- --- ---- --- ------ ----- ------- ---- of --- ------- --<br>------- ---------- ------ -- ----- -- ----- -- ---- ------<br>--- ----- --- --- ------ -------- ----- --- ------ ----- --<br>----- ----- ---------- --- --- ------ ------ ---- -- ------<br>------- --- ------ ----- --- ---- ------- -- ---- --- --<br>------- ------,224033.29999998212,224032.79999998212,223614.194,223617.40000000596,223631.195,224049.133,,8,of
screen,html.Screen,2_1_1_1_9,2022-04-25T17:30:02.605Z,,,,,,,,,,,,,,,,,54,,,,,,,,,,,,,,327.76700000595883,,response,,,,100,,,,,,,Space,keypress(Space),,,,,,,,-- --- ---- --- ------ ----- ------- ---- -- its ------- --<br>------- ---------- ------ -- ----- -- ----- -- ---- ------<br>--- ----- --- --- ------ -------- ----- --- ------ ----- --<br>----- ----- ---------- --- --- ------ ------ ---- -- ------<br>------- --- ------ ----- --- ---- ------- -- ---- --- --<br>------- ------,224377.5,224376.90000000596,224032.364,224033.40000000596,224049.133,224383.485,,9,its
screen,html.Screen,2_1_1_1_10,2022-04-25T17:30:03.197Z,,,,,,,,,,,,,,,,,54,,,,,,,,,,,,,,585.4150000059744,,response,,,,100,,,,,,,Space,keypress(Space),,,,,,,,-- --- ---- --- ------ ----- ------- ---- -- --- revenue --<br>------- ---------- ------ -- ----- -- ----- -- ---- ------<br>--- ----- --- --- ------ -------- ----- --- ------ ----- --<br>----- ----- ---------- --- --- ------ ------ ---- -- ------<br>------- --- ------ ----- --- ---- ------- -- ---- --- --<br>------- ------,224969.29999998212,224968.90000000596,224366.9,224377.59999999404,224383.485,224985.801,,10,revenue
screen,html.Screen,2_1_1_1_11,2022-04-25T17:30:03.733Z,,,,,,,,,,,,,,,,,54,,,,,,,,,,,,,,519.0990000059537,,response,,,,100,,,,,,,Space,keypress(Space),,,,,,,,-- --- ---- --- ------ ----- ------- ---- -- --- ------- by<br>------- ---------- ------ -- ----- -- ----- -- ---- ------<br>--- ----- --- --- ------ -------- ----- --- ------ ----- --<br>----- ----- ---------- --- --- ------ ------ ---- -- ------<br>------- --- ------ ----- --- ---- ------- -- ---- --- --<br>------- ------,225505.59999999404,225504.90000000596,224968.917,224969.40000000596,224985.801,225521.005,,11,by
screen,html.Screen,2_1_1_1_12,2022-04-25T17:30:04.276Z,,,,,,,,,,,,,,,,,54,,,,,,,,,,,,,,527.794999982114,,response,,,,100,,,,,,,Space,keypress(Space),,,,,,,,-- --- ---- --- ------ ----- ------- ---- -- --- ------- --<br>issuing ---------- ------ -- ----- -- ----- -- ---- ------<br>--- ----- --- --- ------ -------- ----- --- ------ ----- --<br>----- ----- ---------- --- --- ------ ------ ---- -- ------<br>------- --- ------ ----- --- ---- ------- -- ---- --- --<br>------- ------,226049.29999998212,226048.79999998212,225504.08,225505.59999999404,225521.005,226056.02,,12,issuing
screen,html.Screen,2_1_1_1_13,2022-04-25T17:30:04.789Z,,,,,,,,,,,,,,,,,54,,,,,,,,,,,,,,504.88000000597094,,response,,,,100,,,,,,,Space,keypress(Space),,,,,,,,-- --- ---- --- ------ ----- ------- ---- -- --- ------- --<br>------- government ------ -- ----- -- ----- -- ---- ------<br>--- ----- --- --- ------ -------- ----- --- ------ ----- --<br>----- ----- ---------- --- --- ------ ------ ---- -- ------<br>------- --- ------ ----- --- ---- ------- -- ---- --- --<br>------- ------,226561.59999999404,226560.90000000596,226039.304,226049.29999998212,226056.02,226574.757,,13,government
screen,html.Screen,2_1_1_1_14,2022-04-25T17:30:05.516Z,,,,,,,,,,,,,,,,,54,,,,,,,,,,,,,,714.0429999821063,,response,,,,100,,,,,,,Space,keypress(Space),,,,,,,,-- --- ---- --- ------ ----- ------- ---- -- --- ------- --<br>------- ---------- bonds. -- ----- -- ----- -- ---- ------<br>--- ----- --- --- ------ -------- ----- --- ------ ----- --<br>----- ----- ---------- --- --- ------ ------ ---- -- ------<br>------- --- ------ ----- --- ---- ------- -- ---- --- --<br>------- ------,227289.29999998212,227288.79999998212,226557.802,226561.59999999404,226574.757,227293.697,,14,bonds.
screen,html.Screen,2_1_1_1_15,2022-04-25T17:30:06.181Z,,,,,,,,,,,,,,,,,54,,,,,,,,,,,,,,659.102999982133,,response,,,,100,,,,,,,Space,keypress(Space),,,,,,,,-- --- ---- --- ------ ----- ------- ---- -- --- ------- --<br>------- ---------- ------ In ----- -- ----- -- ---- ------<br>--- ----- --- --- ------ -------- ----- --- ------ ----- --<br>----- ----- ---------- --- --- ------ ------ ---- -- ------<br>------- --- ------ ----- --- ---- ------- -- ---- --- --<br>------- ------,227953.59999999404,227952.79999998212,227276.975,227289.29999998212,227293.697,227962.89,,15,In
screen,html.Screen,2_1_1_1_16,2022-04-25T17:30:06.828Z,,,,,,,,,,,,,,,,,54,,,,,,,,,,,,,,637.9099999821046,,response,,,,100,,,,,,,Space,keypress(Space),,,,,,,,"-- --- ---- --- ------ ----- ------- ---- -- --- ------- --<br>------- ---------- ------ -- 1727, -- ----- -- ---- ------<br>--- ----- --- --- ------ -------- ----- --- ------ ----- --<br>----- ----- ---------- --- --- ------ ------ ---- -- ------<br>------- --- ------ ----- --- ---- ------- -- ---- --- --<br>------- ------",228601.29999998212,228600.79999998212,227945.782,227953.59999999404,227962.89,228615.255,,16,"1727,"
screen,html.Screen,2_1_1_1_17,2022-04-25T17:30:07.245Z,,,,,,,,,,,,,,,,,54,,,,,,,,,,,,,,401.6450000059558,,response,,,,100,,,,,,,Space,keypress(Space),,,,,,,,-- --- ---- --- ------ ----- ------- ---- -- --- ------- --<br>------- ---------- ------ -- ----- in ----- -- ---- ------<br>--- ----- --- --- ------ -------- ----- --- ------ ----- --<br>----- ----- ---------- --- --- ------ ------ ---- -- ------<br>------- --- ------ ----- --- ---- ------- -- ---- --- --<br>------- ------,229017.59999999404,229016.90000000596,228598.313,228601.29999998212,228615.255,229033.311,,17,in
screen,html.Screen,2_1_1_1_18,2022-04-25T17:30:07.669Z,,,,,,,,,,,,,,,,,54,,,,,,,,,,,,,,407.5890000059735,,response,,,,100,,,,,,,Space,keypress(Space),,,,,,,,-- --- ---- --- ------ ----- ------- ---- -- --- ------- --<br>------- ---------- ------ -- ----- -- order -- ---- ------<br>--- ----- --- --- ------ -------- ----- --- ------ ----- --<br>----- ----- ---------- --- --- ------ ------ ---- -- ------<br>------- --- ------ ----- --- ---- ------- -- ---- --- --<br>------- ------,229441.40000000596,229440.90000000596,229016.432,229017.69999998808,229033.311,229451.518,,18,order
screen,html.Screen,2_1_1_1_19,2022-04-25T17:30:08.101Z,,,,,,,,,,,,,,,,,54,,,,,,,,,,,,,,421.3820000059495,,response,,,,100,,,,,,,Space,keypress(Space),,,,,,,,-- --- ---- --- ------ ----- ------- ---- -- --- ------- --<br>------- ---------- ------ -- ----- -- ----- to ---- ------<br>--- ----- --- --- ------ -------- ----- --- ------ ----- --<br>----- ----- ---------- --- --- ------ ------ ---- -- ------<br>------- --- ------ ----- --- ---- ------- -- ---- --- --<br>------- ------,229873.29999998212,229872.90000000596,229434.661,229441.40000000596,229451.518,229886.294,,19,to
screen,html.Screen,2_1_1_1_20,2022-04-25T17:30:08.485Z,,,,,,,,,,,,,,,,,54,,,,,,,,,,,,,,370.60600000596605,,response,,,,100,,,,,,,Space,keypress(Space),,,,,,,,-- --- ---- --- ------ ----- ------- ---- -- --- ------- --<br>------- ---------- ------ -- ----- -- ----- -- save ------<br>--- ----- --- --- ------ -------- ----- --- ------ ----- --<br>----- ----- ---------- --- --- ------ ------ ---- -- ------<br>------- --- ------ ----- --- ---- ------- -- ---- --- --<br>------- ------,230257.69999998808,230256.90000000596,229869.213,229873.5,229886.294,230271.047,,20,save
screen,html.Screen,2_1_1_1_21,2022-04-25T17:30:09.156Z,,,,,,,,,,,,,,,,,54,,,,,,,,,,,,,,657.8530000059691,,response,,,,100,,,,,,,Space,keypress(Space),,,,,,,,"-- --- ---- --- ------ ----- ------- ---- -- --- ------- --<br>------- ---------- ------ -- ----- -- ----- -- ---- money,<br>--- ----- --- --- ------ -------- ----- --- ------ ----- --<br>----- ----- ---------- --- --- ------ ------ ---- -- ------<br>------- --- ------ ----- --- ---- ------- -- ---- --- --<br>------- ------",230929.29999998212,230928.90000000596,230254.162,230257.69999998808,230271.047,230939.954,,21,"money,"
screen,html.Screen,2_1_1_1_22,2022-04-25T17:30:09.789Z,,,,,,,,,,,,,,,,,54,,,,,,,,,,,,,,620.9460000059626,,response,,,,100,,,,,,,Space,keypress(Space),,,,,,,,-- --- ---- --- ------ ----- ------- ---- -- --- ------- --<br>------- ---------- ------ -- ----- -- ----- -- ---- ------<br>the ----- --- --- ------ -------- ----- --- ------ ----- --<br>----- ----- ---------- --- --- ------ ------ ---- -- ------<br>------- --- ------ ----- --- ---- ------- -- ---- --- --<br>------- ------,231561.59999999404,231560.90000000596,230923.129,230929.40000000596,230939.954,231575.605,,22,the
screen,html.Screen,2_1_1_1_23,2022-04-25T17:30:10.525Z,,,,,,,,,,,,,,,,,54,,,,,,,,,,,,,,721.1949999821081,,response,,,,100,,,,,,,Space,keypress(Space),,,,,,,,-- --- ---- --- ------ ----- ------- ---- -- --- ------- --<br>------- ---------- ------ -- ----- -- ----- -- ---- ------<br>--- state --- --- ------ -------- ----- --- ------ ----- --<br>----- ----- ---------- --- --- ------ ------ ---- -- ------<br>------- --- ------ ----- --- ---- ------- -- ---- --- --<br>------- ------,232297.29999998212,232296.79999998212,231558.682,231561.69999998808,231575.605,232311.28,,23,state
screen,html.Screen,2_1_1_1_24,2022-04-25T17:30:11.085Z,,,,,,,,,,,,,,,,,54,,,,,,,,,,,,,,545.5199999821198,,response,,,,100,,,,,,,Space,keypress(Space),,,,,,,,-- --- ---- --- ------ ----- ------- ---- -- --- ------- --<br>------- ---------- ------ -- ----- -- ----- -- ---- ------<br>--- ----- cut --- ------ -------- ----- --- ------ ----- --<br>----- ----- ---------- --- --- ------ ------ ---- -- ------<br>------- --- ------ ----- --- ---- ------- -- ---- --- --<br>------- ------,232857.59999999404,232856.79999998212,232294.478,232297.40000000596,232311.28,232863.22,,24,cut
screen,html.Screen,2_1_1_1_25,2022-04-25T17:30:11.685Z,,,,,,,,,,,,,,,,,54,,,,,,,,,,,,,,593.6800000059593,,response,,,,100,,,,,,,Space,keypress(Space),,,,,,,,-- --- ---- --- ------ ----- ------- ---- -- --- ------- --<br>------- ---------- ------ -- ----- -- ----- -- ---- ------<br>--- ----- --- the ------ -------- ----- --- ------ ----- --<br>----- ----- ---------- --- --- ------ ------ ---- -- ------<br>------- --- ------ ----- --- ---- ------- -- ---- --- --<br>------- ------,233457.40000000596,233456.90000000596,232846.561,232857.59999999404,232863.22,233465.335,,25,the
screen,html.Screen,2_1_1_1_26,2022-04-25T17:30:12.405Z,,,,,,,,,,,,,,,,,54,,,,,,,,,,,,,,711.4649999821268,,response,,,,100,,,,,,,Space,keypress(Space),,,,,,,,-- --- ---- --- ------ ----- ------- ---- -- --- ------- --<br>------- ---------- ------ -- ----- -- ----- -- ---- ------<br>--- ----- --- --- bonds' -------- ----- --- ------ ----- --<br>----- ----- ---------- --- --- ------ ------ ---- -- ------<br>------- --- ------ ----- --- ---- ------- -- ---- --- --<br>------- ------,234177.59999999404,234176.79999998212,233448.473,233457.5,233465.335,234184.517,,26,bonds'
screen,html.Screen,2_1_1_1_27,2022-04-25T17:30:12.932Z,,,,,,,,,,,,,,,,,54,,,,,,,,,,,,,,520.2829999821261,,response,,,,100,,,,,,,Space,keypress(Space),,,,,,,,-- --- ---- --- ------ ----- ------- ---- -- --- ------- --<br>------- ---------- ------ -- ----- -- ----- -- ---- ------<br>--- ----- --- --- ------ interest ----- --- ------ ----- --<br>----- ----- ---------- --- --- ------ ------ ---- -- ------<br>------- --- ------ ----- --- ---- ------- -- ---- --- --<br>------- ------,234705.29999998212,234704.79999998212,234167.733,234177.59999999404,234184.517,234719.917,,27,interest
screen,html.Screen,2_1_1_1_28,2022-04-25T17:30:13.917Z,,,,,,,,,,,,,,,,,54,,,,,,,,,,,,,,968.9830000059737,,response,,,,100,,,,,,,Space,keypress(Space),,,,,,,,-- --- ---- --- ------ ----- ------- ---- -- --- ------- --<br>------- ---------- ------ -- ----- -- ----- -- ---- ------<br>--- ----- --- --- ------ -------- rate. --- ------ ----- --<br>----- ----- ---------- --- --- ------ ------ ---- -- ------<br>------- --- ------ ----- --- ---- ------- -- ---- --- --<br>------- ------,235689.79999998212,235688.90000000596,234703.122,234705.40000000596,234719.917,235706.716,,28,rate.
screen,html.Screen,2_1_1_1_29,2022-04-25T17:30:14.661Z,,,,,,,,,,,,,,,,,54,,,,,,,,,,,,,,726.1840000059747,,response,,,,100,,,,,,,Space,keypress(Space),,,,,,,,-- --- ---- --- ------ ----- ------- ---- -- --- ------- --<br>------- ---------- ------ -- ----- -- ----- -- ---- ------<br>--- ----- --- --- ------ -------- ----- The ------ ----- --<br>----- ----- ---------- --- --- ------ ------ ---- -- ------<br>------- --- ------ ----- --- ---- ------- -- ---- --- --<br>------- ------,236433.40000000596,236432.90000000596,235689.56,235689.79999998212,235706.716,236442.468,,29,The
screen,html.Screen,2_1_1_1_30,2022-04-25T17:30:15.293Z,,,,,,,,,,,,,,,,,54,,,,,,,,,,,,,,622.5320000000065,,response,,,,100,,,,,,,Space,keypress(Space),,,,,,,,-- --- ---- --- ------ ----- ------- ---- -- --- ------- --<br>------- ---------- ------ -- ----- -- ----- -- ---- ------<br>--- ----- --- --- ------ -------- ----- --- market ----- --<br>----- ----- ---------- --- --- ------ ------ ---- -- ------<br>------- --- ------ ----- --- ---- ------- -- ---- --- --<br>------- ------,237065.59999999404,237065,236425.693,236433.5,236442.468,237078.104,,30,market
screen,html.Screen,2_1_1_1_31,2022-04-25T17:30:15.741Z,,,,,,,,,,,,,,,,,54,,,,,,,,,,,,,,434.7960000059684,,response,,,,100,,,,,,,Space,keypress(Space),,,,,,,,-- --- ---- --- ------ ----- ------- ---- -- --- ------- --<br>------- ---------- ------ -- ----- -- ----- -- ---- ------<br>--- ----- --- --- ------ -------- ----- --- ------ value --<br>----- ----- ---------- --- --- ------ ------ ---- -- ------<br>------- --- ------ ----- --- ---- ------- -- ---- --- --<br>------- ------,237513.29999998212,237512.90000000596,237061.338,237065.69999998808,237078.104,237529.755,,31,value
screen,html.Screen,2_1_1_1_32,2022-04-25T17:30:16.261Z,,,,,,,,,,,,,,,,,54,,,,,,,,,,,,,,503.04499998211395,,response,,,,100,,,,,,,Space,keypress(Space),,,,,,,,-- --- ---- --- ------ ----- ------- ---- -- --- ------- --<br>------- ---------- ------ -- ----- -- ----- -- ---- ------<br>--- ----- --- --- ------ -------- ----- --- ------ ----- of<br>----- ----- ---------- --- --- ------ ------ ---- -- ------<br>------- --- ------ ----- --- ---- ------- -- ---- --- --<br>------- ------,238033.40000000596,238032.79999998212,237512.71,237513.40000000596,237529.755,238048.348,,32,of
screen,html.Screen,2_1_1_1_33,2022-04-25T17:30:16.837Z,,,,,,,,,,,,,,,,,54,,,,,,,,,,,,,,560.5520000059623,,response,,,,100,,,,,,,Space,keypress(Space),,,,,,,,-- --- ---- --- ------ ----- ------- ---- -- --- ------- --<br>------- ---------- ------ -- ----- -- ----- -- ---- ------<br>--- ----- --- --- ------ -------- ----- --- ------ ----- --<br>these ----- ---------- --- --- ------ ------ ---- -- ------<br>------- --- ------ ----- --- ---- ------- -- ---- --- --<br>------- ------,238609.59999999404,238608.90000000596,238031.42,238033.5,238048.348,238616.735,,33,these
screen,html.Screen,2_1_1_1_34,2022-04-25T17:30:17.485Z,,,,,,,,,,,,,,,,,54,,,,,,,,,,,,,,640.1650000059744,,response,,,,100,,,,,,,Space,keypress(Space),,,,,,,,-- --- ---- --- ------ ----- ------- ---- -- --- ------- --<br>------- ---------- ------ -- ----- -- ----- -- ---- ------<br>--- ----- --- --- ------ -------- ----- --- ------ ----- --<br>----- bonds ---------- --- --- ------ ------ ---- -- ------<br>------- --- ------ ----- --- ---- ------- -- ---- --- --<br>------- ------,239257.29999998212,239256.90000000596,238600.06,238609.69999998808,238616.735,239269.019,,34,bonds
screen,html.Screen,2_1_1_1_35,2022-04-25T17:30:18.325Z,,,,,,,,,,,,,,,,,54,,,,,,,,,,,,,,827.9809999999998,,response,,,,100,,,,,,,Space,keypress(Space),,,,,,,,"-- --- ---- --- ------ ----- ------- ---- -- --- ------- --<br>------- ---------- ------ -- ----- -- ----- -- ---- ------<br>--- ----- --- --- ------ -------- ----- --- ------ ----- --<br>----- ----- plummeted, --- --- ------ ------ ---- -- ------<br>------- --- ------ ----- --- ---- ------- -- ---- --- --<br>------- ------",240097.69999998808,240097,239252.346,239257.40000000596,239269.019,240105.29,,35,"plummeted,"
screen,html.Screen,2_1_1_1_36,2022-04-25T17:30:18.845Z,,,,,,,,,,,,,,,,,54,,,,,,,,,,,,,,511.6100000059523,,response,,,,100,,,,,,,Space,keypress(Space),,,,,,,,-- --- ---- --- ------ ----- ------- ---- -- --- ------- --<br>------- ---------- ------ -- ----- -- ----- -- ---- ------<br>--- ----- --- --- ------ -------- ----- --- ------ ----- --<br>----- ----- ---------- and --- ------ ------ ---- -- ------<br>------- --- ------ ----- --- ---- ------- -- ---- --- --<br>------- ------,240617.29999998212,240616.90000000596,240088.536,240097.79999998212,240105.29,240623.773,,36,and
screen,html.Screen,2_1_1_1_37,2022-04-25T17:30:19.381Z,,,,,,,,,,,,,,,,,54,,,,,,,,,,,,,,529.326999994053,,response,,,,100,,,,,,,Space,keypress(Space),,,,,,,,-- --- ---- --- ------ ----- ------- ---- -- --- ------- --<br>------- ---------- ------ -- ----- -- ----- -- ---- ------<br>--- ----- --- --- ------ -------- ----- --- ------ ----- --<br>----- ----- ---------- --- the ------ ------ ---- -- ------<br>------- --- ------ ----- --- ---- ------- -- ---- --- --<br>------- ------,241153.69999998808,241153.09999999404,240606.923,240617.40000000596,240623.773,241159.163,,37,the
screen,html.Screen,2_1_1_1_38,2022-04-25T17:30:19.861Z,,,,,,,,,,,,,,,,,54,,,,,,,,,,,,,,473.73700000596,,response,,,,100,,,,,,,Space,keypress(Space),,,,,,,,-- --- ---- --- ------ ----- ------- ---- -- --- ------- --<br>------- ---------- ------ -- ----- -- ----- -- ---- ------<br>--- ----- --- --- ------ -------- ----- --- ------ ----- --<br>----- ----- ---------- --- --- market ------ ---- -- ------<br>------- --- ------ ----- --- ---- ------- -- ---- --- --<br>------- ------,241633.40000000596,241632.90000000596,241142.315,241153.79999998212,241159.163,241644.228,,38,market
screen,html.Screen,2_1_1_1_39,2022-04-25T17:30:20.333Z,,,,,,,,,,,,,,,,,54,,,,,,,,,,,,,,460.67200000595767,,response,,,,100,,,,,,,Space,keypress(Space),,,,,,,,-- --- ---- --- ------ ----- ------- ---- -- --- ------- --<br>------- ---------- ------ -- ----- -- ----- -- ---- ------<br>--- ----- --- --- ------ -------- ----- --- ------ ----- --<br>----- ----- ---------- --- --- ------ became ---- -- ------<br>------- --- ------ ----- --- ---- ------- -- ---- --- --<br>------- ------,242105.40000000596,242104.90000000596,241627.384,241633.40000000596,241644.228,242112.324,,39,became
screen,html.Screen,2_1_1_1_40,2022-04-25T17:30:20.813Z,,,,,,,,,,,,,,,,,54,,,,,,,,,,,,,,472.47599998212536,,response,,,,100,,,,,,,Space,keypress(Space),,,,,,,,-- --- ---- --- ------ ----- ------- ---- -- --- ------- --<br>------- ---------- ------ -- ----- -- ----- -- ---- ------<br>--- ----- --- --- ------ -------- ----- --- ------ ----- --<br>----- ----- ---------- --- --- ------ ------ wary -- ------<br>------- --- ------ ----- --- ---- ------- -- ---- --- --<br>------- ------,242585.5,242584.79999998212,242095.68,242105.40000000596,242112.324,242597.401,,40,wary
screen,html.Screen,2_1_1_1_41,2022-04-25T17:30:21.237Z,,,,,,,,,,,,,,,,,54,,,,,,,,,,,,,,411.19899999402696,,response,,,,100,,,,,,,Space,keypress(Space),,,,,,,,-- --- ---- --- ------ ----- ------- ---- -- --- ------- --<br>------- ---------- ------ -- ----- -- ----- -- ---- ------<br>--- ----- --- --- ------ -------- ----- --- ------ ----- --<br>----- ----- ---------- --- --- ------ ------ ---- of ------<br>------- --- ------ ----- --- ---- ------- -- ---- --- --<br>------- ------,243009,243008.59999999404,242580.651,242585.59999999404,242597.401,243015.494,,41,of
screen,html.Screen,2_1_1_1_42,2022-04-25T17:30:21.717Z,,,,,,,,,,,,,,,,,54,,,,,,,,,,,,,,473.30599998211255,,response,,,,100,,,,,,,Space,keypress(Space),,,,,,,,-- --- ---- --- ------ ----- ------- ---- -- --- ------- --<br>------- ---------- ------ -- ----- -- ----- -- ---- ------<br>--- ----- --- --- ------ -------- ----- --- ------ ----- --<br>----- ----- ---------- --- --- ------ ------ ---- -- French<br>------- --- ------ ----- --- ---- ------- -- ---- --- --<br>------- ------,243489.19999998808,243488.79999998212,242998.866,243009.09999999404,243015.494,243500.737,,42,French
screen,html.Screen,2_1_1_1_43,2022-04-25T17:30:22.517Z,,,,,,,,,,,,,,,,,54,,,,,,,,,,,,,,788.0629999821249,,response,,,,100,,,,,,,Space,keypress(Space),,,,,,,,-- --- ---- --- ------ ----- ------- ---- -- --- ------- --<br>------- ---------- ------ -- ----- -- ----- -- ---- ------<br>--- ----- --- --- ------ -------- ----- --- ------ ----- --<br>----- ----- ---------- --- --- ------ ------ ---- -- ------<br>credit. --- ------ ----- --- ---- ------- -- ---- --- --<br>------- ------,244289.5,244288.79999998212,243483.802,243489.29999998212,243500.737,244303.681,,43,credit.
screen,html.Screen,2_1_1_1_44,2022-04-25T17:30:22.965Z,,,,,,,,,,,,,,,,,54,,,,,,,,,,,,,,433.1189999821072,,response,,,,100,,,,,,,Space,keypress(Space),,,,,,,,-- --- ---- --- ------ ----- ------- ---- -- --- ------- --<br>------- ---------- ------ -- ----- -- ----- -- ---- ------<br>--- ----- --- --- ------ -------- ----- --- ------ ----- --<br>----- ----- ---------- --- --- ------ ------ ---- -- ------<br>------- The ------ ----- --- ---- ------- -- ---- --- --<br>------- ------,244737.40000000596,244736.79999998212,244286.363,244289.59999999404,244303.681,244764.579,,44,The
screen,html.Screen,2_1_1_1_45,2022-04-25T17:30:23.405Z,,,,,,,,,,,,,,,,,54,,,,,,,,,,,,,,412.32100000596256,,response,,,,100,,,,,,,Space,keypress(Space),,,,,,,,-- --- ---- --- ------ ----- ------- ---- -- --- ------- --<br>------- ---------- ------ -- ----- -- ----- -- ---- ------<br>--- ----- --- --- ------ -------- ----- --- ------ ----- --<br>----- ----- ---------- --- --- ------ ------ ---- -- ------<br>------- --- French ----- --- ---- ------- -- ---- --- --<br>------- ------,245177.40000000596,245176.90000000596,244721.369,244737.40000000596,244764.579,245189.807,,45,French
screen,html.Screen,2_1_1_1_46,2022-04-25T17:30:23.845Z,,,,,,,,,,,,,,,,,54,,,,,,,,,,,,,,427.09300000595977,,response,,,,100,,,,,,,Space,keypress(Space),,,,,,,,-- --- ---- --- ------ ----- ------- ---- -- --- ------- --<br>------- ---------- ------ -- ----- -- ----- -- ---- ------<br>--- ----- --- --- ------ -------- ----- --- ------ ----- --<br>----- ----- ---------- --- --- ------ ------ ---- -- ------<br>------- --- ------ state --- ---- ------- -- ---- --- --<br>------- ------,245617.5,245616.90000000596,245173.012,245177.40000000596,245189.807,245624.641,,46,state
screen,html.Screen,2_1_1_1_47,2022-04-25T17:30:24.245Z,,,,,,,,,,,,,,,,,54,,,,,,,,,,,,,,392.2590000059572,,response,,,,100,,,,,,,Space,keypress(Space),,,,,,,,-- --- ---- --- ------ ----- ------- ---- -- --- ------- --<br>------- ---------- ------ -- ----- -- ----- -- ---- ------<br>--- ----- --- --- ------ -------- ----- --- ------ ----- --<br>----- ----- ---------- --- --- ------ ------ ---- -- ------<br>------- --- ------ ----- was ---- ------- -- ---- --- --<br>------- ------,246017.40000000596,246016.90000000596,245608.021,245617.59999999404,245624.641,246026.234,,47,was
screen,html.Screen,2_1_1_1_48,2022-04-25T17:30:24.677Z,,,,,,,,,,,,,,,,,54,,,,,,,,,,,,,,422.3659999940428,,response,,,,100,,,,,,,Space,keypress(Space),,,,,,,,-- --- ---- --- ------ ----- ------- ---- -- --- ------- --<br>------- ---------- ------ -- ----- -- ----- -- ---- ------<br>--- ----- --- --- ------ -------- ----- --- ------ ----- --<br>----- ----- ---------- --- --- ------ ------ ---- -- ------<br>------- --- ------ ----- --- left ------- -- ---- --- --<br>------- ------,246449.09999999404,246448.59999999404,246009.225,246017.40000000596,246026.234,246461.149,,48,left
screen,html.Screen,2_1_1_1_49,2022-04-25T17:30:25.053Z,,,,,,,,,,,,,,,,,54,,,,,,,,,,,,,,363.6509999821137,,response,,,,100,,,,,,,Space,keypress(Space),,,,,,,,-- --- ---- --- ------ ----- ------- ---- -- --- ------- --<br>------- ---------- ------ -- ----- -- ----- -- ---- ------<br>--- ----- --- --- ------ -------- ----- --- ------ ----- --<br>----- ----- ---------- --- --- ------ ------ ---- -- ------<br>------- --- ------ ----- --- ---- without -- ---- --- --<br>------- ------,246825.5,246824.79999998212,246444.249,246449.09999999404,246461.149,246828.86,,49,without
screen,html.Screen,2_1_1_1_50,2022-04-25T17:30:25.477Z,,,,,,,,,,,,,,,,,54,,,,,,,,,,,,,,420.14000000001397,,response,,,,100,,,,,,,Space,keypress(Space),,,,,,,,-- --- ---- --- ------ ----- ------- ---- -- --- ------- --<br>------- ---------- ------ -- ----- -- ----- -- ---- ------<br>--- ----- --- --- ------ -------- ----- --- ------ ----- --<br>----- ----- ---------- --- --- ------ ------ ---- -- ------<br>------- --- ------ ----- --- ---- ------- an ---- --- --<br>------- ------,247249.40000000596,247249,246812.303,246825.59999999404,246828.86,247263.968,,50,an
screen,html.Screen,2_1_1_1_51,2022-04-25T17:30:25.941Z,,,,,,,,,,,,,,,,,54,,,,,,,,,,,,,,448.932000005967,,response,,,,100,,,,,,,Space,keypress(Space),,,,,,,,-- --- ---- --- ------ ----- ------- ---- -- --- ------- --<br>------- ---------- ------ -- ----- -- ----- -- ---- ------<br>--- ----- --- --- ------ -------- ----- --- ------ ----- --<br>----- ----- ---------- --- --- ------ ------ ---- -- ------<br>------- --- ------ ----- --- ---- ------- -- easy --- --<br>------- ------,247713.40000000596,247712.90000000596,247247.104,247249.40000000596,247263.968,247715.263,,51,easy
screen,html.Screen,2_1_1_1_52,2022-04-25T17:30:26.325Z,,,,,,,,,,,,,,,,,54,,,,,,,,,,,,,,381.5369999821123,,response,,,,100,,,,,,,Space,keypress(Space),,,,,,,,-- --- ---- --- ------ ----- ------- ---- -- --- ------- --<br>------- ---------- ------ -- ----- -- ----- -- ---- ------<br>--- ----- --- --- ------ -------- ----- --- ------ ----- --<br>----- ----- ---------- --- --- ------ ------ ---- -- ------<br>------- --- ------ ----- --- ---- ------- -- ---- way --<br>------- ------,248097.59999999404,248096.79999998212,247698.69,247713.40000000596,247715.263,248099.965,,52,way
screen,html.Screen,2_1_1_1_53,2022-04-25T17:30:26.837Z,,,,,,,,,,,,,,,,,54,,,,,,,,,,,,,,509.0350000000035,,response,,,,100,,,,,,,Space,keypress(Space),,,,,,,,-- --- ---- --- ------ ----- ------- ---- -- --- ------- --<br>------- ---------- ------ -- ----- -- ----- -- ---- ------<br>--- ----- --- --- ------ -------- ----- --- ------ ----- --<br>----- ----- ---------- --- --- ------ ------ ---- -- ------<br>------- --- ------ ----- --- ---- ------- -- ---- --- of<br>------- ------,248609.40000000596,248609,248083.455,248097.59999999404,248099.965,248618.474,,53,of
screen,html.Screen,2_1_1_1_54,2022-04-25T17:30:27.309Z,,,,,,,,,,,,,,,,,54,,,,,,,,,,,,,,462.3259999821312,,response,,,,100,,,,,,,Space,keypress(Space),,,,,,,,-- --- ---- --- ------ ----- ------- ---- -- --- ------- --<br>------- ---------- ------ -- ----- -- ----- -- ---- ------<br>--- ----- --- --- ------ -------- ----- --- ------ ----- --<br>----- ----- ---------- --- --- ------ ------ ---- -- ------<br>------- --- ------ ----- --- ---- ------- -- ---- --- --<br>raising ------,249081.29999998212,249080.79999998212,248601.823,248609.40000000596,248618.474,249086.791,,54,raising
screen,html.Screen,2_1_1_1_55,2022-04-25T17:30:28.229Z,,,,,,,,,,,,,,,,,54,,,,,,,,,,,,,,914.0089999821212,,response,,,,100,,,,,,,Space,keypress(Space),,,,,,,,-- --- ---- --- ------ ----- ------- ---- -- --- ------- --<br>------- ---------- ------ -- ----- -- ----- -- ---- ------<br>--- ----- --- --- ------ -------- ----- --- ------ ----- --<br>----- ----- ---------- --- --- ------ ------ ---- -- ------<br>------- --- ------ ----- --- ---- ------- -- ---- --- --<br>------- money.,250001.59999999404,250000.79999998212,249070.14,249081.29999998212,249086.791,250006.573,,55,money.
Item 100,flow.Loop,2_1_1_1,2022-04-25T17:30:28.229Z,,,,,,,,,,,,,,,,,,,,,,,,,,,,,,,29965.64599998211,,completion,,,,,B,,,,,,,,,,,silence,,,,,250001.69999998808,250000.79999998212,220018.131,220019.59999999404,220035.154,250006.573,,,
Question 1,html.Screen,2_1_1_2,2022-04-25T17:30:31.478Z,,,,,,,,,,,,,,,,,,,,,,,,,,,,true,TRUE,,3242.2269999821146,,response,,,,100,B,,,,,,TRUE,click #choice-1,,,,silence,,,,,253250.09999999404,253248.79999998212,249989.82,250001.69999998808,250006.573,253251.332,,,
Question 2,html.Screen,2_1_1_3,2022-04-25T17:30:34.102Z,,,,,,,,,,,,,,,,,,,,,,,,,,,,true,FALSE,,2621.4679999821237,,response,,,,100,B,,,,,,FALSE,click #choice-2,,,,silence,,,,,255874.09999999404,255872.79999998212,253234.897,253250.19999998808,253251.332,255877.235,,,
Item 100,flow.Sequence,2_1_1,2022-04-25T17:30:34.102Z,,,,,,,,,,,,,,,,,,,,,,,,,,,,,,,45839.45499998212,,completion,,,,,,,,,,,,,,,,,,,,,255874.79999998212,255872.79999998212,210016.579,210018.40000000596,210033.345,255877.235,,,
End of Practice,html.Page,2_1_2,2022-04-25T17:30:53.886Z,,,,,,,,,,,,,,,,,,,,,,,,,,,,,,,19781.064999982133,,form submission,,,,,,,,,,,,,,,,,,,,,275658.5,275658.2999999821,255860.761,255874.90000000596,255877.235,275663.335,,,
Practice,flow.Sequence,2_1,2022-04-25T17:30:53.886Z,,,,,,,,,,,,,,,,,,,,,,,,,,,,,,,119447.26299998211,,completion,,,,,,,,,,,,,,,,,,,,,275658.59999999404,275658.2999999821,156194.49,156202.69999998808,156211.037,275663.335,,,
Trap_instruction,html.Page,2_2_0,2022-04-25T17:30:59.918Z,,,,,,,,,,,,,,,,,,,,,,,,,,,,,,,6026.664999999979,,form submission,,,,,,,,,,,,,,,,,,,,,281690.1999999881,281690,275646.814,275658.6999999881,275663.335,281701.232,,,
trap_trial,html.Screen,2_2_1,2022-04-25T17:31:03.694Z,,,,,,,,,,,,,,,,,,,,,,,,,,,,true,1,,3763.5679999821004,,response,,,,,,,,,,,1,click #choice-1,,,,,,,,,285466.1999999881,285464.7999999821,281684.655,281690.2999999821,281701.232,285481.093,,,
end of trap trial,html.Page,2_2_2,2022-04-25T17:31:05.422Z,,,,,,,,,,,,,,,,,,,,,,,,,,,,,,,1713.1069999880856,,form submission,,,,,,,,,,,,,,,,,,,,,287194.40000000596,287194.1999999881,285464.565,285466.2999999821,285481.093,287203.998,,,
Trap 1,flow.Sequence,2_2,2022-04-25T17:31:05.422Z,,,,,,,,,,,,,,,,,,,,,,,,,,,,,,,11530.864999988058,,completion,,,,,,,,,,,,,,,,,,,,,287194.40000000596,287194.1999999881,275646.814,275658.59999999404,275663.335,287203.998,,,
Standby,html.Page,2_3_0,2022-04-25T17:31:13.410Z,,,,,,,,,,,,,,,,,,,,,,,,,,,,,,,7994.652999999991,,timeout,,,,,,,,,,,,,,,,,,,,,295182.40000000596,295181.955,287187.301,287194.5,287203.998,295198.651,,,
Holding screen,html.Screen,2_3_1_0_0,2022-04-25T17:31:20.418Z,,,,,,,,,,,,,,,,,,,,,,,,,,,,,,,7007.745999999985,,timeout,,,,,,,,,,,,,,,,,,,,,302190.1999999881,302189.636,295181.955,295182.40000000596,295198.651,302206.397,,,
screen,html.Screen,2_3_1_0_1_0,2022-04-25T17:31:20.854Z,,,,,,,,,,,,,,,,,12,,,,,,,,,,,,,,418.70299999404233,,response,,,,5,B,,,,,,Space,keypress(Space),,,,lyrical,,,,Some ------ ------ ------- ------ --- ------- -----------<br>-- ----- --- ---- -- --- ------ ---- - ---- -- ----------<br>-- ------ ---- --- ---- --- --- --- ----- -- -------- ---<br>------ ------- -------- --- ---- -- ------- ------------ --<br>------ -- ---- -- --- ---- -- -------- -- --- ------ ------,302625.90000000596,302625.09999999404,302189.636,302190.1999999881,302206.397,302641.246,,0,Some
screen,html.Screen,2_3_1_0_1_1,2022-04-25T17:31:21.453Z,,,,,,,,,,,,,,,,,12,,,,,,,,,,,,,,583.553999982134,,response,,,,5,B,,,,,,Space,keypress(Space),,,,lyrical,,,,---- months ------ ------- ------ --- ------- -----------<br>-- ----- --- ---- -- --- ------ ---- - ---- -- ----------<br>-- ------ ---- --- ---- --- --- --- ----- -- -------- ---<br>------ ------- -------- --- ---- -- ------- ------------ --<br>------ -- ---- -- --- ---- -- -------- -- --- ------ ------,303225.2999999821,303224.7999999821,302624.362,302626,302641.246,303260.091,,1,months
screen,html.Screen,2_3_1_0_1_2,2022-04-25T17:31:22.373Z,,,,,,,,,,,,,,,,,12,,,,,,,,,,,,,,884.7089999821037,,response,,,,5,B,,,,,,Space,keypress(Space),,,,lyrical,,,,"---- ------ later, ------- ------ --- ------- -----------<br>-- ----- --- ---- -- --- ------ ---- - ---- -- ----------<br>-- ------ ---- --- ---- --- --- --- ----- -- -------- ---<br>------ ------- -------- --- ---- -- ------- ------------ --<br>------ -- ---- -- --- ---- -- -------- -- --- ------ ------",304145.59999999404,304144.7999999821,303209.903,303225.40000000596,303260.091,304179.892,,2,"later,"
screen,html.Screen,2_3_1_0_1_3,2022-04-25T17:31:23.221Z,,,,,,,,,,,,,,,,,12,,,,,,,,,,,,,,812.8079999880865,,response,,,,5,B,,,,,,Space,keypress(Space),,,,lyrical,,,,---- ------ ------ Michael ------ --- ------- -----------<br>-- ----- --- ---- -- --- ------ ---- - ---- -- ----------<br>-- ------ ---- --- ---- --- --- --- ----- -- -------- ---<br>------ ------- -------- --- ---- -- ------- ------------ --<br>------ -- ---- -- --- ---- -- -------- -- --- ------ ------,304993.1999999881,304992.6999999881,304129.803,304145.59999999404,304179.892,304999.531,,3,Michael
screen,html.Screen,2_3_1_0_1_4,2022-04-25T17:31:24.158Z,,,,,,,,,,,,,,,,,12,,,,,,,,,,,,,,929.2689999821014,,response,,,,5,B,,,,,,Space,keypress(Space),,,,lyrical,,,,---- ------ ------ ------- Larson --- ------- -----------<br>-- ----- --- ---- -- --- ------ ---- - ---- -- ----------<br>-- ------ ---- --- ---- --- --- --- ----- -- -------- ---<br>------ ------- -------- --- ---- -- ------- ------------ --<br>------ -- ---- -- --- ---- -- -------- -- --- ------ ------,305929.59999999404,305928.7999999821,304982.54,304993.1999999881,304999.531,305936.155,,4,Larson
screen,html.Screen,2_3_1_0_1_5,2022-04-25T17:31:24.909Z,,,,,,,,,,,,,,,,,12,,,,,,,,,,,,,,744.5449999880511,,response,,,,5,B,,,,,,Space,keypress(Space),,,,lyrical,,,,---- ------ ------ ------- ------ saw ------- -----------<br>-- ----- --- ---- -- --- ------ ---- - ---- -- ----------<br>-- ------ ---- --- ---- --- --- --- ----- -- -------- ---<br>------ ------- -------- --- ---- -- ------- ------------ --<br>------ -- ---- -- --- ---- -- -------- -- --- ------ ------,306681.09999999404,306680.6999999881,305919.361,305929.59999999404,305936.155,306689.063,,5,saw
screen,html.Screen,2_3_1_0_1_6,2022-04-25T17:31:25.758Z,,,,,,,,,,,,,,,,,12,,,,,,,,,,,,,,839.7369999820949,,response,,,,5,B,,,,,,Space,keypress(Space),,,,lyrical,,,,---- ------ ------ ------- ------ --- another -----------<br>-- ----- --- ---- -- --- ------ ---- - ---- -- ----------<br>-- ------ ---- --- ---- --- --- --- ----- -- -------- ---<br>------ ------- -------- --- ---- -- ------- ------------ --<br>------ -- ---- -- --- ---- -- -------- -- --- ------ ------,307529.59999999404,307528.7999999821,306672.048,306681.1999999881,306689.063,307541.981,,6,another
screen,html.Screen,2_3_1_0_1_7,2022-04-25T17:31:26.541Z,,,,,,,,,,,,,,,,,12,,,,,,,,,,,,,,770.7189999880502,,response,,,,5,B,,,,,,Space,keypress(Space),,,,lyrical,,,,---- ------ ------ ------- ------ --- ------- opportunity<br>-- ----- --- ---- -- --- ------ ---- - ---- -- ----------<br>-- ------ ---- --- ---- --- --- --- ----- -- -------- ---<br>------ ------- -------- --- ---- -- ------- ------------ --<br>------ -- ---- -- --- ---- -- -------- -- --- ------ ------,308313.1999999881,308312.6999999881,307524.985,307529.59999999404,307541.981,308328.165,,7,opportunity
screen,html.Screen,2_3_1_0_1_8,2022-04-25T17:31:27.373Z,,,,,,,,,,,,,,,,,12,,,,,,,,,,,,,,816.6349999821396,,response,,,,5,B,,,,,,Space,keypress(Space),,,,lyrical,,,,---- ------ ------ ------- ------ --- ------- -----------<br>to ----- --- ---- -- --- ------ ---- - ---- -- ----------<br>-- ------ ---- --- ---- --- --- --- ----- -- -------- ---<br>------ ------- -------- --- ---- -- ------- ------------ --<br>------ -- ---- -- --- ---- -- -------- -- --- ------ ------,309145.5,309144.7999999821,308311.066,308313.2999999821,308328.165,309147.362,,8,to
screen,html.Screen,2_3_1_0_1_9,2022-04-25T17:31:28.310Z,,,,,,,,,,,,,,,,,12,,,,,,,,,,,,,,933.8379999880563,,response,,,,5,B,,,,,,Space,keypress(Space),,,,lyrical,,,,---- ------ ------ ------- ------ --- ------- -----------<br>-- stack --- ---- -- --- ------ ---- - ---- -- ----------<br>-- ------ ---- --- ---- --- --- --- ----- -- -------- ---<br>------ ------- -------- --- ---- -- ------- ------------ --<br>------ -- ---- -- --- ---- -- -------- -- --- ------ ------,310081.6999999881,310081.1999999881,309130.399,309145.59999999404,309147.362,310084.024,,9,stack
screen,html.Screen,2_3_1_0_1_10,2022-04-25T17:31:28.806Z,,,,,,,,,,,,,,,,,12,,,,,,,,,,,,,,492.8760000059847,,response,,,,5,B,,,,,,Space,keypress(Space),,,,lyrical,,,,---- ------ ------ ------- ------ --- ------- -----------<br>-- ----- the ---- -- --- ------ ---- - ---- -- ----------<br>-- ------ ---- --- ---- --- --- --- ----- -- -------- ---<br>------ ------- -------- --- ---- -- ------- ------------ --<br>------ -- ---- -- --- ---- -- -------- -- --- ------ ------,310577.59999999404,310576.90000000596,310067.024,310081.6999999881,310084.024,310586.044,,10,the
screen,html.Screen,2_3_1_0_1_11,2022-04-25T17:31:29.405Z,,,,,,,,,,,,,,,,,12,,,,,,,,,,,,,,590.856000005966,,response,,,,5,B,,,,,,Space,keypress(Space),,,,lyrical,,,,---- ------ ------ ------- ------ --- ------- -----------<br>-- ----- --- odds -- --- ------ ---- - ---- -- ----------<br>-- ------ ---- --- ---- --- --- --- ----- -- -------- ---<br>------ ------- -------- --- ---- -- ------- ------------ --<br>------ -- ---- -- --- ---- -- -------- -- --- ------ ------,311177.2999999821,311176.90000000596,310569.174,310577.6999999881,310586.044,311188.109,,11,odds
screen,html.Screen,2_3_1_0_1_12,2022-04-25T17:31:29.870Z,,,,,,,,,,,,,,,,,12,,,,,,,,,,,,,,452.7910000059637,,response,,,,5,B,,,,,,Space,keypress(Space),,,,lyrical,,,,---- ------ ------ ------- ------ --- ------- -----------<br>-- ----- --- ---- in --- ------ ---- - ---- -- ----------<br>-- ------ ---- --- ---- --- --- --- ----- -- -------- ---<br>------ ------- -------- --- ---- -- ------- ------------ --<br>------ -- ---- -- --- ---- -- -------- -- --- ------ ------,311641.6999999881,311640.90000000596,311171.243,311177.40000000596,311188.109,311656.413,,12,in
screen,html.Screen,2_3_1_0_1_13,2022-04-25T17:31:30.661Z,,,,,,,,,,,,,,,,,12,,,,,,,,,,,,,,776.1869999940391,,response,,,,5,B,,,,,,Space,keypress(Space),,,,lyrical,,,,---- ------ ------ ------- ------ --- ------- -----------<br>-- ----- --- ---- -- his ------ ---- - ---- -- ----------<br>-- ------ ---- --- ---- --- --- --- ----- -- -------- ---<br>------ ------- -------- --- ---- -- ------- ------------ --<br>------ -- ---- -- --- ---- -- -------- -- --- ------ ------,312433,312432.59999999404,311639.293,311641.6999999881,311656.413,312442.498,,13,his
screen,html.Screen,2_3_1_0_1_14,2022-04-25T17:31:31.782Z,,,,,,,,,,,,,,,,,12,,,,,,,,,,,,,,1110.5019999999786,,response,,,,5,B,,,,,,Space,keypress(Space),,,,lyrical,,,,---- ------ ------ ------- ------ --- ------- -----------<br>-- ----- --- ---- -- --- favour ---- - ---- -- ----------<br>-- ------ ---- --- ---- --- --- --- ----- -- -------- ---<br>------ ------- -------- --- ---- -- ------- ------------ --<br>------ -- ---- -- --- ---- -- -------- -- --- ------ ------,313553.7999999821,313553,312425.492,312433,312442.498,313563.135,,14,favour
screen,html.Screen,2_3_1_0_1_15,2022-04-25T17:31:32.589Z,,,,,,,,,,,,,,,,,12,,,,,,,,,,,,,,797.8649999999907,,response,,,,5,B,,,,,,Space,keypress(Space),,,,lyrical,,,,---- ------ ------ ------- ------ --- ------- -----------<br>-- ----- --- ---- -- --- ------ with - ---- -- ----------<br>-- ------ ---- --- ---- --- --- --- ----- -- -------- ---<br>------ ------- -------- --- ---- -- ------- ------------ --<br>------ -- ---- -- --- ---- -- -------- -- --- ------ ------,314361.2999999821,314361,313546.011,313553.7999999821,313563.135,314365.725,,15,with
screen,html.Screen,2_3_1_0_1_16,2022-04-25T17:31:33.053Z,,,,,,,,,,,,,,,,,12,,,,,,,,,,,,,,459.0749999821419,,response,,,,5,B,,,,,,Space,keypress(Space),,,,lyrical,,,,---- ------ ------ ------- ------ --- ------- -----------<br>-- ----- --- ---- -- --- ------ ---- a ---- -- ----------<br>-- ------ ---- --- ---- --- --- --- ----- -- -------- ---<br>------ ------- -------- --- ---- -- ------- ------------ --<br>------ -- ---- -- --- ---- -- -------- -- --- ------ ------,314825.5,314824.7999999821,314348.951,314361.40000000596,314365.725,314834.276,,16,a
screen,html.Screen,2_3_1_0_1_17,2022-04-25T17:31:33.821Z,,,,,,,,,,,,,,,,,12,,,,,,,,,,,,,,758.523999982106,,response,,,,5,B,,,,,,Space,keypress(Space),,,,lyrical,,,,---- ------ ------ ------- ------ --- ------- -----------<br>-- ----- --- ---- -- --- ------ ---- - dash -- ----------<br>-- ------ ---- --- ---- --- --- --- ----- -- -------- ---<br>------ ------- -------- --- ---- -- ------- ------------ --<br>------ -- ---- -- --- ---- -- -------- -- --- ------ ------,315593.1999999881,315592.7999999821,314817.4,314825.59999999404,314834.276,315603.641,,17,dash
screen,html.Screen,2_3_1_0_1_18,2022-04-25T17:31:34.238Z,,,,,,,,,,,,,,,,,12,,,,,,,,,,,,,,405.15899998211535,,response,,,,5,B,,,,,,Space,keypress(Space),,,,lyrical,,,,---- ------ ------ ------- ------ --- ------- -----------<br>-- ----- --- ---- -- --- ------ ---- - ---- of ----------<br>-- ------ ---- --- ---- --- --- --- ----- -- -------- ---<br>------ ------- -------- --- ---- -- ------- ------------ --<br>------ -- ---- -- --- ---- -- -------- -- --- ------ ------,316009.59999999404,316008.7999999821,315586.706,315593.2999999821,315603.641,316021.717,,18,of
screen,html.Screen,2_3_1_0_1_19,2022-04-25T17:31:34.949Z,,,,,,,,,,,,,,,,,12,,,,,,,,,,,,,,698.9829999880749,,response,,,,5,B,,,,,,Space,keypress(Space),,,,lyrical,,,,---- ------ ------ ------- ------ --- ------- -----------<br>-- ----- --- ---- -- --- ------ ---- - ---- -- ingenuity.<br>-- ------ ---- --- ---- --- --- --- ----- -- -------- ---<br>------ ------- -------- --- ---- -- ------- ------------ --<br>------ -- ---- -- --- ---- -- -------- -- --- ------ ------,316721.1999999881,316720.6999999881,316004.927,316009.6999999881,316021.717,316723.986,,19,ingenuity.
screen,html.Screen,2_3_1_0_1_20,2022-04-25T17:31:35.470Z,,,,,,,,,,,,,,,,,12,,,,,,,,,,,,,,516.8139999821433,,response,,,,5,B,,,,,,Space,keypress(Space),,,,lyrical,,,,---- ------ ------ ------- ------ --- ------- -----------<br>-- ----- --- ---- -- --- ------ ---- - ---- -- ----------<br>He ------ ---- --- ---- --- --- --- ----- -- -------- ---<br>------ ------- -------- --- ---- -- ------- ------------ --<br>------ -- ---- -- --- ---- -- -------- -- --- ------ ------,317241.5,317240.7999999821,316707.237,316721.2999999821,316723.986,317260.083,,20,He
screen,html.Screen,2_3_1_0_1_21,2022-04-25T17:31:36.309Z,,,,,,,,,,,,,,,,,12,,,,,,,,,,,,,,820.7169999821344,,response,,,,5,B,,,,,,Space,keypress(Space),,,,lyrical,,,,---- ------ ------ ------- ------ --- ------- -----------<br>-- ----- --- ---- -- --- ------ ---- - ---- -- ----------<br>-- walked ---- --- ---- --- --- --- ----- -- -------- ---<br>------ ------- -------- --- ---- -- ------- ------------ --<br>------ -- ---- -- --- ---- -- -------- -- --- ------ ------,318081.2999999821,318080.7999999821,317225.779,317241.59999999404,317260.083,318095.658,,21,walked
screen,html.Screen,2_3_1_0_1_22,2022-04-25T17:31:37.141Z,,,,,,,,,,,,,,,,,12,,,,,,,,,,,,,,817.1419999821228,,response,,,,5,B,,,,,,Space,keypress(Space),,,,lyrical,,,,---- ------ ------ ------- ------ --- ------- -----------<br>-- ----- --- ---- -- --- ------ ---- - ---- -- ----------<br>-- ------ into --- ---- --- --- --- ----- -- -------- ---<br>------ ------- -------- --- ---- -- ------- ------------ --<br>------ -- ---- -- --- ---- -- -------- -- --- ------ ------,318913.5,318912.7999999821,318078.501,318081.40000000596,318095.658,318914.933,,22,into
screen,html.Screen,2_3_1_0_1_23,2022-04-25T17:31:38.190Z,,,,,,,,,,,,,,,,,12,,,,,,,,,,,,,,1045.9670000059414,,response,,,,5,B,,,,,,Space,keypress(Space),,,,lyrical,,,,---- ------ ------ ------- ------ --- ------- -----------<br>-- ----- --- ---- -- --- ------ ---- - ---- -- ----------<br>-- ------ ---- his ---- --- --- --- ----- -- -------- ---<br>------ ------- -------- --- ---- -- ------- ------------ --<br>------ -- ---- -- --- ---- -- -------- -- --- ------ ------,319961.7999999821,319960.90000000596,318898.276,318913.5,318914.933,319968.738,,23,his
screen,html.Screen,2_3_1_0_1_24,2022-04-25T17:31:39.093Z,,,,,,,,,,,,,,,,,12,,,,,,,,,,,,,,896.0619999821065,,response,,,,5,B,,,,,,Space,keypress(Space),,,,lyrical,,,,---- ------ ------ ------- ------ --- ------- -----------<br>-- ----- --- ---- -- --- ------ ---- - ---- -- ----------<br>-- ------ ---- --- bank --- --- --- ----- -- -------- ---<br>------ ------- -------- --- ---- -- ------- ------------ --<br>------ -- ---- -- --- ---- -- -------- -- --- ------ ------,320865.40000000596,320864.7999999821,319951.858,319961.90000000596,319968.738,320871.923,,24,bank
screen,html.Screen,2_3_1_0_1_25,2022-04-25T17:31:40.414Z,,,,,,,,,,,,,,,,,12,,,,,,,,,,,,,,1312.8769999821088,,response,,,,5,B,,,,,,Space,keypress(Space),,,,lyrical,,,,---- ------ ------ ------- ------ --- ------- -----------<br>-- ----- --- ---- -- --- ------ ---- - ---- -- ----------<br>-- ------ ---- --- ---- one --- --- ----- -- -------- ---<br>------ ------- -------- --- ---- -- ------- ------------ --<br>------ -- ---- -- --- ---- -- -------- -- --- ------ ------,322185.6999999881,322184.7999999821,320855.075,320865.40000000596,320871.923,322193.533,,25,one
screen,html.Screen,2_3_1_0_1_26,2022-04-25T17:31:41.269Z,,,,,,,,,,,,,,,,,12,,,,,,,,,,,,,,847.3670000059647,,response,,,,5,B,,,,,,Space,keypress(Space),,,,lyrical,,,,---- ------ ------ ------- ------ --- ------- -----------<br>-- ----- --- ---- -- --- ------ ---- - ---- -- ----------<br>-- ------ ---- --- ---- --- day --- ----- -- -------- ---<br>------ ------- -------- --- ---- -- ------- ------------ --<br>------ -- ---- -- --- ---- -- -------- -- --- ------ ------,323041.40000000596,323040.90000000596,322176.545,322185.6999999881,322193.533,323046.353,,26,day
screen,html.Screen,2_3_1_0_1_27,2022-04-25T17:31:42.062Z,,,,,,,,,,,,,,,,,12,,,,,,,,,,,,,,786.5470000059577,,response,,,,5,B,,,,,,Space,keypress(Space),,,,lyrical,,,,---- ------ ------ ------- ------ --- ------- -----------<br>-- ----- --- ---- -- --- ------ ---- - ---- -- ----------<br>-- ------ ---- --- ---- --- --- and ----- -- -------- ---<br>------ ------- -------- --- ---- -- ------- ------------ --<br>------ -- ---- -- --- ---- -- -------- -- --- ------ ------,323833.59999999404,323832.90000000596,323029.399,323041.40000000596,323046.353,323849.229,,27,and
screen,html.Screen,2_3_1_0_1_28,2022-04-25T17:31:43.158Z,,,,,,,,,,,,,,,,,12,,,,,,,,,,,,,,1079.5709999821265,,response,,,,5,B,,,,,,Space,keypress(Space),,,,lyrical,,,,---- ------ ------ ------- ------ --- ------- -----------<br>-- ----- --- ---- -- --- ------ ---- - ---- -- ----------<br>-- ------ ---- --- ---- --- --- --- asked -- -------- ---<br>------ ------- -------- --- ---- -- ------- ------------ --<br>------ -- ---- -- --- ---- -- -------- -- --- ------ ------,324929.6999999881,324928.7999999821,323832.198,323833.6999999881,323849.229,324936.125,,28,asked
screen,html.Screen,2_3_1_0_1_29,2022-04-25T17:31:43.669Z,,,,,,,,,,,,,,,,,12,,,,,,,,,,,,,,504.375,,response,,,,5,B,,,,,,Space,keypress(Space),,,,lyrical,,,,---- ------ ------ ------- ------ --- ------- -----------<br>-- ----- --- ---- -- --- ------ ---- - ---- -- ----------<br>-- ------ ---- --- ---- --- --- --- ----- to -------- ---<br>------ ------- -------- --- ---- -- ------- ------------ --<br>------ -- ---- -- --- ---- -- -------- -- --- ------ ------,325441.09999999404,325440.5,324919.255,324929.7999999821,324936.125,325454.841,,29,to
screen,html.Screen,2_3_1_0_1_30,2022-04-25T17:31:44.925Z,,,,,,,,,,,,,,,,,12,,,,,,,,,,,,,,1241.9589999821037,,response,,,,5,B,,,,,,Space,keypress(Space),,,,lyrical,,,,---- ------ ------ ------- ------ --- ------- -----------<br>-- ----- --- ---- -- --- ------ ---- - ---- -- ----------<br>-- ------ ---- --- ---- --- --- --- ----- -- withdraw ---<br>------ ------- -------- --- ---- -- ------- ------------ --<br>------ -- ---- -- --- ---- -- -------- -- --- ------ ------,326697.59999999404,326696.7999999821,325438.005,325441.1999999881,325454.841,326709.29,,30,withdraw
screen,html.Screen,2_3_1_0_1_31,2022-04-25T17:31:45.829Z,,,,,,,,,,,,,,,,,12,,,,,,,,,,,,,,891.8099999940605,,response,,,,5,B,,,,,,Space,keypress(Space),,,,lyrical,,,,---- ------ ------ ------- ------ --- ------- -----------<br>-- ----- --- ---- -- --- ------ ---- - ---- -- ----------<br>-- ------ ---- --- ---- --- --- --- ----- -- -------- his<br>------ ------- -------- --- ---- -- ------- ------------ --<br>------ -- ---- -- --- ---- -- -------- -- --- ------ ------,327601.5,327601.09999999404,326692.114,326697.59999999404,326709.29,327612.202,,31,his
screen,html.Screen,2_3_1_0_1_32,2022-04-25T17:31:46.446Z,,,,,,,,,,,,,,,,,12,,,,,,,,,,,,,,604.5979999821284,,response,,,,5,B,,,,,,Space,keypress(Space),,,,lyrical,,,,---- ------ ------ ------- ------ --- ------- -----------<br>-- ----- --- ---- -- --- ------ ---- - ---- -- ----------<br>-- ------ ---- --- ---- --- --- --- ----- -- -------- ---<br>entire ------- -------- --- ---- -- ------- ------------ --<br>------ -- ---- -- --- ---- -- -------- -- --- ------ ------,328217.59999999404,328216.7999999821,327595.381,327601.5,327612.202,328231.01,,32,entire
screen,html.Screen,2_3_1_0_1_33,2022-04-25T17:31:47.109Z,,,,,,,,,,,,,,,,,12,,,,,,,,,,,,,,649.5899999940302,,response,,,,5,B,,,,,,Space,keypress(Space),,,,lyrical,,,,---- ------ ------ ------- ------ --- ------- -----------<br>-- ----- --- ---- -- --- ------ ---- - ---- -- ----------<br>-- ------ ---- --- ---- --- --- --- ----- -- -------- ---<br>------ account -------- --- ---- -- ------- ------------ --<br>------ -- ---- -- --- ---- -- -------- -- --- ------ ------,328881.09999999404,328880.59999999404,328214.269,328217.59999999404,328231.01,328883.279,,33,account
screen,html.Screen,2_3_1_0_1_34,2022-04-25T17:31:48.534Z,,,,,,,,,,,,,,,,,12,,,,,,,,,,,,,,1421.5209999821382,,response,,,,5,B,,,,,,Space,keypress(Space),,,,lyrical,,,,"---- ------ ------ ------- ------ --- ------- -----------<br>-- ----- --- ---- -- --- ------ ---- - ---- -- ----------<br>-- ------ ---- --- ---- --- --- --- ----- -- -------- ---<br>------ ------- balance, --- ---- -- ------- ------------ --<br>------ -- ---- -- --- ---- -- -------- -- --- ------ ------",330305.6999999881,330304.7999999821,328866.61,328881.1999999881,328883.279,330321.864,,34,"balance,"
screen,html.Screen,2_3_1_0_1_35,2022-04-25T17:31:49.077Z,,,,,,,,,,,,,,,,,12,,,,,,,,,,,,,,526.9359999821172,,response,,,,5,B,,,,,,Space,keypress(Space),,,,lyrical,,,,---- ------ ------ ------- ------ --- ------- -----------<br>-- ----- --- ---- -- --- ------ ---- - ---- -- ----------<br>-- ------ ---- --- ---- --- --- --- ----- -- -------- ---<br>------ ------- -------- but ---- -- ------- ------------ --<br>------ -- ---- -- --- ---- -- -------- -- --- ------ ------,330849.2999999821,330848.7999999821,330304.76,330305.7999999821,330321.864,330856.891,,35,but
screen,html.Screen,2_3_1_0_1_36,2022-04-25T17:31:49.606Z,,,,,,,,,,,,,,,,,12,,,,,,,,,,,,,,519.9089999821153,,response,,,,5,B,,,,,,Space,keypress(Space),,,,lyrical,,,,---- ------ ------ ------- ------ --- ------- -----------<br>-- ----- --- ---- -- --- ------ ---- - ---- -- ----------<br>-- ------ ---- --- ---- --- --- --- ----- -- -------- ---<br>------ ------- -------- --- with -- ------- ------------ --<br>------ -- ---- -- --- ---- -- -------- -- --- ------ ------,331377.59999999404,331376.7999999821,330840.196,330849.2999999821,330856.891,331392.317,,36,with
screen,html.Screen,2_3_1_0_1_37,2022-04-25T17:31:50.045Z,,,,,,,,,,,,,,,,,12,,,,,,,,,,,,,,424.4829999821377,,response,,,,5,B,,,,,,Space,keypress(Space),,,,lyrical,,,,---- ------ ------ ------- ------ --- ------- -----------<br>-- ----- --- ---- -- --- ------ ---- - ---- -- ----------<br>-- ------ ---- --- ---- --- --- --- ----- -- -------- ---<br>------ ------- -------- --- ---- an ------- ------------ --<br>------ -- ---- -- --- ---- -- -------- -- --- ------ ------,331817.1999999881,331816.7999999821,331375.378,331377.6999999881,331392.317,331826.941,,37,an
screen,html.Screen,2_3_1_0_1_38,2022-04-25T17:31:50.653Z,,,,,,,,,,,,,,,,,12,,,,,,,,,,,,,,597.858999982127,,response,,,,5,B,,,,,,Space,keypress(Space),,,,lyrical,,,,---- ------ ------ ------- ------ --- ------- -----------<br>-- ----- --- ---- -- --- ------ ---- - ---- -- ----------<br>-- ------ ---- --- ---- --- --- --- ----- -- -------- ---<br>------ ------- -------- --- ---- -- unusual ------------ --<br>------ -- ---- -- --- ---- -- -------- -- --- ------ ------,332425.5,332424.7999999821,331810.279,331817.2999999821,331826.941,332429.066,,38,unusual
screen,html.Screen,2_3_1_0_1_39,2022-04-25T17:31:51.373Z,,,,,,,,,,,,,,,,,12,,,,,,,,,,,,,,715.733999982127,,response,,,,5,B,,,,,,Space,keypress(Space),,,,lyrical,,,,---- ------ ------ ------- ------ --- ------- -----------<br>-- ----- --- ---- -- --- ------ ---- - ---- -- ----------<br>-- ------ ---- --- ---- --- --- --- ----- -- -------- ---<br>------ ------- -------- --- ---- -- ------- stipulation: --<br>------ -- ---- -- --- ---- -- -------- -- --- ------ ------,333145.2999999821,333144.7999999821,332412.37,332425.59999999404,332429.066,333148.394,,39,stipulation:
screen,html.Screen,2_3_1_0_1_40,2022-04-25T17:31:51.877Z,,,,,,,,,,,,,,,,,12,,,,,,,,,,,,,,500.4059999821475,,response,,,,5,B,,,,,,Space,keypress(Space),,,,lyrical,,,,---- ------ ------ ------- ------ --- ------- -----------<br>-- ----- --- ---- -- --- ------ ---- - ---- -- ----------<br>-- ------ ---- --- ---- --- --- --- ----- -- -------- ---<br>------ ------- -------- --- ---- -- ------- ------------ He<br>------ -- ---- -- --- ---- -- -------- -- --- ------ ------,333649.5,333648.7999999821,333131.577,333145.2999999821,333148.394,333666.961,,40,He
screen,html.Screen,2_3_1_0_1_41,2022-04-25T17:31:52.557Z,,,,,,,,,,,,,,,,,12,,,,,,,,,,,,,,662.1389999940293,,response,,,,5,B,,,,,,Space,keypress(Space),,,,lyrical,,,,---- ------ ------ ------- ------ --- ------- -----------<br>-- ----- --- ---- -- --- ------ ---- - ---- -- ----------<br>-- ------ ---- --- ---- --- --- --- ----- -- -------- ---<br>------ ------- -------- --- ---- -- ------- ------------ --<br>wanted -- ---- -- --- ---- -- -------- -- --- ------ ------,334329.40000000596,334329.09999999404,333633.341,333649.59999999404,333666.961,334335.946,,41,wanted
