sender,sender_type,sender_id,timestamp,meta,,Blues,Classical,Country,Dance,Electronic,Folk,Gospel,Hip-Hop,Jazz,Latin,Musical/Film,New-age,Pop,Prolific_id,Provo_ID,R&B,Rap,Reggae,Religious,Rock,Soul,Swing,Traditional,age,artist_name,correct,correctResponse,distraction,duration,education,ended_on,familiarity,gender,headphone_check_performance,item,list,music_frequency,offensiveness,pleasantness,position_correct,preference,response,response_action,snippet_file,song_name,song_rating,sound,stimulus_1,stimulus_2,stimulus_3,text,time_commit,time_end,time_render,time_run,time_show,time_switch,url,word,word_ID
Prolific ID,html.Form,0,2022-05-11T11:15:50.028Z,"{""labjs_version"":""20.2.2"",""labjs_build"":{""flavor"":""production"",""commit"":""a25486e0c714a0ae2ce03ff94b7bb6896854dcfa""},""location"":""https://run.pavlovia.org/mvasilev/prolific3_music_c/"",""userAgent"":""Mozilla/5.0 (Windows NT 10.0; Win64; x64) AppleWebKit/537.36 (KHTML, like Gecko) Chrome/100.0.4896.127 Safari/537.36"",""platform"":""Win32"",""language"":""en-US"",""locale"":""en-US"",""timeZone"":""Europe/London"",""timezoneOffset"":-60,""screen_width"":1368,""screen_height"":912,""scroll_width"":1368,""scroll_height"":753,""window_innerWidth"":1368,""window_innerHeight"":801,""devicePixelRatio"":2}",,,,,,,,,,,,,,,611afe6352a0169eaf07f978,,,,,,,,,,,,,,,5829.523000000001,,form submission,,,,,,,,,,,,,,,,,,,,,22591.5,22589.5,16731.937,16736.89999985695,16759.977,22621.311,{},,
Introduction,html.Screen,1_0,2022-05-11T11:16:08.649Z,,,,,,,,,,,,,,,,,,,,,,,,,,,,,,,18581.588999856947,,response,,,,,,,,,,,continue,click button,,,,,,,,,41212.799999952316,41202.89999985695,22577.942,22593.200000047684,22621.311,41241.025,,,
Volume calibration,html.Screen,1_1,2022-05-11T11:16:50.923Z,,,,,,,,,,,,,,,,,,,,,,,,,,,,,,,42236.975,,response,,,,,,,,,,,continue,click button,,,,,,,,,83486.29999995232,83478,41189.723,41213.39999985695,41241.025,83482.526,,,
Task instructions,html.Screen,1_2,2022-05-11T11:16:59.498Z,,,,,,,,,,,,,,,,,,,,,,,,,,,,,,,8577.073999904635,,response,,,,,,,,,,,continue,click button,,,,,,,,,92061.09999990463,92059.59999990463,83471.413,83486.59999990463,83482.526,92064.095,,,
Sounds,html.Screen,1_3_0_0,2022-05-11T11:17:03.739Z,,,,,,,,,,,,,,,,,,,,,,,,,,,,,,,4248.369000000006,,timeout,,,,,,,,,1,,,,,,,,S,I,O,,96301.39999985695,96296.074,92046.44,92061.39999985695,92064.095,96312.464,,,
Judgement,html.Screen,1_3_0_1,2022-05-11T11:17:06.917Z,,,,,,,,,,,,,,,,,,,,,,,,,,,,true,1,,3165.2360000476765,,response,,,,,,,,,1,,1,click #choice-1,,,,,S,I,O,,99479.79999995232,99477.70000004768,96296.074,96301.70000004768,96312.464,99494.167,,,
Trial,flow.Sequence,1_3_0,2022-05-11T11:17:06.918Z,,,,,,,,,,,,,,,,,,,,,,,,,,,,,,,7413.605000047683,,completion,,,,,,,,,1,,,,,,,,S,I,O,,99480.39999985695,99477.70000004768,92046.44,92061.39999985695,92064.095,99494.167,,,
Sounds,html.Screen,1_3_1_0,2022-05-11T11:17:11.158Z,,,,,,,,,,,,,,,,,,,,,,,,,,,,,,,4241.698000000004,,timeout,,,,,,,,,3,,,,,,,,I,O,S,,103720.79999995232,103719.435,99477.174,99481,99494.167,103735.865,,,
Judgement,html.Screen,1_3_1_1,2022-05-11T11:17:13.537Z,,,,,,,,,,,,,,,,,,,,,,,,,,,,true,3,,2361.5349998569436,,response,,,,,,,,,3,,3,click #choice-3,,,,,I,O,S,,106099.79999995232,106097.39999985695,103719.435,103720.89999985695,103735.865,106102.664,,,
Trial,flow.Sequence,1_3_1,2022-05-11T11:17:13.537Z,,,,,,,,,,,,,,,,,,,,,,,,,,,,,,,6603.232999856948,,completion,,,,,,,,,3,,,,,,,,I,O,S,,106100.29999995232,106097.39999985695,99477.174,99480.59999990463,99494.167,106102.664,,,
Sounds,html.Screen,1_3_2_0,2022-05-11T11:17:17.774Z,,,,,,,,,,,,,,,,,,,,,,,,,,,,,,,4250.206999999995,,timeout,,,,,,,,,3,,,,,,,,O,I,S,,110337.20000004768,110335.989,106086.111,106100.70000004768,106102.664,110352.871,,,
Judgement,html.Screen,1_3_2_1,2022-05-11T11:17:20.107Z,,,,,,,,,,,,,,,,,,,,,,,,,,,,true,3,,2314.8290000476845,,response,,,,,,,,,3,,3,click #choice-3,,,,,O,I,S,,112669.5,112667.70000004768,110335.989,110337.39999985695,110352.871,112672.395,,,
Trial,flow.Sequence,1_3_2,2022-05-11T11:17:20.107Z,,,,,,,,,,,,,,,,,,,,,,,,,,,,,,,6565.036000047679,,completion,,,,,,,,,3,,,,,,,,O,I,S,,112670,112667.70000004768,106086.111,106100.59999990463,106102.664,112672.395,,,
Sounds,html.Screen,1_3_3_0,2022-05-11T11:17:24.347Z,,,,,,,,,,,,,,,,,,,,,,,,,,,,,,,4253.184999999998,,timeout,,,,,,,,,2,,,,,,,,O,S,I,,116910,116908.664,112655.836,112670.29999995232,112672.395,116925.58,,,
Judgement,html.Screen,1_3_3_1,2022-05-11T11:17:25.917Z,,,,,,,,,,,,,,,,,,,,,,,,,,,,true,2,,1552.5199999046308,,response,,,,,,,,,2,,2,click #choice-2,,,,,O,S,I,,118479.89999985695,118478.09999990463,116908.664,116910.09999990463,116925.58,118482.574,,,
Trial,flow.Sequence,1_3_3,2022-05-11T11:17:25.917Z,,,,,,,,,,,,,,,,,,,,,,,,,,,,,,,5805.7049999046285,,completion,,,,,,,,,2,,,,,,,,O,S,I,,118480.20000004768,118478.09999990463,112655.836,112670.20000004768,112672.395,118482.574,,,
Sounds,html.Screen,1_3_4_0,2022-05-11T11:17:30.161Z,,,,,,,,,,,,,,,,,,,,,,,,,,,,,,,4257.02900000001,,timeout,,,,,,,,,1,,,,,,,,S,O,I,,122724,122722.979,118466.904,118480.39999985695,118482.574,122739.603,,,
Judgement,html.Screen,1_3_4_1,2022-05-11T11:17:31.527Z,,,,,,,,,,,,,,,,,,,,,,,,,,,,true,1,,1348.1969999523135,,response,,,,,,,,,1,,1,click #choice-1,,,,,S,O,I,,124089.39999985695,124087.79999995232,122722.979,122724.39999985695,122739.603,124092.122,,,
Trial,flow.Sequence,1_3_4,2022-05-11T11:17:31.527Z,,,,,,,,,,,,,,,,,,,,,,,,,,,,,,,5605.225999952323,,completion,,,,,,,,,1,,,,,,,,S,O,I,,124089.79999995232,124087.79999995232,118466.904,118480.29999995232,118482.574,124092.122,,,
Sounds,html.Screen,1_3_5_0,2022-05-11T11:17:35.764Z,,,,,,,,,,,,,,,,,,,,,,,,,,,,,,,4249.641999999993,,timeout,,,,,,,,,2,,,,,,,,I,S,O,,128326.79999995232,128325.584,124080.997,124090,124092.122,128341.764,,,
Judgement,html.Screen,1_3_5_1,2022-05-11T11:17:36.957Z,,,,,,,,,,,,,,,,,,,,,,,,,,,,true,2,,1175.6359998569533,,response,,,,,,,,,2,,2,click #choice-2,,,,,I,S,O,,129519.5,129517.39999985695,128325.584,128327,128341.764,129538.874,,,
Trial,flow.Sequence,1_3_5,2022-05-11T11:17:36.957Z,,,,,,,,,,,,,,,,,,,,,,,,,,,,,,,5425.277999856946,,completion,,,,,,,,,2,,,,,,,,I,S,O,,129519.89999985695,129517.39999985695,124080.997,124090,124092.122,129538.874,,,
Task,flow.Loop,1_3,2022-05-11T11:17:36.969Z,,,,,,,,,,,,,,,,,,,,,,,,,,,,,,,37453.30499985695,,completion,,,1,,,,,,,,,,,,,,,,,,129531.79999995232,129517.39999985695,92046.44,92061.29999995232,92064.095,129538.874,,,
Trap,html.Screen,1_4,2022-05-11T11:17:36.971Z,,,,,,,,,,,,,,,,,,,,,,,,,,,,,,,NaN,,skipped,,,,,,,,,,,,,,,,,,,,,129533.89999985695,129517.39999985695,,129533.70000004768,,129538.874,,,
Thanks,html.Screen,1_5,2022-05-11T11:17:41.177Z,,,,,,,,,,,,,,,,,,,,,,,,,,,,,,,4198.92599995232,,response,,,,,,,,,,,continue,click button,,,,,,,,,133739.89999985695,133737.79999995232,129515.959,129534.09999990463,129538.874,136970.121,,,
Headphone screening,flow.Sequence,1,2022-05-11T11:17:41.177Z,,,,,,,,,,,,,,,,,,,,,,,,,,,,,,,111116.48899995231,,completion,,,,,,,,,,,,,,,,,,,,,133740.29999995232,133737.79999995232,22577.942,22593.099999904633,22621.311,136970.121,,,
Instructions,html.Page,2_0,2022-05-11T11:17:58.567Z,,,,,,,,,,,,,,,,,,,,,,,,,,,,,,,14158.878999999986,,form submission,,,,,,,,,,,,,,,,,,,,,151129.39999985695,151129,136935.764,136973.89999985695,136970.121,151132.004,,,
Holding screen,html.Screen,2_1_0_0,2022-05-11T11:18:08.561Z,,,,,,,,,,,,,,,,,,,,,,,,,,,,,,,10040.455000000016,,timeout,,,,,,,,,,,,,,,,,,,,,161123.70000004768,161122.692,151114.79,151129.79999995232,151132.004,161172.459,,,
screen,html.Screen,2_1_0_1_0,2022-05-11T11:18:09.820Z,,,,,,,,,,,,,,,,,53,,,,,,,,,,,,,,1204.64099990463,,response,,,,99,,,,,,,Space,keypress(Space),,,,,,,,When -- ----- -- ------ - ------- --- ----------<br>------------- ------ ------ ---- ---- ------- ----- -- ----<br>-------- ------- -- ---------- --- - --- ----- ----- ----<br>---- --- --- ----- --- ---- ---- ------- ----- ---- -------<br>--- --- -- ----- -- --- ---- -- --- ---- -- ------ ------<br>--- ----- -- ----,162382.70000004768,162377.09999990463,161122.692,161124.09999990463,161172.459,162389.397,,0,When
screen,html.Screen,2_1_0_1_1,2022-05-11T11:18:10.424Z,,,,,,,,,,,,,,,,,53,,,,,,,,,,,,,,596.3030000476865,,response,,,,99,,,,,,,Space,keypress(Space),,,,,,,,---- it ----- -- ------ - ------- --- ----------<br>------------- ------ ------ ---- ---- ------- ----- -- ----<br>-------- ------- -- ---------- --- - --- ----- ----- ----<br>---- --- --- ----- --- ---- ---- ------- ----- ---- -------<br>--- --- -- ----- -- --- ---- -- --- ---- -- ------ ------<br>--- ----- -- ----,162986.89999985695,162985.70000004768,162373.542,162382.89999985695,162389.397,162993.63,,1,it
screen,html.Screen,2_1_0_1_2,2022-05-11T11:18:11.054Z,,,,,,,,,,,,,,,,,53,,,,,,,,,,,,,,622.3699999999953,,response,,,,99,,,,,,,Space,keypress(Space),,,,,,,,---- -- comes -- ------ - ------- --- ----------<br>------------- ------ ------ ---- ---- ------- ----- -- ----<br>-------- ------- -- ---------- --- - --- ----- ----- ----<br>---- --- --- ----- --- ---- ---- ------- ----- ---- -------<br>--- --- -- ----- -- --- ---- -- --- ---- -- ------ ------<br>--- ----- -- ----,163617.20000004768,163616,162973.391,162987.20000004768,162993.63,163624.028,,2,comes
screen,html.Screen,2_1_0_1_3,2022-05-11T11:18:11.545Z,,,,,,,,,,,,,,,,,53,,,,,,,,,,,,,,482.3719998569577,,response,,,,99,,,,,,,Space,keypress(Space),,,,,,,,---- -- ----- to ------ - ------- --- ----------<br>------------- ------ ------ ---- ---- ------- ----- -- ----<br>-------- ------- -- ---------- --- - --- ----- ----- ----<br>---- --- --- ----- --- ---- ---- ------- ----- ---- -------<br>--- --- -- ----- -- --- ---- -- --- ---- -- ------ ------<br>--- ----- -- ----,164107.5,164106.39999985695,163610.83,163617.5,163624.028,164114.405,,3,to
screen,html.Screen,2_1_0_1_4,2022-05-11T11:18:12.014Z,,,,,,,,,,,,,,,,,53,,,,,,,,,,,,,,461.7950000476849,,response,,,,99,,,,,,,Space,keypress(Space),,,,,,,,---- -- ----- -- having - ------- --- ----------<br>------------- ------ ------ ---- ---- ------- ----- -- ----<br>-------- ------- -- ---------- --- - --- ----- ----- ----<br>---- --- --- ----- --- ---- ---- ------- ----- ---- -------<br>--- --- -- ----- -- --- ---- -- --- ---- -- ------ ------<br>--- ----- -- ----,164577.09999990463,164576.20000004768,164107.976,164107.79999995232,164114.405,164583.862,,4,having
screen,html.Screen,2_1_0_1_5,2022-05-11T11:18:12.454Z,,,,,,,,,,,,,,,,,53,,,,,,,,,,,,,,432.1380000000063,,response,,,,99,,,,,,,Space,keypress(Space),,,,,,,,---- -- ----- -- ------ a ------- --- ----------<br>------------- ------ ------ ---- ---- ------- ----- -- ----<br>-------- ------- -- ---------- --- - --- ----- ----- ----<br>---- --- --- ----- --- ---- ---- ------- ----- ---- -------<br>--- --- -- ----- -- --- ---- -- --- ---- -- ------ ------<br>--- ----- -- ----,165017.20000004768,165016,164564.971,164577.39999985695,164583.862,165023.835,,5,a
screen,html.Screen,2_1_0_1_6,2022-05-11T11:18:12.905Z,,,,,,,,,,,,,,,,,53,,,,,,,,,,,,,,442.2649999046407,,response,,,,99,,,,,,,Space,keypress(Space),,,,,,,,---- -- ----- -- ------ - lasting --- ----------<br>------------- ------ ------ ---- ---- ------- ----- -- ----<br>-------- ------- -- ---------- --- - --- ----- ----- ----<br>---- --- --- ----- --- ---- ---- ------- ----- ---- -------<br>--- --- -- ----- -- --- ---- -- --- ---- -- ------ ------<br>--- ----- -- ----,165467.5,165466.09999990463,165017.77,165017.39999985695,165023.835,165474.289,,6,lasting
screen,html.Screen,2_1_0_1_7,2022-05-11T11:18:13.304Z,,,,,,,,,,,,,,,,,53,,,,,,,,,,,,,,391.71100000001024,,response,,,,99,,,,,,,Space,keypress(Space),,,,,,,,---- -- ----- -- ------ - ------- and ----------<br>------------- ------ ------ ---- ---- ------- ----- -- ----<br>-------- ------- -- ---------- --- - --- ----- ----- ----<br>---- --- --- ----- --- ---- ---- ------- ----- ---- -------<br>--- --- -- ----- -- --- ---- -- --- ---- -- ------ ------<br>--- ----- -- ----,165867.20000004768,165866,165457.659,165467.70000004768,165474.289,165873.912,,7,and
screen,html.Screen,2_1_0_1_8,2022-05-11T11:18:13.764Z,,,,,,,,,,,,,,,,,53,,,,,,,,,,,,,,451.6879999046214,,response,,,,99,,,,,,,Space,keypress(Space),,,,,,,,---- -- ----- -- ------ - ------- --- fulfilling<br>------------- ------ ------ ---- ---- ------- ----- -- ----<br>-------- ------- -- ---------- --- - --- ----- ----- ----<br>---- --- --- ----- --- ---- ---- ------- ----- ---- -------<br>--- --- -- ----- -- --- ---- -- --- ---- -- ------ ------<br>--- ----- -- ----,166326.79999995232,166325.59999990463,165858.108,165867.39999985695,165873.912,166333.477,,8,fulfilling
screen,html.Screen,2_1_0_1_9,2022-05-11T11:18:14.343Z,,,,,,,,,,,,,,,,,53,,,,,,,,,,,,,,571.5229999999865,,response,,,,99,,,,,,,Space,keypress(Space),,,,,,,,"---- -- ----- -- ------ - ------- --- ----------<br>relationship, ------ ------ ---- ---- ------- ----- -- ----<br>-------- ------- -- ---------- --- - --- ----- ----- ----<br>---- --- --- ----- --- ---- ---- ------- ----- ---- -------<br>--- --- -- ----- -- --- ---- -- --- ---- -- ------ ------<br>--- ----- -- ----",166906.29999995232,166905,166324.534,166327,166333.477,166912.565,,9,"relationship,"
screen,html.Screen,2_1_0_1_10,2022-05-11T11:18:14.944Z,,,,,,,,,,,,,,,,,53,,,,,,,,,,,,,,593.4349999999977,,response,,,,99,,,,,,,Space,keypress(Space),,,,,,,,---- -- ----- -- ------ - ------- --- ----------<br>------------- common ------ ---- ---- ------- ----- -- ----<br>-------- ------- -- ---------- --- - --- ----- ----- ----<br>---- --- --- ----- --- ---- ---- ------- ----- ---- -------<br>--- --- -- ----- -- --- ---- -- --- ---- -- ------ ------<br>--- ----- -- ----,167507.09999990463,167506,166900.816,166906.29999995232,166912.565,167513.695,,10,common
screen,html.Screen,2_1_0_1_11,2022-05-11T11:18:15.504Z,,,,,,,,,,,,,,,,,53,,,,,,,,,,,,,,552.304999999993,,response,,,,99,,,,,,,Space,keypress(Space),,,,,,,,---- -- ----- -- ------ - ------- --- ----------<br>------------- ------ wisdom ---- ---- ------- ----- -- ----<br>-------- ------- -- ---------- --- - --- ----- ----- ----<br>---- --- --- ----- --- ---- ---- ------- ----- ---- -------<br>--- --- -- ----- -- --- ---- -- --- ---- -- ------ ------<br>--- ----- -- ----,168066.89999985695,168066,167496.577,167507.39999985695,167513.695,168073.628,,11,wisdom
screen,html.Screen,2_1_0_1_12,2022-05-11T11:18:16.054Z,,,,,,,,,,,,,,,,,53,,,,,,,,,,,,,,542.4719999046356,,response,,,,99,,,,,,,Space,keypress(Space),,,,,,,,---- -- ----- -- ------ - ------- --- ----------<br>------------- ------ ------ says ---- ------- ----- -- ----<br>-------- ------- -- ---------- --- - --- ----- ----- ----<br>---- --- --- ----- --- ---- ---- ------- ----- ---- -------<br>--- --- -- ----- -- --- ---- -- --- ---- -- ------ ------<br>--- ----- -- ----,168617.29999995232,168616.09999990463,168064.376,168067.09999990463,168073.628,168623.875,,12,says
screen,html.Screen,2_1_0_1_13,2022-05-11T11:18:16.504Z,,,,,,,,,,,,,,,,,53,,,,,,,,,,,,,,442.02499985694885,,response,,,,99,,,,,,,Space,keypress(Space),,,,,,,,---- -- ----- -- ------ - ------- --- ----------<br>------------- ------ ------ ---- that ------- ----- -- ----<br>-------- ------- -- ---------- --- - --- ----- ----- ----<br>---- --- --- ----- --- ---- ---- ------- ----- ---- -------<br>--- --- -- ----- -- --- ---- -- --- ---- -- ------ ------<br>--- ----- -- ----,169067.09999990463,169065.89999985695,168607.512,168617.5,168623.875,169073.732,,13,that
screen,html.Screen,2_1_0_1_14,2022-05-11T11:18:16.914Z,,,,,,,,,,,,,,,,,53,,,,,,,,,,,,,,401.76800000001094,,response,,,,99,,,,,,,Space,keypress(Space),,,,,,,,---- -- ----- -- ------ - ------- --- ----------<br>------------- ------ ------ ---- ---- feeling ----- -- ----<br>-------- ------- -- ---------- --- - --- ----- ----- ----<br>---- --- --- ----- --- ---- ---- ------- ----- ---- -------<br>--- --- -- ----- -- --- ---- -- --- ---- -- ------ ------<br>--- ----- -- ----,169476.39999985695,169475.5,169057.574,169067.20000004768,169073.732,169484.353,,14,feeling
screen,html.Screen,2_1_0_1_15,2022-05-11T11:18:17.384Z,,,,,,,,,,,,,,,,,53,,,,,,,,,,,,,,461.7469999046298,,response,,,,99,,,,,,,Space,keypress(Space),,,,,,,,---- -- ----- -- ------ - ------- --- ----------<br>------------- ------ ------ ---- ---- ------- close -- ----<br>-------- ------- -- ---------- --- - --- ----- ----- ----<br>---- --- --- ----- --- ---- ---- ------- ----- ---- -------<br>--- --- -- ----- -- --- ---- -- --- ---- -- ------ ------<br>--- ----- -- ----,169947.20000004768,169946.09999990463,169474.239,169476.59999990463,169484.353,169953.956,,15,close
screen,html.Screen,2_1_0_1_16,2022-05-11T11:18:17.824Z,,,,,,,,,,,,,,,,,53,,,,,,,,,,,,,,431.94399985694326,,response,,,,99,,,,,,,Space,keypress(Space),,,,,,,,---- -- ----- -- ------ - ------- --- ----------<br>------------- ------ ------ ---- ---- ------- ----- to ----<br>-------- ------- -- ---------- --- - --- ----- ----- ----<br>---- --- --- ----- --- ---- ---- ------- ----- ---- -------<br>--- --- -- ----- -- --- ---- -- --- ---- -- ------ ------<br>--- ----- -- ----,170387.09999990463,170385.89999985695,169934.688,169947.5,169953.956,170393.871,,16,to
screen,html.Screen,2_1_0_1_17,2022-05-11T11:18:18.294Z,,,,,,,,,,,,,,,,,53,,,,,,,,,,,,,,462.0289998569351,,response,,,,99,,,,,,,Space,keypress(Space),,,,,,,,---- -- ----- -- ------ - ------- --- ----------<br>------------- ------ ------ ---- ---- ------- ----- -- your<br>-------- ------- -- ---------- --- - --- ----- ----- ----<br>---- --- --- ----- --- ---- ---- ------- ----- ---- -------<br>--- --- -- ----- -- --- ---- -- --- ---- -- ------ ------<br>--- ----- -- ----,170856.79999995232,170855.89999985695,170387.656,170387.39999985695,170393.871,170863.525,,17,your
screen,html.Screen,2_1_0_1_18,2022-05-11T11:18:18.764Z,,,,,,,,,,,,,,,,,53,,,,,,,,,,,,,,461.9750000000058,,response,,,,99,,,,,,,Space,keypress(Space),,,,,,,,---- -- ----- -- ------ - ------- --- ----------<br>------------- ------ ------ ---- ---- ------- ----- -- ----<br>romantic ------- -- ---------- --- - --- ----- ----- ----<br>---- --- --- ----- --- ---- ---- ------- ----- ---- -------<br>--- --- -- ----- -- --- ---- -- --- ---- -- ------ ------<br>--- ----- -- ----,171326.70000004768,171325.5,170844.373,170857,170863.525,171333.541,,18,romantic
screen,html.Screen,2_1_0_1_19,2022-05-11T11:18:19.224Z,,,,,,,,,,,,,,,,,53,,,,,,,,,,,,,,451.95900000000256,,response,,,,99,,,,,,,Space,keypress(Space),,,,,,,,---- -- ----- -- ------ - ------- --- ----------<br>------------- ------ ------ ---- ---- ------- ----- -- ----<br>-------- partner -- ---------- --- - --- ----- ----- ----<br>---- --- --- ----- --- ---- ---- ------- ----- ---- -------<br>--- --- -- ----- -- --- ---- -- --- ---- -- ------ ------<br>--- ----- -- ----,171786.5,171785.5,171314.089,171327.09999990463,171333.541,171793.255,,19,partner
screen,html.Screen,2_1_0_1_20,2022-05-11T11:18:19.635Z,,,,,,,,,,,,,,,,,53,,,,,,,,,,,,,,402.8449999046279,,response,,,,99,,,,,,,Space,keypress(Space),,,,,,,,---- -- ----- -- ------ - ------- --- ----------<br>------------- ------ ------ ---- ---- ------- ----- -- ----<br>-------- ------- is ---------- --- - --- ----- ----- ----<br>---- --- --- ----- --- ---- ---- ------- ----- ---- -------<br>--- --- -- ----- -- --- ---- -- --- ---- -- ------ ------<br>--- ----- -- ----,172197.39999985695,172196.09999990463,171783.873,171786.79999995232,171793.255,172204.189,,20,is
screen,html.Screen,2_1_0_1_21,2022-05-11T11:18:20.065Z,,,,,,,,,,,,,,,,,53,,,,,,,,,,,,,,422.41099990461953,,response,,,,99,,,,,,,Space,keypress(Space),,,,,,,,---- -- ----- -- ------ - ------- --- ----------<br>------------- ------ ------ ---- ---- ------- ----- -- ----<br>-------- ------- -- paramount. --- - --- ----- ----- ----<br>---- --- --- ----- --- ---- ---- ------- ----- ---- -------<br>--- --- -- ----- -- --- ---- -- --- ---- -- ------ ------<br>--- ----- -- ----,172627.39999985695,172626.59999990463,172193.534,172197.70000004768,172204.189,172633.985,,21,paramount.
screen,html.Screen,2_1_0_1_22,2022-05-11T11:18:20.695Z,,,,,,,,,,,,,,,,,53,,,,,,,,,,,,,,622.4149998569628,,response,,,,99,,,,,,,Space,keypress(Space),,,,,,,,---- -- ----- -- ------ - ------- --- ----------<br>------------- ------ ------ ---- ---- ------- ----- -- ----<br>-------- ------- -- ---------- But - --- ----- ----- ----<br>---- --- --- ----- --- ---- ---- ------- ----- ---- -------<br>--- --- -- ----- -- --- ---- -- --- ---- -- ------ ------<br>--- ----- -- ----,173257.59999990463,173256.39999985695,172621.341,172627.59999990463,172633.985,173264.314,,22,But
screen,html.Screen,2_1_0_1_23,2022-05-11T11:18:21.104Z,,,,,,,,,,,,,,,,,53,,,,,,,,,,,,,,401.48599995230325,,response,,,,99,,,,,,,Space,keypress(Space),,,,,,,,---- -- ----- -- ------ - ------- --- ----------<br>------------- ------ ------ ---- ---- ------- ----- -- ----<br>-------- ------- -- ---------- --- a --- ----- ----- ----<br>---- --- --- ----- --- ---- ---- ------- ----- ---- -------<br>--- --- -- ----- -- --- ---- -- --- ---- -- ------ ------<br>--- ----- -- ----,173666.79999995232,173665.79999995232,173251.373,173257.89999985695,173264.314,173673.605,,23,a
screen,html.Screen,2_1_0_1_24,2022-05-11T11:18:21.454Z,,,,,,,,,,,,,,,,,53,,,,,,,,,,,,,,341.8949999999895,,response,,,,99,,,,,,,Space,keypress(Space),,,,,,,,---- -- ----- -- ------ - ------- --- ----------<br>------------- ------ ------ ---- ---- ------- ----- -- ----<br>-------- ------- -- ---------- --- - new ----- ----- ----<br>---- --- --- ----- --- ---- ---- ------- ----- ---- -------<br>--- --- -- ----- -- --- ---- -- --- ---- -- ------ ------<br>--- ----- -- ----,174016.59999990463,174015.5,173664.784,173667.09999990463,173673.605,174023.195,,24,new
screen,html.Screen,2_1_0_1_25,2022-05-11T11:18:21.844Z,,,,,,,,,,,,,,,,,53,,,,,,,,,,,,,,382.70499985694187,,response,,,,99,,,,,,,Space,keypress(Space),,,,,,,,---- -- ----- -- ------ - ------- --- ----------<br>------------- ------ ------ ---- ---- ------- ----- -- ----<br>-------- ------- -- ---------- --- - --- study ----- ----<br>---- --- --- ----- --- ---- ---- ------- ----- ---- -------<br>--- --- -- ----- -- --- ---- -- --- ---- -- ------ ------<br>--- ----- -- ----,174406.89999985695,174405.89999985695,174007.35,174016.70000004768,174023.195,174413.563,,25,study
screen,html.Screen,2_1_0_1_26,2022-05-11T11:18:22.224Z,,,,,,,,,,,,,,,,,53,,,,,,,,,,,,,,371.63700004768907,,response,,,,99,,,,,,,Space,keypress(Space),,,,,,,,---- -- ----- -- ------ - ------- --- ----------<br>------------- ------ ------ ---- ---- ------- ----- -- ----<br>-------- ------- -- ---------- --- - --- ----- finds ----<br>---- --- --- ----- --- ---- ---- ------- ----- ---- -------<br>--- --- -- ----- -- --- ---- -- --- ---- -- ------ ------<br>--- ----- -- ----,174786.5,174785.20000004768,174407.077,174407.09999990463,174413.563,174793.184,,26,finds
screen,html.Screen,2_1_0_1_27,2022-05-11T11:18:22.684Z,,,,,,,,,,,,,,,,,53,,,,,,,,,,,,,,452.4159999046242,,response,,,,99,,,,,,,Space,keypress(Space),,,,,,,,---- -- ----- -- ------ - ------- --- ----------<br>------------- ------ ------ ---- ---- ------- ----- -- ----<br>-------- ------- -- ---------- --- - --- ----- ----- that<br>---- --- --- ----- --- ---- ---- ------- ----- ---- -------<br>--- --- -- ----- -- --- ---- -- --- ---- -- ------ ------<br>--- ----- -- ----,175246.5,175245.59999990463,174780.769,174786.70000004768,174793.184,175253.275,,27,that
screen,html.Screen,2_1_0_1_28,2022-05-11T11:18:23.144Z,,,,,,,,,,,,,,,,,53,,,,,,,,,,,,,,452.42500004768954,,response,,,,99,,,,,,,Space,keypress(Space),,,,,,,,---- -- ----- -- ------ - ------- --- ----------<br>------------- ------ ------ ---- ---- ------- ----- -- ----<br>-------- ------- -- ---------- --- - --- ----- ----- ----<br>it's --- --- ----- --- ---- ---- ------- ----- ---- -------<br>--- --- -- ----- -- --- ---- -- --- ---- -- ------ ------<br>--- ----- -- ----,175706.89999985695,175705.70000004768,175243.681,175246.79999995232,175253.275,175713.695,,28,it's
screen,html.Screen,2_1_0_1_29,2022-05-11T11:18:23.534Z,,,,,,,,,,,,,,,,,53,,,,,,,,,,,,,,382.20499985694187,,response,,,,99,,,,,,,Space,keypress(Space),,,,,,,,---- -- ----- -- ------ - ------- --- ----------<br>------------- ------ ------ ---- ---- ------- ----- -- ----<br>-------- ------- -- ---------- --- - --- ----- ----- ----<br>---- not --- ----- --- ---- ---- ------- ----- ---- -------<br>--- --- -- ----- -- --- ---- -- --- ---- -- ------ ------<br>--- ----- -- ----,176096.89999985695,176095.89999985695,175703.839,175707.09999990463,175713.695,176103.625,,29,not
screen,html.Screen,2_1_0_1_30,2022-05-11T11:18:23.954Z,,,,,,,,,,,,,,,,,53,,,,,,,,,,,,,,412.47499990463257,,response,,,,99,,,,,,,Space,keypress(Space),,,,,,,,---- -- ----- -- ------ - ------- --- ----------<br>------------- ------ ------ ---- ---- ------- ----- -- ----<br>-------- ------- -- ---------- --- - --- ----- ----- ----<br>---- --- how ----- --- ---- ---- ------- ----- ---- -------<br>--- --- -- ----- -- --- ---- -- --- ---- -- ------ ------<br>--- ----- -- ----,176517.29999995232,176516.09999990463,176097.4,176097.09999990463,176103.625,176524.127,,30,how
screen,html.Screen,2_1_0_1_31,2022-05-11T11:18:24.344Z,,,,,,,,,,,,,,,,,53,,,,,,,,,,,,,,381.4729999046249,,response,,,,99,,,,,,,Space,keypress(Space),,,,,,,,---- -- ----- -- ------ - ------- --- ----------<br>------------- ------ ------ ---- ---- ------- ----- -- ----<br>-------- ------- -- ---------- --- - --- ----- ----- ----<br>---- --- --- close --- ---- ---- ------- ----- ---- -------<br>--- --- -- ----- -- --- ---- -- --- ---- -- ------ ------<br>--- ----- -- ----,176906.59999990463,176905.59999990463,176504.168,176517.5,176524.127,176930.377,,31,close
screen,html.Screen,2_1_0_1_32,2022-05-11T11:18:24.745Z,,,,,,,,,,,,,,,,,53,,,,,,,,,,,,,,375.2229999046249,,response,,,,99,,,,,,,Space,keypress(Space),,,,,,,,---- -- ----- -- ------ - ------- --- ----------<br>------------- ------ ------ ---- ---- ------- ----- -- ----<br>-------- ------- -- ---------- --- - --- ----- ----- ----<br>---- --- --- ----- you ---- ---- ------- ----- ---- -------<br>--- --- -- ----- -- --- ---- -- --- ---- -- ------ ------<br>--- ----- -- ----,177307.79999995232,177305.59999990463,176913.698,176906.79999995232,176930.377,177314.625,,32,you
screen,html.Screen,2_1_0_1_33,2022-05-11T11:18:25.144Z,,,,,,,,,,,,,,,,,53,,,,,,,,,,,,,,391.27499985694885,,response,,,,99,,,,,,,Space,keypress(Space),,,,,,,,---- -- ----- -- ------ - ------- --- ----------<br>------------- ------ ------ ---- ---- ------- ----- -- ----<br>-------- ------- -- ---------- --- - --- ----- ----- ----<br>---- --- --- ----- --- feel ---- ------- ----- ---- -------<br>--- --- -- ----- -- --- ---- -- --- ---- -- ------ ------<br>--- ----- -- ----,177707.20000004768,177705.89999985695,177297.242,177308.20000004768,177314.625,177713.851,,33,feel
screen,html.Screen,2_1_0_1_34,2022-05-11T11:18:25.553Z,,,,,,,,,,,,,,,,,53,,,,,,,,,,,,,,401.24899990463746,,response,,,,99,,,,,,,Space,keypress(Space),,,,,,,,---- -- ----- -- ------ - ------- --- ----------<br>------------- ------ ------ ---- ---- ------- ----- -- ----<br>-------- ------- -- ---------- --- - --- ----- ----- ----<br>---- --- --- ----- --- ---- that ------- ----- ---- -------<br>--- --- -- ----- -- --- ---- -- --- ---- -- ------ ------<br>--- ----- -- ----,178116.09999990463,178115.09999990463,177698.527,177707.39999985695,177713.851,178122.642,,34,that
screen,html.Screen,2_1_0_1_35,2022-05-11T11:18:26.044Z,,,,,,,,,,,,,,,,,53,,,,,,,,,,,,,,483.55800004769117,,response,,,,99,,,,,,,Space,keypress(Space),,,,,,,,---- -- ----- -- ------ - ------- --- ----------<br>------------- ------ ------ ---- ---- ------- ----- -- ----<br>-------- ------- -- ---------- --- - --- ----- ----- ----<br>---- --- --- ----- --- ---- ---- matters ----- ---- -------<br>--- --- -- ----- -- --- ---- -- --- ---- -- ------ ------<br>--- ----- -- ----,178607.09999990463,178606.20000004768,178114.349,178116.20000004768,178122.642,178613.86,,35,matters
screen,html.Screen,2_1_0_1_36,2022-05-11T11:18:26.533Z,,,,,,,,,,,,,,,,,53,,,,,,,,,,,,,,481.43999995233025,,response,,,,99,,,,,,,Space,keypress(Space),,,,,,,,"---- -- ----- -- ------ - ------- --- ----------<br>------------- ------ ------ ---- ---- ------- ----- -- ----<br>-------- ------- -- ---------- --- - --- ----- ----- ----<br>---- --- --- ----- --- ---- ---- ------- most, ---- -------<br>--- --- -- ----- -- --- ---- -- --- ---- -- ------ ------<br>--- ----- -- ----",179096.09999990463,179095.29999995232,178606.64,178607.39999985695,178613.86,179102.888,,36,"most,"
screen,html.Screen,2_1_0_1_37,2022-05-11T11:18:27.034Z,,,,,,,,,,,,,,,,,53,,,,,,,,,,,,,,493.1119999999937,,response,,,,99,,,,,,,Space,keypress(Space),,,,,,,,---- -- ----- -- ------ - ------- --- ----------<br>------------- ------ ------ ---- ---- ------- ----- -- ----<br>-------- ------- -- ---------- --- - --- ----- ----- ----<br>---- --- --- ----- --- ---- ---- ------- ----- it's -------<br>--- --- -- ----- -- --- ---- -- --- ---- -- ------ ------<br>--- ----- -- ----,179597.20000004768,179596,179081.082,179096.29999995232,179102.888,179603.905,,37,it's
screen,html.Screen,2_1_0_1_38,2022-05-11T11:18:27.444Z,,,,,,,,,,,,,,,,,53,,,,,,,,,,,,,,401.69499990463373,,response,,,,99,,,,,,,Space,keypress(Space),,,,,,,,---- -- ----- -- ------ - ------- --- ----------<br>------------- ------ ------ ---- ---- ------- ----- -- ----<br>-------- ------- -- ---------- --- - --- ----- ----- ----<br>---- --- --- ----- --- ---- ---- ------- ----- ---- whether<br>--- --- -- ----- -- --- ---- -- --- ---- -- ------ ------<br>--- ----- -- ----,180006.79999995232,180005.59999990463,179586.581,179597.39999985695,179603.905,180013.56,,38,whether
screen,html.Screen,2_1_0_1_39,2022-05-11T11:18:27.924Z,,,,,,,,,,,,,,,,,53,,,,,,,,,,,,,,472.3399998569512,,response,,,,99,,,,,,,Space,keypress(Space),,,,,,,,---- -- ----- -- ------ - ------- --- ----------<br>------------- ------ ------ ---- ---- ------- ----- -- ----<br>-------- ------- -- ---------- --- - --- ----- ----- ----<br>---- --- --- ----- --- ---- ---- ------- ----- ---- -------<br>you --- -- ----- -- --- ---- -- --- ---- -- ------ ------<br>--- ----- -- ----,180486.89999985695,180485.89999985695,180004.506,180007,180013.56,180493.469,,39,you
screen,html.Screen,2_1_0_1_40,2022-05-11T11:18:28.354Z,,,,,,,,,,,,,,,,,53,,,,,,,,,,,,,,422.430999856937,,response,,,,99,,,,,,,Space,keypress(Space),,,,,,,,---- -- ----- -- ------ - ------- --- ----------<br>------------- ------ ------ ---- ---- ------- ----- -- ----<br>-------- ------- -- ---------- --- - --- ----- ----- ----<br>---- --- --- ----- --- ---- ---- ------- ----- ---- -------<br>--- are -- ----- -- --- ---- -- --- ---- -- ------ ------<br>--- ----- -- ----,180916.89999985695,180915.89999985695,180480.764,180487.09999990463,180493.469,180923.469,,40,are
screen,html.Screen,2_1_0_1_41,2022-05-11T11:18:28.794Z,,,,,,,,,,,,,,,,,53,,,,,,,,,,,,,,432.5309999999881,,response,,,,99,,,,,,,Space,keypress(Space),,,,,,,,---- -- ----- -- ------ - ------- --- ----------<br>------------- ------ ------ ---- ---- ------- ----- -- ----<br>-------- ------- -- ---------- --- - --- ----- ----- ----<br>---- --- --- ----- --- ---- ---- ------- ----- ---- -------<br>--- --- as ----- -- --- ---- -- --- ---- -- ------ ------<br>--- ----- -- ----,181357,181356,180910.68,180917,180923.469,181363.739,,41,as
screen,html.Screen,2_1_0_1_42,2022-05-11T11:18:29.255Z,,,,,,,,,,,,,,,,,53,,,,,,,,,,,,,,452.4610000476823,,response,,,,99,,,,,,,Space,keypress(Space),,,,,,,,---- -- ----- -- ------ - ------- --- ----------<br>------------- ------ ------ ---- ---- ------- ----- -- ----<br>-------- ------- -- ---------- --- - --- ----- ----- ----<br>---- --- --- ----- --- ---- ---- ------- ----- ---- -------<br>--- --- -- close -- --- ---- -- --- ---- -- ------ ------<br>--- ----- -- ----,181817.59999990463,181816.20000004768,181357.335,181357.20000004768,181363.739,181824.222,,42,close
screen,html.Screen,2_1_0_1_43,2022-05-11T11:18:29.674Z,,,,,,,,,,,,,,,,,53,,,,,,,,,,,,,,411.47800004767487,,response,,,,99,,,,,,,Space,keypress(Space),,,,,,,,---- -- ----- -- ------ - ------- --- ----------<br>------------- ------ ------ ---- ---- ------- ----- -- ----<br>-------- ------- -- ---------- --- - --- ----- ----- ----<br>---- --- --- ----- --- ---- ---- ------- ----- ---- -------<br>--- --- -- ----- as --- ---- -- --- ---- -- ------ ------<br>--- ----- -- ----,182236.5,182235.70000004768,181814.368,181817.79999995232,181824.222,182243.161,,43,as
screen,html.Screen,2_1_0_1_44,2022-05-11T11:18:30.085Z,,,,,,,,,,,,,,,,,53,,,,,,,,,,,,,,403.23899985695607,,response,,,,99,,,,,,,Space,keypress(Space),,,,,,,,---- -- ----- -- ------ - ------- --- ----------<br>------------- ------ ------ ---- ---- ------- ----- -- ----<br>-------- ------- -- ---------- --- - --- ----- ----- ----<br>---- --- --- ----- --- ---- ---- ------- ----- ---- -------<br>--- --- -- ----- -- you ---- -- --- ---- -- ------ ------<br>--- ----- -- ----,182647.5,182646.39999985695,182224.674,182236.79999995232,182243.161,182654.161,,44,you
screen,html.Screen,2_1_0_1_45,2022-05-11T11:18:30.495Z,,,,,,,,,,,,,,,,,53,,,,,,,,,,,,,,402.03900004769093,,response,,,,99,,,,,,,Space,keypress(Space),,,,,,,,---- -- ----- -- ------ - ------- --- ----------<br>------------- ------ ------ ---- ---- ------- ----- -- ----<br>-------- ------- -- ---------- --- - --- ----- ----- ----<br>---- --- --- ----- --- ---- ---- ------- ----- ---- -------<br>--- --- -- ----- -- --- want -- --- ---- -- ------ ------<br>--- ----- -- ----,183057.39999985695,183056.20000004768,182643.65,182647.70000004768,182654.161,183064.057,,45,want
screen,html.Screen,2_1_0_1_46,2022-05-11T11:18:30.954Z,,,,,,,,,,,,,,,,,53,,,,,,,,,,,,,,451.84299985694815,,response,,,,99,,,,,,,Space,keypress(Space),,,,,,,,---- -- ----- -- ------ - ------- --- ----------<br>------------- ------ ------ ---- ---- ------- ----- -- ----<br>-------- ------- -- ---------- --- - --- ----- ----- ----<br>---- --- --- ----- --- ---- ---- ------- ----- ---- -------<br>--- --- -- ----- -- --- ---- to --- ---- -- ------ ------<br>--- ----- -- ----,183516.89999985695,183515.89999985695,183054.467,183057.59999990463,183064.057,183523.552,,46,to
screen,html.Screen,2_1_0_1_47,2022-05-11T11:18:31.384Z,,,,,,,,,,,,,,,,,53,,,,,,,,,,,,,,422.5479999046365,,response,,,,99,,,,,,,Space,keypress(Space),,,,,,,,"---- -- ----- -- ------ - ------- --- ----------<br>------------- ------ ------ ---- ---- ------- ----- -- ----<br>-------- ------- -- ---------- --- - --- ----- ----- ----<br>---- --- --- ----- --- ---- ---- ------- ----- ---- -------<br>--- --- -- ----- -- --- ---- -- be, ---- -- ------ ------<br>--- ----- -- ----",183947.20000004768,183946.09999990463,183514.593,183517,183523.552,183954.017,,47,"be,"
screen,html.Screen,2_1_0_1_48,2022-05-11T11:18:31.824Z,,,,,,,,,,,,,,,,,53,,,,,,,,,,,,,,431.78299995232373,,response,,,,99,,,,,,,Space,keypress(Space),,,,,,,,---- -- ----- -- ------ - ------- --- ----------<br>------------- ------ ------ ---- ---- ------- ----- -- ----<br>-------- ------- -- ---------- --- - --- ----- ----- ----<br>---- --- --- ----- --- ---- ---- ------- ----- ---- -------<br>--- --- -- ----- -- --- ---- -- --- even -- ------ ------<br>--- ----- -- ----,184386.70000004768,184385.79999995232,183940.781,183947.5,183954.017,184410.324,,48,even
screen,html.Screen,2_1_0_1_49,2022-05-11T11:18:32.194Z,,,,,,,,,,,,,,,,,53,,,,,,,,,,,,,,345.47599995232304,,response,,,,99,,,,,,,Space,keypress(Space),,,,,,,,---- -- ----- -- ------ - ------- --- ----------<br>------------- ------ ------ ---- ---- ------- ----- -- ----<br>-------- ------- -- ---------- --- - --- ----- ----- ----<br>---- --- --- ----- --- ---- ---- ------- ----- ---- -------<br>--- --- -- ----- -- --- ---- -- --- ---- if ------ ------<br>--- ----- -- ----,184756.79999995232,184755.79999995232,184393.586,184386.89999985695,184410.324,184763.453,,49,if
screen,html.Screen,2_1_0_1_50,2022-05-11T11:18:32.574Z,,,,,,,,,,,,,,,,,53,,,,,,,,,,,,,,372.2470000476751,,response,,,,99,,,,,,,Space,keypress(Space),,,,,,,,---- -- ----- -- ------ - ------- --- ----------<br>------------- ------ ------ ---- ---- ------- ----- -- ----<br>-------- ------- -- ---------- --- - --- ----- ----- ----<br>---- --- --- ----- --- ---- ---- ------- ----- ---- -------<br>--- --- -- ----- -- --- ---- -- --- ---- -- that's ------<br>--- ----- -- ----,185136.89999985695,185135.70000004768,184743.869,184757.09999990463,184763.453,185143.552,,50,that's
screen,html.Screen,2_1_0_1_51,2022-05-11T11:18:32.994Z,,,,,,,,,,,,,,,,,53,,,,,,,,,,,,,,412.5479999046365,,response,,,,99,,,,,,,Space,keypress(Space),,,,,,,,---- -- ----- -- ------ - ------- --- ----------<br>------------- ------ ------ ---- ---- ------- ----- -- ----<br>-------- ------- -- ---------- --- - --- ----- ----- ----<br>---- --- --- ----- --- ---- ---- ------- ----- ---- -------<br>--- --- -- ----- -- --- ---- -- --- ---- -- ------ really<br>--- ----- -- ----,185557.20000004768,185556.09999990463,185130.561,185137.09999990463,185143.552,185564.105,,51,really
screen,html.Screen,2_1_0_1_52,2022-05-11T11:18:33.454Z,,,,,,,,,,,,,,,,,53,,,,,,,,,,,,,,451.9949999046221,,response,,,,99,,,,,,,Space,keypress(Space),,,,,,,,---- -- ----- -- ------ - ------- --- ----------<br>------------- ------ ------ ---- ---- ------- ----- -- ----<br>-------- ------- -- ---------- --- - --- ----- ----- ----<br>---- --- --- ----- --- ---- ---- ------- ----- ---- -------<br>--- --- -- ----- -- --- ---- -- --- ---- -- ------ ------<br>not ----- -- ----,186017.29999995232,186016.09999990463,185544.062,185557.29999995232,185564.105,186023.92,,52,not
screen,html.Screen,2_1_0_1_53,2022-05-11T11:18:33.914Z,,,,,,,,,,,,,,,,,53,,,,,,,,,,,,,,452.0799999999872,,response,,,,99,,,,,,,Space,keypress(Space),,,,,,,,---- -- ----- -- ------ - ------- --- ----------<br>------------- ------ ------ ---- ---- ------- ----- -- ----<br>-------- ------- -- ---------- --- - --- ----- ----- ----<br>---- --- --- ----- --- ---- ---- ------- ----- ---- -------<br>--- --- -- ----- -- --- ---- -- --- ---- -- ------ ------<br>--- close -- ----,186477,186476,186014.444,186017.39999985695,186023.92,186483.68,,53,close
screen,html.Screen,2_1_0_1_54,2022-05-11T11:18:34.345Z,,,,,,,,,,,,,,,,,53,,,,,,,,,,,,,,423.11999995232327,,response,,,,99,,,,,,,Space,keypress(Space),,,,,,,,---- -- ----- -- ------ - ------- --- ----------<br>------------- ------ ------ ---- ---- ------- ----- -- ----<br>-------- ------- -- ---------- --- - --- ----- ----- ----<br>---- --- --- ----- --- ---- ---- ------- ----- ---- -------<br>--- --- -- ----- -- --- ---- -- --- ---- -- ------ ------<br>--- ----- at ----,186907.59999990463,186906.79999995232,186474.498,186477.09999990463,186483.68,186914.255,,54,at
screen,html.Screen,2_1_0_1_55,2022-05-11T11:18:34.694Z,,,,,,,,,,,,,,,,,53,,,,,,,,,,,,,,341.44500004767906,,response,,,,99,,,,,,,Space,keypress(Space),,,,,,,,---- -- ----- -- ------ - ------- --- ----------<br>------------- ------ ------ ---- ---- ------- ----- -- ----<br>-------- ------- -- ---------- --- - --- ----- ----- ----<br>---- --- --- ----- --- ---- ---- ------- ----- ---- -------<br>--- --- -- ----- -- --- ---- -- --- ---- -- ------ ------<br>--- ----- -- all.,187256.70000004768,187255.70000004768,186900.873,186907.79999995232,186914.255,187263.912,,55,all.
Item 99,flow.Loop,2_1_0_1,2022-05-11T11:18:34.694Z,,,,,,,,,,,,,,,,,,,,,,,,,,,,,,,26083.24100004768,,completion,,,,,C,,,,,,,,,,,silence,,,,,187257,187255.70000004768,161122.692,161124,161172.459,187263.912,,,
Question 1,html.Screen,2_1_0_2,2022-05-11T11:18:40.145Z,,,,,,,,,,,,,,,,,,,,,,,,,,,,true,FALSE,,5441.487999856938,,response,,,,99,C,,,,,,FALSE,click #choice-2,,,,silence,,,,,192707.39999985695,192705.39999985695,187248.126,187257.29999995232,187263.912,192710.529,,,
Question 2,html.Screen,2_1_0_3,2022-05-11T11:18:43.993Z,,,,,,,,,,,,,,,,,,,,,,,,,,,,true,TRUE,,3843.8709998569393,,response,,,,99,C,,,,,,TRUE,click #choice-1,,,,silence,,,,,196556.20000004768,196554.39999985695,192697.795,192707.59999990463,192710.529,196558.915,,,
Item 99,flow.Sequence,2_1_0,2022-05-11T11:18:43.994Z,,,,,,,,,,,,,,,,,,,,,,,,,,,,,,,45422.39599985696,,completion,,,,,,,,,,,,,,,,,,,,,196556.39999985695,196554.39999985695,151114.79,151129.70000004768,151132.004,196558.915,,,
Holding screen,html.Screen,2_1_1_0,2022-05-11T11:18:53.980Z,,,,,,,,,,,,,,,,,,,,,,,,,,,,,,,9999.41399999999,,timeout,,,,,,,,,,,,,,,,,,,,,206542.70000004768,206541.766,196549.214,196556.70000004768,196558.915,206558.329,,,
screen,html.Screen,2_1_1_1_0,2022-05-11T11:18:55.247Z,,,,,,,,,,,,,,,,,54,,,,,,,,,,,,,,1249.7709999046347,,response,,,,100,,,,,,,Space,keypress(Space),,,,,,,,At --- ---- --- ------ ----- ------- ---- -- --- ------- --<br>------- ---------- ------ -- ----- -- ----- -- ---- ------<br>--- ----- --- --- ------ -------- ----- --- ------ ----- --<br>----- ----- ---------- --- --- ------ ------ ---- -- ------<br>------- --- ------ ----- --- ---- ------- -- ---- --- --<br>------- ------,207810.09999990463,207808.09999990463,206541.766,206542.89999985695,206558.329,207831.876,,0,At
screen,html.Screen,2_1_1_1_1,2022-05-11T11:18:55.666Z,,,,,,,,,,,,,,,,,54,,,,,,,,,,,,,,395.3240000476944,,response,,,,100,,,,,,,Space,keypress(Space),,,,,,,,-- the ---- --- ------ ----- ------- ---- -- --- ------- --<br>------- ---------- ------ -- ----- -- ----- -- ---- ------<br>--- ----- --- --- ------ -------- ----- --- ------ ----- --<br>----- ----- ---------- --- --- ------ ------ ---- -- ------<br>------- --- ------ ----- --- ---- ------- -- ---- --- --<br>------- ------,208228.39999985695,208227.20000004768,207815.143,207810.20000004768,207831.876,208235.208,,1,the
screen,html.Screen,2_1_1_1_2,2022-05-11T11:18:56.144Z,,,,,,,,,,,,,,,,,54,,,,,,,,,,,,,,470.6919998569356,,response,,,,100,,,,,,,Space,keypress(Space),,,,,,,,-- --- time --- ------ ----- ------- ---- -- --- ------- --<br>------- ---------- ------ -- ----- -- ----- -- ---- ------<br>--- ----- --- --- ------ -------- ----- --- ------ ----- --<br>----- ----- ---------- --- --- ------ ------ ---- -- ------<br>------- --- ------ ----- --- ---- ------- -- ---- --- --<br>------- ------,208706.5,208705.89999985695,208215.46,208228.59999990463,208235.208,208712.872,,2,time
screen,html.Screen,2_1_1_1_3,2022-05-11T11:18:56.586Z,,,,,,,,,,,,,,,,,54,,,,,,,,,,,,,,434.3280000476807,,response,,,,100,,,,,,,Space,keypress(Space),,,,,,,,-- --- ---- the ------ ----- ------- ---- -- --- ------- --<br>------- ---------- ------ -- ----- -- ----- -- ---- ------<br>--- ----- --- --- ------ -------- ----- --- ------ ----- --<br>----- ----- ---------- --- --- ------ ------ ---- -- ------<br>------- --- ------ ----- --- ---- ------- -- ---- --- --<br>------- ------,209148.79999995232,209147.20000004768,208702.526,208706.59999990463,208712.872,209155.891,,3,the
screen,html.Screen,2_1_1_1_4,2022-05-11T11:18:57.043Z,,,,,,,,,,,,,,,,,54,,,,,,,,,,,,,,449.60899999999674,,response,,,,100,,,,,,,Space,keypress(Space),,,,,,,,-- --- ---- --- French ----- ------- ---- -- --- ------- --<br>------- ---------- ------ -- ----- -- ----- -- ---- ------<br>--- ----- --- --- ------ -------- ----- --- ------ ----- --<br>----- ----- ---------- --- --- ------ ------ ---- -- ------<br>------- --- ------ ----- --- ---- ------- -- ---- --- --<br>------- ------,209605.89999985695,209605.5,209146.52,209149.20000004768,209155.891,209611.999,,4,French
screen,html.Screen,2_1_1_1_5,2022-05-11T11:18:57.476Z,,,,,,,,,,,,,,,,,54,,,,,,,,,,,,,,424.90099985693814,,response,,,,100,,,,,,,Space,keypress(Space),,,,,,,,-- --- ---- --- ------ crown ------- ---- -- --- ------- --<br>------- ---------- ------ -- ----- -- ----- -- ---- ------<br>--- ----- --- --- ------ -------- ----- --- ------ ----- --<br>----- ----- ---------- --- --- ------ ------ ---- -- ------<br>------- --- ------ ----- --- ---- ------- -- ---- --- --<br>------- ------,210038.29999995232,210036.89999985695,209606.221,209606,209611.999,210045.421,,5,crown
screen,html.Screen,2_1_1_1_6,2022-05-11T11:18:58.016Z,,,,,,,,,,,,,,,,,54,,,,,,,,,,,,,,531.8789999523142,,response,,,,100,,,,,,,Space,keypress(Space),,,,,,,,-- --- ---- --- ------ ----- secured ---- -- --- ------- --<br>------- ---------- ------ -- ----- -- ----- -- ---- ------<br>--- ----- --- --- ------ -------- ----- --- ------ ----- --<br>----- ----- ---------- --- --- ------ ------ ---- -- ------<br>------- --- ------ ----- --- ---- ------- -- ---- --- --<br>------- ------,210578.70000004768,210577.29999995232,210029.098,210038.59999990463,210045.421,210585.67,,6,secured
screen,html.Screen,2_1_1_1_7,2022-05-11T11:18:58.587Z,,,,,,,,,,,,,,,,,54,,,,,,,,,,,,,,561.1299999523035,,response,,,,100,,,,,,,Space,keypress(Space),,,,,,,,-- --- ---- --- ------ ----- ------- much -- --- ------- --<br>------- ---------- ------ -- ----- -- ----- -- ---- ------<br>--- ----- --- --- ------ -------- ----- --- ------ ----- --<br>----- ----- ---------- --- --- ------ ------ ---- -- ------<br>------- --- ------ ----- --- ---- ------- -- ---- --- --<br>------- ------,211150.09999990463,211146.79999995232,210579.358,210578.89999985695,210585.67,211157.24,,7,much
screen,html.Screen,2_1_1_1_8,2022-05-11T11:18:59.036Z,,,,,,,,,,,,,,,,,54,,,,,,,,,,,,,,440.0599999523256,,response,,,,100,,,,,,,Space,keypress(Space),,,,,,,,-- --- ---- --- ------ ----- ------- ---- of --- ------- --<br>------- ---------- ------ -- ----- -- ----- -- ---- ------<br>--- ----- --- --- ------ -------- ----- --- ------ ----- --<br>----- ----- ---------- --- --- ------ ------ ---- -- ------<br>------- --- ------ ----- --- ---- ------- -- ---- --- --<br>------- ------,211598.5,211597.29999995232,211136.355,211150.59999990463,211157.24,211605.473,,8,of
screen,html.Screen,2_1_1_1_9,2022-05-11T11:18:59.415Z,,,,,,,,,,,,,,,,,54,,,,,,,,,,,,,,371.7270000476856,,response,,,,100,,,,,,,Space,keypress(Space),,,,,,,,-- --- ---- --- ------ ----- ------- ---- -- its ------- --<br>------- ---------- ------ -- ----- -- ----- -- ---- ------<br>--- ----- --- --- ------ -------- ----- --- ------ ----- --<br>----- ----- ---------- --- --- ------ ------ ---- -- ------<br>------- --- ------ ----- --- ---- ------- -- ---- --- --<br>------- ------,211978.29999995232,211977.20000004768,211591.186,211598.79999995232,211605.473,211985.015,,9,its
screen,html.Screen,2_1_1_1_10,2022-05-11T11:18:59.794Z,,,,,,,,,,,,,,,,,54,,,,,,,,,,,,,,371.0849999046186,,response,,,,100,,,,,,,Space,keypress(Space),,,,,,,,-- --- ---- --- ------ ----- ------- ---- -- --- revenue --<br>------- ---------- ------ -- ----- -- ----- -- ---- ------<br>--- ----- --- --- ------ -------- ----- --- ------ ----- --<br>----- ----- ---------- --- --- ------ ------ ---- -- ------<br>------- --- ------ ----- --- ---- ------- -- ---- --- --<br>------- ------,212357.09999990463,212356.09999990463,211972.656,211978.5,211985.015,212363.833,,10,revenue
screen,html.Screen,2_1_1_1_11,2022-05-11T11:19:00.345Z,,,,,,,,,,,,,,,,,54,,,,,,,,,,,,,,542.6669999999867,,response,,,,100,,,,,,,Space,keypress(Space),,,,,,,,-- --- ---- --- ------ ----- ------- ---- -- --- ------- by<br>------- ---------- ------ -- ----- -- ----- -- ---- ------<br>--- ----- --- --- ------ -------- ----- --- ------ ----- --<br>----- ----- ---------- --- --- ------ ------ ---- -- ------<br>------- --- ------ ----- --- ---- ------- -- ---- --- --<br>------- ------,212907.39999985695,212906.5,212352.209,212357.29999995232,212363.833,212914.02,,11,by
screen,html.Screen,2_1_1_1_12,2022-05-11T11:19:00.815Z,,,,,,,,,,,,,,,,,54,,,,,,,,,,,,,,462.87999985695933,,response,,,,100,,,,,,,Space,keypress(Space),,,,,,,,-- --- ---- --- ------ ----- ------- ---- -- --- ------- --<br>issuing ---------- ------ -- ----- -- ----- -- ---- ------<br>--- ----- --- --- ------ -------- ----- --- ------ ----- --<br>----- ----- ---------- --- --- ------ ------ ---- -- ------<br>------- --- ------ ----- --- ---- ------- -- ---- --- --<br>------- ------,213378,213376.89999985695,212897.728,212907.5,212914.02,213385.139,,12,issuing
screen,html.Screen,2_1_1_1_13,2022-05-11T11:19:01.515Z,,,,,,,,,,,,,,,,,54,,,,,,,,,,,,,,691.960999904637,,response,,,,100,,,,,,,Space,keypress(Space),,,,,,,,-- --- ---- --- ------ ----- ------- ---- -- --- ------- --<br>------- government ------ -- ----- -- ----- -- ---- ------<br>--- ----- --- --- ------ -------- ----- --- ------ ----- --<br>----- ----- ---------- --- --- ------ ------ ---- -- ------<br>------- --- ------ ----- --- ---- ------- -- ---- --- --<br>------- ------,214078.09999990463,214077.09999990463,213364.589,213378.39999985695,213385.139,214084.806,,13,government
screen,html.Screen,2_1_1_1_14,2022-05-11T11:19:02.015Z,,,,,,,,,,,,,,,,,54,,,,,,,,,,,,,,492.1939999999886,,response,,,,100,,,,,,,Space,keypress(Space),,,,,,,,-- --- ---- --- ------ ----- ------- ---- -- --- ------- --<br>------- ---------- bonds. -- ----- -- ----- -- ---- ------<br>--- ----- --- --- ------ -------- ----- --- ------ ----- --<br>----- ----- ---------- --- --- ------ ------ ---- -- ------<br>------- --- ------ ----- --- ---- ------- -- ---- --- --<br>------- ------,214578,214577,214068.82,214078.29999995232,214084.806,214584.668,,14,bonds.
screen,html.Screen,2_1_1_1_15,2022-05-11T11:19:02.595Z,,,,,,,,,,,,,,,,,54,,,,,,,,,,,,,,572.4319999046274,,response,,,,100,,,,,,,Space,keypress(Space),,,,,,,,-- --- ---- --- ------ ----- ------- ---- -- --- ------- --<br>------- ---------- ------ In ----- -- ----- -- ---- ------<br>--- ----- --- --- ------ -------- ----- --- ------ ----- --<br>----- ----- ---------- --- --- ------ ------ ---- -- ------<br>------- --- ------ ----- --- ---- ------- -- ---- --- --<br>------- ------,215158.20000004768,215157.09999990463,214568.709,214578.20000004768,214584.668,215165.046,,15,In
screen,html.Screen,2_1_1_1_16,2022-05-11T11:19:03.375Z,,,,,,,,,,,,,,,,,54,,,,,,,,,,,,,,772.0539999046305,,response,,,,100,,,,,,,Space,keypress(Space),,,,,,,,"-- --- ---- --- ------ ----- ------- ---- -- --- ------- --<br>------- ---------- ------ -- 1727, -- ----- -- ---- ------<br>--- ----- --- --- ------ -------- ----- --- ------ ----- --<br>----- ----- ---------- --- --- ------ ------ ---- -- ------<br>------- --- ------ ----- --- ---- ------- -- ---- --- --<br>------- ------",215938.20000004768,215937.09999990463,215152.044,215158.39999985695,215165.046,215944.884,,16,"1727,"
screen,html.Screen,2_1_1_1_17,2022-05-11T11:19:03.875Z,,,,,,,,,,,,,,,,,54,,,,,,,,,,,,,,491.8160000476928,,response,,,,100,,,,,,,Space,keypress(Space),,,,,,,,-- --- ---- --- ------ ----- ------- ---- -- --- ------- --<br>------- ---------- ------ -- ----- in ----- -- ---- ------<br>--- ----- --- --- ------ -------- ----- --- ------ ----- --<br>----- ----- ---------- --- --- ------ ------ ---- -- ------<br>------- --- ------ ----- --- ---- ------- -- ---- --- --<br>------- ------,216437.59999990463,216436.70000004768,215932.473,215938.29999995232,215944.884,216444.291,,17,in
screen,html.Screen,2_1_1_1_18,2022-05-11T11:19:04.425Z,,,,,,,,,,,,,,,,,54,,,,,,,,,,,,,,542.7090000000026,,response,,,,100,,,,,,,Space,keypress(Space),,,,,,,,-- --- ---- --- ------ ----- ------- ---- -- --- ------- --<br>------- ---------- ------ -- ----- -- order -- ---- ------<br>--- ----- --- --- ------ -------- ----- --- ------ ----- --<br>----- ----- ---------- --- --- ------ ------ ---- -- ------<br>------- --- ------ ----- --- ---- ------- -- ---- --- --<br>------- ------,216987.89999985695,216987,216428.581,216437.70000004768,216444.291,216994.653,,18,order
screen,html.Screen,2_1_1_1_19,2022-05-11T11:19:04.955Z,,,,,,,,,,,,,,,,,54,,,,,,,,,,,,,,522.5470000476926,,response,,,,100,,,,,,,Space,keypress(Space),,,,,,,,-- --- ---- --- ------ ----- ------- ---- -- --- ------- --<br>------- ---------- ------ -- ----- -- ----- to ---- ------<br>--- ----- --- --- ------ -------- ----- --- ------ ----- --<br>----- ----- ---------- --- --- ------ ------ ---- -- ------<br>------- --- ------ ----- --- ---- ------- -- ---- --- --<br>------- ------,217518.29999995232,217517.20000004768,216978.175,216988.09999990463,216994.653,217525.013,,19,to
screen,html.Screen,2_1_1_1_20,2022-05-11T11:19:05.416Z,,,,,,,,,,,,,,,,,54,,,,,,,,,,,,,,453.0869999046263,,response,,,,100,,,,,,,Space,keypress(Space),,,,,,,,-- --- ---- --- ------ ----- ------- ---- -- --- ------- --<br>------- ---------- ------ -- ----- -- ----- -- save ------<br>--- ----- --- --- ------ -------- ----- --- ------ ----- --<br>----- ----- ---------- --- --- ------ ------ ---- -- ------<br>------- --- ------ ----- --- ---- ------- -- ---- --- --<br>------- ------,217979.29999995232,217978.09999990463,217511.974,217518.5,217525.013,217986.055,,20,save
screen,html.Screen,2_1_1_1_21,2022-05-11T11:19:05.985Z,,,,,,,,,,,,,,,,,54,,,,,,,,,,,,,,560.6450000476907,,response,,,,100,,,,,,,Space,keypress(Space),,,,,,,,"-- --- ---- --- ------ ----- ------- ---- -- --- ------- --<br>------- ---------- ------ -- ----- -- ----- -- ---- money,<br>--- ----- --- --- ------ -------- ----- --- ------ ----- --<br>----- ----- ---------- --- --- ------ ------ ---- -- ------<br>------- --- ------ ----- --- ---- ------- -- ---- --- --<br>------- ------",218547.59999990463,218546.70000004768,217975.619,217979.5,217986.055,218554.375,,21,"money,"
screen,html.Screen,2_1_1_1_22,2022-05-11T11:19:06.625Z,,,,,,,,,,,,,,,,,54,,,,,,,,,,,,,,631.7249999046326,,response,,,,100,,,,,,,Space,keypress(Space),,,,,,,,-- --- ---- --- ------ ----- ------- ---- -- --- ------- --<br>------- ---------- ------ -- ----- -- ----- -- ---- ------<br>the ----- --- --- ------ -------- ----- --- ------ ----- --<br>----- ----- ---------- --- --- ------ ------ ---- -- ------<br>------- --- ------ ----- --- ---- ------- -- ---- --- --<br>------- ------,219187.39999985695,219186.09999990463,218536.664,218547.79999995232,218554.375,219211.1,,22,the
screen,html.Screen,2_1_1_1_23,2022-05-11T11:19:07.365Z,,,,,,,,,,,,,,,,,54,,,,,,,,,,,,,,715.9999999046267,,response,,,,100,,,,,,,Space,keypress(Space),,,,,,,,-- --- ---- --- ------ ----- ------- ---- -- --- ------- --<br>------- ---------- ------ -- ----- -- ----- -- ---- ------<br>--- state --- --- ------ -------- ----- --- ------ ----- --<br>----- ----- ---------- --- --- ------ ------ ---- -- ------<br>------- --- ------ ----- --- ---- ------- -- ---- --- --<br>------- ------,219928.20000004768,219927.09999990463,219194.428,219187.59999990463,219211.1,219934.986,,23,state
screen,html.Screen,2_1_1_1_24,2022-05-11T11:19:07.835Z,,,,,,,,,,,,,,,,,54,,,,,,,,,,,,,,461.5139999999956,,response,,,,100,,,,,,,Space,keypress(Space),,,,,,,,-- --- ---- --- ------ ----- ------- ---- -- --- ------- --<br>------- ---------- ------ -- ----- -- ----- -- ---- ------<br>--- ----- cut --- ------ -------- ----- --- ------ ----- --<br>----- ----- ---------- --- --- ------ ------ ---- -- ------<br>------- --- ------ ----- --- ---- ------- -- ---- --- --<br>------- ------,220397.5,220396.5,219928.202,219928.5,219934.986,220404.205,,24,cut
screen,html.Screen,2_1_1_1_25,2022-05-11T11:19:08.324Z,,,,,,,,,,,,,,,,,54,,,,,,,,,,,,,,481.9950000476965,,response,,,,100,,,,,,,Space,keypress(Space),,,,,,,,-- --- ---- --- ------ ----- ------- ---- -- --- ------- --<br>------- ---------- ------ -- ----- -- ----- -- ---- ------<br>--- ----- --- the ------ -------- ----- --- ------ ----- --<br>----- ----- ---------- --- --- ------ ------ ---- -- ------<br>------- --- ------ ----- --- ---- ------- -- ---- --- --<br>------- ------,220887,220886.20000004768,220385.578,220397.70000004768,220404.205,220910.701,,25,the
screen,html.Screen,2_1_1_1_26,2022-05-11T11:19:09.066Z,,,,,,,,,,,,,,,,,54,,,,,,,,,,,,,,717.2989999999991,,response,,,,100,,,,,,,Space,keypress(Space),,,,,,,,-- --- ---- --- ------ ----- ------- ---- -- --- ------- --<br>------- ---------- ------ -- ----- -- ----- -- ---- ------<br>--- ----- --- --- bonds' -------- ----- --- ------ ----- --<br>----- ----- ---------- --- --- ------ ------ ---- -- ------<br>------- --- ------ ----- --- ---- ------- -- ---- --- --<br>------- ------,221629,221628,220893.974,220887.29999995232,220910.701,221635.66,,26,bonds'
screen,html.Screen,2_1_1_1_27,2022-05-11T11:19:09.935Z,,,,,,,,,,,,,,,,,54,,,,,,,,,,,,,,861.4399999046291,,response,,,,100,,,,,,,Space,keypress(Space),,,,,,,,-- --- ---- --- ------ ----- ------- ---- -- --- ------- --<br>------- ---------- ------ -- ----- -- ----- -- ---- ------<br>--- ----- --- --- ------ interest ----- --- ------ ----- --<br>----- ----- ---------- --- --- ------ ------ ---- -- ------<br>------- --- ------ ----- --- ---- ------- -- ---- --- --<br>------- ------,222498.29999995232,222497.09999990463,221627.809,221629.20000004768,221635.66,222505.117,,27,interest
screen,html.Screen,2_1_1_1_28,2022-05-11T11:19:10.516Z,,,,,,,,,,,,,,,,,54,,,,,,,,,,,,,,572.3830000000016,,response,,,,100,,,,,,,Space,keypress(Space),,,,,,,,-- --- ---- --- ------ ----- ------- ---- -- --- ------- --<br>------- ---------- ------ -- ----- -- ----- -- ---- ------<br>--- ----- --- --- ------ -------- rate. --- ------ ----- --<br>----- ----- ---------- --- --- ------ ------ ---- -- ------<br>------- --- ------ ----- --- ---- ------- -- ---- --- --<br>------- ------,223078.5,223077.5,222486.327,222498.5,222505.117,223085.201,,28,rate.
screen,html.Screen,2_1_1_1_29,2022-05-11T11:19:11.356Z,,,,,,,,,,,,,,,,,54,,,,,,,,,,,,,,832.5989999523154,,response,,,,100,,,,,,,Space,keypress(Space),,,,,,,,-- --- ---- --- ------ ----- ------- ---- -- --- ------- --<br>------- ---------- ------ -- ----- -- ----- -- ---- ------<br>--- ----- --- --- ------ -------- ----- The ------ ----- --<br>----- ----- ---------- --- --- ------ ------ ---- -- ------<br>------- --- ------ ----- --- ---- ------- -- ---- --- --<br>------- ------,223918.89999985695,223917.79999995232,223072.408,223078.59999990463,223085.201,223925.716,,29,The
screen,html.Screen,2_1_1_1_30,2022-05-11T11:19:11.837Z,,,,,,,,,,,,,,,,,54,,,,,,,,,,,,,,472.38399990464677,,response,,,,100,,,,,,,Space,keypress(Space),,,,,,,,-- --- ---- --- ------ ----- ------- ---- -- --- ------- --<br>------- ---------- ------ -- ----- -- ----- -- ---- ------<br>--- ----- --- --- ------ -------- ----- --- market ----- --<br>----- ----- ---------- --- --- ------ ------ ---- -- ------<br>------- --- ------ ----- --- ---- ------- -- ---- --- --<br>------- ------,224399.39999985695,224398.09999990463,223919.36,223919.20000004768,223925.716,224406.331,,30,market
screen,html.Screen,2_1_1_1_31,2022-05-11T11:19:12.406Z,,,,,,,,,,,,,,,,,54,,,,,,,,,,,,,,561.0689998569433,,response,,,,100,,,,,,,Space,keypress(Space),,,,,,,,-- --- ---- --- ------ ----- ------- ---- -- --- ------- --<br>------- ---------- ------ -- ----- -- ----- -- ---- ------<br>--- ----- --- --- ------ -------- ----- --- ------ value --<br>----- ----- ---------- --- --- ------ ------ ---- -- ------<br>------- --- ------ ----- --- ---- ------- -- ---- --- --<br>------- ------,224968.59999990463,224967.39999985695,224392.945,224399.59999990463,224406.331,224975.343,,31,value
screen,html.Screen,2_1_1_1_32,2022-05-11T11:19:13.206Z,,,,,,,,,,,,,,,,,54,,,,,,,,,,,,,,792.4569999523228,,response,,,,100,,,,,,,Space,keypress(Space),,,,,,,,-- --- ---- --- ------ ----- ------- ---- -- --- ------- --<br>------- ---------- ------ -- ----- -- ----- -- ---- ------<br>--- ----- --- --- ------ -------- ----- --- ------ ----- of<br>----- ----- ---------- --- --- ------ ------ ---- -- ------<br>------- --- ------ ----- --- ---- ------- -- ---- --- --<br>------- ------,225768.89999985695,225767.79999995232,224956.823,224968.79999995232,224975.343,225775.768,,32,of
screen,html.Screen,2_1_1_1_33,2022-05-11T11:19:13.847Z,,,,,,,,,,,,,,,,,54,,,,,,,,,,,,,,632.1319998569379,,response,,,,100,,,,,,,Space,keypress(Space),,,,,,,,-- --- ---- --- ------ ----- ------- ---- -- --- ------- --<br>------- ---------- ------ -- ----- -- ----- -- ---- ------<br>--- ----- --- --- ------ -------- ----- --- ------ ----- --<br>these ----- ---------- --- --- ------ ------ ---- -- ------<br>------- --- ------ ----- --- ---- ------- -- ---- --- --<br>------- ------,226409.39999985695,226407.89999985695,225759.517,225769.20000004768,225775.768,226416.455,,33,these
screen,html.Screen,2_1_1_1_34,2022-05-11T11:19:14.436Z,,,,,,,,,,,,,,,,,54,,,,,,,,,,,,,,581.4449998569617,,response,,,,100,,,,,,,Space,keypress(Space),,,,,,,,-- --- ---- --- ------ ----- ------- ---- -- --- ------- --<br>------- ---------- ------ -- ----- -- ----- -- ---- ------<br>--- ----- --- --- ------ -------- ----- --- ------ ----- --<br>----- bonds ---------- --- --- ------ ------ ---- -- ------<br>------- --- ------ ----- --- ---- ------- -- ---- --- --<br>------- ------,226998.89999985695,226997.89999985695,226409.782,226409.59999990463,226416.455,227022.718,,34,bonds
screen,html.Screen,2_1_1_1_35,2022-05-11T11:19:15.296Z,,,,,,,,,,,,,,,,,54,,,,,,,,,,,,,,835.1819998569554,,response,,,,100,,,,,,,Space,keypress(Space),,,,,,,,"-- --- ---- --- ------ ----- ------- ---- -- --- ------- --<br>------- ---------- ------ -- ----- -- ----- -- ---- ------<br>--- ----- --- --- ------ -------- ----- --- ------ ----- --<br>----- ----- plummeted, --- --- ------ ------ ---- -- ------<br>------- --- ------ ----- --- ---- ------- -- ---- --- --<br>------- ------",227859.20000004768,227857.89999985695,227005.983,226999.09999990463,227022.718,227865.961,,35,"plummeted,"
screen,html.Screen,2_1_1_1_36,2022-05-11T11:19:15.807Z,,,,,,,,,,,,,,,,,54,,,,,,,,,,,,,,502.23900004767347,,response,,,,100,,,,,,,Space,keypress(Space),,,,,,,,-- --- ---- --- ------ ----- ------- ---- -- --- ------- --<br>------- ---------- ------ -- ----- -- ----- -- ---- ------<br>--- ----- --- --- ------ -------- ----- --- ------ ----- --<br>----- ----- ---------- and --- ------ ------ ---- -- ------<br>------- --- ------ ----- --- ---- ------- -- ---- --- --<br>------- ------,228369.29999995232,228368.20000004768,227856.542,227859.29999995232,227865.961,228376.019,,36,and
screen,html.Screen,2_1_1_1_37,2022-05-11T11:19:16.266Z,,,,,,,,,,,,,,,,,54,,,,,,,,,,,,,,451.6810000476835,,response,,,,100,,,,,,,Space,keypress(Space),,,,,,,,-- --- ---- --- ------ ----- ------- ---- -- --- ------- --<br>------- ---------- ------ -- ----- -- ----- -- ---- ------<br>--- ----- --- --- ------ -------- ----- --- ------ ----- --<br>----- ----- ---------- --- the ------ ------ ---- -- ------<br>------- --- ------ ----- --- ---- ------- -- ---- --- --<br>------- ------,228828.70000004768,228827.70000004768,228366.549,228369.59999990463,228376.019,228835.29,,37,the
screen,html.Screen,2_1_1_1_38,2022-05-11T11:19:16.786Z,,,,,,,,,,,,,,,,,54,,,,,,,,,,,,,,512.4100000476756,,response,,,,100,,,,,,,Space,keypress(Space),,,,,,,,-- --- ---- --- ------ ----- ------- ---- -- --- ------- --<br>------- ---------- ------ -- ----- -- ----- -- ---- ------<br>--- ----- --- --- ------ -------- ----- --- ------ ----- --<br>----- ----- ---------- --- --- market ------ ---- -- ------<br>------- --- ------ ----- --- ---- ------- -- ---- --- --<br>------- ------,229348.70000004768,229347.70000004768,228826.37,228828.89999985695,228835.29,229355.718,,38,market
screen,html.Screen,2_1_1_1_39,2022-05-11T11:19:17.306Z,,,,,,,,,,,,,,,,,54,,,,,,,,,,,,,,512.3819999046391,,response,,,,100,,,,,,,Space,keypress(Space),,,,,,,,-- --- ---- --- ------ ----- ------- ---- -- --- ------- --<br>------- ---------- ------ -- ----- -- ----- -- ---- ------<br>--- ----- --- --- ------ -------- ----- --- ------ ----- --<br>----- ----- ---------- --- --- ------ became ---- -- ------<br>------- --- ------ ----- --- ---- ------- -- ---- --- --<br>------- ------,229869.20000004768,229868.09999990463,229335.861,229348.89999985695,229355.718,229876.224,,39,became
screen,html.Screen,2_1_1_1_40,2022-05-11T11:19:17.846Z,,,,,,,,,,,,,,,,,54,,,,,,,,,,,,,,531.1759998569614,,response,,,,100,,,,,,,Space,keypress(Space),,,,,,,,-- --- ---- --- ------ ----- ------- ---- -- --- ------- --<br>------- ---------- ------ -- ----- -- ----- -- ---- ------<br>--- ----- --- --- ------ -------- ----- --- ------ ----- --<br>----- ----- ---------- --- --- ------ ------ wary -- ------<br>------- --- ------ ----- --- ---- ------- -- ---- --- --<br>------- ------,230408.59999990463,230407.39999985695,229856.184,229869.39999985695,229876.224,230432.56,,40,wary
screen,html.Screen,2_1_1_1_41,2022-05-11T11:19:18.326Z,,,,,,,,,,,,,,,,,54,,,,,,,,,,,,,,454.9400000000023,,response,,,,100,,,,,,,Space,keypress(Space),,,,,,,,-- --- ---- --- ------ ----- ------- ---- -- --- ------- --<br>------- ---------- ------ -- ----- -- ----- -- ---- ------<br>--- ----- --- --- ------ -------- ----- --- ------ ----- --<br>----- ----- ---------- --- --- ------ ------ ---- of ------<br>------- --- ------ ----- --- ---- ------- -- ---- --- --<br>------- ------,230888.59999990463,230887.5,230415.756,230408.89999985695,230432.56,230895.424,,41,of
screen,html.Screen,2_1_1_1_42,2022-05-11T11:19:18.795Z,,,,,,,,,,,,,,,,,54,,,,,,,,,,,,,,461.57600000000093,,response,,,,100,,,,,,,Space,keypress(Space),,,,,,,,-- --- ---- --- ------ ----- ------- ---- -- --- ------- --<br>------- ---------- ------ -- ----- -- ----- -- ---- ------<br>--- ----- --- --- ------ -------- ----- --- ------ ----- --<br>----- ----- ---------- --- --- ------ ------ ---- -- French<br>------- --- ------ ----- --- ---- ------- -- ---- --- --<br>------- ------,231358.09999990463,231357,230882.814,230888.79999995232,230895.424,231364.812,,42,French
screen,html.Screen,2_1_1_1_43,2022-05-11T11:19:19.276Z,,,,,,,,,,,,,,,,,54,,,,,,,,,,,,,,473.0879998569435,,response,,,,100,,,,,,,Space,keypress(Space),,,,,,,,-- --- ---- --- ------ ----- ------- ---- -- --- ------- --<br>------- ---------- ------ -- ----- -- ----- -- ---- ------<br>--- ----- --- --- ------ -------- ----- --- ------ ----- --<br>----- ----- ---------- --- --- ------ ------ ---- -- ------<br>credit. --- ------ ----- --- ---- ------- -- ---- --- --<br>------- ------,231839,231837.89999985695,231345.983,231358.29999995232,231364.812,231847.384,,43,credit.
screen,html.Screen,2_1_1_1_44,2022-05-11T11:19:19.776Z,,,,,,,,,,,,,,,,,54,,,,,,,,,,,,,,490.71599990464165,,response,,,,100,,,,,,,Space,keypress(Space),,,,,,,,-- --- ---- --- ------ ----- ------- ---- -- --- ------- --<br>------- ---------- ------ -- ----- -- ----- -- ---- ------<br>--- ----- --- --- ------ -------- ----- --- ------ ----- --<br>----- ----- ---------- --- --- ------ ------ ---- -- ------<br>------- The ------ ----- --- ---- ------- -- ---- --- --<br>------- ------,232339.20000004768,232338.09999990463,231832.011,231840.70000004768,231847.384,232346.001,,44,The
screen,html.Screen,2_1_1_1_45,2022-05-11T11:19:20.206Z,,,,,,,,,,,,,,,,,54,,,,,,,,,,,,,,421.6990000476944,,response,,,,100,,,,,,,Space,keypress(Space),,,,,,,,-- --- ---- --- ------ ----- ------- ---- -- --- ------- --<br>------- ---------- ------ -- ----- -- ----- -- ---- ------<br>--- ----- --- --- ------ -------- ----- --- ------ ----- --<br>----- ----- ---------- --- --- ------ ------ ---- -- ------<br>------- --- French ----- --- ---- ------- -- ---- --- --<br>------- ------,232768.89999985695,232767.70000004768,232331.311,232339.5,232346.001,232775.049,,45,French
screen,html.Screen,2_1_1_1_46,2022-05-11T11:19:20.676Z,,,,,,,,,,,,,,,,,54,,,,,,,,,,,,,,462.3509998569498,,response,,,,100,,,,,,,Space,keypress(Space),,,,,,,,-- --- ---- --- ------ ----- ------- ---- -- --- ------- --<br>------- ---------- ------ -- ----- -- ----- -- ---- ------<br>--- ----- --- --- ------ -------- ----- --- ------ ----- --<br>----- ----- ---------- --- --- ------ ------ ---- -- ------<br>------- --- ------ state --- ---- ------- -- ---- --- --<br>------- ------,233238.39999985695,233237.39999985695,232763.2,232769.09999990463,232775.049,233245.238,,46,state
screen,html.Screen,2_1_1_1_47,2022-05-11T11:19:21.136Z,,,,,,,,,,,,,,,,,54,,,,,,,,,,,,,,452.4620000476716,,response,,,,100,,,,,,,Space,keypress(Space),,,,,,,,-- --- ---- --- ------ ----- ------- ---- -- --- ------- --<br>------- ---------- ------ -- ----- -- ----- -- ---- ------<br>--- ----- --- --- ------ -------- ----- --- ------ ----- --<br>----- ----- ---------- --- --- ------ ------ ---- -- ------<br>------- --- ------ ----- was ---- ------- -- ---- --- --<br>------- ------,233698.89999985695,233697.70000004768,233225.663,233238.70000004768,233245.238,233705.559,,47,was
screen,html.Screen,2_1_1_1_48,2022-05-11T11:19:21.597Z,,,,,,,,,,,,,,,,,54,,,,,,,,,,,,,,452.5409999046242,,response,,,,100,,,,,,,Space,keypress(Space),,,,,,,,-- --- ---- --- ------ ----- ------- ---- -- --- ------- --<br>------- ---------- ------ -- ----- -- ----- -- ---- ------<br>--- ----- --- --- ------ -------- ----- --- ------ ----- --<br>----- ----- ---------- --- --- ------ ------ ---- -- ------<br>------- --- ------ ----- --- left ------- -- ---- --- --<br>------- ------,234159.5,234158.09999990463,233695.823,233699.09999990463,233705.559,234166.396,,48,left
screen,html.Screen,2_1_1_1_49,2022-05-11T11:19:22.056Z,,,,,,,,,,,,,,,,,54,,,,,,,,,,,,,,451.1039999999921,,response,,,,100,,,,,,,Space,keypress(Space),,,,,,,,-- --- ---- --- ------ ----- ------- ---- -- --- ------- --<br>------- ---------- ------ -- ----- -- ----- -- ---- ------<br>--- ----- --- --- ------ -------- ----- --- ------ ----- --<br>----- ----- ---------- --- --- ------ ------ ---- -- ------<br>------- --- ------ ----- --- ---- without -- ---- --- --<br>------- ------,234618.70000004768,234617.5,234155.918,234159.79999995232,234166.396,234625.733,,49,without
screen,html.Screen,2_1_1_1_50,2022-05-11T11:19:22.486Z,,,,,,,,,,,,,,,,,54,,,,,,,,,,,,,,421.96700004767627,,response,,,,100,,,,,,,Space,keypress(Space),,,,,,,,-- --- ---- --- ------ ----- ------- ---- -- --- ------- --<br>------- ---------- ------ -- ----- -- ----- -- ---- ------<br>--- ----- --- --- ------ -------- ----- --- ------ ----- --<br>----- ----- ---------- --- --- ------ ------ ---- -- ------<br>------- --- ------ ----- --- ---- ------- an ---- --- --<br>------- ------,235048.70000004768,235047.70000004768,234616.93,234619.09999990463,234625.733,235055.416,,50,an
screen,html.Screen,2_1_1_1_51,2022-05-11T11:19:22.906Z,,,,,,,,,,,,,,,,,54,,,,,,,,,,,,,,412.2840000476863,,response,,,,100,,,,,,,Space,keypress(Space),,,,,,,,-- --- ---- --- ------ ----- ------- ---- -- --- ------- --<br>------- ---------- ------ -- ----- -- ----- -- ---- ------<br>--- ----- --- --- ------ -------- ----- --- ------ ----- --<br>----- ----- ---------- --- --- ------ ------ ---- -- ------<br>------- --- ------ ----- --- ---- ------- -- easy --- --<br>------- ------,235468.70000004768,235467.70000004768,235042.891,235048.89999985695,235055.416,235475.432,,51,easy
screen,html.Screen,2_1_1_1_52,2022-05-11T11:19:23.256Z,,,,,,,,,,,,,,,,,54,,,,,,,,,,,,,,342.0679999999993,,response,,,,100,,,,,,,Space,keypress(Space),,,,,,,,-- --- ---- --- ------ ----- ------- ---- -- --- ------- --<br>------- ---------- ------ -- ----- -- ----- -- ---- ------<br>--- ----- --- --- ------ -------- ----- --- ------ ----- --<br>----- ----- ---------- --- --- ------ ------ ---- -- ------<br>------- --- ------ ----- --- ---- ------- -- ---- way --<br>------- ------,235818.59999990463,235817.5,235455.93,235468.89999985695,235475.432,235825.22,,52,way
screen,html.Screen,2_1_1_1_53,2022-05-11T11:19:23.656Z,,,,,,,,,,,,,,,,,54,,,,,,,,,,,,,,392.48000004768255,,response,,,,100,,,,,,,Space,keypress(Space),,,,,,,,-- --- ---- --- ------ ----- ------- ---- -- --- ------- --<br>------- ---------- ------ -- ----- -- ----- -- ---- ------<br>--- ----- --- --- ------ -------- ----- --- ------ ----- --<br>----- ----- ---------- --- --- ------ ------ ---- -- ------<br>------- --- ------ ----- --- ---- ------- -- ---- --- of<br>------- ------,236218.79999995232,236217.70000004768,235809.151,235818.79999995232,235825.22,236225.641,,53,of
screen,html.Screen,2_1_1_1_54,2022-05-11T11:19:24.056Z,,,,,,,,,,,,,,,,,54,,,,,,,,,,,,,,392.158999952313,,response,,,,100,,,,,,,Space,keypress(Space),,,,,,,,-- --- ---- --- ------ ----- ------- ---- -- --- ------- --<br>------- ---------- ------ -- ----- -- ----- -- ---- ------<br>--- ----- --- --- ------ -------- ----- --- ------ ----- --<br>----- ----- ---------- --- --- ------ ------ ---- -- ------<br>------- --- ------ ----- --- ---- ------- -- ---- --- --<br>raising ------,236618.89999985695,236617.79999995232,236208.851,236219,236225.641,236625.677,,54,raising
screen,html.Screen,2_1_1_1_55,2022-05-11T11:19:24.656Z,,,,,,,,,,,,,,,,,54,,,,,,,,,,,,,,591.823000000004,,response,,,,100,,,,,,,Space,keypress(Space),,,,,,,,-- --- ---- --- ------ ----- ------- ---- -- --- ------- --<br>------- ---------- ------ -- ----- -- ----- -- ---- ------<br>--- ----- --- --- ------ -------- ----- --- ------ ----- --<br>----- ----- ---------- --- --- ------ ------ ---- -- ------<br>------- --- ------ ----- --- ---- ------- -- ---- --- --<br>------- money.,237218.79999995232,237217.5,236609.81,236619.09999990463,236625.677,237226.287,,55,money.
Item 100,flow.Loop,2_1_1_1,2022-05-11T11:19:24.656Z,,,,,,,,,,,,,,,,,,,,,,,,,,,,,,,30659.171000000002,,completion,,,,,C,,,,,,,,,,,silence,,,,,237219.20000004768,237217.5,206541.766,206542.89999985695,206558.329,237226.287,,,
Question 1,html.Screen,2_1_1_2,2022-05-11T11:19:27.589Z,,,,,,,,,,,,,,,,,,,,,,,,,,,,true,TRUE,,2923.9130000476725,,response,,,,100,C,,,,,,TRUE,click #choice-1,,,,silence,,,,,240151.79999995232,240150.20000004768,237209.62,237219.39999985695,237226.287,240155.015,,,
Question 2,html.Screen,2_1_1_3,2022-05-11T11:19:30.514Z,,,,,,,,,,,,,,,,,,,,,,,,,,,,true,FALSE,,2919.7849999523023,,response,,,,100,C,,,,,,FALSE,click #choice-2,,,,silence,,,,,243077.20000004768,243074.79999995232,240139.554,240152,240155.015,243079.669,,,
Item 100,flow.Sequence,2_1_1,2022-05-11T11:19:30.515Z,,,,,,,,,,,,,,,,,,,,,,,,,,,,,,,46515.88499995231,,completion,,,,,,,,,,,,,,,,,,,,,243077.5,243074.79999995232,196549.214,196556.59999990463,196558.915,243079.669,,,
End of Practice,html.Page,2_1_2,2022-05-11T11:19:35.753Z,,,,,,,,,,,,,,,,,,,,,,,,,,,,,,,5235.831000000006,,form submission,,,,,,,,,,,,,,,,,,,,,248316,248315.5,243068.744,243077.79999995232,243079.669,248318.392,,,
Practice,flow.Sequence,2_1,2022-05-11T11:19:35.753Z,,,,,,,,,,,,,,,,,,,,,,,,,,,,,,,97183.49600000001,,completion,,,,,,,,,,,,,,,,,,,,,248316.29999995232,248315.5,151114.79,151129.70000004768,151132.004,248318.392,,,
Trap_instruction,html.Page,2_2_0,2022-05-11T11:19:39.013Z,,,,,,,,,,,,,,,,,,,,,,,,,,,,,,,3257.20799990464,,form submission,,,,,,,,,,,,,,,,,,,,,251576.29999995232,251575.59999990463,248301.472,248316.5,248318.392,251628.197,,,
trap_trial,html.Screen,2_2_1,2022-05-11T11:19:44.596Z,,,,,,,,,,,,,,,,,,,,,,,,,,,,true,1,,5528.702999856963,,response,,,,,,,,,,,1,click #choice-1,,,,,,,,,257158.79999995232,257156.89999985695,251567.583,251576.39999985695,251628.197,257161.175,,,
end of trap trial,html.Page,2_2_2,2022-05-11T11:19:46.816Z,,,,,,,,,,,,,,,,,,,,,,,,,,,,,,,2217.5250000476954,,form submission,,,,,,,,,,,,,,,,,,,,,259379.09999990463,259378.70000004768,257146.281,257159.09999990463,257161.175,259381.556,,,
Trap 1,flow.Sequence,2_2,2022-05-11T11:19:46.817Z,,,,,,,,,,,,,,,,,,,,,,,,,,,,,,,11060.308000047691,,completion,,,,,,,,,,,,,,,,,,,,,259379.5,259378.70000004768,248301.472,248316.5,248318.392,259381.556,,,
Standby,html.Page,2_3_0,2022-05-11T11:19:54.806Z,,,,,,,,,,,,,,,,,,,,,,,,,,,,,,,8002.746000000014,,timeout,,,,,,,,,,,,,,,,,,,,,267368.7999999523,267367.752,259364.694,259379.70000004768,259381.556,267384.302,,,
Holding screen,html.Screen,2_3_1_0_0,2022-05-11T11:20:01.806Z,,,,,,,,,,,,,,,,,,,,,,,,,,,,,,,7000.2179999999935,,timeout,,,,,,,,,,,,,,,,,,,,,274369,274367.833,267367.752,267369.2999999523,267384.302,274384.52,,,
screen,html.Screen,2_3_1_0_1_0,2022-05-11T11:20:02.968Z,,,,,,,,,,,,,,,,,19,,,,,,,,,,,,,,1144.9799999999814,,response,,,,17,C,,,,,,Space,keypress(Space),,,,instrumental,,,,"Interestingly, --- -------- -------- ---------- ---- -------<br>-- ---------- -- --- ----- ------ ----- ---- --------- ----<br>------- ------ -------- -- ------ ---------- ------ ---<br>------ -- -- ---- -- ---------- -------- ------ ---- -------<br>---- --- --------- ------- ----- --------- ---- ----- --<br>------ -------- -- ------ -- ---- ------------",275531,275529.5,274367.833,274369.39999985695,274384.52,275536.13,,0,"Interestingly,"
screen,html.Screen,2_3_1_0_1_1,2022-05-11T11:20:03.496Z,,,,,,,,,,,,,,,,,19,,,,,,,,,,,,,,522.1699999523116,,response,,,,17,C,,,,,,Space,keypress(Space),,,,instrumental,,,,-------------- the -------- -------- ---------- ---- -------<br>-- ---------- -- --- ----- ------ ----- ---- --------- ----<br>------- ------ -------- -- ------ ---------- ------ ---<br>------ -- -- ---- -- ---------- -------- ------ ---- -------<br>---- --- --------- ------- ----- --------- ---- ----- --<br>------ -------- -- ------ -- ---- ------------,276059.39999985695,276058.2999999523,275518.764,275531.2999999523,275536.13,276066.038,,1,the
screen,html.Screen,2_3_1_0_1_2,2022-05-11T11:20:03.907Z,,,,,,,,,,,,,,,,,19,,,,,,,,,,,,,,402.5619999046321,,response,,,,17,C,,,,,,Space,keypress(Space),,,,instrumental,,,,-------------- --- heaviest -------- ---------- ---- -------<br>-- ---------- -- --- ----- ------ ----- ---- --------- ----<br>------- ------ -------- -- ------ ---------- ------ ---<br>------ -- -- ---- -- ---------- -------- ------ ---- -------<br>---- --- --------- ------- ----- --------- ---- ----- --<br>------ -------- -- ------ -- ---- ------------,276469.5,276468.59999990463,276053.193,276059.5,276066.038,276476.165,,2,heaviest
screen,html.Screen,2_3_1_0_1_3,2022-05-11T11:20:04.607Z,,,,,,,,,,,,,,,,,19,,,,,,,,,,,,,,692.335000000021,,response,,,,17,C,,,,,,Space,keypress(Space),,,,instrumental,,,,-------------- --- -------- isotopes ---------- ---- -------<br>-- ---------- -- --- ----- ------ ----- ---- --------- ----<br>------- ------ -------- -- ------ ---------- ------ ---<br>------ -- -- ---- -- ---------- -------- ------ ---- -------<br>---- --- --------- ------- ----- --------- ---- ----- --<br>------ -------- -- ------ -- ---- ------------,277169.7000000477,277168.5,276466.603,276469.7999999523,276476.165,277176.842,,3,isotopes
screen,html.Screen,2_3_1_0_1_4,2022-05-11T11:20:05.158Z,,,,,,,,,,,,,,,,,19,,,,,,,,,,,,,,541.9579999523121,,response,,,,17,C,,,,,,Space,keypress(Space),,,,instrumental,,,,-------------- --- -------- -------- physicists ---- -------<br>-- ---------- -- --- ----- ------ ----- ---- --------- ----<br>------- ------ -------- -- ------ ---------- ------ ---<br>------ -- -- ---- -- ---------- -------- ------ ---- -------<br>---- --- --------- ------- ----- --------- ---- ----- --<br>------ -------- -- ------ -- ---- ------------,277720.5,277718.7999999523,277160.226,277170.2000000477,277176.842,277727.972,,4,physicists
screen,html.Screen,2_3_1_0_1_5,2022-05-11T11:20:05.627Z,,,,,,,,,,,,,,,,,19,,,,,,,,,,,,,,460.92799985694,,response,,,,17,C,,,,,,Space,keypress(Space),,,,instrumental,,,,-------------- --- -------- -------- ---------- have -------<br>-- ---------- -- --- ----- ------ ----- ---- --------- ----<br>------- ------ -------- -- ------ ---------- ------ ---<br>------ -- -- ---- -- ---------- -------- ------ ---- -------<br>---- --- --------- ------- ----- --------- ---- ----- --<br>------ -------- -- ------ -- ---- ------------,278190.39999985695,278188.89999985695,277710.841,277720.7999999523,277727.972,278197.461,,5,have
screen,html.Screen,2_3_1_0_1_6,2022-05-11T11:20:06.167Z,,,,,,,,,,,,,,,,,19,,,,,,,,,,,,,,531.5389999999898,,response,,,,17,C,,,,,,Space,keypress(Space),,,,instrumental,,,,-------------- --- -------- -------- ---------- ---- managed<br>-- ---------- -- --- ----- ------ ----- ---- --------- ----<br>------- ------ -------- -- ------ ---------- ------ ---<br>------ -- -- ---- -- ---------- -------- ------ ---- -------<br>---- --- --------- ------- ----- --------- ---- ----- --<br>------ -------- -- ------ -- ---- ------------,278730.09999990463,278729,278178.284,278190.7000000477,278197.461,278753.667,,6,managed
screen,html.Screen,2_3_1_0_1_7,2022-05-11T11:20:06.677Z,,,,,,,,,,,,,,,,,19,,,,,,,,,,,,,,484.83299999998417,,response,,,,17,C,,,,,,Space,keypress(Space),,,,instrumental,,,,-------------- --- -------- -------- ---------- ---- -------<br>to ---------- -- --- ----- ------ ----- ---- --------- ----<br>------- ------ -------- -- ------ ---------- ------ ---<br>------ -- -- ---- -- ---------- -------- ------ ---- -------<br>---- --- --------- ------- ----- --------- ---- ----- --<br>------ -------- -- ------ -- ---- ------------,279240.09999990463,279238.5,278737.303,278730.39999985695,278753.667,279246.928,,7,to
screen,html.Screen,2_3_1_0_1_8,2022-05-11T11:20:07.216Z,,,,,,,,,,,,,,,,,19,,,,,,,,,,,,,,531.2720000476693,,response,,,,17,C,,,,,,Space,keypress(Space),,,,instrumental,,,,-------------- --- -------- -------- ---------- ---- -------<br>-- synthesize -- --- ----- ------ ----- ---- --------- ----<br>------- ------ -------- -- ------ ---------- ------ ---<br>------ -- -- ---- -- ---------- -------- ------ ---- -------<br>---- --- --------- ------- ----- --------- ---- ----- --<br>------ -------- -- ------ -- ---- ------------,279779.39999985695,279778.2000000477,279237.36,279240.2999999523,279246.928,279786.169,,8,synthesize
screen,html.Screen,2_3_1_0_1_9,2022-05-11T11:20:07.866Z,,,,,,,,,,,,,,,,,19,,,,,,,,,,,,,,641.9309999046382,,response,,,,17,C,,,,,,Space,keypress(Space),,,,instrumental,,,,-------------- --- -------- -------- ---------- ---- -------<br>-- ---------- so --- ----- ------ ----- ---- --------- ----<br>------- ------ -------- -- ------ ---------- ------ ---<br>------ -- -- ---- -- ---------- -------- ------ ---- -------<br>---- --- --------- ------- ----- --------- ---- ----- --<br>------ -------- -- ------ -- ---- ------------,280429,280428.09999990463,279764.197,279779.59999990463,279786.169,280435.545,,9,so
screen,html.Screen,2_3_1_0_1_10,2022-05-11T11:20:08.417Z,,,,,,,,,,,,,,,,,19,,,,,,,,,,,,,,543.3549998569652,,response,,,,17,C,,,,,,Space,keypress(Space),,,,instrumental,,,,-------------- --- -------- -------- ---------- ---- -------<br>-- ---------- -- far ----- ------ ----- ---- --------- ----<br>------- ------ -------- -- ------ ---------- ------ ---<br>------ -- -- ---- -- ---------- -------- ------ ---- -------<br>---- --- --------- ------- ----- --------- ---- ----- --<br>------ -------- -- ------ -- ---- ------------,280979.7999999523,280978.89999985695,280420.214,280429.2000000477,280435.545,280986.581,,10,far
screen,html.Screen,2_3_1_0_1_11,2022-05-11T11:20:08.827Z,,,,,,,,,,,,,,,,,19,,,,,,,,,,,,,,402.1190000476781,,response,,,,17,C,,,,,,Space,keypress(Space),,,,instrumental,,,,-------------- --- -------- -------- ---------- ---- -------<br>-- ---------- -- --- don't ------ ----- ---- --------- ----<br>------- ------ -------- -- ------ ---------- ------ ---<br>------ -- -- ---- -- ---------- -------- ------ ---- -------<br>---- --- --------- ------- ----- --------- ---- ----- --<br>------ -------- -- ------ -- ---- ------------,281389.7000000477,281388.7000000477,280969.505,280980,280986.581,281396.432,,11,don't
screen,html.Screen,2_3_1_0_1_12,2022-05-11T11:20:09.267Z,,,,,,,,,,,,,,,,,19,,,,,,,,,,,,,,432.167999904661,,response,,,,17,C,,,,,,Space,keypress(Space),,,,instrumental,,,,-------------- --- -------- -------- ---------- ---- -------<br>-- ---------- -- --- ----- behave ----- ---- --------- ----<br>------- ------ -------- -- ------ ---------- ------ ---<br>------ -- -- ---- -- ---------- -------- ------ ---- -------<br>---- --- --------- ------- ----- --------- ---- ----- --<br>------ -------- -- ------ -- ---- ------------,281829.7000000477,281828.59999990463,281387.114,281390,281396.432,281836.549,,12,behave
screen,html.Screen,2_3_1_0_1_13,2022-05-11T11:20:09.817Z,,,,,,,,,,,,,,,,,19,,,,,,,,,,,,,,542.1510000476846,,response,,,,17,C,,,,,,Space,keypress(Space),,,,instrumental,,,,-------------- --- -------- -------- ---------- ---- -------<br>-- ---------- -- --- ----- ------ quite ---- --------- ----<br>------- ------ -------- -- ------ ---------- ------ ---<br>------ -- -- ---- -- ---------- -------- ------ ---- -------<br>---- --- --------- ------- ----- --------- ---- ----- --<br>------ -------- -- ------ -- ---- ------------,282379.59999990463,282378.7000000477,281830.324,281830,281836.549,282386.188,,13,quite
screen,html.Screen,2_3_1_0_1_14,2022-05-11T11:20:10.326Z,,,,,,,,,,,,,,,,,19,,,,,,,,,,,,,,502.2119998569251,,response,,,,17,C,,,,,,Space,keypress(Space),,,,instrumental,,,,-------------- --- -------- -------- ---------- ---- -------<br>-- ---------- -- --- ----- ------ ----- like --------- ----<br>------- ------ -------- -- ------ ---------- ------ ---<br>------ -- -- ---- -- ---------- -------- ------ ---- -------<br>---- --- --------- ------- ----- --------- ---- ----- --<br>------ -------- -- ------ -- ---- ------------,282889.2999999523,282888.39999985695,282370.496,282379.7999999523,282386.188,282895.988,,14,like
screen,html.Screen,2_3_1_0_1_15,2022-05-11T11:20:10.747Z,,,,,,,,,,,,,,,,,19,,,,,,,,,,,,,,412.41199985693675,,response,,,,17,C,,,,,,Space,keypress(Space),,,,instrumental,,,,-------------- --- -------- -------- ---------- ---- -------<br>-- ---------- -- --- ----- ------ ----- ---- science's ----<br>------- ------ -------- -- ------ ---------- ------ ---<br>------ -- -- ---- -- ---------- -------- ------ ---- -------<br>---- --- --------- ------- ----- --------- ---- ----- --<br>------ -------- -- ------ -- ---- ------------,283309.5,283308.39999985695,282886.844,282889.5,282895.988,283316.266,,15,science's
screen,html.Screen,2_3_1_0_1_16,2022-05-11T11:20:11.217Z,,,,,,,,,,,,,,,,,19,,,,,,,,,,,,,,462.1339998569456,,response,,,,17,C,,,,,,Space,keypress(Space),,,,instrumental,,,,-------------- --- -------- -------- ---------- ---- -------<br>-- ---------- -- --- ----- ------ ----- ---- --------- best<br>------- ------ -------- -- ------ ---------- ------ ---<br>------ -- -- ---- -- ---------- -------- ------ ---- -------<br>---- --- --------- ------- ----- --------- ---- ----- --<br>------ -------- -- ------ -- ---- ------------,283779.5,283778.39999985695,283296.642,283309.7000000477,283316.266,283786.296,,16,best
screen,html.Screen,2_3_1_0_1_17,2022-05-11T11:20:11.777Z,,,,,,,,,,,,,,,,,19,,,,,,,,,,,,,,552.5039999523433,,response,,,,17,C,,,,,,Space,keypress(Space),,,,instrumental,,,,-------------- --- -------- -------- ---------- ---- -------<br>-- ---------- -- --- ----- ------ ----- ---- --------- ----<br>current ------ -------- -- ------ ---------- ------ ---<br>------ -- -- ---- -- ---------- -------- ------ ---- -------<br>---- --- --------- ------- ----- --------- ---- ----- --<br>------ -------- -- ------ -- ---- ------------,284339.7000000477,284338.7999999523,283766.843,283779.7000000477,283786.296,284346.499,,17,current
screen,html.Screen,2_3_1_0_1_18,2022-05-11T11:20:12.237Z,,,,,,,,,,,,,,,,,19,,,,,,,,,,,,,,452.10099990462186,,response,,,,17,C,,,,,,Space,keypress(Space),,,,instrumental,,,,-------------- --- -------- -------- ---------- ---- -------<br>-- ---------- -- --- ----- ------ ----- ---- --------- ----<br>------- models -------- -- ------ ---------- ------ ---<br>------ -- -- ---- -- ---------- -------- ------ ---- -------<br>---- --- --------- ------- ----- --------- ---- ----- --<br>------ -------- -- ------ -- ---- ------------,284799.7999999523,284798.59999990463,284336.93,284340,284346.499,284806.692,,18,models
screen,html.Screen,2_3_1_0_1_19,2022-05-11T11:20:12.817Z,,,,,,,,,,,,,,,,,19,,,,,,,,,,,,,,572.1079999523354,,response,,,,17,C,,,,,,Space,keypress(Space),,,,instrumental,,,,"-------------- --- -------- -------- ---------- ---- -------<br>-- ---------- -- --- ----- ------ ----- ---- --------- ----<br>------- ------ predict, -- ------ ---------- ------ ---<br>------ -- -- ---- -- ---------- -------- ------ ---- -------<br>---- --- --------- ------- ----- --------- ---- ----- --<br>------ -------- -- ------ -- ---- ------------",285380,285378.7999999523,284797.057,284800,284806.692,285387.215,,19,"predict,"
screen,html.Screen,2_3_1_0_1_20,2022-05-11T11:20:13.348Z,,,,,,,,,,,,,,,,,19,,,,,,,,,,,,,,522.5849999522907,,response,,,,17,C,,,,,,Space,keypress(Space),,,,instrumental,,,,-------------- --- -------- -------- ---------- ---- -------<br>-- ---------- -- --- ----- ------ ----- ---- --------- ----<br>------- ------ -------- so ------ ---------- ------ ---<br>------ -- -- ---- -- ---------- -------- ------ ---- -------<br>---- --- --------- ------- ----- --------- ---- ----- --<br>------ -------- -- ------ -- ---- ------------,285910.7999999523,285909.7999999523,285373.788,285380.5,285387.215,285917.389,,20,so
screen,html.Screen,2_3_1_0_1_21,2022-05-11T11:20:13.907Z,,,,,,,,,,,,,,,,,19,,,,,,,,,,,,,,551.311000047659,,response,,,,17,C,,,,,,Space,keypress(Space),,,,instrumental,,,,-------------- --- -------- -------- ---------- ---- -------<br>-- ---------- -- --- ----- ------ ----- ---- --------- ----<br>------- ------ -------- -- stable ---------- ------ ---<br>------ -- -- ---- -- ---------- -------- ------ ---- -------<br>---- --- --------- ------- ----- --------- ---- ----- --<br>------ -------- -- ------ -- ---- ------------,286469.59999990463,286468.7000000477,285904.501,285910.89999985695,285917.389,286476.174,,21,stable
screen,html.Screen,2_3_1_0_1_22,2022-05-11T11:20:14.597Z,,,,,,,,,,,,,,,,,19,,,,,,,,,,,,,,682.2259998569498,,response,,,,17,C,,,,,,Space,keypress(Space),,,,instrumental,,,,-------------- --- -------- -------- ---------- ---- -------<br>-- ---------- -- --- ----- ------ ----- ---- --------- ----<br>------- ------ -------- -- ------ superheavy ------ ---<br>------ -- -- ---- -- ---------- -------- ------ ---- -------<br>---- --- --------- ------- ----- --------- ---- ----- --<br>------ -------- -- ------ -- ---- ------------,287159.39999985695,287158.39999985695,286468.079,286469.7999999523,286476.174,287166.255,,22,superheavy
screen,html.Screen,2_3_1_0_1_23,2022-05-11T11:20:15.466Z,,,,,,,,,,,,,,,,,19,,,,,,,,,,,,,,861.9450000476791,,response,,,,17,C,,,,,,Space,keypress(Space),,,,instrumental,,,,-------------- --- -------- -------- ---------- ---- -------<br>-- ---------- -- --- ----- ------ ----- ---- --------- ----<br>------- ------ -------- -- ------ ---------- nuclei ---<br>------ -- -- ---- -- ---------- -------- ------ ---- -------<br>---- --- --------- ------- ----- --------- ---- ----- --<br>------ -------- -- ------ -- ---- ------------,288029.39999985695,288028.2000000477,287160.259,287159.7000000477,287166.255,288036.001,,23,nuclei
screen,html.Screen,2_3_1_0_1_24,2022-05-11T11:20:15.966Z,,,,,,,,,,,,,,,,,19,,,,,,,,,,,,,,492.39899985695956,,response,,,,17,C,,,,,,Space,keypress(Space),,,,instrumental,,,,-------------- --- -------- -------- ---------- ---- -------<br>-- ---------- -- --- ----- ------ ----- ---- --------- ----<br>------- ------ -------- -- ------ ---------- ------ are<br>------ -- -- ---- -- ---------- -------- ------ ---- -------<br>---- --- --------- ------- ----- --------- ---- ----- --<br>------ -------- -- ------ -- ---- ------------,288529.2999999523,288528.39999985695,288016.864,288029.59999990463,288036.001,288535.993,,24,are
screen,html.Screen,2_3_1_0_1_25,2022-05-11T11:20:16.516Z,,,,,,,,,,,,,,,,,19,,,,,,,,,,,,,,541.8069999522995,,response,,,,17,C,,,,,,Space,keypress(Space),,,,instrumental,,,,-------------- --- -------- -------- ---------- ---- -------<br>-- ---------- -- --- ----- ------ ----- ---- --------- ----<br>------- ------ -------- -- ------ ---------- ------ ---<br>likely -- -- ---- -- ---------- -------- ------ ---- -------<br>---- --- --------- ------- ----- --------- ---- ----- --<br>------ -------- -- ------ -- ---- ------------,289078.7999999523,289077.7999999523,288519.718,288529.5,288535.993,289085.361,,25,likely
screen,html.Screen,2_3_1_0_1_26,2022-05-11T11:20:17.047Z,,,,,,,,,,,,,,,,,19,,,,,,,,,,,,,,523.3390000477084,,response,,,,17,C,,,,,,Space,keypress(Space),,,,instrumental,,,,-------------- --- -------- -------- ---------- ---- -------<br>-- ---------- -- --- ----- ------ ----- ---- --------- ----<br>------- ------ -------- -- ------ ---------- ------ ---<br>------ to -- ---- -- ---------- -------- ------ ---- -------<br>---- --- --------- ------- ----- --------- ---- ----- --<br>------ -------- -- ------ -- ---- ------------,289609.7999999523,289608.7000000477,289069.992,289078.89999985695,289085.361,289616.653,,26,to
screen,html.Screen,2_3_1_0_1_27,2022-05-11T11:20:17.536Z,,,,,,,,,,,,,,,,,19,,,,,,,,,,,,,,481.4469999046414,,response,,,,17,C,,,,,,Space,keypress(Space),,,,instrumental,,,,-------------- --- -------- -------- ---------- ---- -------<br>-- ---------- -- --- ----- ------ ----- ---- --------- ----<br>------- ------ -------- -- ------ ---------- ------ ---<br>------ -- be ---- -- ---------- -------- ------ ---- -------<br>---- --- --------- ------- ----- --------- ---- ----- --<br>------ -------- -- ------ -- ---- ------------,290099,290098.09999990463,289602.552,289610.09999990463,289616.653,290105.556,,27,be
screen,html.Screen,2_3_1_0_1_28,2022-05-11T11:20:18.027Z,,,,,,,,,,,,,,,,,19,,,,,,,,,,,,,,482.743999952334,,response,,,,17,C,,,,,,Space,keypress(Space),,,,instrumental,,,,-------------- --- -------- -------- ---------- ---- -------<br>-- ---------- -- --- ----- ------ ----- ---- --------- ----<br>------- ------ -------- -- ------ ---------- ------ ---<br>------ -- -- full -- ---------- -------- ------ ---- -------<br>---- --- --------- ------- ----- --------- ---- ----- --<br>------ -------- -- ------ -- ---- ------------,290589.39999985695,290588.2999999523,290083.901,290099.2999999523,290105.556,290596.11,,28,full
screen,html.Screen,2_3_1_0_1_29,2022-05-11T11:20:18.447Z,,,,,,,,,,,,,,,,,19,,,,,,,,,,,,,,412.48999990464654,,response,,,,17,C,,,,,,Space,keypress(Space),,,,instrumental,,,,-------------- --- -------- -------- ---------- ---- -------<br>-- ---------- -- --- ----- ------ ----- ---- --------- ----<br>------- ------ -------- -- ------ ---------- ------ ---<br>------ -- -- ---- of ---------- -------- ------ ---- -------<br>---- --- --------- ------- ----- --------- ---- ----- --<br>------ -------- -- ------ -- ---- ------------,291009.59999990463,291008.59999990463,290589.44,290589.7000000477,290596.11,291016.268,,29,of
screen,html.Screen,2_3_1_0_1_30,2022-05-11T11:20:18.937Z,,,,,,,,,,,,,,,,,19,,,,,,,,,,,,,,482.23200000001816,,response,,,,17,C,,,,,,Space,keypress(Space),,,,instrumental,,,,-------------- --- -------- -------- ---------- ---- -------<br>-- ---------- -- --- ----- ------ ----- ---- --------- ----<br>------- ------ -------- -- ------ ---------- ------ ---<br>------ -- -- ---- -- surprises. -------- ------ ---- -------<br>---- --- --------- ------- ----- --------- ---- ----- --<br>------ -------- -- ------ -- ---- ------------,291499.5,291498.5,290996.644,291009.7999999523,291016.268,291506.194,,30,surprises.
screen,html.Screen,2_3_1_0_1_31,2022-05-11T11:20:19.557Z,,,,,,,,,,,,,,,,,19,,,,,,,,,,,,,,612.4059999046149,,response,,,,17,C,,,,,,Space,keypress(Space),,,,instrumental,,,,-------------- --- -------- -------- ---------- ---- -------<br>-- ---------- -- --- ----- ------ ----- ---- --------- ----<br>------- ------ -------- -- ------ ---------- ------ ---<br>------ -- -- ---- -- ---------- Chemists ------ ---- -------<br>---- --- --------- ------- ----- --------- ---- ----- --<br>------ -------- -- ------ -- ---- ------------,292119.7000000477,292118.59999990463,291500.139,291499.7000000477,291506.194,292126.671,,31,Chemists
screen,html.Screen,2_3_1_0_1_32,2022-05-11T11:20:19.997Z,,,,,,,,,,,,,,,,,19,,,,,,,,,,,,,,431.72899985697586,,response,,,,17,C,,,,,,Space,keypress(Space),,,,instrumental,,,,-------------- --- -------- -------- ---------- ---- -------<br>-- ---------- -- --- ----- ------ ----- ---- --------- ----<br>------- ------ -------- -- ------ ---------- ------ ---<br>------ -- -- ---- -- ---------- -------- cannot ---- -------<br>---- --- --------- ------- ----- --------- ---- ----- --<br>------ -------- -- ------ -- ---- ------------,292559.39999985695,292558.39999985695,292106.869,292119.89999985695,292126.671,292566.184,,32,cannot
screen,html.Screen,2_3_1_0_1_33,2022-05-11T11:20:20.397Z,,,,,,,,,,,,,,,,,19,,,,,,,,,,,,,,392.71599985694047,,response,,,,17,C,,,,,,Space,keypress(Space),,,,instrumental,,,,-------------- --- -------- -------- ---------- ---- -------<br>-- ---------- -- --- ----- ------ ----- ---- --------- ----<br>------- ------ -------- -- ------ ---------- ------ ---<br>------ -- -- ---- -- ---------- -------- ------ even -------<br>---- --- --------- ------- ----- --------- ---- ----- --<br>------ -------- -- ------ -- ---- ------------,292959.89999985695,292958.89999985695,292560.306,292559.7000000477,292566.184,292966.64,,33,even
screen,html.Screen,2_3_1_0_1_34,2022-05-11T11:20:20.787Z,,,,,,,,,,,,,,,,,19,,,,,,,,,,,,,,382.6599999523023,,response,,,,17,C,,,,,,Space,keypress(Space),,,,instrumental,,,,-------------- --- -------- -------- ---------- ---- -------<br>-- ---------- -- --- ----- ------ ----- ---- --------- ----<br>------- ------ -------- -- ------ ---------- ------ ---<br>------ -- -- ---- -- ---------- -------- ------ ---- predict<br>---- --- --------- ------- ----- --------- ---- ----- --<br>------ -------- -- ------ -- ---- ------------,293350.2999999523,293349.2999999523,292950.044,292960.2000000477,292966.64,293357.116,,34,predict
screen,html.Screen,2_3_1_0_1_35,2022-05-11T11:20:21.308Z,,,,,,,,,,,,,,,,,19,,,,,,,,,,,,,,512.4839999046526,,response,,,,17,C,,,,,,Space,keypress(Space),,,,instrumental,,,,-------------- --- -------- -------- ---------- ---- -------<br>-- ---------- -- --- ----- ------ ----- ---- --------- ----<br>------- ------ -------- -- ------ ---------- ------ ---<br>------ -- -- ---- -- ---------- -------- ------ ---- -------<br>with --- --------- ------- ----- --------- ---- ----- --<br>------ -------- -- ------ -- ---- ------------,293870.7999999523,293869.59999990463,293350.322,293350.5,293357.116,293877.77,,35,with
screen,html.Screen,2_3_1_0_1_36,2022-05-11T11:20:21.738Z,,,,,,,,,,,,,,,,,19,,,,,,,,,,,,,,421.82999990461394,,response,,,,17,C,,,,,,Space,keypress(Space),,,,instrumental,,,,-------------- --- -------- -------- ---------- ---- -------<br>-- ---------- -- --- ----- ------ ----- ---- --------- ----<br>------- ------ -------- -- ------ ---------- ------ ---<br>------ -- -- ---- -- ---------- -------- ------ ---- -------<br>---- any --------- ------- ----- --------- ---- ----- --<br>------ -------- -- ------ -- ---- ------------,294300.7999999523,294299.59999990463,293857.693,293871,293877.77,294307.795,,36,any
screen,html.Screen,2_3_1_0_1_37,2022-05-11T11:20:22.237Z,,,,,,,,,,,,,,,,,19,,,,,,,,,,,,,,491.30499990464887,,response,,,,17,C,,,,,,Space,keypress(Space),,,,instrumental,,,,-------------- --- -------- -------- ---------- ---- -------<br>-- ---------- -- --- ----- ------ ----- ---- --------- ----<br>------- ------ -------- -- ------ ---------- ------ ---<br>------ -- -- ---- -- ---------- -------- ------ ---- -------<br>---- --- certainty ------- ----- --------- ---- ----- --<br>------ -------- -- ------ -- ---- ------------,294800.2000000477,294799.09999990463,294294.755,294301.09999990463,294307.795,294806.899,,37,certainty
screen,html.Screen,2_3_1_0_1_38,2022-05-11T11:20:22.708Z,,,,,,,,,,,,,,,,,19,,,,,,,,,,,,,,462.9009999523405,,response,,,,17,C,,,,,,Space,keypress(Space),,,,instrumental,,,,-------------- --- -------- -------- ---------- ---- -------<br>-- ---------- -- --- ----- ------ ----- ---- --------- ----<br>------- ------ -------- -- ------ ---------- ------ ---<br>------ -- -- ---- -- ---------- -------- ------ ---- -------<br>---- --- --------- whether ----- --------- ---- ----- --<br>------ -------- -- ------ -- ---- ------------,295270.89999985695,295269.7999999523,294791.753,294800.5,294806.899,295277.783,,38,whether
