sender,sender_type,sender_id,timestamp,meta,,Blues,Classical,Country,Dance,Electronic,Folk,Gospel,Hip-Hop,Jazz,Latin,Musical/Film,New-age,Pop,Prolific_id,Provo_ID,R&B,Rap,Reggae,Religious,Rock,Soul,Swing,Traditional,age,artist_name,correct,correctResponse,distraction,duration,education,ended_on,familiarity,gender,headphone_check_performance,item,list,music_frequency,offensiveness,pleasantness,position_correct,preference,response,response_action,snippet_file,song_name,song_rating,sound,stimulus_1,stimulus_2,stimulus_3,text,time_commit,time_end,time_render,time_run,time_show,time_switch,url,word,word_ID
Prolific ID,html.Form,0,2022-05-12T14:02:47.517Z,"{""labjs_version"":""20.2.2"",""labjs_build"":{""flavor"":""production"",""commit"":""a25486e0c714a0ae2ce03ff94b7bb6896854dcfa""},""location"":""https://run.pavlovia.org/mvasilev/prolific3_music_d/"",""userAgent"":""Mozilla/5.0 (Windows NT 10.0; Win64; x64; rv:100.0) Gecko/20100101 Firefox/100.0"",""platform"":""Win32"",""language"":""en-US"",""locale"":""en-GB"",""timeZone"":""Europe/London"",""timezoneOffset"":-60,""screen_width"":1824,""screen_height"":1026,""scroll_width"":1824,""scroll_height"":856,""window_innerWidth"":1824,""window_innerHeight"":904,""devicePixelRatio"":1.0526315789473684}",,,,,,,,,,,,,,,615f338fdbb7744db42e0f7f,,,,,,,,,,,,,,,7423.119999999999,,form submission,,,,,,,,,,,,,,,,,,,,,35976,35975,28535.76,28535,28551.88,35981.84,{},,
Introduction,html.Screen,1_0,2022-05-12T14:02:53.146Z,,,,,,,,,,,,,,,,,,,,,,,,,,,,,,,5606.1600000000035,,response,,,,,,,,,,,continue,click button,,,,,,,,,41604,41588,35970.4,35977,35981.84,41612.66,,,
Volume calibration,html.Screen,1_1,2022-05-12T14:03:22.154Z,,,,,,,,,,,,,,,,,,,,,,,,,,,,,,,28991.339999999997,,response,,,,,,,,,,,continue,click button,,,,,,,,,70612,70604,41602.5,41604,41612.66,70616,,,
Task instructions,html.Screen,1_2,2022-05-12T14:03:33.107Z,,,,,,,,,,,,,,,,,,,,,,,,,,,,,,,10942,,response,,,,,,,,,,,continue,click button,,,,,,,,,81566,81558,70610.22,70612,70616,81578.28,,,
Sounds,html.Screen,1_3_0_0,2022-05-12T14:03:37.352Z,,,,,,,,,,,,,,,,,,,,,,,,,,,,,,,4247.520000000004,,timeout,,,,,,,,,3,,,,,,,,O,I,S,,85810,85809.14,81564.26,81567,81578.28,85825.8,,,
Judgement,html.Screen,1_3_0_1,2022-05-12T14:03:38.045Z,,,,,,,,,,,,,,,,,,,,,,,,,,,,true,3,,669.1999999999971,,response,,,,,,,,,3,,3,click #choice-3,,,,,O,I,S,,86503,86495,85809.14,85811,85825.8,86508.82,,,
Trial,flow.Sequence,1_3_0,2022-05-12T14:03:38.045Z,,,,,,,,,,,,,,,,,,,,,,,,,,,,,,,4916.720000000001,,completion,,,,,,,,,3,,,,,,,,O,I,S,,86503,86495,81564.26,81567,81578.28,86508.82,,,
Sounds,html.Screen,1_3_1_0,2022-05-12T14:03:42.282Z,,,,,,,,,,,,,,,,,,,,,,,,,,,,,,,4248.059999999998,,timeout,,,,,,,,,3,,,,,,,,I,O,S,,90741,90740.22,86502.26,86504,86508.82,90756.88,,,
Judgement,html.Screen,1_3_1_1,2022-05-12T14:03:42.775Z,,,,,,,,,,,,,,,,,,,,,,,,,,,,true,3,,473.11999999999534,,response,,,,,,,,,3,,3,click #choice-3,,,,,I,O,S,,91233,91230,90740.22,90741,90756.88,91239.98,,,
Trial,flow.Sequence,1_3_1,2022-05-12T14:03:42.776Z,,,,,,,,,,,,,,,,,,,,,,,,,,,,,,,4721.179999999993,,completion,,,,,,,,,3,,,,,,,,I,O,S,,91234,91230,86502.26,86504,86508.82,91239.98,,,
Sounds,html.Screen,1_3_2_0,2022-05-12T14:03:47.015Z,,,,,,,,,,,,,,,,,,,,,,,,,,,,,,,4248.059999999998,,timeout,,,,,,,,,1,,,,,,,,S,O,I,,95472,95471.38,91232.26,91234,91239.98,95488.04,,,
Judgement,html.Screen,1_3_2_1,2022-05-12T14:03:47.549Z,,,,,,,,,,,,,,,,,,,,,,,,,,,,true,1,,505.9600000000064,,response,,,,,,,,,1,,1,click #choice-1,,,,,S,O,I,,96007,95994,95471.38,95473,95488.04,96021.14,,,
Trial,flow.Sequence,1_3_2,2022-05-12T14:03:47.549Z,,,,,,,,,,,,,,,,,,,,,,,,,,,,,,,4754.020000000004,,completion,,,,,,,,,1,,,,,,,,S,O,I,,96008,95994,91232.26,91234,91239.98,96021.14,,,
Sounds,html.Screen,1_3_3_0,2022-05-12T14:03:51.795Z,,,,,,,,,,,,,,,,,,,,,,,,,,,,,,,4248.039999999994,,timeout,,,,,,,,,2,,,,,,,,I,S,O,,100253,100252.52,96006.28,96008,96021.14,100269.18,,,
Judgement,html.Screen,1_3_3_1,2022-05-12T14:03:52.205Z,,,,,,,,,,,,,,,,,,,,,,,,,,,,true,2,,380.820000000007,,response,,,,,,,,,2,,2,click #choice-2,,,,,I,S,O,,100663,100650,100252.52,100253,100269.18,100669,,,
Trial,flow.Sequence,1_3_3,2022-05-12T14:03:52.205Z,,,,,,,,,,,,,,,,,,,,,,,,,,,,,,,4628.860000000001,,completion,,,,,,,,,2,,,,,,,,I,S,O,,100663,100650,96006.28,96008,96021.14,100669,,,
Sounds,html.Screen,1_3_4_0,2022-05-12T14:03:56.443Z,,,,,,,,,,,,,,,,,,,,,,,,,,,,,,,4248.080000000002,,timeout,,,,,,,,,1,,,,,,,,S,I,O,,104901,104900.42,100662.28,100663,100669,104917.08,,,
Judgement,html.Screen,1_3_4_1,2022-05-12T14:03:56.852Z,,,,,,,,,,,,,,,,,,,,,,,,,,,,true,1,,389.91999999999825,,response,,,,,,,,,1,,1,click #choice-1,,,,,S,I,O,,105311,105307,104900.42,104901,104917.08,105316.92,,,
Trial,flow.Sequence,1_3_4,2022-05-12T14:03:56.852Z,,,,,,,,,,,,,,,,,,,,,,,,,,,,,,,4638,,completion,,,,,,,,,1,,,,,,,,S,I,O,,105311,105307,100662.28,100663,100669,105316.92,,,
Sounds,html.Screen,1_3_5_0,2022-05-12T14:04:01.091Z,,,,,,,,,,,,,,,,,,,,,,,,,,,,,,,4248.040000000008,,timeout,,,,,,,,,2,,,,,,,,O,S,I,,109549,109548.3,105310.28,105311,105316.92,109564.96,,,
Judgement,html.Screen,1_3_5_1,2022-05-12T14:04:01.503Z,,,,,,,,,,,,,,,,,,,,,,,,,,,,true,2,,383.0399999999936,,response,,,,,,,,,2,,2,click #choice-2,,,,,O,S,I,,109961,109948,109548.3,109549,109564.96,109964.76,,,
Trial,flow.Sequence,1_3_5,2022-05-12T14:04:01.503Z,,,,,,,,,,,,,,,,,,,,,,,,,,,,,,,4631.080000000002,,completion,,,,,,,,,2,,,,,,,,O,S,I,,109961,109948,105310.28,105311,105316.92,109964.76,,,
Task,flow.Loop,1_3,2022-05-12T14:04:01.504Z,,,,,,,,,,,,,,,,,,,,,,,,,,,,,,,28369.72,,completion,,,1,,,,,,,,,,,,,,,,,,109962,109948,81564.26,81567,81578.28,109964.76,,,
Trap,html.Screen,1_4,2022-05-12T14:04:01.507Z,,,,,,,,,,,,,,,,,,,,,,,,,,,,,,,NaN,,skipped,,,,,,,,,,,,,,,,,,,,,109965,109948,,109964,,109964.76,,,
Thanks,html.Screen,1_5,2022-05-12T14:04:06.589Z,,,,,,,,,,,,,,,,,,,,,,,,,,,,,,,5077.240000000005,,response,,,,,,,,,,,continue,click button,,,,,,,,,115047,115042,109960.2,109966,109964.76,117527.96,,,
Headphone screening,flow.Sequence,1,2022-05-12T14:04:06.589Z,,,,,,,,,,,,,,,,,,,,,,,,,,,,,,,79060.16,,completion,,,,,,,,,,,,,,,,,,,,,115047,115042,35970.4,35977,35981.84,117527.96,,,
Instructions,html.Page,2_0,2022-05-12T14:04:27.782Z,,,,,,,,,,,,,,,,,,,,,,,,,,,,,,,18711.039999999994,,form submission,,,,,,,,,,,,,,,,,,,,,136240,136239,117519.46,117519,117527.96,136252.8,,,
Holding screen,html.Screen,2_1_0_0,2022-05-12T14:04:37.774Z,,,,,,,,,,,,,,,,,,,,,,,,,,,,,,,9995.48000000001,,timeout,,,,,,,,,,,,,,,,,,,,,146232,146231.64,136236.36,136240,136252.8,146248.28,,,
screen,html.Screen,2_1_0_1_0,2022-05-12T14:04:38.718Z,,,,,,,,,,,,,,,,,53,,,,,,,,,,,,,,917.7200000000012,,response,,,,99,,,,,,,Space,keypress(Space),,,,,,,,When -- ----- -- ------ - ------- --- ----------<br>------------- ------ ------ ---- ---- ------- ----- -- ----<br>-------- ------- -- ---------- --- - --- ----- ----- ----<br>---- --- --- ----- --- ---- ---- ------- ----- ---- -------<br>--- --- -- ----- -- --- ---- -- --- ---- -- ------ ------<br>--- ----- -- ----,147177,147166,146231.64,146232,146248.28,147177.02,,0,When
screen,html.Screen,2_1_0_1_1,2022-05-12T14:04:39.006Z,,,,,,,,,,,,,,,,,53,,,,,,,,,,,,,,270.9800000000105,,response,,,,99,,,,,,,Space,keypress(Space),,,,,,,,---- it ----- -- ------ - ------- --- ----------<br>------------- ------ ------ ---- ---- ------- ----- -- ----<br>-------- ------- -- ---------- --- - --- ----- ----- ----<br>---- --- --- ----- --- ---- ---- ------- ----- ---- -------<br>--- --- -- ----- -- --- ---- -- --- ---- -- ------ ------<br>--- ----- -- ----,147463,147448,147176.78,147177,147177.02,147464.22,,1,it
screen,html.Screen,2_1_0_1_2,2022-05-12T14:04:39.309Z,,,,,,,,,,,,,,,,,53,,,,,,,,,,,,,,296.77999999999884,,response,,,,99,,,,,,,Space,keypress(Space),,,,,,,,---- -- comes -- ------ - ------- --- ----------<br>------------- ------ ------ ---- ---- ------- ----- -- ----<br>-------- ------- -- ---------- --- - --- ----- ----- ----<br>---- --- --- ----- --- ---- ---- ------- ----- ---- -------<br>--- --- -- ----- -- --- ---- -- --- ---- -- ------ ------<br>--- ----- -- ----,147767,147761,147464.06,147464,147464.22,147767.38,,2,comes
screen,html.Screen,2_1_0_1_3,2022-05-12T14:04:39.501Z,,,,,,,,,,,,,,,,,53,,,,,,,,,,,,,,179.61999999999534,,response,,,,99,,,,,,,Space,keypress(Space),,,,,,,,---- -- ----- to ------ - ------- --- ----------<br>------------- ------ ------ ---- ---- ------- ----- -- ----<br>-------- ------- -- ---------- --- - --- ----- ----- ----<br>---- --- --- ----- --- ---- ---- ------- ----- ---- -------<br>--- --- -- ----- -- --- ---- -- --- ---- -- ------ ------<br>--- ----- -- ----,147959,147947,147767.22,147767,147767.38,147964.14,,3,to
screen,html.Screen,2_1_0_1_4,2022-05-12T14:04:39.771Z,,,,,,,,,,,,,,,,,53,,,,,,,,,,,,,,249.85999999998603,,response,,,,99,,,,,,,Space,keypress(Space),,,,,,,,---- -- ----- -- having - ------- --- ----------<br>------------- ------ ------ ---- ---- ------- ----- -- ----<br>-------- ------- -- ---------- --- - --- ----- ----- ----<br>---- --- --- ----- --- ---- ---- ------- ----- ---- -------<br>--- --- -- ----- -- --- ---- -- --- ---- -- ------ ------<br>--- ----- -- ----,148229,148214,147959.36,147959,147964.14,148229.22,,4,having
screen,html.Screen,2_1_0_1_5,2022-05-12T14:04:39.978Z,,,,,,,,,,,,,,,,,53,,,,,,,,,,,,,,202.77999999999884,,response,,,,99,,,,,,,Space,keypress(Space),,,,,,,,---- -- ----- -- ------ a ------- --- ----------<br>------------- ------ ------ ---- ---- ------- ----- -- ----<br>-------- ------- -- ---------- --- - --- ----- ----- ----<br>---- --- --- ----- --- ---- ---- ------- ----- ---- -------<br>--- --- -- ----- -- --- ---- -- --- ---- -- ------ ------<br>--- ----- -- ----,148436,148432,148229.04,148229,148229.22,148447.26,,5,a
screen,html.Screen,2_1_0_1_6,2022-05-12T14:04:40.220Z,,,,,,,,,,,,,,,,,53,,,,,,,,,,,,,,219.7399999999907,,response,,,,99,,,,,,,Space,keypress(Space),,,,,,,,---- -- ----- -- ------ - lasting --- ----------<br>------------- ------ ------ ---- ---- ------- ----- -- ----<br>-------- ------- -- ---------- --- - --- ----- ----- ----<br>---- --- --- ----- --- ---- ---- ------- ----- ---- -------<br>--- --- -- ----- -- --- ---- -- --- ---- -- ------ ------<br>--- ----- -- ----,148679,148667,148436.24,148436,148447.26,148678.86,,6,lasting
screen,html.Screen,2_1_0_1_7,2022-05-12T14:04:40.589Z,,,,,,,,,,,,,,,,,53,,,,,,,,,,,,,,362.14000000001397,,response,,,,99,,,,,,,Space,keypress(Space),,,,,,,,---- -- ----- -- ------ - ------- and ----------<br>------------- ------ ------ ---- ---- ------- ----- -- ----<br>-------- ------- -- ---------- --- - --- ----- ----- ----<br>---- --- --- ----- --- ---- ---- ------- ----- ---- -------<br>--- --- -- ----- -- --- ---- -- --- ---- -- ------ ------<br>--- ----- -- ----,149047,149041,148678.7,148679,148678.86,149047.22,,7,and
screen,html.Screen,2_1_0_1_8,2022-05-12T14:04:40.780Z,,,,,,,,,,,,,,,,,53,,,,,,,,,,,,,,181.77999999999884,,response,,,,99,,,,,,,Space,keypress(Space),,,,,,,,---- -- ----- -- ------ - ------- --- fulfilling<br>------------- ------ ------ ---- ---- ------- ----- -- ----<br>-------- ------- -- ---------- --- - --- ----- ----- ----<br>---- --- --- ----- --- ---- ---- ------- ----- ---- -------<br>--- --- -- ----- -- --- ---- -- --- ---- -- ------ ------<br>--- ----- -- ----,149239,149229,149047.02,149047,149047.22,149246.88,,8,fulfilling
screen,html.Screen,2_1_0_1_9,2022-05-12T14:04:41.120Z,,,,,,,,,,,,,,,,,53,,,,,,,,,,,,,,326.11999999999534,,response,,,,99,,,,,,,Space,keypress(Space),,,,,,,,"---- -- ----- -- ------ - ------- --- ----------<br>relationship, ------ ------ ---- ---- ------- ----- -- ----<br>-------- ------- -- ---------- --- - --- ----- ----- ----<br>---- --- --- ----- --- ---- ---- ------- ----- ---- -------<br>--- --- -- ----- -- --- ---- -- --- ---- -- ------ ------<br>--- ----- -- ----",149579,149573,149239.02,149239,149246.88,149579.14,,9,"relationship,"
screen,html.Screen,2_1_0_1_10,2022-05-12T14:04:41.493Z,,,,,,,,,,,,,,,,,53,,,,,,,,,,,,,,368.85999999998603,,response,,,,99,,,,,,,Space,keypress(Space),,,,,,,,---- -- ----- -- ------ - ------- --- ----------<br>------------- common ------ ---- ---- ------- ----- -- ----<br>-------- ------- -- ---------- --- - --- ----- ----- ----<br>---- --- --- ----- --- ---- ---- ------- ----- ---- -------<br>--- --- -- ----- -- --- ---- -- --- ---- -- ------ ------<br>--- ----- -- ----,149951,149948,149578.96,149579,149579.14,149951.8,,10,common
screen,html.Screen,2_1_0_1_11,2022-05-12T14:04:41.557Z,,,,,,,,,,,,,,,,,53,,,,,,,,,,,,,,58.20000000001164,,response,,,,99,,,,,,,Space,keypress(Space),,,,,,,,---- -- ----- -- ------ - ------- --- ----------<br>------------- ------ wisdom ---- ---- ------- ----- -- ----<br>-------- ------- -- ---------- --- - --- ----- ----- ----<br>---- --- --- ----- --- ---- ---- ------- ----- ---- -------<br>--- --- -- ----- -- --- ---- -- --- ---- -- ------ ------<br>--- ----- -- ----,150016,150010,149951.62,149952,149951.8,150029.86,,11,wisdom
screen,html.Screen,2_1_0_1_12,2022-05-12T14:04:42.273Z,,,,,,,,,,,,,,,,,53,,,,,,,,,,,,,,699.140000000014,,response,,,,99,,,,,,,Space,keypress(Space),,,,,,,,---- -- ----- -- ------ - ------- --- ----------<br>------------- ------ ------ says ---- ------- ----- -- ----<br>-------- ------- -- ---------- --- - --- ----- ----- ----<br>---- --- --- ----- --- ---- ---- ------- ----- ---- -------<br>--- --- -- ----- -- --- ---- -- --- ---- -- ------ ------<br>--- ----- -- ----,150731,150729,150015.58,150016,150029.86,150731.4,,12,says
screen,html.Screen,2_1_0_1_13,2022-05-12T14:04:42.681Z,,,,,,,,,,,,,,,,,53,,,,,,,,,,,,,,403.6000000000058,,response,,,,99,,,,,,,Space,keypress(Space),,,,,,,,---- -- ----- -- ------ - ------- --- ----------<br>------------- ------ ------ ---- that ------- ----- -- ----<br>-------- ------- -- ---------- --- - --- ----- ----- ----<br>---- --- --- ----- --- ---- ---- ------- ----- ---- -------<br>--- --- -- ----- -- --- ---- -- --- ---- -- ------ ------<br>--- ----- -- ----,151139,151135,150731.24,150731,150731.4,151139.58,,13,that
screen,html.Screen,2_1_0_1_14,2022-05-12T14:04:43.024Z,,,,,,,,,,,,,,,,,53,,,,,,,,,,,,,,339.4200000000128,,response,,,,99,,,,,,,Space,keypress(Space),,,,,,,,---- -- ----- -- ------ - ------- --- ----------<br>------------- ------ ------ ---- ---- feeling ----- -- ----<br>-------- ------- -- ---------- --- - --- ----- ----- ----<br>---- --- --- ----- --- ---- ---- ------- ----- ---- -------<br>--- --- -- ----- -- --- ---- -- --- ---- -- ------ ------<br>--- ----- -- ----,151482,151479,151139.44,151139,151139.58,151482.22,,14,feeling
screen,html.Screen,2_1_0_1_15,2022-05-12T14:04:43.365Z,,,,,,,,,,,,,,,,,53,,,,,,,,,,,,,,324.77999999999884,,response,,,,99,,,,,,,Space,keypress(Space),,,,,,,,---- -- ----- -- ------ - ------- --- ----------<br>------------- ------ ------ ---- ---- ------- close -- ----<br>-------- ------- -- ---------- --- - --- ----- ----- ----<br>---- --- --- ----- --- ---- ---- ------- ----- ---- -------<br>--- --- -- ----- -- --- ---- -- --- ---- -- ------ ------<br>--- ----- -- ----,151824,151807,151482.06,151482,151482.22,151823.92,,15,close
screen,html.Screen,2_1_0_1_16,2022-05-12T14:04:43.666Z,,,,,,,,,,,,,,,,,53,,,,,,,,,,,,,,295.0799999999872,,response,,,,99,,,,,,,Space,keypress(Space),,,,,,,,---- -- ----- -- ------ - ------- --- ----------<br>------------- ------ ------ ---- ---- ------- ----- to ----<br>-------- ------- -- ---------- --- - --- ----- ----- ----<br>---- --- --- ----- --- ---- ---- ------- ----- ---- -------<br>--- --- -- ----- -- --- ---- -- --- ---- -- ------ ------<br>--- ----- -- ----,152124,152119,151823.78,151824,151823.92,152124.52,,16,to
screen,html.Screen,2_1_0_1_17,2022-05-12T14:04:44.016Z,,,,,,,,,,,,,,,,,53,,,,,,,,,,,,,,338.4800000000105,,response,,,,99,,,,,,,Space,keypress(Space),,,,,,,,---- -- ----- -- ------ - ------- --- ----------<br>------------- ------ ------ ---- ---- ------- ----- -- your<br>-------- ------- -- ---------- --- - --- ----- ----- ----<br>---- --- --- ----- --- ---- ---- ------- ----- ---- -------<br>--- --- -- ----- -- --- ---- -- --- ---- -- ------ ------<br>--- ----- -- ----,152474,152463,152124.36,152124,152124.52,152474.28,,17,your
screen,html.Screen,2_1_0_1_18,2022-05-12T14:04:44.322Z,,,,,,,,,,,,,,,,,53,,,,,,,,,,,,,,300.72000000000116,,response,,,,99,,,,,,,Space,keypress(Space),,,,,,,,---- -- ----- -- ------ - ------- --- ----------<br>------------- ------ ------ ---- ---- ------- ----- -- ----<br>romantic ------- -- ---------- --- - --- ----- ----- ----<br>---- --- --- ----- --- ---- ---- ------- ----- ---- -------<br>--- --- -- ----- -- --- ---- -- --- ---- -- ------ ------<br>--- ----- -- ----,152780,152775,152474.14,152474,152474.28,152780.68,,18,romantic
screen,html.Screen,2_1_0_1_19,2022-05-12T14:04:44.631Z,,,,,,,,,,,,,,,,,53,,,,,,,,,,,,,,292.320000000007,,response,,,,99,,,,,,,Space,keypress(Space),,,,,,,,---- -- ----- -- ------ - ------- --- ----------<br>------------- ------ ------ ---- ---- ------- ----- -- ----<br>-------- partner -- ---------- --- - --- ----- ----- ----<br>---- --- --- ----- --- ---- ---- ------- ----- ---- -------<br>--- --- -- ----- -- --- ---- -- --- ---- -- ------ ------<br>--- ----- -- ----,153089,153073,152780.52,152780,152780.68,153089.52,,19,partner
screen,html.Screen,2_1_0_1_20,2022-05-12T14:04:44.928Z,,,,,,,,,,,,,,,,,53,,,,,,,,,,,,,,280.4800000000105,,response,,,,99,,,,,,,Space,keypress(Space),,,,,,,,---- -- ----- -- ------ - ------- --- ----------<br>------------- ------ ------ ---- ---- ------- ----- -- ----<br>-------- ------- is ---------- --- - --- ----- ----- ----<br>---- --- --- ----- --- ---- ---- ------- ----- ---- -------<br>--- --- -- ----- -- --- ---- -- --- ---- -- ------ ------<br>--- ----- -- ----,153386,153370,153089.34,153089,153089.52,153386.4,,20,is
screen,html.Screen,2_1_0_1_21,2022-05-12T14:04:45.217Z,,,,,,,,,,,,,,,,,53,,,,,,,,,,,,,,279.6000000000058,,response,,,,99,,,,,,,Space,keypress(Space),,,,,,,,---- -- ----- -- ------ - ------- --- ----------<br>------------- ------ ------ ---- ---- ------- ----- -- ----<br>-------- ------- -- paramount. --- - --- ----- ----- ----<br>---- --- --- ----- --- ---- ---- ------- ----- ---- -------<br>--- --- -- ----- -- --- ---- -- --- ---- -- ------ ------<br>--- ----- -- ----,153675,153666,153386.28,153387,153386.4,153675.8,,21,paramount.
screen,html.Screen,2_1_0_1_22,2022-05-12T14:04:45.558Z,,,,,,,,,,,,,,,,,53,,,,,,,,,,,,,,335.20000000001164,,response,,,,99,,,,,,,Space,keypress(Space),,,,,,,,---- -- ----- -- ------ - ------- --- ----------<br>------------- ------ ------ ---- ---- ------- ----- -- ----<br>-------- ------- -- ---------- But - --- ----- ----- ----<br>---- --- --- ----- --- ---- ---- ------- ----- ---- -------<br>--- --- -- ----- -- --- ---- -- --- ---- -- ------ ------<br>--- ----- -- ----,154016,154011,153675.62,153676,153675.8,154016.36,,22,But
screen,html.Screen,2_1_0_1_23,2022-05-12T14:04:45.864Z,,,,,,,,,,,,,,,,,53,,,,,,,,,,,,,,290.64000000001397,,response,,,,99,,,,,,,Space,keypress(Space),,,,,,,,---- -- ----- -- ------ - ------- --- ----------<br>------------- ------ ------ ---- ---- ------- ----- -- ----<br>-------- ------- -- ---------- --- a --- ----- ----- ----<br>---- --- --- ----- --- ---- ---- ------- ----- ---- -------<br>--- --- -- ----- -- --- ---- -- --- ---- -- ------ ------<br>--- ----- -- ----,154322,154307,154016.2,154016,154016.36,154322.94,,23,a
screen,html.Screen,2_1_0_1_24,2022-05-12T14:04:46.150Z,,,,,,,,,,,,,,,,,53,,,,,,,,,,,,,,282.0599999999977,,response,,,,99,,,,,,,Space,keypress(Space),,,,,,,,---- -- ----- -- ------ - ------- --- ----------<br>------------- ------ ------ ---- ---- ------- ----- -- ----<br>-------- ------- -- ---------- --- - new ----- ----- ----<br>---- --- --- ----- --- ---- ---- ------- ----- ---- -------<br>--- --- -- ----- -- --- ---- -- --- ---- -- ------ ------<br>--- ----- -- ----,154608,154605,154322.76,154322,154322.94,154608.88,,24,new
screen,html.Screen,2_1_0_1_25,2022-05-12T14:04:46.373Z,,,,,,,,,,,,,,,,,53,,,,,,,,,,,,,,214.11999999999534,,response,,,,99,,,,,,,Space,keypress(Space),,,,,,,,---- -- ----- -- ------ - ------- --- ----------<br>------------- ------ ------ ---- ---- ------- ----- -- ----<br>-------- ------- -- ---------- --- - --- study ----- ----<br>---- --- --- ----- --- ---- ---- ------- ----- ---- -------<br>--- --- -- ----- -- --- ---- -- --- ---- -- ------ ------<br>--- ----- -- ----,154830,154823,154608.7,154608,154608.88,154831.24,,25,study
screen,html.Screen,2_1_0_1_26,2022-05-12T14:04:46.667Z,,,,,,,,,,,,,,,,,53,,,,,,,,,,,,,,287.7600000000093,,response,,,,99,,,,,,,Space,keypress(Space),,,,,,,,---- -- ----- -- ------ - ------- --- ----------<br>------------- ------ ------ ---- ---- ------- ----- -- ----<br>-------- ------- -- ---------- --- - --- ----- finds ----<br>---- --- --- ----- --- ---- ---- ------- ----- ---- -------<br>--- --- -- ----- -- --- ---- -- --- ---- -- ------ ------<br>--- ----- -- ----,155125,155119,154831.02,154830,154831.24,155125.02,,26,finds
screen,html.Screen,2_1_0_1_27,2022-05-12T14:04:46.927Z,,,,,,,,,,,,,,,,,53,,,,,,,,,,,,,,243.98000000001048,,response,,,,99,,,,,,,Space,keypress(Space),,,,,,,,---- -- ----- -- ------ - ------- --- ----------<br>------------- ------ ------ ---- ---- ------- ----- -- ----<br>-------- ------- -- ---------- --- - --- ----- ----- that<br>---- --- --- ----- --- ---- ---- ------- ----- ---- -------<br>--- --- -- ----- -- --- ---- -- --- ---- -- ------ ------<br>--- ----- -- ----,155385,155369,155124.86,155125,155125.02,155385.5,,27,that
screen,html.Screen,2_1_0_1_28,2022-05-12T14:04:47.205Z,,,,,,,,,,,,,,,,,53,,,,,,,,,,,,,,265.5,,response,,,,99,,,,,,,Space,keypress(Space),,,,,,,,---- -- ----- -- ------ - ------- --- ----------<br>------------- ------ ------ ---- ---- ------- ----- -- ----<br>-------- ------- -- ---------- --- - --- ----- ----- ----<br>it's --- --- ----- --- ---- ---- ------- ----- ---- -------<br>--- --- -- ----- -- --- ---- -- --- ---- -- ------ ------<br>--- ----- -- ----,155663,155651,155385.34,155385,155385.5,155663.38,,28,it's
screen,html.Screen,2_1_0_1_29,2022-05-12T14:04:47.597Z,,,,,,,,,,,,,,,,,53,,,,,,,,,,,,,,377.61999999999534,,response,,,,99,,,,,,,Space,keypress(Space),,,,,,,,---- -- ----- -- ------ - ------- --- ----------<br>------------- ------ ------ ---- ---- ------- ----- -- ----<br>-------- ------- -- ---------- --- - --- ----- ----- ----<br>---- not --- ----- --- ---- ---- ------- ----- ---- -------<br>--- --- -- ----- -- --- ---- -- --- ---- -- ------ ------<br>--- ----- -- ----,156055,156041,155663.2,155663,155663.38,156055.4,,29,not
screen,html.Screen,2_1_0_1_30,2022-05-12T14:04:47.824Z,,,,,,,,,,,,,,,,,53,,,,,,,,,,,,,,220.60000000000582,,response,,,,99,,,,,,,Space,keypress(Space),,,,,,,,---- -- ----- -- ------ - ------- --- ----------<br>------------- ------ ------ ---- ---- ------- ----- -- ----<br>-------- ------- -- ---------- --- - --- ----- ----- ----<br>---- --- how ----- --- ---- ---- ------- ----- ---- -------<br>--- --- -- ----- -- --- ---- -- --- ---- -- ------ ------<br>--- ----- -- ----,156281,156276,156055.22,156055,156055.4,156281.56,,30,how
screen,html.Screen,2_1_0_1_31,2022-05-12T14:04:48.088Z,,,,,,,,,,,,,,,,,53,,,,,,,,,,,,,,259.4400000000023,,response,,,,99,,,,,,,Space,keypress(Space),,,,,,,,---- -- ----- -- ------ - ------- --- ----------<br>------------- ------ ------ ---- ---- ------- ----- -- ----<br>-------- ------- -- ---------- --- - --- ----- ----- ----<br>---- --- --- close --- ---- ---- ------- ----- ---- -------<br>--- --- -- ----- -- --- ---- -- --- ---- -- ------ ------<br>--- ----- -- ----,156547,156541,156281.42,156281,156281.56,156546.56,,31,close
screen,html.Screen,2_1_0_1_32,2022-05-12T14:04:48.331Z,,,,,,,,,,,,,,,,,53,,,,,,,,,,,,,,228.44000000000233,,response,,,,99,,,,,,,Space,keypress(Space),,,,,,,,---- -- ----- -- ------ - ------- --- ----------<br>------------- ------ ------ ---- ---- ------- ----- -- ----<br>-------- ------- -- ---------- --- - --- ----- ----- ----<br>---- --- --- ----- you ---- ---- ------- ----- ---- -------<br>--- --- -- ----- -- --- ---- -- --- ---- -- ------ ------<br>--- ----- -- ----,156789,156775,156546.42,156547,156546.56,156789.54,,32,you
screen,html.Screen,2_1_0_1_33,2022-05-12T14:04:48.602Z,,,,,,,,,,,,,,,,,53,,,,,,,,,,,,,,267.45999999999185,,response,,,,99,,,,,,,Space,keypress(Space),,,,,,,,---- -- ----- -- ------ - ------- --- ----------<br>------------- ------ ------ ---- ---- ------- ----- -- ----<br>-------- ------- -- ---------- --- - --- ----- ----- ----<br>---- --- --- ----- --- feel ---- ------- ----- ---- -------<br>--- --- -- ----- -- --- ---- -- --- ---- -- ------ ------<br>--- ----- -- ----,157061,157057,156789.42,156789,156789.54,157061.24,,33,feel
screen,html.Screen,2_1_0_1_34,2022-05-12T14:04:48.827Z,,,,,,,,,,,,,,,,,53,,,,,,,,,,,,,,214.7600000000093,,response,,,,99,,,,,,,Space,keypress(Space),,,,,,,,---- -- ----- -- ------ - ------- --- ----------<br>------------- ------ ------ ---- ---- ------- ----- -- ----<br>-------- ------- -- ---------- --- - --- ----- ----- ----<br>---- --- --- ----- --- ---- that ------- ----- ---- -------<br>--- --- -- ----- -- --- ---- -- --- ---- -- ------ ------<br>--- ----- -- ----,157285,157276,157061.08,157061,157061.24,157285.96,,34,that
screen,html.Screen,2_1_0_1_35,2022-05-12T14:04:49.190Z,,,,,,,,,,,,,,,,,53,,,,,,,,,,,,,,350.04000000000815,,response,,,,99,,,,,,,Space,keypress(Space),,,,,,,,---- -- ----- -- ------ - ------- --- ----------<br>------------- ------ ------ ---- ---- ------- ----- -- ----<br>-------- ------- -- ---------- --- - --- ----- ----- ----<br>---- --- --- ----- --- ---- ---- matters ----- ---- -------<br>--- --- -- ----- -- --- ---- -- --- ---- -- ------ ------<br>--- ----- -- ----,157648,157636,157285.78,157285,157285.96,157648.66,,35,matters
screen,html.Screen,2_1_0_1_36,2022-05-12T14:04:49.469Z,,,,,,,,,,,,,,,,,53,,,,,,,,,,,,,,268.3399999999965,,response,,,,99,,,,,,,Space,keypress(Space),,,,,,,,"---- -- ----- -- ------ - ------- --- ----------<br>------------- ------ ------ ---- ---- ------- ----- -- ----<br>-------- ------- -- ---------- --- - --- ----- ----- ----<br>---- --- --- ----- --- ---- ---- ------- most, ---- -------<br>--- --- -- ----- -- --- ---- -- --- ---- -- ------ ------<br>--- ----- -- ----",157927,157917,157648.54,157649,157648.66,157928.12,,36,"most,"
screen,html.Screen,2_1_0_1_37,2022-05-12T14:04:49.744Z,,,,,,,,,,,,,,,,,53,,,,,,,,,,,,,,268.88000000000466,,response,,,,99,,,,,,,Space,keypress(Space),,,,,,,,---- -- ----- -- ------ - ------- --- ----------<br>------------- ------ ------ ---- ---- ------- ----- -- ----<br>-------- ------- -- ---------- --- - --- ----- ----- ----<br>---- --- --- ----- --- ---- ---- ------- ----- it's -------<br>--- --- -- ----- -- --- ---- -- --- ---- -- ------ ------<br>--- ----- -- ----,158202,158197,157927.96,157928,157928.12,158202.26,,37,it's
screen,html.Screen,2_1_0_1_38,2022-05-12T14:04:50.066Z,,,,,,,,,,,,,,,,,53,,,,,,,,,,,,,,307.7399999999907,,response,,,,99,,,,,,,Space,keypress(Space),,,,,,,,---- -- ----- -- ------ - ------- --- ----------<br>------------- ------ ------ ---- ---- ------- ----- -- ----<br>-------- ------- -- ---------- --- - --- ----- ----- ----<br>---- --- --- ----- --- ---- ---- ------- ----- ---- whether<br>--- --- -- ----- -- --- ---- -- --- ---- -- ------ ------<br>--- ----- -- ----,158523,158510,158202.1,158202,158202.26,158523.98,,38,whether
screen,html.Screen,2_1_0_1_39,2022-05-12T14:04:50.429Z,,,,,,,,,,,,,,,,,53,,,,,,,,,,,,,,345.0199999999895,,response,,,,99,,,,,,,Space,keypress(Space),,,,,,,,---- -- ----- -- ------ - ------- --- ----------<br>------------- ------ ------ ---- ---- ------- ----- -- ----<br>-------- ------- -- ---------- --- - --- ----- ----- ----<br>---- --- --- ----- --- ---- ---- ------- ----- ---- -------<br>you --- -- ----- -- --- ---- -- --- ---- -- ------ ------<br>--- ----- -- ----,158887,158869,158523.82,158523,158523.98,158887.4,,39,you
screen,html.Screen,2_1_0_1_40,2022-05-12T14:04:50.642Z,,,,,,,,,,,,,,,,,53,,,,,,,,,,,,,,200.60000000000582,,response,,,,99,,,,,,,Space,keypress(Space),,,,,,,,---- -- ----- -- ------ - ------- --- ----------<br>------------- ------ ------ ---- ---- ------- ----- -- ----<br>-------- ------- -- ---------- --- - --- ----- ----- ----<br>---- --- --- ----- --- ---- ---- ------- ----- ---- -------<br>--- are -- ----- -- --- ---- -- --- ---- -- ------ ------<br>--- ----- -- ----,159100,159088,158887.24,158887,158887.4,159100.88,,40,are
screen,html.Screen,2_1_0_1_41,2022-05-12T14:04:50.913Z,,,,,,,,,,,,,,,,,53,,,,,,,,,,,,,,254.11999999999534,,response,,,,99,,,,,,,Space,keypress(Space),,,,,,,,---- -- ----- -- ------ - ------- --- ----------<br>------------- ------ ------ ---- ---- ------- ----- -- ----<br>-------- ------- -- ---------- --- - --- ----- ----- ----<br>---- --- --- ----- --- ---- ---- ------- ----- ---- -------<br>--- --- as ----- -- --- ---- -- --- ---- -- ------ ------<br>--- ----- -- ----,159370,159355,159100.7,159101,159100.88,159371.3,,41,as
screen,html.Screen,2_1_0_1_42,2022-05-12T14:04:51.134Z,,,,,,,,,,,,,,,,,53,,,,,,,,,,,,,,217.70000000001164,,response,,,,99,,,,,,,Space,keypress(Space),,,,,,,,---- -- ----- -- ------ - ------- --- ----------<br>------------- ------ ------ ---- ---- ------- ----- -- ----<br>-------- ------- -- ---------- --- - --- ----- ----- ----<br>---- --- --- ----- --- ---- ---- ------- ----- ---- -------<br>--- --- -- close -- --- ---- -- --- ---- -- ------ ------<br>--- ----- -- ----,159592,159589,159371.08,159371,159371.3,159592.72,,42,close
screen,html.Screen,2_1_0_1_43,2022-05-12T14:04:51.396Z,,,,,,,,,,,,,,,,,53,,,,,,,,,,,,,,245.27999999999884,,response,,,,99,,,,,,,Space,keypress(Space),,,,,,,,---- -- ----- -- ------ - ------- --- ----------<br>------------- ------ ------ ---- ---- ------- ----- -- ----<br>-------- ------- -- ---------- --- - --- ----- ----- ----<br>---- --- --- ----- --- ---- ---- ------- ----- ---- -------<br>--- --- -- ----- as --- ---- -- --- ---- -- ------ ------<br>--- ----- -- ----,159854,159838,159592.56,159593,159592.72,159854.38,,43,as
screen,html.Screen,2_1_0_1_44,2022-05-12T14:04:51.636Z,,,,,,,,,,,,,,,,,53,,,,,,,,,,,,,,233.61999999999534,,response,,,,99,,,,,,,Space,keypress(Space),,,,,,,,---- -- ----- -- ------ - ------- --- ----------<br>------------- ------ ------ ---- ---- ------- ----- -- ----<br>-------- ------- -- ---------- --- - --- ----- ----- ----<br>---- --- --- ----- --- ---- ---- ------- ----- ---- -------<br>--- --- -- ----- -- you ---- -- --- ---- -- ------ ------<br>--- ----- -- ----,160094,160088,159854.2,159854,159854.38,160094.66,,44,you
screen,html.Screen,2_1_0_1_45,2022-05-12T14:04:51.836Z,,,,,,,,,,,,,,,,,53,,,,,,,,,,,,,,197.3399999999965,,response,,,,99,,,,,,,Space,keypress(Space),,,,,,,,---- -- ----- -- ------ - ------- --- ----------<br>------------- ------ ------ ---- ---- ------- ----- -- ----<br>-------- ------- -- ---------- --- - --- ----- ----- ----<br>---- --- --- ----- --- ---- ---- ------- ----- ---- -------<br>--- --- -- ----- -- --- want -- --- ---- -- ------ ------<br>--- ----- -- ----,160294,160292,160094.5,160094,160094.66,160308.54,,45,want
screen,html.Screen,2_1_0_1_46,2022-05-12T14:04:52.061Z,,,,,,,,,,,,,,,,,53,,,,,,,,,,,,,,202.45999999999185,,response,,,,99,,,,,,,Space,keypress(Space),,,,,,,,---- -- ----- -- ------ - ------- --- ----------<br>------------- ------ ------ ---- ---- ------- ----- -- ----<br>-------- ------- -- ---------- --- - --- ----- ----- ----<br>---- --- --- ----- --- ---- ---- ------- ----- ---- -------<br>--- --- -- ----- -- --- ---- to --- ---- -- ------ ------<br>--- ----- -- ----,160519,160511,160294.28,160294,160308.54,160519.22,,46,to
screen,html.Screen,2_1_0_1_47,2022-05-12T14:04:52.257Z,,,,,,,,,,,,,,,,,53,,,,,,,,,,,,,,193.77999999999884,,response,,,,99,,,,,,,Space,keypress(Space),,,,,,,,"---- -- ----- -- ------ - ------- --- ----------<br>------------- ------ ------ ---- ---- ------- ----- -- ----<br>-------- ------- -- ---------- --- - --- ----- ----- ----<br>---- --- --- ----- --- ---- ---- ------- ----- ---- -------<br>--- --- -- ----- -- --- ---- -- be, ---- -- ------ ------<br>--- ----- -- ----",160715,160713,160519.06,160519,160519.22,160725.02,,47,"be,"
screen,html.Screen,2_1_0_1_48,2022-05-12T14:04:52.494Z,,,,,,,,,,,,,,,,,53,,,,,,,,,,,,,,221.98000000001048,,response,,,,99,,,,,,,Space,keypress(Space),,,,,,,,---- -- ----- -- ------ - ------- --- ----------<br>------------- ------ ------ ---- ---- ------- ----- -- ----<br>-------- ------- -- ---------- --- - --- ----- ----- ----<br>---- --- --- ----- --- ---- ---- ------- ----- ---- -------<br>--- --- -- ----- -- --- ---- -- --- even -- ------ ------<br>--- ----- -- ----,160953,160947,160715.1,160716,160725.02,160952.9,,48,even
screen,html.Screen,2_1_0_1_49,2022-05-12T14:04:52.830Z,,,,,,,,,,,,,,,,,53,,,,,,,,,,,,,,323.1000000000058,,response,,,,99,,,,,,,Space,keypress(Space),,,,,,,,---- -- ----- -- ------ - ------- --- ----------<br>------------- ------ ------ ---- ---- ------- ----- -- ----<br>-------- ------- -- ---------- --- - --- ----- ----- ----<br>---- --- --- ----- --- ---- ---- ------- ----- ---- -------<br>--- --- -- ----- -- --- ---- -- --- ---- if ------ ------<br>--- ----- -- ----,161288,161276,160952.76,160953,160952.9,161288.42,,49,if
screen,html.Screen,2_1_0_1_50,2022-05-12T14:04:53.043Z,,,,,,,,,,,,,,,,,53,,,,,,,,,,,,,,205.5799999999872,,response,,,,99,,,,,,,Space,keypress(Space),,,,,,,,---- -- ----- -- ------ - ------- --- ----------<br>------------- ------ ------ ---- ---- ------- ----- -- ----<br>-------- ------- -- ---------- --- - --- ----- ----- ----<br>---- --- --- ----- --- ---- ---- ------- ----- ---- -------<br>--- --- -- ----- -- --- ---- -- --- ---- -- that's ------<br>--- ----- -- ----,161501,161494,161288.12,161289,161288.42,161501.92,,50,that's
screen,html.Screen,2_1_0_1_51,2022-05-12T14:04:53.388Z,,,,,,,,,,,,,,,,,53,,,,,,,,,,,,,,336.0799999999872,,response,,,,99,,,,,,,Space,keypress(Space),,,,,,,,---- -- ----- -- ------ - ------- --- ----------<br>------------- ------ ------ ---- ---- ------- ----- -- ----<br>-------- ------- -- ---------- --- - --- ----- ----- ----<br>---- --- --- ----- --- ---- ---- ------- ----- ---- -------<br>--- --- -- ----- -- --- ---- -- --- ---- -- ------ really<br>--- ----- -- ----,161846,161838,161501.68,161501,161501.92,161846.08,,51,really
screen,html.Screen,2_1_0_1_52,2022-05-12T14:04:53.666Z,,,,,,,,,,,,,,,,,53,,,,,,,,,,,,,,272.9200000000128,,response,,,,99,,,,,,,Space,keypress(Space),,,,,,,,---- -- ----- -- ------ - ------- --- ----------<br>------------- ------ ------ ---- ---- ------- ----- -- ----<br>-------- ------- -- ---------- --- - --- ----- ----- ----<br>---- --- --- ----- --- ---- ---- ------- ----- ---- -------<br>--- --- -- ----- -- --- ---- -- --- ---- -- ------ ------<br>not ----- -- ----,162124,162119,161845.86,161846,161846.08,162124.76,,52,not
screen,html.Screen,2_1_0_1_53,2022-05-12T14:04:53.992Z,,,,,,,,,,,,,,,,,53,,,,,,,,,,,,,,323.2399999999907,,response,,,,99,,,,,,,Space,keypress(Space),,,,,,,,---- -- ----- -- ------ - ------- --- ----------<br>------------- ------ ------ ---- ---- ------- ----- -- ----<br>-------- ------- -- ---------- --- - --- ----- ----- ----<br>---- --- --- ----- --- ---- ---- ------- ----- ---- -------<br>--- --- -- ----- -- --- ---- -- --- ---- -- ------ ------<br>--- close -- ----,162451,162448,162124.62,162124,162124.76,162450.84,,53,close
screen,html.Screen,2_1_0_1_54,2022-05-12T14:04:54.291Z,,,,,,,,,,,,,,,,,53,,,,,,,,,,,,,,294.1600000000035,,response,,,,99,,,,,,,Space,keypress(Space),,,,,,,,---- -- ----- -- ------ - ------- --- ----------<br>------------- ------ ------ ---- ---- ------- ----- -- ----<br>-------- ------- -- ---------- --- - --- ----- ----- ----<br>---- --- --- ----- --- ---- ---- ------- ----- ---- -------<br>--- --- -- ----- -- --- ---- -- --- ---- -- ------ ------<br>--- ----- at ----,162749,162745,162450.68,162451,162450.84,162749.54,,54,at
screen,html.Screen,2_1_0_1_55,2022-05-12T14:04:54.603Z,,,,,,,,,,,,,,,,,53,,,,,,,,,,,,,,307.45999999999185,,response,,,,99,,,,,,,Space,keypress(Space),,,,,,,,---- -- ----- -- ------ - ------- --- ----------<br>------------- ------ ------ ---- ---- ------- ----- -- ----<br>-------- ------- -- ---------- --- - --- ----- ----- ----<br>---- --- --- ----- --- ---- ---- ------- ----- ---- -------<br>--- --- -- ----- -- --- ---- -- --- ---- -- ------ ------<br>--- ----- -- all.,163062,163057,162749.4,162749,162749.54,163062.16,,55,all.
Item 99,flow.Loop,2_1_0_1,2022-05-12T14:04:54.604Z,,,,,,,,,,,,,,,,,,,,,,,,,,,,,,,16808.72,,completion,,,,,D,,,,,,,,,,,silence,,,,,163062,163057,146231.64,146232,146248.28,163062.16,,,
Question 1,html.Screen,2_1_0_2,2022-05-12T14:04:58.948Z,,,,,,,,,,,,,,,,,,,,,,,,,,,,true,FALSE,,4337.8399999999965,,response,,,,99,D,,,,,,FALSE,click #choice-2,,,,silence,,,,,167407,167400,163061.98,163062,163062.16,167421.92,,,
Question 2,html.Screen,2_1_0_3,2022-05-12T14:05:03.206Z,,,,,,,,,,,,,,,,,,,,,,,,,,,,true,TRUE,,4228.079999999987,,response,,,,99,D,,,,,,TRUE,click #choice-1,,,,silence,,,,,171664,171650,167405.78,167407,167421.92,171670.02,,,
Item 99,flow.Sequence,2_1_0,2022-05-12T14:05:03.206Z,,,,,,,,,,,,,,,,,,,,,,,,,,,,,,,35397.20000000001,,completion,,,,,,,,,,,,,,,,,,,,,171664,171650,136236.36,136240,136252.8,171670.02,,,
Holding screen,html.Screen,2_1_1_0,2022-05-12T14:05:13.191Z,,,,,,,,,,,,,,,,,,,,,,,,,,,,,,,9995.460000000021,,timeout,,,,,,,,,,,,,,,,,,,,,181649,181648.82,171663.42,171664,171670.02,181665.48,,,
screen,html.Screen,2_1_1_1_0,2022-05-12T14:05:13.861Z,,,,,,,,,,,,,,,,,54,,,,,,,,,,,,,,642.5199999999895,,response,,,,100,,,,,,,Space,keypress(Space),,,,,,,,At --- ---- --- ------ ----- ------- ---- -- --- ------- --<br>------- ---------- ------ -- ----- -- ----- -- ---- ------<br>--- ----- --- --- ------ -------- ----- --- ------ ----- --<br>----- ----- ---------- --- --- ------ ------ ---- -- ------<br>------- --- ------ ----- --- ---- ------- -- ---- --- --<br>------- ------,182320,182308,181648.82,181649,181665.48,182319.6,,0,At
screen,html.Screen,2_1_1_1_1,2022-05-12T14:05:14.174Z,,,,,,,,,,,,,,,,,54,,,,,,,,,,,,,,300.3999999999942,,response,,,,100,,,,,,,Space,keypress(Space),,,,,,,,-- the ---- --- ------ ----- ------- ---- -- --- ------- --<br>------- ---------- ------ -- ----- -- ----- -- ---- ------<br>--- ----- --- --- ------ -------- ----- --- ------ ----- --<br>----- ----- ---------- --- --- ------ ------ ---- -- ------<br>------- --- ------ ----- --- ---- ------- -- ---- --- --<br>------- ------,182633,182620,182319.44,182320,182319.6,182633.14,,1,the
screen,html.Screen,2_1_1_1_2,2022-05-12T14:05:14.405Z,,,,,,,,,,,,,,,,,54,,,,,,,,,,,,,,221.85999999998603,,response,,,,100,,,,,,,Space,keypress(Space),,,,,,,,-- --- time --- ------ ----- ------- ---- -- --- ------- --<br>------- ---------- ------ -- ----- -- ----- -- ---- ------<br>--- ----- --- --- ------ -------- ----- --- ------ ----- --<br>----- ----- ---------- --- --- ------ ------ ---- -- ------<br>------- --- ------ ----- --- ---- ------- -- ---- --- --<br>------- ------,182863,182855,182632.98,182633,182633.14,182863.58,,2,time
screen,html.Screen,2_1_1_1_3,2022-05-12T14:05:14.676Z,,,,,,,,,,,,,,,,,54,,,,,,,,,,,,,,256.4200000000128,,response,,,,100,,,,,,,Space,keypress(Space),,,,,,,,-- --- ---- the ------ ----- ------- ---- -- --- ------- --<br>------- ---------- ------ -- ----- -- ----- -- ---- ------<br>--- ----- --- --- ------ -------- ----- --- ------ ----- --<br>----- ----- ---------- --- --- ------ ------ ---- -- ------<br>------- --- ------ ----- --- ---- ------- -- ---- --- --<br>------- ------,183134,183120,182863.42,182863,182863.58,183134.66,,3,the
screen,html.Screen,2_1_1_1_4,2022-05-12T14:05:14.911Z,,,,,,,,,,,,,,,,,54,,,,,,,,,,,,,,220.3399999999965,,response,,,,100,,,,,,,Space,keypress(Space),,,,,,,,-- --- ---- --- French ----- ------- ---- -- --- ------- --<br>------- ---------- ------ -- ----- -- ----- -- ---- ------<br>--- ----- --- --- ------ -------- ----- --- ------ ----- --<br>----- ----- ---------- --- --- ------ ------ ---- -- ------<br>------- --- ------ ----- --- ---- ------- -- ---- --- --<br>------- ------,183369,183355,183134.48,183134,183134.66,183369.54,,4,French
screen,html.Screen,2_1_1_1_5,2022-05-12T14:05:15.097Z,,,,,,,,,,,,,,,,,54,,,,,,,,,,,,,,172.45999999999185,,response,,,,100,,,,,,,Space,keypress(Space),,,,,,,,-- --- ---- --- ------ crown ------- ---- -- --- ------- --<br>------- ---------- ------ -- ----- -- ----- -- ---- ------<br>--- ----- --- --- ------ -------- ----- --- ------ ----- --<br>----- ----- ---------- --- --- ------ ------ ---- -- ------<br>------- --- ------ ----- --- ---- ------- -- ---- --- --<br>------- ------,183555,183542,183369.36,183370,183369.54,183564.58,,5,crown
screen,html.Screen,2_1_1_1_6,2022-05-12T14:05:15.506Z,,,,,,,,,,,,,,,,,54,,,,,,,,,,,,,,383.4200000000128,,response,,,,100,,,,,,,Space,keypress(Space),,,,,,,,-- --- ---- --- ------ ----- secured ---- -- --- ------- --<br>------- ---------- ------ -- ----- -- ----- -- ---- ------<br>--- ----- --- --- ------ -------- ----- --- ------ ----- --<br>----- ----- ---------- --- --- ------ ------ ---- -- ------<br>------- --- ------ ----- --- ---- ------- -- ---- --- --<br>------- ------,183965,183948,183555.26,183556,183564.58,183965.04,,6,secured
screen,html.Screen,2_1_1_1_7,2022-05-12T14:05:15.888Z,,,,,,,,,,,,,,,,,54,,,,,,,,,,,,,,373.95999999999185,,response,,,,100,,,,,,,Space,keypress(Space),,,,,,,,-- --- ---- --- ------ ----- ------- much -- --- ------- --<br>------- ---------- ------ -- ----- -- ----- -- ---- ------<br>--- ----- --- --- ------ -------- ----- --- ------ ----- --<br>----- ----- ---------- --- --- ------ ------ ---- -- ------<br>------- --- ------ ----- --- ---- ------- -- ---- --- --<br>------- ------,184346,184339,183964.9,183965,183965.04,184347.1,,7,much
screen,html.Screen,2_1_1_1_8,2022-05-12T14:05:16.257Z,,,,,,,,,,,,,,,,,54,,,,,,,,,,,,,,365.8999999999942,,response,,,,100,,,,,,,Space,keypress(Space),,,,,,,,-- --- ---- --- ------ ----- ------- ---- of --- ------- --<br>------- ---------- ------ -- ----- -- ----- -- ---- ------<br>--- ----- --- --- ------ -------- ----- --- ------ ----- --<br>----- ----- ---------- --- --- ------ ------ ---- -- ------<br>------- --- ------ ----- --- ---- ------- -- ---- --- --<br>------- ------,184715,184713,184346.92,184346,184347.1,184714.98,,8,of
screen,html.Screen,2_1_1_1_9,2022-05-12T14:05:16.520Z,,,,,,,,,,,,,,,,,54,,,,,,,,,,,,,,249.01999999998952,,response,,,,100,,,,,,,Space,keypress(Space),,,,,,,,-- --- ---- --- ------ ----- ------- ---- -- its ------- --<br>------- ---------- ------ -- ----- -- ----- -- ---- ------<br>--- ----- --- --- ------ -------- ----- --- ------ ----- --<br>----- ----- ---------- --- --- ------ ------ ---- -- ------<br>------- --- ------ ----- --- ---- ------- -- ---- --- --<br>------- ------,184978,184964,184714.8,184715,184714.98,184978.22,,9,its
screen,html.Screen,2_1_1_1_10,2022-05-12T14:05:16.765Z,,,,,,,,,,,,,,,,,54,,,,,,,,,,,,,,234.77999999999884,,response,,,,100,,,,,,,Space,keypress(Space),,,,,,,,-- --- ---- --- ------ ----- ------- ---- -- --- revenue --<br>------- ---------- ------ -- ----- -- ----- -- ---- ------<br>--- ----- --- --- ------ -------- ----- --- ------ ----- --<br>----- ----- ---------- --- --- ------ ------ ---- -- ------<br>------- --- ------ ----- --- ---- ------- -- ---- --- --<br>------- ------,185223,185213,184978.04,184978,184978.22,185230.46,,10,revenue
screen,html.Screen,2_1_1_1_11,2022-05-12T14:05:17.098Z,,,,,,,,,,,,,,,,,54,,,,,,,,,,,,,,311.54000000000815,,response,,,,100,,,,,,,Space,keypress(Space),,,,,,,,-- --- ---- --- ------ ----- ------- ---- -- --- ------- by<br>------- ---------- ------ -- ----- -- ----- -- ---- ------<br>--- ----- --- --- ------ -------- ----- --- ------ ----- --<br>----- ----- ---------- --- --- ------ ------ ---- -- ------<br>------- --- ------ ----- --- ---- ------- -- ---- --- --<br>------- ------,185557,185542,185223.82,185223,185230.46,185563.68,,11,by
screen,html.Screen,2_1_1_1_12,2022-05-12T14:05:17.407Z,,,,,,,,,,,,,,,,,54,,,,,,,,,,,,,,291.320000000007,,response,,,,100,,,,,,,Space,keypress(Space),,,,,,,,-- --- ---- --- ------ ----- ------- ---- -- --- ------- --<br>issuing ---------- ------ -- ----- -- ----- -- ---- ------<br>--- ----- --- --- ------ -------- ----- --- ------ ----- --<br>----- ----- ---------- --- --- ------ ------ ---- -- ------<br>------- --- ------ ----- --- ---- ------- -- ---- --- --<br>------- ------,185865,185855,185556.54,185557,185563.68,185880.2,,12,issuing
screen,html.Screen,2_1_1_1_13,2022-05-12T14:05:17.735Z,,,,,,,,,,,,,,,,,54,,,,,,,,,,,,,,302.79999999998836,,response,,,,100,,,,,,,Space,keypress(Space),,,,,,,,-- --- ---- --- ------ ----- ------- ---- -- --- ------- --<br>------- government ------ -- ----- -- ----- -- ---- ------<br>--- ----- --- --- ------ -------- ----- --- ------ ----- --<br>----- ----- ---------- --- --- ------ ------ ---- -- ------<br>------- --- ------ ----- --- ---- ------- -- ---- --- --<br>------- ------,186194,186183,185865.52,185866,185880.2,186196.72,,13,government
screen,html.Screen,2_1_1_1_14,2022-05-12T14:05:17.941Z,,,,,,,,,,,,,,,,,54,,,,,,,,,,,,,,189.27999999999884,,response,,,,100,,,,,,,Space,keypress(Space),,,,,,,,-- --- ---- --- ------ ----- ------- ---- -- --- ------- --<br>------- ---------- bonds. -- ----- -- ----- -- ---- ------<br>--- ----- --- --- ------ -------- ----- --- ------ ----- --<br>----- ----- ---------- --- --- ------ ------ ---- -- ------<br>------- --- ------ ----- --- ---- ------- -- ---- --- --<br>------- ------,186400,186386,186193.58,186194,186196.72,186413.3,,14,bonds.
screen,html.Screen,2_1_1_1_15,2022-05-12T14:05:18.144Z,,,,,,,,,,,,,,,,,54,,,,,,,,,,,,,,175.70000000001164,,response,,,,100,,,,,,,Space,keypress(Space),,,,,,,,-- --- ---- --- ------ ----- ------- ---- -- --- ------- --<br>------- ---------- ------ In ----- -- ----- -- ---- ------<br>--- ----- --- --- ------ -------- ----- --- ------ ----- --<br>----- ----- ---------- --- --- ------ ------ ---- -- ------<br>------- --- ------ ----- --- ---- ------- -- ---- --- --<br>------- ------,186603,186589,186400.12,186400,186413.3,186613.22,,15,In
screen,html.Screen,2_1_1_1_16,2022-05-12T14:05:18.615Z,,,,,,,,,,,,,,,,,54,,,,,,,,,,,,,,444.77999999999884,,response,,,,100,,,,,,,Space,keypress(Space),,,,,,,,"-- --- ---- --- ------ ----- ------- ---- -- --- ------- --<br>------- ---------- ------ -- 1727, -- ----- -- ---- ------<br>--- ----- --- --- ------ -------- ----- --- ------ ----- --<br>----- ----- ---------- --- --- ------ ------ ---- -- ------<br>------- --- ------ ----- --- ---- ------- -- ---- --- --<br>------- ------",187073,187058,186602.78,186603,186613.22,187079.64,,16,"1727,"
screen,html.Screen,2_1_1_1_17,2022-05-12T14:05:18.893Z,,,,,,,,,,,,,,,,,54,,,,,,,,,,,,,,259.35999999998603,,response,,,,100,,,,,,,Space,keypress(Space),,,,,,,,-- --- ---- --- ------ ----- ------- ---- -- --- ------- --<br>------- ---------- ------ -- ----- in ----- -- ---- ------<br>--- ----- --- --- ------ -------- ----- --- ------ ----- --<br>----- ----- ---------- --- --- ------ ------ ---- -- ------<br>------- --- ------ ----- --- ---- ------- -- ---- --- --<br>------- ------,187350,187339,187073.34,187073,187079.64,187362.86,,17,in
screen,html.Screen,2_1_1_1_18,2022-05-12T14:05:19.227Z,,,,,,,,,,,,,,,,,54,,,,,,,,,,,,,,320.14000000001397,,response,,,,100,,,,,,,Space,keypress(Space),,,,,,,,-- --- ---- --- ------ ----- ------- ---- -- --- ------- --<br>------- ---------- ------ -- ----- -- order -- ---- ------<br>--- ----- --- --- ------ -------- ----- --- ------ ----- --<br>----- ----- ---------- --- --- ------ ------ ---- -- ------<br>------- --- ------ ----- --- ---- ------- -- ---- --- --<br>------- ------,187685,187683,187350.84,187350,187362.86,187696.04,,18,order
screen,html.Screen,2_1_1_1_19,2022-05-12T14:05:19.529Z,,,,,,,,,,,,,,,,,54,,,,,,,,,,,,,,283.95999999999185,,response,,,,100,,,,,,,Space,keypress(Space),,,,,,,,-- --- ---- --- ------ ----- ------- ---- -- --- ------- --<br>------- ---------- ------ -- ----- -- ----- to ---- ------<br>--- ----- --- --- ------ -------- ----- --- ------ ----- --<br>----- ----- ---------- --- --- ------ ------ ---- -- ------<br>------- --- ------ ----- --- ---- ------- -- ---- --- --<br>------- ------,187986,187980,187684.88,187685,187696.04,187995.92,,19,to
screen,html.Screen,2_1_1_1_20,2022-05-12T14:05:19.768Z,,,,,,,,,,,,,,,,,54,,,,,,,,,,,,,,217.0799999999872,,response,,,,100,,,,,,,Space,keypress(Space),,,,,,,,-- --- ---- --- ------ ----- ------- ---- -- --- ------- --<br>------- ---------- ------ -- ----- -- ----- -- save ------<br>--- ----- --- --- ------ -------- ----- --- ------ ----- --<br>----- ----- ---------- --- --- ------ ------ ---- -- ------<br>------- --- ------ ----- --- ---- ------- -- ---- --- --<br>------- ------,188226,188213,187986.94,187987,187995.92,188229.14,,20,save
screen,html.Screen,2_1_1_1_21,2022-05-12T14:05:20.002Z,,,,,,,,,,,,,,,,,54,,,,,,,,,,,,,,218.85999999998603,,response,,,,100,,,,,,,Space,keypress(Space),,,,,,,,"-- --- ---- --- ------ ----- ------- ---- -- --- ------- --<br>------- ---------- ------ -- ----- -- ----- -- ---- money,<br>--- ----- --- --- ------ -------- ----- --- ------ ----- --<br>----- ----- ---------- --- --- ------ ------ ---- -- ------<br>------- --- ------ ----- --- ---- ------- -- ---- --- --<br>------- ------",188460,188448,188226.26,188226,188229.14,188462.36,,21,"money,"
screen,html.Screen,2_1_1_1_22,2022-05-12T14:05:20.282Z,,,,,,,,,,,,,,,,,54,,,,,,,,,,,,,,266.64000000001397,,response,,,,100,,,,,,,Space,keypress(Space),,,,,,,,-- --- ---- --- ------ ----- ------- ---- -- --- ------- --<br>------- ---------- ------ -- ----- -- ----- -- ---- ------<br>the ----- --- --- ------ -------- ----- --- ------ ----- --<br>----- ----- ---------- --- --- ------ ------ ---- -- ------<br>------- --- ------ ----- --- ---- ------- -- ---- --- --<br>------- ------,188740,188729,188459.64,188460,188462.36,188745.58,,22,the
screen,html.Screen,2_1_1_1_23,2022-05-12T14:05:20.570Z,,,,,,,,,,,,,,,,,54,,,,,,,,,,,,,,280.4200000000128,,response,,,,100,,,,,,,Space,keypress(Space),,,,,,,,-- --- ---- --- ------ ----- ------- ---- -- --- ------- --<br>------- ---------- ------ -- ----- -- ----- -- ---- ------<br>--- state --- --- ------ -------- ----- --- ------ ----- --<br>----- ----- ---------- --- --- ------ ------ ---- -- ------<br>------- --- ------ ----- --- ---- ------- -- ---- --- --<br>------- ------,189028,189026,188740.54,188740,188745.58,189028.76,,23,state
screen,html.Screen,2_1_1_1_24,2022-05-12T14:05:20.800Z,,,,,,,,,,,,,,,,,54,,,,,,,,,,,,,,215.2399999999907,,response,,,,100,,,,,,,Space,keypress(Space),,,,,,,,-- --- ---- --- ------ ----- ------- ---- -- --- ------- --<br>------- ---------- ------ -- ----- -- ----- -- ---- ------<br>--- ----- cut --- ------ -------- ----- --- ------ ----- --<br>----- ----- ---------- --- --- ------ ------ ---- -- ------<br>------- --- ------ ----- --- ---- ------- -- ---- --- --<br>------- ------,189258,189244,189028.42,189029,189028.76,189261.98,,24,cut
screen,html.Screen,2_1_1_1_25,2022-05-12T14:05:21.087Z,,,,,,,,,,,,,,,,,54,,,,,,,,,,,,,,280.0199999999895,,response,,,,100,,,,,,,Space,keypress(Space),,,,,,,,-- --- ---- --- ------ ----- ------- ---- -- --- ------- --<br>------- ---------- ------ -- ----- -- ----- -- ---- ------<br>--- ----- --- the ------ -------- ----- --- ------ ----- --<br>----- ----- ---------- --- --- ------ ------ ---- -- ------<br>------- --- ------ ----- --- ---- ------- -- ---- --- --<br>------- ------,189546,189542,189258.42,189259,189261.98,189546.56,,25,the
screen,html.Screen,2_1_1_1_26,2022-05-12T14:05:21.369Z,,,,,,,,,,,,,,,,,54,,,,,,,,,,,,,,276.4400000000023,,response,,,,100,,,,,,,Space,keypress(Space),,,,,,,,-- --- ---- --- ------ ----- ------- ---- -- --- ------- --<br>------- ---------- ------ -- ----- -- ----- -- ---- ------<br>--- ----- --- --- bonds' -------- ----- --- ------ ----- --<br>----- ----- ---------- --- --- ------ ------ ---- -- ------<br>------- --- ------ ----- --- ---- ------- -- ---- --- --<br>------- ------,189827,189823,189546.38,189547,189546.56,189828.14,,26,bonds'
screen,html.Screen,2_1_1_1_27,2022-05-12T14:05:21.614Z,,,,,,,,,,,,,,,,,54,,,,,,,,,,,,,,229.85999999998603,,response,,,,100,,,,,,,Space,keypress(Space),,,,,,,,-- --- ---- --- ------ ----- ------- ---- -- --- ------- --<br>------- ---------- ------ -- ----- -- ----- -- ---- ------<br>--- ----- --- --- ------ interest ----- --- ------ ----- --<br>----- ----- ---------- --- --- ------ ------ ---- -- ------<br>------- --- ------ ----- --- ---- ------- -- ---- --- --<br>------- ------,190073,190058,189828,189827,189828.14,190072.46,,27,interest
screen,html.Screen,2_1_1_1_28,2022-05-12T14:05:21.974Z,,,,,,,,,,,,,,,,,54,,,,,,,,,,,,,,343.54000000000815,,response,,,,100,,,,,,,Space,keypress(Space),,,,,,,,-- --- ---- --- ------ ----- ------- ---- -- --- ------- --<br>------- ---------- ------ -- ----- -- ----- -- ---- ------<br>--- ----- --- --- ------ -------- rate. --- ------ ----- --<br>----- ----- ---------- --- --- ------ ------ ---- -- ------<br>------- --- ------ ----- --- ---- ------- -- ---- --- --<br>------- ------,190431,190416,190072.32,190073,190072.46,190431.86,,28,rate.
screen,html.Screen,2_1_1_1_29,2022-05-12T14:05:22.239Z,,,,,,,,,,,,,,,,,54,,,,,,,,,,,,,,251.14000000001397,,response,,,,100,,,,,,,Space,keypress(Space),,,,,,,,-- --- ---- --- ------ ----- ------- ---- -- --- ------- --<br>------- ---------- ------ -- ----- -- ----- -- ---- ------<br>--- ----- --- --- ------ -------- ----- The ------ ----- --<br>----- ----- ---------- --- --- ------ ------ ---- -- ------<br>------- --- ------ ----- --- ---- ------- -- ---- --- --<br>------- ------,190697,190683,190431.68,190431,190431.86,190698.06,,29,The
screen,html.Screen,2_1_1_1_30,2022-05-12T14:05:22.618Z,,,,,,,,,,,,,,,,,54,,,,,,,,,,,,,,374.9400000000023,,response,,,,100,,,,,,,Space,keypress(Space),,,,,,,,-- --- ---- --- ------ ----- ------- ---- -- --- ------- --<br>------- ---------- ------ -- ----- -- ----- -- ---- ------<br>--- ----- --- --- ------ -------- ----- --- market ----- --<br>----- ----- ---------- --- --- ------ ------ ---- -- ------<br>------- --- ------ ----- --- ---- ------- -- ---- --- --<br>------- ------,191076,191073,190697.86,190697,190698.06,191077.84,,30,market
screen,html.Screen,2_1_1_1_31,2022-05-12T14:05:22.877Z,,,,,,,,,,,,,,,,,54,,,,,,,,,,,,,,245.1600000000035,,response,,,,100,,,,,,,Space,keypress(Space),,,,,,,,-- --- ---- --- ------ ----- ------- ---- -- --- ------- --<br>------- ---------- ------ -- ----- -- ----- -- ---- ------<br>--- ----- --- --- ------ -------- ----- --- ------ value --<br>----- ----- ---------- --- --- ------ ------ ---- -- ------<br>------- --- ------ ----- --- ---- ------- -- ---- --- --<br>------- ------,191335,191323,191076.3,191076,191077.84,191335.42,,31,value
screen,html.Screen,2_1_1_1_32,2022-05-12T14:05:23.124Z,,,,,,,,,,,,,,,,,54,,,,,,,,,,,,,,236.5799999999872,,response,,,,100,,,,,,,Space,keypress(Space),,,,,,,,-- --- ---- --- ------ ----- ------- ---- -- --- ------- --<br>------- ---------- ------ -- ----- -- ----- -- ---- ------<br>--- ----- --- --- ------ -------- ----- --- ------ ----- of<br>----- ----- ---------- --- --- ------ ------ ---- -- ------<br>------- --- ------ ----- --- ---- ------- -- ---- --- --<br>------- ------,191582,191572,191335.24,191335,191335.42,191582.88,,32,of
screen,html.Screen,2_1_1_1_33,2022-05-12T14:05:23.400Z,,,,,,,,,,,,,,,,,54,,,,,,,,,,,,,,271.11999999999534,,response,,,,100,,,,,,,Space,keypress(Space),,,,,,,,-- --- ---- --- ------ ----- ------- ---- -- --- ------- --<br>------- ---------- ------ -- ----- -- ----- -- ---- ------<br>--- ----- --- --- ------ -------- ----- --- ------ ----- --<br>these ----- ---------- --- --- ------ ------ ---- -- ------<br>------- --- ------ ----- --- ---- ------- -- ---- --- --<br>------- ------,191859,191854,191582.72,191582,191582.88,191858.82,,33,these
screen,html.Screen,2_1_1_1_34,2022-05-12T14:05:23.679Z,,,,,,,,,,,,,,,,,54,,,,,,,,,,,,,,260.179999999993,,response,,,,100,,,,,,,Space,keypress(Space),,,,,,,,-- --- ---- --- ------ ----- ------- ---- -- --- ------- --<br>------- ---------- ------ -- ----- -- ----- -- ---- ------<br>--- ----- --- --- ------ -------- ----- --- ------ ----- --<br>----- bonds ---------- --- --- ------ ------ ---- -- ------<br>------- --- ------ ----- --- ---- ------- -- ---- --- --<br>------- ------,192136,192119,191858.66,191859,191858.82,192136.74,,34,bonds
screen,html.Screen,2_1_1_1_35,2022-05-12T14:05:23.994Z,,,,,,,,,,,,,,,,,54,,,,,,,,,,,,,,311.2600000000093,,response,,,,100,,,,,,,Space,keypress(Space),,,,,,,,"-- --- ---- --- ------ ----- ------- ---- -- --- ------- --<br>------- ---------- ------ -- ----- -- ----- -- ---- ------<br>--- ----- --- --- ------ -------- ----- --- ------ ----- --<br>----- ----- plummeted, --- --- ------ ------ ---- -- ------<br>------- --- ------ ----- --- ---- ------- -- ---- --- --<br>------- ------",192452,192448,192136.62,192136,192136.74,192452.4,,35,"plummeted,"
screen,html.Screen,2_1_1_1_36,2022-05-12T14:05:24.235Z,,,,,,,,,,,,,,,,,54,,,,,,,,,,,,,,230.60000000000582,,response,,,,100,,,,,,,Space,keypress(Space),,,,,,,,-- --- ---- --- ------ ----- ------- ---- -- --- ------- --<br>------- ---------- ------ -- ----- -- ----- -- ---- ------<br>--- ----- --- --- ------ -------- ----- --- ------ ----- --<br>----- ----- ---------- and --- ------ ------ ---- -- ------<br>------- --- ------ ----- --- ---- ------- -- ---- --- --<br>------- ------,192693,192683,192452.24,192453,192452.4,192693.42,,36,and
screen,html.Screen,2_1_1_1_37,2022-05-12T14:05:24.507Z,,,,,,,,,,,,,,,,,54,,,,,,,,,,,,,,270.5799999999872,,response,,,,100,,,,,,,Space,keypress(Space),,,,,,,,-- --- ---- --- ------ ----- ------- ---- -- --- ------- --<br>------- ---------- ------ -- ----- -- ----- -- ---- ------<br>--- ----- --- --- ------ -------- ----- --- ------ ----- --<br>----- ----- ---------- --- the ------ ------ ---- -- ------<br>------- --- ------ ----- --- ---- ------- -- ---- --- --<br>------- ------,192965,192964,192693.28,192694,192693.42,192964.98,,37,the
screen,html.Screen,2_1_1_1_38,2022-05-12T14:05:24.728Z,,,,,,,,,,,,,,,,,54,,,,,,,,,,,,,,217.01999999998952,,response,,,,100,,,,,,,Space,keypress(Space),,,,,,,,-- --- ---- --- ------ ----- ------- ---- -- --- ------- --<br>------- ---------- ------ -- ----- -- ----- -- ---- ------<br>--- ----- --- --- ------ -------- ----- --- ------ ----- --<br>----- ----- ---------- --- --- market ------ ---- -- ------<br>------- --- ------ ----- --- ---- ------- -- ---- --- --<br>------- ------,193186,193182,192964.82,192965,192964.98,193186.12,,38,market
screen,html.Screen,2_1_1_1_39,2022-05-12T14:05:24.950Z,,,,,,,,,,,,,,,,,54,,,,,,,,,,,,,,214.88000000000466,,response,,,,100,,,,,,,Space,keypress(Space),,,,,,,,-- --- ---- --- ------ ----- ------- ---- -- --- ------- --<br>------- ---------- ------ -- ----- -- ----- -- ---- ------<br>--- ----- --- --- ------ -------- ----- --- ------ ----- --<br>----- ----- ---------- --- --- ------ became ---- -- ------<br>------- --- ------ ----- --- ---- ------- -- ---- --- --<br>------- ------,193407,193401,193185.98,193186,193186.12,193407.94,,39,became
screen,html.Screen,2_1_1_1_40,2022-05-12T14:05:25.330Z,,,,,,,,,,,,,,,,,54,,,,,,,,,,,,,,368.0599999999977,,response,,,,100,,,,,,,Space,keypress(Space),,,,,,,,-- --- ---- --- ------ ----- ------- ---- -- --- ------- --<br>------- ---------- ------ -- ----- -- ----- -- ---- ------<br>--- ----- --- --- ------ -------- ----- --- ------ ----- --<br>----- ----- ---------- --- --- ------ ------ wary -- ------<br>------- --- ------ ----- --- ---- ------- -- ---- --- --<br>------- ------,193788,193776,193407.78,193407,193407.94,193788.88,,40,wary
screen,html.Screen,2_1_1_1_41,2022-05-12T14:05:25.571Z,,,,,,,,,,,,,,,,,54,,,,,,,,,,,,,,236.11999999999534,,response,,,,100,,,,,,,Space,keypress(Space),,,,,,,,-- --- ---- --- ------ ----- ------- ---- -- --- ------- --<br>------- ---------- ------ -- ----- -- ----- -- ---- ------<br>--- ----- --- --- ------ -------- ----- --- ------ ----- --<br>----- ----- ---------- --- --- ------ ------ ---- of ------<br>------- --- ------ ----- --- ---- ------- -- ---- --- --<br>------- ------,194029,194025,193788.7,193788,193788.88,194028.82,,41,of
screen,html.Screen,2_1_1_1_42,2022-05-12T14:05:25.824Z,,,,,,,,,,,,,,,,,54,,,,,,,,,,,,,,247.17999999999302,,response,,,,100,,,,,,,Space,keypress(Space),,,,,,,,-- --- ---- --- ------ ----- ------- ---- -- --- ------- --<br>------- ---------- ------ -- ----- -- ----- -- ---- ------<br>--- ----- --- --- ------ -------- ----- --- ------ ----- --<br>----- ----- ---------- --- --- ------ ------ ---- -- French<br>------- --- ------ ----- --- ---- ------- -- ---- --- --<br>------- ------,194283,194276,194028.66,194029,194028.82,194282.56,,42,French
screen,html.Screen,2_1_1_1_43,2022-05-12T14:05:26.083Z,,,,,,,,,,,,,,,,,54,,,,,,,,,,,,,,242.44000000000233,,response,,,,100,,,,,,,Space,keypress(Space),,,,,,,,-- --- ---- --- ------ ----- ------- ---- -- --- ------- --<br>------- ---------- ------ -- ----- -- ----- -- ---- ------<br>--- ----- --- --- ------ -------- ----- --- ------ ----- --<br>----- ----- ---------- --- --- ------ ------ ---- -- ------<br>credit. --- ------ ----- --- ---- ------- -- ---- --- --<br>------- ------,194541,194525,194282.4,194283,194282.56,194541.7,,43,credit.
screen,html.Screen,2_1_1_1_44,2022-05-12T14:05:26.318Z,,,,,,,,,,,,,,,,,54,,,,,,,,,,,,,,219.29999999998836,,response,,,,100,,,,,,,Space,keypress(Space),,,,,,,,-- --- ---- --- ------ ----- ------- ---- -- --- ------- --<br>------- ---------- ------ -- ----- -- ----- -- ---- ------<br>--- ----- --- --- ------ -------- ----- --- ------ ----- --<br>----- ----- ---------- --- --- ------ ------ ---- -- ------<br>------- The ------ ----- --- ---- ------- -- ---- --- --<br>------- ------,194777,194761,194541.54,194542,194541.7,194776.9,,44,The
screen,html.Screen,2_1_1_1_45,2022-05-12T14:05:26.676Z,,,,,,,,,,,,,,,,,54,,,,,,,,,,,,,,342.1000000000058,,response,,,,100,,,,,,,Space,keypress(Space),,,,,,,,-- --- ---- --- ------ ----- ------- ---- -- --- ------- --<br>------- ---------- ------ -- ----- -- ----- -- ---- ------<br>--- ----- --- --- ------ -------- ----- --- ------ ----- --<br>----- ----- ---------- --- --- ------ ------ ---- -- ------<br>------- --- French ----- --- ---- ------- -- ---- --- --<br>------- ------,195134,195119,194776.74,194777,194776.9,195134.8,,45,French
screen,html.Screen,2_1_1_1_46,2022-05-12T14:05:26.902Z,,,,,,,,,,,,,,,,,54,,,,,,,,,,,,,,220.20000000001164,,response,,,,100,,,,,,,Space,keypress(Space),,,,,,,,-- --- ---- --- ------ ----- ------- ---- -- --- ------- --<br>------- ---------- ------ -- ----- -- ----- -- ---- ------<br>--- ----- --- --- ------ -------- ----- --- ------ ----- --<br>----- ----- ---------- --- --- ------ ------ ---- -- ------<br>------- --- ------ state --- ---- ------- -- ---- --- --<br>------- ------,195360,195355,195134.66,195134,195134.8,195360.92,,46,state
screen,html.Screen,2_1_1_1_47,2022-05-12T14:05:27.145Z,,,,,,,,,,,,,,,,,54,,,,,,,,,,,,,,228.0799999999872,,response,,,,100,,,,,,,Space,keypress(Space),,,,,,,,-- --- ---- --- ------ ----- ------- ---- -- --- ------- --<br>------- ---------- ------ -- ----- -- ----- -- ---- ------<br>--- ----- --- --- ------ -------- ----- --- ------ ----- --<br>----- ----- ---------- --- --- ------ ------ ---- -- ------<br>------- --- ------ ----- was ---- ------- -- ---- --- --<br>------- ------,195603,195589,195360.78,195360,195360.92,195603.76,,47,was
screen,html.Screen,2_1_1_1_48,2022-05-12T14:05:27.411Z,,,,,,,,,,,,,,,,,54,,,,,,,,,,,,,,250.2399999999907,,response,,,,100,,,,,,,Space,keypress(Space),,,,,,,,-- --- ---- --- ------ ----- ------- ---- -- --- ------- --<br>------- ---------- ------ -- ----- -- ----- -- ---- ------<br>--- ----- --- --- ------ -------- ----- --- ------ ----- --<br>----- ----- ---------- --- --- ------ ------ ---- -- ------<br>------- --- ------ ----- --- left ------- -- ---- --- --<br>------- ------,195869,195854,195603.62,195604,195603.76,195869.06,,48,left
screen,html.Screen,2_1_1_1_49,2022-05-12T14:05:27.635Z,,,,,,,,,,,,,,,,,54,,,,,,,,,,,,,,219.94000000000233,,response,,,,100,,,,,,,Space,keypress(Space),,,,,,,,-- --- ---- --- ------ ----- ------- ---- -- --- ------- --<br>------- ---------- ------ -- ----- -- ----- -- ---- ------<br>--- ----- --- --- ------ -------- ----- --- ------ ----- --<br>----- ----- ---------- --- --- ------ ------ ---- -- ------<br>------- --- ------ ----- --- ---- without -- ---- --- --<br>------- ------,196094,196089,195868.9,195869,195869.06,196093.88,,49,without
screen,html.Screen,2_1_1_1_50,2022-05-12T14:05:28.000Z,,,,,,,,,,,,,,,,,54,,,,,,,,,,,,,,354.11999999999534,,response,,,,100,,,,,,,Space,keypress(Space),,,,,,,,-- --- ---- --- ------ ----- ------- ---- -- --- ------- --<br>------- ---------- ------ -- ----- -- ----- -- ---- ------<br>--- ----- --- --- ------ -------- ----- --- ------ ----- --<br>----- ----- ---------- --- --- ------ ------ ---- -- ------<br>------- --- ------ ----- --- ---- ------- an ---- --- --<br>------- ------,196458,196448,196093.72,196094,196093.88,196458.56,,50,an
screen,html.Screen,2_1_1_1_51,2022-05-12T14:05:28.230Z,,,,,,,,,,,,,,,,,54,,,,,,,,,,,,,,224.44000000000233,,response,,,,100,,,,,,,Space,keypress(Space),,,,,,,,-- --- ---- --- ------ ----- ------- ---- -- --- ------- --<br>------- ---------- ------ -- ----- -- ----- -- ---- ------<br>--- ----- --- --- ------ -------- ----- --- ------ ----- --<br>----- ----- ---------- --- --- ------ ------ ---- -- ------<br>------- --- ------ ----- --- ---- ------- -- easy --- --<br>------- ------,196689,196683,196458.38,196458,196458.56,196689.04,,51,easy
screen,html.Screen,2_1_1_1_52,2022-05-12T14:05:28.441Z,,,,,,,,,,,,,,,,,54,,,,,,,,,,,,,,195.95999999999185,,response,,,,100,,,,,,,Space,keypress(Space),,,,,,,,-- --- ---- --- ------ ----- ------- ---- -- --- ------- --<br>------- ---------- ------ -- ----- -- ----- -- ---- ------<br>--- ----- --- --- ------ -------- ----- --- ------ ----- --<br>----- ----- ---------- --- --- ------ ------ ---- -- ------<br>------- --- ------ ----- --- ---- ------- -- ---- way --<br>------- ------,196899,196885,196688.88,196689,196689.04,196899.42,,52,way
screen,html.Screen,2_1_1_1_53,2022-05-12T14:05:28.749Z,,,,,,,,,,,,,,,,,54,,,,,,,,,,,,,,297.5799999999872,,response,,,,100,,,,,,,Space,keypress(Space),,,,,,,,-- --- ---- --- ------ ----- ------- ---- -- --- ------- --<br>------- ---------- ------ -- ----- -- ----- -- ---- ------<br>--- ----- --- --- ------ -------- ----- --- ------ ----- --<br>----- ----- ---------- --- --- ------ ------ ---- -- ------<br>------- --- ------ ----- --- ---- ------- -- ---- --- of<br>------- ------,197207,197197,196899.26,196899,196899.42,197207.28,,53,of
screen,html.Screen,2_1_1_1_54,2022-05-12T14:05:29.040Z,,,,,,,,,,,,,,,,,54,,,,,,,,,,,,,,287.72000000000116,,response,,,,100,,,,,,,Space,keypress(Space),,,,,,,,-- --- ---- --- ------ ----- ------- ---- -- --- ------- --<br>------- ---------- ------ -- ----- -- ----- -- ---- ------<br>--- ----- --- --- ------ -------- ----- --- ------ ----- --<br>----- ----- ---------- --- --- ------ ------ ---- -- ------<br>------- --- ------ ----- --- ---- ------- -- ---- --- --<br>raising ------,197498,197495,197207.12,197207,197207.28,197498.24,,54,raising
screen,html.Screen,2_1_1_1_55,2022-05-12T14:05:29.306Z,,,,,,,,,,,,,,,,,54,,,,,,,,,,,,,,262.7600000000093,,response,,,,100,,,,,,,Space,keypress(Space),,,,,,,,-- --- ---- --- ------ ----- ------- ---- -- --- ------- --<br>------- ---------- ------ -- ----- -- ----- -- ---- ------<br>--- ----- --- --- ------ -------- ----- --- ------ ----- --<br>----- ----- ---------- --- --- ------ ------ ---- -- ------<br>------- --- ------ ----- --- ---- ------- -- ---- --- --<br>------- money.,197764,197761,197498.06,197498,197498.24,197764.28,,55,money.
Item 100,flow.Loop,2_1_1_1,2022-05-12T14:05:29.306Z,,,,,,,,,,,,,,,,,,,,,,,,,,,,,,,16095.51999999999,,completion,,,,,D,,,,,,,,,,,silence,,,,,197764,197761,181648.82,181649,181665.48,197764.28,,,
Question 1,html.Screen,2_1_1_2,2022-05-12T14:05:32.385Z,,,,,,,,,,,,,,,,,,,,,,,,,,,,true,TRUE,,3073.720000000001,,response,,,,100,D,,,,,,TRUE,click #choice-1,,,,silence,,,,,200843,200838,197764,197764,197764.28,200856.7,,,
Question 2,html.Screen,2_1_1_3,2022-05-12T14:05:34.305Z,,,,,,,,,,,,,,,,,,,,,,,,,,,,false,FALSE,,1903.2999999999884,,response,,,,100,D,,,,,,TRUE,click #choice-1,,,,silence,,,,,202763,202760,200842.96,200843,200856.7,202772.52,,,
Item 100,flow.Sequence,2_1_1,2022-05-12T14:05:34.305Z,,,,,,,,,,,,,,,,,,,,,,,,,,,,,,,31089.98000000001,,completion,,,,,,,,,,,,,,,,,,,,,202763,202760,171663.42,171664,171670.02,202772.52,,,
End of Practice,html.Page,2_1_2,2022-05-12T14:05:38.554Z,,,,,,,,,,,,,,,,,,,,,,,,,,,,,,,4239.4800000000105,,form submission,,,,,,,,,,,,,,,,,,,,,207012,207012,202763.06,202764,202772.52,207020.58,,,
Practice,flow.Sequence,2_1,2022-05-12T14:05:38.554Z,,,,,,,,,,,,,,,,,,,,,,,,,,,,,,,70759.20000000001,,completion,,,,,,,,,,,,,,,,,,,,,207013,207012,136236.36,136240,136252.8,207020.58,,,
Trap_instruction,html.Page,2_2_0,2022-05-12T14:05:41.970Z,,,,,,,,,,,,,,,,,,,,,,,,,,,,,,,3407.420000000013,,form submission,,,,,,,,,,,,,,,,,,,,,210428,210428,207009.16,207013,207020.58,210435.68,,,
trap_trial,html.Screen,2_2_1,2022-05-12T14:05:45.528Z,,,,,,,,,,,,,,,,,,,,,,,,,,,,true,1,,3544.320000000007,,response,,,,,,,,,,,1,click #choice-1,,,,,,,,,213986,213980,210424.8,210428,210435.68,214000.74,,,
end of trap trial,html.Page,2_2_2,2022-05-12T14:05:47.430Z,,,,,,,,,,,,,,,,,,,,,,,,,,,,,,,1888.2600000000093,,form submission,,,,,,,,,,,,,,,,,,,,,215889,215889,213985.68,213986,214000.74,215899.86,,,
Trap 1,flow.Sequence,2_2,2022-05-12T14:05:47.431Z,,,,,,,,,,,,,,,,,,,,,,,,,,,,,,,8868.420000000013,,completion,,,,,,,,,,,,,,,,,,,,,215889,215889,207009.16,207013,207020.58,215899.86,,,
Standby,html.Page,2_3_0,2022-05-12T14:05:55.422Z,,,,,,,,,,,,,,,,,,,,,,,,,,,,,,,7996.360000000015,,timeout,,,,,,,,,,,,,,,,,,,,,223880,223879.56,215886.42,215889,215899.86,223896.22,,,
Holding screen,html.Screen,2_3_1_0_0,2022-05-12T14:06:02.419Z,,,,,,,,,,,,,,,,,,,,,,,,,,,,,,,6996.799999999988,,timeout,,,,,,,,,,,,,,,,,,,,,230877,230876.36,223879.56,223880,223896.22,230893.02,,,
screen,html.Screen,2_3_1_0_1_0,2022-05-12T14:06:03.095Z,,,,,,,,,,,,,,,,,19,,,,,,,,,,,,,,648.9800000000105,,response,,,,17,D,,,,,,Space,keypress(Space),,,,speech,,,,"Interestingly, --- -------- -------- ---------- ---- -------<br>-- ---------- -- --- ----- ------ ----- ---- --------- ----<br>------- ------ -------- -- ------ ---------- ------ ---<br>------ -- -- ---- -- ---------- -------- ------ ---- -------<br>---- --- --------- ------- ----- --------- ---- ----- --<br>------ -------- -- ------ -- ---- ------------",231553,231542,230876.36,230877,230893.02,231553.04,,0,"Interestingly,"
screen,html.Screen,2_3_1_0_1_1,2022-05-12T14:06:03.420Z,,,,,,,,,,,,,,,,,19,,,,,,,,,,,,,,315.95999999999185,,response,,,,17,D,,,,,,Space,keypress(Space),,,,speech,,,,-------------- the -------- -------- ---------- ---- -------<br>-- ---------- -- --- ----- ------ ----- ---- --------- ----<br>------- ------ -------- -- ------ ---------- ------ ---<br>------ -- -- ---- -- ---------- -------- ------ ---- -------<br>---- --- --------- ------- ----- --------- ---- ----- --<br>------ -------- -- ------ -- ---- ------------,231879,231869,231552.88,231553,231553.04,231878.94,,1,the
screen,html.Screen,2_3_1_0_1_2,2022-05-12T14:06:03.707Z,,,,,,,,,,,,,,,,,19,,,,,,,,,,,,,,271.0599999999977,,response,,,,17,D,,,,,,Space,keypress(Space),,,,speech,,,,-------------- --- heaviest -------- ---------- ---- -------<br>-- ---------- -- --- ----- ------ ----- ---- --------- ----<br>------- ------ -------- -- ------ ---------- ------ ---<br>------ -- -- ---- -- ---------- -------- ------ ---- -------<br>---- --- --------- ------- ----- --------- ---- ----- --<br>------ -------- -- ------ -- ---- ------------,232165,232150,231878.82,231879,231878.94,232165.34,,2,heaviest
screen,html.Screen,2_3_1_0_1_3,2022-05-12T14:06:04.082Z,,,,,,,,,,,,,,,,,19,,,,,,,,,,,,,,360.6600000000035,,response,,,,17,D,,,,,,Space,keypress(Space),,,,speech,,,,-------------- --- -------- isotopes ---------- ---- -------<br>-- ---------- -- --- ----- ------ ----- ---- --------- ----<br>------- ------ -------- -- ------ ---------- ------ ---<br>------ -- -- ---- -- ---------- -------- ------ ---- -------<br>---- --- --------- ------- ----- --------- ---- ----- --<br>------ -------- -- ------ -- ---- ------------,232540,232526,232165.18,232166,232165.34,232540.96,,3,isotopes
screen,html.Screen,2_3_1_0_1_4,2022-05-12T14:06:04.564Z,,,,,,,,,,,,,,,,,19,,,,,,,,,,,,,,470.04000000000815,,response,,,,17,D,,,,,,Space,keypress(Space),,,,speech,,,,-------------- --- -------- -------- physicists ---- -------<br>-- ---------- -- --- ----- ------ ----- ---- --------- ----<br>------- ------ -------- -- ------ ---------- ------ ---<br>------ -- -- ---- -- ---------- -------- ------ ---- -------<br>---- --- --------- ------- ----- --------- ---- ----- --<br>------ -------- -- ------ -- ---- ------------,233022,233011,232540.78,232540,232540.96,233022.58,,4,physicists
screen,html.Screen,2_3_1_0_1_5,2022-05-12T14:06:04.960Z,,,,,,,,,,,,,,,,,19,,,,,,,,,,,,,,378.4200000000128,,response,,,,17,D,,,,,,Space,keypress(Space),,,,speech,,,,-------------- --- -------- -------- ---------- have -------<br>-- ---------- -- --- ----- ------ ----- ---- --------- ----<br>------- ------ -------- -- ------ ---------- ------ ---<br>------ -- -- ---- -- ---------- -------- ------ ---- -------<br>---- --- --------- ------- ----- --------- ---- ----- --<br>------ -------- -- ------ -- ---- ------------,233417,233401,233022.4,233022,233022.58,233417.52,,5,have
screen,html.Screen,2_3_1_0_1_6,2022-05-12T14:06:05.225Z,,,,,,,,,,,,,,,,,19,,,,,,,,,,,,,,248.48000000001048,,response,,,,17,D,,,,,,Space,keypress(Space),,,,speech,,,,-------------- --- -------- -------- ---------- ---- managed<br>-- ---------- -- --- ----- ------ ----- ---- --------- ----<br>------- ------ -------- -- ------ ---------- ------ ---<br>------ -- -- ---- -- ---------- -------- ------ ---- -------<br>---- --- --------- ------- ----- --------- ---- ----- --<br>------ -------- -- ------ -- ---- ------------,233683,233666,233417.36,233417,233417.52,233683.52,,6,managed
screen,html.Screen,2_3_1_0_1_7,2022-05-12T14:06:05.627Z,,,,,,,,,,,,,,,,,19,,,,,,,,,,,,,,389.4800000000105,,response,,,,17,D,,,,,,Space,keypress(Space),,,,speech,,,,-------------- --- -------- -------- ---------- ---- -------<br>to ---------- -- --- ----- ------ ----- ---- --------- ----<br>------- ------ -------- -- ------ ---------- ------ ---<br>------ -- -- ---- -- ---------- -------- ------ ---- -------<br>---- --- --------- ------- ----- --------- ---- ----- --<br>------ -------- -- ------ -- ---- ------------,234085,234073,233683.36,233683,233683.52,234086,,7,to
screen,html.Screen,2_3_1_0_1_8,2022-05-12T14:06:05.894Z,,,,,,,,,,,,,,,,,19,,,,,,,,,,,,,,252,,response,,,,17,D,,,,,,Space,keypress(Space),,,,speech,,,,-------------- --- -------- -------- ---------- ---- -------<br>-- synthesize -- --- ----- ------ ----- ---- --------- ----<br>------- ------ -------- -- ------ ---------- ------ ---<br>------ -- -- ---- -- ---------- -------- ------ ---- -------<br>---- --- --------- ------- ----- --------- ---- ----- --<br>------ -------- -- ------ -- ---- ------------,234353,234338,234085.82,234086,234086,234352.88,,8,synthesize
screen,html.Screen,2_3_1_0_1_9,2022-05-12T14:06:06.226Z,,,,,,,,,,,,,,,,,19,,,,,,,,,,,,,,329.11999999999534,,response,,,,17,D,,,,,,Space,keypress(Space),,,,speech,,,,-------------- --- -------- -------- ---------- ---- -------<br>-- ---------- so --- ----- ------ ----- ---- --------- ----<br>------- ------ -------- -- ------ ---------- ------ ---<br>------ -- -- ---- -- ---------- -------- ------ ---- -------<br>---- --- --------- ------- ----- --------- ---- ----- --<br>------ -------- -- ------ -- ---- ------------,234684,234682,234352.72,234353,234352.88,234684.24,,9,so
screen,html.Screen,2_3_1_0_1_10,2022-05-12T14:06:06.497Z,,,,,,,,,,,,,,,,,19,,,,,,,,,,,,,,263.7600000000093,,response,,,,17,D,,,,,,Space,keypress(Space),,,,speech,,,,-------------- --- -------- -------- ---------- ---- -------<br>-- ---------- -- far ----- ------ ----- ---- --------- ----<br>------- ------ -------- -- ------ ---------- ------ ---<br>------ -- -- ---- -- ---------- -------- ------ ---- -------<br>---- --- --------- ------- ----- --------- ---- ----- --<br>------ -------- -- ------ -- ---- ------------,234955,234948,234684.08,234684,234684.24,234955.06,,10,far
screen,html.Screen,2_3_1_0_1_11,2022-05-12T14:06:06.752Z,,,,,,,,,,,,,,,,,19,,,,,,,,,,,,,,241.94000000000233,,response,,,,17,D,,,,,,Space,keypress(Space),,,,speech,,,,-------------- --- -------- -------- ---------- ---- -------<br>-- ---------- -- --- don't ------ ----- ---- --------- ----<br>------- ------ -------- -- ------ ---------- ------ ---<br>------ -- -- ---- -- ---------- -------- ------ ---- -------<br>---- --- --------- ------- ----- --------- ---- ----- --<br>------ -------- -- ------ -- ---- ------------,235209,235197,234954.86,234955,234955.06,235210.1,,11,don't
screen,html.Screen,2_3_1_0_1_12,2022-05-12T14:06:07.033Z,,,,,,,,,,,,,,,,,19,,,,,,,,,,,,,,268.8999999999942,,response,,,,17,D,,,,,,Space,keypress(Space),,,,speech,,,,-------------- --- -------- -------- ---------- ---- -------<br>-- ---------- -- --- ----- behave ----- ---- --------- ----<br>------- ------ -------- -- ------ ---------- ------ ---<br>------ -- -- ---- -- ---------- -------- ------ ---- -------<br>---- --- --------- ------- ----- --------- ---- ----- --<br>------ -------- -- ------ -- ---- ------------,235492,235479,235209.96,235210,235210.1,235491.96,,12,behave
screen,html.Screen,2_3_1_0_1_13,2022-05-12T14:06:07.335Z,,,,,,,,,,,,,,,,,19,,,,,,,,,,,,,,300.04000000000815,,response,,,,17,D,,,,,,Space,keypress(Space),,,,speech,,,,-------------- --- -------- -------- ---------- ---- -------<br>-- ---------- -- --- ----- ------ quite ---- --------- ----<br>------- ------ -------- -- ------ ---------- ------ ---<br>------ -- -- ---- -- ---------- -------- ------ ---- -------<br>---- --- --------- ------- ----- --------- ---- ----- --<br>------ -------- -- ------ -- ---- ------------,235794,235792,235491.8,235492,235491.96,235793.62,,13,quite
screen,html.Screen,2_3_1_0_1_14,2022-05-12T14:06:07.643Z,,,,,,,,,,,,,,,,,19,,,,,,,,,,,,,,294.38000000000466,,response,,,,17,D,,,,,,Space,keypress(Space),,,,speech,,,,-------------- --- -------- -------- ---------- ---- -------<br>-- ---------- -- --- ----- ------ ----- like --------- ----<br>------- ------ -------- -- ------ ---------- ------ ---<br>------ -- -- ---- -- ---------- -------- ------ ---- -------<br>---- --- --------- ------- ----- --------- ---- ----- --<br>------ -------- -- ------ -- ---- ------------,236101,236088,235793.48,235794,235793.62,236101.14,,14,like
screen,html.Screen,2_3_1_0_1_15,2022-05-12T14:06:07.850Z,,,,,,,,,,,,,,,,,19,,,,,,,,,,,,,,206.85999999998603,,response,,,,17,D,,,,,,Space,keypress(Space),,,,speech,,,,-------------- --- -------- -------- ---------- ---- -------<br>-- ---------- -- --- ----- ------ ----- ---- science's ----<br>------- ------ -------- -- ------ ---------- ------ ---<br>------ -- -- ---- -- ---------- -------- ------ ---- -------<br>---- --- --------- ------- ----- --------- ---- ----- --<br>------ -------- -- ------ -- ---- ------------,236309,236308,236100.98,236101,236101.14,236308.98,,15,science's
screen,html.Screen,2_3_1_0_1_16,2022-05-12T14:06:08.301Z,,,,,,,,,,,,,,,,,19,,,,,,,,,,,,,,436.0199999999895,,response,,,,17,D,,,,,,Space,keypress(Space),,,,speech,,,,-------------- --- -------- -------- ---------- ---- -------<br>-- ---------- -- --- ----- ------ ----- ---- --------- best<br>------- ------ -------- -- ------ ---------- ------ ---<br>------ -- -- ---- -- ---------- -------- ------ ---- -------<br>---- --- --------- ------- ----- --------- ---- ----- --<br>------ -------- -- ------ -- ---- ------------,236759,236745,236308.82,236309,236308.98,236759.4,,16,best
screen,html.Screen,2_3_1_0_1_17,2022-05-12T14:06:08.614Z,,,,,,,,,,,,,,,,,19,,,,,,,,,,,,,,298.6000000000058,,response,,,,17,D,,,,,,Space,keypress(Space),,,,speech,,,,-------------- --- -------- -------- ---------- ---- -------<br>-- ---------- -- --- ----- ------ ----- ---- --------- ----<br>current ------ -------- -- ------ ---------- ------ ---<br>------ -- -- ---- -- ---------- -------- ------ ---- -------<br>---- --- --------- ------- ----- --------- ---- ----- --<br>------ -------- -- ------ -- ---- ------------,237072,237058,236759.22,236759,236759.4,237072.52,,17,current
screen,html.Screen,2_3_1_0_1_18,2022-05-12T14:06:09.015Z,,,,,,,,,,,,,,,,,19,,,,,,,,,,,,,,391.4800000000105,,response,,,,17,D,,,,,,Space,keypress(Space),,,,speech,,,,-------------- --- -------- -------- ---------- ---- -------<br>-- ---------- -- --- ----- ------ ----- ---- --------- ----<br>------- models -------- -- ------ ---------- ------ ---<br>------ -- -- ---- -- ---------- -------- ------ ---- -------<br>---- --- --------- ------- ----- --------- ---- ----- --<br>------ -------- -- ------ -- ---- ------------,237473,237464,237072.38,237072,237072.52,237473.32,,18,models
screen,html.Screen,2_3_1_0_1_19,2022-05-12T14:06:09.305Z,,,,,,,,,,,,,,,,,19,,,,,,,,,,,,,,286.679999999993,,response,,,,17,D,,,,,,Space,keypress(Space),,,,speech,,,,"-------------- --- -------- -------- ---------- ---- -------<br>-- ---------- -- --- ----- ------ ----- ---- --------- ----<br>------- ------ predict, -- ------ ---------- ------ ---<br>------ -- -- ---- -- ---------- -------- ------ ---- -------<br>---- --- --------- ------- ----- --------- ---- ----- --<br>------ -------- -- ------ -- ---- ------------",237763,237760,237473.14,237473,237473.32,237763,,19,"predict,"
screen,html.Screen,2_3_1_0_1_20,2022-05-12T14:06:09.575Z,,,,,,,,,,,,,,,,,19,,,,,,,,,,,,,,263,,response,,,,17,D,,,,,,Space,keypress(Space),,,,speech,,,,-------------- --- -------- -------- ---------- ---- -------<br>-- ---------- -- --- ----- ------ ----- ---- --------- ----<br>------- ------ -------- so ------ ---------- ------ ---<br>------ -- -- ---- -- ---------- -------- ------ ---- -------<br>---- --- --------- ------- ----- --------- ---- ----- --<br>------ -------- -- ------ -- ---- ------------,238032,238026,237762.86,237763,237763,238032.94,,20,so
screen,html.Screen,2_3_1_0_1_21,2022-05-12T14:06:09.958Z,,,,,,,,,,,,,,,,,19,,,,,,,,,,,,,,368.0599999999977,,response,,,,17,D,,,,,,Space,keypress(Space),,,,speech,,,,-------------- --- -------- -------- ---------- ---- -------<br>-- ---------- -- --- ----- ------ ----- ---- --------- ----<br>------- ------ -------- -- stable ---------- ------ ---<br>------ -- -- ---- -- ---------- -------- ------ ---- -------<br>---- --- --------- ------- ----- --------- ---- ----- --<br>------ -------- -- ------ -- ---- ------------,238416,238401,238032.8,238033,238032.94,238416.4,,21,stable
screen,html.Screen,2_3_1_0_1_22,2022-05-12T14:06:10.219Z,,,,,,,,,,,,,,,,,19,,,,,,,,,,,,,,250.60000000000582,,response,,,,17,D,,,,,,Space,keypress(Space),,,,speech,,,,-------------- --- -------- -------- ---------- ---- -------<br>-- ---------- -- --- ----- ------ ----- ---- --------- ----<br>------- ------ -------- -- ------ superheavy ------ ---<br>------ -- -- ---- -- ---------- -------- ------ ---- -------<br>---- --- --------- ------- ----- --------- ---- ----- --<br>------ -------- -- ------ -- ---- ------------,238677,238667,238416.26,238416,238416.4,238677.58,,22,superheavy
screen,html.Screen,2_3_1_0_1_23,2022-05-12T14:06:10.653Z,,,,,,,,,,,,,,,,,19,,,,,,,,,,,,,,427.4200000000128,,response,,,,17,D,,,,,,Space,keypress(Space),,,,speech,,,,-------------- --- -------- -------- ---------- ---- -------<br>-- ---------- -- --- ----- ------ ----- ---- --------- ----<br>------- ------ -------- -- ------ ---------- nuclei ---<br>------ -- -- ---- -- ---------- -------- ------ ---- -------<br>---- --- --------- ------- ----- --------- ---- ----- --<br>------ -------- -- ------ -- ---- ------------,239111,239105,238677.4,238677,238677.58,239111.5,,23,nuclei
screen,html.Screen,2_3_1_0_1_24,2022-05-12T14:06:11.140Z,,,,,,,,,,,,,,,,,19,,,,,,,,,,,,,,476.5,,response,,,,17,D,,,,,,Space,keypress(Space),,,,speech,,,,-------------- --- -------- -------- ---------- ---- -------<br>-- ---------- -- --- ----- ------ ----- ---- --------- ----<br>------- ------ -------- -- ------ ---------- ------ are<br>------ -- -- ---- -- ---------- -------- ------ ---- -------<br>---- --- --------- ------- ----- --------- ---- ----- --<br>------ -------- -- ------ -- ---- ------------,239599,239588,239111.32,239111,239111.5,239598.98,,24,are
screen,html.Screen,2_3_1_0_1_25,2022-05-12T14:06:11.513Z,,,,,,,,,,,,,,,,,19,,,,,,,,,,,,,,364.0199999999895,,response,,,,17,D,,,,,,Space,keypress(Space),,,,speech,,,,-------------- --- -------- -------- ---------- ---- -------<br>-- ---------- -- --- ----- ------ ----- ---- --------- ----<br>------- ------ -------- -- ------ ---------- ------ ---<br>likely -- -- ---- -- ---------- -------- ------ ---- -------<br>---- --- --------- ------- ----- --------- ---- ----- --<br>------ -------- -- ------ -- ---- ------------,239971,239963,239598.8,239599,239598.98,239971.54,,25,likely
screen,html.Screen,2_3_1_0_1_26,2022-05-12T14:06:11.864Z,,,,,,,,,,,,,,,,,19,,,,,,,,,,,,,,336.45999999999185,,response,,,,17,D,,,,,,Space,keypress(Space),,,,speech,,,,-------------- --- -------- -------- ---------- ---- -------<br>-- ---------- -- --- ----- ------ ----- ---- --------- ----<br>------- ------ -------- -- ------ ---------- ------ ---<br>------ to -- ---- -- ---------- -------- ------ ---- -------<br>---- --- --------- ------- ----- --------- ---- ----- --<br>------ -------- -- ------ -- ---- ------------,240322,240308,239971.4,239972,239971.54,240322.44,,26,to
screen,html.Screen,2_3_1_0_1_27,2022-05-12T14:06:12.182Z,,,,,,,,,,,,,,,,,19,,,,,,,,,,,,,,313.5599999999977,,response,,,,17,D,,,,,,Space,keypress(Space),,,,speech,,,,-------------- --- -------- -------- ---------- ---- -------<br>-- ---------- -- --- ----- ------ ----- ---- --------- ----<br>------- ------ -------- -- ------ ---------- ------ ---<br>------ -- be ---- -- ---------- -------- ------ ---- -------<br>---- --- --------- ------- ----- --------- ---- ----- --<br>------ -------- -- ------ -- ---- ------------,240641,240636,240322.26,240322,240322.44,240640.86,,27,be
screen,html.Screen,2_3_1_0_1_28,2022-05-12T14:06:12.455Z,,,,,,,,,,,,,,,,,19,,,,,,,,,,,,,,260.14000000001397,,response,,,,17,D,,,,,,Space,keypress(Space),,,,speech,,,,-------------- --- -------- -------- ---------- ---- -------<br>-- ---------- -- --- ----- ------ ----- ---- --------- ----<br>------- ------ -------- -- ------ ---------- ------ ---<br>------ -- -- full -- ---------- -------- ------ ---- -------<br>---- --- --------- ------- ----- --------- ---- ----- --<br>------ -------- -- ------ -- ---- ------------,240913,240901,240640.7,240641,240640.86,240914.08,,28,full
screen,html.Screen,2_3_1_0_1_29,2022-05-12T14:06:12.787Z,,,,,,,,,,,,,,,,,19,,,,,,,,,,,,,,314.9200000000128,,response,,,,17,D,,,,,,Space,keypress(Space),,,,speech,,,,-------------- --- -------- -------- ---------- ---- -------<br>-- ---------- -- --- ----- ------ ----- ---- --------- ----<br>------- ------ -------- -- ------ ---------- ------ ---<br>------ -- -- ---- of ---------- -------- ------ ---- -------<br>---- --- --------- ------- ----- --------- ---- ----- --<br>------ -------- -- ------ -- ---- ------------,241245,241229,240913.88,240914,240914.08,241245.52,,29,of
screen,html.Screen,2_3_1_0_1_30,2022-05-12T14:06:13.014Z,,,,,,,,,,,,,,,,,19,,,,,,,,,,,,,,218.48000000001048,,response,,,,17,D,,,,,,Space,keypress(Space),,,,speech,,,,-------------- --- -------- -------- ---------- ---- -------<br>-- ---------- -- --- ----- ------ ----- ---- --------- ----<br>------- ------ -------- -- ------ ---------- ------ ---<br>------ -- -- ---- -- surprises. -------- ------ ---- -------<br>---- --- --------- ------- ----- --------- ---- ----- --<br>------ -------- -- ------ -- ---- ------------,241473,241464,241245.34,241245,241245.52,241472.94,,30,surprises.
screen,html.Screen,2_3_1_0_1_31,2022-05-12T14:06:13.305Z,,,,,,,,,,,,,,,,,19,,,,,,,,,,,,,,288.0599999999977,,response,,,,17,D,,,,,,Space,keypress(Space),,,,speech,,,,-------------- --- -------- -------- ---------- ---- -------<br>-- ---------- -- --- ----- ------ ----- ---- --------- ----<br>------- ------ -------- -- ------ ---------- ------ ---<br>------ -- -- ---- -- ---------- Chemists ------ ---- -------<br>---- --- --------- ------- ----- --------- ---- ----- --<br>------ -------- -- ------ -- ---- ------------,241764,241761,241472.76,241473,241472.94,241763.76,,31,Chemists
screen,html.Screen,2_3_1_0_1_32,2022-05-12T14:06:13.724Z,,,,,,,,,,,,,,,,,19,,,,,,,,,,,,,,403.2399999999907,,response,,,,17,D,,,,,,Space,keypress(Space),,,,speech,,,,-------------- --- -------- -------- ---------- ---- -------<br>-- ---------- -- --- ----- ------ ----- ---- --------- ----<br>------- ------ -------- -- ------ ---------- ------ ---<br>------ -- -- ---- -- ---------- -------- cannot ---- -------<br>---- --- --------- ------- ----- --------- ---- ----- --<br>------ -------- -- ------ -- ---- ------------,242183,242167,241763.58,241764,241763.76,242183.08,,32,cannot
screen,html.Screen,2_3_1_0_1_33,2022-05-12T14:06:13.959Z,,,,,,,,,,,,,,,,,19,,,,,,,,,,,,,,217.9200000000128,,response,,,,17,D,,,,,,Space,keypress(Space),,,,speech,,,,-------------- --- -------- -------- ---------- ---- -------<br>-- ---------- -- --- ----- ------ ----- ---- --------- ----<br>------- ------ -------- -- ------ ---------- ------ ---<br>------ -- -- ---- -- ---------- -------- ------ even -------<br>---- --- --------- ------- ----- --------- ---- ----- --<br>------ -------- -- ------ -- ---- ------------,242417,242401,242182.92,242183,242183.08,242416.82,,33,even
screen,html.Screen,2_3_1_0_1_34,2022-05-12T14:06:14.344Z,,,,,,,,,,,,,,,,,19,,,,,,,,,,,,,,375.179999999993,,response,,,,17,D,,,,,,Space,keypress(Space),,,,speech,,,,-------------- --- -------- -------- ---------- ---- -------<br>-- ---------- -- --- ----- ------ ----- ---- --------- ----<br>------- ------ -------- -- ------ ---------- ------ ---<br>------ -- -- ---- -- ---------- -------- ------ ---- predict<br>---- --- --------- ------- ----- --------- ---- ----- --<br>------ -------- -- ------ -- ---- ------------,242802,242792,242416.66,242417,242416.82,242802.3,,34,predict
screen,html.Screen,2_3_1_0_1_35,2022-05-12T14:06:14.580Z,,,,,,,,,,,,,,,,,19,,,,,,,,,,,,,,223.70000000001164,,response,,,,17,D,,,,,,Space,keypress(Space),,,,speech,,,,-------------- --- -------- -------- ---------- ---- -------<br>-- ---------- -- --- ----- ------ ----- ---- --------- ----<br>------- ------ -------- -- ------ ---------- ------ ---<br>------ -- -- ---- -- ---------- -------- ------ ---- -------<br>with --- --------- ------- ----- --------- ---- ----- --<br>------ -------- -- ------ -- ---- ------------,243039,243026,242802.14,242802,242802.3,243038.98,,35,with
screen,html.Screen,2_3_1_0_1_36,2022-05-12T14:06:14.901Z,,,,,,,,,,,,,,,,,19,,,,,,,,,,,,,,316.0199999999895,,response,,,,17,D,,,,,,Space,keypress(Space),,,,speech,,,,-------------- --- -------- -------- ---------- ---- -------<br>-- ---------- -- --- ----- ------ ----- ---- --------- ----<br>------- ------ -------- -- ------ ---------- ------ ---<br>------ -- -- ---- -- ---------- -------- ------ ---- -------<br>---- any --------- ------- ----- --------- ---- ----- --<br>------ -------- -- ------ -- ---- ------------,243359,243355,243038.8,243039,243038.98,243359.46,,36,any
screen,html.Screen,2_3_1_0_1_37,2022-05-12T14:06:15.151Z,,,,,,,,,,,,,,,,,19,,,,,,,,,,,,,,244.54000000000815,,response,,,,17,D,,,,,,Space,keypress(Space),,,,speech,,,,-------------- --- -------- -------- ---------- ---- -------<br>-- ---------- -- --- ----- ------ ----- ---- --------- ----<br>------- ------ -------- -- ------ ---------- ------ ---<br>------ -- -- ---- -- ---------- -------- ------ ---- -------<br>---- --- certainty ------- ----- --------- ---- ----- --<br>------ -------- -- ------ -- ---- ------------,243609,243604,243359.3,243359,243359.46,243609.36,,37,certainty
screen,html.Screen,2_3_1_0_1_38,2022-05-12T14:06:15.523Z,,,,,,,,,,,,,,,,,19,,,,,,,,,,,,,,370.64000000001397,,response,,,,17,D,,,,,,Space,keypress(Space),,,,speech,,,,-------------- --- -------- -------- ---------- ---- -------<br>-- ---------- -- --- ----- ------ ----- ---- --------- ----<br>------- ------ -------- -- ------ ---------- ------ ---<br>------ -- -- ---- -- ---------- -------- ------ ---- -------<br>---- --- --------- whether ----- --------- ---- ----- --<br>------ -------- -- ------ -- ---- ------------,243981,243980,243609.18,243609,243609.36,243981.54,,38,whether
screen,html.Screen,2_3_1_0_1_39,2022-05-12T14:06:15.896Z,,,,,,,,,,,,,,,,,19,,,,,,,,,,,,,,357.45999999999185,,response,,,,17,D,,,,,,Space,keypress(Space),,,,speech,,,,-------------- --- -------- -------- ---------- ---- -------<br>-- ---------- -- --- ----- ------ ----- ---- --------- ----<br>------- ------ -------- -- ------ ---------- ------ ---<br>------ -- -- ---- -- ---------- -------- ------ ---- -------<br>---- --- --------- ------- these --------- ---- ----- --<br>------ -------- -- ------ -- ---- ------------,244354,244339,243981.36,243981,243981.54,244354.12,,39,these
screen,html.Screen,2_3_1_0_1_40,2022-05-12T14:06:16.175Z,,,,,,,,,,,,,,,,,19,,,,,,,,,,,,,,264.88000000000466,,response,,,,17,D,,,,,,Space,keypress(Space),,,,speech,,,,-------------- --- -------- -------- ---------- ---- -------<br>-- ---------- -- --- ----- ------ ----- ---- --------- ----<br>------- ------ -------- -- ------ ---------- ------ ---<br>------ -- -- ---- -- ---------- -------- ------ ---- -------<br>---- --- --------- ------- ----- materials ---- ----- --<br>------ -------- -- ------ -- ---- ------------,244633,244619,244353.96,244354,244354.12,244632.96,,40,materials
screen,html.Screen,2_3_1_0_1_41,2022-05-12T14:06:16.456Z,,,,,,,,,,,,,,,,,19,,,,,,,,,,,,,,267.04000000000815,,response,,,,17,D,,,,,,Space,keypress(Space),,,,speech,,,,-------------- --- -------- -------- ---------- ---- -------<br>-- ---------- -- --- ----- ------ ----- ---- --------- ----<br>------- ------ -------- -- ------ ---------- ------ ---<br>------ -- -- ---- -- ---------- -------- ------ ---- -------<br>---- --- --------- ------- ----- --------- will ----- --<br>------ -------- -- ------ -- ---- ------------,244914,244900,244632.76,244633,244632.96,244914.36,,41,will
screen,html.Screen,2_3_1_0_1_42,2022-05-12T14:06:16.789Z,,,,,,,,,,,,,,,,,19,,,,,,,,,,,,,,330.64000000001397,,response,,,,17,D,,,,,,Space,keypress(Space),,,,speech,,,,-------------- --- -------- -------- ---------- ---- -------<br>-- ---------- -- --- ----- ------ ----- ---- --------- ----<br>------- ------ -------- -- ------ ---------- ------ ---<br>------ -- -- ---- -- ---------- -------- ------ ---- -------<br>---- --- --------- ------- ----- --------- ---- exist --<br>------ -------- -- ------ -- ---- ------------,245247,245245,244914.2,244914,244914.36,245247.44,,42,exist
screen,html.Screen,2_3_1_0_1_43,2022-05-12T14:06:17.130Z,,,,,,,,,,,,,,,,,19,,,,,,,,,,,,,,324.5599999999977,,response,,,,17,D,,,,,,Space,keypress(Space),,,,speech,,,,-------------- --- -------- -------- ---------- ---- -------<br>-- ---------- -- --- ----- ------ ----- ---- --------- ----<br>------- ------ -------- -- ------ ---------- ------ ---<br>------ -- -- ---- -- ---------- -------- ------ ---- -------<br>---- --- --------- ------- ----- --------- ---- ----- as<br>------ -------- -- ------ -- ---- ------------,245588,245572,245247.28,245248,245247.44,245588.88,,43,as
screen,html.Screen,2_3_1_0_1_44,2022-05-12T14:06:17.449Z,,,,,,,,,,,,,,,,,19,,,,,,,,,,,,,,311.11999999999534,,response,,,,17,D,,,,,,Space,keypress(Space),,,,speech,,,,"-------------- --- -------- -------- ---------- ---- -------<br>-- ---------- -- --- ----- ------ ----- ---- --------- ----<br>------- ------ -------- -- ------ ---------- ------ ---<br>------ -- -- ---- -- ---------- -------- ------ ---- -------<br>---- --- --------- ------- ----- --------- ---- ----- --<br>gases, -------- -- ------ -- ---- ------------",245908,245900,245588.72,245589,245588.88,245907.66,,44,"gases,"
screen,html.Screen,2_3_1_0_1_45,2022-05-12T14:06:17.969Z,,,,,,,,,,,,,,,,,19,,,,,,,,,,,,,,509.3399999999965,,response,,,,17,D,,,,,,Space,keypress(Space),,,,speech,,,,"-------------- --- -------- -------- ---------- ---- -------<br>-- ---------- -- --- ----- ------ ----- ---- --------- ----<br>------- ------ -------- -- ------ ---------- ------ ---<br>------ -- -- ---- -- ---------- -------- ------ ---- -------<br>---- --- --------- ------- ----- --------- ---- ----- --<br>------ liquids, -- ------ -- ---- ------------",246427,246417,245907.5,245908,245907.66,246427.48,,45,"liquids,"
screen,html.Screen,2_3_1_0_1_46,2022-05-12T14:06:18.241Z,,,,,,,,,,,,,,,,,19,,,,,,,,,,,,,,254.51999999998952,,response,,,,17,D,,,,,,Space,keypress(Space),,,,speech,,,,-------------- --- -------- -------- ---------- ---- -------<br>-- ---------- -- --- ----- ------ ----- ---- --------- ----<br>------- ------ -------- -- ------ ---------- ------ ---<br>------ -- -- ---- -- ---------- -------- ------ ---- -------<br>---- --- --------- ------- ----- --------- ---- ----- --<br>------ -------- or ------ -- ---- ------------,246699,246682,246427.36,246427,246427.48,246699.12,,46,or
screen,html.Screen,2_3_1_0_1_47,2022-05-12T14:06:18.611Z,,,,,,,,,,,,,,,,,19,,,,,,,,,,,,,,357.88000000000466,,response,,,,17,D,,,,,,Space,keypress(Space),,,,speech,,,,-------------- --- -------- -------- ---------- ---- -------<br>-- ---------- -- --- ----- ------ ----- ---- --------- ----<br>------- ------ -------- -- ------ ---------- ------ ---<br>------ -- -- ---- -- ---------- -------- ------ ---- -------<br>---- --- --------- ------- ----- --------- ---- ----- --<br>------ -------- -- solids -- ---- ------------,247069,247057,246698.98,246699,246699.12,247069.28,,47,solids
screen,html.Screen,2_3_1_0_1_48,2022-05-12T14:06:18.850Z,,,,,,,,,,,,,,,,,19,,,,,,,,,,,,,,222.72000000000116,,response,,,,17,D,,,,,,Space,keypress(Space),,,,speech,,,,-------------- --- -------- -------- ---------- ---- -------<br>-- ---------- -- --- ----- ------ ----- ---- --------- ----<br>------- ------ -------- -- ------ ---------- ------ ---<br>------ -- -- ---- -- ---------- -------- ------ ---- -------<br>---- --- --------- ------- ----- --------- ---- ----- --<br>------ -------- -- ------ at ---- ------------,247308,247292,247069.12,247069,247069.28,247308.34,,48,at
screen,html.Screen,2_3_1_0_1_49,2022-05-12T14:06:19.201Z,,,,,,,,,,,,,,,,,19,,,,,,,,,,,,,,342.6600000000035,,response,,,,17,D,,,,,,Space,keypress(Space),,,,speech,,,,-------------- --- -------- -------- ---------- ---- -------<br>-- ---------- -- --- ----- ------ ----- ---- --------- ----<br>------- ------ -------- -- ------ ---------- ------ ---<br>------ -- -- ---- -- ---------- -------- ------ ---- -------<br>---- --- --------- ------- ----- --------- ---- ----- --<br>------ -------- -- ------ -- room ------------,247659,247651,247308.18,247308,247308.34,247659.6,,49,room
screen,html.Screen,2_3_1_0_1_50,2022-05-12T14:06:19.528Z,,,,,,,,,,,,,,,,,19,,,,,,,,,,,,,,320.3999999999942,,response,,,,17,D,,,,,,Space,keypress(Space),,,,speech,,,,-------------- --- -------- -------- ---------- ---- -------<br>-- ---------- -- --- ----- ------ ----- ---- --------- ----<br>------- ------ -------- -- ------ ---------- ------ ---<br>------ -- -- ---- -- ---------- -------- ------ ---- -------<br>---- --- --------- ------- ----- --------- ---- ----- --<br>------ -------- -- ------ -- ---- temperature.,247986,247980,247659.44,247659,247659.6,247985.92,,50,temperature.
