sender,sender_type,sender_id,timestamp,meta,,Blues,Classical,Country,Dance,Electronic,Folk,Gospel,Hip-Hop,Jazz,Latin,Musical/Film,New-age,Pop,Prolific_id,Provo_ID,R&B,Rap,Reggae,Religious,Rock,Soul,Swing,Traditional,age,artist_name,correct,correctResponse,distraction,duration,education,ended_on,familiarity,gender,headphone_check_performance,item,list,music_frequency,offensiveness,pleasantness,position_correct,preference,response,response_action,snippet_file,song_name,song_rating,sound,stimulus_1,stimulus_2,stimulus_3,text,time_commit,time_end,time_render,time_run,time_show,time_switch,url,word,word_ID
Prolific ID,html.Form,0,2022-05-02T09:43:14.416Z,"{""labjs_version"":""20.2.2"",""labjs_build"":{""flavor"":""production"",""commit"":""a25486e0c714a0ae2ce03ff94b7bb6896854dcfa""},""location"":""https://run.pavlovia.org/mvasilev/prolific3_music_e/"",""userAgent"":""Mozilla/5.0 (Windows NT 10.0; Win64; x64; rv:99.0) Gecko/20100101 Firefox/99.0"",""platform"":""Win32"",""language"":""en-GB"",""locale"":""en-GB"",""timeZone"":""Europe/London"",""timezoneOffset"":-60,""screen_width"":1920,""screen_height"":1080,""scroll_width"":1920,""scroll_height"":907,""window_innerWidth"":1920,""window_innerHeight"":955,""devicePixelRatio"":1}",,,,,,,,,,,,,,,5ea04e9dbb81f60726da2182,,,,,,,,,,,,,,,8080.700000000001,,form submission,,,,,,,,,,,,,,,,,,,,,19334,19333,11249.6,11250,11252.3,19335.26,{},,
Introduction,html.Screen,1_0,2022-05-02T09:43:17.908Z,,,,,,,,,,,,,,,,,,,,,,,,,,,,,,,3486.7400000000016,,response,,,,,,,,,,,continue,click button,,,,,,,,,22827,22822,19328.04,19336,19335.26,22835.16,,,
Volume calibration,html.Screen,1_1,2022-05-02T09:43:32.089Z,,,,,,,,,,,,,,,,,,,,,,,,,,,,,,,14158.84,,response,,,,,,,,,,,continue,click button,,,,,,,,,37006,36994,22825.8,22827,22835.16,37017.94,,,
Task instructions,html.Screen,1_2,2022-05-02T09:43:49.830Z,,,,,,,,,,,,,,,,,,,,,,,,,,,,,,,17726.059999999998,,response,,,,,,,,,,,continue,click button,,,,,,,,,54748,54744,37005.8,37006,37017.94,54750.6,,,
Sounds,html.Screen,1_3_0_0,2022-05-02T09:43:54.067Z,,,,,,,,,,,,,,,,,,,,,,,,,,,,,,,4249.860000000001,,timeout,,,,,,,,,2,,,,,,,,I,S,O,,58985,58983.8,54747.72,54749,54750.6,59000.46,,,
Judgement,html.Screen,1_3_0_1,2022-05-02T09:43:56.324Z,,,,,,,,,,,,,,,,,,,,,,,,,,,,true,2,,2227.540000000001,,response,,,,,,,,,2,,2,click #choice-2,,,,,I,S,O,,61242,61228,58983.8,58985,59000.46,61250.32,,,
Trial,flow.Sequence,1_3_0,2022-05-02T09:43:56.325Z,,,,,,,,,,,,,,,,,,,,,,,,,,,,,,,6477.4000000000015,,completion,,,,,,,,,2,,,,,,,,I,S,O,,61243,61228,54747.72,54749,54750.6,61250.32,,,
Sounds,html.Screen,1_3_1_0,2022-05-02T09:44:00.566Z,,,,,,,,,,,,,,,,,,,,,,,,,,,,,,,4249.82,,timeout,,,,,,,,,2,,,,,,,,O,S,I,,65484,65483.48,61241.66,61244,61250.32,65500.14,,,
Judgement,html.Screen,1_3_1_1,2022-05-02T09:44:01.262Z,,,,,,,,,,,,,,,,,,,,,,,,,,,,true,2,,665.8600000000006,,response,,,,,,,,,2,,2,click #choice-2,,,,,O,S,I,,66180,66166,65483.48,65486,65500.14,66183.5,,,
Trial,flow.Sequence,1_3_1,2022-05-02T09:44:01.263Z,,,,,,,,,,,,,,,,,,,,,,,,,,,,,,,4915.68,,completion,,,,,,,,,2,,,,,,,,O,S,I,,66181,66166,61241.66,61243,61250.32,66183.5,,,
Sounds,html.Screen,1_3_2_0,2022-05-02T09:44:05.501Z,,,,,,,,,,,,,,,,,,,,,,,,,,,,,,,4249.8399999999965,,timeout,,,,,,,,,3,,,,,,,,I,O,S,,70418,70416.68,66179.58,66181,66183.5,70433.34,,,
Judgement,html.Screen,1_3_2_1,2022-05-02T09:44:06.128Z,,,,,,,,,,,,,,,,,,,,,,,,,,,,true,3,,607.6600000000035,,response,,,,,,,,,3,,3,click #choice-3,,,,,I,O,S,,71046,71041,70416.68,70418,70433.34,71049.94,,,
Trial,flow.Sequence,1_3_2,2022-05-02T09:44:06.128Z,,,,,,,,,,,,,,,,,,,,,,,,,,,,,,,4857.5,,completion,,,,,,,,,3,,,,,,,,I,O,S,,71046,71041,66179.58,66181,66183.5,71049.94,,,
Sounds,html.Screen,1_3_3_0,2022-05-02T09:44:10.368Z,,,,,,,,,,,,,,,,,,,,,,,,,,,,,,,4249.860000000001,,timeout,,,,,,,,,3,,,,,,,,O,I,S,,75287,75283.14,71045.46,71047,71049.94,75299.8,,,
Judgement,html.Screen,1_3_3_1,2022-05-02T09:44:11.013Z,,,,,,,,,,,,,,,,,,,,,,,,,,,,true,3,,616.1999999999971,,response,,,,,,,,,3,,3,click #choice-3,,,,,O,I,S,,75931,75916,75283.14,75289,75299.8,75933.14,,,
Trial,flow.Sequence,1_3_3,2022-05-02T09:44:11.013Z,,,,,,,,,,,,,,,,,,,,,,,,,,,,,,,4866.059999999998,,completion,,,,,,,,,3,,,,,,,,O,I,S,,75932,75916,71045.46,71047,71049.94,75933.14,,,
Sounds,html.Screen,1_3_4_0,2022-05-02T09:44:15.250Z,,,,,,,,,,,,,,,,,,,,,,,,,,,,,,,4249.800000000003,,timeout,,,,,,,,,1,,,,,,,,S,I,O,,80167,80166.28,75929.52,75932,75933.14,80182.94,,,
Judgement,html.Screen,1_3_4_1,2022-05-02T09:44:15.864Z,,,,,,,,,,,,,,,,,,,,,,,,,,,,true,1,,592.0599999999977,,response,,,,,,,,,1,,1,click #choice-1,,,,,S,I,O,,80782,80775,80166.28,80168,80182.94,80782.94,,,
Trial,flow.Sequence,1_3_4,2022-05-02T09:44:15.864Z,,,,,,,,,,,,,,,,,,,,,,,,,,,,,,,4841.860000000001,,completion,,,,,,,,,1,,,,,,,,S,I,O,,80782,80775,75929.52,75932,75933.14,80782.94,,,
Sounds,html.Screen,1_3_5_0,2022-05-02T09:44:20.099Z,,,,,,,,,,,,,,,,,,,,,,,,,,,,,,,4249.800000000003,,timeout,,,,,,,,,1,,,,,,,,S,O,I,,85017,85016.08,80781.54,80783,80782.94,85032.74,,,
Judgement,html.Screen,1_3_5_1,2022-05-02T09:44:20.710Z,,,,,,,,,,,,,,,,,,,,,,,,,,,,true,1,,586.2599999999948,,response,,,,,,,,,1,,1,click #choice-1,,,,,S,O,I,,85628,85619,85016.08,85018,85032.74,85632.76,,,
Trial,flow.Sequence,1_3_5,2022-05-02T09:44:20.710Z,,,,,,,,,,,,,,,,,,,,,,,,,,,,,,,4836.059999999998,,completion,,,,,,,,,1,,,,,,,,S,O,I,,85629,85619,80781.54,80783,80782.94,85632.76,,,
Task,flow.Loop,1_3,2022-05-02T09:44:20.711Z,,,,,,,,,,,,,,,,,,,,,,,,,,,,,,,30868.4,,completion,,,1,,,,,,,,,,,,,,,,,,85630,85619,54747.72,54749,54750.6,85632.76,,,
Trap,html.Screen,1_4,2022-05-02T09:44:20.714Z,,,,,,,,,,,,,,,,,,,,,,,,,,,,,,,NaN,,skipped,,,,,,,,,,,,,,,,,,,,,85633,85619,,85633,,85632.76,,,
Thanks,html.Screen,1_5,2022-05-02T09:44:24.402Z,,,,,,,,,,,,,,,,,,,,,,,,,,,,,,,3673.2400000000052,,response,,,,,,,,,,,continue,click button,,,,,,,,,89320,89306,85632.76,85634,85632.76,93882.4,,,
Headphone screening,flow.Sequence,1,2022-05-02T09:44:24.403Z,,,,,,,,,,,,,,,,,,,,,,,,,,,,,,,69970.74,,completion,,,,,,,,,,,,,,,,,,,,,89320,89306,19328.04,19336,19335.26,93882.4,,,
Instructions,html.Page,2_0,2022-05-02T09:44:37.280Z,,,,,,,,,,,,,,,,,,,,,,,,,,,,,,,8315.600000000006,,form submission,,,,,,,,,,,,,,,,,,,,,102198,102198,93865.74,93860,93882.4,102198.78,,,
Holding screen,html.Screen,2_1_0_0,2022-05-02T09:44:47.264Z,,,,,,,,,,,,,,,,,,,,,,,,,,,,,,,9999.580000000002,,timeout,,,,,,,,,,,,,,,,,,,,,112182,112181.7,102195.3,102198,102198.78,112198.36,,,
screen,html.Screen,2_1_0_1_0,2022-05-02T09:44:48.173Z,,,,,,,,,,,,,,,,,53,,,,,,,,,,,,,,873.6399999999994,,response,,,,99,,,,,,,Space,keypress(Space),,,,,,,,When -- ----- -- ------ - ------- --- ----------<br>------------- ------ ------ ---- ---- ------- ----- -- ----<br>-------- ------- -- ---------- --- - --- ----- ----- ----<br>---- --- --- ----- --- ---- ---- ------- ----- ---- -------<br>--- --- -- ----- -- --- ---- -- --- ---- -- ------ ------<br>--- ----- -- ----,113091,113072,112181.7,112182,112198.36,113091.46,,0,When
screen,html.Screen,2_1_0_1_1,2022-05-02T09:44:48.370Z,,,,,,,,,,,,,,,,,53,,,,,,,,,,,,,,183.5399999999936,,response,,,,99,,,,,,,Space,keypress(Space),,,,,,,,---- it ----- -- ------ - ------- --- ----------<br>------------- ------ ------ ---- ---- ------- ----- -- ----<br>-------- ------- -- ---------- --- - --- ----- ----- ----<br>---- --- --- ----- --- ---- ---- ------- ----- ---- -------<br>--- --- -- ----- -- --- ---- -- --- ---- -- ------ ------<br>--- ----- -- ----,113288,113275,113091.14,113091,113091.46,113298.34,,1,it
screen,html.Screen,2_1_0_1_2,2022-05-02T09:44:48.617Z,,,,,,,,,,,,,,,,,53,,,,,,,,,,,,,,226.6600000000035,,response,,,,99,,,,,,,Space,keypress(Space),,,,,,,,---- -- comes -- ------ - ------- --- ----------<br>------------- ------ ------ ---- ---- ------- ----- -- ----<br>-------- ------- -- ---------- --- - --- ----- ----- ----<br>---- --- --- ----- --- ---- ---- ------- ----- ---- -------<br>--- --- -- ----- -- --- ---- -- --- ---- -- ------ ------<br>--- ----- -- ----,113535,113525,113287.88,113288,113298.34,113535.52,,2,comes
screen,html.Screen,2_1_0_1_3,2022-05-02T09:44:48.825Z,,,,,,,,,,,,,,,,,53,,,,,,,,,,,,,,192.47999999999593,,response,,,,99,,,,,,,Space,keypress(Space),,,,,,,,---- -- ----- to ------ - ------- --- ----------<br>------------- ------ ------ ---- ---- ------- ----- -- ----<br>-------- ------- -- ---------- --- - --- ----- ----- ----<br>---- --- --- ----- --- ---- ---- ------- ----- ---- -------<br>--- --- -- ----- -- --- ---- -- --- ---- -- ------ ------<br>--- ----- -- ----,113743,113728,113535.38,113535,113535.52,113748.28,,3,to
screen,html.Screen,2_1_0_1_4,2022-05-02T09:44:49.232Z,,,,,,,,,,,,,,,,,53,,,,,,,,,,,,,,386.72000000000116,,response,,,,99,,,,,,,Space,keypress(Space),,,,,,,,---- -- ----- -- having - ------- --- ----------<br>------------- ------ ------ ---- ---- ------- ----- -- ----<br>-------- ------- -- ---------- --- - --- ----- ----- ----<br>---- --- --- ----- --- ---- ---- ------- ----- ---- -------<br>--- --- -- ----- -- --- ---- -- --- ---- -- ------ ------<br>--- ----- -- ----,114150,114135,113743.06,113743,113748.28,114150.78,,4,having
screen,html.Screen,2_1_0_1_5,2022-05-02T09:44:49.641Z,,,,,,,,,,,,,,,,,53,,,,,,,,,,,,,,405.22000000000116,,response,,,,99,,,,,,,Space,keypress(Space),,,,,,,,---- -- ----- -- ------ a ------- --- ----------<br>------------- ------ ------ ---- ---- ------- ----- -- ----<br>-------- ------- -- ---------- --- - --- ----- ----- ----<br>---- --- --- ----- --- ---- ---- ------- ----- ---- -------<br>--- --- -- ----- -- --- ---- -- --- ---- -- ------ ------<br>--- ----- -- ----,114559,114556,114150.66,114150,114150.78,114559.24,,5,a
screen,html.Screen,2_1_0_1_6,2022-05-02T09:44:50.058Z,,,,,,,,,,,,,,,,,53,,,,,,,,,,,,,,403.75999999999476,,response,,,,99,,,,,,,Space,keypress(Space),,,,,,,,---- -- ----- -- ------ - lasting --- ----------<br>------------- ------ ------ ---- ---- ------- ----- -- ----<br>-------- ------- -- ---------- --- - --- ----- ----- ----<br>---- --- --- ----- --- ---- ---- ------- ----- ---- -------<br>--- --- -- ----- -- --- ---- -- --- ---- -- ------ ------<br>--- ----- -- ----,114976,114963,114559.12,114559,114559.24,114976.68,,6,lasting
screen,html.Screen,2_1_0_1_7,2022-05-02T09:44:50.401Z,,,,,,,,,,,,,,,,,53,,,,,,,,,,,,,,329.320000000007,,response,,,,99,,,,,,,Space,keypress(Space),,,,,,,,---- -- ----- -- ------ - ------- and ----------<br>------------- ------ ------ ---- ---- ------- ----- -- ----<br>-------- ------- -- ---------- --- - --- ----- ----- ----<br>---- --- --- ----- --- ---- ---- ------- ----- ---- -------<br>--- --- -- ----- -- --- ---- -- --- ---- -- ------ ------<br>--- ----- -- ----,115319,115306,114976.42,114977,114976.68,115319.64,,7,and
screen,html.Screen,2_1_0_1_8,2022-05-02T09:44:50.889Z,,,,,,,,,,,,,,,,,53,,,,,,,,,,,,,,471.3600000000006,,response,,,,99,,,,,,,Space,keypress(Space),,,,,,,,---- -- ----- -- ------ - ------- --- fulfilling<br>------------- ------ ------ ---- ---- ------- ----- -- ----<br>-------- ------- -- ---------- --- - --- ----- ----- ----<br>---- --- --- ----- --- ---- ---- ------- ----- ---- -------<br>--- --- -- ----- -- --- ---- -- --- ---- -- ------ ------<br>--- ----- -- ----,115807,115791,115319.54,115320,115319.64,115807.48,,8,fulfilling
screen,html.Screen,2_1_0_1_9,2022-05-02T09:44:51.235Z,,,,,,,,,,,,,,,,,53,,,,,,,,,,,,,,326.5200000000041,,response,,,,99,,,,,,,Space,keypress(Space),,,,,,,,"---- -- ----- -- ------ - ------- --- ----------<br>relationship, ------ ------ ---- ---- ------- ----- -- ----<br>-------- ------- -- ---------- --- - --- ----- ----- ----<br>---- --- --- ----- --- ---- ---- ------- ----- ---- -------<br>--- --- -- ----- -- --- ---- -- --- ---- -- ------ ------<br>--- ----- -- ----",116153,116134,115807.3,115807,115807.48,116153.68,,9,"relationship,"
screen,html.Screen,2_1_0_1_10,2022-05-02T09:44:51.753Z,,,,,,,,,,,,,,,,,53,,,,,,,,,,,,,,512.320000000007,,response,,,,99,,,,,,,Space,keypress(Space),,,,,,,,---- -- ----- -- ------ - ------- --- ----------<br>------------- common ------ ---- ---- ------- ----- -- ----<br>-------- ------- -- ---------- --- - --- ----- ----- ----<br>---- --- --- ----- --- ---- ---- ------- ----- ---- -------<br>--- --- -- ----- -- --- ---- -- --- ---- -- ------ ------<br>--- ----- -- ----,116672,116666,116153.46,116154,116153.68,116671.52,,10,common
screen,html.Screen,2_1_0_1_11,2022-05-02T09:44:52.113Z,,,,,,,,,,,,,,,,,53,,,,,,,,,,,,,,353.4799999999959,,response,,,,99,,,,,,,Space,keypress(Space),,,,,,,,---- -- ----- -- ------ - ------- --- ----------<br>------------- ------ wisdom ---- ---- ------- ----- -- ----<br>-------- ------- -- ---------- --- - --- ----- ----- ----<br>---- --- --- ----- --- ---- ---- ------- ----- ---- -------<br>--- --- -- ----- -- --- ---- -- --- ---- -- ------ ------<br>--- ----- -- ----,117031,117025,116671.42,116672,116671.52,117031.38,,11,wisdom
screen,html.Screen,2_1_0_1_12,2022-05-02T09:44:52.304Z,,,,,,,,,,,,,,,,,53,,,,,,,,,,,,,,181.61999999999534,,response,,,,99,,,,,,,Space,keypress(Space),,,,,,,,---- -- ----- -- ------ - ------- --- ----------<br>------------- ------ ------ says ---- ------- ----- -- ----<br>-------- ------- -- ---------- --- - --- ----- ----- ----<br>---- --- --- ----- --- ---- ---- ------- ----- ---- -------<br>--- --- -- ----- -- --- ---- -- --- ---- -- ------ ------<br>--- ----- -- ----,117222,117213,117031.24,117031,117031.38,117231.5,,12,says
screen,html.Screen,2_1_0_1_13,2022-05-02T09:44:52.553Z,,,,,,,,,,,,,,,,,53,,,,,,,,,,,,,,231.5,,response,,,,99,,,,,,,Space,keypress(Space),,,,,,,,---- -- ----- -- ------ - ------- --- ----------<br>------------- ------ ------ ---- that ------- ----- -- ----<br>-------- ------- -- ---------- --- - --- ----- ----- ----<br>---- --- --- ----- --- ---- ---- ------- ----- ---- -------<br>--- --- -- ----- -- --- ---- -- --- ---- -- ------ ------<br>--- ----- -- ----,117471,117463,117222.68,117223,117231.5,117470.78,,13,that
screen,html.Screen,2_1_0_1_14,2022-05-02T09:44:53.104Z,,,,,,,,,,,,,,,,,53,,,,,,,,,,,,,,539.2200000000012,,response,,,,99,,,,,,,Space,keypress(Space),,,,,,,,---- -- ----- -- ------ - ------- --- ----------<br>------------- ------ ------ ---- ---- feeling ----- -- ----<br>-------- ------- -- ---------- --- - --- ----- ----- ----<br>---- --- --- ----- --- ---- ---- ------- ----- ---- -------<br>--- --- -- ----- -- --- ---- -- --- ---- -- ------ ------<br>--- ----- -- ----,118023,118010,117470.7,117471,117470.78,118022.96,,14,feeling
screen,html.Screen,2_1_0_1_15,2022-05-02T09:44:53.512Z,,,,,,,,,,,,,,,,,53,,,,,,,,,,,,,,393.0399999999936,,response,,,,99,,,,,,,Space,keypress(Space),,,,,,,,---- -- ----- -- ------ - ------- --- ----------<br>------------- ------ ------ ---- ---- ------- close -- ----<br>-------- ------- -- ---------- --- - --- ----- ----- ----<br>---- --- --- ----- --- ---- ---- ------- ----- ---- -------<br>--- --- -- ----- -- --- ---- -- --- ---- -- ------ ------<br>--- ----- -- ----,118431,118416,118022.86,118023,118022.96,118431.18,,15,close
screen,html.Screen,2_1_0_1_16,2022-05-02T09:44:53.896Z,,,,,,,,,,,,,,,,,53,,,,,,,,,,,,,,374.820000000007,,response,,,,99,,,,,,,Space,keypress(Space),,,,,,,,---- -- ----- -- ------ - ------- --- ----------<br>------------- ------ ------ ---- ---- ------- ----- to ----<br>-------- ------- -- ---------- --- - --- ----- ----- ----<br>---- --- --- ----- --- ---- ---- ------- ----- ---- -------<br>--- --- -- ----- -- --- ---- -- --- ---- -- ------ ------<br>--- ----- -- ----,118815,118806,118431.06,118431,118431.18,118814.92,,16,to
screen,html.Screen,2_1_0_1_17,2022-05-02T09:44:54.353Z,,,,,,,,,,,,,,,,,53,,,,,,,,,,,,,,445.08000000000175,,response,,,,99,,,,,,,Space,keypress(Space),,,,,,,,---- -- ----- -- ------ - ------- --- ----------<br>------------- ------ ------ ---- ---- ------- ----- -- your<br>-------- ------- -- ---------- --- - --- ----- ----- ----<br>---- --- --- ----- --- ---- ---- ------- ----- ---- -------<br>--- --- -- ----- -- --- ---- -- --- ---- -- ------ ------<br>--- ----- -- ----,119271,119260,118814.82,118815,118814.92,119271.4,,17,your
screen,html.Screen,2_1_0_1_18,2022-05-02T09:44:54.801Z,,,,,,,,,,,,,,,,,53,,,,,,,,,,,,,,441.6000000000058,,response,,,,99,,,,,,,Space,keypress(Space),,,,,,,,---- -- ----- -- ------ - ------- --- ----------<br>------------- ------ ------ ---- ---- ------- ----- -- ----<br>romantic ------- -- ---------- --- - --- ----- ----- ----<br>---- --- --- ----- --- ---- ---- ------- ----- ---- -------<br>--- --- -- ----- -- --- ---- -- --- ---- -- ------ ------<br>--- ----- -- ----,119719,119713,119271.2,119271,119271.4,119719.04,,18,romantic
screen,html.Screen,2_1_0_1_19,2022-05-02T09:44:55.017Z,,,,,,,,,,,,,,,,,53,,,,,,,,,,,,,,210.9600000000064,,response,,,,99,,,,,,,Space,keypress(Space),,,,,,,,---- -- ----- -- ------ - ------- --- ----------<br>------------- ------ ------ ---- ---- ------- ----- -- ----<br>-------- partner -- ---------- --- - --- ----- ----- ----<br>---- --- --- ----- --- ---- ---- ------- ----- ---- -------<br>--- --- -- ----- -- --- ---- -- --- ---- -- ------ ------<br>--- ----- -- ----,119936,119930,119718.94,119719,119719.04,119936.1,,19,partner
screen,html.Screen,2_1_0_1_20,2022-05-02T09:44:55.306Z,,,,,,,,,,,,,,,,,53,,,,,,,,,,,,,,276.8999999999942,,response,,,,99,,,,,,,Space,keypress(Space),,,,,,,,---- -- ----- -- ------ - ------- --- ----------<br>------------- ------ ------ ---- ---- ------- ----- -- ----<br>-------- ------- is ---------- --- - --- ----- ----- ----<br>---- --- --- ----- --- ---- ---- ------- ----- ---- -------<br>--- --- -- ----- -- --- ---- -- --- ---- -- ------ ------<br>--- ----- -- ----,120224,120213,119935.92,119936,119936.1,120225.06,,20,is
screen,html.Screen,2_1_0_1_21,2022-05-02T09:44:55.674Z,,,,,,,,,,,,,,,,,53,,,,,,,,,,,,,,361.9400000000023,,response,,,,99,,,,,,,Space,keypress(Space),,,,,,,,---- -- ----- -- ------ - ------- --- ----------<br>------------- ------ ------ ---- ---- ------- ----- -- ----<br>-------- ------- -- paramount. --- - --- ----- ----- ----<br>---- --- --- ----- --- ---- ---- ------- ----- ---- -------<br>--- --- -- ----- -- --- ---- -- --- ---- -- ------ ------<br>--- ----- -- ----,120593,120587,120224.88,120225,120225.06,120592.8,,21,paramount.
screen,html.Screen,2_1_0_1_22,2022-05-02T09:44:56.122Z,,,,,,,,,,,,,,,,,53,,,,,,,,,,,,,,432.1999999999971,,response,,,,99,,,,,,,Space,keypress(Space),,,,,,,,---- -- ----- -- ------ - ------- --- ----------<br>------------- ------ ------ ---- ---- ------- ----- -- ----<br>-------- ------- -- ---------- But - --- ----- ----- ----<br>---- --- --- ----- --- ---- ---- ------- ----- ---- -------<br>--- --- -- ----- -- --- ---- -- --- ---- -- ------ ------<br>--- ----- -- ----,121041,121025,120592.52,120593,120592.8,121040.8,,22,But
screen,html.Screen,2_1_0_1_23,2022-05-02T09:44:56.458Z,,,,,,,,,,,,,,,,,53,,,,,,,,,,,,,,328.1999999999971,,response,,,,99,,,,,,,Space,keypress(Space),,,,,,,,---- -- ----- -- ------ - ------- --- ----------<br>------------- ------ ------ ---- ---- ------- ----- -- ----<br>-------- ------- -- ---------- --- a --- ----- ----- ----<br>---- --- --- ----- --- ---- ---- ------- ----- ---- -------<br>--- --- -- ----- -- --- ---- -- --- ---- -- ------ ------<br>--- ----- -- ----,121376,121369,121040.54,121041,121040.8,121376.88,,23,a
screen,html.Screen,2_1_0_1_24,2022-05-02T09:44:56.817Z,,,,,,,,,,,,,,,,,53,,,,,,,,,,,,,,350.11999999999534,,response,,,,99,,,,,,,Space,keypress(Space),,,,,,,,---- -- ----- -- ------ - ------- --- ----------<br>------------- ------ ------ ---- ---- ------- ----- -- ----<br>-------- ------- -- ---------- --- - new ----- ----- ----<br>---- --- --- ----- --- ---- ---- ------- ----- ---- -------<br>--- --- -- ----- -- --- ---- -- --- ---- -- ------ ------<br>--- ----- -- ----,121736,121727,121376.6,121377,121376.88,121736.4,,24,new
screen,html.Screen,2_1_0_1_25,2022-05-02T09:44:57.241Z,,,,,,,,,,,,,,,,,53,,,,,,,,,,,,,,413.6000000000058,,response,,,,99,,,,,,,Space,keypress(Space),,,,,,,,---- -- ----- -- ------ - ------- --- ----------<br>------------- ------ ------ ---- ---- ------- ----- -- ----<br>-------- ------- -- ---------- --- - --- study ----- ----<br>---- --- --- ----- --- ---- ---- ------- ----- ---- -------<br>--- --- -- ----- -- --- ---- -- --- ---- -- ------ ------<br>--- ----- -- ----,122159,122150,121736.14,121736,121736.4,122159.36,,25,study
screen,html.Screen,2_1_0_1_26,2022-05-02T09:44:57.616Z,,,,,,,,,,,,,,,,,53,,,,,,,,,,,,,,365.6399999999994,,response,,,,99,,,,,,,Space,keypress(Space),,,,,,,,---- -- ----- -- ------ - ------- --- ----------<br>------------- ------ ------ ---- ---- ------- ----- -- ----<br>-------- ------- -- ---------- --- - --- ----- finds ----<br>---- --- --- ----- --- ---- ---- ------- ----- ---- -------<br>--- --- -- ----- -- --- ---- -- --- ---- -- ------ ------<br>--- ----- -- ----,122535,122525,122159.24,122159,122159.36,122535.24,,26,finds
screen,html.Screen,2_1_0_1_27,2022-05-02T09:44:58.042Z,,,,,,,,,,,,,,,,,53,,,,,,,,,,,,,,411.75999999999476,,response,,,,99,,,,,,,Space,keypress(Space),,,,,,,,---- -- ----- -- ------ - ------- --- ----------<br>------------- ------ ------ ---- ---- ------- ----- -- ----<br>-------- ------- -- ---------- --- - --- ----- ----- that<br>---- --- --- ----- --- ---- ---- ------- ----- ---- -------<br>--- --- -- ----- -- --- ---- -- --- ---- -- ------ ------<br>--- ----- -- ----,122961,122947,122535.14,122536,122535.24,122960.9,,27,that
screen,html.Screen,2_1_0_1_28,2022-05-02T09:44:58.458Z,,,,,,,,,,,,,,,,,53,,,,,,,,,,,,,,408.1000000000058,,response,,,,99,,,,,,,Space,keypress(Space),,,,,,,,---- -- ----- -- ------ - ------- --- ----------<br>------------- ------ ------ ---- ---- ------- ----- -- ----<br>-------- ------- -- ---------- --- - --- ----- ----- ----<br>it's --- --- ----- --- ---- ---- ------- ----- ---- -------<br>--- --- -- ----- -- --- ---- -- --- ---- -- ------ ------<br>--- ----- -- ----,123376,123369,122960.6,122961,122960.9,123376.78,,28,it's
screen,html.Screen,2_1_0_1_29,2022-05-02T09:44:58.770Z,,,,,,,,,,,,,,,,,53,,,,,,,,,,,,,,304.22000000000116,,response,,,,99,,,,,,,Space,keypress(Space),,,,,,,,---- -- ----- -- ------ - ------- --- ----------<br>------------- ------ ------ ---- ---- ------- ----- -- ----<br>-------- ------- -- ---------- --- - --- ----- ----- ----<br>---- not --- ----- --- ---- ---- ------- ----- ---- -------<br>--- --- -- ----- -- --- ---- -- --- ---- -- ------ ------<br>--- ----- -- ----,123687,123681,123376.54,123376,123376.78,123687.86,,29,not
screen,html.Screen,2_1_0_1_30,2022-05-02T09:44:59.056Z,,,,,,,,,,,,,,,,,53,,,,,,,,,,,,,,274.1399999999994,,response,,,,99,,,,,,,Space,keypress(Space),,,,,,,,---- -- ----- -- ------ - ------- --- ----------<br>------------- ------ ------ ---- ---- ------- ----- -- ----<br>-------- ------- -- ---------- --- - --- ----- ----- ----<br>---- --- how ----- --- ---- ---- ------- ----- ---- -------<br>--- --- -- ----- -- --- ---- -- --- ---- -- ------ ------<br>--- ----- -- ----,123975,123962,123687.72,123687,123687.86,123975.4,,30,how
screen,html.Screen,2_1_0_1_31,2022-05-02T09:44:59.330Z,,,,,,,,,,,,,,,,,53,,,,,,,,,,,,,,268.6000000000058,,response,,,,99,,,,,,,Space,keypress(Space),,,,,,,,---- -- ----- -- ------ - ------- --- ----------<br>------------- ------ ------ ---- ---- ------- ----- -- ----<br>-------- ------- -- ---------- --- - --- ----- ----- ----<br>---- --- --- close --- ---- ---- ------- ----- ---- -------<br>--- --- -- ----- -- --- ---- -- --- ---- -- ------ ------<br>--- ----- -- ----,124249,124244,123975.28,123976,123975.4,124248.76,,31,close
screen,html.Screen,2_1_0_1_32,2022-05-02T09:44:59.626Z,,,,,,,,,,,,,,,,,53,,,,,,,,,,,,,,292.24000000000524,,response,,,,99,,,,,,,Space,keypress(Space),,,,,,,,---- -- ----- -- ------ - ------- --- ----------<br>------------- ------ ------ ---- ---- ------- ----- -- ----<br>-------- ------- -- ---------- --- - --- ----- ----- ----<br>---- --- --- ----- you ---- ---- ------- ----- ---- -------<br>--- --- -- ----- -- --- ---- -- --- ---- -- ------ ------<br>--- ----- -- ----,124545,124541,124248.62,124249,124248.76,124545.02,,32,you
screen,html.Screen,2_1_0_1_33,2022-05-02T09:44:59.865Z,,,,,,,,,,,,,,,,,53,,,,,,,,,,,,,,229.97999999999593,,response,,,,99,,,,,,,Space,keypress(Space),,,,,,,,---- -- ----- -- ------ - ------- --- ----------<br>------------- ------ ------ ---- ---- ------- ----- -- ----<br>-------- ------- -- ---------- --- - --- ----- ----- ----<br>---- --- --- ----- --- feel ---- ------- ----- ---- -------<br>--- --- -- ----- -- --- ---- -- --- ---- -- ------ ------<br>--- ----- -- ----,124783,124775,124544.76,124545,124545.02,124783.32,,33,feel
screen,html.Screen,2_1_0_1_34,2022-05-02T09:45:00.120Z,,,,,,,,,,,,,,,,,53,,,,,,,,,,,,,,241.67999999999302,,response,,,,99,,,,,,,Space,keypress(Space),,,,,,,,---- -- ----- -- ------ - ------- --- ----------<br>------------- ------ ------ ---- ---- ------- ----- -- ----<br>-------- ------- -- ---------- --- - --- ----- ----- ----<br>---- --- --- ----- --- ---- that ------- ----- ---- -------<br>--- --- -- ----- -- --- ---- -- --- ---- -- ------ ------<br>--- ----- -- ----,125039,125025,124783.14,124783,124783.32,125038.7,,34,that
screen,html.Screen,2_1_0_1_35,2022-05-02T09:45:00.401Z,,,,,,,,,,,,,,,,,53,,,,,,,,,,,,,,267.3000000000029,,response,,,,99,,,,,,,Space,keypress(Space),,,,,,,,---- -- ----- -- ------ - ------- --- ----------<br>------------- ------ ------ ---- ---- ------- ----- -- ----<br>-------- ------- -- ---------- --- - --- ----- ----- ----<br>---- --- --- ----- --- ---- ---- matters ----- ---- -------<br>--- --- -- ----- -- --- ---- -- --- ---- -- ------ ------<br>--- ----- -- ----,125318,125306,125038.6,125039,125038.7,125318.72,,35,matters
screen,html.Screen,2_1_0_1_36,2022-05-02T09:45:00.680Z,,,,,,,,,,,,,,,,,53,,,,,,,,,,,,,,269.27999999999884,,response,,,,99,,,,,,,Space,keypress(Space),,,,,,,,"---- -- ----- -- ------ - ------- --- ----------<br>------------- ------ ------ ---- ---- ------- ----- -- ----<br>-------- ------- -- ---------- --- - --- ----- ----- ----<br>---- --- --- ----- --- ---- ---- ------- most, ---- -------<br>--- --- -- ----- -- --- ---- -- --- ---- -- ------ ------<br>--- ----- -- ----",125599,125588,125318.6,125318,125318.72,125599.02,,36,"most,"
screen,html.Screen,2_1_0_1_37,2022-05-02T09:45:01.059Z,,,,,,,,,,,,,,,,,53,,,,,,,,,,,,,,363.9799999999959,,response,,,,99,,,,,,,Space,keypress(Space),,,,,,,,---- -- ----- -- ------ - ------- --- ----------<br>------------- ------ ------ ---- ---- ------- ----- -- ----<br>-------- ------- -- ---------- --- - --- ----- ----- ----<br>---- --- --- ----- --- ---- ---- ------- ----- it's -------<br>--- --- -- ----- -- --- ---- -- --- ---- -- ------ ------<br>--- ----- -- ----,125977,125963,125598.88,125599,125599.02,125977.26,,37,it's
screen,html.Screen,2_1_0_1_38,2022-05-02T09:45:01.520Z,,,,,,,,,,,,,,,,,53,,,,,,,,,,,,,,453.74000000000524,,response,,,,99,,,,,,,Space,keypress(Space),,,,,,,,---- -- ----- -- ------ - ------- --- ----------<br>------------- ------ ------ ---- ---- ------- ----- -- ----<br>-------- ------- -- ---------- --- - --- ----- ----- ----<br>---- --- --- ----- --- ---- ---- ------- ----- ---- whether<br>--- --- -- ----- -- --- ---- -- --- ---- -- ------ ------<br>--- ----- -- ----,126438,126431,125976.98,125977,125977.26,126438.54,,38,whether
screen,html.Screen,2_1_0_1_39,2022-05-02T09:45:01.929Z,,,,,,,,,,,,,,,,,53,,,,,,,,,,,,,,399.4600000000064,,response,,,,99,,,,,,,Space,keypress(Space),,,,,,,,---- -- ----- -- ------ - ------- --- ----------<br>------------- ------ ------ ---- ---- ------- ----- -- ----<br>-------- ------- -- ---------- --- - --- ----- ----- ----<br>---- --- --- ----- --- ---- ---- ------- ----- ---- -------<br>you --- -- ----- -- --- ---- -- --- ---- -- ------ ------<br>--- ----- -- ----,126846,126838,126438.42,126438,126438.54,126847.8,,39,you
screen,html.Screen,2_1_0_1_40,2022-05-02T09:45:02.305Z,,,,,,,,,,,,,,,,,53,,,,,,,,,,,,,,364.1999999999971,,response,,,,99,,,,,,,Space,keypress(Space),,,,,,,,---- -- ----- -- ------ - ------- --- ----------<br>------------- ------ ------ ---- ---- ------- ----- -- ----<br>-------- ------- -- ---------- --- - --- ----- ----- ----<br>---- --- --- ----- --- ---- ---- ------- ----- ---- -------<br>--- are -- ----- -- --- ---- -- --- ---- -- ------ ------<br>--- ----- -- ----,127222,127212,126846.6,126846,126847.8,127222.88,,40,are
screen,html.Screen,2_1_0_1_41,2022-05-02T09:45:02.561Z,,,,,,,,,,,,,,,,,53,,,,,,,,,,,,,,239.11999999999534,,response,,,,99,,,,,,,Space,keypress(Space),,,,,,,,---- -- ----- -- ------ - ------- --- ----------<br>------------- ------ ------ ---- ---- ------- ----- -- ----<br>-------- ------- -- ---------- --- - --- ----- ----- ----<br>---- --- --- ----- --- ---- ---- ------- ----- ---- -------<br>--- --- as ----- -- --- ---- -- --- ---- -- ------ ------<br>--- ----- -- ----,127478,127462,127222.78,127223,127222.88,127478.98,,41,as
screen,html.Screen,2_1_0_1_42,2022-05-02T09:45:02.762Z,,,,,,,,,,,,,,,,,53,,,,,,,,,,,,,,187.02000000000407,,response,,,,99,,,,,,,Space,keypress(Space),,,,,,,,---- -- ----- -- ------ - ------- --- ----------<br>------------- ------ ------ ---- ---- ------- ----- -- ----<br>-------- ------- -- ---------- --- - --- ----- ----- ----<br>---- --- --- ----- --- ---- ---- ------- ----- ---- -------<br>--- --- -- close -- --- ---- -- --- ---- -- ------ ------<br>--- ----- -- ----,127680,127666,127478.84,127478,127478.98,127681.1,,42,close
screen,html.Screen,2_1_0_1_43,2022-05-02T09:45:02.986Z,,,,,,,,,,,,,,,,,53,,,,,,,,,,,,,,217.89999999999418,,response,,,,99,,,,,,,Space,keypress(Space),,,,,,,,---- -- ----- -- ------ - ------- --- ----------<br>------------- ------ ------ ---- ---- ------- ----- -- ----<br>-------- ------- -- ---------- --- - --- ----- ----- ----<br>---- --- --- ----- --- ---- ---- ------- ----- ---- -------<br>--- --- -- ----- as --- ---- -- --- ---- -- ------ ------<br>--- ----- -- ----,127904,127899,127680.42,127681,127681.1,127904.4,,43,as
screen,html.Screen,2_1_0_1_44,2022-05-02T09:45:03.202Z,,,,,,,,,,,,,,,,,53,,,,,,,,,,,,,,198.60000000000582,,response,,,,99,,,,,,,Space,keypress(Space),,,,,,,,---- -- ----- -- ------ - ------- --- ----------<br>------------- ------ ------ ---- ---- ------- ----- -- ----<br>-------- ------- -- ---------- --- - --- ----- ----- ----<br>---- --- --- ----- --- ---- ---- ------- ----- ---- -------<br>--- --- -- ----- -- you ---- -- --- ---- -- ------ ------<br>--- ----- -- ----,128120,128103,127904.18,127904,127904.4,128120.52,,44,you
screen,html.Screen,2_1_0_1_45,2022-05-02T09:45:03.505Z,,,,,,,,,,,,,,,,,53,,,,,,,,,,,,,,295.4799999999959,,response,,,,99,,,,,,,Space,keypress(Space),,,,,,,,---- -- ----- -- ------ - ------- --- ----------<br>------------- ------ ------ ---- ---- ------- ----- -- ----<br>-------- ------- -- ---------- --- - --- ----- ----- ----<br>---- --- --- ----- --- ---- ---- ------- ----- ---- -------<br>--- --- -- ----- -- --- want -- --- ---- -- ------ ------<br>--- ----- -- ----,128423,128416,128120.3,128120,128120.52,128423.58,,45,want
screen,html.Screen,2_1_0_1_46,2022-05-02T09:45:03.737Z,,,,,,,,,,,,,,,,,53,,,,,,,,,,,,,,226.41999999999825,,response,,,,99,,,,,,,Space,keypress(Space),,,,,,,,---- -- ----- -- ------ - ------- --- ----------<br>------------- ------ ------ ---- ---- ------- ----- -- ----<br>-------- ------- -- ---------- --- - --- ----- ----- ----<br>---- --- --- ----- --- ---- ---- ------- ----- ---- -------<br>--- --- -- ----- -- --- ---- to --- ---- -- ------ ------<br>--- ----- -- ----,128656,128650,128423.44,128424,128423.58,128655.66,,46,to
screen,html.Screen,2_1_0_1_47,2022-05-02T09:45:04.008Z,,,,,,,,,,,,,,,,,53,,,,,,,,,,,,,,260.3399999999965,,response,,,,99,,,,,,,Space,keypress(Space),,,,,,,,"---- -- ----- -- ------ - ------- --- ----------<br>------------- ------ ------ ---- ---- ------- ----- -- ----<br>-------- ------- -- ---------- --- - --- ----- ----- ----<br>---- --- --- ----- --- ---- ---- ------- ----- ---- -------<br>--- --- -- ----- -- --- ---- -- be, ---- -- ------ ------<br>--- ----- -- ----",128927,128916,128655.54,128656,128655.66,128927.14,,47,"be,"
screen,html.Screen,2_1_0_1_48,2022-05-02T09:45:04.257Z,,,,,,,,,,,,,,,,,53,,,,,,,,,,,,,,238.86000000000058,,response,,,,99,,,,,,,Space,keypress(Space),,,,,,,,---- -- ----- -- ------ - ------- --- ----------<br>------------- ------ ------ ---- ---- ------- ----- -- ----<br>-------- ------- -- ---------- --- - --- ----- ----- ----<br>---- --- --- ----- --- ---- ---- ------- ----- ---- -------<br>--- --- -- ----- -- --- ---- -- --- even -- ------ ------<br>--- ----- -- ----,129174,129166,128926.98,128927,128927.14,129175.36,,48,even
screen,html.Screen,2_1_0_1_49,2022-05-02T09:45:04.465Z,,,,,,,,,,,,,,,,,53,,,,,,,,,,,,,,193.63999999999942,,response,,,,99,,,,,,,Space,keypress(Space),,,,,,,,---- -- ----- -- ------ - ------- --- ----------<br>------------- ------ ------ ---- ---- ------- ----- -- ----<br>-------- ------- -- ---------- --- - --- ----- ----- ----<br>---- --- --- ----- --- ---- ---- ------- ----- ---- -------<br>--- --- -- ----- -- --- ---- -- --- ---- if ------ ------<br>--- ----- -- ----,129384,129369,129175.14,129176,129175.36,129384.6,,49,if
screen,html.Screen,2_1_0_1_50,2022-05-02T09:45:04.729Z,,,,,,,,,,,,,,,,,53,,,,,,,,,,,,,,249.39999999999418,,response,,,,99,,,,,,,Space,keypress(Space),,,,,,,,---- -- ----- -- ------ - ------- --- ----------<br>------------- ------ ------ ---- ---- ------- ----- -- ----<br>-------- ------- -- ---------- --- - --- ----- ----- ----<br>---- --- --- ----- --- ---- ---- ------- ----- ---- -------<br>--- --- -- ----- -- --- ---- -- --- ---- -- that's ------<br>--- ----- -- ----,129648,129634,129384.26,129384,129384.6,129647.52,,50,that's
screen,html.Screen,2_1_0_1_51,2022-05-02T09:45:05.241Z,,,,,,,,,,,,,,,,,53,,,,,,,,,,,,,,502.4799999999959,,response,,,,99,,,,,,,Space,keypress(Space),,,,,,,,---- -- ----- -- ------ - ------- --- ----------<br>------------- ------ ------ ---- ---- ------- ----- -- ----<br>-------- ------- -- ---------- --- - --- ----- ----- ----<br>---- --- --- ----- --- ---- ---- ------- ----- ---- -------<br>--- --- -- ----- -- --- ---- -- --- ---- -- ------ really<br>--- ----- -- ----,130160,130150,129647.36,129648,129647.52,130160.04,,51,really
screen,html.Screen,2_1_0_1_52,2022-05-02T09:45:05.650Z,,,,,,,,,,,,,,,,,53,,,,,,,,,,,,,,395.9600000000064,,response,,,,99,,,,,,,Space,keypress(Space),,,,,,,,---- -- ----- -- ------ - ------- --- ----------<br>------------- ------ ------ ---- ---- ------- ----- -- ----<br>-------- ------- -- ---------- --- - --- ----- ----- ----<br>---- --- --- ----- --- ---- ---- ------- ----- ---- -------<br>--- --- -- ----- -- --- ---- -- --- ---- -- ------ ------<br>not ----- -- ----,130568,130556,130159.88,130160,130160.04,130568.44,,52,not
screen,html.Screen,2_1_0_1_53,2022-05-02T09:45:05.913Z,,,,,,,,,,,,,,,,,53,,,,,,,,,,,,,,252.55999999999767,,response,,,,99,,,,,,,Space,keypress(Space),,,,,,,,---- -- ----- -- ------ - ------- --- ----------<br>------------- ------ ------ ---- ---- ------- ----- -- ----<br>-------- ------- -- ---------- --- - --- ----- ----- ----<br>---- --- --- ----- --- ---- ---- ------- ----- ---- -------<br>--- --- -- ----- -- --- ---- -- --- ---- -- ------ ------<br>--- close -- ----,130831,130821,130568.2,130568,130568.44,130831.28,,53,close
screen,html.Screen,2_1_0_1_54,2022-05-02T09:45:06.160Z,,,,,,,,,,,,,,,,,53,,,,,,,,,,,,,,240.72000000000116,,response,,,,99,,,,,,,Space,keypress(Space),,,,,,,,---- -- ----- -- ------ - ------- --- ----------<br>------------- ------ ------ ---- ---- ------- ----- -- ----<br>-------- ------- -- ---------- --- - --- ----- ----- ----<br>---- --- --- ----- --- ---- ---- ------- ----- ---- -------<br>--- --- -- ----- -- --- ---- -- --- ---- -- ------ ------<br>--- ----- at ----,131078,131072,130831.14,130831,130831.28,131079,,54,at
screen,html.Screen,2_1_0_1_55,2022-05-02T09:45:06.753Z,,,,,,,,,,,,,,,,,53,,,,,,,,,,,,,,587,,response,,,,99,,,,,,,Space,keypress(Space),,,,,,,,---- -- ----- -- ------ - ------- --- ----------<br>------------- ------ ------ ---- ---- ------- ----- -- ----<br>-------- ------- -- ---------- --- - --- ----- ----- ----<br>---- --- --- ----- --- ---- ---- ------- ----- ---- -------<br>--- --- -- ----- -- --- ---- -- --- ---- -- ------ ------<br>--- ----- -- all.,131671,131666,131078.88,131078,131079,131671.58,,55,all.
Item 99,flow.Loop,2_1_0_1,2022-05-02T09:45:06.753Z,,,,,,,,,,,,,,,,,,,,,,,,,,,,,,,19467.64,,completion,,,,,E,,,,,,,,,,,silence,,,,,131671,131666,112181.7,112182,112198.36,131671.58,,,
Question 1,html.Screen,2_1_0_2,2022-05-02T09:45:13.126Z,,,,,,,,,,,,,,,,,,,,,,,,,,,,true,FALSE,,6369.420000000013,,response,,,,99,E,,,,,,FALSE,click #choice-2,,,,silence,,,,,138044,138041,131671.48,131671,131671.58,138047.38,,,
Question 2,html.Screen,2_1_0_3,2022-05-02T09:45:21.448Z,,,,,,,,,,,,,,,,,,,,,,,,,,,,true,TRUE,,8305.619999999995,,response,,,,99,E,,,,,,TRUE,click #choice-1,,,,silence,,,,,146366,146353,138042.78,138045,138047.38,146380.42,,,
Item 99,flow.Sequence,2_1_0,2022-05-02T09:45:21.449Z,,,,,,,,,,,,,,,,,,,,,,,,,,,,,,,44154.22,,completion,,,,,,,,,,,,,,,,,,,,,146366,146353,102195.3,102198,102198.78,146380.42,,,
Holding screen,html.Screen,2_1_1_0,2022-05-02T09:45:31.445Z,,,,,,,,,,,,,,,,,,,,,,,,,,,,,,,9999.579999999987,,timeout,,,,,,,,,,,,,,,,,,,,,156364,156363.34,146365,146367,146380.42,156380,,,
screen,html.Screen,2_1_1_1_0,2022-05-02T09:45:31.944Z,,,,,,,,,,,,,,,,,54,,,,,,,,,,,,,,473,,response,,,,100,,,,,,,Space,keypress(Space),,,,,,,,At --- ---- --- ------ ----- ------- ---- -- --- ------- --<br>------- ---------- ------ -- ----- -- ----- -- ---- ------<br>--- ----- --- --- ------ -------- ----- --- ------ ----- --<br>----- ----- ---------- --- --- ------ ------ ---- -- ------<br>------- --- ------ ----- --- ---- ------- -- ---- --- --<br>------- ------,156862,156853,156363.34,156365,156380,156863.36,,0,At
screen,html.Screen,2_1_1_1_1,2022-05-02T09:45:32.305Z,,,,,,,,,,,,,,,,,54,,,,,,,,,,,,,,349.64000000001397,,response,,,,100,,,,,,,Space,keypress(Space),,,,,,,,-- the ---- --- ------ ----- ------- ---- -- --- ------- --<br>------- ---------- ------ -- ----- -- ----- -- ---- ------<br>--- ----- --- --- ------ -------- ----- --- ------ ----- --<br>----- ----- ---------- --- --- ------ ------ ---- -- ------<br>------- --- ------ ----- --- ---- ------- -- ---- --- --<br>------- ------,157223,157213,156863.14,156863,156863.36,157223.46,,1,the
screen,html.Screen,2_1_1_1_2,2022-05-02T09:45:32.690Z,,,,,,,,,,,,,,,,,54,,,,,,,,,,,,,,379.54000000000815,,response,,,,100,,,,,,,Space,keypress(Space),,,,,,,,-- --- time --- ------ ----- ------- ---- -- --- ------- --<br>------- ---------- ------ -- ----- -- ----- -- ---- ------<br>--- ----- --- --- ------ -------- ----- --- ------ ----- --<br>----- ----- ---------- --- --- ------ ------ ---- -- ------<br>------- --- ------ ----- --- ---- ------- -- ---- --- --<br>------- ------,157608,157603,157223.32,157223,157223.46,157608.86,,2,time
screen,html.Screen,2_1_1_1_3,2022-05-02T09:45:33.025Z,,,,,,,,,,,,,,,,,54,,,,,,,,,,,,,,322.14000000001397,,response,,,,100,,,,,,,Space,keypress(Space),,,,,,,,-- --- ---- the ------ ----- ------- ---- -- --- ------- --<br>------- ---------- ------ -- ----- -- ----- -- ---- ------<br>--- ----- --- --- ------ -------- ----- --- ------ ----- --<br>----- ----- ---------- --- --- ------ ------ ---- -- ------<br>------- --- ------ ----- --- ---- ------- -- ---- --- --<br>------- ------,157944,157931,157608.52,157608,157608.86,157946.68,,3,the
screen,html.Screen,2_1_1_1_4,2022-05-02T09:45:33.370Z,,,,,,,,,,,,,,,,,54,,,,,,,,,,,,,,328.320000000007,,response,,,,100,,,,,,,Space,keypress(Space),,,,,,,,-- --- ---- --- French ----- ------- ---- -- --- ------- --<br>------- ---------- ------ -- ----- -- ----- -- ---- ------<br>--- ----- --- --- ------ -------- ----- --- ------ ----- --<br>----- ----- ---------- --- --- ------ ------ ---- -- ------<br>------- --- ------ ----- --- ---- ------- -- ---- --- --<br>------- ------,158288,158275,157944.68,157945,157946.68,158288.88,,4,French
screen,html.Screen,2_1_1_1_5,2022-05-02T09:45:33.754Z,,,,,,,,,,,,,,,,,54,,,,,,,,,,,,,,377.11999999999534,,response,,,,100,,,,,,,Space,keypress(Space),,,,,,,,-- --- ---- --- ------ crown ------- ---- -- --- ------- --<br>------- ---------- ------ -- ----- -- ----- -- ---- ------<br>--- ----- --- --- ------ -------- ----- --- ------ ----- --<br>----- ----- ---------- --- --- ------ ------ ---- -- ------<br>------- --- ------ ----- --- ---- ------- -- ---- --- --<br>------- ------,158673,158666,158288.52,158288,158288.88,158673.04,,5,crown
screen,html.Screen,2_1_1_1_6,2022-05-02T09:45:34.155Z,,,,,,,,,,,,,,,,,54,,,,,,,,,,,,,,381.95999999999185,,response,,,,100,,,,,,,Space,keypress(Space),,,,,,,,-- --- ---- --- ------ ----- secured ---- -- --- ------- --<br>------- ---------- ------ -- ----- -- ----- -- ---- ------<br>--- ----- --- --- ------ -------- ----- --- ------ ----- --<br>----- ----- ---------- --- --- ------ ------ ---- -- ------<br>------- --- ------ ----- --- ---- ------- -- ---- --- --<br>------- ------,159073,159055,158672.8,158673,158673.04,159073.9,,6,secured
screen,html.Screen,2_1_1_1_7,2022-05-02T09:45:34.505Z,,,,,,,,,,,,,,,,,54,,,,,,,,,,,,,,342.1000000000058,,response,,,,100,,,,,,,Space,keypress(Space),,,,,,,,-- --- ---- --- ------ ----- ------- much -- --- ------- --<br>------- ---------- ------ -- ----- -- ----- -- ---- ------<br>--- ----- --- --- ------ -------- ----- --- ------ ----- --<br>----- ----- ---------- --- --- ------ ------ ---- -- ------<br>------- --- ------ ----- --- ---- ------- -- ---- --- --<br>------- ------,159424,159416,159073.66,159074,159073.9,159423.88,,7,much
screen,html.Screen,2_1_1_1_8,2022-05-02T09:45:34.882Z,,,,,,,,,,,,,,,,,54,,,,,,,,,,,,,,366.11999999999534,,response,,,,100,,,,,,,Space,keypress(Space),,,,,,,,-- --- ---- --- ------ ----- ------- ---- of --- ------- --<br>------- ---------- ------ -- ----- -- ----- -- ---- ------<br>--- ----- --- --- ------ -------- ----- --- ------ ----- --<br>----- ----- ---------- --- --- ------ ------ ---- -- ------<br>------- --- ------ ----- --- ---- ------- -- ---- --- --<br>------- ------,159800,159790,159423.66,159424,159423.88,159800.74,,8,of
screen,html.Screen,2_1_1_1_9,2022-05-02T09:45:35.249Z,,,,,,,,,,,,,,,,,54,,,,,,,,,,,,,,364.2600000000093,,response,,,,100,,,,,,,Space,keypress(Space),,,,,,,,-- --- ---- --- ------ ----- ------- ---- -- its ------- --<br>------- ---------- ------ -- ----- -- ----- -- ---- ------<br>--- ----- --- --- ------ -------- ----- --- ------ ----- --<br>----- ----- ---------- --- --- ------ ------ ---- -- ------<br>------- --- ------ ----- --- ---- ------- -- ---- --- --<br>------- ------,160168,160165,159800.38,159800,159800.74,160168.42,,9,its
screen,html.Screen,2_1_1_1_10,2022-05-02T09:45:35.594Z,,,,,,,,,,,,,,,,,54,,,,,,,,,,,,,,341.5799999999872,,response,,,,100,,,,,,,Space,keypress(Space),,,,,,,,-- --- ---- --- ------ ----- ------- ---- -- --- revenue --<br>------- ---------- ------ -- ----- -- ----- -- ---- ------<br>--- ----- --- --- ------ -------- ----- --- ------ ----- --<br>----- ----- ---------- --- --- ------ ------ ---- -- ------<br>------- --- ------ ----- --- ---- ------- -- ---- --- --<br>------- ------,160512,160510,160168.14,160168,160168.42,160512.8,,10,revenue
screen,html.Screen,2_1_1_1_11,2022-05-02T09:45:36.050Z,,,,,,,,,,,,,,,,,54,,,,,,,,,,,,,,450.20000000001164,,response,,,,100,,,,,,,Space,keypress(Space),,,,,,,,-- --- ---- --- ------ ----- ------- ---- -- --- ------- by<br>------- ---------- ------ -- ----- -- ----- -- ---- ------<br>--- ----- --- --- ------ -------- ----- --- ------ ----- --<br>----- ----- ---------- --- --- ------ ------ ---- -- ------<br>------- --- ------ ----- --- ---- ------- -- ---- --- --<br>------- ------,160969,160963,160512.56,160512,160512.8,160969.36,,11,by
screen,html.Screen,2_1_1_1_12,2022-05-02T09:45:36.409Z,,,,,,,,,,,,,,,,,54,,,,,,,,,,,,,,352.64000000001397,,response,,,,100,,,,,,,Space,keypress(Space),,,,,,,,-- --- ---- --- ------ ----- ------- ---- -- --- ------- --<br>issuing ---------- ------ -- ----- -- ----- -- ---- ------<br>--- ----- --- --- ------ -------- ----- --- ------ ----- --<br>----- ----- ---------- --- --- ------ ------ ---- -- ------<br>------- --- ------ ----- --- ---- ------- -- ---- --- --<br>------- ------,161327,161322,160969.02,160969,160969.36,161329.86,,12,issuing
screen,html.Screen,2_1_1_1_13,2022-05-02T09:45:36.770Z,,,,,,,,,,,,,,,,,54,,,,,,,,,,,,,,351.14000000001397,,response,,,,100,,,,,,,Space,keypress(Space),,,,,,,,-- --- ---- --- ------ ----- ------- ---- -- --- ------- --<br>------- government ------ -- ----- -- ----- -- ---- ------<br>--- ----- --- --- ------ -------- ----- --- ------ ----- --<br>----- ----- ---------- --- --- ------ ------ ---- -- ------<br>------- --- ------ ----- --- ---- ------- -- ---- --- --<br>------- ------,161688,161681,161328.06,161328,161329.86,161688.56,,13,government
screen,html.Screen,2_1_1_1_14,2022-05-02T09:45:37.137Z,,,,,,,,,,,,,,,,,54,,,,,,,,,,,,,,352.4400000000023,,response,,,,100,,,,,,,Space,keypress(Space),,,,,,,,-- --- ---- --- ------ ----- ------- ---- -- --- ------- --<br>------- ---------- bonds. -- ----- -- ----- -- ---- ------<br>--- ----- --- --- ------ -------- ----- --- ------ ----- --<br>----- ----- ---------- --- --- ------ ------ ---- -- ------<br>------- --- ------ ----- --- ---- ------- -- ---- --- --<br>------- ------,162055,162041,161688.32,161689,161688.56,162055.54,,14,bonds.
screen,html.Screen,2_1_1_1_15,2022-05-02T09:45:37.465Z,,,,,,,,,,,,,,,,,54,,,,,,,,,,,,,,312.45999999999185,,response,,,,100,,,,,,,Space,keypress(Space),,,,,,,,-- --- ---- --- ------ ----- ------- ---- -- --- ------- --<br>------- ---------- ------ In ----- -- ----- -- ---- ------<br>--- ----- --- --- ------ -------- ----- --- ------ ----- --<br>----- ----- ---------- --- --- ------ ------ ---- -- ------<br>------- --- ------ ----- --- ---- ------- -- ---- --- --<br>------- ------,162383,162368,162055.38,162056,162055.54,162383.9,,15,In
screen,html.Screen,2_1_1_1_16,2022-05-02T09:45:37.817Z,,,,,,,,,,,,,,,,,54,,,,,,,,,,,,,,344.1000000000058,,response,,,,100,,,,,,,Space,keypress(Space),,,,,,,,"-- --- ---- --- ------ ----- ------- ---- -- --- ------- --<br>------- ---------- ------ -- 1727, -- ----- -- ---- ------<br>--- ----- --- --- ------ -------- ----- --- ------ ----- --<br>----- ----- ---------- --- --- ------ ------ ---- -- ------<br>------- --- ------ ----- --- ---- ------- -- ---- --- --<br>------- ------",162736,162728,162383.74,162383,162383.9,162736.6,,16,"1727,"
screen,html.Screen,2_1_1_1_17,2022-05-02T09:45:38.193Z,,,,,,,,,,,,,,,,,54,,,,,,,,,,,,,,365.3999999999942,,response,,,,100,,,,,,,Space,keypress(Space),,,,,,,,-- --- ---- --- ------ ----- ------- ---- -- --- ------- --<br>------- ---------- ------ -- ----- in ----- -- ---- ------<br>--- ----- --- --- ------ -------- ----- --- ------ ----- --<br>----- ----- ---------- --- --- ------ ------ ---- -- ------<br>------- --- ------ ----- --- ---- ------- -- ---- --- --<br>------- ------,163111,163102,162736.34,162737,162736.6,163111.48,,17,in
screen,html.Screen,2_1_1_1_18,2022-05-02T09:45:38.569Z,,,,,,,,,,,,,,,,,54,,,,,,,,,,,,,,366.5199999999895,,response,,,,100,,,,,,,Space,keypress(Space),,,,,,,,-- --- ---- --- ------ ----- ------- ---- -- --- ------- --<br>------- ---------- ------ -- ----- -- order -- ---- ------<br>--- ----- --- --- ------ -------- ----- --- ------ ----- --<br>----- ----- ---------- --- --- ------ ------ ---- -- ------<br>------- --- ------ ----- --- ---- ------- -- ---- --- --<br>------- ------,163487,163478,163111.32,163111,163111.48,163487.54,,18,order
screen,html.Screen,2_1_1_1_19,2022-05-02T09:45:38.913Z,,,,,,,,,,,,,,,,,54,,,,,,,,,,,,,,334.45999999999185,,response,,,,100,,,,,,,Space,keypress(Space),,,,,,,,-- --- ---- --- ------ ----- ------- ---- -- --- ------- --<br>------- ---------- ------ -- ----- -- ----- to ---- ------<br>--- ----- --- --- ------ -------- ----- --- ------ ----- --<br>----- ----- ---------- --- --- ------ ------ ---- -- ------<br>------- --- ------ ----- --- ---- ------- -- ---- --- --<br>------- ------,163831,163822,163487.32,163487,163487.54,163831.42,,19,to
screen,html.Screen,2_1_1_1_20,2022-05-02T09:45:39.210Z,,,,,,,,,,,,,,,,,54,,,,,,,,,,,,,,287.5799999999872,,response,,,,100,,,,,,,Space,keypress(Space),,,,,,,,-- --- ---- --- ------ ----- ------- ---- -- --- ------- --<br>------- ---------- ------ -- ----- -- ----- -- save ------<br>--- ----- --- --- ------ -------- ----- --- ------ ----- --<br>----- ----- ---------- --- --- ------ ------ ---- -- ------<br>------- --- ------ ----- --- ---- ------- -- ---- --- --<br>------- ------,164128,164119,163831.22,163831,163831.42,164129.76,,20,save
screen,html.Screen,2_1_1_1_21,2022-05-02T09:45:39.618Z,,,,,,,,,,,,,,,,,54,,,,,,,,,,,,,,395.2399999999907,,response,,,,100,,,,,,,Space,keypress(Space),,,,,,,,"-- --- ---- --- ------ ----- ------- ---- -- --- ------- --<br>------- ---------- ------ -- ----- -- ----- -- ---- money,<br>--- ----- --- --- ------ -------- ----- --- ------ ----- --<br>----- ----- ---------- --- --- ------ ------ ---- -- ------<br>------- --- ------ ----- --- ---- ------- -- ---- --- --<br>------- ------",164536,164525,164128.18,164128,164129.76,164536.4,,21,"money,"
screen,html.Screen,2_1_1_1_22,2022-05-02T09:45:40.002Z,,,,,,,,,,,,,,,,,54,,,,,,,,,,,,,,379.6000000000058,,response,,,,100,,,,,,,Space,keypress(Space),,,,,,,,-- --- ---- --- ------ ----- ------- ---- -- --- ------- --<br>------- ---------- ------ -- ----- -- ----- -- ---- ------<br>the ----- --- --- ------ -------- ----- --- ------ ----- --<br>----- ----- ---------- --- --- ------ ------ ---- -- ------<br>------- --- ------ ----- --- ---- ------- -- ---- --- --<br>------- ------,164920,164916,164536.18,164536,164536.4,164920.32,,22,the
screen,html.Screen,2_1_1_1_23,2022-05-02T09:45:40.377Z,,,,,,,,,,,,,,,,,54,,,,,,,,,,,,,,370.679999999993,,response,,,,100,,,,,,,Space,keypress(Space),,,,,,,,-- --- ---- --- ------ ----- ------- ---- -- --- ------- --<br>------- ---------- ------ -- ----- -- ----- -- ---- ------<br>--- state --- --- ------ -------- ----- --- ------ ----- --<br>----- ----- ---------- --- --- ------ ------ ---- -- ------<br>------- --- ------ ----- --- ---- ------- -- ---- --- --<br>------- ------,165295,165291,164920.08,164920,164920.32,165295.44,,23,state
screen,html.Screen,2_1_1_1_24,2022-05-02T09:45:40.897Z,,,,,,,,,,,,,,,,,54,,,,,,,,,,,,,,510.5599999999977,,response,,,,100,,,,,,,Space,keypress(Space),,,,,,,,-- --- ---- --- ------ ----- ------- ---- -- --- ------- --<br>------- ---------- ------ -- ----- -- ----- -- ---- ------<br>--- ----- cut --- ------ -------- ----- --- ------ ----- --<br>----- ----- ---------- --- --- ------ ------ ---- -- ------<br>------- --- ------ ----- --- ---- ------- -- ---- --- --<br>------- ------,165816,165806,165295.28,165295,165295.44,165816.56,,24,cut
screen,html.Screen,2_1_1_1_25,2022-05-02T09:45:41.290Z,,,,,,,,,,,,,,,,,54,,,,,,,,,,,,,,379.4400000000023,,response,,,,100,,,,,,,Space,keypress(Space),,,,,,,,-- --- ---- --- ------ ----- ------- ---- -- --- ------- --<br>------- ---------- ------ -- ----- -- ----- -- ---- ------<br>--- ----- --- the ------ -------- ----- --- ------ ----- --<br>----- ----- ---------- --- --- ------ ------ ---- -- ------<br>------- --- ------ ----- --- ---- ------- -- ---- --- --<br>------- ------,166208,166196,165816.26,165816,165816.56,166208.08,,25,the
screen,html.Screen,2_1_1_1_26,2022-05-02T09:45:41.610Z,,,,,,,,,,,,,,,,,54,,,,,,,,,,,,,,316.9200000000128,,response,,,,100,,,,,,,Space,keypress(Space),,,,,,,,-- --- ---- --- ------ ----- ------- ---- -- --- ------- --<br>------- ---------- ------ -- ----- -- ----- -- ---- ------<br>--- ----- --- --- bonds' -------- ----- --- ------ ----- --<br>----- ----- ---------- --- --- ------ ------ ---- -- ------<br>------- --- ------ ----- --- ---- ------- -- ---- --- --<br>------- ------,166528,166525,166207.76,166208,166208.08,166529.68,,26,bonds'
screen,html.Screen,2_1_1_1_27,2022-05-02T09:45:41.961Z,,,,,,,,,,,,,,,,,54,,,,,,,,,,,,,,339.320000000007,,response,,,,100,,,,,,,Space,keypress(Space),,,,,,,,-- --- ---- --- ------ ----- ------- ---- -- --- ------- --<br>------- ---------- ------ -- ----- -- ----- -- ---- ------<br>--- ----- --- --- ------ interest ----- --- ------ ----- --<br>----- ----- ---------- --- --- ------ ------ ---- -- ------<br>------- --- ------ ----- --- ---- ------- -- ---- --- --<br>------- ------,166880,166869,166528.02,166528,166529.68,166880.04,,27,interest
screen,html.Screen,2_1_1_1_28,2022-05-02T09:45:42.537Z,,,,,,,,,,,,,,,,,54,,,,,,,,,,,,,,566.9599999999919,,response,,,,100,,,,,,,Space,keypress(Space),,,,,,,,-- --- ---- --- ------ ----- ------- ---- -- --- ------- --<br>------- ---------- ------ -- ----- -- ----- -- ---- ------<br>--- ----- --- --- ------ -------- rate. --- ------ ----- --<br>----- ----- ---------- --- --- ------ ------ ---- -- ------<br>------- --- ------ ----- --- ---- ------- -- ---- --- --<br>------- ------,167455,167447,166879.84,166880,166880.04,167455.32,,28,rate.
screen,html.Screen,2_1_1_1_29,2022-05-02T09:45:42.897Z,,,,,,,,,,,,,,,,,54,,,,,,,,,,,,,,349.679999999993,,response,,,,100,,,,,,,Space,keypress(Space),,,,,,,,-- --- ---- --- ------ ----- ------- ---- -- --- ------- --<br>------- ---------- ------ -- ----- -- ----- -- ---- ------<br>--- ----- --- --- ------ -------- ----- The ------ ----- --<br>----- ----- ---------- --- --- ------ ------ ---- -- ------<br>------- --- ------ ----- --- ---- ------- -- ---- --- --<br>------- ------,167816,167805,167455.16,167455,167455.32,167816.38,,29,The
screen,html.Screen,2_1_1_1_30,2022-05-02T09:45:43.225Z,,,,,,,,,,,,,,,,,54,,,,,,,,,,,,,,318.61999999999534,,response,,,,100,,,,,,,Space,keypress(Space),,,,,,,,-- --- ---- --- ------ ----- ------- ---- -- --- ------- --<br>------- ---------- ------ -- ----- -- ----- -- ---- ------<br>--- ----- --- --- ------ -------- ----- --- market ----- --<br>----- ----- ---------- --- --- ------ ------ ---- -- ------<br>------- --- ------ ----- --- ---- ------- -- ---- --- --<br>------- ------,168143,168135,167816.08,167816,167816.38,168146.28,,30,market
screen,html.Screen,2_1_1_1_31,2022-05-02T09:45:43.649Z,,,,,,,,,,,,,,,,,54,,,,,,,,,,,,,,409.72000000000116,,response,,,,100,,,,,,,Space,keypress(Space),,,,,,,,-- --- ---- --- ------ ----- ------- ---- -- --- ------- --<br>------- ---------- ------ -- ----- -- ----- -- ---- ------<br>--- ----- --- --- ------ -------- ----- --- ------ value --<br>----- ----- ---------- --- --- ------ ------ ---- -- ------<br>------- --- ------ ----- --- ---- ------- -- ---- --- --<br>------- ------,168568,168556,168144.1,168144,168146.28,168568.38,,31,value
screen,html.Screen,2_1_1_1_32,2022-05-02T09:45:43.985Z,,,,,,,,,,,,,,,,,54,,,,,,,,,,,,,,331.61999999999534,,response,,,,100,,,,,,,Space,keypress(Space),,,,,,,,-- --- ---- --- ------ ----- ------- ---- -- --- ------- --<br>------- ---------- ------ -- ----- -- ----- -- ---- ------<br>--- ----- --- --- ------ -------- ----- --- ------ ----- of<br>----- ----- ---------- --- --- ------ ------ ---- -- ------<br>------- --- ------ ----- --- ---- ------- -- ---- --- --<br>------- ------,168903,168900,168568.08,168568,168568.38,168903.24,,32,of
screen,html.Screen,2_1_1_1_33,2022-05-02T09:45:44.377Z,,,,,,,,,,,,,,,,,54,,,,,,,,,,,,,,386.7600000000093,,response,,,,100,,,,,,,Space,keypress(Space),,,,,,,,-- --- ---- --- ------ ----- ------- ---- -- --- ------- --<br>------- ---------- ------ -- ----- -- ----- -- ---- ------<br>--- ----- --- --- ------ -------- ----- --- ------ ----- --<br>these ----- ---------- --- --- ------ ------ ---- -- ------<br>------- --- ------ ----- --- ---- ------- -- ---- --- --<br>------- ------,169295,169290,168903.04,168903,168903.24,169296.36,,33,these
screen,html.Screen,2_1_1_1_34,2022-05-02T09:45:44.722Z,,,,,,,,,,,,,,,,,54,,,,,,,,,,,,,,338.64000000001397,,response,,,,100,,,,,,,Space,keypress(Space),,,,,,,,-- --- ---- --- ------ ----- ------- ---- -- --- ------- --<br>------- ---------- ------ -- ----- -- ----- -- ---- ------<br>--- ----- --- --- ------ -------- ----- --- ------ ----- --<br>----- bonds ---------- --- --- ------ ------ ---- -- ------<br>------- --- ------ ----- --- ---- ------- -- ---- --- --<br>------- ------,169639,169635,169295.94,169295,169296.36,169640.3,,34,bonds
screen,html.Screen,2_1_1_1_35,2022-05-02T09:45:45.050Z,,,,,,,,,,,,,,,,,54,,,,,,,,,,,,,,322.70000000001164,,response,,,,100,,,,,,,Space,keypress(Space),,,,,,,,"-- --- ---- --- ------ ----- ------- ---- -- --- ------- --<br>------- ---------- ------ -- ----- -- ----- -- ---- ------<br>--- ----- --- --- ------ -------- ----- --- ------ ----- --<br>----- ----- plummeted, --- --- ------ ------ ---- -- ------<br>------- --- ------ ----- --- ---- ------- -- ---- --- --<br>------- ------",169967,169963,169640,169640,169640.3,169968.18,,35,"plummeted,"
screen,html.Screen,2_1_1_1_36,2022-05-02T09:45:45.369Z,,,,,,,,,,,,,,,,,54,,,,,,,,,,,,,,306.820000000007,,response,,,,100,,,,,,,Space,keypress(Space),,,,,,,,-- --- ---- --- ------ ----- ------- ---- -- --- ------- --<br>------- ---------- ------ -- ----- -- ----- -- ---- ------<br>--- ----- --- --- ------ -------- ----- --- ------ ----- --<br>----- ----- ---------- and --- ------ ------ ---- -- ------<br>------- --- ------ ----- --- ---- ------- -- ---- --- --<br>------- ------,170287,170275,169967.92,169968,169968.18,170288.5,,36,and
screen,html.Screen,2_1_1_1_37,2022-05-02T09:45:45.729Z,,,,,,,,,,,,,,,,,54,,,,,,,,,,,,,,345.5,,response,,,,100,,,,,,,Space,keypress(Space),,,,,,,,-- --- ---- --- ------ ----- ------- ---- -- --- ------- --<br>------- ---------- ------ -- ----- -- ----- -- ---- ------<br>--- ----- --- --- ------ -------- ----- --- ------ ----- --<br>----- ----- ---------- --- the ------ ------ ---- -- ------<br>------- --- ------ ----- --- ---- ------- -- ---- --- --<br>------- ------,170647,170634,170288.18,170289,170288.5,170647.24,,37,the
screen,html.Screen,2_1_1_1_38,2022-05-02T09:45:46.065Z,,,,,,,,,,,,,,,,,54,,,,,,,,,,,,,,330.7600000000093,,response,,,,100,,,,,,,Space,keypress(Space),,,,,,,,-- --- ---- --- ------ ----- ------- ---- -- --- ------- --<br>------- ---------- ------ -- ----- -- ----- -- ---- ------<br>--- ----- --- --- ------ -------- ----- --- ------ ----- --<br>----- ----- ---------- --- --- market ------ ---- -- ------<br>------- --- ------ ----- --- ---- ------- -- ---- --- --<br>------- ------,170983,170978,170647.12,170647,170647.24,170984.44,,38,market
screen,html.Screen,2_1_1_1_39,2022-05-02T09:45:46.441Z,,,,,,,,,,,,,,,,,54,,,,,,,,,,,,,,368.5599999999977,,response,,,,100,,,,,,,Space,keypress(Space),,,,,,,,-- --- ---- --- ------ ----- ------- ---- -- --- ------- --<br>------- ---------- ------ -- ----- -- ----- -- ---- ------<br>--- ----- --- --- ------ -------- ----- --- ------ ----- --<br>----- ----- ---------- --- --- ------ became ---- -- ------<br>------- --- ------ ----- --- ---- ------- -- ---- --- --<br>------- ------,171360,171353,170984.16,170984,170984.44,171360.4,,39,became
screen,html.Screen,2_1_1_1_40,2022-05-02T09:45:46.906Z,,,,,,,,,,,,,,,,,54,,,,,,,,,,,,,,461.6000000000058,,response,,,,100,,,,,,,Space,keypress(Space),,,,,,,,-- --- ---- --- ------ ----- ------- ---- -- --- ------- --<br>------- ---------- ------ -- ----- -- ----- -- ---- ------<br>--- ----- --- --- ------ -------- ----- --- ------ ----- --<br>----- ----- ---------- --- --- ------ ------ wary -- ------<br>------- --- ------ ----- --- ---- ------- -- ---- --- --<br>------- ------,171824,171822,171360.16,171360,171360.4,171824.46,,40,wary
screen,html.Screen,2_1_1_1_41,2022-05-02T09:45:47.305Z,,,,,,,,,,,,,,,,,54,,,,,,,,,,,,,,388.54000000000815,,response,,,,100,,,,,,,Space,keypress(Space),,,,,,,,-- --- ---- --- ------ ----- ------- ---- -- --- ------- --<br>------- ---------- ------ -- ----- -- ----- -- ---- ------<br>--- ----- --- --- ------ -------- ----- --- ------ ----- --<br>----- ----- ---------- --- --- ------ ------ ---- of ------<br>------- --- ------ ----- --- ---- ------- -- ---- --- --<br>------- ------,172224,172213,171824.24,171824,171824.46,172224.28,,41,of
screen,html.Screen,2_1_1_1_42,2022-05-02T09:45:47.697Z,,,,,,,,,,,,,,,,,54,,,,,,,,,,,,,,377.72000000000116,,response,,,,100,,,,,,,Space,keypress(Space),,,,,,,,-- --- ---- --- ------ ----- ------- ---- -- --- ------- --<br>------- ---------- ------ -- ----- -- ----- -- ---- ------<br>--- ----- --- --- ------ -------- ----- --- ------ ----- --<br>----- ----- ---------- --- --- ------ ------ ---- -- French<br>------- --- ------ ----- --- ---- ------- -- ---- --- --<br>------- ------,172615,172602,172224.04,172224,172224.28,172616.34,,42,French
screen,html.Screen,2_1_1_1_43,2022-05-02T09:45:48.106Z,,,,,,,,,,,,,,,,,54,,,,,,,,,,,,,,393.6600000000035,,response,,,,100,,,,,,,Space,keypress(Space),,,,,,,,-- --- ---- --- ------ ----- ------- ---- -- --- ------- --<br>------- ---------- ------ -- ----- -- ----- -- ---- ------<br>--- ----- --- --- ------ -------- ----- --- ------ ----- --<br>----- ----- ---------- --- --- ------ ------ ---- -- ------<br>credit. --- ------ ----- --- ---- ------- -- ---- --- --<br>------- ------,173024,173010,172616.06,172616,172616.34,173024.42,,43,credit.
screen,html.Screen,2_1_1_1_44,2022-05-02T09:45:48.434Z,,,,,,,,,,,,,,,,,54,,,,,,,,,,,,,,313.5799999999872,,response,,,,100,,,,,,,Space,keypress(Space),,,,,,,,-- --- ---- --- ------ ----- ------- ---- -- --- ------- --<br>------- ---------- ------ -- ----- -- ----- -- ---- ------<br>--- ----- --- --- ------ -------- ----- --- ------ ----- --<br>----- ----- ---------- --- --- ------ ------ ---- -- ------<br>------- The ------ ----- --- ---- ------- -- ---- --- --<br>------- ------,173352,173338,173024.14,173024,173024.42,173352.34,,44,The
screen,html.Screen,2_1_1_1_45,2022-05-02T09:45:48.866Z,,,,,,,,,,,,,,,,,54,,,,,,,,,,,,,,422.6600000000035,,response,,,,100,,,,,,,Space,keypress(Space),,,,,,,,-- --- ---- --- ------ ----- ------- ---- -- --- ------- --<br>------- ---------- ------ -- ----- -- ----- -- ---- ------<br>--- ----- --- --- ------ -------- ----- --- ------ ----- --<br>----- ----- ---------- --- --- ------ ------ ---- -- ------<br>------- --- French ----- --- ---- ------- -- ---- --- --<br>------- ------,173784,173775,173352.1,173352,173352.34,173784.34,,45,French
screen,html.Screen,2_1_1_1_46,2022-05-02T09:45:49.274Z,,,,,,,,,,,,,,,,,54,,,,,,,,,,,,,,395.6600000000035,,response,,,,100,,,,,,,Space,keypress(Space),,,,,,,,-- --- ---- --- ------ ----- ------- ---- -- --- ------- --<br>------- ---------- ------ -- ----- -- ----- -- ---- ------<br>--- ----- --- --- ------ -------- ----- --- ------ ----- --<br>----- ----- ---------- --- --- ------ ------ ---- -- ------<br>------- --- ------ state --- ---- ------- -- ---- --- --<br>------- ------,174192,174180,173784.08,173784,173784.34,174192.38,,46,state
screen,html.Screen,2_1_1_1_47,2022-05-02T09:45:49.601Z,,,,,,,,,,,,,,,,,54,,,,,,,,,,,,,,317.61999999999534,,response,,,,100,,,,,,,Space,keypress(Space),,,,,,,,-- --- ---- --- ------ ----- ------- ---- -- --- ------- --<br>------- ---------- ------ -- ----- -- ----- -- ---- ------<br>--- ----- --- --- ------ -------- ----- --- ------ ----- --<br>----- ----- ---------- --- --- ------ ------ ---- -- ------<br>------- --- ------ ----- was ---- ------- -- ---- --- --<br>------- ------,174519,174510,174192.14,174192,174192.38,174520.04,,47,was
screen,html.Screen,2_1_1_1_48,2022-05-02T09:45:49.930Z,,,,,,,,,,,,,,,,,54,,,,,,,,,,,,,,317.95999999999185,,response,,,,100,,,,,,,Space,keypress(Space),,,,,,,,-- --- ---- --- ------ ----- ------- ---- -- --- ------- --<br>------- ---------- ------ -- ----- -- ----- -- ---- ------<br>--- ----- --- --- ------ -------- ----- --- ------ ----- --<br>----- ----- ---------- --- --- ------ ------ ---- -- ------<br>------- --- ------ ----- --- left ------- -- ---- --- --<br>------- ------,174848,174838,174519.78,174520,174520.04,174848.24,,48,left
screen,html.Screen,2_1_1_1_49,2022-05-02T09:45:50.336Z,,,,,,,,,,,,,,,,,54,,,,,,,,,,,,,,395.7600000000093,,response,,,,100,,,,,,,Space,keypress(Space),,,,,,,,-- --- ---- --- ------ ----- ------- ---- -- --- ------- --<br>------- ---------- ------ -- ----- -- ----- -- ---- ------<br>--- ----- --- --- ------ -------- ----- --- ------ ----- --<br>----- ----- ---------- --- --- ------ ------ ---- -- ------<br>------- --- ------ ----- --- ---- without -- ---- --- --<br>------- ------,175255,175244,174847.94,174848,174848.24,175254.98,,49,without
screen,html.Screen,2_1_1_1_50,2022-05-02T09:45:50.754Z,,,,,,,,,,,,,,,,,54,,,,,,,,,,,,,,411.0199999999895,,response,,,,100,,,,,,,Space,keypress(Space),,,,,,,,-- --- ---- --- ------ ----- ------- ---- -- --- ------- --<br>------- ---------- ------ -- ----- -- ----- -- ---- ------<br>--- ----- --- --- ------ -------- ----- --- ------ ----- --<br>----- ----- ---------- --- --- ------ ------ ---- -- ------<br>------- --- ------ ----- --- ---- ------- an ---- --- --<br>------- ------,175672,175666,175254.82,175255,175254.98,175674.62,,50,an
screen,html.Screen,2_1_1_1_51,2022-05-02T09:45:51.138Z,,,,,,,,,,,,,,,,,54,,,,,,,,,,,,,,366.38000000000466,,response,,,,100,,,,,,,Space,keypress(Space),,,,,,,,-- --- ---- --- ------ ----- ------- ---- -- --- ------- --<br>------- ---------- ------ -- ----- -- ----- -- ---- ------<br>--- ----- --- --- ------ -------- ----- --- ------ ----- --<br>----- ----- ---------- --- --- ------ ------ ---- -- ------<br>------- --- ------ ----- --- ---- ------- -- easy --- --<br>------- ------,176055,176041,175674.42,175674,175674.62,176055.82,,51,easy
screen,html.Screen,2_1_1_1_52,2022-05-02T09:45:51.530Z,,,,,,,,,,,,,,,,,54,,,,,,,,,,,,,,375.179999999993,,response,,,,100,,,,,,,Space,keypress(Space),,,,,,,,-- --- ---- --- ------ ----- ------- ---- -- --- ------- --<br>------- ---------- ------ -- ----- -- ----- -- ---- ------<br>--- ----- --- --- ------ -------- ----- --- ------ ----- --<br>----- ----- ---------- --- --- ------ ------ ---- -- ------<br>------- --- ------ ----- --- ---- ------- -- ---- way --<br>------- ------,176448,176431,176055.68,176056,176055.82,176449.02,,52,way
screen,html.Screen,2_1_1_1_53,2022-05-02T09:45:51.962Z,,,,,,,,,,,,,,,,,54,,,,,,,,,,,,,,418.9800000000105,,response,,,,100,,,,,,,Space,keypress(Space),,,,,,,,-- --- ---- --- ------ ----- ------- ---- -- --- ------- --<br>------- ---------- ------ -- ----- -- ----- -- ---- ------<br>--- ----- --- --- ------ -------- ----- --- ------ ----- --<br>----- ----- ---------- --- --- ------ ------ ---- -- ------<br>------- --- ------ ----- --- ---- ------- -- ---- --- of<br>------- ------,176880,176868,176448.7,176449,176449.02,176881.54,,53,of
screen,html.Screen,2_1_1_1_54,2022-05-02T09:45:52.426Z,,,,,,,,,,,,,,,,,54,,,,,,,,,,,,,,456.45999999999185,,response,,,,100,,,,,,,Space,keypress(Space),,,,,,,,-- --- ---- --- ------ ----- ------- ---- -- --- ------- --<br>------- ---------- ------ -- ----- -- ----- -- ---- ------<br>--- ----- --- --- ------ -------- ----- --- ------ ----- --<br>----- ----- ---------- --- --- ------ ------ ---- -- ------<br>------- --- ------ ----- --- ---- ------- -- ---- --- --<br>raising ------,177343,177338,176881.28,176882,176881.54,177345.2,,54,raising
screen,html.Screen,2_1_1_1_55,2022-05-02T09:45:52.922Z,,,,,,,,,,,,,,,,,54,,,,,,,,,,,,,,492.79999999998836,,response,,,,100,,,,,,,Space,keypress(Space),,,,,,,,-- --- ---- --- ------ ----- ------- ---- -- --- ------- --<br>------- ---------- ------ -- ----- -- ----- -- ---- ------<br>--- ----- --- --- ------ -------- ----- --- ------ ----- --<br>----- ----- ---------- --- --- ------ ------ ---- -- ------<br>------- --- ------ ----- --- ---- ------- -- ---- --- --<br>------- money.,177840,177838,177344.94,177344,177345.2,177845.9,,55,money.
Item 100,flow.Loop,2_1_1_1,2022-05-02T09:45:52.923Z,,,,,,,,,,,,,,,,,,,,,,,,,,,,,,,21458,,completion,,,,,E,,,,,,,,,,,silence,,,,,177842,177838,156363.34,156365,156380,177845.9,,,
Question 1,html.Screen,2_1_1_2,2022-05-02T09:45:55.647Z,,,,,,,,,,,,,,,,,,,,,,,,,,,,true,TRUE,,2710.100000000006,,response,,,,100,E,,,,,,TRUE,click #choice-1,,,,silence,,,,,180565,180556,177841.7,177842,177845.9,180579.14,,,
Question 2,html.Screen,2_1_1_3,2022-05-02T09:45:59.818Z,,,,,,,,,,,,,,,,,,,,,,,,,,,,true,FALSE,,4147.859999999986,,response,,,,100,E,,,,,,FALSE,click #choice-2,,,,silence,,,,,184735,184727,180564.52,180565,180579.14,184745.62,,,
Item 100,flow.Sequence,2_1_1,2022-05-02T09:45:59.818Z,,,,,,,,,,,,,,,,,,,,,,,,,,,,,,,38346.57999999999,,completion,,,,,,,,,,,,,,,,,,,,,184736,184727,146365,146367,146380.42,184745.62,,,
End of Practice,html.Page,2_1_2,2022-05-02T09:46:04.952Z,,,,,,,,,,,,,,,,,,,,,,,,,,,,,,,5123.380000000005,,form submission,,,,,,,,,,,,,,,,,,,,,189870,189869,184734.7,184736,184745.62,189878.74,,,
Practice,flow.Sequence,2_1,2022-05-02T09:46:04.952Z,,,,,,,,,,,,,,,,,,,,,,,,,,,,,,,87670.22,,completion,,,,,,,,,,,,,,,,,,,,,189871,189869,102195.3,102198,102198.78,189878.74,,,
Trap_instruction,html.Page,2_2_0,2022-05-02T09:46:10.064Z,,,,,,,,,,,,,,,,,,,,,,,,,,,,,,,5102.260000000009,,form submission,,,,,,,,,,,,,,,,,,,,,194982,194981,189866.54,189871,189878.74,194995.18,,,
trap_trial,html.Screen,2_2_1,2022-05-02T09:46:13.013Z,,,,,,,,,,,,,,,,,,,,,,,,,,,,true,1,,2920.820000000007,,response,,,,,,,,,,,1,click #choice-1,,,,,,,,,197931,197916,194978.62,194982,194995.18,197945.14,,,
end of trap trial,html.Page,2_2_2,2022-05-02T09:46:18.983Z,,,,,,,,,,,,,,,,,,,,,,,,,,,,,,,5954.859999999986,,form submission,,,,,,,,,,,,,,,,,,,,,203901,203900,197930.38,197931,197945.14,203911.6,,,
Trap 1,flow.Sequence,2_2,2022-05-02T09:46:18.983Z,,,,,,,,,,,,,,,,,,,,,,,,,,,,,,,14021.26000000001,,completion,,,,,,,,,,,,,,,,,,,,,203901,203900,189866.54,189871,189878.74,203911.6,,,
Standby,html.Page,2_3_0,2022-05-02T09:46:26.977Z,,,,,,,,,,,,,,,,,,,,,,,,,,,,,,,7999.639999999985,,timeout,,,,,,,,,,,,,,,,,,,,,211896,211894.58,203898.46,203901,203911.6,211911.24,,,
Holding screen,html.Screen,2_3_1_0_0,2022-05-02T09:46:33.977Z,,,,,,,,,,,,,,,,,,,,,,,,,,,,,,,6999.74000000002,,timeout,,,,,,,,,,,,,,,,,,,,,218895,218894.32,211894.58,211896,211911.24,218910.98,,,
screen,html.Screen,2_3_1_0_1_0,2022-05-02T09:46:34.809Z,,,,,,,,,,,,,,,,,2,,,,,,,,,,,,,,802.0199999999895,,response,,,,1,E,,,,,,Space,keypress(Space),,,,silence,,,,Two ---- ------ --- ------- ---------- ------- ----------<br>--- --------- --- ----------- ------- ----- ------- ---<br>--------- ---- -- --- ---- -- --------- -- ---- -------<br>-- --------- ------ --- ----- ------ ---- --- --------- --<br>------ - ---- -- --- ----------- ------- ---- ----- -----<br>--- -------- - ------ ---- -- ----- ---- --- --- -----------<br>-- -------,219727,219713,218894.32,218895,218910.98,219728.2,,0,Two
screen,html.Screen,2_3_1_0_1_1,2022-05-02T09:46:35.194Z,,,,,,,,,,,,,,,,,2,,,,,,,,,,,,,,374.79999999998836,,response,,,,1,E,,,,,,Space,keypress(Space),,,,silence,,,,--- days ------ --- ------- ---------- ------- ----------<br>--- --------- --- ----------- ------- ----- ------- ---<br>--------- ---- -- --- ---- -- --------- -- ---- -------<br>-- --------- ------ --- ----- ------ ---- --- --------- --<br>------ - ---- -- --- ----------- ------- ---- ----- -----<br>--- -------- - ------ ---- -- ----- ---- --- --- -----------<br>-- -------,220111,220103,219727.98,219728,219728.2,220112.2,,1,days
screen,html.Screen,2_3_1_0_1_2,2022-05-02T09:46:35.593Z,,,,,,,,,,,,,,,,,2,,,,,,,,,,,,,,381.79999999998836,,response,,,,1,E,,,,,,Space,keypress(Space),,,,silence,,,,"--- ---- later, --- ------- ---------- ------- ----------<br>--- --------- --- ----------- ------- ----- ------- ---<br>--------- ---- -- --- ---- -- --------- -- ---- -------<br>-- --------- ------ --- ----- ------ ---- --- --------- --<br>------ - ---- -- --- ----------- ------- ---- ----- -----<br>--- -------- - ------ ---- -- ----- ---- --- --- -----------<br>-- -------",220511,220494,220111.86,220112,220112.2,220511.66,,2,"later,"
screen,html.Screen,2_3_1_0_1_3,2022-05-02T09:46:35.978Z,,,,,,,,,,,,,,,,,2,,,,,,,,,,,,,,373.3399999999965,,response,,,,1,E,,,,,,Space,keypress(Space),,,,silence,,,,--- ---- ------ the ------- ---------- ------- ----------<br>--- --------- --- ----------- ------- ----- ------- ---<br>--------- ---- -- --- ---- -- --------- -- ---- -------<br>-- --------- ------ --- ----- ------ ---- --- --------- --<br>------ - ---- -- --- ----------- ------- ---- ----- -----<br>--- -------- - ------ ---- -- ----- ---- --- --- -----------<br>-- -------,220896,220885,220511.38,220511,220511.66,220896.16,,3,the
screen,html.Screen,2_3_1_0_1_4,2022-05-02T09:46:36.433Z,,,,,,,,,,,,,,,,,2,,,,,,,,,,,,,,440.8399999999965,,response,,,,1,E,,,,,,Space,keypress(Space),,,,silence,,,,--- ---- ------ --- British ---------- ------- ----------<br>--- --------- --- ----------- ------- ----- ------- ---<br>--------- ---- -- --- ---- -- --------- -- ---- -------<br>-- --------- ------ --- ----- ------ ---- --- --------- --<br>------ - ---- -- --- ----------- ------- ---- ----- -----<br>--- -------- - ------ ---- -- ----- ---- --- --- -----------<br>-- -------,221351,221337,220895.92,220896,220896.16,221352.02,,4,British
screen,html.Screen,2_3_1_0_1_5,2022-05-02T09:46:36.913Z,,,,,,,,,,,,,,,,,2,,,,,,,,,,,,,,469.9800000000105,,response,,,,1,E,,,,,,Space,keypress(Space),,,,silence,,,,--- ---- ------ --- ------- astronomer ------- ----------<br>--- --------- --- ----------- ------- ----- ------- ---<br>--------- ---- -- --- ---- -- --------- -- ---- -------<br>-- --------- ------ --- ----- ------ ---- --- --------- --<br>------ - ---- -- --- ----------- ------- ---- ----- -----<br>--- -------- - ------ ---- -- ----- ---- --- --- -----------<br>-- -------,221831,221822,221351.74,221351,221352.02,221832,,5,astronomer
screen,html.Screen,2_3_1_0_1_6,2022-05-02T09:46:37.353Z,,,,,,,,,,,,,,,,,2,,,,,,,,,,,,,,428,,response,,,,1,E,,,,,,Space,keypress(Space),,,,silence,,,,--- ---- ------ --- ------- ---------- Richard ----------<br>--- --------- --- ----------- ------- ----- ------- ---<br>--------- ---- -- --- ---- -- --------- -- ---- -------<br>-- --------- ------ --- ----- ------ ---- --- --------- --<br>------ - ---- -- --- ----------- ------- ---- ----- -----<br>--- -------- - ------ ---- -- ----- ---- --- --- -----------<br>-- -------,222271,222260,221831.72,221831,221832,222271.7,,6,Richard
screen,html.Screen,2_3_1_0_1_7,2022-05-02T09:46:37.953Z,,,,,,,,,,,,,,,,,2,,,,,,,,,,,,,,597.2999999999884,,response,,,,1,E,,,,,,Space,keypress(Space),,,,silence,,,,--- ---- ------ --- ------- ---------- ------- Carrington<br>--- --------- --- ----------- ------- ----- ------- ---<br>--------- ---- -- --- ---- -- --------- -- ---- -------<br>-- --------- ------ --- ----- ------ ---- --- --------- --<br>------ - ---- -- --- ----------- ------- ---- ----- -----<br>--- -------- - ------ ---- -- ----- ---- --- --- -----------<br>-- -------,222871,222869,222271.46,222271,222271.7,222872.16,,7,Carrington
screen,html.Screen,2_3_1_0_1_8,2022-05-02T09:46:38.481Z,,,,,,,,,,,,,,,,,2,,,,,,,,,,,,,,512.8399999999965,,response,,,,1,E,,,,,,Space,keypress(Space),,,,silence,,,,--- ---- ------ --- ------- ---------- ------- ----------<br>was --------- --- ----------- ------- ----- ------- ---<br>--------- ---- -- --- ---- -- --------- -- ---- -------<br>-- --------- ------ --- ----- ------ ---- --- --------- --<br>------ - ---- -- --- ----------- ------- ---- ----- -----<br>--- -------- - ------ ---- -- ----- ---- --- --- -----------<br>-- -------,223399,223385,222871.88,222872,222872.16,223399.78,,8,was
screen,html.Screen,2_3_1_0_1_9,2022-05-02T09:46:38.929Z,,,,,,,,,,,,,,,,,2,,,,,,,,,,,,,,438.22000000000116,,response,,,,1,E,,,,,,Space,keypress(Space),,,,silence,,,,--- ---- ------ --- ------- ---------- ------- ----------<br>--- observing --- ----------- ------- ----- ------- ---<br>--------- ---- -- --- ---- -- --------- -- ---- -------<br>-- --------- ------ --- ----- ------ ---- --- --------- --<br>------ - ---- -- --- ----------- ------- ---- ----- -----<br>--- -------- - ------ ---- -- ----- ---- --- --- -----------<br>-- -------,223848,223838,223399.56,223400,223399.78,223847.88,,9,observing
screen,html.Screen,2_3_1_0_1_10,2022-05-02T09:46:39.354Z,,,,,,,,,,,,,,,,,2,,,,,,,,,,,,,,412.11999999999534,,response,,,,1,E,,,,,,Space,keypress(Space),,,,silence,,,,--- ---- ------ --- ------- ---------- ------- ----------<br>--- --------- the ----------- ------- ----- ------- ---<br>--------- ---- -- --- ---- -- --------- -- ---- -------<br>-- --------- ------ --- ----- ------ ---- --- --------- --<br>------ - ---- -- --- ----------- ------- ---- ----- -----<br>--- -------- - ------ ---- -- ----- ---- --- --- -----------<br>-- -------,224271,224260,223847.64,223848,223847.88,224271.98,,10,the
screen,html.Screen,2_3_1_0_1_11,2022-05-02T09:46:39.801Z,,,,,,,,,,,,,,,,,2,,,,,,,,,,,,,,441.0199999999895,,response,,,,1,E,,,,,,Space,keypress(Space),,,,silence,,,,--- ---- ------ --- ------- ---------- ------- ----------<br>--- --------- --- interesting ------- ----- ------- ---<br>--------- ---- -- --- ---- -- --------- -- ---- -------<br>-- --------- ------ --- ----- ------ ---- --- --------- --<br>------ - ---- -- --- ----------- ------- ---- ----- -----<br>--- -------- - ------ ---- -- ----- ---- --- --- -----------<br>-- -------,224720,224713,224271.7,224271,224271.98,224719.96,,11,interesting
screen,html.Screen,2_3_1_0_1_12,2022-05-02T09:46:40.104Z,,,,,,,,,,,,,,,,,2,,,,,,,,,,,,,,290.04000000000815,,response,,,,1,E,,,,,,Space,keypress(Space),,,,silence,,,,--- ---- ------ --- ------- ---------- ------- ----------<br>--- --------- --- ----------- sunspot ----- ------- ---<br>--------- ---- -- --- ---- -- --------- -- ---- -------<br>-- --------- ------ --- ----- ------ ---- --- --------- --<br>------ - ---- -- --- ----------- ------- ---- ----- -----<br>--- -------- - ------ ---- -- ----- ---- --- --- -----------<br>-- -------,225022,225010,224719.76,224720,224719.96,225022.74,,12,sunspot
screen,html.Screen,2_3_1_0_1_13,2022-05-02T09:46:40.578Z,,,,,,,,,,,,,,,,,2,,,,,,,,,,,,,,455.2600000000093,,response,,,,1,E,,,,,,Space,keypress(Space),,,,silence,,,,--- ---- ------ --- ------- ---------- ------- ----------<br>--- --------- --- ----------- ------- group ------- ---<br>--------- ---- -- --- ---- -- --------- -- ---- -------<br>-- --------- ------ --- ----- ------ ---- --- --------- --<br>------ - ---- -- --- ----------- ------- ---- ----- -----<br>--- -------- - ------ ---- -- ----- ---- --- --- -----------<br>-- -------,225495,225478,225022.58,225022,225022.74,225496.12,,13,group
screen,html.Screen,2_3_1_0_1_14,2022-05-02T09:46:40.977Z,,,,,,,,,,,,,,,,,2,,,,,,,,,,,,,,388.88000000000466,,response,,,,1,E,,,,,,Space,keypress(Space),,,,silence,,,,--- ---- ------ --- ------- ---------- ------- ----------<br>--- --------- --- ----------- ------- ----- through ---<br>--------- ---- -- --- ---- -- --------- -- ---- -------<br>-- --------- ------ --- ----- ------ ---- --- --------- --<br>------ - ---- -- --- ----------- ------- ---- ----- -----<br>--- -------- - ------ ---- -- ----- ---- --- --- -----------<br>-- -------,225895,225885,225495.92,225496,225496.12,225895.82,,14,through
screen,html.Screen,2_3_1_0_1_15,2022-05-02T09:46:41.425Z,,,,,,,,,,,,,,,,,2,,,,,,,,,,,,,,442.179999999993,,response,,,,1,E,,,,,,Space,keypress(Space),,,,silence,,,,--- ---- ------ --- ------- ---------- ------- ----------<br>--- --------- --- ----------- ------- ----- ------- his<br>--------- ---- -- --- ---- -- --------- -- ---- -------<br>-- --------- ------ --- ----- ------ ---- --- --------- --<br>------ - ---- -- --- ----------- ------- ---- ----- -----<br>--- -------- - ------ ---- -- ----- ---- --- --- -----------<br>-- -------,226343,226338,225895.56,225896,225895.82,226343.9,,15,his
screen,html.Screen,2_3_1_0_1_16,2022-05-02T09:46:41.849Z,,,,,,,,,,,,,,,,,2,,,,,,,,,,,,,,416.1000000000058,,response,,,,1,E,,,,,,Space,keypress(Space),,,,silence,,,,--- ---- ------ --- ------- ---------- ------- ----------<br>--- --------- --- ----------- ------- ----- ------- ---<br>telescope ---- -- --- ---- -- --------- -- ---- -------<br>-- --------- ------ --- ----- ------ ---- --- --------- --<br>------ - ---- -- --- ----------- ------- ---- ----- -----<br>--- -------- - ------ ---- -- ----- ---- --- --- -----------<br>-- -------,226768,226760,226343.58,226344,226343.9,226767.82,,16,telescope
screen,html.Screen,2_3_1_0_1_17,2022-05-02T09:46:42.305Z,,,,,,,,,,,,,,,,,2,,,,,,,,,,,,,,444.179999999993,,response,,,,1,E,,,,,,Space,keypress(Space),,,,silence,,,,--- ---- ------ --- ------- ---------- ------- ----------<br>--- --------- --- ----------- ------- ----- ------- ---<br>--------- when -- --- ---- -- --------- -- ---- -------<br>-- --------- ------ --- ----- ------ ---- --- --------- --<br>------ - ---- -- --- ----------- ------- ---- ----- -----<br>--- -------- - ------ ---- -- ----- ---- --- --- -----------<br>-- -------,227223,227212,226767.54,226768,226767.82,227223.86,,17,when
screen,html.Screen,2_3_1_0_1_18,2022-05-02T09:46:42.689Z,,,,,,,,,,,,,,,,,2,,,,,,,,,,,,,,379.14000000001397,,response,,,,1,E,,,,,,Space,keypress(Space),,,,silence,,,,--- ---- ------ --- ------- ---------- ------- ----------<br>--- --------- --- ----------- ------- ----- ------- ---<br>--------- ---- he --- ---- -- --------- -- ---- -------<br>-- --------- ------ --- ----- ------ ---- --- --------- --<br>------ - ---- -- --- ----------- ------- ---- ----- -----<br>--- -------- - ------ ---- -- ----- ---- --- --- -----------<br>-- -------,227607,227603,227223.56,227223,227223.86,227607.94,,18,he
screen,html.Screen,2_3_1_0_1_19,2022-05-02T09:46:43.121Z,,,,,,,,,,,,,,,,,2,,,,,,,,,,,,,,416.0599999999977,,response,,,,1,E,,,,,,Space,keypress(Space),,,,silence,,,,--- ---- ------ --- ------- ---------- ------- ----------<br>--- --------- --- ----------- ------- ----- ------- ---<br>--------- ---- -- saw ---- -- --------- -- ---- -------<br>-- --------- ------ --- ----- ------ ---- --- --------- --<br>------ - ---- -- --- ----------- ------- ---- ----- -----<br>--- -------- - ------ ---- -- ----- ---- --- --- -----------<br>-- -------,228039,228024,227607.68,227608,227607.94,228039.84,,19,saw
screen,html.Screen,2_3_1_0_1_20,2022-05-02T09:46:43.537Z,,,,,,,,,,,,,,,,,2,,,,,,,,,,,,,,407.1600000000035,,response,,,,1,E,,,,,,Space,keypress(Space),,,,silence,,,,--- ---- ------ --- ------- ---------- ------- ----------<br>--- --------- --- ----------- ------- ----- ------- ---<br>--------- ---- -- --- what -- --------- -- ---- -------<br>-- --------- ------ --- ----- ------ ---- --- --------- --<br>------ - ---- -- --- ----------- ------- ---- ----- -----<br>--- -------- - ------ ---- -- ----- ---- --- --- -----------<br>-- -------,228456,228447,228039.6,228039,228039.84,228456.1,,20,what
screen,html.Screen,2_3_1_0_1_21,2022-05-02T09:46:43.904Z,,,,,,,,,,,,,,,,,2,,,,,,,,,,,,,,349.8999999999942,,response,,,,1,E,,,,,,Space,keypress(Space),,,,silence,,,,--- ---- ------ --- ------- ---------- ------- ----------<br>--- --------- --- ----------- ------- ----- ------- ---<br>--------- ---- -- --- ---- he --------- -- ---- -------<br>-- --------- ------ --- ----- ------ ---- --- --------- --<br>------ - ---- -- --- ----------- ------- ---- ----- -----<br>--- -------- - ------ ---- -- ----- ---- --- --- -----------<br>-- -------,228822,228806,228455.86,228456,228456.1,228823.26,,21,he
screen,html.Screen,2_3_1_0_1_22,2022-05-02T09:46:44.273Z,,,,,,,,,,,,,,,,,2,,,,,,,,,,,,,,357.7399999999907,,response,,,,1,E,,,,,,Space,keypress(Space),,,,silence,,,,--- ---- ------ --- ------- ---------- ------- ----------<br>--- --------- --- ----------- ------- ----- ------- ---<br>--------- ---- -- --- ---- -- described -- ---- -------<br>-- --------- ------ --- ----- ------ ---- --- --------- --<br>------ - ---- -- --- ----------- ------- ---- ----- -----<br>--- -------- - ------ ---- -- ----- ---- --- --- -----------<br>-- -------,229191,229181,228822.96,228823,228823.26,229191.78,,22,described
screen,html.Screen,2_3_1_0_1_23,2022-05-02T09:46:44.561Z,,,,,,,,,,,,,,,,,2,,,,,,,,,,,,,,270.22000000000116,,response,,,,1,E,,,,,,Space,keypress(Space),,,,silence,,,,--- ---- ------ --- ------- ---------- ------- ----------<br>--- --------- --- ----------- ------- ----- ------- ---<br>--------- ---- -- --- ---- -- --------- as ---- -------<br>-- --------- ------ --- ----- ------ ---- --- --------- --<br>------ - ---- -- --- ----------- ------- ---- ----- -----<br>--- -------- - ------ ---- -- ----- ---- --- --- -----------<br>-- -------,229479,229462,229191.48,229192,229191.78,229479.7,,23,as
screen,html.Screen,2_3_1_0_1_24,2022-05-02T09:46:45.242Z,,,,,,,,,,,,,,,,,2,,,,,,,,,,,,,,670.2999999999884,,response,,,,1,E,,,,,,Space,keypress(Space),,,,silence,,,,"--- ---- ------ --- ------- ---------- ------- ----------<br>--- --------- --- ----------- ------- ----- ------- ---<br>--------- ---- -- --- ---- -- --------- -- ""two -------<br>-- --------- ------ --- ----- ------ ---- --- --------- --<br>------ - ---- -- --- ----------- ------- ---- ----- -----<br>--- -------- - ------ ---- -- ----- ---- --- --- -----------<br>-- -------",230159,230150,229479.46,229479,229479.7,230160.14,,24,"""two"
screen,html.Screen,2_3_1_0_1_25,2022-05-02T09:46:45.657Z,,,,,,,,,,,,,,,,,2,,,,,,,,,,,,,,411.85999999998603,,response,,,,1,E,,,,,,Space,keypress(Space),,,,silence,,,,--- ---- ------ --- ------- ---------- ------- ----------<br>--- --------- --- ----------- ------- ----- ------- ---<br>--------- ---- -- --- ---- -- --------- -- ---- patches<br>-- --------- ------ --- ----- ------ ---- --- --------- --<br>------ - ---- -- --- ----------- ------- ---- ----- -----<br>--- -------- - ------ ---- -- ----- ---- --- --- -----------<br>-- -------,230576,230572,230159.9,230159,230160.14,230577.22,,25,patches
screen,html.Screen,2_3_1_0_1_26,2022-05-02T09:46:46.001Z,,,,,,,,,,,,,,,,,2,,,,,,,,,,,,,,338.77999999999884,,response,,,,1,E,,,,,,Space,keypress(Space),,,,silence,,,,--- ---- ------ --- ------- ---------- ------- ----------<br>--- --------- --- ----------- ------- ----- ------- ---<br>--------- ---- -- --- ---- -- --------- -- ---- -------<br>of --------- ------ --- ----- ------ ---- --- --------- --<br>------ - ---- -- --- ----------- ------- ---- ----- -----<br>--- -------- - ------ ---- -- ----- ---- --- --- -----------<br>-- -------,230919,230916,230575.6,230576,230577.22,230919.68,,26,of
screen,html.Screen,2_3_1_0_1_27,2022-05-02T09:46:46.377Z,,,,,,,,,,,,,,,,,2,,,,,,,,,,,,,,371.320000000007,,response,,,,1,E,,,,,,Space,keypress(Space),,,,silence,,,,--- ---- ------ --- ------- ---------- ------- ----------<br>--- --------- --- ----------- ------- ----- ------- ---<br>--------- ---- -- --- ---- -- --------- -- ---- -------<br>-- intensely ------ --- ----- ------ ---- --- --------- --<br>------ - ---- -- --- ----------- ------- ---- ----- -----<br>--- -------- - ------ ---- -- ----- ---- --- --- -----------<br>-- -------,231295,231291,230919.42,230920,230919.68,231295.78,,27,intensely
screen,html.Screen,2_3_1_0_1_28,2022-05-02T09:46:46.760Z,,,,,,,,,,,,,,,,,2,,,,,,,,,,,,,,370.22000000000116,,response,,,,1,E,,,,,,Space,keypress(Space),,,,silence,,,,--- ---- ------ --- ------- ---------- ------- ----------<br>--- --------- --- ----------- ------- ----- ------- ---<br>--------- ---- -- --- ---- -- --------- -- ---- -------<br>-- --------- bright --- ----- ------ ---- --- --------- --<br>------ - ---- -- --- ----------- ------- ---- ----- -----<br>--- -------- - ------ ---- -- ----- ---- --- --- -----------<br>-- -------,231678,231666,231295.46,231296,231295.78,231678.76,,28,bright
screen,html.Screen,2_3_1_0_1_29,2022-05-02T09:46:47.169Z,,,,,,,,,,,,,,,,,2,,,,,,,,,,,,,,393.2399999999907,,response,,,,1,E,,,,,,Space,keypress(Space),,,,silence,,,,--- ---- ------ --- ------- ---------- ------- ----------<br>--- --------- --- ----------- ------- ----- ------- ---<br>--------- ---- -- --- ---- -- --------- -- ---- -------<br>-- --------- ------ and ----- ------ ---- --- --------- --<br>------ - ---- -- --- ----------- ------- ---- ----- -----<br>--- -------- - ------ ---- -- ----- ---- --- --- -----------<br>-- -------,232087,232072,231678.6,231678,231678.76,232087.72,,29,and
screen,html.Screen,2_3_1_0_1_30,2022-05-02T09:46:47.505Z,,,,,,,,,,,,,,,,,2,,,,,,,,,,,,,,328.27999999999884,,response,,,,1,E,,,,,,Space,keypress(Space),,,,silence,,,,--- ---- ------ --- ------- ---------- ------- ----------<br>--- --------- --- ----------- ------- ----- ------- ---<br>--------- ---- -- --- ---- -- --------- -- ---- -------<br>-- --------- ------ --- white ------ ---- --- --------- --<br>------ - ---- -- --- ----------- ------- ---- ----- -----<br>--- -------- - ------ ---- -- ----- ---- --- --- -----------<br>-- -------,232423,232416,232087.44,232088,232087.72,232423.84,,30,white
screen,html.Screen,2_3_1_0_1_31,2022-05-02T09:46:47.793Z,,,,,,,,,,,,,,,,,2,,,,,,,,,,,,,,272.1600000000035,,response,,,,1,E,,,,,,Space,keypress(Space),,,,silence,,,,"--- ---- ------ --- ------- ---------- ------- ----------<br>--- --------- --- ----------- ------- ----- ------- ---<br>--------- ---- -- --- ---- -- --------- -- ---- -------<br>-- --------- ------ --- ----- light"" ---- --- --------- --<br>------ - ---- -- --- ----------- ------- ---- ----- -----<br>--- -------- - ------ ---- -- ----- ---- --- --- -----------<br>-- -------",232711,232696,232423.58,232424,232423.84,232711.6,,31,"light"""
screen,html.Screen,2_3_1_0_1_32,2022-05-02T09:46:48.105Z,,,,,,,,,,,,,,,,,2,,,,,,,,,,,,,,297.3999999999942,,response,,,,1,E,,,,,,Space,keypress(Space),,,,silence,,,,--- ---- ------ --- ------- ---------- ------- ----------<br>--- --------- --- ----------- ------- ----- ------- ---<br>--------- ---- -- --- ---- -- --------- -- ---- -------<br>-- --------- ------ --- ----- ------ over --- --------- --<br>------ - ---- -- --- ----------- ------- ---- ----- -----<br>--- -------- - ------ ---- -- ----- ---- --- --- -----------<br>-- -------,233023,233009,232711.26,232711,232711.6,233023.88,,32,over
screen,html.Screen,2_3_1_0_1_33,2022-05-02T09:46:48.505Z,,,,,,,,,,,,,,,,,2,,,,,,,,,,,,,,392.11999999999534,,response,,,,1,E,,,,,,Space,keypress(Space),,,,silence,,,,--- ---- ------ --- ------- ---------- ------- ----------<br>--- --------- --- ----------- ------- ----- ------- ---<br>--------- ---- -- --- ---- -- --------- -- ---- -------<br>-- --------- ------ --- ----- ------ ---- the --------- --<br>------ - ---- -- --- ----------- ------- ---- ----- -----<br>--- -------- - ------ ---- -- ----- ---- --- --- -----------<br>-- -------,233423,233416,233023.62,233023,233023.88,233423.86,,33,the
screen,html.Screen,2_3_1_0_1_34,2022-05-02T09:46:48.872Z,,,,,,,,,,,,,,,,,2,,,,,,,,,,,,,,350.14000000001397,,response,,,,1,E,,,,,,Space,keypress(Space),,,,silence,,,,--- ---- ------ --- ------- ---------- ------- ----------<br>--- --------- --- ----------- ------- ----- ------- ---<br>--------- ---- -- --- ---- -- --------- -- ---- -------<br>-- --------- ------ --- ----- ------ ---- --- sunspots. --<br>------ - ---- -- --- ----------- ------- ---- ----- -----<br>--- -------- - ------ ---- -- ----- ---- --- --- -----------<br>-- -------,233790,233774,233423.6,233424,233423.86,233790.32,,34,sunspots.
screen,html.Screen,2_3_1_0_1_35,2022-05-02T09:46:49.249Z,,,,,,,,,,,,,,,,,2,,,,,,,,,,,,,,374.679999999993,,response,,,,1,E,,,,,,Space,keypress(Space),,,,silence,,,,--- ---- ------ --- ------- ---------- ------- ----------<br>--- --------- --- ----------- ------- ----- ------- ---<br>--------- ---- -- --- ---- -- --------- -- ---- -------<br>-- --------- ------ --- ----- ------ ---- --- --------- He<br>------ - ---- -- --- ----------- ------- ---- ----- -----<br>--- -------- - ------ ---- -- ----- ---- --- --- -----------<br>-- -------,234167,234165,233790.16,233790,233790.32,234167.86,,35,He
screen,html.Screen,2_3_1_0_1_36,2022-05-02T09:46:49.713Z,,,,,,,,,,,,,,,,,2,,,,,,,,,,,,,,451.14000000001397,,response,,,,1,E,,,,,,Space,keypress(Space),,,,silence,,,,--- ---- ------ --- ------- ---------- ------- ----------<br>--- --------- --- ----------- ------- ----- ------- ---<br>--------- ---- -- --- ---- -- --------- -- ---- -------<br>-- --------- ------ --- ----- ------ ---- --- --------- --<br>jotted - ---- -- --- ----------- ------- ---- ----- -----<br>--- -------- - ------ ---- -- ----- ---- --- --- -----------<br>-- -------,234631,234619,234167.58,234167,234167.86,234631.78,,36,jotted
screen,html.Screen,2_3_1_0_1_37,2022-05-02T09:46:50.073Z,,,,,,,,,,,,,,,,,2,,,,,,,,,,,,,,346.22000000000116,,response,,,,1,E,,,,,,Space,keypress(Space),,,,silence,,,,--- ---- ------ --- ------- ---------- ------- ----------<br>--- --------- --- ----------- ------- ----- ------- ---<br>--------- ---- -- --- ---- -- --------- -- ---- -------<br>-- --------- ------ --- ----- ------ ---- --- --------- --<br>------ a ---- -- --- ----------- ------- ---- ----- -----<br>--- -------- - ------ ---- -- ----- ---- --- --- -----------<br>-- -------,234991,234978,234631.58,234631,234631.78,234993.72,,37,a
screen,html.Screen,2_3_1_0_1_38,2022-05-02T09:46:50.433Z,,,,,,,,,,,,,,,,,2,,,,,,,,,,,,,,343.27999999999884,,response,,,,1,E,,,,,,Space,keypress(Space),,,,silence,,,,--- ---- ------ --- ------- ---------- ------- ----------<br>--- --------- --- ----------- ------- ----- ------- ---<br>--------- ---- -- --- ---- -- --------- -- ---- -------<br>-- --------- ------ --- ----- ------ ---- --- --------- --<br>------ - note -- --- ----------- ------- ---- ----- -----<br>--- -------- - ------ ---- -- ----- ---- --- --- -----------<br>-- -------,235352,235337,234991.64,234991,234993.72,235351.72,,38,note
screen,html.Screen,2_3_1_0_1_39,2022-05-02T09:46:50.746Z,,,,,,,,,,,,,,,,,2,,,,,,,,,,,,,,297.27999999999884,,response,,,,1,E,,,,,,Space,keypress(Space),,,,silence,,,,--- ---- ------ --- ------- ---------- ------- ----------<br>--- --------- --- ----------- ------- ----- ------- ---<br>--------- ---- -- --- ---- -- --------- -- ---- -------<br>-- --------- ------ --- ----- ------ ---- --- --------- --<br>------ - ---- in --- ----------- ------- ---- ----- -----<br>--- -------- - ------ ---- -- ----- ---- --- --- -----------<br>-- -------,235664,235649,235351.44,235352,235351.72,235666.22,,39,in
screen,html.Screen,2_3_1_0_1_40,2022-05-02T09:46:51.082Z,,,,,,,,,,,,,,,,,2,,,,,,,,,,,,,,327.77999999999884,,response,,,,1,E,,,,,,Space,keypress(Space),,,,silence,,,,--- ---- ------ --- ------- ---------- ------- ----------<br>--- --------- --- ----------- ------- ----- ------- ---<br>--------- ---- -- --- ---- -- --------- -- ---- -------<br>-- --------- ------ --- ----- ------ ---- --- --------- --<br>------ - ---- -- his ----------- ------- ---- ----- -----<br>--- -------- - ------ ---- -- ----- ---- --- --- -----------<br>-- -------,236000,235994,235666.04,235666,235666.22,236000.94,,40,his
screen,html.Screen,2_3_1_0_1_41,2022-05-02T09:46:51.666Z,,,,,,,,,,,,,,,,,2,,,,,,,,,,,,,,571.0599999999977,,response,,,,1,E,,,,,,Space,keypress(Space),,,,silence,,,,--- ---- ------ --- ------- ---------- ------- ----------<br>--- --------- --- ----------- ------- ----- ------- ---<br>--------- ---- -- --- ---- -- --------- -- ---- -------<br>-- --------- ------ --- ----- ------ ---- --- --------- --<br>------ - ---- -- --- painstaking ------- ---- ----- -----<br>--- -------- - ------ ---- -- ----- ---- --- --- -----------<br>-- -------,236584,236572,236000.7,236001,236000.94,236584.62,,41,painstaking
screen,html.Screen,2_3_1_0_1_42,2022-05-02T09:46:52.064Z,,,,,,,,,,,,,,,,,2,,,,,,,,,,,,,,393.38000000000466,,response,,,,1,E,,,,,,Space,keypress(Space),,,,silence,,,,--- ---- ------ --- ------- ---------- ------- ----------<br>--- --------- --- ----------- ------- ----- ------- ---<br>--------- ---- -- --- ---- -- --------- -- ---- -------<br>-- --------- ------ --- ----- ------ ---- --- --------- --<br>------ - ---- -- --- ----------- record. ---- ----- -----<br>--- -------- - ------ ---- -- ----- ---- --- --- -----------<br>-- -------,236982,236978,236584.24,236584,236584.62,236982.94,,42,record.
screen,html.Screen,2_3_1_0_1_43,2022-05-02T09:46:52.505Z,,,,,,,,,,,,,,,,,2,,,,,,,,,,,,,,433.0599999999977,,response,,,,1,E,,,,,,Space,keypress(Space),,,,silence,,,,--- ---- ------ --- ------- ---------- ------- ----------<br>--- --------- --- ----------- ------- ----- ------- ---<br>--------- ---- -- --- ---- -- --------- -- ---- -------<br>-- --------- ------ --- ----- ------ ---- --- --------- --<br>------ - ---- -- --- ----------- ------- That ----- -----<br>--- -------- - ------ ---- -- ----- ---- --- --- -----------<br>-- -------,237424,237416,236982.8,236983,236982.94,237424.52,,43,That
screen,html.Screen,2_3_1_0_1_44,2022-05-02T09:46:52.898Z,,,,,,,,,,,,,,,,,2,,,,,,,,,,,,,,380.4800000000105,,response,,,,1,E,,,,,,Space,keypress(Space),,,,silence,,,,--- ---- ------ --- ------- ---------- ------- ----------<br>--- --------- --- ----------- ------- ----- ------- ---<br>--------- ---- -- --- ---- -- --------- -- ---- -------<br>-- --------- ------ --- ----- ------ ---- --- --------- --<br>------ - ---- -- --- ----------- ------- ---- night -----<br>--- -------- - ------ ---- -- ----- ---- --- --- -----------<br>-- -------,237815,237805,237424.3,237425,237424.52,237816.38,,44,night
screen,html.Screen,2_3_1_0_1_45,2022-05-02T09:46:53.297Z,,,,,,,,,,,,,,,,,2,,,,,,,,,,,,,,395.61999999999534,,response,,,,1,E,,,,,,Space,keypress(Space),,,,silence,,,,--- ---- ------ --- ------- ---------- ------- ----------<br>--- --------- --- ----------- ------- ----- ------- ---<br>--------- ---- -- --- ---- -- --------- -- ---- -------<br>-- --------- ------ --- ----- ------ ---- --- --------- --<br>------ - ---- -- --- ----------- ------- ---- ----- there<br>--- -------- - ------ ---- -- ----- ---- --- --- -----------<br>-- -------,238215,238212,237816.12,237816,237816.38,238216.18,,45,there
screen,html.Screen,2_3_1_0_1_46,2022-05-02T09:46:53.617Z,,,,,,,,,,,,,,,,,2,,,,,,,,,,,,,,307.820000000007,,response,,,,1,E,,,,,,Space,keypress(Space),,,,silence,,,,--- ---- ------ --- ------- ---------- ------- ----------<br>--- --------- --- ----------- ------- ----- ------- ---<br>--------- ---- -- --- ---- -- --------- -- ---- -------<br>-- --------- ------ --- ----- ------ ---- --- --------- --<br>------ - ---- -- --- ----------- ------- ---- ----- -----<br>was -------- - ------ ---- -- ----- ---- --- --- -----------<br>-- -------,238535,238524,238215.94,238216,238216.18,238536.28,,46,was
screen,html.Screen,2_3_1_0_1_47,2022-05-02T09:46:53.898Z,,,,,,,,,,,,,,,,,2,,,,,,,,,,,,,,269.72000000000116,,response,,,,1,E,,,,,,Space,keypress(Space),,,,silence,,,,--- ---- ------ --- ------- ---------- ------- ----------<br>--- --------- --- ----------- ------- ----- ------- ---<br>--------- ---- -- --- ---- -- --------- -- ---- -------<br>-- --------- ------ --- ----- ------ ---- --- --------- --<br>------ - ---- -- --- ----------- ------- ---- ----- -----<br>--- scarcely - ------ ---- -- ----- ---- --- --- -----------<br>-- -------,238815,238806,238536.02,238536,238536.28,238816.16,,47,scarcely
screen,html.Screen,2_3_1_0_1_48,2022-05-02T09:46:54.242Z,,,,,,,,,,,,,,,,,2,,,,,,,,,,,,,,332.8399999999965,,response,,,,1,E,,,,,,Space,keypress(Space),,,,silence,,,,--- ---- ------ --- ------- ---------- ------- ----------<br>--- --------- --- ----------- ------- ----- ------- ---<br>--------- ---- -- --- ---- -- --------- -- ---- -------<br>-- --------- ------ --- ----- ------ ---- --- --------- --<br>------ - ---- -- --- ----------- ------- ---- ----- -----<br>--- -------- a ------ ---- -- ----- ---- --- --- -----------<br>-- -------,239160,239149,238815.92,238816,238816.16,239160.46,,48,a
