sender,sender_type,sender_id,timestamp,meta,,Blues,Classical,Country,Dance,Electronic,Folk,Gospel,Hip-Hop,Jazz,Latin,Musical/Film,New-age,Pop,Prolific_id,Provo_ID,R&B,Rap,Reggae,Religious,Rock,Soul,Swing,Traditional,age,artist_name,correct,correctResponse,distraction,duration,education,ended_on,familiarity,gender,headphone_check_performance,item,list,music_frequency,offensiveness,pleasantness,position_correct,preference,response,response_action,snippet_file,song_name,song_rating,sound,stimulus_1,stimulus_2,stimulus_3,text,time_commit,time_end,time_render,time_run,time_show,time_switch,url,word,word_ID
Prolific ID,html.Form,0,2022-05-03T11:22:19.370Z,"{""labjs_version"":""20.2.2"",""labjs_build"":{""flavor"":""production"",""commit"":""a25486e0c714a0ae2ce03ff94b7bb6896854dcfa""},""location"":""https://run.pavlovia.org/mvasilev/prolific3_music_h/"",""userAgent"":""Mozilla/5.0 (X11; CrOS x86_64 14526.89.0) AppleWebKit/537.36 (KHTML, like Gecko) Chrome/100.0.4896.133 Safari/537.36"",""platform"":""Linux x86_64"",""language"":""en-GB"",""locale"":""en-GB"",""timeZone"":""Europe/London"",""timezoneOffset"":-60,""screen_width"":1366,""screen_height"":768,""scroll_width"":1366,""scroll_height"":601,""window_innerWidth"":1366,""window_innerHeight"":649,""devicePixelRatio"":1}",,,,,,,,,,,,,,,5f57c77fc54e382d46b65cfa,,,,,,,,,,,,,,,89996.74,,form submission,,,,,,,,,,,,,,,,,,,,,105023.09999999963,105022.5,14992.432,15004.199999999255,15025.76,105033.191,{},,
Introduction,html.Screen,1_0,2022-05-03T11:22:48.499Z,,,,,,,,,,,,,,,,,,,,,,,,,,,,,,,29115.308999999994,,response,,,,,,,,,,,continue,click button,,,,,,,,,134152.5,134148.5,105016.527,105023.5,105033.191,134163.488,,,
Volume calibration,html.Screen,1_1,2022-05-03T11:22:52.483Z,,,,,,,,,,,,,,,,,,,,,,,,,,,,,,,3966.711999999243,,response,,,,,,,,,,,continue,click button,,,,,,,,,138136.09999999963,138130.19999999925,134146.824,134152.69999999925,134163.488,138146.42,,,
Task instructions,html.Screen,1_2,2022-05-03T11:22:53.535Z,,,,,,,,,,,,,,,,,,,,,,,,,,,,,,,1040.8800000007323,,response,,,,,,,,,,,continue,click button,,,,,,,,,139188.69999999925,139187.30000000075,138129.756,138136.30000000075,138146.42,139196.256,,,
Sounds,html.Screen,1_3_0_0,2022-05-03T11:22:57.779Z,,,,,,,,,,,,,,,,,,,,,,,,,,,,,,,4249.619999999995,,timeout,,,,,,,,,1,,,,,,,,S,O,I,,143432.5,143429.212,139179.592,139189,139196.256,143445.876,,,
Judgement,html.Screen,1_3_0_1,2022-05-03T11:22:59.250Z,,,,,,,,,,,,,,,,,,,,,,,,,,,,true,1,,1455.5240000003832,,response,,,,,,,,,1,,1,click #choice-1,,,,,S,O,I,,144903.40000000037,144901.40000000037,143429.212,143432.59999999963,143445.876,144912.39,,,
Trial,flow.Sequence,1_3_0,2022-05-03T11:22:59.250Z,,,,,,,,,,,,,,,,,,,,,,,,,,,,,,,5705.144000000379,,completion,,,,,,,,,1,,,,,,,,S,O,I,,144903.80000000075,144901.40000000037,139179.592,139189,139196.256,144912.39,,,
Sounds,html.Screen,1_3_1_0,2022-05-03T11:23:03.493Z,,,,,,,,,,,,,,,,,,,,,,,,,,,,,,,4249.553999999975,,timeout,,,,,,,,,3,,,,,,,,I,O,S,,149146.5,149145.28,144895.726,144904.09999999963,144912.39,149161.944,,,
Judgement,html.Screen,1_3_1_1,2022-05-03T11:23:04.412Z,,,,,,,,,,,,,,,,,,,,,,,,,,,,true,3,,901.5560000000114,,response,,,,,,,,,3,,3,click #choice-3,,,,,I,O,S,,150065.40000000037,150063.5,149145.28,149146.69999999925,149161.944,150078.507,,,
Trial,flow.Sequence,1_3_1,2022-05-03T11:23:04.412Z,,,,,,,,,,,,,,,,,,,,,,,,,,,,,,,5151.109999999986,,completion,,,,,,,,,3,,,,,,,,I,O,S,,150065.69999999925,150063.5,144895.726,144903.80000000075,144912.39,150078.507,,,
Sounds,html.Screen,1_3_2_0,2022-05-03T11:23:08.659Z,,,,,,,,,,,,,,,,,,,,,,,,,,,,,,,4249.576000000001,,timeout,,,,,,,,,1,,,,,,,,S,I,O,,154312.69999999925,154311.415,150061.843,150065.80000000075,150078.507,154328.083,,,
Judgement,html.Screen,1_3_2_1,2022-05-03T11:23:09.216Z,,,,,,,,,,,,,,,,,,,,,,,,,,,,true,1,,539.4169999999867,,response,,,,,,,,,1,,1,click #choice-1,,,,,S,I,O,,154869.59999999963,154867.5,154311.415,154312.90000000037,154328.083,154894.681,,,
Trial,flow.Sequence,1_3_2,2022-05-03T11:23:09.216Z,,,,,,,,,,,,,,,,,,,,,,,,,,,,,,,4788.992999999988,,completion,,,,,,,,,1,,,,,,,,S,I,O,,154869.90000000037,154867.5,150061.843,150065.69999999925,150078.507,154894.681,,,
Sounds,html.Screen,1_3_3_0,2022-05-03T11:23:13.474Z,,,,,,,,,,,,,,,,,,,,,,,,,,,,,,,4249.3429999999935,,timeout,,,,,,,,,2,,,,,,,,O,S,I,,159128,159127.36,154878.017,154870.09999999963,154894.681,159144.024,,,
Judgement,html.Screen,1_3_3_1,2022-05-03T11:23:13.994Z,,,,,,,,,,,,,,,,,,,,,,,,,,,,true,2,,501.4759999999951,,response,,,,,,,,,2,,2,click #choice-2,,,,,O,S,I,,159647.19999999925,159645.5,159127.36,159128.19999999925,159144.024,159660.866,,,
Trial,flow.Sequence,1_3_3,2022-05-03T11:23:13.994Z,,,,,,,,,,,,,,,,,,,,,,,,,,,,,,,4750.818999999989,,completion,,,,,,,,,2,,,,,,,,O,S,I,,159647.40000000037,159645.5,154878.017,154870,154894.681,159660.866,,,
Sounds,html.Screen,1_3_4_0,2022-05-03T11:23:18.242Z,,,,,,,,,,,,,,,,,,,,,,,,,,,,,,,4249.548999999999,,timeout,,,,,,,,,3,,,,,,,,O,I,S,,163895.19999999925,163893.758,159644.202,159647.59999999963,159660.866,163910.415,,,
Judgement,html.Screen,1_3_4_1,2022-05-03T11:23:18.702Z,,,,,,,,,,,,,,,,,,,,,,,,,,,,true,3,,443.7849999992468,,response,,,,,,,,,3,,3,click #choice-3,,,,,O,I,S,,164355.80000000075,164354.19999999925,163893.758,163895.40000000037,163910.415,164360.38,,,
Trial,flow.Sequence,1_3_4,2022-05-03T11:23:18.702Z,,,,,,,,,,,,,,,,,,,,,,,,,,,,,,,4693.333999999246,,completion,,,,,,,,,3,,,,,,,,O,I,S,,164356,164354.19999999925,159644.202,159647.5,159660.866,164360.38,,,
Sounds,html.Screen,1_3_5_0,2022-05-03T11:23:22.941Z,,,,,,,,,,,,,,,,,,,,,,,,,,,,,,,4249.549999999988,,timeout,,,,,,,,,2,,,,,,,,I,S,O,,168594.59999999963,168593.275,164343.716,164356.09999999963,164360.38,168609.93,,,
Judgement,html.Screen,1_3_5_1,2022-05-03T11:23:23.426Z,,,,,,,,,,,,,,,,,,,,,,,,,,,,true,2,,467.37000000075204,,response,,,,,,,,,2,,2,click #choice-2,,,,,I,S,O,,169079.19999999925,169077.30000000075,168593.275,168594.69999999925,168609.93,169093.235,,,
Trial,flow.Sequence,1_3_5,2022-05-03T11:23:23.426Z,,,,,,,,,,,,,,,,,,,,,,,,,,,,,,,4716.92000000074,,completion,,,,,,,,,2,,,,,,,,I,S,O,,169079.59999999963,169077.30000000075,164343.716,164356.09999999963,164360.38,169093.235,,,
Task,flow.Loop,1_3,2022-05-03T11:23:23.433Z,,,,,,,,,,,,,,,,,,,,,,,,,,,,,,,29881.04400000075,,completion,,,1,,,,,,,,,,,,,,,,,,169086.40000000037,169077.30000000075,139179.592,139188.90000000037,139196.256,169093.235,,,
Trap,html.Screen,1_4,2022-05-03T11:23:23.434Z,,,,,,,,,,,,,,,,,,,,,,,,,,,,,,,NaN,,skipped,,,,,,,,,,,,,,,,,,,,,169087.80000000075,169077.30000000075,,169087.69999999925,,169093.235,,,
Thanks,html.Screen,1_5,2022-05-03T11:23:25.570Z,,,,,,,,,,,,,,,,,,,,,,,,,,,,,,,2127.964999999269,,response,,,,,,,,,,,continue,click button,,,,,,,,,171223,171221.19999999925,169076.571,169087.90000000037,169093.235,173759.384,,,
Headphone screening,flow.Sequence,1,2022-05-03T11:23:25.570Z,,,,,,,,,,,,,,,,,,,,,,,,,,,,,,,66188.00899999925,,completion,,,,,,,,,,,,,,,,,,,,,171223.40000000037,171221.19999999925,105016.527,105023.40000000037,105033.191,173759.384,,,
Instructions,html.Page,2_0,2022-05-03T11:23:40.611Z,,,,,,,,,,,,,,,,,,,,,,,,,,,,,,,12504.616000000009,,form submission,,,,,,,,,,,,,,,,,,,,,186264.30000000075,186264,173742.72,173759.59999999963,173759.384,186291.442,,,
Holding screen,html.Screen,2_1_0_0,2022-05-03T11:23:50.628Z,,,,,,,,,,,,,,,,,,,,,,,,,,,,,,,9998.904999999999,,timeout,,,,,,,,,,,,,,,,,,,,,196281.69999999925,196273.683,186274.779,186264.69999999925,186291.442,196290.347,,,
screen,html.Screen,2_1_0_1_0,2022-05-03T11:23:51.608Z,,,,,,,,,,,,,,,,,53,,,,,,,,,,,,,,965.9530000007362,,response,,,,99,,,,,,,Space,keypress(Space),,,,,,,,When -- ----- -- ------ - ------- --- ----------<br>------------- ------ ------ ---- ---- ------- ----- -- ----<br>-------- ------- -- ---------- --- - --- ----- ----- ----<br>---- --- --- ----- --- ---- ---- ------- ----- ---- -------<br>--- --- -- ----- -- --- ---- -- --- ---- -- ------ ------<br>--- ----- -- ----,197261.5,197256.30000000075,196273.683,196281.90000000037,196290.347,197273.579,,0,When
screen,html.Screen,2_1_0_1_1,2022-05-03T11:23:51.962Z,,,,,,,,,,,,,,,,,53,,,,,,,,,,,,,,339.9210000000021,,response,,,,99,,,,,,,Space,keypress(Space),,,,,,,,---- it ----- -- ------ - ------- --- ----------<br>------------- ------ ------ ---- ---- ------- ----- -- ----<br>-------- ------- -- ---------- --- - --- ----- ----- ----<br>---- --- --- ----- --- ---- ---- ------- ----- ---- -------<br>--- --- -- ----- -- --- ---- -- --- ---- -- ------ ------<br>--- ----- -- ----,197615.40000000037,197613.5,197256.915,197261.69999999925,197273.579,197623.574,,1,it
screen,html.Screen,2_1_0_1_2,2022-05-03T11:23:52.171Z,,,,,,,,,,,,,,,,,53,,,,,,,,,,,,,,198.52599999963422,,response,,,,99,,,,,,,Space,keypress(Space),,,,,,,,---- -- comes -- ------ - ------- --- ----------<br>------------- ------ ------ ---- ---- ------- ----- -- ----<br>-------- ------- -- ---------- --- - --- ----- ----- ----<br>---- --- --- ----- --- ---- ---- ------- ----- ---- -------<br>--- --- -- ----- -- --- ---- -- --- ---- -- ------ ------<br>--- ----- -- ----,197824.30000000075,197822.09999999963,197606.91,197615.59999999963,197623.574,197840.238,,2,comes
screen,html.Screen,2_1_0_1_3,2022-05-03T11:23:52.483Z,,,,,,,,,,,,,,,,,53,,,,,,,,,,,,,,293.96199999924283,,response,,,,99,,,,,,,Space,keypress(Space),,,,,,,,---- -- ----- to ------ - ------- --- ----------<br>------------- ------ ------ ---- ---- ------- ----- -- ----<br>-------- ------- -- ---------- --- - --- ----- ----- ----<br>---- --- --- ----- --- ---- ---- ------- ----- ---- -------<br>--- --- -- ----- -- --- ---- -- --- ---- -- ------ ------<br>--- ----- -- ----,198136.09999999963,198134.19999999925,197823.574,197824.40000000037,197840.238,198140.202,,3,to
screen,html.Screen,2_1_0_1_4,2022-05-03T11:23:52.767Z,,,,,,,,,,,,,,,,,53,,,,,,,,,,,,,,278.59800000075484,,response,,,,99,,,,,,,Space,keypress(Space),,,,,,,,---- -- ----- -- having - ------- --- ----------<br>------------- ------ ------ ---- ---- ------- ----- -- ----<br>-------- ------- -- ---------- --- - --- ----- ----- ----<br>---- --- --- ----- --- ---- ---- ------- ----- ---- -------<br>--- --- -- ----- -- --- ---- -- --- ---- -- ------ ------<br>--- ----- -- ----,198420.80000000075,198418.80000000075,198123.538,198136.19999999925,198140.202,198423.512,,4,having
screen,html.Screen,2_1_0_1_5,2022-05-03T11:23:53.017Z,,,,,,,,,,,,,,,,,53,,,,,,,,,,,,,,244.68799999926705,,response,,,,99,,,,,,,Space,keypress(Space),,,,,,,,---- -- ----- -- ------ a ------- --- ----------<br>------------- ------ ------ ---- ---- ------- ----- -- ----<br>-------- ------- -- ---------- --- - --- ----- ----- ----<br>---- --- --- ----- --- ---- ---- ------- ----- ---- -------<br>--- --- -- ----- -- --- ---- -- --- ---- -- ------ ------<br>--- ----- -- ----,198670.19999999925,198668.19999999925,198406.848,198420.90000000037,198423.512,198673.479,,5,a
screen,html.Screen,2_1_0_1_6,2022-05-03T11:23:53.364Z,,,,,,,,,,,,,,,,,53,,,,,,,,,,,,,,342.821000000753,,response,,,,99,,,,,,,Space,keypress(Space),,,,,,,,---- -- ----- -- ------ - lasting --- ----------<br>------------- ------ ------ ---- ---- ------- ----- -- ----<br>-------- ------- -- ---------- --- - --- ----- ----- ----<br>---- --- --- ----- --- ---- ---- ------- ----- ---- -------<br>--- --- -- ----- -- --- ---- -- --- ---- -- ------ ------<br>--- ----- -- ----,199018,199016.30000000075,198656.815,198670.30000000075,198673.479,199023.439,,6,lasting
screen,html.Screen,2_1_0_1_7,2022-05-03T11:23:53.715Z,,,,,,,,,,,,,,,,,53,,,,,,,,,,,,,,342.861000000732,,response,,,,99,,,,,,,Space,keypress(Space),,,,,,,,---- -- ----- -- ------ - ------- and ----------<br>------------- ------ ------ ---- ---- ------- ----- -- ----<br>-------- ------- -- ---------- --- - --- ----- ----- ----<br>---- --- --- ----- --- ---- ---- ------- ----- ---- -------<br>--- --- -- ----- -- --- ---- -- --- ---- -- ------ ------<br>--- ----- -- ----,199368.19999999925,199366.30000000075,199006.775,199018.19999999925,199023.439,199373.406,,7,and
screen,html.Screen,2_1_0_1_8,2022-05-03T11:23:53.970Z,,,,,,,,,,,,,,,,,53,,,,,,,,,,,,,,247.89400000075693,,response,,,,99,,,,,,,Space,keypress(Space),,,,,,,,---- -- ----- -- ------ - ------- --- fulfilling<br>------------- ------ ------ ---- ---- ------- ----- -- ----<br>-------- ------- -- ---------- --- - --- ----- ----- ----<br>---- --- --- ----- --- ---- ---- ------- ----- ---- -------<br>--- --- -- ----- -- --- ---- -- --- ---- -- ------ ------<br>--- ----- -- ----,199623.40000000037,199621.30000000075,199356.742,199368.30000000075,199373.406,199640.042,,8,fulfilling
screen,html.Screen,2_1_0_1_9,2022-05-03T11:23:54.330Z,,,,,,,,,,,,,,,,,53,,,,,,,,,,,,,,342.3580000003858,,response,,,,99,,,,,,,Space,keypress(Space),,,,,,,,"---- -- ----- -- ------ - ------- --- ----------<br>relationship, ------ ------ ---- ---- ------- ----- -- ----<br>-------- ------- -- ---------- --- - --- ----- ----- ----<br>---- --- --- ----- --- ---- ---- ------- ----- ---- -------<br>--- --- -- ----- -- --- ---- -- --- ---- -- ------ ------<br>--- ----- -- ----",199983.90000000037,199982.40000000037,199623.378,199623.5,199640.042,199990.012,,9,"relationship,"
screen,html.Screen,2_1_0_1_10,2022-05-03T11:23:54.673Z,,,,,,,,,,,,,,,,,53,,,,,,,,,,,,,,334.4880000000121,,response,,,,99,,,,,,,Space,keypress(Space),,,,,,,,---- -- ----- -- ------ - ------- --- ----------<br>------------- common ------ ---- ---- ------- ----- -- ----<br>-------- ------- -- ---------- --- - --- ----- ----- ----<br>---- --- --- ----- --- ---- ---- ------- ----- ---- -------<br>--- --- -- ----- -- --- ---- -- --- ---- -- ------ ------<br>--- ----- -- ----,200326.19999999925,200324.5,199973.348,199984.09999999963,199990.012,200339.972,,10,common
screen,html.Screen,2_1_0_1_11,2022-05-03T11:23:54.971Z,,,,,,,,,,,,,,,,,53,,,,,,,,,,,,,,282.8280000007362,,response,,,,99,,,,,,,Space,keypress(Space),,,,,,,,---- -- ----- -- ------ - ------- --- ----------<br>------------- ------ wisdom ---- ---- ------- ----- -- ----<br>-------- ------- -- ---------- --- - --- ----- ----- ----<br>---- --- --- ----- --- ---- ---- ------- ----- ---- -------<br>--- --- -- ----- -- --- ---- -- --- ---- -- ------ ------<br>--- ----- -- ----,200624.80000000075,200622.80000000075,200323.308,200326.40000000037,200339.972,200639.936,,11,wisdom
screen,html.Screen,2_1_0_1_12,2022-05-03T11:23:55.261Z,,,,,,,,,,,,,,,,,53,,,,,,,,,,,,,,272.96400000038557,,response,,,,99,,,,,,,Space,keypress(Space),,,,,,,,---- -- ----- -- ------ - ------- --- ----------<br>------------- ------ ------ says ---- ------- ----- -- ----<br>-------- ------- -- ---------- --- - --- ----- ----- ----<br>---- --- --- ----- --- ---- ---- ------- ----- ---- -------<br>--- --- -- ----- -- --- ---- -- --- ---- -- ------ ------<br>--- ----- -- ----,200914.80000000075,200912.90000000037,200623.272,200625,200639.936,200923.239,,12,says
screen,html.Screen,2_1_0_1_13,2022-05-03T11:23:55.537Z,,,,,,,,,,,,,,,,,53,,,,,,,,,,,,,,265.56100000074366,,response,,,,99,,,,,,,Space,keypress(Space),,,,,,,,---- -- ----- -- ------ - ------- --- ----------<br>------------- ------ ------ ---- that ------- ----- -- ----<br>-------- ------- -- ---------- --- - --- ----- ----- ----<br>---- --- --- ----- --- ---- ---- ------- ----- ---- -------<br>--- --- -- ----- -- --- ---- -- --- ---- -- ------ ------<br>--- ----- -- ----,201190.90000000037,201188.80000000075,200906.575,200914.90000000037,200923.239,201206.552,,13,that
screen,html.Screen,2_1_0_1_14,2022-05-03T11:23:55.850Z,,,,,,,,,,,,,,,,,53,,,,,,,,,,,,,,295.04799999963143,,response,,,,99,,,,,,,Space,keypress(Space),,,,,,,,---- -- ----- -- ------ - ------- --- ----------<br>------------- ------ ------ ---- ---- feeling ----- -- ----<br>-------- ------- -- ---------- --- - --- ----- ----- ----<br>---- --- --- ----- --- ---- ---- ------- ----- ---- -------<br>--- --- -- ----- -- --- ---- -- --- ---- -- ------ ------<br>--- ----- -- ----,201503.19999999925,201501.59999999963,201189.888,201191.19999999925,201206.552,201506.518,,14,feeling
screen,html.Screen,2_1_0_1_15,2022-05-03T11:23:56.155Z,,,,,,,,,,,,,,,,,53,,,,,,,,,,,,,,299.7820000007341,,response,,,,99,,,,,,,Space,keypress(Space),,,,,,,,---- -- ----- -- ------ - ------- --- ----------<br>------------- ------ ------ ---- ---- ------- close -- ----<br>-------- ------- -- ---------- --- - --- ----- ----- ----<br>---- --- --- ----- --- ---- ---- ------- ----- ---- -------<br>--- --- -- ----- -- --- ---- -- --- ---- -- ------ ------<br>--- ----- -- ----,201808.5,201806.30000000075,201489.854,201503.40000000037,201506.518,201823.149,,15,close
screen,html.Screen,2_1_0_1_16,2022-05-03T11:23:56.434Z,,,,,,,,,,,,,,,,,53,,,,,,,,,,,,,,261.75100000036764,,response,,,,99,,,,,,,Space,keypress(Space),,,,,,,,---- -- ----- -- ------ - ------- --- ----------<br>------------- ------ ------ ---- ---- ------- ----- to ----<br>-------- ------- -- ---------- --- - --- ----- ----- ----<br>---- --- --- ----- --- ---- ---- ------- ----- ---- -------<br>--- --- -- ----- -- --- ---- -- --- ---- -- ------ ------<br>--- ----- -- ----,202087.19999999925,202084.90000000037,201806.485,201808.59999999963,201823.149,202089.794,,16,to
screen,html.Screen,2_1_0_1_17,2022-05-03T11:23:56.749Z,,,,,,,,,,,,,,,,,53,,,,,,,,,,,,,,309.90599999926053,,response,,,,99,,,,,,,Space,keypress(Space),,,,,,,,---- -- ----- -- ------ - ------- --- ----------<br>------------- ------ ------ ---- ---- ------- ----- -- your<br>-------- ------- -- ---------- --- - --- ----- ----- ----<br>---- --- --- ----- --- ---- ---- ------- ----- ---- -------<br>--- --- -- ----- -- --- ---- -- --- ---- -- ------ ------<br>--- ----- -- ----,202402.19999999925,202399.69999999925,202073.13,202087.30000000075,202089.794,202406.42,,17,your
screen,html.Screen,2_1_0_1_18,2022-05-03T11:23:57.057Z,,,,,,,,,,,,,,,,,53,,,,,,,,,,,,,,302.4800000003597,,response,,,,99,,,,,,,Space,keypress(Space),,,,,,,,---- -- ----- -- ------ - ------- --- ----------<br>------------- ------ ------ ---- ---- ------- ----- -- ----<br>romantic ------- -- ---------- --- - --- ----- ----- ----<br>---- --- --- ----- --- ---- ---- ------- ----- ---- -------<br>--- --- -- ----- -- --- ---- -- --- ---- -- ------ ------<br>--- ----- -- ----,202710.59999999963,202708.90000000037,202389.756,202402.40000000037,202406.42,202723.056,,18,romantic
screen,html.Screen,2_1_0_1_19,2022-05-03T11:23:57.370Z,,,,,,,,,,,,,,,,,53,,,,,,,,,,,,,,298.24400000073365,,response,,,,99,,,,,,,Space,keypress(Space),,,,,,,,---- -- ----- -- ------ - ------- --- ----------<br>------------- ------ ------ ---- ---- ------- ----- -- ----<br>-------- partner -- ---------- --- - --- ----- ----- ----<br>---- --- --- ----- --- ---- ---- ------- ----- ---- -------<br>--- --- -- ----- -- --- ---- -- --- ---- -- ------ ------<br>--- ----- -- ----,203023.19999999925,203021.30000000075,202706.392,202710.80000000075,202723.056,203039.683,,19,partner
screen,html.Screen,2_1_0_1_20,2022-05-03T11:23:57.788Z,,,,,,,,,,,,,,,,,53,,,,,,,,,,,,,,399.4169999996375,,response,,,,99,,,,,,,Space,keypress(Space),,,,,,,,---- -- ----- -- ------ - ------- --- ----------<br>------------- ------ ------ ---- ---- ------- ----- -- ----<br>-------- ------- is ---------- --- - --- ----- ----- ----<br>---- --- --- ----- --- ---- ---- ------- ----- ---- -------<br>--- --- -- ----- -- --- ---- -- --- ---- -- ------ ------<br>--- ----- -- ----,203441.19999999925,203439.09999999963,203023.019,203023.30000000075,203039.683,203456.31,,20,is
screen,html.Screen,2_1_0_1_21,2022-05-03T11:23:58.095Z,,,,,,,,,,,,,,,,,53,,,,,,,,,,,,,,290.09000000037486,,response,,,,99,,,,,,,Space,keypress(Space),,,,,,,,---- -- ----- -- ------ - ------- --- ----------<br>------------- ------ ------ ---- ---- ------- ----- -- ----<br>-------- ------- -- paramount. --- - --- ----- ----- ----<br>---- --- --- ----- --- ---- ---- ------- ----- ---- -------<br>--- --- -- ----- -- --- ---- -- --- ---- -- ------ ------<br>--- ----- -- ----,203748.40000000037,203746.40000000037,203439.646,203441.30000000075,203456.31,203756.285,,21,paramount.
screen,html.Screen,2_1_0_1_22,2022-05-03T11:23:58.407Z,,,,,,,,,,,,,,,,,53,,,,,,,,,,,,,,302.91499999925145,,response,,,,99,,,,,,,Space,keypress(Space),,,,,,,,---- -- ----- -- ------ - ------- --- ----------<br>------------- ------ ------ ---- ---- ------- ----- -- ----<br>-------- ------- -- ---------- But - --- ----- ----- ----<br>---- --- --- ----- --- ---- ---- ------- ----- ---- -------<br>--- --- -- ----- -- --- ---- -- --- ---- -- ------ ------<br>--- ----- -- ----,204061,204059.19999999925,203739.621,203748.5,203756.285,204072.921,,22,But
screen,html.Screen,2_1_0_1_23,2022-05-03T11:23:58.674Z,,,,,,,,,,,,,,,,,53,,,,,,,,,,,,,,253.27899999925285,,response,,,,99,,,,,,,Space,keypress(Space),,,,,,,,---- -- ----- -- ------ - ------- --- ----------<br>------------- ------ ------ ---- ---- ------- ----- -- ----<br>-------- ------- -- ---------- --- a --- ----- ----- ----<br>---- --- --- ----- --- ---- ---- ------- ----- ---- -------<br>--- --- -- ----- -- --- ---- -- --- ---- -- ------ ------<br>--- ----- -- ----,204328,204326.19999999925,204056.257,204061.19999999925,204072.921,204339.552,,23,a
screen,html.Screen,2_1_0_1_24,2022-05-03T11:23:58.967Z,,,,,,,,,,,,,,,,,53,,,,,,,,,,,,,,279.04799999963143,,response,,,,99,,,,,,,Space,keypress(Space),,,,,,,,---- -- ----- -- ------ - ------- --- ----------<br>------------- ------ ------ ---- ---- ------- ----- -- ----<br>-------- ------- -- ---------- --- - new ----- ----- ----<br>---- --- --- ----- --- ---- ---- ------- ----- ---- -------<br>--- --- -- ----- -- --- ---- -- --- ---- -- ------ ------<br>--- ----- -- ----,204620.40000000037,204618.59999999963,204322.888,204328.19999999925,204339.552,204622.87,,24,new
screen,html.Screen,2_1_0_1_25,2022-05-03T11:23:59.219Z,,,,,,,,,,,,,,,,,53,,,,,,,,,,,,,,248.03000000037719,,response,,,,99,,,,,,,Space,keypress(Space),,,,,,,,---- -- ----- -- ------ - ------- --- ----------<br>------------- ------ ------ ---- ---- ------- ----- -- ----<br>-------- ------- -- ---------- --- - --- study ----- ----<br>---- --- --- ----- --- ---- ---- ------- ----- ---- -------<br>--- --- -- ----- -- --- ---- -- --- ---- -- ------ ------<br>--- ----- -- ----,204872.69999999925,204870.90000000037,204606.206,204620.5,204622.87,204889.501,,25,study
screen,html.Screen,2_1_0_1_26,2022-05-03T11:23:59.476Z,,,,,,,,,,,,,,,,,53,,,,,,,,,,,,,,237.59899999963818,,response,,,,99,,,,,,,Space,keypress(Space),,,,,,,,---- -- ----- -- ------ - ------- --- ----------<br>------------- ------ ------ ---- ---- ------- ----- -- ----<br>-------- ------- -- ---------- --- - --- ----- finds ----<br>---- --- --- ----- --- ---- ---- ------- ----- ---- -------<br>--- --- -- ----- -- --- ---- -- --- ---- -- ------ ------<br>--- ----- -- ----,205129.30000000075,205127.09999999963,204872.837,204872.90000000037,204889.501,205139.475,,26,finds
screen,html.Screen,2_1_0_1_27,2022-05-03T11:23:59.753Z,,,,,,,,,,,,,,,,,53,,,,,,,,,,,,,,265.2249999992491,,response,,,,99,,,,,,,Space,keypress(Space),,,,,,,,---- -- ----- -- ------ - ------- --- ----------<br>------------- ------ ------ ---- ---- ------- ----- -- ----<br>-------- ------- -- ---------- --- - --- ----- ----- that<br>---- --- --- ----- --- ---- ---- ------- ----- ---- -------<br>--- --- -- ----- -- --- ---- -- --- ---- -- ------ ------<br>--- ----- -- ----,205406.5,205404.69999999925,205122.811,205129.40000000037,205139.475,205422.775,,27,that
screen,html.Screen,2_1_0_1_28,2022-05-03T11:24:00.019Z,,,,,,,,,,,,,,,,,53,,,,,,,,,,,,,,248.12500000037835,,response,,,,99,,,,,,,Space,keypress(Space),,,,,,,,---- -- ----- -- ------ - ------- --- ----------<br>------------- ------ ------ ---- ---- ------- ----- -- ----<br>-------- ------- -- ---------- --- - --- ----- ----- ----<br>it's --- --- ----- --- ---- ---- ------- ----- ---- -------<br>--- --- -- ----- -- --- ---- -- --- ---- -- ------ ------<br>--- ----- -- ----,205672.90000000037,205670.90000000037,205406.111,205406.69999999925,205422.775,205689.422,,28,it's
screen,html.Screen,2_1_0_1_29,2022-05-03T11:24:00.292Z,,,,,,,,,,,,,,,,,53,,,,,,,,,,,,,,253.97800000038114,,response,,,,99,,,,,,,Space,keypress(Space),,,,,,,,---- -- ----- -- ------ - ------- --- ----------<br>------------- ------ ------ ---- ---- ------- ----- -- ----<br>-------- ------- -- ---------- --- - --- ----- ----- ----<br>---- not --- ----- --- ---- ---- ------- ----- ---- -------<br>--- --- -- ----- -- --- ---- -- --- ---- -- ------ ------<br>--- ----- -- ----,205945.69999999925,205943.40000000037,205672.758,205673.09999999963,205689.422,205956.049,,29,not
screen,html.Screen,2_1_0_1_30,2022-05-03T11:24:00.541Z,,,,,,,,,,,,,,,,,53,,,,,,,,,,,,,,236.35100000037346,,response,,,,99,,,,,,,Space,keypress(Space),,,,,,,,---- -- ----- -- ------ - ------- --- ----------<br>------------- ------ ------ ---- ---- ------- ----- -- ----<br>-------- ------- -- ---------- --- - --- ----- ----- ----<br>---- --- how ----- --- ---- ---- ------- ----- ---- -------<br>--- --- -- ----- -- --- ---- -- --- ---- -- ------ ------<br>--- ----- -- ----,206194.69999999925,206192.40000000037,205939.385,205945.80000000075,205956.049,206206.028,,30,how
screen,html.Screen,2_1_0_1_31,2022-05-03T11:24:00.788Z,,,,,,,,,,,,,,,,,53,,,,,,,,,,,,,,233.37200000038138,,response,,,,99,,,,,,,Space,keypress(Space),,,,,,,,---- -- ----- -- ------ - ------- --- ----------<br>------------- ------ ------ ---- ---- ------- ----- -- ----<br>-------- ------- -- ---------- --- - --- ----- ----- ----<br>---- --- --- close --- ---- ---- ------- ----- ---- -------<br>--- --- -- ----- -- --- ---- -- --- ---- -- ------ ------<br>--- ----- -- ----,206441.19999999925,206439.40000000037,206189.364,206194.80000000075,206206.028,206456.001,,31,close
screen,html.Screen,2_1_0_1_32,2022-05-03T11:24:01.058Z,,,,,,,,,,,,,,,,,53,,,,,,,,,,,,,,252.89900000038324,,response,,,,99,,,,,,,Space,keypress(Space),,,,,,,,---- -- ----- -- ------ - ------- --- ----------<br>------------- ------ ------ ---- ---- ------- ----- -- ----<br>-------- ------- -- ---------- --- - --- ----- ----- ----<br>---- --- --- ----- you ---- ---- ------- ----- ---- -------<br>--- --- -- ----- -- --- ---- -- --- ---- -- ------ ------<br>--- ----- -- ----,206711.19999999925,206708.90000000037,206439.337,206441.40000000037,206456.001,206722.648,,32,you
screen,html.Screen,2_1_0_1_33,2022-05-03T11:24:01.320Z,,,,,,,,,,,,,,,,,53,,,,,,,,,,,,,,248.55199999926845,,response,,,,99,,,,,,,Space,keypress(Space),,,,,,,,---- -- ----- -- ------ - ------- --- ----------<br>------------- ------ ------ ---- ---- ------- ----- -- ----<br>-------- ------- -- ---------- --- - --- ----- ----- ----<br>---- --- --- ----- --- feel ---- ------- ----- ---- -------<br>--- --- -- ----- -- --- ---- -- --- ---- -- ------ ------<br>--- ----- -- ----,206973.40000000037,206971.19999999925,206705.984,206711.30000000075,206722.648,206989.293,,33,feel
screen,html.Screen,2_1_0_1_34,2022-05-03T11:24:01.573Z,,,,,,,,,,,,,,,,,53,,,,,,,,,,,,,,235.80699999962235,,response,,,,99,,,,,,,Space,keypress(Space),,,,,,,,---- -- ----- -- ------ - ------- --- ----------<br>------------- ------ ------ ---- ---- ------- ----- -- ----<br>-------- ------- -- ---------- --- - --- ----- ----- ----<br>---- --- --- ----- --- ---- that ------- ----- ---- -------<br>--- --- -- ----- -- --- ---- -- --- ---- -- ------ ------<br>--- ----- -- ----,207226.69999999925,207225.09999999963,206972.629,206973.5,206989.293,207239.263,,34,that
screen,html.Screen,2_1_0_1_35,2022-05-03T11:24:01.809Z,,,,,,,,,,,,,,,,,53,,,,,,,,,,,,,,219.7369999999937,,response,,,,99,,,,,,,Space,keypress(Space),,,,,,,,---- -- ----- -- ------ - ------- --- ----------<br>------------- ------ ------ ---- ---- ------- ----- -- ----<br>-------- ------- -- ---------- --- - --- ----- ----- ----<br>---- --- --- ----- --- ---- ---- matters ----- ---- -------<br>--- --- -- ----- -- --- ---- -- --- ---- -- ------ ------<br>--- ----- -- ----,207462.19999999925,207459,207222.599,207226.90000000037,207239.263,207472.569,,35,matters
screen,html.Screen,2_1_0_1_36,2022-05-03T11:24:02.044Z,,,,,,,,,,,,,,,,,53,,,,,,,,,,,,,,223.23100000075647,,response,,,,99,,,,,,,Space,keypress(Space),,,,,,,,"---- -- ----- -- ------ - ------- --- ----------<br>------------- ------ ------ ---- ---- ------- ----- -- ----<br>-------- ------- -- ---------- --- - --- ----- ----- ----<br>---- --- --- ----- --- ---- ---- ------- most, ---- -------<br>--- --- -- ----- -- --- ---- -- --- ---- -- ------ ------<br>--- ----- -- ----",207697.69999999925,207695.80000000075,207455.905,207462.30000000075,207472.569,207705.875,,36,"most,"
screen,html.Screen,2_1_0_1_37,2022-05-03T11:24:02.331Z,,,,,,,,,,,,,,,,,53,,,,,,,,,,,,,,276.42500000074506,,response,,,,99,,,,,,,Space,keypress(Space),,,,,,,,---- -- ----- -- ------ - ------- --- ----------<br>------------- ------ ------ ---- ---- ------- ----- -- ----<br>-------- ------- -- ---------- --- - --- ----- ----- ----<br>---- --- --- ----- --- ---- ---- ------- ----- it's -------<br>--- --- -- ----- -- --- ---- -- --- ---- -- ------ ------<br>--- ----- -- ----,207984.09999999963,207982.30000000075,207689.211,207697.90000000037,207705.875,207989.187,,37,it's
screen,html.Screen,2_1_0_1_38,2022-05-03T11:24:02.596Z,,,,,,,,,,,,,,,,,53,,,,,,,,,,,,,,258.7130000003672,,response,,,,99,,,,,,,Space,keypress(Space),,,,,,,,---- -- ----- -- ------ - ------- --- ----------<br>------------- ------ ------ ---- ---- ------- ----- -- ----<br>-------- ------- -- ---------- --- - --- ----- ----- ----<br>---- --- --- ----- --- ---- ---- ------- ----- ---- whether<br>--- --- -- ----- -- --- ---- -- --- ---- -- ------ ------<br>--- ----- -- ----,208249.59999999963,208247.90000000037,207972.523,207985.59999999963,207989.187,208255.814,,38,whether
screen,html.Screen,2_1_0_1_39,2022-05-03T11:24:02.863Z,,,,,,,,,,,,,,,,,53,,,,,,,,,,,,,,258.5860000003595,,response,,,,99,,,,,,,Space,keypress(Space),,,,,,,,---- -- ----- -- ------ - ------- --- ----------<br>------------- ------ ------ ---- ---- ------- ----- -- ----<br>-------- ------- -- ---------- --- - --- ----- ----- ----<br>---- --- --- ----- --- ---- ---- ------- ----- ---- -------<br>you --- -- ----- -- --- ---- -- --- ---- -- ------ ------<br>--- ----- -- ----,208516.5,208514.40000000037,208239.15,208249.80000000075,208255.814,208522.46,,39,you
screen,html.Screen,2_1_0_1_40,2022-05-03T11:24:03.104Z,,,,,,,,,,,,,,,,,53,,,,,,,,,,,,,,232.7399999992631,,response,,,,99,,,,,,,Space,keypress(Space),,,,,,,,---- -- ----- -- ------ - ------- --- ----------<br>------------- ------ ------ ---- ---- ------- ----- -- ----<br>-------- ------- -- ---------- --- - --- ----- ----- ----<br>---- --- --- ----- --- ---- ---- ------- ----- ---- -------<br>--- are -- ----- -- --- ---- -- --- ---- -- ------ ------<br>--- ----- -- ----,208757.09999999963,208755.19999999925,208505.796,208516.69999999925,208522.46,208772.433,,40,are
screen,html.Screen,2_1_0_1_41,2022-05-03T11:24:03.360Z,,,,,,,,,,,,,,,,,53,,,,,,,,,,,,,,239.66699999963748,,response,,,,99,,,,,,,Space,keypress(Space),,,,,,,,---- -- ----- -- ------ - ------- --- ----------<br>------------- ------ ------ ---- ---- ------- ----- -- ----<br>-------- ------- -- ---------- --- - --- ----- ----- ----<br>---- --- --- ----- --- ---- ---- ------- ----- ---- -------<br>--- --- as ----- -- --- ---- -- --- ---- -- ------ ------<br>--- ----- -- ----,209013.90000000037,209012.09999999963,208755.769,208757.30000000075,208772.433,209022.412,,41,as
screen,html.Screen,2_1_0_1_42,2022-05-03T11:24:03.605Z,,,,,,,,,,,,,,,,,53,,,,,,,,,,,,,,234.48800000036135,,response,,,,99,,,,,,,Space,keypress(Space),,,,,,,,---- -- ----- -- ------ - ------- --- ----------<br>------------- ------ ------ ---- ---- ------- ----- -- ----<br>-------- ------- -- ---------- --- - --- ----- ----- ----<br>---- --- --- ----- --- ---- ---- ------- ----- ---- -------<br>--- --- -- close -- --- ---- -- --- ---- -- ------ ------<br>--- ----- -- ----,209258.80000000075,209256.90000000037,209005.748,209014.5,209022.412,209272.394,,42,close
screen,html.Screen,2_1_0_1_43,2022-05-03T11:24:03.854Z,,,,,,,,,,,,,,,,,53,,,,,,,,,,,,,,232.70599999962724,,response,,,,99,,,,,,,Space,keypress(Space),,,,,,,,---- -- ----- -- ------ - ------- --- ----------<br>------------- ------ ------ ---- ---- ------- ----- -- ----<br>-------- ------- -- ---------- --- - --- ----- ----- ----<br>---- --- --- ----- --- ---- ---- ------- ----- ---- -------<br>--- --- -- ----- as --- ---- -- --- ---- -- ------ ------<br>--- ----- -- ----,209507.19999999925,209505.09999999963,209255.73,209258.90000000037,209272.394,209522.36,,43,as
screen,html.Screen,2_1_0_1_44,2022-05-03T11:24:04.100Z,,,,,,,,,,,,,,,,,53,,,,,,,,,,,,,,229.64000000001397,,response,,,,99,,,,,,,Space,keypress(Space),,,,,,,,---- -- ----- -- ------ - ------- --- ----------<br>------------- ------ ------ ---- ---- ------- ----- -- ----<br>-------- ------- -- ---------- --- - --- ----- ----- ----<br>---- --- --- ----- --- ---- ---- ------- ----- ---- -------<br>--- --- -- ----- -- you ---- -- --- ---- -- ------ ------<br>--- ----- -- ----,209753.80000000075,209752,209505.696,209507.30000000075,209522.36,209755.66,,44,you
screen,html.Screen,2_1_0_1_45,2022-05-03T11:24:04.350Z,,,,,,,,,,,,,,,,,53,,,,,,,,,,,,,,246.03999999925145,,response,,,,99,,,,,,,Space,keypress(Space),,,,,,,,---- -- ----- -- ------ - ------- --- ----------<br>------------- ------ ------ ---- ---- ------- ----- -- ----<br>-------- ------- -- ---------- --- - --- ----- ----- ----<br>---- --- --- ----- --- ---- ---- ------- ----- ---- -------<br>--- --- -- ----- -- --- want -- --- ---- -- ------ ------<br>--- ----- -- ----,210003.30000000075,210001.69999999925,209738.996,209754,209755.66,210005.638,,45,want
screen,html.Screen,2_1_0_1_46,2022-05-03T11:24:04.609Z,,,,,,,,,,,,,,,,,53,,,,,,,,,,,,,,255.3619999999937,,response,,,,99,,,,,,,Space,keypress(Space),,,,,,,,---- -- ----- -- ------ - ------- --- ----------<br>------------- ------ ------ ---- ---- ------- ----- -- ----<br>-------- ------- -- ---------- --- - --- ----- ----- ----<br>---- --- --- ----- --- ---- ---- ------- ----- ---- -------<br>--- --- -- ----- -- --- ---- to --- ---- -- ------ ------<br>--- ----- -- ----,210262.80000000075,210261,209988.974,210003.5,210005.638,210272.29,,46,to
screen,html.Screen,2_1_0_1_47,2022-05-03T11:24:04.816Z,,,,,,,,,,,,,,,,,53,,,,,,,,,,,,,,194.61000000036438,,response,,,,99,,,,,,,Space,keypress(Space),,,,,,,,"---- -- ----- -- ------ - ------- --- ----------<br>------------- ------ ------ ---- ---- ------- ----- -- ----<br>-------- ------- -- ---------- --- - --- ----- ----- ----<br>---- --- --- ----- --- ---- ---- ------- ----- ---- -------<br>--- --- -- ----- -- --- ---- -- be, ---- -- ------ ------<br>--- ----- -- ----",210469.19999999925,210466.90000000037,210255.626,210263,210272.29,210472.26,,47,"be,"
screen,html.Screen,2_1_0_1_48,2022-05-03T11:24:05.041Z,,,,,,,,,,,,,,,,,53,,,,,,,,,,,,,,220.04000000073574,,response,,,,99,,,,,,,Space,keypress(Space),,,,,,,,---- -- ----- -- ------ - ------- --- ----------<br>------------- ------ ------ ---- ---- ------- ----- -- ----<br>-------- ------- -- ---------- --- - --- ----- ----- ----<br>---- --- --- ----- --- ---- ---- ------- ----- ---- -------<br>--- --- -- ----- -- --- ---- -- --- even -- ------ ------<br>--- ----- -- ----,210694.30000000075,210692.30000000075,210455.596,210469.40000000037,210472.26,210705.572,,48,even
screen,html.Screen,2_1_0_1_49,2022-05-03T11:24:05.254Z,,,,,,,,,,,,,,,,,53,,,,,,,,,,,,,,199.7280000007595,,response,,,,99,,,,,,,Space,keypress(Space),,,,,,,,---- -- ----- -- ------ - ------- --- ----------<br>------------- ------ ------ ---- ---- ------- ----- -- ----<br>-------- ------- -- ---------- --- - --- ----- ----- ----<br>---- --- --- ----- --- ---- ---- ------- ----- ---- -------<br>--- --- -- ----- -- --- ---- -- --- ---- if ------ ------<br>--- ----- -- ----,210907.69999999925,210905.30000000075,210688.908,210694.5,210705.572,210922.219,,49,if
screen,html.Screen,2_1_0_1_50,2022-05-03T11:24:05.463Z,,,,,,,,,,,,,,,,,53,,,,,,,,,,,,,,191.78099999998813,,response,,,,99,,,,,,,Space,keypress(Space),,,,,,,,---- -- ----- -- ------ - ------- --- ----------<br>------------- ------ ------ ---- ---- ------- ----- -- ----<br>-------- ------- -- ---------- --- - --- ----- ----- ----<br>---- --- --- ----- --- ---- ---- ------- ----- ---- -------<br>--- --- -- ----- -- --- ---- -- --- ---- -- that's ------<br>--- ----- -- ----,211116.5,211114,210905.555,210907.80000000075,210922.219,211122.184,,50,that's
screen,html.Screen,2_1_0_1_51,2022-05-03T11:24:05.681Z,,,,,,,,,,,,,,,,,53,,,,,,,,,,,,,,210.11600000073668,,response,,,,99,,,,,,,Space,keypress(Space),,,,,,,,---- -- ----- -- ------ - ------- --- ----------<br>------------- ------ ------ ---- ---- ------- ----- -- ----<br>-------- ------- -- ---------- --- - --- ----- ----- ----<br>---- --- --- ----- --- ---- ---- ------- ----- ---- -------<br>--- --- -- ----- -- --- ---- -- --- ---- -- ------ really<br>--- ----- -- ----,211334,211332.30000000075,211105.52,211116.59999999963,211122.184,211338.848,,51,really
screen,html.Screen,2_1_0_1_52,2022-05-03T11:24:05.934Z,,,,,,,,,,,,,,,,,53,,,,,,,,,,,,,,246.95200000074692,,response,,,,99,,,,,,,Space,keypress(Space),,,,,,,,---- -- ----- -- ------ - ------- --- ----------<br>------------- ------ ------ ---- ---- ------- ----- -- ----<br>-------- ------- -- ---------- --- - --- ----- ----- ----<br>---- --- --- ----- --- ---- ---- ------- ----- ---- -------<br>--- --- -- ----- -- --- ---- -- --- ---- -- ------ ------<br>not ----- -- ----,211587.59999999963,211585.80000000075,211322.184,211334.19999999925,211338.848,211605.479,,52,not
screen,html.Screen,2_1_0_1_53,2022-05-03T11:24:06.148Z,,,,,,,,,,,,,,,,,53,,,,,,,,,,,,,,194.6209999996354,,response,,,,99,,,,,,,Space,keypress(Space),,,,,,,,---- -- ----- -- ------ - ------- --- ----------<br>------------- ------ ------ ---- ---- ------- ----- -- ----<br>-------- ------- -- ---------- --- - --- ----- ----- ----<br>---- --- --- ----- --- ---- ---- ------- ----- ---- -------<br>--- --- -- ----- -- --- ---- -- --- ---- -- ------ ------<br>--- close -- ----,211801.90000000037,211800.09999999963,211588.815,211587.80000000075,211605.479,211805.449,,53,close
screen,html.Screen,2_1_0_1_54,2022-05-03T11:24:06.360Z,,,,,,,,,,,,,,,,,53,,,,,,,,,,,,,,206.55100000000675,,response,,,,99,,,,,,,Space,keypress(Space),,,,,,,,---- -- ----- -- ------ - ------- --- ----------<br>------------- ------ ------ ---- ---- ------- ----- -- ----<br>-------- ------- -- ---------- --- - --- ----- ----- ----<br>---- --- --- ----- --- ---- ---- ------- ----- ---- -------<br>--- --- -- ----- -- --- ---- -- --- ---- -- ------ ------<br>--- ----- at ----,212013.90000000037,212012,211788.785,211802.09999999963,211805.449,212022.104,,54,at
screen,html.Screen,2_1_0_1_55,2022-05-03T11:24:06.733Z,,,,,,,,,,,,,,,,,53,,,,,,,,,,,,,,362.196000000753,,response,,,,99,,,,,,,Space,keypress(Space),,,,,,,,---- -- ----- -- ------ - ------- --- ----------<br>------------- ------ ------ ---- ---- ------- ----- -- ----<br>-------- ------- -- ---------- --- - --- ----- ----- ----<br>---- --- --- ----- --- ---- ---- ------- ----- ---- -------<br>--- --- -- ----- -- --- ---- -- --- ---- -- ------ ------<br>--- ----- -- all.,212386.19999999925,212384.30000000075,212005.44,212014,212022.104,212405.386,,55,all.
Item 99,flow.Loop,2_1_0_1,2022-05-03T11:24:06.733Z,,,,,,,,,,,,,,,,,,,,,,,,,,,,,,,16093.953000000736,,completion,,,,,H,,,,,,,,,,,silence,,,,,212386.5,212384.30000000075,196273.683,196281.90000000037,196290.347,212405.386,,,
Question 1,html.Screen,2_1_0_2,2022-05-03T11:24:09.714Z,,,,,,,,,,,,,,,,,,,,,,,,,,,,true,FALSE,,2960.014000000374,,response,,,,99,H,,,,,,FALSE,click #choice-2,,,,silence,,,,,215367.09999999963,215365.40000000037,212388.722,212386.69999999925,212405.386,215371.757,,,
Question 2,html.Screen,2_1_0_3,2022-05-03T11:24:12.803Z,,,,,,,,,,,,,,,,,,,,,,,,,,,,true,TRUE,,3083.5430000007327,,response,,,,99,H,,,,,,TRUE,click #choice-1,,,,silence,,,,,218457,218455.30000000075,215355.093,215367.30000000075,215371.757,218471.448,,,
Item 99,flow.Sequence,2_1_0,2022-05-03T11:24:12.804Z,,,,,,,,,,,,,,,,,,,,,,,,,,,,,,,32163.858000000735,,completion,,,,,,,,,,,,,,,,,,,,,218457.19999999925,218455.30000000075,186274.779,186264.5,186291.442,218471.448,,,
Holding screen,html.Screen,2_1_1_0,2022-05-03T11:24:22.801Z,,,,,,,,,,,,,,,,,,,,,,,,,,,,,,,9998.902999999991,,timeout,,,,,,,,,,,,,,,,,,,,,228454.80000000075,228453.687,218454.784,218457.40000000037,218471.448,228470.351,,,
screen,html.Screen,2_1_1_1_0,2022-05-03T11:24:23.522Z,,,,,,,,,,,,,,,,,54,,,,,,,,,,,,,,702.3489999992598,,response,,,,100,,,,,,,Space,keypress(Space),,,,,,,,At --- ---- --- ------ ----- ------- ---- -- --- ------- --<br>------- ---------- ------ -- ----- -- ----- -- ---- ------<br>--- ----- --- --- ------ -------- ----- --- ------ ----- --<br>----- ----- ---------- --- --- ------ ------ ---- -- ------<br>------- --- ------ ----- --- ---- ------- -- ---- --- --<br>------- ------,229175.19999999925,229172.69999999925,228453.687,228454.90000000037,228470.351,229186.962,,0,At
screen,html.Screen,2_1_1_1_1,2022-05-03T11:24:23.836Z,,,,,,,,,,,,,,,,,54,,,,,,,,,,,,,,300.8380000007455,,response,,,,100,,,,,,,Space,keypress(Space),,,,,,,,-- the ---- --- ------ ----- ------- ---- -- --- ------- --<br>------- ---------- ------ -- ----- -- ----- -- ---- ------<br>--- ----- --- --- ------ -------- ----- --- ------ ----- --<br>----- ----- ---------- --- --- ------ ------ ---- -- ------<br>------- --- ------ ----- --- ---- ------- -- ---- --- --<br>------- ------,229489.59999999963,229487.80000000075,229170.298,229175.40000000037,229186.962,229503.618,,1,the
screen,html.Screen,2_1_1_1_2,2022-05-03T11:24:24.126Z,,,,,,,,,,,,,,,,,54,,,,,,,,,,,,,,273.88200000001234,,response,,,,100,,,,,,,Space,keypress(Space),,,,,,,,-- --- time --- ------ ----- ------- ---- -- --- ------- --<br>------- ---------- ------ -- ----- -- ----- -- ---- ------<br>--- ----- --- --- ------ -------- ----- --- ------ ----- --<br>----- ----- ---------- --- --- ------ ------ ---- -- ------<br>------- --- ------ ----- --- ---- ------- -- ---- --- --<br>------- ------,229779.19999999925,229777.5,229486.954,229489.80000000075,229503.618,229786.926,,2,time
screen,html.Screen,2_1_1_1_3,2022-05-03T11:24:24.477Z,,,,,,,,,,,,,,,,,54,,,,,,,,,,,,,,342.3740000007383,,response,,,,100,,,,,,,Space,keypress(Space),,,,,,,,-- --- ---- the ------ ----- ------- ---- -- --- ------- --<br>------- ---------- ------ -- ----- -- ----- -- ---- ------<br>--- ----- --- --- ------ -------- ----- --- ------ ----- --<br>----- ----- ---------- --- --- ------ ------ ---- -- ------<br>------- --- ------ ----- --- ---- ------- -- ---- --- --<br>------- ------,230130.90000000037,230129.30000000075,229770.262,229779.30000000075,229786.926,230136.885,,3,the
screen,html.Screen,2_1_1_1_4,2022-05-03T11:24:24.756Z,,,,,,,,,,,,,,,,,54,,,,,,,,,,,,,,270.31499999924563,,response,,,,100,,,,,,,Space,keypress(Space),,,,,,,,-- --- ---- --- French ----- ------- ---- -- --- ------- --<br>------- ---------- ------ -- ----- -- ----- -- ---- ------<br>--- ----- --- --- ------ -------- ----- --- ------ ----- --<br>----- ----- ---------- --- --- ------ ------ ---- -- ------<br>------- --- ------ ----- --- ---- ------- -- ---- --- --<br>------- ------,230409.09999999963,230407.19999999925,230120.221,230131.09999999963,230136.885,230420.185,,4,French
screen,html.Screen,2_1_1_1_5,2022-05-03T11:24:25.052Z,,,,,,,,,,,,,,,,,54,,,,,,,,,,,,,,283.3150000000023,,response,,,,100,,,,,,,Space,keypress(Space),,,,,,,,-- --- ---- --- ------ crown ------- ---- -- --- ------- --<br>------- ---------- ------ -- ----- -- ----- -- ---- ------<br>--- ----- --- --- ------ -------- ----- --- ------ ----- --<br>----- ----- ---------- --- --- ------ ------ ---- -- ------<br>------- --- ------ ----- --- ---- ------- -- ---- --- --<br>------- ------,230705.5,230703.5,230403.521,230409.30000000075,230420.185,230720.169,,5,crown
screen,html.Screen,2_1_1_1_6,2022-05-03T11:24:25.322Z,,,,,,,,,,,,,,,,,54,,,,,,,,,,,,,,253.3310000000056,,response,,,,100,,,,,,,Space,keypress(Space),,,,,,,,-- --- ---- --- ------ ----- secured ---- -- --- ------- --<br>------- ---------- ------ -- ----- -- ----- -- ---- ------<br>--- ----- --- --- ------ -------- ----- --- ------ ----- --<br>----- ----- ---------- --- --- ------ ------ ---- -- ------<br>------- --- ------ ----- --- ---- ------- -- ---- --- --<br>------- ------,230975.40000000037,230973.5,230703.505,230705.69999999925,230720.169,230986.8,,6,secured
screen,html.Screen,2_1_1_1_7,2022-05-03T11:24:25.608Z,,,,,,,,,,,,,,,,,54,,,,,,,,,,,,,,273.5000000007567,,response,,,,100,,,,,,,Space,keypress(Space),,,,,,,,-- --- ---- --- ------ ----- ------- much -- --- ------- --<br>------- ---------- ------ -- ----- -- ----- -- ---- ------<br>--- ----- --- --- ------ -------- ----- --- ------ ----- --<br>----- ----- ---------- --- --- ------ ------ ---- -- ------<br>------- --- ------ ----- --- ---- ------- -- ---- --- --<br>------- ------,231261.80000000075,231260.30000000075,230970.136,230975.5,230986.8,231270.097,,7,much
screen,html.Screen,2_1_1_1_8,2022-05-03T11:24:25.849Z,,,,,,,,,,,,,,,,,54,,,,,,,,,,,,,,230.80300000036368,,response,,,,100,,,,,,,Space,keypress(Space),,,,,,,,-- --- ---- --- ------ ----- ------- ---- of --- ------- --<br>------- ---------- ------ -- ----- -- ----- -- ---- ------<br>--- ----- --- --- ------ -------- ----- --- ------ ----- --<br>----- ----- ---------- --- --- ------ ------ ---- -- ------<br>------- --- ------ ----- --- ---- ------- -- ---- --- --<br>------- ------,231502.5,231500.90000000037,231253.433,231262,231270.097,231520.077,,8,of
screen,html.Screen,2_1_1_1_9,2022-05-03T11:24:26.067Z,,,,,,,,,,,,,,,,,54,,,,,,,,,,,,,,198.22300000075484,,response,,,,100,,,,,,,Space,keypress(Space),,,,,,,,-- --- ---- --- ------ ----- ------- ---- -- its ------- --<br>------- ---------- ------ -- ----- -- ----- -- ---- ------<br>--- ----- --- --- ------ -------- ----- --- ------ ----- --<br>----- ----- ---------- --- --- ------ ------ ---- -- ------<br>------- --- ------ ----- --- ---- ------- -- ---- --- --<br>------- ------,231720.19999999925,231718.30000000075,231503.413,231502.69999999925,231520.077,231736.735,,9,its
screen,html.Screen,2_1_1_1_10,2022-05-03T11:24:26.308Z,,,,,,,,,,,,,,,,,54,,,,,,,,,,,,,,222.26500000001397,,response,,,,100,,,,,,,Space,keypress(Space),,,,,,,,-- --- ---- --- ------ ----- ------- ---- -- --- revenue --<br>------- ---------- ------ -- ----- -- ----- -- ---- ------<br>--- ----- --- --- ------ -------- ----- --- ------ ----- --<br>----- ----- ---------- --- --- ------ ------ ---- -- ------<br>------- --- ------ ----- --- ---- ------- -- ---- --- --<br>------- ------,231961.19999999925,231959,231720.071,231720.40000000037,231736.735,231970.038,,10,revenue
screen,html.Screen,2_1_1_1_11,2022-05-03T11:24:26.596Z,,,,,,,,,,,,,,,,,54,,,,,,,,,,,,,,277.061999999627,,response,,,,100,,,,,,,Space,keypress(Space),,,,,,,,-- --- ---- --- ------ ----- ------- ---- -- --- ------- by<br>------- ---------- ------ -- ----- -- ----- -- ---- ------<br>--- ----- --- --- ------ -------- ----- --- ------ ----- --<br>----- ----- ---------- --- --- ------ ------ ---- -- ------<br>------- --- ------ ----- --- ---- ------- -- ---- --- --<br>------- ------,232249.30000000075,232247.09999999963,231953.374,231961.40000000037,231970.038,232253.343,,11,by
screen,html.Screen,2_1_1_1_12,2022-05-03T11:24:26.849Z,,,,,,,,,,,,,,,,,54,,,,,,,,,,,,,,247.756999999634,,response,,,,100,,,,,,,Space,keypress(Space),,,,,,,,-- --- ---- --- ------ ----- ------- ---- -- --- ------- --<br>issuing ---------- ------ -- ----- -- ----- -- ---- ------<br>--- ----- --- --- ------ -------- ----- --- ------ ----- --<br>----- ----- ---------- --- --- ------ ------ ---- -- ------<br>------- --- ------ ----- --- ---- ------- -- ---- --- --<br>------- ------,232502.90000000037,232501.09999999963,232236.679,232249.40000000037,232253.343,232519.968,,12,issuing
screen,html.Screen,2_1_1_1_13,2022-05-03T11:24:27.222Z,,,,,,,,,,,,,,,,,54,,,,,,,,,,,,,,353.23199999926146,,response,,,,100,,,,,,,Space,keypress(Space),,,,,,,,-- --- ---- --- ------ ----- ------- ---- -- --- ------- --<br>------- government ------ -- ----- -- ----- -- ---- ------<br>--- ----- --- --- ------ -------- ----- --- ------ ----- --<br>----- ----- ---------- --- --- ------ ------ ---- -- ------<br>------- --- ------ ----- --- ---- ------- -- ---- --- --<br>------- ------,232875.09999999963,232873.19999999925,232503.304,232503.09999999963,232519.968,232886.595,,13,government
screen,html.Screen,2_1_1_1_14,2022-05-03T11:24:27.481Z,,,,,,,,,,,,,,,,,54,,,,,,,,,,,,,,245.7050000007439,,response,,,,100,,,,,,,Space,keypress(Space),,,,,,,,-- --- ---- --- ------ ----- ------- ---- -- --- ------- --<br>------- ---------- bonds. -- ----- -- ----- -- ---- ------<br>--- ----- --- --- ------ -------- ----- --- ------ ----- --<br>----- ----- ---------- --- --- ------ ------ ---- -- ------<br>------- --- ------ ----- --- ---- ------- -- ---- --- --<br>------- ------,233134.5,233132.30000000075,232869.931,232875.30000000075,232886.595,233136.579,,14,bonds.
screen,html.Screen,2_1_1_1_15,2022-05-03T11:24:27.770Z,,,,,,,,,,,,,,,,,54,,,,,,,,,,,,,,285.3210000003746,,response,,,,100,,,,,,,Space,keypress(Space),,,,,,,,-- --- ---- --- ------ ----- ------- ---- -- --- ------- --<br>------- ---------- ------ In ----- -- ----- -- ---- ------<br>--- ----- --- --- ------ -------- ----- --- ------ ----- --<br>----- ----- ---------- --- --- ------ ------ ---- -- ------<br>------- --- ------ ----- --- ---- ------- -- ---- --- --<br>------- ------,233423.5,233421.90000000037,233119.915,233134.69999999925,233136.579,233436.546,,15,In
screen,html.Screen,2_1_1_1_16,2022-05-03T11:24:28.009Z,,,,,,,,,,,,,,,,,54,,,,,,,,,,,,,,224.55399999962538,,response,,,,100,,,,,,,Space,keypress(Space),,,,,,,,"-- --- ---- --- ------ ----- ------- ---- -- --- ------- --<br>------- ---------- ------ -- 1727, -- ----- -- ---- ------<br>--- ----- --- --- ------ -------- ----- --- ------ ----- --<br>----- ----- ---------- --- --- ------ ------ ---- -- ------<br>------- --- ------ ----- --- ---- ------- -- ---- --- --<br>------- ------",233663,233661.09999999963,233419.882,233423.59999999963,233436.546,233669.853,,16,"1727,"
screen,html.Screen,2_1_1_1_17,2022-05-03T11:24:28.219Z,,,,,,,,,,,,,,,,,54,,,,,,,,,,,,,,200.34699999925215,,response,,,,100,,,,,,,Space,keypress(Space),,,,,,,,-- --- ---- --- ------ ----- ------- ---- -- --- ------- --<br>------- ---------- ------ -- ----- in ----- -- ---- ------<br>--- ----- --- --- ------ -------- ----- --- ------ ----- --<br>----- ----- ---------- --- --- ------ ------ ---- -- ------<br>------- --- ------ ----- --- ---- ------- -- ---- --- --<br>------- ------,233872.40000000037,233870.19999999925,233653.189,233663.09999999963,233669.853,233886.496,,17,in
screen,html.Screen,2_1_1_1_18,2022-05-03T11:24:28.422Z,,,,,,,,,,,,,,,,,54,,,,,,,,,,,,,,187.30400000073132,,response,,,,100,,,,,,,Space,keypress(Space),,,,,,,,-- --- ---- --- ------ ----- ------- ---- -- --- ------- --<br>------- ---------- ------ -- ----- -- order -- ---- ------<br>--- ----- --- --- ------ -------- ----- --- ------ ----- --<br>----- ----- ---------- --- --- ------ ------ ---- -- ------<br>------- --- ------ ----- --- ---- ------- -- ---- --- --<br>------- ------,234075.80000000075,234073.80000000075,233869.832,233872.5,233886.496,234086.481,,18,order
screen,html.Screen,2_1_1_1_19,2022-05-03T11:24:28.653Z,,,,,,,,,,,,,,,,,54,,,,,,,,,,,,,,217.91900000037276,,response,,,,100,,,,,,,Space,keypress(Space),,,,,,,,-- --- ---- --- ------ ----- ------- ---- -- --- ------- --<br>------- ---------- ------ -- ----- -- ----- to ---- ------<br>--- ----- --- --- ------ -------- ----- --- ------ ----- --<br>----- ----- ---------- --- --- ------ ------ ---- -- ------<br>------- --- ------ ----- --- ---- ------- -- ---- --- --<br>------- ------,234306.80000000075,234304.40000000037,234069.817,234075.90000000037,234086.481,234319.787,,19,to
screen,html.Screen,2_1_1_1_20,2022-05-03T11:24:28.848Z,,,,,,,,,,,,,,,,,54,,,,,,,,,,,,,,179.8129999996163,,response,,,,100,,,,,,,Space,keypress(Space),,,,,,,,-- --- ---- --- ------ ----- ------- ---- -- --- ------- --<br>------- ---------- ------ -- ----- -- ----- -- save ------<br>--- ----- --- --- ------ -------- ----- --- ------ ----- --<br>----- ----- ---------- --- --- ------ ------ ---- -- ------<br>------- --- ------ ----- --- ---- ------- -- ---- --- --<br>------- ------,234501.30000000075,234499.59999999963,234303.123,234307,234319.787,234503.1,,20,save
screen,html.Screen,2_1_1_1_21,2022-05-03T11:24:29.047Z,,,,,,,,,,,,,,,,,54,,,,,,,,,,,,,,195.09999999924912,,response,,,,100,,,,,,,Space,keypress(Space),,,,,,,,"-- --- ---- --- ------ ----- ------- ---- -- --- ------- --<br>------- ---------- ------ -- ----- -- ----- -- ---- money,<br>--- ----- --- --- ------ -------- ----- --- ------ ----- --<br>----- ----- ---------- --- --- ------ ------ ---- -- ------<br>------- --- ------ ----- --- ---- ------- -- ---- --- --<br>------- ------",234700.30000000075,234698.19999999925,234486.436,234501.5,234503.1,234703.096,,21,"money,"
screen,html.Screen,2_1_1_1_22,2022-05-03T11:24:29.334Z,,,,,,,,,,,,,,,,,54,,,,,,,,,,,,,,282.503999999637,,response,,,,100,,,,,,,Space,keypress(Space),,,,,,,,-- --- ---- --- ------ ----- ------- ---- -- --- ------- --<br>------- ---------- ------ -- ----- -- ----- -- ---- ------<br>the ----- --- --- ------ -------- ----- --- ------ ----- --<br>----- ----- ---------- --- --- ------ ------ ---- -- ------<br>------- --- ------ ----- --- ---- ------- -- ---- --- --<br>------- ------,234987.40000000037,234985.59999999963,234686.432,234700.5,234703.096,235003.058,,22,the
screen,html.Screen,2_1_1_1_23,2022-05-03T11:24:29.557Z,,,,,,,,,,,,,,,,,54,,,,,,,,,,,,,,205.54199999963748,,response,,,,100,,,,,,,Space,keypress(Space),,,,,,,,-- --- ---- --- ------ ----- ------- ---- -- --- ------- --<br>------- ---------- ------ -- ----- -- ----- -- ---- ------<br>--- state --- --- ------ -------- ----- --- ------ ----- --<br>----- ----- ---------- --- --- ------ ------ ---- -- ------<br>------- --- ------ ----- --- ---- ------- -- ---- --- --<br>------- ------,235210.30000000075,235208.59999999963,234986.394,234987.5,235003.058,235219.71,,23,state
screen,html.Screen,2_1_1_1_24,2022-05-03T11:24:29.761Z,,,,,,,,,,,,,,,,,54,,,,,,,,,,,,,,192.69000000038068,,response,,,,100,,,,,,,Space,keypress(Space),,,,,,,,-- --- ---- --- ------ ----- ------- ---- -- --- ------- --<br>------- ---------- ------ -- ----- -- ----- -- ---- ------<br>--- ----- cut --- ------ -------- ----- --- ------ ----- --<br>----- ----- ---------- --- --- ------ ------ ---- -- ------<br>------- --- ------ ----- --- ---- ------- -- ---- --- --<br>------- ------,235414,235412.40000000037,235203.046,235210.40000000037,235219.71,235419.674,,24,cut
screen,html.Screen,2_1_1_1_25,2022-05-03T11:24:30.001Z,,,,,,,,,,,,,,,,,54,,,,,,,,,,,,,,232.626000000746,,response,,,,100,,,,,,,Space,keypress(Space),,,,,,,,-- --- ---- --- ------ ----- ------- ---- -- --- ------- --<br>------- ---------- ------ -- ----- -- ----- -- ---- ------<br>--- ----- --- the ------ -------- ----- --- ------ ----- --<br>----- ----- ---------- --- --- ------ ------ ---- -- ------<br>------- --- ------ ----- --- ---- ------- -- ---- --- --<br>------- ------,235654.80000000075,235652.30000000075,235403.01,235414.19999999925,235419.674,235669.651,,25,the
screen,html.Screen,2_1_1_1_26,2022-05-03T11:24:30.233Z,,,,,,,,,,,,,,,,,54,,,,,,,,,,,,,,214.74900000035996,,response,,,,100,,,,,,,Space,keypress(Space),,,,,,,,-- --- ---- --- ------ ----- ------- ---- -- --- ------- --<br>------- ---------- ------ -- ----- -- ----- -- ---- ------<br>--- ----- --- --- bonds' -------- ----- --- ------ ----- --<br>----- ----- ---------- --- --- ------ ------ ---- -- ------<br>------- --- ------ ----- --- ---- ------- -- ---- --- --<br>------- ------,235886.40000000037,235884.40000000037,235652.987,235655,235669.651,235902.95,,26,bonds'
screen,html.Screen,2_1_1_1_27,2022-05-03T11:24:30.461Z,,,,,,,,,,,,,,,,,54,,,,,,,,,,,,,,209.35000000073342,,response,,,,100,,,,,,,Space,keypress(Space),,,,,,,,-- --- ---- --- ------ ----- ------- ---- -- --- ------- --<br>------- ---------- ------ -- ----- -- ----- -- ---- ------<br>--- ----- --- --- ------ interest ----- --- ------ ----- --<br>----- ----- ---------- --- --- ------ ------ ---- -- ------<br>------- --- ------ ----- --- ---- ------- -- ---- --- --<br>------- ------,236114.59999999963,236112.30000000075,235886.286,235886.5,235902.95,236119.612,,27,interest
screen,html.Screen,2_1_1_1_28,2022-05-03T11:24:30.725Z,,,,,,,,,,,,,,,,,54,,,,,,,,,,,,,,256.48799999963376,,response,,,,100,,,,,,,Space,keypress(Space),,,,,,,,-- --- ---- --- ------ ----- ------- ---- -- --- ------- --<br>------- ---------- ------ -- ----- -- ----- -- ---- ------<br>--- ----- --- --- ------ -------- rate. --- ------ ----- --<br>----- ----- ---------- --- --- ------ ------ ---- -- ------<br>------- --- ------ ----- --- ---- ------- -- ---- --- --<br>------- ------,236378.09999999963,236376.09999999963,236102.948,236114.80000000075,236119.612,236386.238,,28,rate.
screen,html.Screen,2_1_1_1_29,2022-05-03T11:24:30.973Z,,,,,,,,,,,,,,,,,54,,,,,,,,,,,,,,238.2619999999879,,response,,,,100,,,,,,,Space,keypress(Space),,,,,,,,-- --- ---- --- ------ ----- ------- ---- -- --- ------- --<br>------- ---------- ------ -- ----- -- ----- -- ---- ------<br>--- ----- --- --- ------ -------- ----- The ------ ----- --<br>----- ----- ---------- --- --- ------ ------ ---- -- ------<br>------- --- ------ ----- --- ---- ------- -- ---- --- --<br>------- ------,236626.19999999925,236624.5,236369.574,236378.19999999925,236386.238,236636.22,,29,The
screen,html.Screen,2_1_1_1_30,2022-05-03T11:24:31.216Z,,,,,,,,,,,,,,,,,54,,,,,,,,,,,,,,231.3799999996263,,response,,,,100,,,,,,,Space,keypress(Space),,,,,,,,-- --- ---- --- ------ ----- ------- ---- -- --- ------- --<br>------- ---------- ------ -- ----- -- ----- -- ---- ------<br>--- ----- --- --- ------ -------- ----- --- market ----- --<br>----- ----- ---------- --- --- ------ ------ ---- -- ------<br>------- --- ------ ----- --- ---- ------- -- ---- --- --<br>------- ------,236869.40000000037,236867.59999999963,236619.556,236626.30000000075,236636.22,236886.186,,30,market
screen,html.Screen,2_1_1_1_31,2022-05-03T11:24:31.422Z,,,,,,,,,,,,,,,,,54,,,,,,,,,,,,,,187.31400000001304,,response,,,,100,,,,,,,Space,keypress(Space),,,,,,,,-- --- ---- --- ------ ----- ------- ---- -- --- ------- --<br>------- ---------- ------ -- ----- -- ----- -- ---- ------<br>--- ----- --- --- ------ -------- ----- --- ------ value --<br>----- ----- ---------- --- --- ------ ------ ---- -- ------<br>------- --- ------ ----- --- ---- ------- -- ---- --- --<br>------- ------,237075.59999999963,237073.5,236869.522,236869.59999999963,236886.186,237086.173,,31,value
screen,html.Screen,2_1_1_1_32,2022-05-03T11:24:31.651Z,,,,,,,,,,,,,,,,,54,,,,,,,,,,,,,,216.9269999996177,,response,,,,100,,,,,,,Space,keypress(Space),,,,,,,,-- --- ---- --- ------ ----- ------- ---- -- --- ------- --<br>------- ---------- ------ -- ----- -- ----- -- ---- ------<br>--- ----- --- --- ------ -------- ----- --- ------ ----- of<br>----- ----- ---------- --- --- ------ ------ ---- -- ------<br>------- --- ------ ----- --- ---- ------- -- ---- --- --<br>------- ------,237304.69999999925,237303.09999999963,237069.509,237075.69999999925,237086.173,237319.476,,32,of
screen,html.Screen,2_1_1_1_33,2022-05-03T11:24:31.884Z,,,,,,,,,,,,,,,,,54,,,,,,,,,,,,,,215.82400000074995,,response,,,,100,,,,,,,Space,keypress(Space),,,,,,,,-- --- ---- --- ------ ----- ------- ---- -- --- ------- --<br>------- ---------- ------ -- ----- -- ----- -- ---- ------<br>--- ----- --- --- ------ -------- ----- --- ------ ----- --<br>these ----- ---------- --- --- ------ ------ ---- -- ------<br>------- --- ------ ----- --- ---- ------- -- ---- --- --<br>------- ------,237537.09999999963,237535.30000000075,237302.812,237304.90000000037,237319.476,237552.798,,33,these
screen,html.Screen,2_1_1_1_34,2022-05-03T11:24:32.099Z,,,,,,,,,,,,,,,,,54,,,,,,,,,,,,,,197.50200000073528,,response,,,,100,,,,,,,Space,keypress(Space),,,,,,,,-- --- ---- --- ------ ----- ------- ---- -- --- ------- --<br>------- ---------- ------ -- ----- -- ----- -- ---- ------<br>--- ----- --- --- ------ -------- ----- --- ------ ----- --<br>----- bonds ---------- --- --- ------ ------ ---- -- ------<br>------- --- ------ ----- --- ---- ------- -- ---- --- --<br>------- ------,237752.5,237750.30000000075,237536.134,237537.30000000075,237552.798,237769.431,,34,bonds
screen,html.Screen,2_1_1_1_35,2022-05-03T11:24:32.310Z,,,,,,,,,,,,,,,,,54,,,,,,,,,,,,,,192.36900000073365,,response,,,,100,,,,,,,Space,keypress(Space),,,,,,,,"-- --- ---- --- ------ ----- ------- ---- -- --- ------- --<br>------- ---------- ------ -- ----- -- ----- -- ---- ------<br>--- ----- --- --- ------ -------- ----- --- ------ ----- --<br>----- ----- plummeted, --- --- ------ ------ ---- -- ------<br>------- --- ------ ----- --- ---- ------- -- ---- --- --<br>------- ------",237963.59999999963,237961.80000000075,237752.767,237752.69999999925,237769.431,237969.421,,35,"plummeted,"
screen,html.Screen,2_1_1_1_36,2022-05-03T11:24:32.535Z,,,,,,,,,,,,,,,,,54,,,,,,,,,,,,,,217.17899999962538,,response,,,,100,,,,,,,Space,keypress(Space),,,,,,,,-- --- ---- --- ------ ----- ------- ---- -- --- ------- --<br>------- ---------- ------ -- ----- -- ----- -- ---- ------<br>--- ----- --- --- ------ -------- ----- --- ------ ----- --<br>----- ----- ---------- and --- ------ ------ ---- -- ------<br>------- --- ------ ----- --- ---- ------- -- ---- --- --<br>------- ------,238188.19999999925,238186.59999999963,237952.757,237963.80000000075,237969.421,238202.715,,36,and
screen,html.Screen,2_1_1_1_37,2022-05-03T11:24:32.739Z,,,,,,,,,,,,,,,,,54,,,,,,,,,,,,,,188.18500000037602,,response,,,,100,,,,,,,Space,keypress(Space),,,,,,,,-- --- ---- --- ------ ----- ------- ---- -- --- ------- --<br>------- ---------- ------ -- ----- -- ----- -- ---- ------<br>--- ----- --- --- ------ -------- ----- --- ------ ----- --<br>----- ----- ---------- --- the ------ ------ ---- -- ------<br>------- --- ------ ----- --- ---- ------- -- ---- --- --<br>------- ------,238392.80000000075,238390.90000000037,238186.051,238188.40000000037,238202.715,238402.699,,37,the
screen,html.Screen,2_1_1_1_38,2022-05-03T11:24:32.960Z,,,,,,,,,,,,,,,,,54,,,,,,,,,,,,,,209.20100000037928,,response,,,,100,,,,,,,Space,keypress(Space),,,,,,,,-- --- ---- --- ------ ----- ------- ---- -- --- ------- --<br>------- ---------- ------ -- ----- -- ----- -- ---- ------<br>--- ----- --- --- ------ -------- ----- --- ------ ----- --<br>----- ----- ---------- --- --- market ------ ---- -- ------<br>------- --- ------ ----- --- ---- ------- -- ---- --- --<br>------- ------,238613.90000000037,238611.90000000037,238386.035,238392.90000000037,238402.699,238619.352,,38,market
screen,html.Screen,2_1_1_1_39,2022-05-03T11:24:33.182Z,,,,,,,,,,,,,,,,,54,,,,,,,,,,,,,,214.44800000073155,,response,,,,100,,,,,,,Space,keypress(Space),,,,,,,,-- --- ---- --- ------ ----- ------- ---- -- --- ------- --<br>------- ---------- ------ -- ----- -- ----- -- ---- ------<br>--- ----- --- --- ------ -------- ----- --- ------ ----- --<br>----- ----- ---------- --- --- ------ became ---- -- ------<br>------- --- ------ ----- --- ---- ------- -- ---- --- --<br>------- ------,238835.40000000037,238833.80000000075,238602.688,238614,238619.352,238852.651,,39,became
screen,html.Screen,2_1_1_1_40,2022-05-03T11:24:33.402Z,,,,,,,,,,,,,,,,,54,,,,,,,,,,,,,,201.14900000073249,,response,,,,100,,,,,,,Space,keypress(Space),,,,,,,,-- --- ---- --- ------ ----- ------- ---- -- --- ------- --<br>------- ---------- ------ -- ----- -- ----- -- ---- ------<br>--- ----- --- --- ------ -------- ----- --- ------ ----- --<br>----- ----- ---------- --- --- ------ ------ wary -- ------<br>------- --- ------ ----- --- ---- ------- -- ---- --- --<br>------- ------,239055.90000000037,239053.80000000075,238835.987,238835.5,238852.651,239069.295,,40,wary
screen,html.Screen,2_1_1_1_41,2022-05-03T11:24:33.626Z,,,,,,,,,,,,,,,,,54,,,,,,,,,,,,,,207.60500000035972,,response,,,,100,,,,,,,Space,keypress(Space),,,,,,,,-- --- ---- --- ------ ----- ------- ---- -- --- ------- --<br>------- ---------- ------ -- ----- -- ----- -- ---- ------<br>--- ----- --- --- ------ -------- ----- --- ------ ----- --<br>----- ----- ---------- --- --- ------ ------ ---- of ------<br>------- --- ------ ----- --- ---- ------- -- ---- --- --<br>------- ------,239279.30000000075,239276.90000000037,239052.631,239055.90000000037,239069.295,239285.947,,41,of
screen,html.Screen,2_1_1_1_42,2022-05-03T11:24:33.835Z,,,,,,,,,,,,,,,,,54,,,,,,,,,,,,,,200.45300000038696,,response,,,,100,,,,,,,Space,keypress(Space),,,,,,,,-- --- ---- --- ------ ----- ------- ---- -- --- ------- --<br>------- ---------- ------ -- ----- -- ----- -- ---- ------<br>--- ----- --- --- ------ -------- ----- --- ------ ----- --<br>----- ----- ---------- --- --- ------ ------ ---- -- French<br>------- --- ------ ----- --- ---- ------- -- ---- --- --<br>------- ------,239488.19999999925,239486.40000000037,239269.283,239279.40000000037,239285.947,239502.597,,42,French
screen,html.Screen,2_1_1_1_43,2022-05-03T11:24:34.057Z,,,,,,,,,,,,,,,,,54,,,,,,,,,,,,,,205.80300000036368,,response,,,,100,,,,,,,Space,keypress(Space),,,,,,,,-- --- ---- --- ------ ----- ------- ---- -- --- ------- --<br>------- ---------- ------ -- ----- -- ----- -- ---- ------<br>--- ----- --- --- ------ -------- ----- --- ------ ----- --<br>----- ----- ---------- --- --- ------ ------ ---- -- ------<br>credit. --- ------ ----- --- ---- ------- -- ---- --- --<br>------- ------,239710.30000000075,239708.40000000037,239485.933,239488.30000000075,239502.597,239719.236,,43,credit.
screen,html.Screen,2_1_1_1_44,2022-05-03T11:24:34.272Z,,,,,,,,,,,,,,,,,54,,,,,,,,,,,,,,204.46399999925052,,response,,,,100,,,,,,,Space,keypress(Space),,,,,,,,-- --- ---- --- ------ ----- ------- ---- -- --- ------- --<br>------- ---------- ------ -- ----- -- ----- -- ---- ------<br>--- ----- --- --- ------ -------- ----- --- ------ ----- --<br>----- ----- ---------- --- --- ------ ------ ---- -- ------<br>------- The ------ ----- --- ---- ------- -- ---- --- --<br>------- ------,239925.5,239923.69999999925,239702.572,239710.5,239719.236,239935.872,,44,The
screen,html.Screen,2_1_1_1_45,2022-05-03T11:24:34.482Z,,,,,,,,,,,,,,,,,54,,,,,,,,,,,,,,198.12799999999697,,response,,,,100,,,,,,,Space,keypress(Space),,,,,,,,-- --- ---- --- ------ ----- ------- ---- -- --- ------- --<br>------- ---------- ------ -- ----- -- ----- -- ---- ------<br>--- ----- --- --- ------ -------- ----- --- ------ ----- --<br>----- ----- ---------- --- --- ------ ------ ---- -- ------<br>------- --- French ----- --- ---- ------- -- ---- --- --<br>------- ------,240135.59999999963,240134,239919.208,239925.69999999925,239935.872,240152.512,,45,French
screen,html.Screen,2_1_1_1_46,2022-05-03T11:24:34.692Z,,,,,,,,,,,,,,,,,54,,,,,,,,,,,,,,190.78800000075717,,response,,,,100,,,,,,,Space,keypress(Space),,,,,,,,-- --- ---- --- ------ ----- ------- ---- -- --- ------- --<br>------- ---------- ------ -- ----- -- ----- -- ---- ------<br>--- ----- --- --- ------ -------- ----- --- ------ ----- --<br>----- ----- ---------- --- --- ------ ------ ---- -- ------<br>------- --- ------ state --- ---- ------- -- ---- --- --<br>------- ------,240345.19999999925,240343.30000000075,240135.848,240135.69999999925,240152.512,240352.507,,46,state
screen,html.Screen,2_1_1_1_47,2022-05-03T11:24:34.888Z,,,,,,,,,,,,,,,,,54,,,,,,,,,,,,,,187.59299999961513,,response,,,,100,,,,,,,Space,keypress(Space),,,,,,,,-- --- ---- --- ------ ----- ------- ---- -- --- ------- --<br>------- ---------- ------ -- ----- -- ----- -- ---- ------<br>--- ----- --- --- ------ -------- ----- --- ------ ----- --<br>----- ----- ---------- --- --- ------ ------ ---- -- ------<br>------- --- ------ ----- was ---- ------- -- ---- --- --<br>------- ------,240541.80000000075,240540.09999999963,240335.843,240345.40000000037,240352.507,240552.478,,47,was
screen,html.Screen,2_1_1_1_48,2022-05-03T11:24:35.086Z,,,,,,,,,,,,,,,,,54,,,,,,,,,,,,,,184.12199999962468,,response,,,,100,,,,,,,Space,keypress(Space),,,,,,,,-- --- ---- --- ------ ----- ------- ---- -- --- ------- --<br>------- ---------- ------ -- ----- -- ----- -- ---- ------<br>--- ----- --- --- ------ -------- ----- --- ------ ----- --<br>----- ----- ---------- --- --- ------ ------ ---- -- ------<br>------- --- ------ ----- --- left ------- -- ---- --- --<br>------- ------,240739.09999999963,240736.59999999963,240535.814,240541.90000000037,240552.478,240752.46,,48,left
screen,html.Screen,2_1_1_1_49,2022-05-03T11:24:35.281Z,,,,,,,,,,,,,,,,,54,,,,,,,,,,,,,,179.54000000000815,,response,,,,100,,,,,,,Space,keypress(Space),,,,,,,,-- --- ---- --- ------ ----- ------- ---- -- --- ------- --<br>------- ---------- ------ -- ----- -- ----- -- ---- ------<br>--- ----- --- --- ------ -------- ----- --- ------ ----- --<br>----- ----- ---------- --- --- ------ ------ ---- -- ------<br>------- --- ------ ----- --- ---- without -- ---- --- --<br>------- ------,240934.30000000075,240932,240735.796,240739.40000000037,240752.46,240935.769,,49,without
screen,html.Screen,2_1_1_1_50,2022-05-03T11:24:35.481Z,,,,,,,,,,,,,,,,,54,,,,,,,,,,,,,,196.6310000003723,,response,,,,100,,,,,,,Space,keypress(Space),,,,,,,,-- --- ---- --- ------ ----- ------- ---- -- --- ------- --<br>------- ---------- ------ -- ----- -- ----- -- ---- ------<br>--- ----- --- --- ------ -------- ----- --- ------ ----- --<br>----- ----- ---------- --- --- ------ ------ ---- -- ------<br>------- --- ------ ----- --- ---- ------- an ---- --- --<br>------- ------,241134.69999999925,241132.40000000037,240919.105,240934.5,240935.769,241135.754,,50,an
screen,html.Screen,2_1_1_1_51,2022-05-03T11:24:35.664Z,,,,,,,,,,,,,,,,,54,,,,,,,,,,,,,,180.24600000001374,,response,,,,100,,,,,,,Space,keypress(Space),,,,,,,,-- --- ---- --- ------ ----- ------- ---- -- --- ------- --<br>------- ---------- ------ -- ----- -- ----- -- ---- ------<br>--- ----- --- --- ------ -------- ----- --- ------ ----- --<br>----- ----- ---------- --- --- ------ ------ ---- -- ------<br>------- --- ------ ----- --- ---- ------- -- easy --- --<br>------- ------,241317.80000000075,241316,241119.09,241134.80000000075,241135.754,241319.077,,51,easy
screen,html.Screen,2_1_1_1_52,2022-05-03T11:24:35.870Z,,,,,,,,,,,,,,,,,54,,,,,,,,,,,,,,202.8230000003823,,response,,,,100,,,,,,,Space,keypress(Space),,,,,,,,-- --- ---- --- ------ ----- ------- ---- -- --- ------- --<br>------- ---------- ------ -- ----- -- ----- -- ---- ------<br>--- ----- --- --- ------ -------- ----- --- ------ ----- --<br>----- ----- ---------- --- --- ------ ------ ---- -- ------<br>------- --- ------ ----- --- ---- ------- -- ---- way --<br>------- ------,241523.59999999963,241521.90000000037,241302.413,241317.90000000037,241319.077,241535.705,,52,way
screen,html.Screen,2_1_1_1_53,2022-05-03T11:24:36.077Z,,,,,,,,,,,,,,,,,54,,,,,,,,,,,,,,192.39499999964028,,response,,,,100,,,,,,,Space,keypress(Space),,,,,,,,-- --- ---- --- ------ ----- ------- ---- -- --- ------- --<br>------- ---------- ------ -- ----- -- ----- -- ---- ------<br>--- ----- --- --- ------ -------- ----- --- ------ ----- --<br>----- ----- ---------- --- --- ------ ------ ---- -- ------<br>------- --- ------ ----- --- ---- ------- -- ---- --- of<br>------- ------,241730.40000000037,241728.09999999963,241519.041,241523.69999999925,241535.705,241735.696,,53,of
screen,html.Screen,2_1_1_1_54,2022-05-03T11:24:36.440Z,,,,,,,,,,,,,,,,,54,,,,,,,,,,,,,,356.00399999925867,,response,,,,100,,,,,,,Space,keypress(Space),,,,,,,,-- --- ---- --- ------ ----- ------- ---- -- --- ------- --<br>------- ---------- ------ -- ----- -- ----- -- ---- ------<br>--- ----- --- --- ------ -------- ----- --- ------ ----- --<br>----- ----- ---------- --- --- ------ ------ ---- -- ------<br>------- --- ------ ----- --- ---- ------- -- ---- --- --<br>raising ------,242093.59999999963,242091.69999999925,241719.032,241730.5,241735.696,242102.312,,54,raising
screen,html.Screen,2_1_1_1_55,2022-05-03T11:24:36.771Z,,,,,,,,,,,,,,,,,54,,,,,,,,,,,,,,320.18799999999464,,response,,,,100,,,,,,,Space,keypress(Space),,,,,,,,-- --- ---- --- ------ ----- ------- ---- -- --- ------- --<br>------- ---------- ------ -- ----- -- ----- -- ---- ------<br>--- ----- --- --- ------ -------- ----- --- ------ ----- --<br>----- ----- ---------- --- --- ------ ------ ---- -- ------<br>------- --- ------ ----- --- ---- ------- -- ---- --- --<br>------- money.,242424.40000000037,242422.5,242085.648,242093.69999999925,242102.312,242435.607,,55,money.
Item 100,flow.Loop,2_1_1_1,2022-05-03T11:24:36.771Z,,,,,,,,,,,,,,,,,,,,,,,,,,,,,,,13952.149000000005,,completion,,,,,H,,,,,,,,,,,silence,,,,,242424.59999999963,242422.5,228453.687,228454.90000000037,228470.351,242435.607,,,
Question 1,html.Screen,2_1_1_2,2022-05-03T11:24:39.252Z,,,,,,,,,,,,,,,,,,,,,,,,,,,,true,TRUE,,2467.893000000011,,response,,,,100,H,,,,,,TRUE,click #choice-1,,,,silence,,,,,244905.40000000037,244903.5,242418.943,242424.80000000075,242435.607,244918.712,,,
Question 2,html.Screen,2_1_1_3,2022-05-03T11:24:42.229Z,,,,,,,,,,,,,,,,,,,,,,,,,,,,true,FALSE,,2961.887999999628,,response,,,,100,H,,,,,,FALSE,click #choice-2,,,,silence,,,,,247882.19999999925,247880.59999999963,244902.048,244905.5,244918.712,247885.054,,,
Item 100,flow.Sequence,2_1_1,2022-05-03T11:24:42.229Z,,,,,,,,,,,,,,,,,,,,,,,,,,,,,,,29409.151999999624,,completion,,,,,,,,,,,,,,,,,,,,,247882.40000000037,247880.59999999963,218454.784,218457.30000000075,218471.448,247885.054,,,
End of Practice,html.Page,2_1_2,2022-05-03T11:24:44.364Z,,,,,,,,,,,,,,,,,,,,,,,,,,,,,,,2132.4459999999963,,form submission,,,,,,,,,,,,,,,,,,,,,250017.90000000037,250017.5,247868.39,247882.5,247885.054,250034.835,,,
Practice,flow.Sequence,2_1,2022-05-03T11:24:44.365Z,,,,,,,,,,,,,,,,,,,,,,,,,,,,,,,63726.05799999999,,completion,,,,,,,,,,,,,,,,,,,,,250018,250017.5,186274.779,186264.5,186291.442,250034.835,,,
Trap_instruction,html.Page,2_2_0,2022-05-03T11:24:45.318Z,,,,,,,,,,,,,,,,,,,,,,,,,,,,,,,936.4650000007532,,form submission,,,,,,,,,,,,,,,,,,,,,250971.5,250971.30000000075,250018.171,250018.19999999925,250034.835,250984.748,,,
trap_trial,html.Screen,2_2_1,2022-05-03T11:24:47.959Z,,,,,,,,,,,,,,,,,,,,,,,,,,,,true,1,,2626.7520000000077,,response,,,,,,,,,,,1,click #choice-1,,,,,,,,,253613,253611.5,250968.084,250971.69999999925,250984.748,253617.805,,,
end of trap trial,html.Page,2_2_2,2022-05-03T11:24:49.004Z,,,,,,,,,,,,,,,,,,,,,,,,,,,,,,,1038.7949999996345,,form submission,,,,,,,,,,,,,,,,,,,,,254657.5,254656.59999999963,253601.141,253613.19999999925,253617.805,254684.368,,,
Trap 1,flow.Sequence,2_2,2022-05-03T11:24:49.004Z,,,,,,,,,,,,,,,,,,,,,,,,,,,,,,,4621.764999999636,,completion,,,,,,,,,,,,,,,,,,,,,254657.69999999925,254656.59999999963,250018.171,250018.19999999925,250034.835,254684.368,,,
Standby,html.Page,2_3_0,2022-05-03T11:24:57.014Z,,,,,,,,,,,,,,,,,,,,,,,,,,,,,,,7998.755000000034,,timeout,,,,,,,,,,,,,,,,,,,,,262667.5,262666.459,254667.703,254657.90000000037,254684.368,262683.123,,,
Holding screen,html.Screen,2_3_1_0_0,2022-05-03T11:25:04.013Z,,,,,,,,,,,,,,,,,,,,,,,,,,,,,,,6999.627999999968,,timeout,,,,,,,,,,,,,,,,,,,,,269667,269666.087,262666.459,262667.69999999925,262683.123,269682.751,,,
screen,html.Screen,2_3_1_0_1_0,2022-05-03T11:25:04.442Z,,,,,,,,,,,,,,,,,40,,,,,,,,,,,,,,409.54900000075577,,response,,,,9,H,,,,,,Space,keypress(Space),,,,speech,,,,Police -- ------- ---- ---- ---- - -------- ----- --- --<br>----- ----- ------ -- ---- -- --- - ---- -- - ----- -----<br>------ ---- ------ ---- - -------- ------- -- --- --------<br>-------- ----------- ---- ------ ---- ------ ---- --- ---<br>-------- --- -----,270095.5,270092.30000000075,269666.087,269667.19999999925,269682.751,270099.407,,0,Police
screen,html.Screen,2_3_1_0_1_1,2022-05-03T11:25:04.752Z,,,,,,,,,,,,,,,,,40,,,,,,,,,,,,,,303.69299999962095,,response,,,,9,H,,,,,,Space,keypress(Space),,,,speech,,,,------ in ------- ---- ---- ---- - -------- ----- --- --<br>----- ----- ------ -- ---- -- --- - ---- -- - ----- -----<br>------ ---- ------ ---- - -------- ------- -- --- --------<br>-------- ----------- ---- ------ ---- ------ ---- --- ---<br>-------- --- -----,270405.19999999925,270403.0999999996,270082.743,270095.5999999996,270099.407,270416.062,,1,in
screen,html.Screen,2_3_1_0_1_2,2022-05-03T11:25:05.033Z,,,,,,,,,,,,,,,,,40,,,,,,,,,,,,,,268.93800000002375,,response,,,,9,H,,,,,,Space,keypress(Space),,,,speech,,,,------ -- Georgia ---- ---- ---- - -------- ----- --- --<br>----- ----- ------ -- ---- -- --- - ---- -- - ----- -----<br>------ ---- ------ ---- - -------- ------- -- --- --------<br>-------- ----------- ---- ------ ---- ------ ---- --- ---<br>-------- --- -----,270686.4000000004,270685,270399.398,270405.5,270416.062,270699.35,,2,Georgia
screen,html.Screen,2_3_1_0_1_3,2022-05-03T11:25:05.291Z,,,,,,,,,,,,,,,,,40,,,,,,,,,,,,,,243.74999999965075,,response,,,,9,H,,,,,,Space,keypress(Space),,,,speech,,,,------ -- ------- have ---- ---- - -------- ----- --- --<br>----- ----- ------ -- ---- -- --- - ---- -- - ----- -----<br>------ ---- ------ ---- - -------- ------- -- --- --------<br>-------- ----------- ---- ------ ---- ------ ---- --- ---<br>-------- --- -----,270944.69999999925,270943.0999999996,270682.686,270686.5999999996,270699.35,270949.332,,3,have
screen,html.Screen,2_3_1_0_1_4,2022-05-03T11:25:05.527Z,,,,,,,,,,,,,,,,,40,,,,,,,,,,,,,,229.2679999996326,,response,,,,9,H,,,,,,Space,keypress(Space),,,,speech,,,,------ -- ------- ---- shut ---- - -------- ----- --- --<br>----- ----- ------ -- ---- -- --- - ---- -- - ----- -----<br>------ ---- ------ ---- - -------- ------- -- --- --------<br>-------- ----------- ---- ------ ---- ------ ---- --- ---<br>-------- --- -----,271180.0999999996,271178.5999999996,270932.668,270944.80000000075,270949.332,271182.644,,4,shut
screen,html.Screen,2_3_1_0_1_5,2022-05-03T11:25:05.822Z,,,,,,,,,,,,,,,,,40,,,,,,,,,,,,,,291.15600000077393,,response,,,,9,H,,,,,,Space,keypress(Space),,,,speech,,,,------ -- ------- ---- ---- down - -------- ----- --- --<br>----- ----- ------ -- ---- -- --- - ---- -- - ----- -----<br>------ ---- ------ ---- - -------- ------- -- --- --------<br>-------- ----------- ---- ------ ---- ------ ---- --- ---<br>-------- --- -----,271475.80000000075,271473.80000000075,271165.98,271180.30000000075,271182.644,271482.608,,5,down
screen,html.Screen,2_3_1_0_1_6,2022-05-03T11:25:06.110Z,,,,,,,,,,,,,,,,,40,,,,,,,,,,,,,,279.89199999999255,,response,,,,9,H,,,,,,Space,keypress(Space),,,,speech,,,,------ -- ------- ---- ---- ---- a -------- ----- --- --<br>----- ----- ------ -- ---- -- --- - ---- -- - ----- -----<br>------ ---- ------ ---- - -------- ------- -- --- --------<br>-------- ----------- ---- ------ ---- ------ ---- --- ---<br>-------- --- -----,271763.5999999996,271762.5,271465.944,271476.0999999996,271482.608,271765.914,,6,a
screen,html.Screen,2_3_1_0_1_7,2022-05-03T11:25:06.401Z,,,,,,,,,,,,,,,,,40,,,,,,,,,,,,,,286.2859999992652,,response,,,,9,H,,,,,,Space,keypress(Space),,,,speech,,,,------ -- ------- ---- ---- ---- - lemonade ----- --- --<br>----- ----- ------ -- ---- -- --- - ---- -- - ----- -----<br>------ ---- ------ ---- - -------- ------- -- --- --------<br>-------- ----------- ---- ------ ---- ------ ---- --- ---<br>-------- --- -----,272054.5,272052.19999999925,271749.25,271763.80000000075,271765.914,272065.887,,7,lemonade
screen,html.Screen,2_3_1_0_1_8,2022-05-03T11:25:06.725Z,,,,,,,,,,,,,,,,,40,,,,,,,,,,,,,,310.2129999996396,,response,,,,9,H,,,,,,Space,keypress(Space),,,,speech,,,,------ -- ------- ---- ---- ---- - -------- stand --- --<br>----- ----- ------ -- ---- -- --- - ---- -- - ----- -----<br>------ ---- ------ ---- - -------- ------- -- --- --------<br>-------- ----------- ---- ------ ---- ------ ---- --- ---<br>-------- --- -----,272378,272376.0999999996,272049.223,272054.5999999996,272065.887,272382.514,,8,stand
screen,html.Screen,2_3_1_0_1_9,2022-05-03T11:25:06.998Z,,,,,,,,,,,,,,,,,40,,,,,,,,,,,,,,267.68599999923026,,response,,,,9,H,,,,,,Space,keypress(Space),,,,speech,,,,------ -- ------- ---- ---- ---- - -------- ----- run --<br>----- ----- ------ -- ---- -- --- - ---- -- - ----- -----<br>------ ---- ------ ---- - -------- ------- -- --- --------<br>-------- ----------- ---- ------ ---- ------ ---- --- ---<br>-------- --- -----,272651.69999999925,272650.19999999925,272365.85,272378.19999999925,272382.514,272665.826,,9,run
screen,html.Screen,2_3_1_0_1_10,2022-05-03T11:25:07.250Z,,,,,,,,,,,,,,,,,40,,,,,,,,,,,,,,235.67399999999907,,response,,,,9,H,,,,,,Space,keypress(Space),,,,speech,,,,------ -- ------- ---- ---- ---- - -------- ----- --- by<br>----- ----- ------ -- ---- -- --- - ---- -- - ----- -----<br>------ ---- ------ ---- - -------- ------- -- --- --------<br>-------- ----------- ---- ------ ---- ------ ---- --- ---<br>-------- --- -----,272903.0999999996,272901.5,272649.162,272651.9000000004,272665.826,272915.795,,10,by
screen,html.Screen,2_3_1_0_1_11,2022-05-03T11:25:07.521Z,,,,,,,,,,,,,,,,,40,,,,,,,,,,,,,,257.40499999927124,,response,,,,9,H,,,,,,Space,keypress(Space),,,,speech,,,,------ -- ------- ---- ---- ---- - -------- ----- --- --<br>three ----- ------ -- ---- -- --- - ---- -- - ----- -----<br>------ ---- ------ ---- - -------- ------- -- --- --------<br>-------- ----------- ---- ------ ---- ------ ---- --- ---<br>-------- --- -----,273175,273173.19999999925,272899.131,272903.30000000075,272915.795,273182.433,,11,three
screen,html.Screen,2_3_1_0_1_12,2022-05-03T11:25:07.746Z,,,,,,,,,,,,,,,,,40,,,,,,,,,,,,,,214.76699999923585,,response,,,,9,H,,,,,,Space,keypress(Space),,,,speech,,,,------ -- ------- ---- ---- ---- - -------- ----- --- --<br>----- girls ------ -- ---- -- --- - ---- -- - ----- -----<br>------ ---- ------ ---- - -------- ------- -- --- --------<br>-------- ----------- ---- ------ ---- ------ ---- --- ---<br>-------- --- -----,273399.19999999925,273397.19999999925,273165.769,273175.19999999925,273182.433,273415.746,,12,girls
screen,html.Screen,2_3_1_0_1_13,2022-05-03T11:25:07.972Z,,,,,,,,,,,,,,,,,40,,,,,,,,,,,,,,207.75400000001537,,response,,,,9,H,,,,,,Space,keypress(Space),,,,speech,,,,------ -- ------- ---- ---- ---- - -------- ----- --- --<br>----- ----- trying -- ---- -- --- - ---- -- - ----- -----<br>------ ---- ------ ---- - -------- ------- -- --- --------<br>-------- ----------- ---- ------ ---- ------ ---- --- ---<br>-------- --- -----,273625.5999999996,273623.5,273399.082,273399.30000000075,273415.746,273632.39,,13,trying
screen,html.Screen,2_3_1_0_1_14,2022-05-03T11:25:08.210Z,,,,,,,,,,,,,,,,,40,,,,,,,,,,,,,,229.01000000035856,,response,,,,9,H,,,,,,Space,keypress(Space),,,,speech,,,,------ -- ------- ---- ---- ---- - -------- ----- --- --<br>----- ----- ------ to ---- -- --- - ---- -- - ----- -----<br>------ ---- ------ ---- - -------- ------- -- --- --------<br>-------- ----------- ---- ------ ---- ------ ---- --- ---<br>-------- --- -----,273863.4000000004,273861.4000000004,273615.726,273625.9000000004,273632.39,273865.699,,14,to
screen,html.Screen,2_3_1_0_1_15,2022-05-03T11:25:08.429Z,,,,,,,,,,,,,,,,,40,,,,,,,,,,,,,,215.40099999960512,,response,,,,9,H,,,,,,Space,keypress(Space),,,,speech,,,,------ -- ------- ---- ---- ---- - -------- ----- --- --<br>----- ----- ------ -- save -- --- - ---- -- - ----- -----<br>------ ---- ------ ---- - -------- ------- -- --- --------<br>-------- ----------- ---- ------ ---- ------ ---- --- ---<br>-------- --- -----,274082.9000000004,274081.0999999996,273849.035,273863.5,273865.699,274099.007,,15,save
screen,html.Screen,2_3_1_0_1_16,2022-05-03T11:25:08.653Z,,,,,,,,,,,,,,,,,40,,,,,,,,,,,,,,205.29300000076182,,response,,,,9,H,,,,,,Space,keypress(Space),,,,speech,,,,------ -- ------- ---- ---- ---- - -------- ----- --- --<br>----- ----- ------ -- ---- up --- - ---- -- - ----- -----<br>------ ---- ------ ---- - -------- ------- -- --- --------<br>-------- ----------- ---- ------ ---- ------ ---- --- ---<br>-------- --- -----,274306.4000000004,274304.30000000075,274082.343,274083,274099.007,274315.653,,16,up
screen,html.Screen,2_3_1_0_1_17,2022-05-03T11:25:08.928Z,,,,,,,,,,,,,,,,,40,,,,,,,,,,,,,,264.4469999996363,,response,,,,9,H,,,,,,Space,keypress(Space),,,,speech,,,,------ -- ------- ---- ---- ---- - -------- ----- --- --<br>----- ----- ------ -- ---- -- for - ---- -- - ----- -----<br>------ ---- ------ ---- - -------- ------- -- --- --------<br>-------- ----------- ---- ------ ---- ------ ---- --- ---<br>-------- --- -----,274581.9000000004,274580.0999999996,274298.989,274306.5999999996,274315.653,274598.948,,17,for
screen,html.Screen,2_3_1_0_1_18,2022-05-03T11:25:09.163Z,,,,,,,,,,,,,,,,,40,,,,,,,,,,,,,,216.15199999965262,,response,,,,9,H,,,,,,Space,keypress(Space),,,,speech,,,,------ -- ------- ---- ---- ---- - -------- ----- --- --<br>----- ----- ------ -- ---- -- --- a ---- -- - ----- -----<br>------ ---- ------ ---- - -------- ------- -- --- --------<br>-------- ----------- ---- ------ ---- ------ ---- --- ---<br>-------- --- -----,274816.5,274815.0999999996,274582.284,274582.0999999996,274598.948,274832.268,,18,a
screen,html.Screen,2_3_1_0_1_19,2022-05-03T11:25:09.374Z,,,,,,,,,,,,,,,,,40,,,,,,,,,,,,,,193.73200000001816,,response,,,,9,H,,,,,,Space,keypress(Space),,,,speech,,,,------ -- ------- ---- ---- ---- - -------- ----- --- --<br>----- ----- ------ -- ---- -- --- - trip -- - ----- -----<br>------ ---- ------ ---- - -------- ------- -- --- --------<br>-------- ----------- ---- ------ ---- ------ ---- --- ---<br>-------- --- -----,275027.5,275026,274815.604,274816.69999999925,274832.268,275032.246,,19,trip
screen,html.Screen,2_3_1_0_1_20,2022-05-03T11:25:09.589Z,,,,,,,,,,,,,,,,,40,,,,,,,,,,,,,,208.55400000076042,,response,,,,9,H,,,,,,Space,keypress(Space),,,,speech,,,,------ -- ------- ---- ---- ---- - -------- ----- --- --<br>----- ----- ------ -- ---- -- --- - ---- to - ----- -----<br>------ ---- ------ ---- - -------- ------- -- --- --------<br>-------- ----------- ---- ------ ---- ------ ---- --- ---<br>-------- --- -----,275242.69999999925,275240.80000000075,275015.582,275027.69999999925,275032.246,275248.893,,20,to
screen,html.Screen,2_3_1_0_1_21,2022-05-03T11:25:09.809Z,,,,,,,,,,,,,,,,,40,,,,,,,,,,,,,,211.90700000076322,,response,,,,9,H,,,,,,Space,keypress(Space),,,,speech,,,,------ -- ------- ---- ---- ---- - -------- ----- --- --<br>----- ----- ------ -- ---- -- --- - ---- -- a ----- -----<br>------ ---- ------ ---- - -------- ------- -- --- --------<br>-------- ----------- ---- ------ ---- ------ ---- --- ---<br>-------- --- -----,275462.4000000004,275460.80000000075,275232.229,275242.80000000075,275248.893,275465.534,,21,a
screen,html.Screen,2_3_1_0_1_22,2022-05-03T11:25:10.011Z,,,,,,,,,,,,,,,,,40,,,,,,,,,,,,,,195.9660000000149,,response,,,,9,H,,,,,,Space,keypress(Space),,,,speech,,,,------ -- ------- ---- ---- ---- - -------- ----- --- --<br>----- ----- ------ -- ---- -- --- - ---- -- - water -----<br>------ ---- ------ ---- - -------- ------- -- --- --------<br>-------- ----------- ---- ------ ---- ------ ---- --- ---<br>-------- --- -----,275664.69999999925,275661.5,275448.87,275462.5999999996,275465.534,275665.507,,22,water
screen,html.Screen,2_3_1_0_1_23,2022-05-03T11:25:10.219Z,,,,,,,,,,,,,,,,,40,,,,,,,,,,,,,,204.8930000003893,,response,,,,9,H,,,,,,Space,keypress(Space),,,,speech,,,,"------ -- ------- ---- ---- ---- - -------- ----- --- --<br>----- ----- ------ -- ---- -- --- - ---- -- - ----- park,<br>------ ---- ------ ---- - -------- ------- -- --- --------<br>-------- ----------- ---- ------ ---- ------ ---- --- ---<br>-------- --- -----",275872.5,275870.4000000004,275648.843,275664.80000000075,275665.507,275882.158,,23,"park,"
screen,html.Screen,2_3_1_0_1_24,2022-05-03T11:25:10.465Z,,,,,,,,,,,,,,,,,40,,,,,,,,,,,,,,234.64200000074925,,response,,,,9,H,,,,,,Space,keypress(Space),,,,speech,,,,------ -- ------- ---- ---- ---- - -------- ----- --- --<br>----- ----- ------ -- ---- -- --- - ---- -- - ----- -----<br>saying ---- ------ ---- - -------- ------- -- --- --------<br>-------- ----------- ---- ------ ---- ------ ---- --- ---<br>-------- --- -----,276118.4000000004,276116.80000000075,275865.494,275872.5999999996,275882.158,276132.128,,24,saying
screen,html.Screen,2_3_1_0_1_25,2022-05-03T11:25:10.675Z,,,,,,,,,,,,,,,,,40,,,,,,,,,,,,,,194.37199999997392,,response,,,,9,H,,,,,,Space,keypress(Space),,,,speech,,,,------ -- ------- ---- ---- ---- - -------- ----- --- --<br>----- ----- ------ -- ---- -- --- - ---- -- - ----- -----<br>------ they ------ ---- - -------- ------- -- --- --------<br>-------- ----------- ---- ------ ---- ------ ---- --- ---<br>-------- --- -----,276328.19999999925,276326.5,276115.464,276118.5999999996,276132.128,276332.103,,25,they
screen,html.Screen,2_3_1_0_1_26,2022-05-03T11:25:10.877Z,,,,,,,,,,,,,,,,,40,,,,,,,,,,,,,,196.8969999999972,,response,,,,9,H,,,,,,Space,keypress(Space),,,,speech,,,,------ -- ------- ---- ---- ---- - -------- ----- --- --<br>----- ----- ------ -- ---- -- --- - ---- -- - ----- -----<br>------ ---- didn't ---- - -------- ------- -- --- --------<br>-------- ----------- ---- ------ ---- ------ ---- --- ---<br>-------- --- -----,276530.80000000075,276529,276315.439,276328.4000000004,276332.103,276532.092,,26,didn't
screen,html.Screen,2_3_1_0_1_27,2022-05-03T11:25:11.101Z,,,,,,,,,,,,,,,,,40,,,,,,,,,,,,,,219.9079999999958,,response,,,,9,H,,,,,,Space,keypress(Space),,,,speech,,,,------ -- ------- ---- ---- ---- - -------- ----- --- --<br>----- ----- ------ -- ---- -- --- - ---- -- - ----- -----<br>------ ---- ------ have - -------- ------- -- --- --------<br>-------- ----------- ---- ------ ---- ------ ---- --- ---<br>-------- --- -----,276754.19999999925,276752,276515.428,276530.9000000004,276532.092,276765.397,,27,have
screen,html.Screen,2_3_1_0_1_28,2022-05-03T11:25:11.313Z,,,,,,,,,,,,,,,,,40,,,,,,,,,,,,,,198.90300000074785,,response,,,,9,H,,,,,,Space,keypress(Space),,,,speech,,,,------ -- ------- ---- ---- ---- - -------- ----- --- --<br>----- ----- ------ -- ---- -- --- - ---- -- - ----- -----<br>------ ---- ------ ---- a -------- ------- -- --- --------<br>-------- ----------- ---- ------ ---- ------ ---- --- ---<br>-------- --- -----,276966,276964.30000000075,276748.733,276754.30000000075,276765.397,276982.037,,28,a
screen,html.Screen,2_3_1_0_1_29,2022-05-03T11:25:11.526Z,,,,,,,,,,,,,,,,,40,,,,,,,,,,,,,,196.26300000073388,,response,,,,9,H,,,,,,Space,keypress(Space),,,,speech,,,,------ -- ------- ---- ---- ---- - -------- ----- --- --<br>----- ----- ------ -- ---- -- --- - ---- -- - ----- -----<br>------ ---- ------ ---- - business ------- -- --- --------<br>-------- ----------- ---- ------ ---- ------ ---- --- ---<br>-------- --- -----,277179.9000000004,277178.30000000075,276965.373,276966.19999999925,276982.037,277182.027,,29,business
screen,html.Screen,2_3_1_0_1_30,2022-05-03T11:25:11.732Z,,,,,,,,,,,,,,,,,40,,,,,,,,,,,,,,201.67299999925308,,response,,,,9,H,,,,,,Space,keypress(Space),,,,speech,,,,------ -- ------- ---- ---- ---- - -------- ----- --- --<br>----- ----- ------ -- ---- -- --- - ---- -- - ----- -----<br>------ ---- ------ ---- - -------- license -- --- --------<br>-------- ----------- ---- ------ ---- ------ ---- --- ---<br>-------- --- -----,277385.19999999925,277383.69999999925,277165.363,277180.0999999996,277182.027,277398.666,,30,license
screen,html.Screen,2_3_1_0_1_31,2022-05-03T11:25:11.942Z,,,,,,,,,,,,,,,,,40,,,,,,,,,,,,,,195.5339999992284,,response,,,,9,H,,,,,,Space,keypress(Space),,,,speech,,,,------ -- ------- ---- ---- ---- - -------- ----- --- --<br>----- ----- ------ -- ---- -- --- - ---- -- - ----- -----<br>------ ---- ------ ---- - -------- ------- or --- --------<br>-------- ----------- ---- ------ ---- ------ ---- --- ---<br>-------- --- -----,277595.80000000075,277594.19999999925,277382.002,277385.30000000075,277398.666,277598.638,,31,or
screen,html.Screen,2_3_1_0_1_32,2022-05-03T11:25:12.129Z,,,,,,,,,,,,,,,,,40,,,,,,,,,,,,,,181.76200000039535,,response,,,,9,H,,,,,,Space,keypress(Space),,,,speech,,,,------ -- ------- ---- ---- ---- - -------- ----- --- --<br>----- ----- ------ -- ---- -- --- - ---- -- - ----- -----<br>------ ---- ------ ---- - -------- ------- -- the --------<br>-------- ----------- ---- ------ ---- ------ ---- --- ---<br>-------- --- -----,277782.30000000075,277780.4000000004,277581.974,277595.9000000004,277598.638,277798.637,,32,the
screen,html.Screen,2_3_1_0_1_33,2022-05-03T11:25:12.322Z,,,,,,,,,,,,,,,,,40,,,,,,,,,,,,,,175.06299999926705,,response,,,,9,H,,,,,,Space,keypress(Space),,,,speech,,,,------ -- ------- ---- ---- ---- - -------- ----- --- --<br>----- ----- ------ -- ---- -- --- - ---- -- - ----- -----<br>------ ---- ------ ---- - -------- ------- -- --- required<br>-------- ----------- ---- ------ ---- ------ ---- --- ---<br>-------- --- -----,277975.19999999925,277973.69999999925,277781.973,277782.4000000004,277798.637,277981.951,,33,required
screen,html.Screen,2_3_1_0_1_34,2022-05-03T11:25:12.506Z,,,,,,,,,,,,,,,,,40,,,,,,,,,,,,,,175.34900000074413,,response,,,,9,H,,,,,,Space,keypress(Space),,,,speech,,,,------ -- ------- ---- ---- ---- - -------- ----- --- --<br>----- ----- ------ -- ---- -- --- - ---- -- - ----- -----<br>------ ---- ------ ---- - -------- ------- -- --- --------<br>permits. ----------- ---- ------ ---- ------ ---- --- ---<br>-------- --- -----,278159.0999999996,278157.30000000075,277965.287,277975.30000000075,277981.951,278165.263,,34,permits.
screen,html.Screen,2_3_1_0_1_35,2022-05-03T11:25:12.700Z,,,,,,,,,,,,,,,,,40,,,,,,,,,,,,,,186.53700000076788,,response,,,,9,H,,,,,,Space,keypress(Space),,,,speech,,,,------ -- ------- ---- ---- ---- - -------- ----- --- --<br>----- ----- ------ -- ---- -- --- - ---- -- - ----- -----<br>------ ---- ------ ---- - -------- ------- -- --- --------<br>-------- Morningstar ---- ------ ---- ------ ---- --- ---<br>-------- --- -----,278353.80000000075,278351.80000000075,278148.599,278159.30000000075,278165.263,278365.234,,35,Morningstar
screen,html.Screen,2_3_1_0_1_36,2022-05-03T11:25:12.884Z,,,,,,,,,,,,,,,,,40,,,,,,,,,,,,,,170.06600000074832,,response,,,,9,H,,,,,,Space,keypress(Space),,,,speech,,,,------ -- ------- ---- ---- ---- - -------- ----- --- --<br>----- ----- ------ -- ---- -- --- - ---- -- - ----- -----<br>------ ---- ------ ---- - -------- ------- -- --- --------<br>-------- ----------- says ------ ---- ------ ---- --- ---<br>-------- --- -----,278537.19999999925,278535.30000000075,278348.57,278353.80000000075,278365.234,278548.558,,36,says
screen,html.Screen,2_3_1_0_1_37,2022-05-03T11:25:13.087Z,,,,,,,,,,,,,,,,,40,,,,,,,,,,,,,,189.74200000072597,,response,,,,9,H,,,,,,Space,keypress(Space),,,,speech,,,,------ -- ------- ---- ---- ---- - -------- ----- --- --<br>----- ----- ------ -- ---- -- --- - ---- -- - ----- -----<br>------ ---- ------ ---- - -------- ------- -- --- --------<br>-------- ----------- ---- police ---- ------ ---- --- ---<br>-------- --- -----,278740.4000000004,278738.30000000075,278531.894,278537.4000000004,278548.558,278748.525,,37,police
screen,html.Screen,2_3_1_0_1_38,2022-05-03T11:25:13.301Z,,,,,,,,,,,,,,,,,40,,,,,,,,,,,,,,203.77500000072177,,response,,,,9,H,,,,,,Space,keypress(Space),,,,speech,,,,------ -- ------- ---- ---- ---- - -------- ----- --- --<br>----- ----- ------ -- ---- -- --- - ---- -- - ----- -----<br>------ ---- ------ ---- - -------- ------- -- --- --------<br>-------- ----------- ---- ------ also ------ ---- --- ---<br>-------- --- -----,278954.30000000075,278952.30000000075,278731.861,278740.5,278748.525,278965.165,,38,also
screen,html.Screen,2_3_1_0_1_39,2022-05-03T11:25:13.488Z,,,,,,,,,,,,,,,,,40,,,,,,,,,,,,,,174.5349999992759,,response,,,,9,H,,,,,,Space,keypress(Space),,,,speech,,,,------ -- ------- ---- ---- ---- - -------- ----- --- --<br>----- ----- ------ -- ---- -- --- - ---- -- - ----- -----<br>------ ---- ------ ---- - -------- ------- -- --- --------<br>-------- ----------- ---- ------ ---- didn't ---- --- ---<br>-------- --- -----,279141.80000000075,279139.69999999925,278948.501,278954.5,278965.165,279148.483,,39,didn't
screen,html.Screen,2_3_1_0_1_40,2022-05-03T11:25:13.685Z,,,,,,,,,,,,,,,,,40,,,,,,,,,,,,,,187.8170000007376,,response,,,,9,H,,,,,,Space,keypress(Space),,,,speech,,,,------ -- ------- ---- ---- ---- - -------- ----- --- --<br>----- ----- ------ -- ---- -- --- - ---- -- - ----- -----<br>------ ---- ------ ---- - -------- ------- -- --- --------<br>-------- ----------- ---- ------ ---- ------ know --- ---<br>-------- --- -----,279338.19999999925,279336.30000000075,279131.819,279141.9000000004,279148.483,279348.46,,40,know
screen,html.Screen,2_3_1_0_1_41,2022-05-03T11:25:13.849Z,,,,,,,,,,,,,,,,,40,,,,,,,,,,,,,,151.8400000007241,,response,,,,9,H,,,,,,Space,keypress(Space),,,,speech,,,,------ -- ------- ---- ---- ---- - -------- ----- --- --<br>----- ----- ------ -- ---- -- --- - ---- -- - ----- -----<br>------ ---- ------ ---- - -------- ------- -- --- --------<br>-------- ----------- ---- ------ ---- ------ ---- how ---<br>-------- --- -----,279502.0999999996,279500.30000000075,279331.796,279338.4000000004,279348.46,279515.114,,41,how
screen,html.Screen,2_3_1_0_1_42,2022-05-03T11:25:14.076Z,,,,,,,,,,,,,,,,,40,,,,,,,,,,,,,,212.78600000037113,,response,,,,9,H,,,,,,Space,keypress(Space),,,,speech,,,,------ -- ------- ---- ---- ---- - -------- ----- --- --<br>----- ----- ------ -- ---- -- --- - ---- -- - ----- -----<br>------ ---- ------ ---- - -------- ------- -- --- --------<br>-------- ----------- ---- ------ ---- ------ ---- --- the<br>-------- --- -----,279729.9000000004,279727.9000000004,279498.45,279502.19999999925,279515.114,279731.756,,42,the
screen,html.Screen,2_3_1_0_1_43,2022-05-03T11:25:14.365Z,,,,,,,,,,,,,,,,,40,,,,,,,,,,,,,,284.943999999261,,response,,,,9,H,,,,,,Space,keypress(Space),,,,speech,,,,------ -- ------- ---- ---- ---- - -------- ----- --- --<br>----- ----- ------ -- ---- -- --- - ---- -- - ----- -----<br>------ ---- ------ ---- - -------- ------- -- --- --------<br>-------- ----------- ---- ------ ---- ------ ---- --- ---<br>lemonade --- -----,280018.69999999925,280016.69999999925,279715.092,279730.0999999996,279731.756,280031.717,,43,lemonade
screen,html.Screen,2_3_1_0_1_44,2022-05-03T11:25:14.639Z,,,,,,,,,,,,,,,,,40,,,,,,,,,,,,,,258.18300000036834,,response,,,,9,H,,,,,,Space,keypress(Space),,,,speech,,,,------ -- ------- ---- ---- ---- - -------- ----- --- --<br>----- ----- ------ -- ---- -- --- - ---- -- - ----- -----<br>------ ---- ------ ---- - -------- ------- -- --- --------<br>-------- ----------- ---- ------ ---- ------ ---- --- ---<br>-------- was -----,280292.30000000075,280289.9000000004,280015.053,280018.80000000075,280031.717,280298.368,,44,was
screen,html.Screen,2_3_1_0_1_45,2022-05-03T11:25:14.972Z,,,,,,,,,,,,,,,,,40,,,,,,,,,,,,,,324.9320000007283,,response,,,,9,H,,,,,,Space,keypress(Space),,,,speech,,,,------ -- ------- ---- ---- ---- - -------- ----- --- --<br>----- ----- ------ -- ---- -- --- - ---- -- - ----- -----<br>------ ---- ------ ---- - -------- ------- -- --- --------<br>-------- ----------- ---- ------ ---- ------ ---- --- ---<br>-------- --- made.,280625.19999999925,280623.30000000075,280281.704,280292.5,280298.368,280631.65,,45,made.
Item 9,flow.Loop,2_3_1_0_1,2022-05-03T11:25:14.972Z,,,,,,,,,,,,,,,,,,,,,,,,,,,,,,,10940.549000000756,,completion,,,,,,,,,,,,,,,,,,,,,280625.4000000004,280623.30000000075,269666.087,269667.0999999996,269682.751,280631.65,,,
Question 1,html.Screen,2_3_1_0_2,2022-05-03T11:25:17.483Z,,,,,,,,,,,,,,,,,,,,,,,,,,,,true,FALSE,,2502.8499999999767,,response,,,,9,H,,,,,,FALSE,click #choice-2,,,,speech,,,,,283136.19999999925,283134.5,280614.986,280625.5,280631.65,283148.07,,,
