sender,sender_type,sender_id,timestamp,meta,,Blues,Classical,Country,Dance,Electronic,Folk,Gospel,Hip-Hop,Jazz,Latin,Musical/Film,New-age,Pop,Prolific_id,Provo_ID,R&B,Rap,Reggae,Religious,Rock,Soul,Swing,Traditional,age,artist_name,correct,correctResponse,distraction,duration,education,ended_on,familiarity,gender,headphone_check_performance,item,list,music_frequency,offensiveness,pleasantness,position_correct,preference,response,response_action,snippet_file,song_name,song_rating,sound,stimulus_1,stimulus_2,stimulus_3,text,time_commit,time_end,time_render,time_run,time_show,time_switch,url,word,word_ID
Prolific ID,html.Form,0,2022-05-03T19:54:24.440Z,"{""labjs_version"":""20.2.2"",""labjs_build"":{""flavor"":""production"",""commit"":""a25486e0c714a0ae2ce03ff94b7bb6896854dcfa""},""location"":""https://run.pavlovia.org/mvasilev/prolific3_music_a/"",""userAgent"":""Mozilla/5.0 (Windows NT 10.0; Win64; x64) AppleWebKit/537.36 (KHTML, like Gecko) Chrome/101.0.4951.41 Safari/537.36 Edg/101.0.1210.32"",""platform"":""Win32"",""language"":""en-GB"",""locale"":""en-GB"",""timeZone"":""Europe/London"",""timezoneOffset"":-60,""screen_width"":1536,""screen_height"":864,""scroll_width"":1536,""scroll_height"":666,""window_innerWidth"":1536,""window_innerHeight"":714,""devicePixelRatio"":1.25}",,,,,,,,,,,,,,,5f8b4560fc6686262722efdb,,,,,,,,,,,,,,,6538.158999952313,,form submission,,,,,,,,,,,,,,,,,,,,,67305.79999995232,67304.79999995232,60733.38,60745.200000047684,60766.641,67313.438,{},,
Introduction,html.Screen,1_0,2022-05-03T19:54:37.377Z,,,,,,,,,,,,,,,,,,,,,,,,,,,,,,,12926.662000143057,,response,,,,,,,,,,,continue,click button,,,,,,,,,80242.5,80240.10000014305,67296.785,67307,67313.438,80257.02,,,
Volume calibration,html.Screen,1_1,2022-05-03T19:55:24.594Z,,,,,,,,,,,,,,,,,,,,,,,,,,,,,,,47199.479999999996,,response,,,,,,,,,,,continue,click button,,,,,,,,,127459.79999995232,127456.5,80240.421,80242.70000004768,80257.02,127467.19,,,
Task instructions,html.Screen,1_2,2022-05-03T19:55:50.657Z,,,,,,,,,,,,,,,,,,,,,,,,,,,,,,,26054.210000095365,,response,,,,,,,,,,,continue,click button,,,,,,,,,153522.60000014305,153521.40000009537,127450.569,127459.90000009537,127467.19,153537.68,,,
Sounds,html.Screen,1_3_0_0,2022-05-03T19:55:54.910Z,,,,,,,,,,,,,,,,,,,,,,,,,,,,,,,4247.958000000013,,timeout,,,,,,,,,3,,,,,,,,O,I,S,,157775.40000009537,157768.949,153521.095,153522.90000009537,153537.68,157785.638,,,
Judgement,html.Screen,1_3_0_1,2022-05-03T19:55:57.488Z,,,,,,,,,,,,,,,,,,,,,,,,,,,,true,3,,2567.16199995231,,response,,,,,,,,,3,,3,click #choice-3,,,,,O,I,S,,160353.79999995232,160352.79999995232,157768.949,157775.5,157785.638,160367.638,,,
Trial,flow.Sequence,1_3_0,2022-05-03T19:55:57.488Z,,,,,,,,,,,,,,,,,,,,,,,,,,,,,,,6815.119999952323,,completion,,,,,,,,,3,,,,,,,,O,I,S,,160353.90000009537,160352.79999995232,153521.095,153522.90000009537,153537.68,160367.638,,,
Sounds,html.Screen,1_3_1_0,2022-05-03T19:56:01.734Z,,,,,,,,,,,,,,,,,,,,,,,,,,,,,,,4247.869999999995,,timeout,,,,,,,,,3,,,,,,,,I,O,S,,164599.5,164598.929,160351.002,160354.40000009537,160367.638,164615.508,,,
Judgement,html.Screen,1_3_1_1,2022-05-03T19:56:02.360Z,,,,,,,,,,,,,,,,,,,,,,,,,,,,true,3,,608.9919999999984,,response,,,,,,,,,3,,3,click #choice-3,,,,,I,O,S,,165225.79999995232,165224.5,164598.929,164599.70000004768,164615.508,165231.882,,,
Trial,flow.Sequence,1_3_1,2022-05-03T19:56:02.360Z,,,,,,,,,,,,,,,,,,,,,,,,,,,,,,,4856.861999999994,,completion,,,,,,,,,3,,,,,,,,I,O,S,,165226,165224.5,160351.002,160354,160367.638,165231.882,,,
Sounds,html.Screen,1_3_2_0,2022-05-03T19:56:06.599Z,,,,,,,,,,,,,,,,,,,,,,,,,,,,,,,4247.947999999975,,timeout,,,,,,,,,2,,,,,,,,I,S,O,,169464.29999995232,169463.197,165215.278,165226.10000014305,165231.882,169479.83,,,
Judgement,html.Screen,1_3_2_1,2022-05-03T19:56:07.215Z,,,,,,,,,,,,,,,,,,,,,,,,,,,,true,2,,600.5700000953802,,response,,,,,,,,,2,,2,click #choice-2,,,,,I,S,O,,170081.20000004768,170080.40000009537,169463.197,169464.5,169479.83,170096.238,,,
Trial,flow.Sequence,1_3_2,2022-05-03T19:56:07.216Z,,,,,,,,,,,,,,,,,,,,,,,,,,,,,,,4848.518000095355,,completion,,,,,,,,,2,,,,,,,,I,S,O,,170081.29999995232,170080.40000009537,165215.278,165226.10000014305,165231.882,170096.238,,,
Sounds,html.Screen,1_3_3_0,2022-05-03T19:56:11.463Z,,,,,,,,,,,,,,,,,,,,,,,,,,,,,,,4247.744999999995,,timeout,,,,,,,,,2,,,,,,,,O,S,I,,174328.5,174327.376,170079.569,170081.40000009537,170096.238,174343.983,,,
Judgement,html.Screen,1_3_3_1,2022-05-03T19:56:12.032Z,,,,,,,,,,,,,,,,,,,,,,,,,,,,true,2,,552.5169999999925,,response,,,,,,,,,2,,2,click #choice-2,,,,,O,S,I,,174897.40000009537,174896.5,174327.376,174328.60000014305,174343.983,174910.484,,,
Trial,flow.Sequence,1_3_3,2022-05-03T19:56:12.032Z,,,,,,,,,,,,,,,,,,,,,,,,,,,,,,,4800.261999999988,,completion,,,,,,,,,2,,,,,,,,O,S,I,,174897.60000014305,174896.5,170079.569,170081.40000009537,170096.238,174910.484,,,
Sounds,html.Screen,1_3_4_0,2022-05-03T19:56:16.277Z,,,,,,,,,,,,,,,,,,,,,,,,,,,,,,,4247.91399999999,,timeout,,,,,,,,,1,,,,,,,,S,O,I,,179143.10000014305,179141.726,174893.901,174897.70000004768,174910.484,179158.398,,,
Judgement,html.Screen,1_3_4_1,2022-05-03T19:56:16.888Z,,,,,,,,,,,,,,,,,,,,,,,,,,,,true,1,,594.3020000476972,,response,,,,,,,,,1,,1,click #choice-1,,,,,S,O,I,,179753.60000014305,179752.70000004768,179141.726,179143.29999995232,179158.398,179758.034,,,
Trial,flow.Sequence,1_3_4,2022-05-03T19:56:16.888Z,,,,,,,,,,,,,,,,,,,,,,,,,,,,,,,4842.216000047687,,completion,,,,,,,,,1,,,,,,,,S,O,I,,179753.70000004768,179752.70000004768,174893.901,174897.60000014305,174910.484,179758.034,,,
Sounds,html.Screen,1_3_5_0,2022-05-03T19:56:21.124Z,,,,,,,,,,,,,,,,,,,,,,,,,,,,,,,4247.854999999981,,timeout,,,,,,,,,1,,,,,,,,S,I,O,,183990.10000014305,183989.433,179741.454,179753.90000009537,179758.034,184005.889,,,
Judgement,html.Screen,1_3_5_1,2022-05-03T19:56:21.800Z,,,,,,,,,,,,,,,,,,,,,,,,,,,,true,1,,658.9109999523207,,response,,,,,,,,,1,,1,click #choice-1,,,,,S,I,O,,184665.60000014305,184664.79999995232,183989.433,183990.20000004768,184005.889,184672.253,,,
Trial,flow.Sequence,1_3_5,2022-05-03T19:56:21.800Z,,,,,,,,,,,,,,,,,,,,,,,,,,,,,,,4906.765999952302,,completion,,,,,,,,,1,,,,,,,,S,I,O,,184665.79999995232,184664.79999995232,179741.454,179753.90000009537,179758.034,184672.253,,,
Task,flow.Loop,1_3,2022-05-03T19:56:21.805Z,,,,,,,,,,,,,,,,,,,,,,,,,,,,,,,31127.119999952323,,completion,,,1,,,,,,,,,,,,,,,,,,184670.90000009537,184664.79999995232,153521.095,153522.70000004768,153537.68,184672.253,,,
Trap,html.Screen,1_4,2022-05-03T19:56:21.806Z,,,,,,,,,,,,,,,,,,,,,,,,,,,,,,,NaN,,skipped,,,,,,,,,,,,,,,,,,,,,184672.40000009537,184664.79999995232,,184672.20000004768,,184672.253,,,
Thanks,html.Screen,1_5,2022-05-03T19:56:26.967Z,,,,,,,,,,,,,,,,,,,,,,,,,,,,,,,5160.247000000003,,response,,,,,,,,,,,continue,click button,,,,,,,,,189833.40000009537,189832.5,184655.75,184672.60000014305,184672.253,194467.437,,,
Headphone screening,flow.Sequence,1,2022-05-03T19:56:26.968Z,,,,,,,,,,,,,,,,,,,,,,,,,,,,,,,122519.062,,completion,,,,,,,,,,,,,,,,,,,,,189833.5,189832.5,67296.785,67306.90000009537,67313.438,194467.437,,,
Instructions,html.Page,2_0,2022-05-03T19:57:20.135Z,,,,,,,,,,,,,,,,,,,,,,,,,,,,,,,48533.562999999995,,form submission,,,,,,,,,,,,,,,,,,,,,243001.20000004768,243001,194450.749,194467.90000009537,194467.437,243010.316,,,
Holding screen,html.Screen,2_1_0_0,2022-05-03T19:57:30.124Z,,,,,,,,,,,,,,,,,,,,,,,,,,,,,,,10011.614000000001,,timeout,,,,,,,,,,,,,,,,,,,,,252989.90000009537,252988.692,242993.597,243001.29999995232,243010.316,253021.93,,,
screen,html.Screen,2_1_0_1_0,2022-05-03T19:57:31.290Z,,,,,,,,,,,,,,,,,53,,,,,,,,,,,,,,1127.9700000953744,,response,,,,99,,,,,,,Space,keypress(Space),,,,,,,,When -- ----- -- ------ - ------- --- ----------<br>------------- ------ ------ ---- ---- ------- ----- -- ----<br>-------- ------- -- ---------- --- - --- ----- ----- ----<br>---- --- --- ----- --- ---- ---- ------- ----- ---- -------<br>--- --- -- ----- -- --- ---- -- --- ---- -- ------ ------<br>--- ----- -- ----,254155.60000014305,254149.90000009537,252988.692,252990.29999995232,253021.93,254171.481,,0,When
screen,html.Screen,2_1_0_1_1,2022-05-03T19:57:31.869Z,,,,,,,,,,,,,,,,,53,,,,,,,,,,,,,,561.4190000953677,,response,,,,99,,,,,,,Space,keypress(Space),,,,,,,,---- it ----- -- ------ - ------- --- ----------<br>------------- ------ ------ ---- ---- ------- ----- -- ----<br>-------- ------- -- ---------- --- - --- ----- ----- ----<br>---- --- --- ----- --- ---- ---- ------- ----- ---- -------<br>--- --- -- ----- -- --- ---- -- --- ---- -- ------ ------<br>--- ----- -- ----,254734.5,254732.90000009537,254154.749,254155.70000004768,254171.481,254754.503,,1,it
screen,html.Screen,2_1_0_1_2,2022-05-03T19:57:32.493Z,,,,,,,,,,,,,,,,,53,,,,,,,,,,,,,,603.997000000003,,response,,,,99,,,,,,,Space,keypress(Space),,,,,,,,---- -- comes -- ------ - ------- --- ----------<br>------------- ------ ------ ---- ---- ------- ----- -- ----<br>-------- ------- -- ---------- --- - --- ----- ----- ----<br>---- --- --- ----- --- ---- ---- ------- ----- ---- -------<br>--- --- -- ----- -- --- ---- -- --- ---- -- ------ ------<br>--- ----- -- ----,255359,255358.5,254737.843,254734.79999995232,254754.503,255370.789,,2,comes
screen,html.Screen,2_1_0_1_3,2022-05-03T19:57:33.053Z,,,,,,,,,,,,,,,,,53,,,,,,,,,,,,,,547.1110000953777,,response,,,,99,,,,,,,Space,keypress(Space),,,,,,,,---- -- ----- to ------ - ------- --- ----------<br>------------- ------ ------ ---- ---- ------- ----- -- ----<br>-------- ------- -- ---------- --- - --- ----- ----- ----<br>---- --- --- ----- --- ---- ---- ------- ----- ---- -------<br>--- --- -- ----- -- --- ---- -- --- ---- -- ------ ------<br>--- ----- -- ----,255919.10000014305,255917.90000009537,255354.129,255359.10000014305,255370.789,255937.133,,3,to
screen,html.Screen,2_1_0_1_4,2022-05-03T19:57:33.646Z,,,,,,,,,,,,,,,,,53,,,,,,,,,,,,,,573.9670001430495,,response,,,,99,,,,,,,Space,keypress(Space),,,,,,,,---- -- ----- -- having - ------- --- ----------<br>------------- ------ ------ ---- ---- ------- ----- -- ----<br>-------- ------- -- ---------- --- - --- ----- ----- ----<br>---- --- --- ----- --- ---- ---- ------- ----- ---- -------<br>--- --- -- ----- -- --- ---- -- --- ---- -- ------ ------<br>--- ----- -- ----,256512.20000004768,256511.10000014305,255903.913,255919.29999995232,255937.133,256520.304,,4,having
screen,html.Screen,2_1_0_1_5,2022-05-03T19:57:34.192Z,,,,,,,,,,,,,,,,,53,,,,,,,,,,,,,,536.7960001430474,,response,,,,99,,,,,,,Space,keypress(Space),,,,,,,,---- -- ----- -- ------ a ------- --- ----------<br>------------- ------ ------ ---- ---- ------- ----- -- ----<br>-------- ------- -- ---------- --- - --- ----- ----- ----<br>---- --- --- ----- --- ---- ---- ------- ----- ---- -------<br>--- --- -- ----- -- --- ---- -- --- ---- -- ------ ------<br>--- ----- -- ----,257057.5,257057.10000014305,256503.621,256512.40000009537,256520.304,257070,,5,a
screen,html.Screen,2_1_0_1_6,2022-05-03T19:57:34.917Z,,,,,,,,,,,,,,,,,53,,,,,,,,,,,,,,711.5,,response,,,,99,,,,,,,Space,keypress(Space),,,,,,,,---- -- ----- -- ------ - lasting --- ----------<br>------------- ------ ------ ---- ---- ------- ----- -- ----<br>-------- ------- -- ---------- --- - --- ----- ----- ----<br>---- --- --- ----- --- ---- ---- ------- ----- ---- -------<br>--- --- -- ----- -- --- ---- -- --- ---- -- ------ ------<br>--- ----- -- ----,257782.70000004768,257781.5,257053.251,257057.70000004768,257070,257786.286,,6,lasting
screen,html.Screen,2_1_0_1_7,2022-05-03T19:57:35.473Z,,,,,,,,,,,,,,,,,53,,,,,,,,,,,,,,551.1140000953746,,response,,,,99,,,,,,,Space,keypress(Space),,,,,,,,---- -- ----- -- ------ - ------- and ----------<br>------------- ------ ------ ---- ---- ------- ----- -- ----<br>-------- ------- -- ---------- --- - --- ----- ----- ----<br>---- --- --- ----- --- ---- ---- ------- ----- ---- -------<br>--- --- -- ----- -- --- ---- -- --- ---- -- ------ ------<br>--- ----- -- ----,258338.70000004768,258337.40000009537,257769.555,257782.90000009537,257786.286,258352.758,,7,and
screen,html.Screen,2_1_0_1_8,2022-05-03T19:57:36.021Z,,,,,,,,,,,,,,,,,53,,,,,,,,,,,,,,533.0419999523147,,response,,,,99,,,,,,,Space,keypress(Space),,,,,,,,---- -- ----- -- ------ - ------- --- fulfilling<br>------------- ------ ------ ---- ---- ------- ----- -- ----<br>-------- ------- -- ---------- --- - --- ----- ----- ----<br>---- --- --- ----- --- ---- ---- ------- ----- ---- -------<br>--- --- -- ----- -- --- ---- -- --- ---- -- ------ ------<br>--- ----- -- ----,258887,258885.79999995232,258335.956,258338.79999995232,258352.758,258902.388,,8,fulfilling
screen,html.Screen,2_1_0_1_9,2022-05-03T19:57:36.639Z,,,,,,,,,,,,,,,,,53,,,,,,,,,,,,,,601.6119999999937,,response,,,,99,,,,,,,Space,keypress(Space),,,,,,,,"---- -- ----- -- ------ - ------- --- ----------<br>relationship, ------ ------ ---- ---- ------- ----- -- ----<br>-------- ------- -- ---------- --- - --- ----- ----- ----<br>---- --- --- ----- --- ---- ---- ------- ----- ---- -------<br>--- --- -- ----- -- --- ---- -- --- ---- -- ------ ------<br>--- ----- -- ----",259505.20000004768,259504,258885.646,258887.20000004768,258902.388,259518.851,,9,"relationship,"
screen,html.Screen,2_1_0_1_10,2022-05-03T19:57:37.252Z,,,,,,,,,,,,,,,,,53,,,,,,,,,,,,,,598.249000143056,,response,,,,99,,,,,,,Space,keypress(Space),,,,,,,,---- -- ----- -- ------ - ------- --- ----------<br>------------- common ------ ---- ---- ------- ----- -- ----<br>-------- ------- -- ---------- --- - --- ----- ----- ----<br>---- --- --- ----- --- ---- ---- ------- ----- ---- -------<br>--- --- -- ----- -- --- ---- -- --- ---- -- ------ ------<br>--- ----- -- ----,260118.20000004768,260117.10000014305,259502.036,259505.5,259518.851,260135.183,,10,common
screen,html.Screen,2_1_0_1_11,2022-05-03T19:57:38.047Z,,,,,,,,,,,,,,,,,53,,,,,,,,,,,,,,776.2170000953774,,response,,,,99,,,,,,,Space,keypress(Space),,,,,,,,---- -- ----- -- ------ - ------- --- ----------<br>------------- ------ wisdom ---- ---- ------- ----- -- ----<br>-------- ------- -- ---------- --- - --- ----- ----- ----<br>---- --- --- ----- --- ---- ---- ------- ----- ---- -------<br>--- --- -- ----- -- --- ---- -- --- ---- -- ------ ------<br>--- ----- -- ----,260912.60000014305,260911.40000009537,260118.489,260118.40000009537,260135.183,260918.012,,11,wisdom
screen,html.Screen,2_1_0_1_12,2022-05-03T19:57:38.759Z,,,,,,,,,,,,,,,,,53,,,,,,,,,,,,,,705.5880001430633,,response,,,,99,,,,,,,Space,keypress(Space),,,,,,,,---- -- ----- -- ------ - ------- --- ----------<br>------------- ------ ------ says ---- ------- ----- -- ----<br>-------- ------- -- ---------- --- - --- ----- ----- ----<br>---- --- --- ----- --- ---- ---- ------- ----- ---- -------<br>--- --- -- ----- -- --- ---- -- --- ---- -- ------ ------<br>--- ----- -- ----,261624.70000004768,261623.60000014305,260901.441,260912.79999995232,260918.012,261651.071,,12,says
screen,html.Screen,2_1_0_1_13,2022-05-03T19:57:39.203Z,,,,,,,,,,,,,,,,,53,,,,,,,,,,,,,,417.22899995232,,response,,,,99,,,,,,,Space,keypress(Space),,,,,,,,---- -- ----- -- ------ - ------- --- ----------<br>------------- ------ ------ ---- that ------- ----- -- ----<br>-------- ------- -- ---------- --- - --- ----- ----- ----<br>---- --- --- ----- --- ---- ---- ------- ----- ---- -------<br>--- --- -- ----- -- --- ---- -- --- ---- -- ------ ------<br>--- ----- -- ----,262069.10000014305,262068.29999995232,261634.441,261625.10000014305,261651.071,262084.282,,13,that
screen,html.Screen,2_1_0_1_14,2022-05-03T19:57:39.758Z,,,,,,,,,,,,,,,,,53,,,,,,,,,,,,,,539.2179999999935,,response,,,,99,,,,,,,Space,keypress(Space),,,,,,,,---- -- ----- -- ------ - ------- --- ----------<br>------------- ------ ------ ---- ---- feeling ----- -- ----<br>-------- ------- -- ---------- --- - --- ----- ----- ----<br>---- --- --- ----- --- ---- ---- ------- ----- ---- -------<br>--- --- -- ----- -- --- ---- -- --- ---- -- ------ ------<br>--- ----- -- ----,262624.10000014305,262623.5,262067.451,262069.29999995232,262084.282,262633.864,,14,feeling
screen,html.Screen,2_1_0_1_15,2022-05-03T19:57:40.377Z,,,,,,,,,,,,,,,,,53,,,,,,,,,,,,,,607.8360000476823,,response,,,,99,,,,,,,Space,keypress(Space),,,,,,,,---- -- ----- -- ------ - ------- --- ----------<br>------------- ------ ------ ---- ---- ------- close -- ----<br>-------- ------- -- ---------- --- - --- ----- ----- ----<br>---- --- --- ----- --- ---- ---- ------- ----- ---- -------<br>--- --- -- ----- -- --- ---- -- --- ---- -- ------ ------<br>--- ----- -- ----,263242.90000009537,263241.7000000477,262617.173,262624.2000000477,262633.864,263266.995,,15,close
screen,html.Screen,2_1_0_1_16,2022-05-03T19:57:40.787Z,,,,,,,,,,,,,,,,,53,,,,,,,,,,,,,,385.1050001430558,,response,,,,99,,,,,,,Space,keypress(Space),,,,,,,,---- -- ----- -- ------ - ------- --- ----------<br>------------- ------ ------ ---- ---- ------- ----- to ----<br>-------- ------- -- ---------- --- - --- ----- ----- ----<br>---- --- --- ----- --- ---- ---- ------- ----- ---- -------<br>--- --- -- ----- -- --- ---- -- --- ---- -- ------ ------<br>--- ----- -- ----,263653.2000000477,263652.10000014305,263250.275,263243.10000014305,263266.995,263666.792,,16,to
screen,html.Screen,2_1_0_1_17,2022-05-03T19:57:41.271Z,,,,,,,,,,,,,,,,,53,,,,,,,,,,,,,,468.70799999998417,,response,,,,99,,,,,,,Space,keypress(Space),,,,,,,,---- -- ----- -- ------ - ------- --- ----------<br>------------- ------ ------ ---- ---- ------- ----- -- your<br>-------- ------- -- ---------- --- - --- ----- ----- ----<br>---- --- --- ----- --- ---- ---- ------- ----- ---- -------<br>--- --- -- ----- -- --- ---- -- --- ---- -- ------ ------<br>--- ----- -- ----,264136.7000000477,264135.5,263650.072,263653.60000014305,263666.792,264149.884,,17,your
screen,html.Screen,2_1_0_1_18,2022-05-03T19:57:41.990Z,,,,,,,,,,,,,,,,,53,,,,,,,,,,,,,,704.9159999522963,,response,,,,99,,,,,,,Space,keypress(Space),,,,,,,,---- -- ----- -- ------ - ------- --- ----------<br>------------- ------ ------ ---- ---- ------- ----- -- ----<br>romantic ------- -- ---------- --- - --- ----- ----- ----<br>---- --- --- ----- --- ---- ---- ------- ----- ---- -------<br>--- --- -- ----- -- --- ---- -- --- ---- -- ------ ------<br>--- ----- -- ----,264856,264854.7999999523,264133.098,264137.10000014305,264149.884,264882.859,,18,romantic
screen,html.Screen,2_1_0_1_19,2022-05-03T19:57:42.645Z,,,,,,,,,,,,,,,,,53,,,,,,,,,,,,,,627.1410000000033,,response,,,,99,,,,,,,Space,keypress(Space),,,,,,,,---- -- ----- -- ------ - ------- --- ----------<br>------------- ------ ------ ---- ---- ------- ----- -- ----<br>-------- partner -- ---------- --- - --- ----- ----- ----<br>---- --- --- ----- --- ---- ---- ------- ----- ---- -------<br>--- --- -- ----- -- --- ---- -- --- ---- -- ------ ------<br>--- ----- -- ----,265511,265510,264866.163,264856.2000000477,264882.859,265515.732,,19,partner
screen,html.Screen,2_1_0_1_20,2022-05-03T19:57:43.205Z,,,,,,,,,,,,,,,,,53,,,,,,,,,,,,,,554.7679999999818,,response,,,,99,,,,,,,Space,keypress(Space),,,,,,,,---- -- ----- -- ------ - ------- --- ----------<br>------------- ------ ------ ---- ---- ------- ----- -- ----<br>-------- ------- is ---------- --- - --- ----- ----- ----<br>---- --- --- ----- --- ---- ---- ------- ----- ---- -------<br>--- --- -- ----- -- --- ---- -- --- ---- -- ------ ------<br>--- ----- -- ----,266071.2000000477,266070.5,265499.109,265511.40000009537,265515.732,266082.258,,20,is
screen,html.Screen,2_1_0_1_21,2022-05-03T19:57:44.308Z,,,,,,,,,,,,,,,,,53,,,,,,,,,,,,,,1090.5419999523438,,response,,,,99,,,,,,,Space,keypress(Space),,,,,,,,---- -- ----- -- ------ - ------- --- ----------<br>------------- ------ ------ ---- ---- ------- ----- -- ----<br>-------- ------- -- paramount. --- - --- ----- ----- ----<br>---- --- --- ----- --- ---- ---- ------- ----- ---- -------<br>--- --- -- ----- -- --- ---- -- --- ---- -- ------ ------<br>--- ----- -- ----,267173.90000009537,267172.7999999523,266065.529,266071.2999999523,266082.258,267181.678,,21,paramount.
screen,html.Screen,2_1_0_1_22,2022-05-03T19:57:45.222Z,,,,,,,,,,,,,,,,,53,,,,,,,,,,,,,,904.722000095353,,response,,,,99,,,,,,,Space,keypress(Space),,,,,,,,---- -- ----- -- ------ - ------- --- ----------<br>------------- ------ ------ ---- ---- ------- ----- -- ----<br>-------- ------- -- ---------- But - --- ----- ----- ----<br>---- --- --- ----- --- ---- ---- ------- ----- ---- -------<br>--- --- -- ----- -- --- ---- -- --- ---- -- ------ ------<br>--- ----- -- ----,268087.60000014305,268086.40000009537,267164.976,267174.10000014305,267181.678,268097.947,,22,But
screen,html.Screen,2_1_0_1_23,2022-05-03T19:57:45.898Z,,,,,,,,,,,,,,,,,53,,,,,,,,,,,,,,664.7530000476982,,response,,,,99,,,,,,,Space,keypress(Space),,,,,,,,---- -- ----- -- ------ - ------- --- ----------<br>------------- ------ ------ ---- ---- ------- ----- -- ----<br>-------- ------- -- ---------- --- a --- ----- ----- ----<br>---- --- --- ----- --- ---- ---- ------- ----- ---- -------<br>--- --- -- ----- -- --- ---- -- --- ---- -- ------ ------<br>--- ----- -- ----,268763.90000009537,268762.7000000477,268081.227,268087.90000009537,268097.947,268780.943,,23,a
screen,html.Screen,2_1_0_1_24,2022-05-03T19:57:46.584Z,,,,,,,,,,,,,,,,,53,,,,,,,,,,,,,,667.7570000476553,,response,,,,99,,,,,,,Space,keypress(Space),,,,,,,,---- -- ----- -- ------ - ------- --- ----------<br>------------- ------ ------ ---- ---- ------- ----- -- ----<br>-------- ------- -- ---------- --- - new ----- ----- ----<br>---- --- --- ----- --- ---- ---- ------- ----- ---- -------<br>--- --- -- ----- -- --- ---- -- --- ---- -- ------ ------<br>--- ----- -- ----,269450.10000014305,269448.7000000477,268764.201,268764.2000000477,268780.943,269463.919,,24,new
screen,html.Screen,2_1_0_1_25,2022-05-03T19:57:47.253Z,,,,,,,,,,,,,,,,,53,,,,,,,,,,,,,,652.981000095373,,response,,,,99,,,,,,,Space,keypress(Space),,,,,,,,---- -- ----- -- ------ - ------- --- ----------<br>------------- ------ ------ ---- ---- ------- ----- -- ----<br>-------- ------- -- ---------- --- - --- study ----- ----<br>---- --- --- ----- --- ---- ---- ------- ----- ---- -------<br>--- --- -- ----- -- --- ---- -- --- ---- -- ------ ------<br>--- ----- -- ----,270118.40000009537,270116.90000009537,269447.134,269450.2999999523,269463.919,270130.154,,25,study
screen,html.Screen,2_1_0_1_26,2022-05-03T19:57:47.930Z,,,,,,,,,,,,,,,,,53,,,,,,,,,,,,,,665.4460001430707,,response,,,,99,,,,,,,Space,keypress(Space),,,,,,,,---- -- ----- -- ------ - ------- --- ----------<br>------------- ------ ------ ---- ---- ------- ----- -- ----<br>-------- ------- -- ---------- --- - --- ----- finds ----<br>---- --- --- ----- --- ---- ---- ------- ----- ---- -------<br>--- --- -- ----- -- --- ---- -- --- ---- -- ------ ------<br>--- ----- -- ----,270796.2000000477,270795.60000014305,270113.585,270118.60000014305,270130.154,270813.275,,26,finds
screen,html.Screen,2_1_0_1_27,2022-05-03T19:57:48.531Z,,,,,,,,,,,,,,,,,53,,,,,,,,,,,,,,582.3250001430279,,response,,,,99,,,,,,,Space,keypress(Space),,,,,,,,---- -- ----- -- ------ - ------- --- ----------<br>------------- ------ ------ ---- ---- ------- ----- -- ----<br>-------- ------- -- ---------- --- - --- ----- ----- that<br>---- --- --- ----- --- ---- ---- ------- ----- ---- -------<br>--- --- -- ----- -- --- ---- -- --- ---- -- ------ ------<br>--- ----- -- ----,271396.7999999523,271395.60000014305,270796.547,270796.2999999523,270813.275,271412.96,,27,that
screen,html.Screen,2_1_0_1_28,2022-05-03T19:57:49.405Z,,,,,,,,,,,,,,,,,53,,,,,,,,,,,,,,856.7400000476628,,response,,,,99,,,,,,,Space,keypress(Space),,,,,,,,---- -- ----- -- ------ - ------- --- ----------<br>------------- ------ ------ ---- ---- ------- ----- -- ----<br>-------- ------- -- ---------- --- - --- ----- ----- ----<br>it's --- --- ----- --- ---- ---- ------- ----- ---- -------<br>--- --- -- ----- -- --- ---- -- --- ---- -- ------ ------<br>--- ----- -- ----,272270.5,272269.7000000477,271396.285,271397,271412.96,272279.161,,28,it's
screen,html.Screen,2_1_0_1_29,2022-05-03T19:57:50.067Z,,,,,,,,,,,,,,,,,53,,,,,,,,,,,,,,652.2390000953455,,response,,,,99,,,,,,,Space,keypress(Space),,,,,,,,---- -- ----- -- ------ - ------- --- ----------<br>------------- ------ ------ ---- ---- ------- ----- -- ----<br>-------- ------- -- ---------- --- - --- ----- ----- ----<br>---- not --- ----- --- ---- ---- ------- ----- ---- -------<br>--- --- -- ----- -- --- ---- -- --- ---- -- ------ ------<br>--- ----- -- ----,272932.40000009537,272931.40000009537,272262.449,272270.7000000477,272279.161,272945.558,,29,not
screen,html.Screen,2_1_0_1_30,2022-05-03T19:57:50.676Z,,,,,,,,,,,,,,,,,53,,,,,,,,,,,,,,594.9419999999809,,response,,,,99,,,,,,,Space,keypress(Space),,,,,,,,---- -- ----- -- ------ - ------- --- ----------<br>------------- ------ ------ ---- ---- ------- ----- -- ----<br>-------- ------- -- ---------- --- - --- ----- ----- ----<br>---- --- how ----- --- ---- ---- ------- ----- ---- -------<br>--- --- -- ----- -- --- ---- -- --- ---- -- ------ ------<br>--- ----- -- ----,273541.7999999523,273540.5,272928.719,272932.60000014305,272945.558,273545.141,,30,how
screen,html.Screen,2_1_0_1_31,2022-05-03T19:57:51.213Z,,,,,,,,,,,,,,,,,53,,,,,,,,,,,,,,532.158999952313,,response,,,,99,,,,,,,Space,keypress(Space),,,,,,,,---- -- ----- -- ------ - ------- --- ----------<br>------------- ------ ------ ---- ---- ------- ----- -- ----<br>-------- ------- -- ---------- --- - --- ----- ----- ----<br>---- --- --- close --- ---- ---- ------- ----- ---- -------<br>--- --- -- ----- -- --- ---- -- --- ---- -- ------ ------<br>--- ----- -- ----,274078.60000014305,274077.2999999523,273528.521,273541.90000009537,273545.141,274094.985,,31,close
screen,html.Screen,2_1_0_1_32,2022-05-03T19:57:51.716Z,,,,,,,,,,,,,,,,,53,,,,,,,,,,,,,,485.81499995233025,,response,,,,99,,,,,,,Space,keypress(Space),,,,,,,,---- -- ----- -- ------ - ------- --- ----------<br>------------- ------ ------ ---- ---- ------- ----- -- ----<br>-------- ------- -- ---------- --- - --- ----- ----- ----<br>---- --- --- ----- you ---- ---- ------- ----- ---- -------<br>--- --- -- ----- -- --- ---- -- --- ---- -- ------ ------<br>--- ----- -- ----,274581.90000009537,274580.7999999523,274078.248,274078.7999999523,274094.985,274594.742,,32,you
screen,html.Screen,2_1_0_1_33,2022-05-03T19:57:52.316Z,,,,,,,,,,,,,,,,,53,,,,,,,,,,,,,,586.15800009534,,response,,,,99,,,,,,,Space,keypress(Space),,,,,,,,---- -- ----- -- ------ - ------- --- ----------<br>------------- ------ ------ ---- ---- ------- ----- -- ----<br>-------- ------- -- ---------- --- - --- ----- ----- ----<br>---- --- --- ----- --- feel ---- ------- ----- ---- -------<br>--- --- -- ----- -- --- ---- -- --- ---- -- ------ ------<br>--- ----- -- ----,275181.5,275180.90000009537,274578.02,274582.10000014305,274594.742,275194.407,,33,feel
screen,html.Screen,2_1_0_1_34,2022-05-03T19:57:52.885Z,,,,,,,,,,,,,,,,,53,,,,,,,,,,,,,,555.5929999999935,,response,,,,99,,,,,,,Space,keypress(Space),,,,,,,,---- -- ----- -- ------ - ------- --- ----------<br>------------- ------ ------ ---- ---- ------- ----- -- ----<br>-------- ------- -- ---------- --- - --- ----- ----- ----<br>---- --- --- ----- --- ---- that ------- ----- ---- -------<br>--- --- -- ----- -- --- ---- -- --- ---- -- ------ ------<br>--- ----- -- ----,275750.40000009537,275750,275177.703,275181.7000000477,275194.407,275760.835,,34,that
screen,html.Screen,2_1_0_1_35,2022-05-03T19:57:53.457Z,,,,,,,,,,,,,,,,,53,,,,,,,,,,,,,,561.0650000953465,,response,,,,99,,,,,,,Space,keypress(Space),,,,,,,,---- -- ----- -- ------ - ------- --- ----------<br>------------- ------ ------ ---- ---- ------- ----- -- ----<br>-------- ------- -- ---------- --- - --- ----- ----- ----<br>---- --- --- ----- --- ---- ---- matters ----- ---- -------<br>--- --- -- ----- -- --- ---- -- --- ---- -- ------ ------<br>--- ----- -- ----,276323,276321.90000009537,275744.039,275750.60000014305,275760.835,276327.075,,35,matters
screen,html.Screen,2_1_0_1_36,2022-05-03T19:57:54.361Z,,,,,,,,,,,,,,,,,53,,,,,,,,,,,,,,898.7249999523046,,response,,,,99,,,,,,,Space,keypress(Space),,,,,,,,"---- -- ----- -- ------ - ------- --- ----------<br>------------- ------ ------ ---- ---- ------- ----- -- ----<br>-------- ------- -- ---------- --- - --- ----- ----- ----<br>---- --- --- ----- --- ---- ---- ------- most, ---- -------<br>--- --- -- ----- -- --- ---- -- --- ---- -- ------ ------<br>--- ----- -- ----",277226.90000009537,277225.7999999523,276310.383,276323.2999999523,276327.075,277243.435,,36,"most,"
screen,html.Screen,2_1_0_1_37,2022-05-03T19:57:54.959Z,,,,,,,,,,,,,,,,,53,,,,,,,,,,,,,,580.9650000953698,,response,,,,99,,,,,,,Space,keypress(Space),,,,,,,,---- -- ----- -- ------ - ------- --- ----------<br>------------- ------ ------ ---- ---- ------- ----- -- ----<br>-------- ------- -- ---------- --- - --- ----- ----- ----<br>---- --- --- ----- --- ---- ---- ------- ----- it's -------<br>--- --- -- ----- -- --- ---- -- --- ---- -- ------ ------<br>--- ----- -- ----,277825,277824.40000009537,277226.727,277227.2000000477,277243.435,277850.963,,37,it's
screen,html.Screen,2_1_0_1_38,2022-05-03T19:57:55.579Z,,,,,,,,,,,,,,,,,53,,,,,,,,,,,,,,592.2370000476949,,response,,,,99,,,,,,,Space,keypress(Space),,,,,,,,---- -- ----- -- ------ - ------- --- ----------<br>------------- ------ ------ ---- ---- ------- ----- -- ----<br>-------- ------- -- ---------- --- - --- ----- ----- ----<br>---- --- --- ----- --- ---- ---- ------- ----- ---- whether<br>--- --- -- ----- -- --- ---- -- --- ---- -- ------ ------<br>--- ----- -- ----,278444.40000009537,278443.2000000477,277809.77,277825.10000014305,277850.963,278459.501,,38,whether
screen,html.Screen,2_1_0_1_39,2022-05-03T19:57:56.208Z,,,,,,,,,,,,,,,,,53,,,,,,,,,,,,,,613.4990000000107,,response,,,,99,,,,,,,Space,keypress(Space),,,,,,,,---- -- ----- -- ------ - ------- --- ----------<br>------------- ------ ------ ---- ---- ------- ----- -- ----<br>-------- ------- -- ---------- --- - --- ----- ----- ----<br>---- --- --- ----- --- ---- ---- ------- ----- ---- -------<br>you --- -- ----- -- --- ---- -- --- ---- -- ------ ------<br>--- ----- -- ----,279073.40000009537,279073,278442.735,278444.60000014305,278459.501,279075.687,,39,you
screen,html.Screen,2_1_0_1_40,2022-05-03T19:57:56.735Z,,,,,,,,,,,,,,,,,53,,,,,,,,,,,,,,523.5130000477075,,response,,,,99,,,,,,,Space,keypress(Space),,,,,,,,---- -- ----- -- ------ - ------- --- ----------<br>------------- ------ ------ ---- ---- ------- ----- -- ----<br>-------- ------- -- ---------- --- - --- ----- ----- ----<br>---- --- --- ----- --- ---- ---- ------- ----- ---- -------<br>--- are -- ----- -- --- ---- -- --- ---- -- ------ ------<br>--- ----- -- ----,279600.2999999523,279599.2000000477,279059.092,279073.5,279075.687,279608.902,,40,are
screen,html.Screen,2_1_0_1_41,2022-05-03T19:57:57.262Z,,,,,,,,,,,,,,,,,53,,,,,,,,,,,,,,517.6980001430493,,response,,,,99,,,,,,,Space,keypress(Space),,,,,,,,---- -- ----- -- ------ - ------- --- ----------<br>------------- ------ ------ ---- ---- ------- ----- -- ----<br>-------- ------- -- ---------- --- - --- ----- ----- ----<br>---- --- --- ----- --- ---- ---- ------- ----- ---- -------<br>--- --- as ----- -- --- ---- -- --- ---- -- ------ ------<br>--- ----- -- ----,280127.7999999523,280126.60000014305,279592.134,279600.5,279608.902,280142,,41,as
screen,html.Screen,2_1_0_1_42,2022-05-03T19:57:57.825Z,,,,,,,,,,,,,,,,,53,,,,,,,,,,,,,,547.2999999523163,,response,,,,99,,,,,,,Space,keypress(Space),,,,,,,,---- -- ----- -- ------ - ------- --- ----------<br>------------- ------ ------ ---- ---- ------- ----- -- ----<br>-------- ------- -- ---------- --- - --- ----- ----- ----<br>---- --- --- ----- --- ---- ---- ------- ----- ---- -------<br>--- --- -- close -- --- ---- -- --- ---- -- ------ ------<br>--- ----- -- ----,280690.2999999523,280689.2999999523,280125.194,280128.10000014305,280142,280708.377,,42,close
screen,html.Screen,2_1_0_1_43,2022-05-03T19:57:58.371Z,,,,,,,,,,,,,,,,,53,,,,,,,,,,,,,,527.0230000953889,,response,,,,99,,,,,,,Space,keypress(Space),,,,,,,,---- -- ----- -- ------ - ------- --- ----------<br>------------- ------ ------ ---- ---- ------- ----- -- ----<br>-------- ------- -- ---------- --- - --- ----- ----- ----<br>---- --- --- ----- --- ---- ---- ------- ----- ---- -------<br>--- --- -- ----- as --- ---- -- --- ---- -- ------ ------<br>--- ----- -- ----,281236.7000000477,281235.40000009537,280674.94,280690.60000014305,280708.377,281258.125,,43,as
screen,html.Screen,2_1_0_1_44,2022-05-03T19:57:58.859Z,,,,,,,,,,,,,,,,,53,,,,,,,,,,,,,,465.6749999523163,,response,,,,99,,,,,,,Space,keypress(Space),,,,,,,,---- -- ----- -- ------ - ------- --- ----------<br>------------- ------ ------ ---- ---- ------- ----- -- ----<br>-------- ------- -- ---------- --- - --- ----- ----- ----<br>---- --- --- ----- --- ---- ---- ------- ----- ---- -------<br>--- --- -- ----- -- you ---- -- --- ---- -- ------ ------<br>--- ----- -- ----,281725.10000014305,281723.7999999523,281241.462,281237.10000014305,281258.125,281741.221,,44,you
screen,html.Screen,2_1_0_1_45,2022-05-03T19:57:59.417Z,,,,,,,,,,,,,,,,,53,,,,,,,,,,,,,,540.1790000953479,,response,,,,99,,,,,,,Space,keypress(Space),,,,,,,,---- -- ----- -- ------ - ------- --- ----------<br>------------- ------ ------ ---- ---- ------- ----- -- ----<br>-------- ------- -- ---------- --- - --- ----- ----- ----<br>---- --- --- ----- --- ---- ---- ------- ----- ---- -------<br>--- --- -- ----- -- --- want -- --- ---- -- ------ ------<br>--- ----- -- ----,282282.40000009537,282281.40000009537,281724.468,281725.2999999523,281741.221,282290.984,,45,want
screen,html.Screen,2_1_0_1_46,2022-05-03T19:57:59.893Z,,,,,,,,,,,,,,,,,53,,,,,,,,,,,,,,466.6160001430544,,response,,,,99,,,,,,,Space,keypress(Space),,,,,,,,---- -- ----- -- ------ - ------- --- ----------<br>------------- ------ ------ ---- ---- ------- ----- -- ----<br>-------- ------- -- ---------- --- - --- ----- ----- ----<br>---- --- --- ----- --- ---- ---- ------- ----- ---- -------<br>--- --- -- ----- -- --- ---- to --- ---- -- ------ ------<br>--- ----- -- ----,282758.7000000477,282757.60000014305,282274.146,282282.7000000477,282290.984,282774.037,,46,to
screen,html.Screen,2_1_0_1_47,2022-05-03T19:58:00.347Z,,,,,,,,,,,,,,,,,53,,,,,,,,,,,,,,437.86300009535626,,response,,,,99,,,,,,,Space,keypress(Space),,,,,,,,"---- -- ----- -- ------ - ------- --- ----------<br>------------- ------ ------ ---- ---- ------- ----- -- ----<br>-------- ------- -- ---------- --- - --- ----- ----- ----<br>---- --- --- ----- --- ---- ---- ------- ----- ---- -------<br>--- --- -- ----- -- --- ---- -- be, ---- -- ------ ------<br>--- ----- -- ----",283213.10000014305,283211.90000009537,282757.253,282759,282774.037,283223.799,,47,"be,"
screen,html.Screen,2_1_0_1_48,2022-05-03T19:58:00.997Z,,,,,,,,,,,,,,,,,53,,,,,,,,,,,,,,638.1010000953684,,response,,,,99,,,,,,,Space,keypress(Space),,,,,,,,---- -- ----- -- ------ - ------- --- ----------<br>------------- ------ ------ ---- ---- ------- ----- -- ----<br>-------- ------- -- ---------- --- - --- ----- ----- ----<br>---- --- --- ----- --- ---- ---- ------- ----- ---- -------<br>--- --- -- ----- -- --- ---- -- --- even -- ------ ------<br>--- ----- -- ----,283863.10000014305,283861.90000009537,283207.048,283215,283223.799,283873.45,,48,even
screen,html.Screen,2_1_0_1_49,2022-05-03T19:58:01.575Z,,,,,,,,,,,,,,,,,53,,,,,,,,,,,,,,566.6500001430395,,response,,,,99,,,,,,,Space,keypress(Space),,,,,,,,---- -- ----- -- ------ - ------- --- ----------<br>------------- ------ ------ ---- ---- ------- ----- -- ----<br>-------- ------- -- ---------- --- - --- ----- ----- ----<br>---- --- --- ----- --- ---- ---- ------- ----- ---- -------<br>--- --- -- ----- -- --- ---- -- --- ---- if ------ ------<br>--- ----- -- ----,284441.2999999523,284440.10000014305,283856.735,283863.10000014305,283873.45,284473.21,,49,if
screen,html.Screen,2_1_0_1_50,2022-05-03T19:58:02.237Z,,,,,,,,,,,,,,,,,53,,,,,,,,,,,,,,627.8900001430302,,response,,,,99,,,,,,,Space,keypress(Space),,,,,,,,---- -- ----- -- ------ - ------- --- ----------<br>------------- ------ ------ ---- ---- ------- ----- -- ----<br>-------- ------- -- ---------- --- - --- ----- ----- ----<br>---- --- --- ----- --- ---- ---- ------- ----- ---- -------<br>--- --- -- ----- -- --- ---- -- --- ---- -- that's ------<br>--- ----- -- ----,285102.2999999523,285101.10000014305,284456.445,284441.60000014305,284473.21,285106.123,,50,that's
screen,html.Screen,2_1_0_1_51,2022-05-03T19:58:02.788Z,,,,,,,,,,,,,,,,,53,,,,,,,,,,,,,,547.0770000476623,,response,,,,99,,,,,,,Space,keypress(Space),,,,,,,,---- -- ----- -- ------ - ------- --- ----------<br>------------- ------ ------ ---- ---- ------- ----- -- ----<br>-------- ------- -- ---------- --- - --- ----- ----- ----<br>---- --- --- ----- --- ---- ---- ------- ----- ---- -------<br>--- --- -- ----- -- --- ---- -- --- ---- -- ------ really<br>--- ----- -- ----,285653.7000000477,285653.2000000477,285089.513,285102.5,285106.123,285655.789,,51,really
screen,html.Screen,2_1_0_1_52,2022-05-03T19:58:03.370Z,,,,,,,,,,,,,,,,,53,,,,,,,,,,,,,,579.2110000000102,,response,,,,99,,,,,,,Space,keypress(Space),,,,,,,,---- -- ----- -- ------ - ------- --- ----------<br>------------- ------ ------ ---- ---- ------- ----- -- ----<br>-------- ------- -- ---------- --- - --- ----- ----- ----<br>---- --- --- ----- --- ---- ---- ------- ----- ---- -------<br>--- --- -- ----- -- --- ---- -- --- ---- -- ------ ------<br>not ----- -- ----,286236.10000014305,286235,285639.253,285653.7000000477,285655.789,286238.869,,52,not
screen,html.Screen,2_1_0_1_53,2022-05-03T19:58:03.924Z,,,,,,,,,,,,,,,,,53,,,,,,,,,,,,,,550.8310000476777,,response,,,,99,,,,,,,Space,keypress(Space),,,,,,,,---- -- ----- -- ------ - ------- --- ----------<br>------------- ------ ------ ---- ---- ------- ----- -- ----<br>-------- ------- -- ---------- --- - --- ----- ----- ----<br>---- --- --- ----- --- ---- ---- ------- ----- ---- -------<br>--- --- -- ----- -- --- ---- -- --- ---- -- ------ ------<br>--- close -- ----,286790.2000000477,286789.7000000477,286222.202,286236.2999999523,286238.869,286805.297,,53,close
screen,html.Screen,2_1_0_1_54,2022-05-03T19:58:04.505Z,,,,,,,,,,,,,,,,,53,,,,,,,,,,,,,,564.4030000476632,,response,,,,99,,,,,,,Space,keypress(Space),,,,,,,,---- -- ----- -- ------ - ------- --- ----------<br>------------- ------ ------ ---- ---- ------- ----- -- ----<br>-------- ------- -- ---------- --- - --- ----- ----- ----<br>---- --- --- ----- --- ---- ---- ------- ----- ---- -------<br>--- --- -- ----- -- --- ---- -- --- ---- -- ------ ------<br>--- ----- at ----,287370.7999999523,287369.7000000477,286788.65,286790.2999999523,286805.297,287388.437,,54,at
screen,html.Screen,2_1_0_1_55,2022-05-03T19:58:05.228Z,,,,,,,,,,,,,,,,,53,,,,,,,,,,,,,,704.2630000477075,,response,,,,99,,,,,,,Space,keypress(Space),,,,,,,,---- -- ----- -- ------ - ------- --- ----------<br>------------- ------ ------ ---- ---- ------- ----- -- ----<br>-------- ------- -- ---------- --- - --- ----- ----- ----<br>---- --- --- ----- --- ---- ---- ------- ----- ---- -------<br>--- --- -- ----- -- --- ---- -- --- ---- -- ------ ------<br>--- ----- -- all.,288093.7999999523,288092.7000000477,287371.674,287371,287388.437,288104.708,,55,all.
Item 99,flow.Loop,2_1_0_1,2022-05-03T19:58:05.229Z,,,,,,,,,,,,,,,,,,,,,,,,,,,,,,,35070.77000004769,,completion,,,,,A,,,,,,,,,,,silence,,,,,288094.2999999523,288092.7000000477,252988.692,252990.20000004768,253021.93,288104.708,,,
Question 1,html.Screen,2_1_0_2,2022-05-03T19:58:12.696Z,,,,,,,,,,,,,,,,,,,,,,,,,,,,true,FALSE,,7455.692000095383,,response,,,,99,A,,,,,,FALSE,click #choice-2,,,,silence,,,,,295561.2999999523,295560.40000009537,288087.959,288094.5,288104.708,295567.544,,,
Question 2,html.Screen,2_1_0_3,2022-05-03T19:58:20.495Z,,,,,,,,,,,,,,,,,,,,,,,,,,,,true,TRUE,,7792.856000095373,,response,,,,99,A,,,,,,TRUE,click #choice-1,,,,silence,,,,,303361.10000014305,303360.40000009537,295551.025,295561.40000009537,295567.544,303363.755,,,
Item 99,flow.Sequence,2_1_0,2022-05-03T19:58:20.496Z,,,,,,,,,,,,,,,,,,,,,,,,,,,,,,,60350.084000095376,,completion,,,,,,,,,,,,,,,,,,,,,303361.2999999523,303360.40000009537,242993.597,243001.29999995232,243010.316,303363.755,,,
Holding screen,html.Screen,2_1_1_0,2022-05-03T19:58:30.478Z,,,,,,,,,,,,,,,,,,,,,,,,,,,,,,,9995.179000000004,,timeout,,,,,,,,,,,,,,,,,,,,,313343.60000014305,313342.274,303347.209,303361.40000009537,303363.755,313358.934,,,
screen,html.Screen,2_1_1_1_0,2022-05-03T19:58:31.390Z,,,,,,,,,,,,,,,,,54,,,,,,,,,,,,,,895.7660000476753,,response,,,,100,,,,,,,Space,keypress(Space),,,,,,,,At --- ---- --- ------ ----- ------- ---- -- --- ------- --<br>------- ---------- ------ -- ----- -- ----- -- ---- ------<br>--- ----- --- --- ------ -------- ----- --- ------ ----- --<br>----- ----- ---------- --- --- ------ ------ ---- -- ------<br>------- --- ------ ----- --- ---- ------- -- ---- --- --<br>------- ------,314255.90000009537,314254.7000000477,313342.274,313343.90000009537,313358.934,314258.447,,0,At
screen,html.Screen,2_1_1_1_1,2022-05-03T19:58:31.863Z,,,,,,,,,,,,,,,,,54,,,,,,,,,,,,,,469.45300009538187,,response,,,,100,,,,,,,Space,keypress(Space),,,,,,,,-- the ---- --- ------ ----- ------- ---- -- --- ------- --<br>------- ---------- ------ -- ----- -- ----- -- ---- ------<br>--- ----- --- --- ------ -------- ----- --- ------ ----- --<br>----- ----- ---------- --- --- ------ ------ ---- -- ------<br>------- --- ------ ----- --- ---- ------- -- ---- --- --<br>------- ------,314729,314727.90000009537,314241.683,314256,314258.447,314741.616,,1,the
screen,html.Screen,2_1_1_1_2,2022-05-03T19:58:32.347Z,,,,,,,,,,,,,,,,,54,,,,,,,,,,,,,,469.88400000002,,response,,,,100,,,,,,,Space,keypress(Space),,,,,,,,-- --- time --- ------ ----- ------- ---- -- --- ------- --<br>------- ---------- ------ -- ----- -- ----- -- ---- ------<br>--- ----- --- --- ------ -------- ----- --- ------ ----- --<br>----- ----- ---------- --- --- ------ ------ ---- -- ------<br>------- --- ------ ----- --- ---- ------- -- ---- --- --<br>------- ------,315212.7000000477,315211.5,314724.891,314729.2999999523,314741.616,315224.709,,2,time
screen,html.Screen,2_1_1_1_3,2022-05-03T19:58:32.876Z,,,,,,,,,,,,,,,,,54,,,,,,,,,,,,,,516.3910001430777,,response,,,,100,,,,,,,Space,keypress(Space),,,,,,,,-- --- ---- the ------ ----- ------- ---- -- --- ------- --<br>------- ---------- ------ -- ----- -- ----- -- ---- ------<br>--- ----- --- --- ------ -------- ----- --- ------ ----- --<br>----- ----- ---------- --- --- ------ ------ ---- -- ------<br>------- --- ------ ----- --- ---- ------- -- ---- --- --<br>------- ------,315742.2000000477,315741.10000014305,315207.975,315212.90000009537,315224.709,315757.785,,3,the
screen,html.Screen,2_1_1_1_4,2022-05-03T19:58:33.391Z,,,,,,,,,,,,,,,,,54,,,,,,,,,,,,,,497.5149999523419,,response,,,,100,,,,,,,Space,keypress(Space),,,,,,,,-- --- ---- --- French ----- ------- ---- -- --- ------- --<br>------- ---------- ------ -- ----- -- ----- -- ---- ------<br>--- ----- --- --- ------ -------- ----- --- ------ ----- --<br>----- ----- ---------- --- --- ------ ------ ---- -- ------<br>------- --- ------ ----- --- ---- ------- -- ---- --- --<br>------- ------,316256.40000009537,316255.2999999523,315741.071,315742.5,315757.785,316274.177,,4,French
screen,html.Screen,2_1_1_1_5,2022-05-03T19:58:33.893Z,,,,,,,,,,,,,,,,,54,,,,,,,,,,,,,,483.2230000953423,,response,,,,100,,,,,,,Space,keypress(Space),,,,,,,,-- --- ---- --- ------ crown ------- ---- -- --- ------- --<br>------- ---------- ------ -- ----- -- ----- -- ---- ------<br>--- ----- --- --- ------ -------- ----- --- ------ ----- --<br>----- ----- ---------- --- --- ------ ------ ---- -- ------<br>------- --- ------ ----- --- ---- ------- -- ---- --- --<br>------- ------,316758.2999999523,316757.40000009537,316257.5,316256.60000014305,316274.177,316773.963,,5,crown
screen,html.Screen,2_1_1_1_6,2022-05-03T19:58:34.452Z,,,,,,,,,,,,,,,,,54,,,,,,,,,,,,,,542.5370000000112,,response,,,,100,,,,,,,Space,keypress(Space),,,,,,,,-- --- ---- --- ------ ----- secured ---- -- --- ------- --<br>------- ---------- ------ -- ----- -- ----- -- ---- ------<br>--- ----- --- --- ------ -------- ----- --- ------ ----- --<br>----- ----- ---------- --- --- ------ ------ ---- -- ------<br>------- --- ------ ----- --- ---- ------- -- ---- --- --<br>------- ------,317317.7000000477,317316.5,316757.261,316758.40000009537,316773.963,317323.533,,6,secured
screen,html.Screen,2_1_1_1_7,2022-05-03T19:58:35.176Z,,,,,,,,,,,,,,,,,54,,,,,,,,,,,,,,716.9670000000042,,response,,,,100,,,,,,,Space,keypress(Space),,,,,,,,-- --- ---- --- ------ ----- ------- much -- --- ------- --<br>------- ---------- ------ -- ----- -- ----- -- ---- ------<br>--- ----- --- --- ------ -------- ----- --- ------ ----- --<br>----- ----- ---------- --- --- ------ ------ ---- -- ------<br>------- --- ------ ----- --- ---- ------- -- ---- --- --<br>------- ------,318041.60000014305,318040.5,317306.926,317317.90000009537,317323.533,318056.646,,7,much
screen,html.Screen,2_1_1_1_8,2022-05-03T19:58:36.148Z,,,,,,,,,,,,,,,,,54,,,,,,,,,,,,,,955.4540001430432,,response,,,,100,,,,,,,Space,keypress(Space),,,,,,,,-- --- ---- --- ------ ----- ------- ---- of --- ------- --<br>------- ---------- ------ -- ----- -- ----- -- ---- ------<br>--- ----- --- --- ------ -------- ----- --- ------ ----- --<br>----- ----- ---------- --- --- ------ ------ ---- -- ------<br>------- --- ------ ----- --- ---- ------- -- ---- --- --<br>------- ------,319013.2999999523,319012.10000014305,318039.808,318041.90000009537,318056.646,319022.855,,8,of
screen,html.Screen,2_1_1_1_9,2022-05-03T19:58:36.713Z,,,,,,,,,,,,,,,,,54,,,,,,,,,,,,,,555.4449999523349,,response,,,,100,,,,,,,Space,keypress(Space),,,,,,,,-- --- ---- --- ------ ----- ------- ---- -- its ------- --<br>------- ---------- ------ -- ----- -- ----- -- ---- ------<br>--- ----- --- --- ------ -------- ----- --- ------ ----- --<br>----- ----- ---------- --- --- ------ ------ ---- -- ------<br>------- --- ------ ----- --- ---- ------- -- ---- --- --<br>------- ------,319578.7999999523,319578.2999999523,319006.118,319013.60000014305,319022.855,319589.199,,9,its
screen,html.Screen,2_1_1_1_10,2022-05-03T19:58:37.384Z,,,,,,,,,,,,,,,,,54,,,,,,,,,,,,,,659.3009999999776,,response,,,,100,,,,,,,Space,keypress(Space),,,,,,,,-- --- ---- --- ------ ----- ------- ---- -- --- revenue --<br>------- ---------- ------ -- ----- -- ----- -- ---- ------<br>--- ----- --- --- ------ -------- ----- --- ------ ----- --<br>----- ----- ---------- --- --- ------ ------ ---- -- ------<br>------- --- ------ ----- --- ---- ------- -- ---- --- --<br>------- ------,320249.7000000477,320248.5,319572.477,319578.90000009537,319589.199,320255.52,,10,revenue
screen,html.Screen,2_1_1_1_11,2022-05-03T19:58:38.105Z,,,,,,,,,,,,,,,,,54,,,,,,,,,,,,,,714.4799999999814,,response,,,,100,,,,,,,Space,keypress(Space),,,,,,,,-- --- ---- --- ------ ----- ------- ---- -- --- ------- by<br>------- ---------- ------ -- ----- -- ----- -- ---- ------<br>--- ----- --- --- ------ -------- ----- --- ------ ----- --<br>----- ----- ---------- --- --- ------ ------ ---- -- ------<br>------- --- ------ ----- --- ---- ------- -- ---- --- --<br>------- ------,320971.10000014305,320970,320238.745,320249.90000009537,320255.52,320988.545,,11,by
screen,html.Screen,2_1_1_1_12,2022-05-03T19:58:38.672Z,,,,,,,,,,,,,,,,,54,,,,,,,,,,,,,,548.3550000953837,,response,,,,100,,,,,,,Space,keypress(Space),,,,,,,,-- --- ---- --- ------ ----- ------- ---- -- --- ------- --<br>issuing ---------- ------ -- ----- -- ----- -- ---- ------<br>--- ----- --- --- ------ -------- ----- --- ------ ----- --<br>----- ----- ---------- --- --- ------ ------ ---- -- ------<br>------- --- ------ ----- --- ---- ------- -- ---- --- --<br>------- ------,321537.90000009537,321536.90000009537,320971.831,320971.2999999523,320988.545,321554.912,,12,issuing
screen,html.Screen,2_1_1_1_13,2022-05-03T19:58:39.164Z,,,,,,,,,,,,,,,,,54,,,,,,,,,,,,,,473.78800004767254,,response,,,,100,,,,,,,Space,keypress(Space),,,,,,,,-- --- ---- --- ------ ----- ------- ---- -- --- ------- --<br>------- government ------ -- ----- -- ----- -- ---- ------<br>--- ----- --- --- ------ -------- ----- --- ------ ----- --<br>----- ----- ---------- --- --- ------ ------ ---- -- ------<br>------- --- ------ ----- --- ---- ------- -- ---- --- --<br>------- ------,322029.7999999523,322028.7000000477,321538.191,321538.10000014305,321554.912,322037.875,,13,government
screen,html.Screen,2_1_1_1_14,2022-05-03T19:58:39.740Z,,,,,,,,,,,,,,,,,54,,,,,,,,,,,,,,567.0250000953674,,response,,,,100,,,,,,,Space,keypress(Space),,,,,,,,-- --- ---- --- ------ ----- ------- ---- -- --- ------- --<br>------- ---------- bonds. -- ----- -- ----- -- ---- ------<br>--- ----- --- --- ------ -------- ----- --- ------ ----- --<br>----- ----- ---------- --- --- ------ ------ ---- -- ------<br>------- --- ------ ----- --- ---- ------- -- ---- --- --<br>------- ------,322606.2000000477,322604.90000009537,322021.317,322030,322037.875,322621.062,,14,bonds.
screen,html.Screen,2_1_1_1_15,2022-05-03T19:58:40.285Z,,,,,,,,,,,,,,,,,54,,,,,,,,,,,,,,529.1380000477075,,response,,,,100,,,,,,,Space,keypress(Space),,,,,,,,-- --- ---- --- ------ ----- ------- ---- -- --- ------- --<br>------- ---------- ------ In ----- -- ----- -- ---- ------<br>--- ----- --- --- ------ -------- ----- --- ------ ----- --<br>----- ----- ---------- --- --- ------ ------ ---- -- ------<br>------- --- ------ ----- --- ---- ------- -- ---- --- --<br>------- ------,323150.7999999523,323150.2000000477,322604.313,322606.40000009537,322621.062,323153.953,,15,In
screen,html.Screen,2_1_1_1_16,2022-05-03T19:58:41.588Z,,,,,,,,,,,,,,,,,54,,,,,,,,,,,,,,1298.447000095388,,response,,,,100,,,,,,,Space,keypress(Space),,,,,,,,"-- --- ---- --- ------ ----- ------- ---- -- --- ------- --<br>------- ---------- ------ -- 1727, -- ----- -- ---- ------<br>--- ----- --- --- ------ -------- ----- --- ------ ----- --<br>----- ----- ---------- --- --- ------ ------ ---- -- ------<br>------- --- ------ ----- --- ---- ------- -- ---- --- --<br>------- ------",324453.7999999523,324452.40000009537,323137.394,323150.7999999523,323153.953,324470.146,,16,"1727,"
screen,html.Screen,2_1_1_1_17,2022-05-03T19:58:42.515Z,,,,,,,,,,,,,,,,,54,,,,,,,,,,,,,,909.6539999523084,,response,,,,100,,,,,,,Space,keypress(Space),,,,,,,,-- --- ---- --- ------ ----- ------- ---- -- --- ------- --<br>------- ---------- ------ -- ----- in ----- -- ---- ------<br>--- ----- --- --- ------ -------- ----- --- ------ ----- --<br>----- ----- ---------- --- --- ------ ------ ---- -- ------<br>------- --- ------ ----- --- ---- ------- -- ---- --- --<br>------- ------,325380.90000009537,325379.7999999523,324453.363,324454,324470.146,325386.257,,17,in
screen,html.Screen,2_1_1_1_18,2022-05-03T19:58:43.170Z,,,,,,,,,,,,,,,,,54,,,,,,,,,,,,,,648.9430000477005,,response,,,,100,,,,,,,Space,keypress(Space),,,,,,,,-- --- ---- --- ------ ----- ------- ---- -- --- ------- --<br>------- ---------- ------ -- ----- -- order -- ---- ------<br>--- ----- --- --- ------ -------- ----- --- ------ ----- --<br>----- ----- ---------- --- --- ------ ------ ---- -- ------<br>------- --- ------ ----- --- ---- ------- -- ---- --- --<br>------- ------,326036.2999999523,326035.2000000477,325369.662,325381.10000014305,325386.257,326052.711,,18,order
screen,html.Screen,2_1_1_1_19,2022-05-03T19:58:43.637Z,,,,,,,,,,,,,,,,,54,,,,,,,,,,,,,,448.58899995230604,,response,,,,100,,,,,,,Space,keypress(Space),,,,,,,,-- --- ---- --- ------ ----- ------- ---- -- --- ------- --<br>------- ---------- ------ -- ----- -- ----- to ---- ------<br>--- ----- --- --- ------ -------- ----- --- ------ ----- --<br>----- ----- ---------- --- --- ------ ------ ---- -- ------<br>------- --- ------ ----- --- ---- ------- -- ---- --- --<br>------- ------,326502.40000009537,326501.2999999523,326035.907,326036.5,326052.711,326519.145,,19,to
screen,html.Screen,2_1_1_1_20,2022-05-03T19:58:44.040Z,,,,,,,,,,,,,,,,,54,,,,,,,,,,,,,,385.7550000953488,,response,,,,100,,,,,,,Space,keypress(Space),,,,,,,,-- --- ---- --- ------ ----- ------- ---- -- --- ------- --<br>------- ---------- ------ -- ----- -- ----- -- save ------<br>--- ----- --- --- ------ -------- ----- --- ------ ----- --<br>----- ----- ---------- --- --- ------ ------ ---- -- ------<br>------- --- ------ ----- --- ---- ------- -- ---- --- --<br>------- ------,326906.10000014305,326904.90000009537,326502.371,326502.60000014305,326519.145,326918.83,,20,save
screen,html.Screen,2_1_1_1_21,2022-05-03T19:58:44.495Z,,,,,,,,,,,,,,,,,54,,,,,,,,,,,,,,440.6699999999837,,response,,,,100,,,,,,,Space,keypress(Space),,,,,,,,"-- --- ---- --- ------ ----- ------- ---- -- --- ------- --<br>------- ---------- ------ -- ----- -- ----- -- ---- money,<br>--- ----- --- --- ------ -------- ----- --- ------ ----- --<br>----- ----- ---------- --- --- ------ ------ ---- -- ------<br>------- --- ------ ----- --- ---- ------- -- ---- --- --<br>------- ------",327360.7000000477,327359.5,326902.21,326906.40000009537,326918.83,327368.71,,21,"money,"
screen,html.Screen,2_1_1_1_22,2022-05-03T19:58:45.055Z,,,,,,,,,,,,,,,,,54,,,,,,,,,,,,,,550.4900000476628,,response,,,,100,,,,,,,Space,keypress(Space),,,,,,,,-- --- ---- --- ------ ----- ------- ---- -- --- ------- --<br>------- ---------- ------ -- ----- -- ----- -- ---- ------<br>the ----- --- --- ------ -------- ----- --- ------ ----- --<br>----- ----- ---------- --- --- ------ ------ ---- -- ------<br>------- --- ------ ----- --- ---- ------- -- ---- --- --<br>------- ------,327920.2999999523,327919.2000000477,327352.014,327360.90000009537,327368.71,327935.069,,22,the
screen,html.Screen,2_1_1_1_23,2022-05-03T19:58:45.623Z,,,,,,,,,,,,,,,,,54,,,,,,,,,,,,,,552.631000047666,,response,,,,100,,,,,,,Space,keypress(Space),,,,,,,,-- --- ---- --- ------ ----- ------- ---- -- --- ------- --<br>------- ---------- ------ -- ----- -- ----- -- ---- ------<br>--- state --- --- ------ -------- ----- --- ------ ----- --<br>----- ----- ---------- --- --- ------ ------ ---- -- ------<br>------- --- ------ ----- --- ---- ------- -- ---- --- --<br>------- ------,328488.7999999523,328487.7000000477,327918.424,327920.60000014305,327935.069,328501.477,,23,state
screen,html.Screen,2_1_1_1_24,2022-05-03T19:58:46.257Z,,,,,,,,,,,,,,,,,54,,,,,,,,,,,,,,619.9230000953539,,response,,,,100,,,,,,,Space,keypress(Space),,,,,,,,-- --- ---- --- ------ ----- ------- ---- -- --- ------- --<br>------- ---------- ------ -- ----- -- ----- -- ---- ------<br>--- ----- cut --- ------ -------- ----- --- ------ ----- --<br>----- ----- ---------- --- --- ------ ------ ---- -- ------<br>------- --- ------ ----- --- ---- ------- -- ---- --- --<br>------- ------,329122.60000014305,329121.40000009537,328484.75,328489,328501.477,329134.519,,24,cut
screen,html.Screen,2_1_1_1_25,2022-05-03T19:58:46.737Z,,,,,,,,,,,,,,,,,54,,,,,,,,,,,,,,466.58100014308,,response,,,,100,,,,,,,Space,keypress(Space),,,,,,,,-- --- ---- --- ------ ----- ------- ---- -- --- ------- --<br>------- ---------- ------ -- ----- -- ----- -- ---- ------<br>--- ----- --- the ------ -------- ----- --- ------ ----- --<br>----- ----- ---------- --- --- ------ ------ ---- -- ------<br>------- --- ------ ----- --- ---- ------- -- ---- --- --<br>------- ------,329602.2999999523,329601.10000014305,329117.794,329123,329134.519,329617.613,,25,the
screen,html.Screen,2_1_1_1_26,2022-05-03T19:58:47.244Z,,,,,,,,,,,,,,,,,54,,,,,,,,,,,,,,490.98700014303904,,response,,,,100,,,,,,,Space,keypress(Space),,,,,,,,-- --- ---- --- ------ ----- ------- ---- -- --- ------- --<br>------- ---------- ------ -- ----- -- ----- -- ---- ------<br>--- ----- --- --- bonds' -------- ----- --- ------ ----- --<br>----- ----- ---------- --- --- ------ ------ ---- -- ------<br>------- --- ------ ----- --- ---- ------- -- ---- --- --<br>------- ------,330109.7999999523,330108.60000014305,329600.896,329602.5,329617.613,330117.251,,26,bonds'
screen,html.Screen,2_1_1_1_27,2022-05-03T19:58:47.814Z,,,,,,,,,,,,,,,,,54,,,,,,,,,,,,,,561.6490000953781,,response,,,,100,,,,,,,Space,keypress(Space),,,,,,,,-- --- ---- --- ------ ----- ------- ---- -- --- ------- --<br>------- ---------- ------ -- ----- -- ----- -- ---- ------<br>--- ----- --- --- ------ interest ----- --- ------ ----- --<br>----- ----- ---------- --- --- ------ ------ ---- -- ------<br>------- --- ------ ----- --- ---- ------- -- ---- --- --<br>------- ------,330679.5,330678.90000009537,330100.622,330110,330117.251,330683.551,,27,interest
screen,html.Screen,2_1_1_1_28,2022-05-03T19:58:48.567Z,,,,,,,,,,,,,,,,,54,,,,,,,,,,,,,,747.8490000953898,,response,,,,100,,,,,,,Space,keypress(Space),,,,,,,,-- --- ---- --- ------ ----- ------- ---- -- --- ------- --<br>------- ---------- ------ -- ----- -- ----- -- ---- ------<br>--- ----- --- --- ------ -------- rate. --- ------ ----- --<br>----- ----- ---------- --- --- ------ ------ ---- -- ------<br>------- --- ------ ----- --- ---- ------- -- ---- --- --<br>------- ------,331432.60000014305,331431.40000009537,330666.942,330679.60000014305,330683.551,331449.997,,28,rate.
screen,html.Screen,2_1_1_1_29,2022-05-03T19:58:49.213Z,,,,,,,,,,,,,,,,,54,,,,,,,,,,,,,,628.0030000000261,,response,,,,100,,,,,,,Space,keypress(Space),,,,,,,,-- --- ---- --- ------ ----- ------- ---- -- --- ------- --<br>------- ---------- ------ -- ----- -- ----- -- ---- ------<br>--- ----- --- --- ------ -------- ----- The ------ ----- --<br>----- ----- ---------- --- --- ------ ------ ---- -- ------<br>------- --- ------ ----- --- ---- ------- -- ---- --- --<br>------- ------,332079.2000000477,332078,331433.236,331432.7999999523,331449.997,332082.947,,29,The
screen,html.Screen,2_1_1_1_30,2022-05-03T19:58:49.812Z,,,,,,,,,,,,,,,,,54,,,,,,,,,,,,,,593.7530000476982,,response,,,,100,,,,,,,Space,keypress(Space),,,,,,,,-- --- ---- --- ------ ----- ------- ---- -- --- ------- --<br>------- ---------- ------ -- ----- -- ----- -- ---- ------<br>--- ----- --- --- ------ -------- ----- --- market ----- --<br>----- ----- ---------- --- --- ------ ------ ---- -- ------<br>------- --- ------ ----- --- ---- ------- -- ---- --- --<br>------- ------,332677.90000009537,332676.7000000477,332066.361,332079.40000009537,332082.947,332682.669,,30,market
screen,html.Screen,2_1_1_1_31,2022-05-03T19:58:50.315Z,,,,,,,,,,,,,,,,,54,,,,,,,,,,,,,,497.5310000476893,,response,,,,100,,,,,,,Space,keypress(Space),,,,,,,,-- --- ---- --- ------ ----- ------- ---- -- --- ------- --<br>------- ---------- ------ -- ----- -- ----- -- ---- ------<br>--- ----- --- --- ------ -------- ----- --- ------ value --<br>----- ----- ---------- --- --- ------ ------ ---- -- ------<br>------- --- ------ ----- --- ---- ------- -- ---- --- --<br>------- ------,333181.2000000477,333180.2000000477,332666.058,332678.2000000477,332682.669,333199.181,,31,value
screen,html.Screen,2_1_1_1_32,2022-05-03T19:58:50.852Z,,,,,,,,,,,,,,,,,54,,,,,,,,,,,,,,517.5190000477014,,response,,,,100,,,,,,,Space,keypress(Space),,,,,,,,-- --- ---- --- ------ ----- ------- ---- -- --- ------- --<br>------- ---------- ------ -- ----- -- ----- -- ---- ------<br>--- ----- --- --- ------ -------- ----- --- ------ ----- of<br>----- ----- ---------- --- --- ------ ------ ---- -- ------<br>------- --- ------ ----- --- ---- ------- -- ---- --- --<br>------- ------,333717.90000009537,333716.7000000477,333182.423,333181.40000009537,333199.181,333732.252,,32,of
screen,html.Screen,2_1_1_1_33,2022-05-03T19:58:51.409Z,,,,,,,,,,,,,,,,,54,,,,,,,,,,,,,,540.9480000477051,,response,,,,100,,,,,,,Space,keypress(Space),,,,,,,,-- --- ---- --- ------ ----- ------- ---- -- --- ------- --<br>------- ---------- ------ -- ----- -- ----- -- ---- ------<br>--- ----- --- --- ------ -------- ----- --- ------ ----- --<br>these ----- ---------- --- --- ------ ------ ---- -- ------<br>------- --- ------ ----- --- ---- ------- -- ---- --- --<br>------- ------,334274.40000009537,334273.2000000477,333715.504,333718.10000014305,333732.252,334281.931,,33,these
screen,html.Screen,2_1_1_1_34,2022-05-03T19:58:51.955Z,,,,,,,,,,,,,,,,,54,,,,,,,,,,,,,,538.868999952334,,response,,,,100,,,,,,,Space,keypress(Space),,,,,,,,-- --- ---- --- ------ ----- ------- ---- -- --- ------- --<br>------- ---------- ------ -- ----- -- ----- -- ---- ------<br>--- ----- --- --- ------ -------- ----- --- ------ ----- --<br>----- bonds ---------- --- --- ------ ------ ---- -- ------<br>------- --- ------ ----- --- ---- ------- -- ---- --- --<br>------- ------,334821.2999999523,334820.7999999523,334265.243,334274.60000014305,334281.931,334831.653,,34,bonds
screen,html.Screen,2_1_1_1_35,2022-05-03T19:58:52.736Z,,,,,,,,,,,,,,,,,54,,,,,,,,,,,,,,768.6469999523251,,response,,,,100,,,,,,,Space,keypress(Space),,,,,,,,"-- --- ---- --- ------ ----- ------- ---- -- --- ------- --<br>------- ---------- ------ -- ----- -- ----- -- ---- ------<br>--- ----- --- --- ------ -------- ----- --- ------ ----- --<br>----- ----- plummeted, --- --- ------ ------ ---- -- ------<br>------- --- ------ ----- --- ---- ------- -- ---- --- --<br>------- ------",335601.60000014305,335600.2999999523,334814.962,334821.2999999523,334831.653,335614.656,,35,"plummeted,"
screen,html.Screen,2_1_1_1_36,2022-05-03T19:58:53.242Z,,,,,,,,,,,,,,,,,54,,,,,,,,,,,,,,492.14399995229905,,response,,,,100,,,,,,,Space,keypress(Space),,,,,,,,-- --- ---- --- ------ ----- ------- ---- -- --- ------- --<br>------- ---------- ------ -- ----- -- ----- -- ---- ------<br>--- ----- --- --- ------ -------- ----- --- ------ ----- --<br>----- ----- ---------- and --- ------ ------ ---- -- ------<br>------- --- ------ ----- --- ---- ------- -- ---- --- --<br>------- ------,336107.90000009537,336106.7999999523,335597.881,335601.7999999523,335614.656,336114.314,,36,and
screen,html.Screen,2_1_1_1_37,2022-05-03T19:58:53.740Z,,,,,,,,,,,,,,,,,54,,,,,,,,,,,,,,489.8860000476707,,response,,,,100,,,,,,,Space,keypress(Space),,,,,,,,-- --- ---- --- ------ ----- ------- ---- -- --- ------- --<br>------- ---------- ------ -- ----- -- ----- -- ---- ------<br>--- ----- --- --- ------ -------- ----- --- ------ ----- --<br>----- ----- ---------- --- the ------ ------ ---- -- ------<br>------- --- ------ ----- --- ---- ------- -- ---- --- --<br>------- ------,336605.5,336604.2000000477,336097.663,336108.2000000477,336114.314,336614.103,,37,the
screen,html.Screen,2_1_1_1_38,2022-05-03T19:58:54.331Z,,,,,,,,,,,,,,,,,54,,,,,,,,,,,,,,581.1969999523135,,response,,,,100,,,,,,,Space,keypress(Space),,,,,,,,-- --- ---- --- ------ ----- ------- ---- -- --- ------- --<br>------- ---------- ------ -- ----- -- ----- -- ---- ------<br>--- ----- --- --- ------ -------- ----- --- ------ ----- --<br>----- ----- ---------- --- --- market ------ ---- -- ------<br>------- --- ------ ----- --- ---- ------- -- ---- --- --<br>------- ------,337196.2999999523,337195.2999999523,336597.397,336605.7000000477,336614.103,337213.861,,38,market
screen,html.Screen,2_1_1_1_39,2022-05-03T19:58:54.959Z,,,,,,,,,,,,,,,,,54,,,,,,,,,,,,,,609.6390000000247,,response,,,,100,,,,,,,Space,keypress(Space),,,,,,,,-- --- ---- --- ------ ----- ------- ---- -- --- ------- --<br>------- ---------- ------ -- ----- -- ----- -- ---- ------<br>--- ----- --- --- ------ -------- ----- --- ------ ----- --<br>----- ----- ---------- --- --- ------ became ---- -- ------<br>------- --- ------ ----- --- ---- ------- -- ---- --- --<br>------- ------,337824.5,337823.5,337180.432,337196.40000009537,337213.861,337846.905,,39,became
screen,html.Screen,2_1_1_1_40,2022-05-03T19:58:55.708Z,,,,,,,,,,,,,,,,,54,,,,,,,,,,,,,,725.6950001430232,,response,,,,100,,,,,,,Space,keypress(Space),,,,,,,,-- --- ---- --- ------ ----- ------- ---- -- --- ------- --<br>------- ---------- ------ -- ----- -- ----- -- ---- ------<br>--- ----- --- --- ------ -------- ----- --- ------ ----- --<br>----- ----- ---------- --- --- ------ ------ wary -- ------<br>------- --- ------ ----- --- ---- ------- -- ---- --- --<br>------- ------,338573.7000000477,338572.60000014305,337830.165,337824.7000000477,337846.905,338579.728,,40,wary
screen,html.Screen,2_1_1_1_41,2022-05-03T19:58:56.235Z,,,,,,,,,,,,,,,,,54,,,,,,,,,,,,,,520.1720000953646,,response,,,,100,,,,,,,Space,keypress(Space),,,,,,,,-- --- ---- --- ------ ----- ------- ---- -- --- ------- --<br>------- ---------- ------ -- ----- -- ----- -- ---- ------<br>--- ----- --- --- ------ -------- ----- --- ------ ----- --<br>----- ----- ---------- --- --- ------ ------ ---- of ------<br>------- --- ------ ----- --- ---- ------- -- ---- --- --<br>------- ------,339100.2999999523,339099.90000009537,338563.141,338573.90000009537,338579.728,339112.799,,41,of
screen,html.Screen,2_1_1_1_42,2022-05-03T19:58:56.895Z,,,,,,,,,,,,,,,,,54,,,,,,,,,,,,,,646.9010000476846,,response,,,,100,,,,,,,Space,keypress(Space),,,,,,,,-- --- ---- --- ------ ----- ------- ---- -- --- ------- --<br>------- ---------- ------ -- ----- -- ----- -- ---- ------<br>--- ----- --- --- ------ -------- ----- --- ------ ----- --<br>----- ----- ---------- --- --- ------ ------ ---- -- French<br>------- --- ------ ----- --- ---- ------- -- ---- --- --<br>------- ------,339760.90000009537,339759.7000000477,339096.197,339100.40000009537,339112.799,339779.233,,42,French
screen,html.Screen,2_1_1_1_43,2022-05-03T19:58:58.046Z,,,,,,,,,,,,,,,,,54,,,,,,,,,,,,,,1131.0669999523088,,response,,,,100,,,,,,,Space,keypress(Space),,,,,,,,-- --- ---- --- ------ ----- ------- ---- -- --- ------- --<br>------- ---------- ------ -- ----- -- ----- -- ---- ------<br>--- ----- --- --- ------ -------- ----- --- ------ ----- --<br>----- ----- ---------- --- --- ------ ------ ---- -- ------<br>credit. --- ------ ----- --- ---- ------- -- ---- --- --<br>------- ------,340911.5,340910.2999999523,339745.836,339761.2000000477,339779.233,340928.706,,43,credit.
screen,html.Screen,2_1_1_1_44,2022-05-03T19:58:58.619Z,,,,,,,,,,,,,,,,,54,,,,,,,,,,,,,,554.8940001430456,,response,,,,100,,,,,,,Space,keypress(Space),,,,,,,,-- --- ---- --- ------ ----- ------- ---- -- --- ------- --<br>------- ---------- ------ -- ----- -- ----- -- ---- ------<br>--- ----- --- --- ------ -------- ----- --- ------ ----- --<br>----- ----- ---------- --- --- ------ ------ ---- -- ------<br>------- The ------ ----- --- ---- ------- -- ---- --- --<br>------- ------,341484.7999999523,341483.60000014305,340911.941,340911.7999999523,340928.706,341495.085,,44,The
screen,html.Screen,2_1_1_1_45,2022-05-03T19:58:59.122Z,,,,,,,,,,,,,,,,,54,,,,,,,,,,,,,,491.41499999997905,,response,,,,100,,,,,,,Space,keypress(Space),,,,,,,,-- --- ---- --- ------ ----- ------- ---- -- --- ------- --<br>------- ---------- ------ -- ----- -- ----- -- ---- ------<br>--- ----- --- --- ------ -------- ----- --- ------ ----- --<br>----- ----- ---------- --- --- ------ ------ ---- -- ------<br>------- --- French ----- --- ---- ------- -- ---- --- --<br>------- ------,341987.60000014305,341986.5,341478.315,341485.10000014305,341495.085,341994.82,,45,French
screen,html.Screen,2_1_1_1_46,2022-05-03T19:58:59.678Z,,,,,,,,,,,,,,,,,54,,,,,,,,,,,,,,547.679999999993,,response,,,,100,,,,,,,Space,keypress(Space),,,,,,,,-- --- ---- --- ------ ----- ------- ---- -- --- ------- --<br>------- ---------- ------ -- ----- -- ----- -- ---- ------<br>--- ----- --- --- ------ -------- ----- --- ------ ----- --<br>----- ----- ---------- --- --- ------ ------ ---- -- ------<br>------- --- ------ state --- ---- ------- -- ---- --- --<br>------- ------,342543.5,342542.5,341978.068,341987.7999999523,341994.82,342561.218,,46,state
screen,html.Screen,2_1_1_1_47,2022-05-03T19:59:00.178Z,,,,,,,,,,,,,,,,,54,,,,,,,,,,,,,,482.0819999523228,,response,,,,100,,,,,,,Space,keypress(Space),,,,,,,,-- --- ---- --- ------ ----- ------- ---- -- --- ------- --<br>------- ---------- ------ -- ----- -- ----- -- ---- ------<br>--- ----- --- --- ------ -------- ----- --- ------ ----- --<br>----- ----- ---------- --- --- ------ ------ ---- -- ------<br>------- --- ------ ----- was ---- ------- -- ---- --- --<br>------- ------,343043.90000009537,343043.2999999523,342544.469,342543.7999999523,342561.218,343061.015,,47,was
screen,html.Screen,2_1_1_1_48,2022-05-03T19:59:00.713Z,,,,,,,,,,,,,,,,,54,,,,,,,,,,,,,,517.5850001430372,,response,,,,100,,,,,,,Space,keypress(Space),,,,,,,,-- --- ---- --- ------ ----- ------- ---- -- --- ------- --<br>------- ---------- ------ -- ----- -- ----- -- ---- ------<br>--- ----- --- --- ------ -------- ----- --- ------ ----- --<br>----- ----- ---------- --- --- ------ ------ ---- -- ------<br>------- --- ------ ----- --- left ------- -- ---- --- --<br>------- ------,343579.10000014305,343578.60000014305,343044.206,343044,343061.015,343594.068,,48,left
screen,html.Screen,2_1_1_1_49,2022-05-03T19:59:01.196Z,,,,,,,,,,,,,,,,,54,,,,,,,,,,,,,,466.03200014302274,,response,,,,100,,,,,,,Space,keypress(Space),,,,,,,,-- --- ---- --- ------ ----- ------- ---- -- --- ------- --<br>------- ---------- ------ -- ----- -- ----- -- ---- ------<br>--- ----- --- --- ------ -------- ----- --- ------ ----- --<br>----- ----- ---------- --- --- ------ ------ ---- -- ------<br>------- --- ------ ----- --- ---- without -- ---- --- --<br>------- ------,344061.5,344060.10000014305,343577.311,343579.2000000477,343594.068,344077.155,,49,without
screen,html.Screen,2_1_1_1_50,2022-05-03T19:59:01.724Z,,,,,,,,,,,,,,,,,54,,,,,,,,,,,,,,511.34499999997206,,response,,,,100,,,,,,,Space,keypress(Space),,,,,,,,-- --- ---- --- ------ ----- ------- ---- -- --- ------- --<br>------- ---------- ------ -- ----- -- ----- -- ---- ------<br>--- ----- --- --- ------ -------- ----- --- ------ ----- --<br>----- ----- ---------- --- --- ------ ------ ---- -- ------<br>------- --- ------ ----- --- ---- ------- an ---- --- --<br>------- ------,344589.7000000477,344588.5,344060.397,344061.7000000477,344077.155,344593.425,,50,an
screen,html.Screen,2_1_1_1_51,2022-05-03T19:59:02.231Z,,,,,,,,,,,,,,,,,54,,,,,,,,,,,,,,501.8749999523279,,response,,,,100,,,,,,,Space,keypress(Space),,,,,,,,-- --- ---- --- ------ ----- ------- ---- -- --- ------- --<br>------- ---------- ------ -- ----- -- ----- -- ---- ------<br>--- ----- --- --- ------ -------- ----- --- ------ ----- --<br>----- ----- ---------- --- --- ------ ------ ---- -- ------<br>------- --- ------ ----- --- ---- ------- -- easy --- --<br>------- ------,345096.60000014305,345095.2999999523,344576.801,344590,344593.425,345109.987,,51,easy
screen,html.Screen,2_1_1_1_52,2022-05-03T19:59:02.765Z,,,,,,,,,,,,,,,,,54,,,,,,,,,,,,,,519.0129999999772,,response,,,,100,,,,,,,Space,keypress(Space),,,,,,,,-- --- ---- --- ------ ----- ------- ---- -- --- ------- --<br>------- ---------- ------ -- ----- -- ----- -- ---- ------<br>--- ----- --- --- ------ -------- ----- --- ------ ----- --<br>----- ----- ---------- --- --- ------ ------ ---- -- ------<br>------- --- ------ ----- --- ---- ------- -- ---- way --<br>------- ------,345630.2999999523,345629,345093.242,345096.90000009537,345109.987,345643.043,,52,way
screen,html.Screen,2_1_1_1_53,2022-05-03T19:59:03.318Z,,,,,,,,,,,,,,,,,54,,,,,,,,,,,,,,539.7569999523112,,response,,,,100,,,,,,,Space,keypress(Space),,,,,,,,-- --- ---- --- ------ ----- ------- ---- -- --- ------- --<br>------- ---------- ------ -- ----- -- ----- -- ---- ------<br>--- ----- --- --- ------ -------- ----- --- ------ ----- --<br>----- ----- ---------- --- --- ------ ------ ---- -- ------<br>------- --- ------ ----- --- ---- ------- -- ---- --- of<br>------- ------,346184,346182.7999999523,345626.314,345630.5,345643.043,346192.754,,53,of
screen,html.Screen,2_1_1_1_54,2022-05-03T19:59:03.785Z,,,,,,,,,,,,,,,,,54,,,,,,,,,,,,,,457.5459999523009,,response,,,,100,,,,,,,Space,keypress(Space),,,,,,,,-- --- ---- --- ------ ----- ------- ---- -- --- ------- --<br>------- ---------- ------ -- ----- -- ----- -- ---- ------<br>--- ----- --- --- ------ -------- ----- --- ------ ----- --<br>----- ----- ---------- --- --- ------ ------ ---- -- ------<br>------- --- ------ ----- --- ---- ------- -- ---- --- --<br>raising ------,346651,346650.2999999523,346175.995,346184.2000000477,346192.754,346659.207,,54,raising
screen,html.Screen,2_1_1_1_55,2022-05-03T19:59:04.464Z,,,,,,,,,,,,,,,,,54,,,,,,,,,,,,,,669.6930000953726,,response,,,,100,,,,,,,Space,keypress(Space),,,,,,,,-- --- ---- --- ------ ----- ------- ---- -- --- ------- --<br>------- ---------- ------ -- ----- -- ----- -- ---- ------<br>--- ----- --- --- ------ -------- ----- --- ------ ----- --<br>----- ----- ---------- --- --- ------ ------ ---- -- ------<br>------- --- ------ ----- --- ---- ------- -- ---- --- --<br>------- money.,347330.10000014305,347328.90000009537,346642.439,346651,346659.207,347342.176,,55,money.
Item 100,flow.Loop,2_1_1_1,2022-05-03T19:59:04.464Z,,,,,,,,,,,,,,,,,,,,,,,,,,,,,,,33969.96600009536,,completion,,,,,A,,,,,,,,,,,silence,,,,,347330.2000000477,347328.90000009537,313342.274,313343.7999999523,313358.934,347342.176,,,
Question 1,html.Screen,2_1_1_2,2022-05-03T19:59:09.208Z,,,,,,,,,,,,,,,,,,,,,,,,,,,,true,TRUE,,4730.524000047706,,response,,,,100,A,,,,,,TRUE,click #choice-1,,,,silence,,,,,352073.5,352072.7000000477,347325.404,347330.2000000477,347342.176,352089.809,,,
Question 2,html.Screen,2_1_1_3,2022-05-03T19:59:13.583Z,,,,,,,,,,,,,,,,,,,,,,,,,,,,true,FALSE,,4358.490999952308,,response,,,,100,A,,,,,,FALSE,click #choice-2,,,,silence,,,,,356449.10000014305,356448.2999999523,352073.099,352073.60000014305,352089.809,356454.362,,,
Item 100,flow.Sequence,2_1_1,2022-05-03T19:59:13.584Z,,,,,,,,,,,,,,,,,,,,,,,,,,,,,,,53084.54499995231,,completion,,,,,,,,,,,,,,,,,,,,,356449.2999999523,356448.2999999523,303347.209,303361.40000009537,303363.755,356454.362,,,
End of Practice,html.Page,2_1_2,2022-05-03T19:59:33.580Z,,,,,,,,,,,,,,,,,,,,,,,,,,,,,,,20006.69499999995,,timeout,,,,,,,,,,,,,,,,,,,,,376445.7000000477,376444.475,356437.684,356449.40000009537,356454.362,376461.057,,,
Practice,flow.Sequence,2_1,2022-05-03T19:59:33.580Z,,,,,,,,,,,,,,,,,,,,,,,,,,,,,,,133434.15899999999,,completion,,,,,,,,,,,,,,,,,,,,,376446,376444.475,242993.597,243001.20000004768,243010.316,376461.057,,,
Trap_instruction,html.Page,2_2_0,2022-05-03T19:59:53.448Z,,,,,,,,,,,,,,,,,,,,,,,,,,,,,,,19852.44300000003,,form submission,,,,,,,,,,,,,,,,,,,,,396313.7000000477,396313.5,376444.475,376446.2999999523,376461.057,396334.582,,,
trap_trial,html.Screen,2_2_1,2022-05-03T19:59:56.808Z,,,,,,,,,,,,,,,,,,,,,,,,,,,,true,1,,3337.918000000005,,response,,,,,,,,,,,1,click #choice-1,,,,,,,,,399673.2999999523,399672.5,396318.006,396313.7999999523,396334.582,399682.972,,,
end of trap trial,html.Page,2_2_2,2022-05-03T20:00:06.797Z,,,,,,,,,,,,,,,,,,,,,,,,,,,,,,,9995.069000000018,,timeout,,,,,,,,,,,,,,,,,,,,,409662.7999999523,409661.494,399666.259,399673.40000009537,399682.972,409678.041,,,
Trap 1,flow.Sequence,2_2,2022-05-03T20:00:06.797Z,,,,,,,,,,,,,,,,,,,,,,,,,,,,,,,33200.437000000034,,completion,,,,,,,,,,,,,,,,,,,,,409663.2000000477,409661.494,376444.475,376446.10000014305,376461.057,409678.041,,,
Standby,html.Page,2_3_0,2022-05-03T20:00:14.792Z,,,,,,,,,,,,,,,,,,,,,,,,,,,,,,,7996.143999999971,,timeout,,,,,,,,,,,,,,,,,,,,,417658.2000000477,417657.488,409661.494,409663.40000009537,409678.041,417674.185,,,
Holding screen,html.Screen,2_3_1_0_0,2022-05-03T20:00:21.789Z,,,,,,,,,,,,,,,,,,,,,,,,,,,,,,,6996.47100000002,,timeout,,,,,,,,,,,,,,,,,,,,,424654.90000009537,424654.086,417657.488,417658.40000009537,417674.185,424670.656,,,
screen,html.Screen,2_3_1_0_1_0,2022-05-03T20:00:22.700Z,,,,,,,,,,,,,,,,,19,,,,,,,,,,,,,,893.5440000476665,,response,,,,17,A,,,,,,Space,keypress(Space),,,,silence,,,,"Interestingly, --- -------- -------- ---------- ---- -------<br>-- ---------- -- --- ----- ------ ----- ---- --------- ----<br>------- ------ -------- -- ------ ---------- ------ ---<br>------ -- -- ---- -- ---------- -------- ------ ---- -------<br>---- --- --------- ------- ----- --------- ---- ----- --<br>------ -------- -- ------ -- ---- ------------",425565.90000009537,425564.2000000477,424654.086,424655,424670.656,425570.21,,0,"Interestingly,"
screen,html.Screen,2_3_1_0_1_1,2022-05-03T20:00:23.514Z,,,,,,,,,,,,,,,,,19,,,,,,,,,,,,,,807.8900001430302,,response,,,,17,A,,,,,,Space,keypress(Space),,,,silence,,,,-------------- the -------- -------- ---------- ---- -------<br>-- ---------- -- --- ----- ------ ----- ---- --------- ----<br>------- ------ -------- -- ------ ---------- ------ ---<br>------ -- -- ---- -- ---------- -------- ------ ---- -------<br>---- --- --------- ------- ----- --------- ---- ----- --<br>------ -------- -- ------ -- ---- ------------,426379.40000009537,426378.10000014305,425553.576,425566.2000000477,425570.21,426386.549,,1,the
screen,html.Screen,2_3_1_0_1_2,2022-05-03T20:00:24.193Z,,,,,,,,,,,,,,,,,19,,,,,,,,,,,,,,671.6510000476846,,response,,,,17,A,,,,,,Space,keypress(Space),,,,silence,,,,-------------- --- heaviest -------- ---------- ---- -------<br>-- ---------- -- --- ----- ------ ----- ---- --------- ----<br>------- ------ -------- -- ------ ---------- ------ ---<br>------ -- -- ---- -- ---------- -------- ------ ---- -------<br>---- --- --------- ------- ----- --------- ---- ----- --<br>------ -------- -- ------ -- ---- ------------,427059.2999999523,427058.2000000477,426369.871,426379.60000014305,426386.549,427069.58,,2,heaviest
screen,html.Screen,2_3_1_0_1_3,2022-05-03T20:00:24.750Z,,,,,,,,,,,,,,,,,19,,,,,,,,,,,,,,545.1200000476674,,response,,,,17,A,,,,,,Space,keypress(Space),,,,silence,,,,-------------- --- -------- isotopes ---------- ---- -------<br>-- ---------- -- --- ----- ------ ----- ---- --------- ----<br>------- ------ -------- -- ------ ---------- ------ ---<br>------ -- -- ---- -- ---------- -------- ------ ---- -------<br>---- --- --------- ------- ----- --------- ---- ----- --<br>------ -------- -- ------ -- ---- ------------,427615.90000009537,427614.7000000477,427052.837,427059.60000014305,427069.58,427619.234,,3,isotopes
screen,html.Screen,2_3_1_0_1_4,2022-05-03T20:00:25.741Z,,,,,,,,,,,,,,,,,19,,,,,,,,,,,,,,986.466000047687,,response,,,,17,A,,,,,,Space,keypress(Space),,,,silence,,,,-------------- --- -------- -------- physicists ---- -------<br>-- ---------- -- --- ----- ------ ----- ---- --------- ----<br>------- ------ -------- -- ------ ---------- ------ ---<br>------ -- -- ---- -- ---------- -------- ------ ---- -------<br>---- --- --------- ------- ----- --------- ---- ----- --<br>------ -------- -- ------ -- ---- ------------,428607,428605.7000000477,427602.54,427616.10000014305,427619.234,428618.797,,4,physicists
screen,html.Screen,2_3_1_0_1_5,2022-05-03T20:00:26.757Z,,,,,,,,,,,,,,,,,19,,,,,,,,,,,,,,1002.6030000953469,,response,,,,17,A,,,,,,Space,keypress(Space),,,,silence,,,,-------------- --- -------- -------- ---------- have -------<br>-- ---------- -- --- ----- ------ ----- ---- --------- ----<br>------- ------ -------- -- ------ ---------- ------ ---<br>------ -- -- ---- -- ---------- -------- ------ ---- -------<br>---- --- --------- ------- ----- --------- ---- ----- --<br>------ -------- -- ------ -- ---- ------------,429622.60000014305,429621.40000009537,428602.069,428607.2000000477,428618.797,429634.981,,5,have
screen,html.Screen,2_3_1_0_1_6,2022-05-03T20:00:27.311Z,,,,,,,,,,,,,,,,,19,,,,,,,,,,,,,,540.4190000953386,,response,,,,17,A,,,,,,Space,keypress(Space),,,,silence,,,,-------------- --- -------- -------- ---------- ---- managed<br>-- ---------- -- --- ----- ------ ----- ---- --------- ----<br>------- ------ -------- -- ------ ---------- ------ ---<br>------ -- -- ---- -- ---------- -------- ------ ---- -------<br>---- --- --------- ------- ----- --------- ---- ----- --<br>------ -------- -- ------ -- ---- ------------,430176.5,430175.40000009537,429618.169,429622.90000009537,429634.981,430184.703,,6,managed
screen,html.Screen,2_3_1_0_1_7,2022-05-03T20:00:27.825Z,,,,,,,,,,,,,,,,,19,,,,,,,,,,,,,,504.4970000477042,,response,,,,17,A,,,,,,Space,keypress(Space),,,,silence,,,,-------------- --- -------- -------- ---------- ---- -------<br>to ---------- -- --- ----- ------ ----- ---- --------- ----<br>------- ------ -------- -- ------ ---------- ------ ---<br>------ -- -- ---- -- ---------- -------- ------ ---- -------<br>---- --- --------- ------- ----- --------- ---- ----- --<br>------ -------- -- ------ -- ---- ------------,430690.40000009537,430689.2000000477,430167.988,430176.7000000477,430184.703,430701.119,,7,to
screen,html.Screen,2_3_1_0_1_8,2022-05-03T20:00:28.617Z,,,,,,,,,,,,,,,,,19,,,,,,,,,,,,,,780.380999999994,,response,,,,17,A,,,,,,Space,keypress(Space),,,,silence,,,,-------------- --- -------- -------- ---------- ---- -------<br>-- synthesize -- --- ----- ------ ----- ---- --------- ----<br>------- ------ -------- -- ------ ---------- ------ ---<br>------ -- -- ---- -- ---------- -------- ------ ---- -------<br>---- --- --------- ------- ----- --------- ---- ----- --<br>------ -------- -- ------ -- ---- ------------,431482.60000014305,431481.5,430684.385,430690.7000000477,430701.119,431500.719,,8,synthesize
screen,html.Screen,2_3_1_0_1_9,2022-05-03T20:00:29.241Z,,,,,,,,,,,,,,,,,19,,,,,,,,,,,,,,605.7810000000172,,response,,,,17,A,,,,,,Space,keypress(Space),,,,silence,,,,-------------- --- -------- -------- ---------- ---- -------<br>-- ---------- so --- ----- ------ ----- ---- --------- ----<br>------- ------ -------- -- ------ ---------- ------ ---<br>------ -- -- ---- -- ---------- -------- ------ ---- -------<br>---- --- --------- ------- ----- --------- ---- ----- --<br>------ -------- -- ------ -- ---- ------------,432107,432106.5,431484.046,431483,431500.719,432117.033,,9,so
screen,html.Screen,2_3_1_0_1_10,2022-05-03T20:00:29.899Z,,,,,,,,,,,,,,,,,19,,,,,,,,,,,,,,647.0670001430553,,response,,,,17,A,,,,,,Space,keypress(Space),,,,silence,,,,-------------- --- -------- -------- ---------- ---- -------<br>-- ---------- -- far ----- ------ ----- ---- --------- ----<br>------- ------ -------- -- ------ ---------- ------ ---<br>------ -- -- ---- -- ---------- -------- ------ ---- -------<br>---- --- --------- ------- ----- --------- ---- ----- --<br>------ -------- -- ------ -- ---- ------------,432764.60000014305,432764.10000014305,432100.238,432107.2000000477,432117.033,432766.594,,10,far
screen,html.Screen,2_3_1_0_1_11,2022-05-03T20:00:30.755Z,,,,,,,,,,,,,,,,,19,,,,,,,,,,,,,,853.106000047701,,response,,,,17,A,,,,,,Space,keypress(Space),,,,silence,,,,-------------- --- -------- -------- ---------- ---- -------<br>-- ---------- -- --- don't ------ ----- ---- --------- ----<br>------- ------ -------- -- ------ ---------- ------ ---<br>------ -- -- ---- -- ---------- -------- ------ ---- -------<br>---- --- --------- ------- ----- --------- ---- ----- --<br>------ -------- -- ------ -- ---- ------------,433621.10000014305,433619.7000000477,432749.971,432764.7000000477,432766.594,433649.656,,11,don't
screen,html.Screen,2_3_1_0_1_12,2022-05-03T20:00:31.353Z,,,,,,,,,,,,,,,,,19,,,,,,,,,,,,,,568.3439999999828,,response,,,,17,A,,,,,,Space,keypress(Space),,,,silence,,,,-------------- --- -------- -------- ---------- ---- -------<br>-- ---------- -- --- ----- behave ----- ---- --------- ----<br>------- ------ -------- -- ------ ---------- ------ ---<br>------ -- -- ---- -- ---------- -------- ------ ---- -------<br>---- --- --------- ------- ----- --------- ---- ----- --<br>------ -------- -- ------ -- ---- ------------,434219,434218,433632.976,433621.40000009537,433649.656,434232.709,,12,behave
screen,html.Screen,2_3_1_0_1_13,2022-05-03T20:00:32.183Z,,,,,,,,,,,,,,,,,19,,,,,,,,,,,,,,815.9910000477103,,response,,,,17,A,,,,,,Space,keypress(Space),,,,silence,,,,-------------- --- -------- -------- ---------- ---- -------<br>-- ---------- -- --- ----- ------ quite ---- --------- ----<br>------- ------ -------- -- ------ ---------- ------ ---<br>------ -- -- ---- -- ---------- -------- ------ ---- -------<br>---- --- --------- ------- ----- --------- ---- ----- --<br>------ -------- -- ------ -- ---- ------------,435049.2000000477,435048.7000000477,434215.892,434219.2999999523,434232.709,435065.545,,13,quite
screen,html.Screen,2_3_1_0_1_14,2022-05-03T20:00:32.664Z,,,,,,,,,,,,,,,,,19,,,,,,,,,,,,,,462.9550000000163,,response,,,,17,A,,,,,,Space,keypress(Space),,,,silence,,,,-------------- --- -------- -------- ---------- ---- -------<br>-- ---------- -- --- ----- ------ ----- like --------- ----<br>------- ------ -------- -- ------ ---------- ------ ---<br>------ -- -- ---- -- ---------- -------- ------ ---- -------<br>---- --- --------- ------- ----- --------- ---- ----- --<br>------ -------- -- ------ -- ---- ------------,435529.7999999523,435528.5,435048.867,435049.2000000477,435065.545,435532.014,,14,like
screen,html.Screen,2_3_1_0_1_15,2022-05-03T20:00:33.192Z,,,,,,,,,,,,,,,,,19,,,,,,,,,,,,,,525.686000047659,,response,,,,17,A,,,,,,Space,keypress(Space),,,,silence,,,,-------------- --- -------- -------- ---------- ---- -------<br>-- ---------- -- --- ----- ------ ----- ---- science's ----<br>------- ------ -------- -- ------ ---------- ------ ---<br>------ -- -- ---- -- ---------- -------- ------ ---- -------<br>---- --- --------- ------- ----- --------- ---- ----- --<br>------ -------- -- ------ -- ---- ------------,436058.2000000477,436057.7000000477,435515.276,435530.10000014305,435532.014,436065.051,,15,science's
screen,html.Screen,2_3_1_0_1_16,2022-05-03T20:00:33.751Z,,,,,,,,,,,,,,,,,19,,,,,,,,,,,,,,550.4490000000224,,response,,,,17,A,,,,,,Space,keypress(Space),,,,silence,,,,-------------- --- -------- -------- ---------- ---- -------<br>-- ---------- -- --- ----- ------ ----- ---- --------- best<br>------- ------ -------- -- ------ ---------- ------ ---<br>------ -- -- ---- -- ---------- -------- ------ ---- -------<br>---- --- --------- ------- ----- --------- ---- ----- --<br>------ -------- -- ------ -- ---- ------------,436616.60000014305,436615.5,436048.38,436058.2999999523,436065.051,436631.529,,16,best
screen,html.Screen,2_3_1_0_1_17,2022-05-03T20:00:34.408Z,,,,,,,,,,,,,,,,,19,,,,,,,,,,,,,,641.5710001430707,,response,,,,17,A,,,,,,Space,keypress(Space),,,,silence,,,,-------------- --- -------- -------- ---------- ---- -------<br>-- ---------- -- --- ----- ------ ----- ---- --------- ----<br>current ------ -------- -- ------ ---------- ------ ---<br>------ -- -- ---- -- ---------- -------- ------ ---- -------<br>---- --- --------- ------- ----- --------- ---- ----- --<br>------ -------- -- ------ -- ---- ------------,437273.7000000477,437273.10000014305,436614.736,436616.90000009537,436631.529,437281.12,,17,current
screen,html.Screen,2_3_1_0_1_18,2022-05-03T20:00:35.044Z,,,,,,,,,,,,,,,,,19,,,,,,,,,,,,,,627.7800000953721,,response,,,,17,A,,,,,,Space,keypress(Space),,,,silence,,,,-------------- --- -------- -------- ---------- ---- -------<br>-- ---------- -- --- ----- ------ ----- ---- --------- ----<br>------- models -------- -- ------ ---------- ------ ---<br>------ -- -- ---- -- ---------- -------- ------ ---- -------<br>---- --- --------- ------- ----- --------- ---- ----- --<br>------ -------- -- ------ -- ---- ------------,437910.10000014305,437908.90000009537,437264.419,437273.90000009537,437281.12,437914.158,,18,models
screen,html.Screen,2_3_1_0_1_19,2022-05-03T20:00:36.041Z,,,,,,,,,,,,,,,,,19,,,,,,,,,,,,,,991.7420000953716,,response,,,,17,A,,,,,,Space,keypress(Space),,,,silence,,,,"-------------- --- -------- -------- ---------- ---- -------<br>-- ---------- -- --- ----- ------ ----- ---- --------- ----<br>------- ------ predict, -- ------ ---------- ------ ---<br>------ -- -- ---- -- ---------- -------- ------ ---- -------<br>---- --- --------- ------- ----- --------- ---- ----- --<br>------ -------- -- ------ -- ---- ------------",438907.10000014305,438905.90000009537,437897.527,437910.2999999523,437914.158,438930.283,,19,"predict,"
screen,html.Screen,2_3_1_0_1_20,2022-05-03T20:00:36.700Z,,,,,,,,,,,,,,,,,19,,,,,,,,,,,,,,634.8170001430553,,response,,,,17,A,,,,,,Space,keypress(Space),,,,silence,,,,-------------- --- -------- -------- ---------- ---- -------<br>-- ---------- -- --- ----- ------ ----- ---- --------- ----<br>------- ------ -------- so ------ ---------- ------ ---<br>------ -- -- ---- -- ---------- -------- ------ ---- -------<br>---- --- --------- ------- ----- --------- ---- ----- --<br>------ -------- -- ------ -- ---- ------------,439566.2000000477,439565.10000014305,438924.783,438907.40000009537,438930.283,439580.087,,20,so
screen,html.Screen,2_3_1_0_1_21,2022-05-03T20:00:37.330Z,,,,,,,,,,,,,,,,,19,,,,,,,,,,,,,,615.3130000953679,,response,,,,17,A,,,,,,Space,keypress(Space),,,,silence,,,,-------------- --- -------- -------- ---------- ---- -------<br>-- ---------- -- --- ----- ------ ----- ---- --------- ----<br>------- ------ -------- -- stable ---------- ------ ---<br>------ -- -- ---- -- ---------- -------- ------ ---- -------<br>---- --- --------- ------- ----- --------- ---- ----- --<br>------ -------- -- ------ -- ---- ------------,440195.90000009537,440195.40000009537,439563.369,439566.40000009537,439580.087,440213.094,,21,stable
screen,html.Screen,2_3_1_0_1_22,2022-05-03T20:00:38.496Z,,,,,,,,,,,,,,,,,19,,,,,,,,,,,,,,1148.0060001430684,,response,,,,17,A,,,,,,Space,keypress(Space),,,,silence,,,,-------------- --- -------- -------- ---------- ---- -------<br>-- ---------- -- --- ----- ------ ----- ---- --------- ----<br>------- ------ -------- -- ------ superheavy ------ ---<br>------ -- -- ---- -- ---------- -------- ------ ---- -------<br>---- --- --------- ------- ----- --------- ---- ----- --<br>------ -------- -- ------ -- ---- ------------,441362.2000000477,441361.10000014305,440196.302,440196.10000014305,440213.094,441379.185,,22,superheavy
screen,html.Screen,2_3_1_0_1_23,2022-05-03T20:00:39.586Z,,,,,,,,,,,,,,,,,19,,,,,,,,,,,,,,1071.3150000000023,,response,,,,17,A,,,,,,Space,keypress(Space),,,,silence,,,,-------------- --- -------- -------- ---------- ---- -------<br>-- ---------- -- --- ----- ------ ----- ---- --------- ----<br>------- ------ -------- -- ------ ---------- nuclei ---<br>------ -- -- ---- -- ---------- -------- ------ ---- -------<br>---- --- --------- ------- ----- --------- ---- ----- --<br>------ -------- -- ------ -- ---- ------------,442451.5,442450.5,441362.482,441362.40000009537,441379.185,442461.994,,23,nuclei
screen,html.Screen,2_3_1_0_1_24,2022-05-03T20:00:40.472Z,,,,,,,,,,,,,,,,,19,,,,,,,,,,,,,,875.2060000476777,,response,,,,17,A,,,,,,Space,keypress(Space),,,,silence,,,,-------------- --- -------- -------- ---------- ---- -------<br>-- ---------- -- --- ----- ------ ----- ---- --------- ----<br>------- ------ -------- -- ------ ---------- ------ are<br>------ -- -- ---- -- ---------- -------- ------ ---- -------<br>---- --- --------- ------- ----- --------- ---- ----- --<br>------ -------- -- ------ -- ---- ------------,443338.2999999523,443337.2000000477,442445.244,442451.7000000477,442461.994,443344.726,,24,are
screen,html.Screen,2_3_1_0_1_25,2022-05-03T20:00:41.261Z,,,,,,,,,,,,,,,,,19,,,,,,,,,,,,,,780.9740000476595,,response,,,,17,A,,,,,,Space,keypress(Space),,,,silence,,,,-------------- --- -------- -------- ---------- ---- -------<br>-- ---------- -- --- ----- ------ ----- ---- --------- ----<br>------- ------ -------- -- ------ ---------- ------ ---<br>likely -- -- ---- -- ---------- -------- ------ ---- -------<br>---- --- --------- ------- ----- --------- ---- ----- --<br>------ -------- -- ------ -- ---- ------------,444126.7999999523,444125.7000000477,443328.156,443338.5,443344.726,444144.506,,25,likely
screen,html.Screen,2_3_1_0_1_26,2022-05-03T20:00:41.846Z,,,,,,,,,,,,,,,,,19,,,,,,,,,,,,,,565.994000000006,,response,,,,17,A,,,,,,Space,keypress(Space),,,,silence,,,,-------------- --- -------- -------- ---------- ---- -------<br>-- ---------- -- --- ----- ------ ----- ---- --------- ----<br>------- ------ -------- -- ------ ---------- ------ ---<br>------ to -- ---- -- ---------- -------- ------ ---- -------<br>---- --- --------- ------- ----- --------- ---- ----- --<br>------ -------- -- ------ -- ---- ------------,444711.7999999523,444710.5,444127.7,444127,444144.506,444727.529,,26,to
screen,html.Screen,2_3_1_0_1_27,2022-05-03T20:00:42.357Z,,,,,,,,,,,,,,,,,19,,,,,,,,,,,,,,494.1710000477033,,response,,,,17,A,,,,,,Space,keypress(Space),,,,silence,,,,-------------- --- -------- -------- ---------- ---- -------<br>-- ---------- -- --- ----- ------ ----- ---- --------- ----<br>------- ------ -------- -- ------ ---------- ------ ---<br>------ -- be ---- -- ---------- -------- ------ ---- -------<br>---- --- --------- ------- ----- --------- ---- ----- --<br>------ -------- -- ------ -- ---- ------------,445222.7999999523,445221.7000000477,444710.62,444712,444727.529,445227.147,,27,be
screen,html.Screen,2_3_1_0_1_28,2022-05-03T20:00:42.949Z,,,,,,,,,,,,,,,,,19,,,,,,,,,,,,,,586.6529999523191,,response,,,,17,A,,,,,,Space,keypress(Space),,,,silence,,,,-------------- --- -------- -------- ---------- ---- -------<br>-- ---------- -- --- ----- ------ ----- ---- --------- ----<br>------- ------ -------- -- ------ ---------- ------ ---<br>------ -- -- full -- ---------- -------- ------ ---- -------<br>---- --- --------- ------- ----- --------- ---- ----- --<br>------ -------- -- ------ -- ---- ------------,445814.90000009537,445813.7999999523,445210.466,445223.10000014305,445227.147,445843.677,,28,full
screen,html.Screen,2_3_1_0_1_29,2022-05-03T20:00:43.536Z,,,,,,,,,,,,,,,,,19,,,,,,,,,,,,,,557.423000143026,,response,,,,17,A,,,,,,Space,keypress(Space),,,,silence,,,,-------------- --- -------- -------- ---------- ---- -------<br>-- ---------- -- --- ----- ------ ----- ---- --------- ----<br>------- ------ -------- -- ------ ---------- ------ ---<br>------ -- -- ---- of ---------- -------- ------ ---- -------<br>---- --- --------- ------- ----- --------- ---- ----- --<br>------ -------- -- ------ -- ---- ------------,446402.40000009537,446401.10000014305,445826.948,445815.2000000477,445843.677,446410.025,,29,of
screen,html.Screen,2_3_1_0_1_30,2022-05-03T20:00:44.775Z,,,,,,,,,,,,,,,,,19,,,,,,,,,,,,,,1230.1750000476604,,response,,,,17,A,,,,,,Space,keypress(Space),,,,silence,,,,-------------- --- -------- -------- ---------- ---- -------<br>-- ---------- -- --- ----- ------ ----- ---- --------- ----<br>------- ------ -------- -- ------ ---------- ------ ---<br>------ -- -- ---- -- surprises. -------- ------ ---- -------<br>---- --- --------- ------- ----- --------- ---- ----- --<br>------ -------- -- ------ -- ---- ------------,447641.2999999523,447640.2000000477,446393.348,446402.40000009537,446410.025,447659.359,,30,surprises.
screen,html.Screen,2_3_1_0_1_31,2022-05-03T20:00:45.520Z,,,,,,,,,,,,,,,,,19,,,,,,,,,,,,,,724.841000047687,,response,,,,17,A,,,,,,Space,keypress(Space),,,,silence,,,,-------------- --- -------- -------- ---------- ---- -------<br>-- ---------- -- --- ----- ------ ----- ---- --------- ----<br>------- ------ -------- -- ------ ---------- ------ ---<br>------ -- -- ---- -- ---------- Chemists ------ ---- -------<br>---- --- --------- ------- ----- --------- ---- ----- --<br>------ -------- -- ------ -- ---- ------------,448385.5,448384.2000000477,447626.011,447641.5,447659.359,448392.302,,31,Chemists
screen,html.Screen,2_3_1_0_1_32,2022-05-03T20:00:46.081Z,,,,,,,,,,,,,,,,,19,,,,,,,,,,,,,,552.9979999522911,,response,,,,17,A,,,,,,Space,keypress(Space),,,,silence,,,,-------------- --- -------- -------- ---------- ---- -------<br>-- ---------- -- --- ----- ------ ----- ---- --------- ----<br>------- ------ -------- -- ------ ---------- ------ ---<br>------ -- -- ---- -- ---------- -------- cannot ---- -------<br>---- --- --------- ------- ----- --------- ---- ----- --<br>------ -------- -- ------ -- ---- ------------,448946.7000000477,448945.2999999523,448375.611,448385.60000014305,448392.302,448958.767,,32,cannot
screen,html.Screen,2_3_1_0_1_33,2022-05-03T20:00:46.620Z,,,,,,,,,,,,,,,,,19,,,,,,,,,,,,,,525.9330000476912,,response,,,,17,A,,,,,,Space,keypress(Space),,,,silence,,,,-------------- --- -------- -------- ---------- ---- -------<br>-- ---------- -- --- ----- ------ ----- ---- --------- ----<br>------- ------ -------- -- ------ ---------- ------ ---<br>------ -- -- ---- -- ---------- -------- ------ even -------<br>---- --- --------- ------- ----- --------- ---- ----- --<br>------ -------- -- ------ -- ---- ------------,449485.7999999523,449484.7000000477,448941.995,448947,448958.767,449491.749,,33,even
screen,html.Screen,2_3_1_0_1_34,2022-05-03T20:00:47.247Z,,,,,,,,,,,,,,,,,19,,,,,,,,,,,,,,619.5509999523056,,response,,,,17,A,,,,,,Space,keypress(Space),,,,silence,,,,-------------- --- -------- -------- ---------- ---- -------<br>-- ---------- -- --- ----- ------ ----- ---- --------- ----<br>------- ------ -------- -- ------ ---------- ------ ---<br>------ -- -- ---- -- ---------- -------- ------ ---- predict<br>---- --- --------- ------- ----- --------- ---- ----- --<br>------ -------- -- ------ -- ---- ------------,450112.40000009537,450111.2999999523,449475.068,449486,449491.749,450124.975,,34,predict
screen,html.Screen,2_3_1_0_1_35,2022-05-03T20:00:47.757Z,,,,,,,,,,,,,,,,,19,,,,,,,,,,,,,,496.4250000953907,,response,,,,17,A,,,,,,Space,keypress(Space),,,,silence,,,,-------------- --- -------- -------- ---------- ---- -------<br>-- ---------- -- --- ----- ------ ----- ---- --------- ----<br>------- ------ -------- -- ------ ---------- ------ ---<br>------ -- -- ---- -- ---------- -------- ------ ---- -------<br>with --- --------- ------- ----- --------- ---- ----- --<br>------ -------- -- ------ -- ---- ------------,450622.60000014305,450621.40000009537,450108.186,450112.60000014305,450124.975,450656.777,,35,with
screen,html.Screen,2_3_1_0_1_36,2022-05-03T20:00:49.116Z,,,,,,,,,,,,,,,,,19,,,,,,,,,,,,,,1324.3230001430493,,response,,,,17,A,,,,,,Space,keypress(Space),,,,silence,,,,-------------- --- -------- -------- ---------- ---- -------<br>-- ---------- -- --- ----- ------ ----- ---- --------- ----<br>------- ------ -------- -- ------ ---------- ------ ---<br>------ -- -- ---- -- ---------- -------- ------ ---- -------<br>---- any --------- ------- ----- --------- ---- ----- --<br>------ -------- -- ------ -- ---- ------------,451982.2000000477,451981.10000014305,450607.959,450622.7000000477,450656.777,451990.62,,36,any
screen,html.Screen,2_3_1_0_1_37,2022-05-03T20:00:49.774Z,,,,,,,,,,,,,,,,,19,,,,,,,,,,,,,,648.4800001430558,,response,,,,17,A,,,,,,Space,keypress(Space),,,,silence,,,,-------------- --- -------- -------- ---------- ---- -------<br>-- ---------- -- --- ----- ------ ----- ---- --------- ----<br>------- ------ -------- -- ------ ---------- ------ ---<br>------ -- -- ---- -- ---------- -------- ------ ---- -------<br>---- --- certainty ------- ----- --------- ---- ----- --<br>------ -------- -- ------ -- ---- ------------,452640.2999999523,452639.10000014305,451973.877,451982.40000009537,451990.62,452656.906,,37,certainty
screen,html.Screen,2_3_1_0_1_38,2022-05-03T20:00:50.733Z,,,,,,,,,,,,,,,,,19,,,,,,,,,,,,,,941.0939999999828,,response,,,,17,A,,,,,,Space,keypress(Space),,,,silence,,,,-------------- --- -------- -------- ---------- ---- -------<br>-- ---------- -- --- ----- ------ ----- ---- --------- ----<br>------- ------ -------- -- ------ ---------- ------ ---<br>------ -- -- ---- -- ---------- -------- ------ ---- -------<br>---- --- --------- whether ----- --------- ---- ----- --<br>------ -------- -- ------ -- ---- ------------,453599.10000014305,453598,452640.18,452640.60000014305,452656.906,453606.381,,38,whether
screen,html.Screen,2_3_1_0_1_39,2022-05-03T20:00:51.309Z,,,,,,,,,,,,,,,,,19,,,,,,,,,,,,,,566.619000000006,,response,,,,17,A,,,,,,Space,keypress(Space),,,,silence,,,,-------------- --- -------- -------- ---------- ---- -------<br>-- ---------- -- --- ----- ------ ----- ---- --------- ----<br>------- ------ -------- -- ------ ---------- ------ ---<br>------ -- -- ---- -- ---------- -------- ------ ---- -------<br>---- --- --------- ------- these --------- ---- ----- --<br>------ -------- -- ------ -- ---- ------------,454174.5,454173,453589.762,453599.40000009537,453606.381,454189.457,,39,these
