sender,sender_type,sender_id,timestamp,meta,,Blues,Classical,Country,Dance,Electronic,Folk,Gospel,Hip-Hop,Jazz,Latin,Musical/Film,New-age,Pop,Prolific_id,Provo_ID,R&B,Rap,Reggae,Religious,Rock,Soul,Swing,Traditional,age,artist_name,correct,correctResponse,distraction,duration,education,ended_on,familiarity,gender,headphone_check_performance,item,list,music_frequency,offensiveness,pleasantness,position_correct,preference,response,response_action,snippet_file,song_name,song_rating,sound,stimulus_1,stimulus_2,stimulus_3,text,time_commit,time_end,time_render,time_run,time_show,time_switch,url,word,word_ID
Prolific ID,html.Form,0,2022-05-09T12:36:39.802Z,"{""labjs_version"":""20.2.2"",""labjs_build"":{""flavor"":""production"",""commit"":""a25486e0c714a0ae2ce03ff94b7bb6896854dcfa""},""location"":""https://run.pavlovia.org/mvasilev/prolific3_music_f/"",""userAgent"":""Mozilla/5.0 (Windows NT 10.0; Win64; x64; rv:100.0) Gecko/20100101 Firefox/100.0"",""platform"":""Win32"",""language"":""en-GB"",""locale"":""en-GB"",""timeZone"":""Europe/London"",""timezoneOffset"":-60,""screen_width"":1366,""screen_height"":768,""scroll_width"":898,""scroll_height"":566,""window_innerWidth"":898,""window_innerHeight"":614,""devicePixelRatio"":1}",,,,,,,,,,,,,,,5e15d913a98a7abe70ae7413,,,,,,,,,,,,,,,5558.18,,form submission,,,,,,,,,,,,,,,,,,,,,21470,21469,15910.64,15910,15910.82,21964.8,{},,
Introduction,html.Screen,1_0,2022-05-09T12:36:49.032Z,,,,,,,,,,,,,,,,,,,,,,,,,,,,,,,8724.2,,response,,,,,,,,,,,continue,click button,,,,,,,,,30700,30689,21463.5,21471,21964.8,30712.5,,,
Volume calibration,html.Screen,1_1,2022-05-09T12:37:41.674Z,,,,,,,,,,,,,,,,,,,,,,,,,,,,,,,52615.5,,response,,,,,,,,,,,continue,click button,,,,,,,,,83343,83328,30698.78,30701,30712.5,83348.7,,,
Task instructions,html.Screen,1_2,2022-05-09T12:37:50.514Z,,,,,,,,,,,,,,,,,,,,,,,,,,,,,,,8824.300000000003,,response,,,,,,,,,,,continue,click button,,,,,,,,,92183,92173,83340.28,83344,83348.7,92196.32,,,
Sounds,html.Screen,1_3_0_0,2022-05-09T12:37:54.762Z,,,,,,,,,,,,,,,,,,,,,,,,,,,,,,,4249,,timeout,,,,,,,,,1,,,,,,,,S,O,I,,96431,96428.7,92180.58,92184,92196.32,96445.32,,,
Judgement,html.Screen,1_3_0_1,2022-05-09T12:37:57.684Z,,,,,,,,,,,,,,,,,,,,,,,,,,,,true,1,,2898.679999999993,,response,,,,,,,,,1,,1,click #choice-1,,,,,S,O,I,,99352,99344,96428.7,96432,96445.32,99361.2,,,
Trial,flow.Sequence,1_3_0,2022-05-09T12:37:57.685Z,,,,,,,,,,,,,,,,,,,,,,,,,,,,,,,7147.679999999993,,completion,,,,,,,,,1,,,,,,,,S,O,I,,99353,99344,92180.58,92184,92196.32,99361.2,,,
Sounds,html.Screen,1_3_1_0,2022-05-09T12:38:01.925Z,,,,,,,,,,,,,,,,,,,,,,,,,,,,,,,4248.900000000009,,timeout,,,,,,,,,3,,,,,,,,I,O,S,,103593,103593.44,99350.28,99354,99361.2,103610.1,,,
Judgement,html.Screen,1_3_1_1,2022-05-09T12:38:03.223Z,,,,,,,,,,,,,,,,,,,,,,,,,,,,true,3,,1265.8999999999942,,response,,,,,,,,,3,,3,click #choice-3,,,,,I,O,S,,104892,104876,103593.44,103595,103610.1,104893.06,,,
Trial,flow.Sequence,1_3_1,2022-05-09T12:38:03.224Z,,,,,,,,,,,,,,,,,,,,,,,,,,,,,,,5514.800000000003,,completion,,,,,,,,,3,,,,,,,,I,O,S,,104893,104876,99350.28,99354,99361.2,104893.06,,,
Sounds,html.Screen,1_3_2_0,2022-05-09T12:38:07.459Z,,,,,,,,,,,,,,,,,,,,,,,,,,,,,,,4249.020000000004,,timeout,,,,,,,,,2,,,,,,,,O,S,I,,109128,109125.42,104890.32,104894,104893.06,109142.08,,,
Judgement,html.Screen,1_3_2_1,2022-05-09T12:38:09.184Z,,,,,,,,,,,,,,,,,,,,,,,,,,,,true,2,,1701.9199999999983,,response,,,,,,,,,2,,2,click #choice-2,,,,,O,S,I,,110852,110844,109125.42,109129,109142.08,110858.16,,,
Trial,flow.Sequence,1_3_2,2022-05-09T12:38:09.185Z,,,,,,,,,,,,,,,,,,,,,,,,,,,,,,,5950.940000000002,,completion,,,,,,,,,2,,,,,,,,O,S,I,,110852,110844,104890.32,104893,104893.06,110858.16,,,
Sounds,html.Screen,1_3_3_0,2022-05-09T12:38:13.424Z,,,,,,,,,,,,,,,,,,,,,,,,,,,,,,,4248.979999999996,,timeout,,,,,,,,,2,,,,,,,,I,S,O,,115092,115090.48,110850.22,110853,110858.16,115107.14,,,
Judgement,html.Screen,1_3_3_1,2022-05-09T12:38:14.333Z,,,,,,,,,,,,,,,,,,,,,,,,,,,,true,2,,877.8600000000006,,response,,,,,,,,,2,,2,click #choice-2,,,,,I,S,O,,116002,115985,115090.48,115093,115107.14,116006.82,,,
Trial,flow.Sequence,1_3_3,2022-05-09T12:38:14.334Z,,,,,,,,,,,,,,,,,,,,,,,,,,,,,,,5126.8399999999965,,completion,,,,,,,,,2,,,,,,,,I,S,O,,116002,115985,110850.22,110853,110858.16,116006.82,,,
Sounds,html.Screen,1_3_4_0,2022-05-09T12:38:18.571Z,,,,,,,,,,,,,,,,,,,,,,,,,,,,,,,4248.939999999988,,timeout,,,,,,,,,3,,,,,,,,O,I,S,,120240,120239.1,116000.32,116003,116006.82,120255.76,,,
Judgement,html.Screen,1_3_4_1,2022-05-09T12:38:19.674Z,,,,,,,,,,,,,,,,,,,,,,,,,,,,true,3,,1072.2400000000052,,response,,,,,,,,,3,,3,click #choice-3,,,,,O,I,S,,121341,121328,120239.1,120240,120255.76,121355.48,,,
Trial,flow.Sequence,1_3_4,2022-05-09T12:38:19.674Z,,,,,,,,,,,,,,,,,,,,,,,,,,,,,,,5321.179999999993,,completion,,,,,,,,,3,,,,,,,,O,I,S,,121342,121328,116000.32,116003,116006.82,121355.48,,,
Sounds,html.Screen,1_3_5_0,2022-05-09T12:38:23.921Z,,,,,,,,,,,,,,,,,,,,,,,,,,,,,,,4249.12000000001,,timeout,,,,,,,,,1,,,,,,,,S,I,O,,125590,125587.94,121340.32,121342,121355.48,125604.6,,,
Judgement,html.Screen,1_3_5_1,2022-05-09T12:38:26.343Z,,,,,,,,,,,,,,,,,,,,,,,,,,,,true,1,,2395.399999999994,,response,,,,,,,,,1,,1,click #choice-1,,,,,S,I,O,,128011,128000,125587.94,125590,125604.6,128020.34,,,
Trial,flow.Sequence,1_3_5,2022-05-09T12:38:26.344Z,,,,,,,,,,,,,,,,,,,,,,,,,,,,,,,6644.520000000004,,completion,,,,,,,,,1,,,,,,,,S,I,O,,128012,128000,121340.32,121342,121355.48,128020.34,,,
Task,flow.Loop,1_3,2022-05-09T12:38:26.345Z,,,,,,,,,,,,,,,,,,,,,,,,,,,,,,,35803.67999999999,,completion,,,1,,,,,,,,,,,,,,,,,,128013,128000,92180.58,92183,92196.32,128020.34,,,
Trap,html.Screen,1_4,2022-05-09T12:38:26.347Z,,,,,,,,,,,,,,,,,,,,,,,,,,,,,,,NaN,,skipped,,,,,,,,,,,,,,,,,,,,,128015,128000,,128015,,128020.34,,,
Thanks,html.Screen,1_5,2022-05-09T12:38:30.983Z,,,,,,,,,,,,,,,,,,,,,,,,,,,,,,,4620.6600000000035,,response,,,,,,,,,,,continue,click button,,,,,,,,,132652,132641,128010.26,128015,128020.34,142283.34,,,
Headphone screening,flow.Sequence,1,2022-05-09T12:38:30.984Z,,,,,,,,,,,,,,,,,,,,,,,,,,,,,,,110676.2,,completion,,,,,,,,,,,,,,,,,,,,,132653,132641,21463.5,21471,21964.8,142283.34,,,
Instructions,html.Page,2_0,2022-05-09T12:38:54.787Z,,,,,,,,,,,,,,,,,,,,,,,,,,,,,,,14171.660000000003,,form submission,,,,,,,,,,,,,,,,,,,,,156456,156455,142271.18,142219,142283.34,156462.9,,,
Holding screen,html.Screen,2_1_0_0,2022-05-09T12:39:04.777Z,,,,,,,,,,,,,,,,,,,,,,,,,,,,,,,9997.420000000013,,timeout,,,,,,,,,,,,,,,,,,,,,166445,166443.66,156451.26,156456,156462.9,166460.32,,,
screen,html.Screen,2_1_0_1_0,2022-05-09T12:39:08.821Z,,,,,,,,,,,,,,,,,53,,,,,,,,,,,,,,4024.679999999993,,response,,,,99,,,,,,,Space,keypress(Space),,,,,,,,When -- ----- -- ------ - ------- --- ----------<br>------------- ------ ------ ---- ---- ------- ----- -- ----<br>-------- ------- -- ---------- --- - --- ----- ----- ----<br>---- --- --- ----- --- ---- ---- ------- ----- ---- -------<br>--- --- -- ----- -- --- ---- -- --- ---- -- ------ ------<br>--- ----- -- ----,170489,170485,166443.66,166446,166460.32,170492.6,,0,When
screen,html.Screen,2_1_0_1_1,2022-05-09T12:39:09.836Z,,,,,,,,,,,,,,,,,53,,,,,,,,,,,,,,992.3999999999942,,response,,,,99,,,,,,,Space,keypress(Space),,,,,,,,---- it ----- -- ------ - ------- --- ----------<br>------------- ------ ------ ---- ---- ------- ----- -- ----<br>-------- ------- -- ---------- --- - --- ----- ----- ----<br>---- --- --- ----- --- ---- ---- ------- ----- ---- -------<br>--- --- -- ----- -- --- ---- -- --- ---- -- ------ ------<br>--- ----- -- ----,171504,171485,170490.4,170491,170492.6,171505.62,,1,it
screen,html.Screen,2_1_0_1_2,2022-05-09T12:39:10.364Z,,,,,,,,,,,,,,,,,53,,,,,,,,,,,,,,510.38000000000466,,response,,,,99,,,,,,,Space,keypress(Space),,,,,,,,---- -- comes -- ------ - ------- --- ----------<br>------------- ------ ------ ---- ---- ------- ----- -- ----<br>-------- ------- -- ---------- --- - --- ----- ----- ----<br>---- --- --- ----- --- ---- ---- ------- ----- ---- -------<br>--- --- -- ----- -- --- ---- -- --- ---- -- ------ ------<br>--- ----- -- ----,172032,172016,171505.14,171505,171505.62,172033.52,,2,comes
screen,html.Screen,2_1_0_1_3,2022-05-09T12:39:10.826Z,,,,,,,,,,,,,,,,,53,,,,,,,,,,,,,,452.4800000000105,,response,,,,99,,,,,,,Space,keypress(Space),,,,,,,,---- -- ----- to ------ - ------- --- ----------<br>------------- ------ ------ ---- ---- ------- ----- -- ----<br>-------- ------- -- ---------- --- - --- ----- ----- ----<br>---- --- --- ----- --- ---- ---- ------- ----- ---- -------<br>--- --- -- ----- -- --- ---- -- --- ---- -- ------ ------<br>--- ----- -- ----,172493,172486,172033.04,172033,172033.52,172494.86,,3,to
screen,html.Screen,2_1_0_1_4,2022-05-09T12:39:11.562Z,,,,,,,,,,,,,,,,,53,,,,,,,,,,,,,,709.140000000014,,response,,,,99,,,,,,,Space,keypress(Space),,,,,,,,---- -- ----- -- having - ------- --- ----------<br>------------- ------ ------ ---- ---- ------- ----- -- ----<br>-------- ------- -- ---------- --- - --- ----- ----- ----<br>---- --- --- ----- --- ---- ---- ------- ----- ---- -------<br>--- --- -- ----- -- --- ---- -- --- ---- -- ------ ------<br>--- ----- -- ----,173230,173204,172494.3,172494,172494.86,173231.66,,4,having
screen,html.Screen,2_1_0_1_5,2022-05-09T12:39:12.222Z,,,,,,,,,,,,,,,,,53,,,,,,,,,,,,,,643.3399999999965,,response,,,,99,,,,,,,Space,keypress(Space),,,,,,,,---- -- ----- -- ------ a ------- --- ----------<br>------------- ------ ------ ---- ---- ------- ----- -- ----<br>-------- ------- -- ---------- --- - --- ----- ----- ----<br>---- --- --- ----- --- ---- ---- ------- ----- ---- -------<br>--- --- -- ----- -- --- ---- -- --- ---- -- ------ ------<br>--- ----- -- ----,173890,173875,173231.18,173231,173231.66,173891.66,,5,a
screen,html.Screen,2_1_0_1_6,2022-05-09T12:39:12.856Z,,,,,,,,,,,,,,,,,53,,,,,,,,,,,,,,624.3399999999965,,response,,,,99,,,,,,,Space,keypress(Space),,,,,,,,---- -- ----- -- ------ - lasting --- ----------<br>------------- ------ ------ ---- ---- ------- ----- -- ----<br>-------- ------- -- ---------- --- - --- ----- ----- ----<br>---- --- --- ----- --- ---- ---- ------- ----- ---- -------<br>--- --- -- ----- -- --- ---- -- --- ---- -- ------ ------<br>--- ----- -- ----,174524,174516,173890.36,173890,173891.66,174525.3,,6,lasting
screen,html.Screen,2_1_0_1_7,2022-05-09T12:39:13.432Z,,,,,,,,,,,,,,,,,53,,,,,,,,,,,,,,552.7000000000116,,response,,,,99,,,,,,,Space,keypress(Space),,,,,,,,---- -- ----- -- ------ - ------- and ----------<br>------------- ------ ------ ---- ---- ------- ----- -- ----<br>-------- ------- -- ---------- --- - --- ----- ----- ----<br>---- --- --- ----- --- ---- ---- ------- ----- ---- -------<br>--- --- -- ----- -- --- ---- -- --- ---- -- ------ ------<br>--- ----- -- ----,175100,175078,174524.8,174525,174525.3,175101.02,,7,and
screen,html.Screen,2_1_0_1_8,2022-05-09T12:39:14.096Z,,,,,,,,,,,,,,,,,53,,,,,,,,,,,,,,648.9800000000105,,response,,,,99,,,,,,,Space,keypress(Space),,,,,,,,---- -- ----- -- ------ - ------- --- fulfilling<br>------------- ------ ------ ---- ---- ------- ----- -- ----<br>-------- ------- -- ---------- --- - --- ----- ----- ----<br>---- --- --- ----- --- ---- ---- ------- ----- ---- -------<br>--- --- -- ----- -- --- ---- -- --- ---- -- ------ ------<br>--- ----- -- ----,175764,175750,175100.54,175100,175101.02,175765.14,,8,fulfilling
screen,html.Screen,2_1_0_1_9,2022-05-09T12:39:14.769Z,,,,,,,,,,,,,,,,,53,,,,,,,,,,,,,,656.859999999986,,response,,,,99,,,,,,,Space,keypress(Space),,,,,,,,"---- -- ----- -- ------ - ------- --- ----------<br>relationship, ------ ------ ---- ---- ------- ----- -- ----<br>-------- ------- -- ---------- --- - --- ----- ----- ----<br>---- --- --- ----- --- ---- ---- ------- ----- ---- -------<br>--- --- -- ----- -- --- ---- -- --- ---- -- ------ ------<br>--- ----- -- ----",176438,176422,175764.66,175765,175765.14,176441.08,,9,"relationship,"
screen,html.Screen,2_1_0_1_10,2022-05-09T12:39:15.434Z,,,,,,,,,,,,,,,,,53,,,,,,,,,,,,,,652.9200000000128,,response,,,,99,,,,,,,Space,keypress(Space),,,,,,,,---- -- ----- -- ------ - ------- --- ----------<br>------------- common ------ ---- ---- ------- ----- -- ----<br>-------- ------- -- ---------- --- - --- ----- ----- ----<br>---- --- --- ----- --- ---- ---- ------- ----- ---- -------<br>--- --- -- ----- -- --- ---- -- --- ---- -- ------ ------<br>--- ----- -- ----,177102,177094,176437.98,176438,176441.08,177103.2,,10,common
screen,html.Screen,2_1_0_1_11,2022-05-09T12:39:16.045Z,,,,,,,,,,,,,,,,,53,,,,,,,,,,,,,,599.7999999999884,,response,,,,99,,,,,,,Space,keypress(Space),,,,,,,,---- -- ----- -- ------ - ------- --- ----------<br>------------- ------ wisdom ---- ---- ------- ----- -- ----<br>-------- ------- -- ---------- --- - --- ----- ----- ----<br>---- --- --- ----- --- ---- ---- ------- ----- ---- -------<br>--- --- -- ----- -- --- ---- -- --- ---- -- ------ ------<br>--- ----- -- ----,177713,177703,177102.74,177103,177103.2,177714.3,,11,wisdom
screen,html.Screen,2_1_0_1_12,2022-05-09T12:39:16.563Z,,,,,,,,,,,,,,,,,53,,,,,,,,,,,,,,505.70000000001164,,response,,,,99,,,,,,,Space,keypress(Space),,,,,,,,---- -- ----- -- ------ - ------- --- ----------<br>------------- ------ ------ says ---- ------- ----- -- ----<br>-------- ------- -- ---------- --- - --- ----- ----- ----<br>---- --- --- ----- --- ---- ---- ------- ----- ---- -------<br>--- --- -- ----- -- --- ---- -- --- ---- -- ------ ------<br>--- ----- -- ----,178232,178220,177713.84,177713,177714.3,178232.58,,12,says
screen,html.Screen,2_1_0_1_13,2022-05-09T12:39:17.278Z,,,,,,,,,,,,,,,,,53,,,,,,,,,,,,,,705.4200000000128,,response,,,,99,,,,,,,Space,keypress(Space),,,,,,,,---- -- ----- -- ------ - ------- --- ----------<br>------------- ------ ------ ---- that ------- ----- -- ----<br>-------- ------- -- ---------- --- - --- ----- ----- ----<br>---- --- --- ----- --- ---- ---- ------- ----- ---- -------<br>--- --- -- ----- -- --- ---- -- --- ---- -- ------ ------<br>--- ----- -- ----,178947,178938,178232.1,178232,178232.58,178948.16,,13,that
screen,html.Screen,2_1_0_1_14,2022-05-09T12:39:18.006Z,,,,,,,,,,,,,,,,,53,,,,,,,,,,,,,,708.8399999999965,,response,,,,99,,,,,,,Space,keypress(Space),,,,,,,,---- -- ----- -- ------ - ------- --- ----------<br>------------- ------ ------ ---- ---- feeling ----- -- ----<br>-------- ------- -- ---------- --- - --- ----- ----- ----<br>---- --- --- ----- --- ---- ---- ------- ----- ---- -------<br>--- --- -- ----- -- --- ---- -- --- ---- -- ------ ------<br>--- ----- -- ----,179674,179657,178947.62,178948,178948.16,179675.36,,14,feeling
screen,html.Screen,2_1_0_1_15,2022-05-09T12:39:18.621Z,,,,,,,,,,,,,,,,,53,,,,,,,,,,,,,,590.640000000014,,response,,,,99,,,,,,,Space,keypress(Space),,,,,,,,---- -- ----- -- ------ - ------- --- ----------<br>------------- ------ ------ ---- ---- ------- close -- ----<br>-------- ------- -- ---------- --- - --- ----- ----- ----<br>---- --- --- ----- --- ---- ---- ------- ----- ---- -------<br>--- --- -- ----- -- --- ---- -- --- ---- -- ------ ------<br>--- ----- -- ----,180290,180266,179674.84,179675,179675.36,180291.14,,15,close
screen,html.Screen,2_1_0_1_16,2022-05-09T12:39:19.107Z,,,,,,,,,,,,,,,,,53,,,,,,,,,,,,,,474.85999999998603,,response,,,,99,,,,,,,Space,keypress(Space),,,,,,,,---- -- ----- -- ------ - ------- --- ----------<br>------------- ------ ------ ---- ---- ------- ----- to ----<br>-------- ------- -- ---------- --- - --- ----- ----- ----<br>---- --- --- ----- --- ---- ---- ------- ----- ---- -------<br>--- --- -- ----- -- --- ---- -- --- ---- -- ------ ------<br>--- ----- -- ----,180775,180766,180290.62,180290,180291.14,180775.02,,16,to
screen,html.Screen,2_1_0_1_17,2022-05-09T12:39:19.966Z,,,,,,,,,,,,,,,,,53,,,,,,,,,,,,,,849.9800000000105,,response,,,,99,,,,,,,Space,keypress(Space),,,,,,,,---- -- ----- -- ------ - ------- --- ----------<br>------------- ------ ------ ---- ---- ------- ----- -- your<br>-------- ------- -- ---------- --- - --- ----- ----- ----<br>---- --- --- ----- --- ---- ---- ------- ----- ---- -------<br>--- --- -- ----- -- --- ---- -- --- ---- -- ------ ------<br>--- ----- -- ----,181634,181625,180774.84,180775,180775.02,181635.48,,17,your
screen,html.Screen,2_1_0_1_18,2022-05-09T12:39:20.614Z,,,,,,,,,,,,,,,,,53,,,,,,,,,,,,,,630.5199999999895,,response,,,,99,,,,,,,Space,keypress(Space),,,,,,,,---- -- ----- -- ------ - ------- --- ----------<br>------------- ------ ------ ---- ---- ------- ----- -- ----<br>romantic ------- -- ---------- --- - --- ----- ----- ----<br>---- --- --- ----- --- ---- ---- ------- ----- ---- -------<br>--- --- -- ----- -- --- ---- -- --- ---- -- ------ ------<br>--- ----- -- ----,182282,182266,181634.92,181635,181635.48,182283.38,,18,romantic
screen,html.Screen,2_1_0_1_19,2022-05-09T12:39:21.079Z,,,,,,,,,,,,,,,,,53,,,,,,,,,,,,,,451.61999999999534,,response,,,,99,,,,,,,Space,keypress(Space),,,,,,,,---- -- ----- -- ------ - ------- --- ----------<br>------------- ------ ------ ---- ---- ------- ----- -- ----<br>-------- partner -- ---------- --- - --- ----- ----- ----<br>---- --- --- ----- --- ---- ---- ------- ----- ---- -------<br>--- --- -- ----- -- --- ---- -- --- ---- -- ------ ------<br>--- ----- -- ----,182748,182735,182282.86,182283,182283.38,182748.84,,19,partner
screen,html.Screen,2_1_0_1_20,2022-05-09T12:39:21.632Z,,,,,,,,,,,,,,,,,53,,,,,,,,,,,,,,532.1600000000035,,response,,,,99,,,,,,,Space,keypress(Space),,,,,,,,---- -- ----- -- ------ - ------- --- ----------<br>------------- ------ ------ ---- ---- ------- ----- -- ----<br>-------- ------- is ---------- --- - --- ----- ----- ----<br>---- --- --- ----- --- ---- ---- ------- ----- ---- -------<br>--- --- -- ----- -- --- ---- -- --- ---- -- ------ ------<br>--- ----- -- ----,183301,183281,182748.24,182748,182748.84,183301.48,,20,is
screen,html.Screen,2_1_0_1_21,2022-05-09T12:39:22.328Z,,,,,,,,,,,,,,,,,53,,,,,,,,,,,,,,683.5199999999895,,response,,,,99,,,,,,,Space,keypress(Space),,,,,,,,---- -- ----- -- ------ - ------- --- ----------<br>------------- ------ ------ ---- ---- ------- ----- -- ----<br>-------- ------- -- paramount. --- - --- ----- ----- ----<br>---- --- --- ----- --- ---- ---- ------- ----- ---- -------<br>--- --- -- ----- -- --- ---- -- --- ---- -- ------ ------<br>--- ----- -- ----,183996,183985,183300.96,183301,183301.48,183997.64,,21,paramount.
screen,html.Screen,2_1_0_1_22,2022-05-09T12:39:22.933Z,,,,,,,,,,,,,,,,,53,,,,,,,,,,,,,,580.359999999986,,response,,,,99,,,,,,,Space,keypress(Space),,,,,,,,---- -- ----- -- ------ - ------- --- ----------<br>------------- ------ ------ ---- ---- ------- ----- -- ----<br>-------- ------- -- ---------- But - --- ----- ----- ----<br>---- --- --- ----- --- ---- ---- ------- ----- ---- -------<br>--- --- -- ----- -- --- ---- -- --- ---- -- ------ ------<br>--- ----- -- ----,184601,184578,183997.1,183997,183997.64,184601.92,,22,But
screen,html.Screen,2_1_0_1_23,2022-05-09T12:39:23.547Z,,,,,,,,,,,,,,,,,53,,,,,,,,,,,,,,601.0799999999872,,response,,,,99,,,,,,,Space,keypress(Space),,,,,,,,---- -- ----- -- ------ - ------- --- ----------<br>------------- ------ ------ ---- ---- ------- ----- -- ----<br>-------- ------- -- ---------- --- a --- ----- ----- ----<br>---- --- --- ----- --- ---- ---- ------- ----- ---- -------<br>--- --- -- ----- -- --- ---- -- --- ---- -- ------ ------<br>--- ----- -- ----,185216,185203,184601.36,184602,184601.92,185217.24,,23,a
screen,html.Screen,2_1_0_1_24,2022-05-09T12:39:24.224Z,,,,,,,,,,,,,,,,,53,,,,,,,,,,,,,,657.7600000000093,,response,,,,99,,,,,,,Space,keypress(Space),,,,,,,,---- -- ----- -- ------ - ------- --- ----------<br>------------- ------ ------ ---- ---- ------- ----- -- ----<br>-------- ------- -- ---------- --- - new ----- ----- ----<br>---- --- --- ----- --- ---- ---- ------- ----- ---- -------<br>--- --- -- ----- -- --- ---- -- --- ---- -- ------ ------<br>--- ----- -- ----,185893,185875,185216.72,185216,185217.24,185893.26,,24,new
screen,html.Screen,2_1_0_1_25,2022-05-09T12:39:24.795Z,,,,,,,,,,,,,,,,,53,,,,,,,,,,,,,,559.7399999999907,,response,,,,99,,,,,,,Space,keypress(Space),,,,,,,,---- -- ----- -- ------ - ------- --- ----------<br>------------- ------ ------ ---- ---- ------- ----- -- ----<br>-------- ------- -- ---------- --- - --- study ----- ----<br>---- --- --- ----- --- ---- ---- ------- ----- ---- -------<br>--- --- -- ----- -- --- ---- -- --- ---- -- ------ ------<br>--- ----- -- ----,186462,186453,185893,185893,185893.26,186463.66,,25,study
screen,html.Screen,2_1_0_1_26,2022-05-09T12:39:25.274Z,,,,,,,,,,,,,,,,,53,,,,,,,,,,,,,,474.3399999999965,,response,,,,99,,,,,,,Space,keypress(Space),,,,,,,,---- -- ----- -- ------ - ------- --- ----------<br>------------- ------ ------ ---- ---- ------- ----- -- ----<br>-------- ------- -- ---------- --- - --- ----- finds ----<br>---- --- --- ----- --- ---- ---- ------- ----- ---- -------<br>--- --- -- ----- -- --- ---- -- --- ---- -- ------ ------<br>--- ----- -- ----,186943,186938,186463.14,186463,186463.66,186943.5,,26,finds
screen,html.Screen,2_1_0_1_27,2022-05-09T12:39:25.775Z,,,,,,,,,,,,,,,,,53,,,,,,,,,,,,,,494.5,,response,,,,99,,,,,,,Space,keypress(Space),,,,,,,,---- -- ----- -- ------ - ------- --- ----------<br>------------- ------ ------ ---- ---- ------- ----- -- ----<br>-------- ------- -- ---------- --- - --- ----- ----- that<br>---- --- --- ----- --- ---- ---- ------- ----- ---- -------<br>--- --- -- ----- -- --- ---- -- --- ---- -- ------ ------<br>--- ----- -- ----,187444,187438,186943,186943,186943.5,187444.26,,27,that
screen,html.Screen,2_1_0_1_28,2022-05-09T12:39:26.318Z,,,,,,,,,,,,,,,,,53,,,,,,,,,,,,,,525.7399999999907,,response,,,,99,,,,,,,Space,keypress(Space),,,,,,,,---- -- ----- -- ------ - ------- --- ----------<br>------------- ------ ------ ---- ---- ------- ----- -- ----<br>-------- ------- -- ---------- --- - --- ----- ----- ----<br>it's --- --- ----- --- ---- ---- ------- ----- ---- -------<br>--- --- -- ----- -- --- ---- -- --- ---- -- ------ ------<br>--- ----- -- ----,187986,187970,187443.7,187444,187444.26,187987.48,,28,it's
screen,html.Screen,2_1_0_1_29,2022-05-09T12:39:26.748Z,,,,,,,,,,,,,,,,,53,,,,,,,,,,,,,,419.5199999999895,,response,,,,99,,,,,,,Space,keypress(Space),,,,,,,,---- -- ----- -- ------ - ------- --- ----------<br>------------- ------ ------ ---- ---- ------- ----- -- ----<br>-------- ------- -- ---------- --- - --- ----- ----- ----<br>---- not --- ----- --- ---- ---- ------- ----- ---- -------<br>--- --- -- ----- -- --- ---- -- --- ---- -- ------ ------<br>--- ----- -- ----,188416,188407,187986.96,187987,187987.48,188417.46,,29,not
screen,html.Screen,2_1_0_1_30,2022-05-09T12:39:27.305Z,,,,,,,,,,,,,,,,,53,,,,,,,,,,,,,,535.5400000000081,,response,,,,99,,,,,,,Space,keypress(Space),,,,,,,,---- -- ----- -- ------ - ------- --- ----------<br>------------- ------ ------ ---- ---- ------- ----- -- ----<br>-------- ------- -- ---------- --- - --- ----- ----- ----<br>---- --- how ----- --- ---- ---- ------- ----- ---- -------<br>--- --- -- ----- -- --- ---- -- --- ---- -- ------ ------<br>--- ----- -- ----,188973,188953,188417,188417,188417.46,188974.4,,30,how
screen,html.Screen,2_1_0_1_31,2022-05-09T12:39:27.802Z,,,,,,,,,,,,,,,,,53,,,,,,,,,,,,,,478.6000000000058,,response,,,,99,,,,,,,Space,keypress(Space),,,,,,,,---- -- ----- -- ------ - ------- --- ----------<br>------------- ------ ------ ---- ---- ------- ----- -- ----<br>-------- ------- -- ---------- --- - --- ----- ----- ----<br>---- --- --- close --- ---- ---- ------- ----- ---- -------<br>--- --- -- ----- -- --- ---- -- --- ---- -- ------ ------<br>--- ----- -- ----,189470,189453,188973.9,188974,188974.4,189470.86,,31,close
screen,html.Screen,2_1_0_1_32,2022-05-09T12:39:28.392Z,,,,,,,,,,,,,,,,,53,,,,,,,,,,,,,,576.140000000014,,response,,,,99,,,,,,,Space,keypress(Space),,,,,,,,---- -- ----- -- ------ - ------- --- ----------<br>------------- ------ ------ ---- ---- ------- ----- -- ----<br>-------- ------- -- ---------- --- - --- ----- ----- ----<br>---- --- --- ----- you ---- ---- ------- ----- ---- -------<br>--- --- -- ----- -- --- ---- -- --- ---- -- ------ ------<br>--- ----- -- ----,190060,190047,189470.62,189470,189470.86,190061.4,,32,you
screen,html.Screen,2_1_0_1_33,2022-05-09T12:39:28.881Z,,,,,,,,,,,,,,,,,53,,,,,,,,,,,,,,469.6000000000058,,response,,,,99,,,,,,,Space,keypress(Space),,,,,,,,---- -- ----- -- ------ - ------- --- ----------<br>------------- ------ ------ ---- ---- ------- ----- -- ----<br>-------- ------- -- ---------- --- - --- ----- ----- ----<br>---- --- --- ----- --- feel ---- ------- ----- ---- -------<br>--- --- -- ----- -- --- ---- -- --- ---- -- ------ ------<br>--- ----- -- ----,190550,190531,190060.88,190060,190061.4,190550.44,,33,feel
screen,html.Screen,2_1_0_1_34,2022-05-09T12:39:29.372Z,,,,,,,,,,,,,,,,,53,,,,,,,,,,,,,,465.5599999999977,,response,,,,99,,,,,,,Space,keypress(Space),,,,,,,,---- -- ----- -- ------ - ------- --- ----------<br>------------- ------ ------ ---- ---- ------- ----- -- ----<br>-------- ------- -- ---------- --- - --- ----- ----- ----<br>---- --- --- ----- --- ---- that ------- ----- ---- -------<br>--- --- -- ----- -- --- ---- -- --- ---- -- ------ ------<br>--- ----- -- ----,191040,191016,190549.96,190550,190550.44,191041.6,,34,that
screen,html.Screen,2_1_0_1_35,2022-05-09T12:39:29.943Z,,,,,,,,,,,,,,,,,53,,,,,,,,,,,,,,552.3999999999942,,response,,,,99,,,,,,,Space,keypress(Space),,,,,,,,---- -- ----- -- ------ - ------- --- ----------<br>------------- ------ ------ ---- ---- ------- ----- -- ----<br>-------- ------- -- ---------- --- - --- ----- ----- ----<br>---- --- --- ----- --- ---- ---- matters ----- ---- -------<br>--- --- -- ----- -- --- ---- -- --- ---- -- ------ ------<br>--- ----- -- ----,191612,191594,191041.08,191041,191041.6,191611.9,,35,matters
screen,html.Screen,2_1_0_1_36,2022-05-09T12:39:30.549Z,,,,,,,,,,,,,,,,,53,,,,,,,,,,,,,,591.1000000000058,,response,,,,99,,,,,,,Space,keypress(Space),,,,,,,,"---- -- ----- -- ------ - ------- --- ----------<br>------------- ------ ------ ---- ---- ------- ----- -- ----<br>-------- ------- -- ---------- --- - --- ----- ----- ----<br>---- --- --- ----- --- ---- ---- ------- most, ---- -------<br>--- --- -- ----- -- --- ---- -- --- ---- -- ------ ------<br>--- ----- -- ----",192217,192203,191611.68,191612,191611.9,192217.84,,36,"most,"
screen,html.Screen,2_1_0_1_37,2022-05-09T12:39:31.123Z,,,,,,,,,,,,,,,,,53,,,,,,,,,,,,,,563.1600000000035,,response,,,,99,,,,,,,Space,keypress(Space),,,,,,,,---- -- ----- -- ------ - ------- --- ----------<br>------------- ------ ------ ---- ---- ------- ----- -- ----<br>-------- ------- -- ---------- --- - --- ----- ----- ----<br>---- --- --- ----- --- ---- ---- ------- ----- it's -------<br>--- --- -- ----- -- --- ---- -- --- ---- -- ------ ------<br>--- ----- -- ----,192792,192781,192217.62,192217,192217.84,192792.76,,37,it's
screen,html.Screen,2_1_0_1_38,2022-05-09T12:39:31.629Z,,,,,,,,,,,,,,,,,53,,,,,,,,,,,,,,488.2399999999907,,response,,,,99,,,,,,,Space,keypress(Space),,,,,,,,---- -- ----- -- ------ - ------- --- ----------<br>------------- ------ ------ ---- ---- ------- ----- -- ----<br>-------- ------- -- ---------- --- - --- ----- ----- ----<br>---- --- --- ----- --- ---- ---- ------- ----- ---- whether<br>--- --- -- ----- -- --- ---- -- --- ---- -- ------ ------<br>--- ----- -- ----,193298,193281,192792.24,192792,192792.76,193298.8,,38,whether
screen,html.Screen,2_1_0_1_39,2022-05-09T12:39:32.115Z,,,,,,,,,,,,,,,,,53,,,,,,,,,,,,,,468.20000000001164,,response,,,,99,,,,,,,Space,keypress(Space),,,,,,,,---- -- ----- -- ------ - ------- --- ----------<br>------------- ------ ------ ---- ---- ------- ----- -- ----<br>-------- ------- -- ---------- --- - --- ----- ----- ----<br>---- --- --- ----- --- ---- ---- ------- ----- ---- -------<br>you --- -- ----- -- --- ---- -- --- ---- -- ------ ------<br>--- ----- -- ----,193784,193767,193298.26,193298,193298.8,193786.52,,39,you
screen,html.Screen,2_1_0_1_40,2022-05-09T12:39:32.562Z,,,,,,,,,,,,,,,,,53,,,,,,,,,,,,,,416.4800000000105,,response,,,,99,,,,,,,Space,keypress(Space),,,,,,,,---- -- ----- -- ------ - ------- --- ----------<br>------------- ------ ------ ---- ---- ------- ----- -- ----<br>-------- ------- -- ---------- --- - --- ----- ----- ----<br>---- --- --- ----- --- ---- ---- ------- ----- ---- -------<br>--- are -- ----- -- --- ---- -- --- ---- -- ------ ------<br>--- ----- -- ----,194230,194203,193784.3,193784,193786.52,194231.4,,40,are
screen,html.Screen,2_1_0_1_41,2022-05-09T12:39:33.349Z,,,,,,,,,,,,,,,,,53,,,,,,,,,,,,,,768.6000000000058,,response,,,,99,,,,,,,Space,keypress(Space),,,,,,,,---- -- ----- -- ------ - ------- --- ----------<br>------------- ------ ------ ---- ---- ------- ----- -- ----<br>-------- ------- -- ---------- --- - --- ----- ----- ----<br>---- --- --- ----- --- ---- ---- ------- ----- ---- -------<br>--- --- as ----- -- --- ---- -- --- ---- -- ------ ------<br>--- ----- -- ----,195017,195000,194230.84,194231,194231.4,195019.54,,41,as
screen,html.Screen,2_1_0_1_42,2022-05-09T12:39:33.848Z,,,,,,,,,,,,,,,,,53,,,,,,,,,,,,,,480.45999999999185,,response,,,,99,,,,,,,Space,keypress(Space),,,,,,,,---- -- ----- -- ------ - ------- --- ----------<br>------------- ------ ------ ---- ---- ------- ----- -- ----<br>-------- ------- -- ---------- --- - --- ----- ----- ----<br>---- --- --- ----- --- ---- ---- ------- ----- ---- -------<br>--- --- -- close -- --- ---- -- --- ---- -- ------ ------<br>--- ----- -- ----,195517,195500,195017.86,195018,195019.54,195517.42,,42,close
screen,html.Screen,2_1_0_1_43,2022-05-09T12:39:34.342Z,,,,,,,,,,,,,,,,,53,,,,,,,,,,,,,,482.5799999999872,,response,,,,99,,,,,,,Space,keypress(Space),,,,,,,,---- -- ----- -- ------ - ------- --- ----------<br>------------- ------ ------ ---- ---- ------- ----- -- ----<br>-------- ------- -- ---------- --- - --- ----- ----- ----<br>---- --- --- ----- --- ---- ---- ------- ----- ---- -------<br>--- --- -- ----- as --- ---- -- --- ---- -- ------ ------<br>--- ----- -- ----,196010,196000,195517.24,195517,195517.42,196011.06,,43,as
screen,html.Screen,2_1_0_1_44,2022-05-09T12:39:34.852Z,,,,,,,,,,,,,,,,,53,,,,,,,,,,,,,,504.9400000000023,,response,,,,99,,,,,,,Space,keypress(Space),,,,,,,,---- -- ----- -- ------ - ------- --- ----------<br>------------- ------ ------ ---- ---- ------- ----- -- ----<br>-------- ------- -- ---------- --- - --- ----- ----- ----<br>---- --- --- ----- --- ---- ---- ------- ----- ---- -------<br>--- --- -- ----- -- you ---- -- --- ---- -- ------ ------<br>--- ----- -- ----,196521,196516,196010.82,196010,196011.06,196520.76,,44,you
screen,html.Screen,2_1_0_1_45,2022-05-09T12:39:35.368Z,,,,,,,,,,,,,,,,,53,,,,,,,,,,,,,,495.2399999999907,,response,,,,99,,,,,,,Space,keypress(Space),,,,,,,,---- -- ----- -- ------ - ------- --- ----------<br>------------- ------ ------ ---- ---- ------- ----- -- ----<br>-------- ------- -- ---------- --- - --- ----- ----- ----<br>---- --- --- ----- --- ---- ---- ------- ----- ---- -------<br>--- --- -- ----- -- --- want -- --- ---- -- ------ ------<br>--- ----- -- ----,197036,197016,196520.58,196521,196520.76,197037.36,,45,want
screen,html.Screen,2_1_0_1_46,2022-05-09T12:39:35.804Z,,,,,,,,,,,,,,,,,53,,,,,,,,,,,,,,415.64000000001397,,response,,,,99,,,,,,,Space,keypress(Space),,,,,,,,---- -- ----- -- ------ - ------- --- ----------<br>------------- ------ ------ ---- ---- ------- ----- -- ----<br>-------- ------- -- ---------- --- - --- ----- ----- ----<br>---- --- --- ----- --- ---- ---- ------- ----- ---- -------<br>--- --- -- ----- -- --- ---- to --- ---- -- ------ ------<br>--- ----- -- ----,197472,197453,197036.82,197037,197037.36,197473.26,,46,to
screen,html.Screen,2_1_0_1_47,2022-05-09T12:39:36.322Z,,,,,,,,,,,,,,,,,53,,,,,,,,,,,,,,495.7399999999907,,response,,,,99,,,,,,,Space,keypress(Space),,,,,,,,"---- -- ----- -- ------ - ------- --- ----------<br>------------- ------ ------ ---- ---- ------- ----- -- ----<br>-------- ------- -- ---------- --- - --- ----- ----- ----<br>---- --- --- ----- --- ---- ---- ------- ----- ---- -------<br>--- --- -- ----- -- --- ---- -- be, ---- -- ------ ------<br>--- ----- -- ----",197990,197969,197472.74,197473,197473.26,197991.52,,47,"be,"
screen,html.Screen,2_1_0_1_48,2022-05-09T12:39:36.964Z,,,,,,,,,,,,,,,,,53,,,,,,,,,,,,,,633.4800000000105,,response,,,,99,,,,,,,Space,keypress(Space),,,,,,,,---- -- ----- -- ------ - ------- --- ----------<br>------------- ------ ------ ---- ---- ------- ----- -- ----<br>-------- ------- -- ---------- --- - --- ----- ----- ----<br>---- --- --- ----- --- ---- ---- ------- ----- ---- -------<br>--- --- -- ----- -- --- ---- -- --- even -- ------ ------<br>--- ----- -- ----,198633,198625,197990.9,197991,197991.52,198633.64,,48,even
screen,html.Screen,2_1_0_1_49,2022-05-09T12:39:37.471Z,,,,,,,,,,,,,,,,,53,,,,,,,,,,,,,,491.35999999998603,,response,,,,99,,,,,,,Space,keypress(Space),,,,,,,,---- -- ----- -- ------ - ------- --- ----------<br>------------- ------ ------ ---- ---- ------- ----- -- ----<br>-------- ------- -- ---------- --- - --- ----- ----- ----<br>---- --- --- ----- --- ---- ---- ------- ----- ---- -------<br>--- --- -- ----- -- --- ---- -- --- ---- if ------ ------<br>--- ----- -- ----,199139,199125,198633.12,198633,198633.64,199140.26,,49,if
screen,html.Screen,2_1_0_1_50,2022-05-09T12:39:37.912Z,,,,,,,,,,,,,,,,,53,,,,,,,,,,,,,,423.7399999999907,,response,,,,99,,,,,,,Space,keypress(Space),,,,,,,,---- -- ----- -- ------ - ------- --- ----------<br>------------- ------ ------ ---- ---- ------- ----- -- ----<br>-------- ------- -- ---------- --- - --- ----- ----- ----<br>---- --- --- ----- --- ---- ---- ------- ----- ---- -------<br>--- --- -- ----- -- --- ---- -- --- ---- -- that's ------<br>--- ----- -- ----,199581,199564,199139.68,199139,199140.26,199582.16,,50,that's
screen,html.Screen,2_1_0_1_51,2022-05-09T12:39:38.415Z,,,,,,,,,,,,,,,,,53,,,,,,,,,,,,,,495.8399999999965,,response,,,,99,,,,,,,Space,keypress(Space),,,,,,,,---- -- ----- -- ------ - ------- --- ----------<br>------------- ------ ------ ---- ---- ------- ----- -- ----<br>-------- ------- -- ---------- --- - --- ----- ----- ----<br>---- --- --- ----- --- ---- ---- ------- ----- ---- -------<br>--- --- -- ----- -- --- ---- -- --- ---- -- ------ really<br>--- ----- -- ----,200083,200078,199581.6,199581,199582.16,200083.9,,51,really
screen,html.Screen,2_1_0_1_52,2022-05-09T12:39:38.885Z,,,,,,,,,,,,,,,,,53,,,,,,,,,,,,,,463.1000000000058,,response,,,,99,,,,,,,Space,keypress(Space),,,,,,,,---- -- ----- -- ------ - ------- --- ----------<br>------------- ------ ------ ---- ---- ------- ----- -- ----<br>-------- ------- -- ---------- --- - --- ----- ----- ----<br>---- --- --- ----- --- ---- ---- ------- ----- ---- -------<br>--- --- -- ----- -- --- ---- -- --- ---- -- ------ ------<br>not ----- -- ----,200553,200547,200083.42,200084,200083.9,200555,,52,not
screen,html.Screen,2_1_0_1_53,2022-05-09T12:39:39.347Z,,,,,,,,,,,,,,,,,53,,,,,,,,,,,,,,446,,response,,,,99,,,,,,,Space,keypress(Space),,,,,,,,---- -- ----- -- ------ - ------- --- ----------<br>------------- ------ ------ ---- ---- ------- ----- -- ----<br>-------- ------- -- ---------- --- - --- ----- ----- ----<br>---- --- --- ----- --- ---- ---- ------- ----- ---- -------<br>--- --- -- ----- -- --- ---- -- --- ---- -- ------ ------<br>--- close -- ----,201015,201001,200554.5,200554,200555,201017.94,,53,close
screen,html.Screen,2_1_0_1_54,2022-05-09T12:39:39.749Z,,,,,,,,,,,,,,,,,53,,,,,,,,,,,,,,388.0599999999977,,response,,,,99,,,,,,,Space,keypress(Space),,,,,,,,---- -- ----- -- ------ - ------- --- ----------<br>------------- ------ ------ ---- ---- ------- ----- -- ----<br>-------- ------- -- ---------- --- - --- ----- ----- ----<br>---- --- --- ----- --- ---- ---- ------- ----- ---- -------<br>--- --- -- ----- -- --- ---- -- --- ---- -- ------ ------<br>--- ----- at ----,201417,201406,201015.98,201016,201017.94,201418.04,,54,at
screen,html.Screen,2_1_0_1_55,2022-05-09T12:39:40.802Z,,,,,,,,,,,,,,,,,53,,,,,,,,,,,,,,1034.9599999999919,,response,,,,99,,,,,,,Space,keypress(Space),,,,,,,,---- -- ----- -- ------ - ------- --- ----------<br>------------- ------ ------ ---- ---- ------- ----- -- ----<br>-------- ------- -- ---------- --- - --- ----- ----- ----<br>---- --- --- ----- --- ---- ---- ------- ----- ---- -------<br>--- --- -- ----- -- --- ---- -- --- ---- -- ------ ------<br>--- ----- -- all.,202470,202453,201417.5,201418,201418.04,202471.98,,55,all.
Item 99,flow.Loop,2_1_0_1,2022-05-09T12:39:40.803Z,,,,,,,,,,,,,,,,,,,,,,,,,,,,,,,35992.67999999999,,completion,,,,,F,,,,,,,,,,,silence,,,,,202471,202453,166443.66,166446,166460.32,202471.98,,,
Question 1,html.Screen,2_1_0_2,2022-05-09T12:39:52.614Z,,,,,,,,,,,,,,,,,,,,,,,,,,,,true,FALSE,,11794.01999999999,,response,,,,99,F,,,,,,FALSE,click #choice-2,,,,silence,,,,,214282,214266,202471.52,202471,202471.98,214298.28,,,
Question 2,html.Screen,2_1_0_3,2022-05-09T12:40:03.971Z,,,,,,,,,,,,,,,,,,,,,,,,,,,,true,TRUE,,11326.720000000001,,response,,,,99,F,,,,,,TRUE,click #choice-1,,,,silence,,,,,225640,225625,214281.62,214282,214298.28,225644.84,,,
Item 99,flow.Sequence,2_1_0,2022-05-09T12:40:03.972Z,,,,,,,,,,,,,,,,,,,,,,,,,,,,,,,69162.1,,completion,,,,,,,,,,,,,,,,,,,,,225641,225625,156451.26,156456,156462.9,225644.84,,,
Holding screen,html.Screen,2_1_1_0,2022-05-09T12:40:13.958Z,,,,,,,,,,,,,,,,,,,,,,,,,,,,,,,9997.399999999994,,timeout,,,,,,,,,,,,,,,,,,,,,235627,235625.58,225638.82,225641,225644.84,235642.24,,,
screen,html.Screen,2_1_1_1_0,2022-05-09T12:40:14.941Z,,,,,,,,,,,,,,,,,54,,,,,,,,,,,,,,951.7600000000093,,response,,,,100,,,,,,,Space,keypress(Space),,,,,,,,At --- ---- --- ------ ----- ------- ---- -- --- ------- --<br>------- ---------- ------ -- ----- -- ----- -- ---- ------<br>--- ----- --- --- ------ -------- ----- --- ------ ----- --<br>----- ----- ---------- --- --- ------ ------ ---- -- ------<br>------- --- ------ ----- --- ---- ------- -- ---- --- --<br>------- ------,236610,236594,235625.58,235627,235642.24,236610.48,,0,At
screen,html.Screen,2_1_1_1_1,2022-05-09T12:40:15.418Z,,,,,,,,,,,,,,,,,54,,,,,,,,,,,,,,467.5199999999895,,response,,,,100,,,,,,,Space,keypress(Space),,,,,,,,-- the ---- --- ------ ----- ------- ---- -- --- ------- --<br>------- ---------- ------ -- ----- -- ----- -- ---- ------<br>--- ----- --- --- ------ -------- ----- --- ------ ----- --<br>----- ----- ---------- --- --- ------ ------ ---- -- ------<br>------- --- ------ ----- --- ---- ------- -- ---- --- --<br>------- ------,237086,237078,236610.06,236610,236610.48,237087.26,,1,the
screen,html.Screen,2_1_1_1_2,2022-05-09T12:40:15.922Z,,,,,,,,,,,,,,,,,54,,,,,,,,,,,,,,490.7399999999907,,response,,,,100,,,,,,,Space,keypress(Space),,,,,,,,-- --- time --- ------ ----- ------- ---- -- --- ------- --<br>------- ---------- ------ -- ----- -- ----- -- ---- ------<br>--- ----- --- --- ------ -------- ----- --- ------ ----- --<br>----- ----- ---------- --- --- ------ ------ ---- -- ------<br>------- --- ------ ----- --- ---- ------- -- ---- --- --<br>------- ------,237590,237578,237086.8,237087,237087.26,237590.9,,2,time
screen,html.Screen,2_1_1_1_3,2022-05-09T12:40:16.472Z,,,,,,,,,,,,,,,,,54,,,,,,,,,,,,,,534.1000000000058,,response,,,,100,,,,,,,Space,keypress(Space),,,,,,,,-- --- ---- the ------ ----- ------- ---- -- --- ------- --<br>------- ---------- ------ -- ----- -- ----- -- ---- ------<br>--- ----- --- --- ------ -------- ----- --- ------ ----- --<br>----- ----- ---------- --- --- ------ ------ ---- -- ------<br>------- --- ------ ----- --- ---- ------- -- ---- --- --<br>------- ------,238141,238125,237590.4,237590,237590.9,238141.68,,3,the
screen,html.Screen,2_1_1_1_4,2022-05-09T12:40:17.246Z,,,,,,,,,,,,,,,,,54,,,,,,,,,,,,,,764.320000000007,,response,,,,100,,,,,,,Space,keypress(Space),,,,,,,,-- --- ---- --- French ----- ------- ---- -- --- ------- --<br>------- ---------- ------ -- ----- -- ----- -- ---- ------<br>--- ----- --- --- ------ -------- ----- --- ------ ----- --<br>----- ----- ---------- --- --- ------ ------ ---- -- ------<br>------- --- ------ ----- --- ---- ------- -- ---- --- --<br>------- ------,238915,238906,238141.22,238141,238141.68,238915,,4,French
screen,html.Screen,2_1_1_1_5,2022-05-09T12:40:17.813Z,,,,,,,,,,,,,,,,,54,,,,,,,,,,,,,,555,,response,,,,100,,,,,,,Space,keypress(Space),,,,,,,,-- --- ---- --- ------ crown ------- ---- -- --- ------- --<br>------- ---------- ------ -- ----- -- ----- -- ---- ------<br>--- ----- --- --- ------ -------- ----- --- ------ ----- --<br>----- ----- ---------- --- --- ------ ------ ---- -- ------<br>------- --- ------ ----- --- ---- ------- -- ---- --- --<br>------- ------,239482,239470,238914.68,238915,238915,239482.7,,5,crown
screen,html.Screen,2_1_1_1_6,2022-05-09T12:40:18.523Z,,,,,,,,,,,,,,,,,54,,,,,,,,,,,,,,689.2999999999884,,response,,,,100,,,,,,,Space,keypress(Space),,,,,,,,-- --- ---- --- ------ ----- secured ---- -- --- ------- --<br>------- ---------- ------ -- ----- -- ----- -- ---- ------<br>--- ----- --- --- ------ -------- ----- --- ------ ----- --<br>----- ----- ---------- --- --- ------ ------ ---- -- ------<br>------- --- ------ ----- --- ---- ------- -- ---- --- --<br>------- ------,240191,240172,239482.24,239482,239482.7,240191.84,,6,secured
screen,html.Screen,2_1_1_1_7,2022-05-09T12:40:19.104Z,,,,,,,,,,,,,,,,,54,,,,,,,,,,,,,,575.1600000000035,,response,,,,100,,,,,,,Space,keypress(Space),,,,,,,,-- --- ---- --- ------ ----- ------- much -- --- ------- --<br>------- ---------- ------ -- ----- -- ----- -- ---- ------<br>--- ----- --- --- ------ -------- ----- --- ------ ----- --<br>----- ----- ---------- --- --- ------ ------ ---- -- ------<br>------- --- ------ ----- --- ---- ------- -- ---- --- --<br>------- ------,240772,240767,240191.34,240192,240191.84,240772.4,,7,much
screen,html.Screen,2_1_1_1_8,2022-05-09T12:40:19.550Z,,,,,,,,,,,,,,,,,54,,,,,,,,,,,,,,430.6000000000058,,response,,,,100,,,,,,,Space,keypress(Space),,,,,,,,-- --- ---- --- ------ ----- ------- ---- of --- ------- --<br>------- ---------- ------ -- ----- -- ----- -- ---- ------<br>--- ----- --- --- ------ -------- ----- --- ------ ----- --<br>----- ----- ---------- --- --- ------ ------ ---- -- ------<br>------- --- ------ ----- --- ---- ------- -- ---- --- --<br>------- ------,241219,241203,240772.2,240772,240772.4,241219.82,,8,of
screen,html.Screen,2_1_1_1_9,2022-05-09T12:40:20.012Z,,,,,,,,,,,,,,,,,54,,,,,,,,,,,,,,436.179999999993,,response,,,,100,,,,,,,Space,keypress(Space),,,,,,,,-- --- ---- --- ------ ----- ------- ---- -- its ------- --<br>------- ---------- ------ -- ----- -- ----- -- ---- ------<br>--- ----- --- --- ------ -------- ----- --- ------ ----- --<br>----- ----- ---------- --- --- ------ ------ ---- -- ------<br>------- --- ------ ----- --- ---- ------- -- ---- --- --<br>------- ------,241681,241656,241219.28,241219,241219.82,241681.42,,9,its
screen,html.Screen,2_1_1_1_10,2022-05-09T12:40:20.668Z,,,,,,,,,,,,,,,,,54,,,,,,,,,,,,,,646.5799999999872,,response,,,,100,,,,,,,Space,keypress(Space),,,,,,,,-- --- ---- --- ------ ----- ------- ---- -- --- revenue --<br>------- ---------- ------ -- ----- -- ----- -- ---- ------<br>--- ----- --- --- ------ -------- ----- --- ------ ----- --<br>----- ----- ---------- --- --- ------ ------ ---- -- ------<br>------- --- ------ ----- --- ---- ------- -- ---- --- --<br>------- ------,242337,242328,241680.88,241681,241681.42,242340.52,,10,revenue
screen,html.Screen,2_1_1_1_11,2022-05-09T12:40:21.436Z,,,,,,,,,,,,,,,,,54,,,,,,,,,,,,,,753.4800000000105,,response,,,,100,,,,,,,Space,keypress(Space),,,,,,,,-- --- ---- --- ------ ----- ------- ---- -- --- ------- by<br>------- ---------- ------ -- ----- -- ----- -- ---- ------<br>--- ----- --- --- ------ -------- ----- --- ------ ----- --<br>----- ----- ---------- --- --- ------ ------ ---- -- ------<br>------- --- ------ ----- --- ---- ------- -- ---- --- --<br>------- ------,243104,243094,242337.4,242337,242340.52,243106.92,,11,by
screen,html.Screen,2_1_1_1_12,2022-05-09T12:40:22.211Z,,,,,,,,,,,,,,,,,54,,,,,,,,,,,,,,768.0799999999872,,response,,,,100,,,,,,,Space,keypress(Space),,,,,,,,-- --- ---- --- ------ ----- ------- ---- -- --- ------- --<br>issuing ---------- ------ -- ----- -- ----- -- ---- ------<br>--- ----- --- --- ------ -------- ----- --- ------ ----- --<br>----- ----- ---------- --- --- ------ ------ ---- -- ------<br>------- --- ------ ----- --- ---- ------- -- ---- --- --<br>------- ------,243880,243875,243104.76,243105,243106.92,243880.28,,12,issuing
screen,html.Screen,2_1_1_1_13,2022-05-09T12:40:22.852Z,,,,,,,,,,,,,,,,,54,,,,,,,,,,,,,,635.7200000000012,,response,,,,100,,,,,,,Space,keypress(Space),,,,,,,,-- --- ---- --- ------ ----- ------- ---- -- --- ------- --<br>------- government ------ -- ----- -- ----- -- ---- ------<br>--- ----- --- --- ------ -------- ----- --- ------ ----- --<br>----- ----- ---------- --- --- ------ ------ ---- -- ------<br>------- --- ------ ----- --- ---- ------- -- ---- --- --<br>------- ------,244520,244516,243880.04,243880,243880.28,244520.18,,13,government
screen,html.Screen,2_1_1_1_14,2022-05-09T12:40:23.697Z,,,,,,,,,,,,,,,,,54,,,,,,,,,,,,,,823.820000000007,,response,,,,100,,,,,,,Space,keypress(Space),,,,,,,,-- --- ---- --- ------ ----- ------- ---- -- --- ------- --<br>------- ---------- bonds. -- ----- -- ----- -- ---- ------<br>--- ----- --- --- ------ -------- ----- --- ------ ----- --<br>----- ----- ---------- --- --- ------ ------ ---- -- ------<br>------- --- ------ ----- --- ---- ------- -- ---- --- --<br>------- ------,245366,245344,244520,244520,244520.18,245366.28,,14,bonds.
screen,html.Screen,2_1_1_1_15,2022-05-09T12:40:24.225Z,,,,,,,,,,,,,,,,,54,,,,,,,,,,,,,,509.72000000000116,,response,,,,100,,,,,,,Space,keypress(Space),,,,,,,,-- --- ---- --- ------ ----- ------- ---- -- --- ------- --<br>------- ---------- ------ In ----- -- ----- -- ---- ------<br>--- ----- --- --- ------ -------- ----- --- ------ ----- --<br>----- ----- ---------- --- --- ------ ------ ---- -- ------<br>------- --- ------ ----- --- ---- ------- -- ---- --- --<br>------- ------,245894,245876,245365.78,245366,245366.28,245894.36,,15,In
screen,html.Screen,2_1_1_1_16,2022-05-09T12:40:27.004Z,,,,,,,,,,,,,,,,,54,,,,,,,,,,,,,,2761.640000000014,,response,,,,100,,,,,,,Space,keypress(Space),,,,,,,,"-- --- ---- --- ------ ----- ------- ---- -- --- ------- --<br>------- ---------- ------ -- 1727, -- ----- -- ---- ------<br>--- ----- --- --- ------ -------- ----- --- ------ ----- --<br>----- ----- ---------- --- --- ------ ------ ---- -- ------<br>------- --- ------ ----- --- ---- ------- -- ---- --- --<br>------- ------",248671,248656,245894.08,245894,245894.36,248672.84,,16,"1727,"
screen,html.Screen,2_1_1_1_17,2022-05-09T12:40:27.767Z,,,,,,,,,,,,,,,,,54,,,,,,,,,,,,,,749.1600000000035,,response,,,,100,,,,,,,Space,keypress(Space),,,,,,,,-- --- ---- --- ------ ----- ------- ---- -- --- ------- --<br>------- ---------- ------ -- ----- in ----- -- ---- ------<br>--- ----- --- --- ------ -------- ----- --- ------ ----- --<br>----- ----- ---------- --- --- ------ ------ ---- -- ------<br>------- --- ------ ----- --- ---- ------- -- ---- --- --<br>------- ------,249436,249422,248672.32,248672,248672.84,249438.64,,17,in
screen,html.Screen,2_1_1_1_18,2022-05-09T12:40:28.414Z,,,,,,,,,,,,,,,,,54,,,,,,,,,,,,,,639.359999999986,,response,,,,100,,,,,,,Space,keypress(Space),,,,,,,,-- --- ---- --- ------ ----- ------- ---- -- --- ------- --<br>------- ---------- ------ -- ----- -- order -- ---- ------<br>--- ----- --- --- ------ -------- ----- --- ------ ----- --<br>----- ----- ---------- --- --- ------ ------ ---- -- ------<br>------- --- ------ ----- --- ---- ------- -- ---- --- --<br>------- ------,250082,250078,249436.08,249436,249438.64,250083.26,,18,order
screen,html.Screen,2_1_1_1_19,2022-05-09T12:40:29.006Z,,,,,,,,,,,,,,,,,54,,,,,,,,,,,,,,572.7399999999907,,response,,,,100,,,,,,,Space,keypress(Space),,,,,,,,-- --- ---- --- ------ ----- ------- ---- -- --- ------- --<br>------- ---------- ------ -- ----- -- ----- to ---- ------<br>--- ----- --- --- ------ -------- ----- --- ------ ----- --<br>----- ----- ---------- --- --- ------ ------ ---- -- ------<br>------- --- ------ ----- --- ---- ------- -- ---- --- --<br>------- ------,250674,250656,250082.78,250083,250083.26,250675.1,,19,to
screen,html.Screen,2_1_1_1_20,2022-05-09T12:40:29.619Z,,,,,,,,,,,,,,,,,54,,,,,,,,,,,,,,590.8999999999942,,response,,,,100,,,,,,,Space,keypress(Space),,,,,,,,-- --- ---- --- ------ ----- ------- ---- -- --- ------- --<br>------- ---------- ------ -- ----- -- ----- -- save ------<br>--- ----- --- --- ------ -------- ----- --- ------ ----- --<br>----- ----- ---------- --- --- ------ ------ ---- -- ------<br>------- --- ------ ----- --- ---- ------- -- ---- --- --<br>------- ------,251288,251266,250674.62,250674,250675.1,251288.08,,20,save
screen,html.Screen,2_1_1_1_21,2022-05-09T12:40:30.187Z,,,,,,,,,,,,,,,,,54,,,,,,,,,,,,,,555.9200000000128,,response,,,,100,,,,,,,Space,keypress(Space),,,,,,,,"-- --- ---- --- ------ ----- ------- ---- -- --- ------- --<br>------- ---------- ------ -- ----- -- ----- -- ---- money,<br>--- ----- --- --- ------ -------- ----- --- ------ ----- --<br>----- ----- ---------- --- --- ------ ------ ---- -- ------<br>------- --- ------ ----- --- ---- ------- -- ---- --- --<br>------- ------",251855,251844,251287.84,251288,251288.08,251855.94,,21,"money,"
screen,html.Screen,2_1_1_1_22,2022-05-09T12:40:30.703Z,,,,,,,,,,,,,,,,,54,,,,,,,,,,,,,,504.0599999999977,,response,,,,100,,,,,,,Space,keypress(Space),,,,,,,,-- --- ---- --- ------ ----- ------- ---- -- --- ------- --<br>------- ---------- ------ -- ----- -- ----- -- ---- ------<br>the ----- --- --- ------ -------- ----- --- ------ ----- --<br>----- ----- ---------- --- --- ------ ------ ---- -- ------<br>------- --- ------ ----- --- ---- ------- -- ---- --- --<br>------- ------,252372,252360,251855.74,251856,251855.94,252372.82,,22,the
screen,html.Screen,2_1_1_1_23,2022-05-09T12:40:31.152Z,,,,,,,,,,,,,,,,,54,,,,,,,,,,,,,,424.179999999993,,response,,,,100,,,,,,,Space,keypress(Space),,,,,,,,-- --- ---- --- ------ ----- ------- ---- -- --- ------- --<br>------- ---------- ------ -- ----- -- ----- -- ---- ------<br>--- state --- --- ------ -------- ----- --- ------ ----- --<br>----- ----- ---------- --- --- ------ ------ ---- -- ------<br>------- --- ------ ----- --- ---- ------- -- ---- --- --<br>------- ------,252820,252797,252371.68,252372,252372.82,252820.88,,23,state
screen,html.Screen,2_1_1_1_24,2022-05-09T12:40:31.617Z,,,,,,,,,,,,,,,,,54,,,,,,,,,,,,,,445.11999999999534,,response,,,,100,,,,,,,Space,keypress(Space),,,,,,,,-- --- ---- --- ------ ----- ------- ---- -- --- ------- --<br>------- ---------- ------ -- ----- -- ----- -- ---- ------<br>--- ----- cut --- ------ -------- ----- --- ------ ----- --<br>----- ----- ---------- --- --- ------ ------ ---- -- ------<br>------- --- ------ ----- --- ---- ------- -- ---- --- --<br>------- ------,253285,253266,252820.46,252820,252820.88,253287.58,,24,cut
screen,html.Screen,2_1_1_1_25,2022-05-09T12:40:32.044Z,,,,,,,,,,,,,,,,,54,,,,,,,,,,,,,,415.4200000000128,,response,,,,100,,,,,,,Space,keypress(Space),,,,,,,,-- --- ---- --- ------ ----- ------- ---- -- --- ------- --<br>------- ---------- ------ -- ----- -- ----- -- ---- ------<br>--- ----- --- the ------ -------- ----- --- ------ ----- --<br>----- ----- ---------- --- --- ------ ------ ---- -- ------<br>------- --- ------ ----- --- ---- ------- -- ---- --- --<br>------- ------,253711,253703,253285.54,253285,253287.58,253712.66,,25,the
screen,html.Screen,2_1_1_1_26,2022-05-09T12:40:32.690Z,,,,,,,,,,,,,,,,,54,,,,,,,,,,,,,,631.3399999999965,,response,,,,100,,,,,,,Space,keypress(Space),,,,,,,,-- --- ---- --- ------ ----- ------- ---- -- --- ------- --<br>------- ---------- ------ -- ----- -- ----- -- ---- ------<br>--- ----- --- --- bonds' -------- ----- --- ------ ----- --<br>----- ----- ---------- --- --- ------ ------ ---- -- ------<br>------- --- ------ ----- --- ---- ------- -- ---- --- --<br>------- ------,254357,254344,253712.2,253712,253712.66,254358.48,,26,bonds'
screen,html.Screen,2_1_1_1_27,2022-05-09T12:40:33.488Z,,,,,,,,,,,,,,,,,54,,,,,,,,,,,,,,782.5199999999895,,response,,,,100,,,,,,,Space,keypress(Space),,,,,,,,-- --- ---- --- ------ ----- ------- ---- -- --- ------- --<br>------- ---------- ------ -- ----- -- ----- -- ---- ------<br>--- ----- --- --- ------ interest ----- --- ------ ----- --<br>----- ----- ---------- --- --- ------ ------ ---- -- ------<br>------- --- ------ ----- --- ---- ------- -- ---- --- --<br>------- ------,255157,255141,254357.98,254358,254358.48,255157.36,,27,interest
screen,html.Screen,2_1_1_1_28,2022-05-09T12:40:34.121Z,,,,,,,,,,,,,,,,,54,,,,,,,,,,,,,,608.640000000014,,response,,,,100,,,,,,,Space,keypress(Space),,,,,,,,-- --- ---- --- ------ ----- ------- ---- -- --- ------- --<br>------- ---------- ------ -- ----- -- ----- -- ---- ------<br>--- ----- --- --- ------ -------- rate. --- ------ ----- --<br>----- ----- ---------- --- --- ------ ------ ---- -- ------<br>------- --- ------ ----- --- ---- ------- -- ---- --- --<br>------- ------,255789,255766,255156.94,255157,255157.36,255789.74,,28,rate.
screen,html.Screen,2_1_1_1_29,2022-05-09T12:40:35.651Z,,,,,,,,,,,,,,,,,54,,,,,,,,,,,,,,1507.2600000000093,,response,,,,100,,,,,,,Space,keypress(Space),,,,,,,,-- --- ---- --- ------ ----- ------- ---- -- --- ------- --<br>------- ---------- ------ -- ----- -- ----- -- ---- ------<br>--- ----- --- --- ------ -------- ----- The ------ ----- --<br>----- ----- ---------- --- --- ------ ------ ---- -- ------<br>------- --- ------ ----- --- ---- ------- -- ---- --- --<br>------- ------,257319,257297,255789.26,255789,255789.74,257320.3,,29,The
screen,html.Screen,2_1_1_1_30,2022-05-09T12:40:36.448Z,,,,,,,,,,,,,,,,,54,,,,,,,,,,,,,,773.7000000000116,,response,,,,100,,,,,,,Space,keypress(Space),,,,,,,,-- --- ---- --- ------ ----- ------- ---- -- --- ------- --<br>------- ---------- ------ -- ----- -- ----- -- ---- ------<br>--- ----- --- --- ------ -------- ----- --- market ----- --<br>----- ----- ---------- --- --- ------ ------ ---- -- ------<br>------- --- ------ ----- --- ---- ------- -- ---- --- --<br>------- ------,258117,258094,257319.86,257320,257320.3,258119.66,,30,market
screen,html.Screen,2_1_1_1_31,2022-05-09T12:40:37.127Z,,,,,,,,,,,,,,,,,54,,,,,,,,,,,,,,661.3399999999965,,response,,,,100,,,,,,,Space,keypress(Space),,,,,,,,-- --- ---- --- ------ ----- ------- ---- -- --- ------- --<br>------- ---------- ------ -- ----- -- ----- -- ---- ------<br>--- ----- --- --- ------ -------- ----- --- ------ value --<br>----- ----- ---------- --- --- ------ ------ ---- -- ------<br>------- --- ------ ----- --- ---- ------- -- ---- --- --<br>------- ------,258795,258781,258117.1,258117,258119.66,258796.42,,31,value
screen,html.Screen,2_1_1_1_32,2022-05-09T12:40:37.644Z,,,,,,,,,,,,,,,,,54,,,,,,,,,,,,,,500.5799999999872,,response,,,,100,,,,,,,Space,keypress(Space),,,,,,,,-- --- ---- --- ------ ----- ------- ---- -- --- ------- --<br>------- ---------- ------ -- ----- -- ----- -- ---- ------<br>--- ----- --- --- ------ -------- ----- --- ------ ----- of<br>----- ----- ---------- --- --- ------ ------ ---- -- ------<br>------- --- ------ ----- --- ---- ------- -- ---- --- --<br>------- ------,259313,259297,258795.94,258796,258796.42,259313.74,,32,of
screen,html.Screen,2_1_1_1_33,2022-05-09T12:40:38.080Z,,,,,,,,,,,,,,,,,54,,,,,,,,,,,,,,421.2600000000093,,response,,,,100,,,,,,,Space,keypress(Space),,,,,,,,-- --- ---- --- ------ ----- ------- ---- -- --- ------- --<br>------- ---------- ------ -- ----- -- ----- -- ---- ------<br>--- ----- --- --- ------ -------- ----- --- ------ ----- --<br>these ----- ---------- --- --- ------ ------ ---- -- ------<br>------- --- ------ ----- --- ---- ------- -- ---- --- --<br>------- ------,259749,259735,259313.28,259313,259313.74,259749.74,,33,these
screen,html.Screen,2_1_1_1_34,2022-05-09T12:40:38.506Z,,,,,,,,,,,,,,,,,54,,,,,,,,,,,,,,406.2600000000093,,response,,,,100,,,,,,,Space,keypress(Space),,,,,,,,-- --- ---- --- ------ ----- ------- ---- -- --- ------- --<br>------- ---------- ------ -- ----- -- ----- -- ---- ------<br>--- ----- --- --- ------ -------- ----- --- ------ ----- --<br>----- bonds ---------- --- --- ------ ------ ---- -- ------<br>------- --- ------ ----- --- ---- ------- -- ---- --- --<br>------- ------,260175,260156,259749.28,259749,259749.74,260175.22,,34,bonds
screen,html.Screen,2_1_1_1_35,2022-05-09T12:40:39.260Z,,,,,,,,,,,,,,,,,54,,,,,,,,,,,,,,730.7799999999988,,response,,,,100,,,,,,,Space,keypress(Space),,,,,,,,"-- --- ---- --- ------ ----- ------- ---- -- --- ------- --<br>------- ---------- ------ -- ----- -- ----- -- ---- ------<br>--- ----- --- --- ------ -------- ----- --- ------ ----- --<br>----- ----- plummeted, --- --- ------ ------ ---- -- ------<br>------- --- ------ ----- --- ---- ------- -- ---- --- --<br>------- ------",260928,260906,260174.7,260175,260175.22,260929.02,,35,"plummeted,"
screen,html.Screen,2_1_1_1_36,2022-05-09T12:40:40.331Z,,,,,,,,,,,,,,,,,54,,,,,,,,,,,,,,1055.9800000000105,,response,,,,100,,,,,,,Space,keypress(Space),,,,,,,,-- --- ---- --- ------ ----- ------- ---- -- --- ------- --<br>------- ---------- ------ -- ----- -- ----- -- ---- ------<br>--- ----- --- --- ------ -------- ----- --- ------ ----- --<br>----- ----- ---------- and --- ------ ------ ---- -- ------<br>------- --- ------ ----- --- ---- ------- -- ---- --- --<br>------- ------,262000,261985,260928.56,260928,260929.02,262000.44,,36,and
screen,html.Screen,2_1_1_1_37,2022-05-09T12:40:40.822Z,,,,,,,,,,,,,,,,,54,,,,,,,,,,,,,,468.5599999999977,,response,,,,100,,,,,,,Space,keypress(Space),,,,,,,,-- --- ---- --- ------ ----- ------- ---- -- --- ------- --<br>------- ---------- ------ -- ----- -- ----- -- ---- ------<br>--- ----- --- --- ------ -------- ----- --- ------ ----- --<br>----- ----- ---------- --- the ------ ------ ---- -- ------<br>------- --- ------ ----- --- ---- ------- -- ---- --- --<br>------- ------,262490,262469,262000.26,262000,262000.44,262490.5,,37,the
screen,html.Screen,2_1_1_1_38,2022-05-09T12:40:41.282Z,,,,,,,,,,,,,,,,,54,,,,,,,,,,,,,,447.5,,response,,,,100,,,,,,,Space,keypress(Space),,,,,,,,-- --- ---- --- ------ ----- ------- ---- -- --- ------- --<br>------- ---------- ------ -- ----- -- ----- -- ---- ------<br>--- ----- --- --- ------ -------- ----- --- ------ ----- --<br>----- ----- ---------- --- --- market ------ ---- -- ------<br>------- --- ------ ----- --- ---- ------- -- ---- --- --<br>------- ------,262951,262938,262489.96,262490,262490.5,262951.22,,38,market
screen,html.Screen,2_1_1_1_39,2022-05-09T12:40:41.832Z,,,,,,,,,,,,,,,,,54,,,,,,,,,,,,,,533.7800000000279,,response,,,,100,,,,,,,Space,keypress(Space),,,,,,,,-- --- ---- --- ------ ----- ------- ---- -- --- ------- --<br>------- ---------- ------ -- ----- -- ----- -- ---- ------<br>--- ----- --- --- ------ -------- ----- --- ------ ----- --<br>----- ----- ---------- --- --- ------ became ---- -- ------<br>------- --- ------ ----- --- ---- ------- -- ---- --- --<br>------- ------,263500,263485,262950.76,262951,262951.22,263500.76,,39,became
screen,html.Screen,2_1_1_1_40,2022-05-09T12:40:42.472Z,,,,,,,,,,,,,,,,,54,,,,,,,,,,,,,,625.2399999999907,,response,,,,100,,,,,,,Space,keypress(Space),,,,,,,,-- --- ---- --- ------ ----- ------- ---- -- --- ------- --<br>------- ---------- ------ -- ----- -- ----- -- ---- ------<br>--- ----- --- --- ------ -------- ----- --- ------ ----- --<br>----- ----- ---------- --- --- ------ ------ wary -- ------<br>------- --- ------ ----- --- ---- ------- -- ---- --- --<br>------- ------,264140,264126,263500.58,263500,263500.76,264141.22,,40,wary
screen,html.Screen,2_1_1_1_41,2022-05-09T12:40:42.905Z,,,,,,,,,,,,,,,,,54,,,,,,,,,,,,,,421.78000000002794,,response,,,,100,,,,,,,Space,keypress(Space),,,,,,,,-- --- ---- --- ------ ----- ------- ---- -- --- ------- --<br>------- ---------- ------ -- ----- -- ----- -- ---- ------<br>--- ----- --- --- ------ -------- ----- --- ------ ----- --<br>----- ----- ---------- --- --- ------ ------ ---- of ------<br>------- --- ------ ----- --- ---- ------- -- ---- --- --<br>------- ------,264574,264563,264140.72,264141,264141.22,264573.88,,41,of
screen,html.Screen,2_1_1_1_42,2022-05-09T12:40:43.585Z,,,,,,,,,,,,,,,,,54,,,,,,,,,,,,,,661.1199999999953,,response,,,,100,,,,,,,Space,keypress(Space),,,,,,,,-- --- ---- --- ------ ----- ------- ---- -- --- ------- --<br>------- ---------- ------ -- ----- -- ----- -- ---- ------<br>--- ----- --- --- ------ -------- ----- --- ------ ----- --<br>----- ----- ---------- --- --- ------ ------ ---- -- French<br>------- --- ------ ----- --- ---- ------- -- ---- --- --<br>------- ------,265253,265235,264573.68,264574,264573.88,265253.52,,42,French
screen,html.Screen,2_1_1_1_43,2022-05-09T12:40:44.333Z,,,,,,,,,,,,,,,,,54,,,,,,,,,,,,,,731.4799999999814,,response,,,,100,,,,,,,Space,keypress(Space),,,,,,,,-- --- ---- --- ------ ----- ------- ---- -- --- ------- --<br>------- ---------- ------ -- ----- -- ----- -- ---- ------<br>--- ----- --- --- ------ -------- ----- --- ------ ----- --<br>----- ----- ---------- --- --- ------ ------ ---- -- ------<br>credit. --- ------ ----- --- ---- ------- -- ---- --- --<br>------- ------,266001,265985,265253.06,265253,265253.52,266002.56,,43,credit.
screen,html.Screen,2_1_1_1_44,2022-05-09T12:40:45.355Z,,,,,,,,,,,,,,,,,54,,,,,,,,,,,,,,1013.4400000000023,,response,,,,100,,,,,,,Space,keypress(Space),,,,,,,,-- --- ---- --- ------ ----- ------- ---- -- --- ------- --<br>------- ---------- ------ -- ----- -- ----- -- ---- ------<br>--- ----- --- --- ------ -------- ----- --- ------ ----- --<br>----- ----- ---------- --- --- ------ ------ ---- -- ------<br>------- The ------ ----- --- ---- ------- -- ---- --- --<br>------- ------,267023,267016,266002.1,266002,266002.56,267024.24,,44,The
screen,html.Screen,2_1_1_1_45,2022-05-09T12:40:45.936Z,,,,,,,,,,,,,,,,,54,,,,,,,,,,,,,,569.7600000000093,,response,,,,100,,,,,,,Space,keypress(Space),,,,,,,,-- --- ---- --- ------ ----- ------- ---- -- --- ------- --<br>------- ---------- ------ -- ----- -- ----- -- ---- ------<br>--- ----- --- --- ------ -------- ----- --- ------ ----- --<br>----- ----- ---------- --- --- ------ ------ ---- -- ------<br>------- --- French ----- --- ---- ------- -- ---- --- --<br>------- ------,267605,267594,267023.72,267023,267024.24,267605.14,,45,French
screen,html.Screen,2_1_1_1_46,2022-05-09T12:40:46.401Z,,,,,,,,,,,,,,,,,54,,,,,,,,,,,,,,441.85999999998603,,response,,,,100,,,,,,,Space,keypress(Space),,,,,,,,-- --- ---- --- ------ ----- ------- ---- -- --- ------- --<br>------- ---------- ------ -- ----- -- ----- -- ---- ------<br>--- ----- --- --- ------ -------- ----- --- ------ ----- --<br>----- ----- ---------- --- --- ------ ------ ---- -- ------<br>------- --- ------ state --- ---- ------- -- ---- --- --<br>------- ------,268069,268047,267604.92,267605,267605.14,268071.24,,46,state
screen,html.Screen,2_1_1_1_47,2022-05-09T12:40:46.877Z,,,,,,,,,,,,,,,,,54,,,,,,,,,,,,,,460.7600000000093,,response,,,,100,,,,,,,Space,keypress(Space),,,,,,,,-- --- ---- --- ------ ----- ------- ---- -- --- ------- --<br>------- ---------- ------ -- ----- -- ----- -- ---- ------<br>--- ----- --- --- ------ -------- ----- --- ------ ----- --<br>----- ----- ---------- --- --- ------ ------ ---- -- ------<br>------- --- ------ ----- was ---- ------- -- ---- --- --<br>------- ------,268546,268532,268070.48,268070,268071.24,268546.72,,47,was
screen,html.Screen,2_1_1_1_48,2022-05-09T12:40:47.321Z,,,,,,,,,,,,,,,,,54,,,,,,,,,,,,,,422.28000000002794,,response,,,,100,,,,,,,Space,keypress(Space),,,,,,,,-- --- ---- --- ------ ----- ------- ---- -- --- ------- --<br>------- ---------- ------ -- ----- -- ----- -- ---- ------<br>--- ----- --- --- ------ -------- ----- --- ------ ----- --<br>----- ----- ---------- --- --- ------ ------ ---- -- ------<br>------- --- ------ ----- --- left ------- -- ---- --- --<br>------- ------,268989,268969,268546.3,268547,268546.72,268989.84,,48,left
screen,html.Screen,2_1_1_1_49,2022-05-09T12:40:47.774Z,,,,,,,,,,,,,,,,,54,,,,,,,,,,,,,,448.1599999999744,,response,,,,100,,,,,,,Space,keypress(Space),,,,,,,,-- --- ---- --- ------ ----- ------- ---- -- --- ------- --<br>------- ---------- ------ -- ----- -- ----- -- ---- ------<br>--- ----- --- --- ------ -------- ----- --- ------ ----- --<br>----- ----- ---------- --- --- ------ ------ ---- -- ------<br>------- --- ------ ----- --- ---- without -- ---- --- --<br>------- ------,269443,269438,268989.38,268990,268989.84,269442.96,,49,without
screen,html.Screen,2_1_1_1_50,2022-05-09T12:40:48.285Z,,,,,,,,,,,,,,,,,54,,,,,,,,,,,,,,495.03999999997905,,response,,,,100,,,,,,,Space,keypress(Space),,,,,,,,-- --- ---- --- ------ ----- ------- ---- -- --- ------- --<br>------- ---------- ------ -- ----- -- ----- -- ---- ------<br>--- ----- --- --- ------ -------- ----- --- ------ ----- --<br>----- ----- ---------- --- --- ------ ------ ---- -- ------<br>------- --- ------ ----- --- ---- ------- an ---- --- --<br>------- ------,269953,269938,269442.5,269443,269442.96,269954.12,,50,an
screen,html.Screen,2_1_1_1_51,2022-05-09T12:40:48.795Z,,,,,,,,,,,,,,,,,54,,,,,,,,,,,,,,498.88000000000466,,response,,,,100,,,,,,,Space,keypress(Space),,,,,,,,-- --- ---- --- ------ ----- ------- ---- -- --- ------- --<br>------- ---------- ------ -- ----- -- ----- -- ---- ------<br>--- ----- --- --- ------ -------- ----- --- ------ ----- --<br>----- ----- ---------- --- --- ------ ------ ---- -- ------<br>------- --- ------ ----- --- ---- ------- -- easy --- --<br>------- ------,270464,270453,269953.62,269954,269954.12,270466.44,,51,easy
screen,html.Screen,2_1_1_1_52,2022-05-09T12:40:49.629Z,,,,,,,,,,,,,,,,,54,,,,,,,,,,,,,,814.5599999999977,,response,,,,100,,,,,,,Space,keypress(Space),,,,,,,,-- --- ---- --- ------ ----- ------- ---- -- --- ------- --<br>------- ---------- ------ -- ----- -- ----- -- ---- ------<br>--- ----- --- --- ------ -------- ----- --- ------ ----- --<br>----- ----- ---------- --- --- ------ ------ ---- -- ------<br>------- --- ------ ----- --- ---- ------- -- ---- way --<br>------- ------,271297,271281,270464,270464,270466.44,271299.56,,52,way
screen,html.Screen,2_1_1_1_53,2022-05-09T12:40:50.141Z,,,,,,,,,,,,,,,,,54,,,,,,,,,,,,,,497.4400000000023,,response,,,,100,,,,,,,Space,keypress(Space),,,,,,,,-- --- ---- --- ------ ----- ------- ---- -- --- ------- --<br>------- ---------- ------ -- ----- -- ----- -- ---- ------<br>--- ----- --- --- ------ -------- ----- --- ------ ----- --<br>----- ----- ---------- --- --- ------ ------ ---- -- ------<br>------- --- ------ ----- --- ---- ------- -- ---- --- of<br>------- ------,271811,271797,271297.48,271298,271299.56,271811.24,,53,of
screen,html.Screen,2_1_1_1_54,2022-05-09T12:40:52.063Z,,,,,,,,,,,,,,,,,54,,,,,,,,,,,,,,1907.7600000000093,,response,,,,100,,,,,,,Space,keypress(Space),,,,,,,,-- --- ---- --- ------ ----- ------- ---- -- --- ------- --<br>------- ---------- ------ -- ----- -- ----- -- ---- ------<br>--- ----- --- --- ------ -------- ----- --- ------ ----- --<br>----- ----- ---------- --- --- ------ ------ ---- -- ------<br>------- --- ------ ----- --- ---- ------- -- ---- --- --<br>raising ------,273732,273719,271810.7,271811,271811.24,273731.9,,54,raising
screen,html.Screen,2_1_1_1_55,2022-05-09T12:40:52.838Z,,,,,,,,,,,,,,,,,54,,,,,,,,,,,,,,753.0999999999767,,response,,,,100,,,,,,,Space,keypress(Space),,,,,,,,-- --- ---- --- ------ ----- ------- ---- -- --- ------- --<br>------- ---------- ------ -- ----- -- ----- -- ---- ------<br>--- ----- --- --- ------ -------- ----- --- ------ ----- --<br>----- ----- ---------- --- --- ------ ------ ---- -- ------<br>------- --- ------ ----- --- ---- ------- -- ---- --- --<br>------- money.,274507,274485,273731.58,273732,273731.9,274508.14,,55,money.
Item 100,flow.Loop,2_1_1_1,2022-05-09T12:40:52.839Z,,,,,,,,,,,,,,,,,,,,,,,,,,,,,,,38842.76000000001,,completion,,,,,F,,,,,,,,,,,silence,,,,,274508,274485,235625.58,235627,235642.24,274508.14,,,
Question 1,html.Screen,2_1_1_2,2022-05-09T12:40:57.868Z,,,,,,,,,,,,,,,,,,,,,,,,,,,,true,TRUE,,5008.859999999986,,response,,,,100,F,,,,,,TRUE,click #choice-1,,,,silence,,,,,279536,279517,274507.66,274508,274508.14,279547.54,,,
Question 2,html.Screen,2_1_1_3,2022-05-09T12:41:01.435Z,,,,,,,,,,,,,,,,,,,,,,,,,,,,true,FALSE,,3546.460000000021,,response,,,,100,F,,,,,,FALSE,click #choice-2,,,,silence,,,,,283103,283094,279535.86,279537,279547.54,283113.16,,,
Item 100,flow.Sequence,2_1_1,2022-05-09T12:41:01.436Z,,,,,,,,,,,,,,,,,,,,,,,,,,,,,,,57449.16,,completion,,,,,,,,,,,,,,,,,,,,,283105,283094,225638.82,225641,225644.84,283113.16,,,
End of Practice,html.Page,2_1_2,2022-05-09T12:41:04.825Z,,,,,,,,,,,,,,,,,,,,,,,,,,,,,,,3378.8400000000256,,form submission,,,,,,,,,,,,,,,,,,,,,286493,286492,283101.32,283105,283113.16,286495.48,,,
Practice,flow.Sequence,2_1,2022-05-09T12:41:04.825Z,,,,,,,,,,,,,,,,,,,,,,,,,,,,,,,130029.1,,completion,,,,,,,,,,,,,,,,,,,,,286493,286492,156451.26,156456,156462.9,286495.48,,,
Trap_instruction,html.Page,2_2_0,2022-05-09T12:41:13.629Z,,,,,,,,,,,,,,,,,,,,,,,,,,,,,,,8801.520000000019,,form submission,,,,,,,,,,,,,,,,,,,,,295297,295297,286488.28,286494,286495.48,295343.42,,,
trap_trial,html.Screen,2_2_1,2022-05-09T12:41:16.922Z,,,,,,,,,,,,,,,,,,,,,,,,,,,,true,1,,3234.5800000000163,,response,,,,,,,,,,,1,click #choice-1,,,,,,,,,298591,298578,295293.72,295299,295343.42,298592.36,,,
end of trap trial,html.Page,2_2_2,2022-05-09T12:41:19.818Z,,,,,,,,,,,,,,,,,,,,,,,,,,,,,,,2893.640000000014,,form submission,,,,,,,,,,,,,,,,,,,,,301487,301486,298589.34,298591,298592.36,301491.54,,,
Trap 1,flow.Sequence,2_2,2022-05-09T12:41:19.819Z,,,,,,,,,,,,,,,,,,,,,,,,,,,,,,,14990.520000000019,,completion,,,,,,,,,,,,,,,,,,,,,301487,301486,286488.28,286494,286495.48,301491.54,,,
Standby,html.Page,2_3_0,2022-05-09T12:41:27.806Z,,,,,,,,,,,,,,,,,,,,,,,,,,,,,,,7998.020000000019,,timeout,,,,,,,,,,,,,,,,,,,,,309475,309472.9,301482.72,301488,301491.54,309489.56,,,
Holding screen,html.Screen,2_3_1_0_0,2022-05-09T12:41:34.804Z,,,,,,,,,,,,,,,,,,,,,,,,,,,,,,,6998.099999999977,,timeout,,,,,,,,,,,,,,,,,,,,,316473,316471.22,309472.9,309476,309489.56,316487.66,,,
screen,html.Screen,2_3_1_0_1_0,2022-05-09T12:41:36.089Z,,,,,,,,,,,,,,,,,19,,,,,,,,,,,,,,1248.3400000000256,,response,,,,17,F,,,,,,Space,keypress(Space),,,,lyrical,,,,"Interestingly, --- -------- -------- ---------- ---- -------<br>-- ---------- -- --- ----- ------ ----- ---- --------- ----<br>------- ------ -------- -- ------ ---------- ------ ---<br>------ -- -- ---- -- ---------- -------- ------ ---- -------<br>---- --- --------- ------- ----- --------- ---- ----- --<br>------ -------- -- ------ -- ---- ------------",317757,317736,316471.22,316474,316487.66,317759.06,,0,"Interestingly,"
screen,html.Screen,2_3_1_0_1_1,2022-05-09T12:41:36.804Z,,,,,,,,,,,,,,,,,19,,,,,,,,,,,,,,693.9400000000023,,response,,,,17,F,,,,,,Space,keypress(Space),,,,lyrical,,,,-------------- the -------- -------- ---------- ---- -------<br>-- ---------- -- --- ----- ------ ----- ---- --------- ----<br>------- ------ -------- -- ------ ---------- ------ ---<br>------ -- -- ---- -- ---------- -------- ------ ---- -------<br>---- --- --------- ------- ----- --------- ---- ----- --<br>------ -------- -- ------ -- ---- ------------,318473,318453,317758.62,317758,317759.06,318473.72,,1,the
screen,html.Screen,2_3_1_0_1_2,2022-05-09T12:41:37.512Z,,,,,,,,,,,,,,,,,19,,,,,,,,,,,,,,682.2800000000279,,response,,,,17,F,,,,,,Space,keypress(Space),,,,lyrical,,,,-------------- --- heaviest -------- ---------- ---- -------<br>-- ---------- -- --- ----- ------ ----- ---- --------- ----<br>------- ------ -------- -- ------ ---------- ------ ---<br>------ -- -- ---- -- ---------- -------- ------ ---- -------<br>---- --- --------- ------- ----- --------- ---- ----- --<br>------ -------- -- ------ -- ---- ------------,319180,319156,318473.36,318473,318473.72,319181.34,,2,heaviest
screen,html.Screen,2_3_1_0_1_3,2022-05-09T12:41:38.450Z,,,,,,,,,,,,,,,,,19,,,,,,,,,,,,,,912.6599999999744,,response,,,,17,F,,,,,,Space,keypress(Space),,,,lyrical,,,,-------------- --- -------- isotopes ---------- ---- -------<br>-- ---------- -- --- ----- ------ ----- ---- --------- ----<br>------- ------ -------- -- ------ ---------- ------ ---<br>------ -- -- ---- -- ---------- -------- ------ ---- -------<br>---- --- --------- ------- ----- --------- ---- ----- --<br>------ -------- -- ------ -- ---- ------------,320118,320094,319180.82,319180,319181.34,320119.08,,3,isotopes
screen,html.Screen,2_3_1_0_1_4,2022-05-09T12:41:39.778Z,,,,,,,,,,,,,,,,,19,,,,,,,,,,,,,,1318.9199999999837,,response,,,,17,F,,,,,,Space,keypress(Space),,,,lyrical,,,,-------------- --- -------- -------- physicists ---- -------<br>-- ---------- -- --- ----- ------ ----- ---- --------- ----<br>------- ------ -------- -- ------ ---------- ------ ---<br>------ -- -- ---- -- ---------- -------- ------ ---- -------<br>---- --- --------- ------- ----- --------- ---- ----- --<br>------ -------- -- ------ -- ---- ------------,321446,321438,320118.62,320118,320119.08,321447.18,,4,physicists
screen,html.Screen,2_3_1_0_1_5,2022-05-09T12:41:40.295Z,,,,,,,,,,,,,,,,,19,,,,,,,,,,,,,,505.820000000007,,response,,,,17,F,,,,,,Space,keypress(Space),,,,lyrical,,,,-------------- --- -------- -------- ---------- have -------<br>-- ---------- -- --- ----- ------ ----- ---- --------- ----<br>------- ------ -------- -- ------ ---------- ------ ---<br>------ -- -- ---- -- ---------- -------- ------ ---- -------<br>---- --- --------- ------- ----- --------- ---- ----- --<br>------ -------- -- ------ -- ---- ------------,321964,321953,321446.66,321446,321447.18,321964.46,,5,have
screen,html.Screen,2_3_1_0_1_6,2022-05-09T12:41:40.749Z,,,,,,,,,,,,,,,,,19,,,,,,,,,,,,,,441.53999999997905,,response,,,,17,F,,,,,,Space,keypress(Space),,,,lyrical,,,,-------------- --- -------- -------- ---------- ---- managed<br>-- ---------- -- --- ----- ------ ----- ---- --------- ----<br>------- ------ -------- -- ------ ---------- ------ ---<br>------ -- -- ---- -- ---------- -------- ------ ---- -------<br>---- --- --------- ------- ----- --------- ---- ----- --<br>------ -------- -- ------ -- ---- ------------,322417,322406,321964,321964,321964.46,322419.12,,6,managed
screen,html.Screen,2_3_1_0_1_7,2022-05-09T12:41:41.151Z,,,,,,,,,,,,,,,,,19,,,,,,,,,,,,,,378.88000000000466,,response,,,,17,F,,,,,,Space,keypress(Space),,,,lyrical,,,,-------------- --- -------- -------- ---------- ---- -------<br>to ---------- -- --- ----- ------ ----- ---- --------- ----<br>------- ------ -------- -- ------ ---------- ------ ---<br>------ -- -- ---- -- ---------- -------- ------ ---- -------<br>---- --- --------- ------- ----- --------- ---- ----- --<br>------ -------- -- ------ -- ---- ------------,322819,322798,322418.54,322418,322419.12,322820.18,,7,to
screen,html.Screen,2_3_1_0_1_8,2022-05-09T12:41:41.874Z,,,,,,,,,,,,,,,,,19,,,,,,,,,,,,,,710.820000000007,,response,,,,17,F,,,,,,Space,keypress(Space),,,,lyrical,,,,-------------- --- -------- -------- ---------- ---- -------<br>-- synthesize -- --- ----- ------ ----- ---- --------- ----<br>------- ------ -------- -- ------ ---------- ------ ---<br>------ -- -- ---- -- ---------- -------- ------ ---- -------<br>---- --- --------- ------- ----- --------- ---- ----- --<br>------ -------- -- ------ -- ---- ------------,323542,323531,322819.64,322820,322820.18,323543.42,,8,synthesize
screen,html.Screen,2_3_1_0_1_9,2022-05-09T12:41:42.662Z,,,,,,,,,,,,,,,,,19,,,,,,,,,,,,,,770.5800000000163,,response,,,,17,F,,,,,,Space,keypress(Space),,,,lyrical,,,,-------------- --- -------- -------- ---------- ---- -------<br>-- ---------- so --- ----- ------ ----- ---- --------- ----<br>------- ------ -------- -- ------ ---------- ------ ---<br>------ -- -- ---- -- ---------- -------- ------ ---- -------<br>---- --- --------- ------- ----- --------- ---- ----- --<br>------ -------- -- ------ -- ---- ------------,324330,324314,323542.92,323543,323543.42,324330.76,,9,so
screen,html.Screen,2_3_1_0_1_10,2022-05-09T12:41:43.175Z,,,,,,,,,,,,,,,,,19,,,,,,,,,,,,,,497.2399999999907,,response,,,,17,F,,,,,,Space,keypress(Space),,,,lyrical,,,,-------------- --- -------- -------- ---------- ---- -------<br>-- ---------- -- far ----- ------ ----- ---- --------- ----<br>------- ------ -------- -- ------ ---------- ------ ---<br>------ -- -- ---- -- ---------- -------- ------ ---- -------<br>---- --- --------- ------- ----- --------- ---- ----- --<br>------ -------- -- ------ -- ---- ------------,324844,324828,324330.26,324330,324330.76,324844,,10,far
screen,html.Screen,2_3_1_0_1_11,2022-05-09T12:41:43.765Z,,,,,,,,,,,,,,,,,19,,,,,,,,,,,,,,578,,response,,,,17,F,,,,,,Space,keypress(Space),,,,lyrical,,,,-------------- --- -------- -------- ---------- ---- -------<br>-- ---------- -- --- don't ------ ----- ---- --------- ----<br>------- ------ -------- -- ------ ---------- ------ ---<br>------ -- -- ---- -- ---------- -------- ------ ---- -------<br>---- --- --------- ------- ----- --------- ---- ----- --<br>------ -------- -- ------ -- ---- ------------,325433,325422,324843.82,324844,324844,325433.96,,11,don't
screen,html.Screen,2_3_1_0_1_12,2022-05-09T12:41:44.348Z,,,,,,,,,,,,,,,,,19,,,,,,,,,,,,,,566.039999999979,,response,,,,17,F,,,,,,Space,keypress(Space),,,,lyrical,,,,-------------- --- -------- -------- ---------- ---- -------<br>-- ---------- -- --- ----- behave ----- ---- --------- ----<br>------- ------ -------- -- ------ ---------- ------ ---<br>------ -- -- ---- -- ---------- -------- ------ ---- -------<br>---- --- --------- ------- ----- --------- ---- ----- --<br>------ -------- -- ------ -- ---- ------------,326016,326000,325433.44,325434,325433.96,326018.54,,12,behave
screen,html.Screen,2_3_1_0_1_13,2022-05-09T12:41:44.912Z,,,,,,,,,,,,,,,,,19,,,,,,,,,,,,,,544.460000000021,,response,,,,17,F,,,,,,Space,keypress(Space),,,,lyrical,,,,-------------- --- -------- -------- ---------- ---- -------<br>-- ---------- -- --- ----- ------ quite ---- --------- ----<br>------- ------ -------- -- ------ ---------- ------ ---<br>------ -- -- ---- -- ---------- -------- ------ ---- -------<br>---- --- --------- ------- ----- --------- ---- ----- --<br>------ -------- -- ------ -- ---- ------------,326581,326563,326016.76,326017,326018.54,326581.82,,13,quite
screen,html.Screen,2_3_1_0_1_14,2022-05-09T12:41:45.503Z,,,,,,,,,,,,,,,,,19,,,,,,,,,,,,,,574.179999999993,,response,,,,17,F,,,,,,Space,keypress(Space),,,,lyrical,,,,-------------- --- -------- -------- ---------- ---- -------<br>-- ---------- -- --- ----- ------ ----- like --------- ----<br>------- ------ -------- -- ------ ---------- ------ ---<br>------ -- -- ---- -- ---------- -------- ------ ---- -------<br>---- --- --------- ------- ----- --------- ---- ----- --<br>------ -------- -- ------ -- ---- ------------,327172,327156,326581.36,326581,326581.82,327173,,14,like
screen,html.Screen,2_3_1_0_1_15,2022-05-09T12:41:46.301Z,,,,,,,,,,,,,,,,,19,,,,,,,,,,,,,,780,,response,,,,17,F,,,,,,Space,keypress(Space),,,,lyrical,,,,-------------- --- -------- -------- ---------- ---- -------<br>-- ---------- -- --- ----- ------ ----- ---- science's ----<br>------- ------ -------- -- ------ ---------- ------ ---<br>------ -- -- ---- -- ---------- -------- ------ ---- -------<br>---- --- --------- ------- ----- --------- ---- ----- --<br>------ -------- -- ------ -- ---- ------------,327970,327953,327172.54,327172,327173,327970.78,,15,science's
screen,html.Screen,2_3_1_0_1_16,2022-05-09T12:41:46.933Z,,,,,,,,,,,,,,,,,19,,,,,,,,,,,,,,624.2199999999721,,response,,,,17,F,,,,,,Space,keypress(Space),,,,lyrical,,,,-------------- --- -------- -------- ---------- ---- -------<br>-- ---------- -- --- ----- ------ ----- ---- --------- best<br>------- ------ -------- -- ------ ---------- ------ ---<br>------ -- -- ---- -- ---------- -------- ------ ---- -------<br>---- --- --------- ------- ----- --------- ---- ----- --<br>------ -------- -- ------ -- ---- ------------,328602,328595,327970.24,327970,327970.78,328602.96,,16,best
screen,html.Screen,2_3_1_0_1_17,2022-05-09T12:41:47.799Z,,,,,,,,,,,,,,,,,19,,,,,,,,,,,,,,850.039999999979,,response,,,,17,F,,,,,,Space,keypress(Space),,,,lyrical,,,,-------------- --- -------- -------- ---------- ---- -------<br>-- ---------- -- --- ----- ------ ----- ---- --------- ----<br>current ------ -------- -- ------ ---------- ------ ---<br>------ -- -- ---- -- ---------- -------- ------ ---- -------<br>---- --- --------- ------- ----- --------- ---- ----- --<br>------ -------- -- ------ -- ---- ------------,329468,329453,328602.46,328602,328602.96,329468.46,,17,current
screen,html.Screen,2_3_1_0_1_18,2022-05-09T12:41:48.561Z,,,,,,,,,,,,,,,,,19,,,,,,,,,,,,,,734.539999999979,,response,,,,17,F,,,,,,Space,keypress(Space),,,,lyrical,,,,-------------- --- -------- -------- ---------- ---- -------<br>-- ---------- -- --- ----- ------ ----- ---- --------- ----<br>------- models -------- -- ------ ---------- ------ ---<br>------ -- -- ---- -- ---------- -------- ------ ---- -------<br>---- --- --------- ------- ----- --------- ---- ----- --<br>------ -------- -- ------ -- ---- ------------,330230,330203,329467.98,329468,329468.46,330234.14,,18,models
screen,html.Screen,2_3_1_0_1_19,2022-05-09T12:41:49.246Z,,,,,,,,,,,,,,,,,19,,,,,,,,,,,,,,671.859999999986,,response,,,,17,F,,,,,,Space,keypress(Space),,,,lyrical,,,,"-------------- --- -------- -------- ---------- ---- -------<br>-- ---------- -- --- ----- ------ ----- ---- --------- ----<br>------- ------ predict, -- ------ ---------- ------ ---<br>------ -- -- ---- -- ---------- -------- ------ ---- -------<br>---- --- --------- ------- ----- --------- ---- ----- --<br>------ -------- -- ------ -- ---- ------------",330915,330906,330230.18,330230,330234.14,330917.24,,19,"predict,"
screen,html.Screen,2_3_1_0_1_20,2022-05-09T12:41:49.976Z,,,,,,,,,,,,,,,,,19,,,,,,,,,,,,,,707.7600000000093,,response,,,,17,F,,,,,,Space,keypress(Space),,,,lyrical,,,,-------------- --- -------- -------- ---------- ---- -------<br>-- ---------- -- --- ----- ------ ----- ---- --------- ----<br>------- ------ -------- so ------ ---------- ------ ---<br>------ -- -- ---- -- ---------- -------- ------ ---- -------<br>---- --- --------- ------- ----- --------- ---- ----- --<br>------ -------- -- ------ -- ---- ------------,331644,331625,330915.18,330915,330917.24,331644.6,,20,so
screen,html.Screen,2_3_1_0_1_21,2022-05-09T12:41:50.613Z,,,,,,,,,,,,,,,,,19,,,,,,,,,,,,,,622.4000000000233,,response,,,,17,F,,,,,,Space,keypress(Space),,,,lyrical,,,,-------------- --- -------- -------- ---------- ---- -------<br>-- ---------- -- --- ----- ------ ----- ---- --------- ----<br>------- ------ -------- -- stable ---------- ------ ---<br>------ -- -- ---- -- ---------- -------- ------ ---- -------<br>---- --- --------- ------- ----- --------- ---- ----- --<br>------ -------- -- ------ -- ---- ------------,332280,332267,331644.42,331645,331644.6,332283.54,,21,stable
screen,html.Screen,2_3_1_0_1_22,2022-05-09T12:41:51.532Z,,,,,,,,,,,,,,,,,19,,,,,,,,,,,,,,904.460000000021,,response,,,,17,F,,,,,,Space,keypress(Space),,,,lyrical,,,,-------------- --- -------- -------- ---------- ---- -------<br>-- ---------- -- --- ----- ------ ----- ---- --------- ----<br>------- ------ -------- -- ------ superheavy ------ ---<br>------ -- -- ---- -- ---------- -------- ------ ---- -------<br>---- --- --------- ------- ----- --------- ---- ----- --<br>------ -------- -- ------ -- ---- ------------,333201,333188,332281.2,332281,332283.54,333201.52,,22,superheavy
screen,html.Screen,2_3_1_0_1_23,2022-05-09T12:41:52.441Z,,,,,,,,,,,,,,,,,19,,,,,,,,,,,,,,892.4799999999814,,response,,,,17,F,,,,,,Space,keypress(Space),,,,lyrical,,,,-------------- --- -------- -------- ---------- ---- -------<br>-- ---------- -- --- ----- ------ ----- ---- --------- ----<br>------- ------ -------- -- ------ ---------- nuclei ---<br>------ -- -- ---- -- ---------- -------- ------ ---- -------<br>---- --- --------- ------- ----- --------- ---- ----- --<br>------ -------- -- ------ -- ---- ------------,334109,334094,333201.06,333201,333201.52,334110.24,,23,nuclei
screen,html.Screen,2_3_1_0_1_24,2022-05-09T12:41:52.944Z,,,,,,,,,,,,,,,,,19,,,,,,,,,,,,,,483.7600000000093,,response,,,,17,F,,,,,,Space,keypress(Space),,,,lyrical,,,,-------------- --- -------- -------- ---------- ---- -------<br>-- ---------- -- --- ----- ------ ----- ---- --------- ----<br>------- ------ -------- -- ------ ---------- ------ are<br>------ -- -- ---- -- ---------- -------- ------ ---- -------<br>---- --- --------- ------- ----- --------- ---- ----- --<br>------ -------- -- ------ -- ---- ------------,334612,334594,334109.78,334110,334110.24,334613.06,,24,are
screen,html.Screen,2_3_1_0_1_25,2022-05-09T12:41:53.423Z,,,,,,,,,,,,,,,,,19,,,,,,,,,,,,,,464.9400000000023,,response,,,,17,F,,,,,,Space,keypress(Space),,,,lyrical,,,,-------------- --- -------- -------- ---------- ---- -------<br>-- ---------- -- --- ----- ------ ----- ---- --------- ----<br>------- ------ -------- -- ------ ---------- ------ ---<br>likely -- -- ---- -- ---------- -------- ------ ---- -------<br>---- --- --------- ------- ----- --------- ---- ----- --<br>------ -------- -- ------ -- ---- ------------,335091,335078,334612.7,334612,334613.06,335092.32,,25,likely
screen,html.Screen,2_3_1_0_1_26,2022-05-09T12:41:53.802Z,,,,,,,,,,,,,,,,,19,,,,,,,,,,,,,,361.679999999993,,response,,,,17,F,,,,,,Space,keypress(Space),,,,lyrical,,,,-------------- --- -------- -------- ---------- ---- -------<br>-- ---------- -- --- ----- ------ ----- ---- --------- ----<br>------- ------ -------- -- ------ ---------- ------ ---<br>------ to -- ---- -- ---------- -------- ------ ---- -------<br>---- --- --------- ------- ----- --------- ---- ----- --<br>------ -------- -- ------ -- ---- ------------,335470,335454,335091.82,335091,335092.32,335471.48,,26,to
screen,html.Screen,2_3_1_0_1_27,2022-05-09T12:41:54.334Z,,,,,,,,,,,,,,,,,19,,,,,,,,,,,,,,513.5200000000186,,response,,,,17,F,,,,,,Space,keypress(Space),,,,lyrical,,,,-------------- --- -------- -------- ---------- ---- -------<br>-- ---------- -- --- ----- ------ ----- ---- --------- ----<br>------- ------ -------- -- ------ ---------- ------ ---<br>------ -- be ---- -- ---------- -------- ------ ---- -------<br>---- --- --------- ------- ----- --------- ---- ----- --<br>------ -------- -- ------ -- ---- ------------,336002,335985,335471.04,335471,335471.48,336003.7,,27,be
screen,html.Screen,2_3_1_0_1_28,2022-05-09T12:41:55.013Z,,,,,,,,,,,,,,,,,19,,,,,,,,,,,,,,652.2999999999884,,response,,,,17,F,,,,,,Space,keypress(Space),,,,lyrical,,,,-------------- --- -------- -------- ---------- ---- -------<br>-- ---------- -- --- ----- ------ ----- ---- --------- ----<br>------- ------ -------- -- ------ ---------- ------ ---<br>------ -- -- full -- ---------- -------- ------ ---- -------<br>---- --- --------- ------- ----- --------- ---- ----- --<br>------ -------- -- ------ -- ---- ------------,336680,336656,336003.24,336003,336003.7,336681.88,,28,full
screen,html.Screen,2_3_1_0_1_29,2022-05-09T12:41:55.505Z,,,,,,,,,,,,,,,,,19,,,,,,,,,,,,,,474.11999999999534,,response,,,,17,F,,,,,,Space,keypress(Space),,,,lyrical,,,,-------------- --- -------- -------- ---------- ---- -------<br>-- ---------- -- --- ----- ------ ----- ---- --------- ----<br>------- ------ -------- -- ------ ---------- ------ ---<br>------ -- -- ---- of ---------- -------- ------ ---- -------<br>---- --- --------- ------- ----- --------- ---- ----- --<br>------ -------- -- ------ -- ---- ------------,337173,337156,336681.36,336681,336681.88,337174.46,,29,of
screen,html.Screen,2_3_1_0_1_30,2022-05-09T12:41:56.149Z,,,,,,,,,,,,,,,,,19,,,,,,,,,,,,,,623.539999999979,,response,,,,17,F,,,,,,Space,keypress(Space),,,,lyrical,,,,-------------- --- -------- -------- ---------- ---- -------<br>-- ---------- -- --- ----- ------ ----- ---- --------- ----<br>------- ------ -------- -- ------ ---------- ------ ---<br>------ -- -- ---- -- surprises. -------- ------ ---- -------<br>---- --- --------- ------- ----- --------- ---- ----- --<br>------ -------- -- ------ -- ---- ------------,337817,337798,337173.98,337174,337174.46,337818.4,,30,surprises.
screen,html.Screen,2_3_1_0_1_31,2022-05-09T12:41:56.688Z,,,,,,,,,,,,,,,,,19,,,,,,,,,,,,,,525.5999999999767,,response,,,,17,F,,,,,,Space,keypress(Space),,,,lyrical,,,,-------------- --- -------- -------- ---------- ---- -------<br>-- ---------- -- --- ----- ------ ----- ---- --------- ----<br>------- ------ -------- -- ------ ---------- ------ ---<br>------ -- -- ---- -- ---------- Chemists ------ ---- -------<br>---- --- --------- ------- ----- --------- ---- ----- --<br>------ -------- -- ------ -- ---- ------------,338357,338344,337817.96,337818,337818.4,338357.96,,31,Chemists
screen,html.Screen,2_3_1_0_1_32,2022-05-09T12:41:57.165Z,,,,,,,,,,,,,,,,,19,,,,,,,,,,,,,,455.03999999997905,,response,,,,17,F,,,,,,Space,keypress(Space),,,,lyrical,,,,-------------- --- -------- -------- ---------- ---- -------<br>-- ---------- -- --- ----- ------ ----- ---- --------- ----<br>------- ------ -------- -- ------ ---------- ------ ---<br>------ -- -- ---- -- ---------- -------- cannot ---- -------<br>---- --- --------- ------- ----- --------- ---- ----- --<br>------ -------- -- ------ -- ---- ------------,338834,338813,338357.48,338357,338357.96,338834.04,,32,cannot
screen,html.Screen,2_3_1_0_1_33,2022-05-09T12:41:57.701Z,,,,,,,,,,,,,,,,,19,,,,,,,,,,,,,,509.96000000002095,,response,,,,17,F,,,,,,Space,keypress(Space),,,,lyrical,,,,-------------- --- -------- -------- ---------- ---- -------<br>-- ---------- -- --- ----- ------ ----- ---- --------- ----<br>------- ------ -------- -- ------ ---------- ------ ---<br>------ -- -- ---- -- ---------- -------- ------ even -------<br>---- --- --------- ------- ----- --------- ---- ----- --<br>------ -------- -- ------ -- ---- ------------,339370,339344,338833.88,338834,338834.04,339370.5,,33,even
screen,html.Screen,2_3_1_0_1_34,2022-05-09T12:41:58.312Z,,,,,,,,,,,,,,,,,19,,,,,,,,,,,,,,582.5,,response,,,,17,F,,,,,,Space,keypress(Space),,,,lyrical,,,,-------------- --- -------- -------- ---------- ---- -------<br>-- ---------- -- --- ----- ------ ----- ---- --------- ----<br>------- ------ -------- -- ------ ---------- ------ ---<br>------ -- -- ---- -- ---------- -------- ------ ---- predict<br>---- --- --------- ------- ----- --------- ---- ----- --<br>------ -------- -- ------ -- ---- ------------,339981,339953,339370.04,339370,339370.5,339981.54,,34,predict
screen,html.Screen,2_3_1_0_1_35,2022-05-09T12:41:59.188Z,,,,,,,,,,,,,,,,,19,,,,,,,,,,,,,,862.460000000021,,response,,,,17,F,,,,,,Space,keypress(Space),,,,lyrical,,,,-------------- --- -------- -------- ---------- ---- -------<br>-- ---------- -- --- ----- ------ ----- ---- --------- ----<br>------- ------ -------- -- ------ ---------- ------ ---<br>------ -- -- ---- -- ---------- -------- ------ ---- -------<br>with --- --------- ------- ----- --------- ---- ----- --<br>------ -------- -- ------ -- ---- ------------,340857,340844,339980.98,339981,339981.54,340857.14,,35,with
screen,html.Screen,2_3_1_0_1_36,2022-05-09T12:41:59.628Z,,,,,,,,,,,,,,,,,19,,,,,,,,,,,,,,423.85999999998603,,response,,,,17,F,,,,,,Space,keypress(Space),,,,lyrical,,,,-------------- --- -------- -------- ---------- ---- -------<br>-- ---------- -- --- ----- ------ ----- ---- --------- ----<br>------- ------ -------- -- ------ ---------- ------ ---<br>------ -- -- ---- -- ---------- -------- ------ ---- -------<br>---- any --------- ------- ----- --------- ---- ----- --<br>------ -------- -- ------ -- ---- ------------,341297,341281,340856.96,340857,340857.14,341298.62,,36,any
screen,html.Screen,2_3_1_0_1_37,2022-05-09T12:42:00.065Z,,,,,,,,,,,,,,,,,19,,,,,,,,,,,,,,420.38000000000466,,response,,,,17,F,,,,,,Space,keypress(Space),,,,lyrical,,,,-------------- --- -------- -------- ---------- ---- -------<br>-- ---------- -- --- ----- ------ ----- ---- --------- ----<br>------- ------ -------- -- ------ ---------- ------ ---<br>------ -- -- ---- -- ---------- -------- ------ ---- -------<br>---- --- certainty ------- ----- --------- ---- ----- --<br>------ -------- -- ------ -- ---- ------------,341733,341719,341298.4,341299,341298.62,341733.2,,37,certainty
screen,html.Screen,2_3_1_0_1_38,2022-05-09T12:42:00.539Z,,,,,,,,,,,,,,,,,19,,,,,,,,,,,,,,455.79999999998836,,response,,,,17,F,,,,,,Space,keypress(Space),,,,lyrical,,,,-------------- --- -------- -------- ---------- ---- -------<br>-- ---------- -- --- ----- ------ ----- ---- --------- ----<br>------- ------ -------- -- ------ ---------- ------ ---<br>------ -- -- ---- -- ---------- -------- ------ ---- -------<br>---- --- --------- whether ----- --------- ---- ----- --<br>------ -------- -- ------ -- ---- ------------,342208,342189,341733.02,341733,341733.2,342208.98,,38,whether
screen,html.Screen,2_3_1_0_1_39,2022-05-09T12:42:01.069Z,,,,,,,,,,,,,,,,,19,,,,,,,,,,,,,,511.0200000000186,,response,,,,17,F,,,,,,Space,keypress(Space),,,,lyrical,,,,-------------- --- -------- -------- ---------- ---- -------<br>-- ---------- -- --- ----- ------ ----- ---- --------- ----<br>------- ------ -------- -- ------ ---------- ------ ---<br>------ -- -- ---- -- ---------- -------- ------ ---- -------<br>---- --- --------- ------- these --------- ---- ----- --<br>------ -------- -- ------ -- ---- ------------,342737,342720,342208.5,342209,342208.98,342739.48,,39,these
screen,html.Screen,2_3_1_0_1_40,2022-05-09T12:42:01.499Z,,,,,,,,,,,,,,,,,19,,,,,,,,,,,,,,416.5200000000186,,response,,,,17,F,,,,,,Space,keypress(Space),,,,lyrical,,,,-------------- --- -------- -------- ---------- ---- -------<br>-- ---------- -- --- ----- ------ ----- ---- --------- ----<br>------- ------ -------- -- ------ ---------- ------ ---<br>------ -- -- ---- -- ---------- -------- ------ ---- -------<br>---- --- --------- ------- ----- materials ---- ----- --<br>------ -------- -- ------ -- ---- ------------,343167,343156,342739.02,342739,342739.48,343169.1,,40,materials
screen,html.Screen,2_3_1_0_1_41,2022-05-09T12:42:02.210Z,,,,,,,,,,,,,,,,,19,,,,,,,,,,,,,,690.9000000000233,,response,,,,17,F,,,,,,Space,keypress(Space),,,,lyrical,,,,-------------- --- -------- -------- ---------- ---- -------<br>-- ---------- -- --- ----- ------ ----- ---- --------- ----<br>------- ------ -------- -- ------ ---------- ------ ---<br>------ -- -- ---- -- ---------- -------- ------ ---- -------<br>---- --- --------- ------- ----- --------- will ----- --<br>------ -------- -- ------ -- ---- ------------,343877,343860,343168.64,343168,343169.1,343878.08,,41,will
screen,html.Screen,2_3_1_0_1_42,2022-05-09T12:42:02.837Z,,,,,,,,,,,,,,,,,19,,,,,,,,,,,,,,606.9199999999837,,response,,,,17,F,,,,,,Space,keypress(Space),,,,lyrical,,,,-------------- --- -------- -------- ---------- ---- -------<br>-- ---------- -- --- ----- ------ ----- ---- --------- ----<br>------- ------ -------- -- ------ ---------- ------ ---<br>------ -- -- ---- -- ---------- -------- ------ ---- -------<br>---- --- --------- ------- ----- --------- ---- exist --<br>------ -------- -- ------ -- ---- ------------,344506,344485,343877.82,343878,343878.08,344506.66,,42,exist
screen,html.Screen,2_3_1_0_1_43,2022-05-09T12:42:03.727Z,,,,,,,,,,,,,,,,,19,,,,,,,,,,,,,,868.3400000000256,,response,,,,17,F,,,,,,Space,keypress(Space),,,,lyrical,,,,-------------- --- -------- -------- ---------- ---- -------<br>-- ---------- -- --- ----- ------ ----- ---- --------- ----<br>------- ------ -------- -- ------ ---------- ------ ---<br>------ -- -- ---- -- ---------- -------- ------ ---- -------<br>---- --- --------- ------- ----- --------- ---- ----- as<br>------ -------- -- ------ -- ---- ------------,345395,345375,344506.18,344506,344506.66,345396.64,,43,as
screen,html.Screen,2_3_1_0_1_44,2022-05-09T12:42:04.188Z,,,,,,,,,,,,,,,,,19,,,,,,,,,,,,,,448.35999999998603,,response,,,,17,F,,,,,,Space,keypress(Space),,,,lyrical,,,,"-------------- --- -------- -------- ---------- ---- -------<br>-- ---------- -- --- ----- ------ ----- ---- --------- ----<br>------- ------ -------- -- ------ ---------- ------ ---<br>------ -- -- ---- -- ---------- -------- ------ ---- -------<br>---- --- --------- ------- ----- --------- ---- ----- --<br>gases, -------- -- ------ -- ---- ------------",345856,345845,345396.16,345396,345396.64,345857.02,,44,"gases,"
screen,html.Screen,2_3_1_0_1_45,2022-05-09T12:42:05.053Z,,,,,,,,,,,,,,,,,19,,,,,,,,,,,,,,845.9799999999814,,response,,,,17,F,,,,,,Space,keypress(Space),,,,lyrical,,,,"-------------- --- -------- -------- ---------- ---- -------<br>-- ---------- -- --- ----- ------ ----- ---- --------- ----<br>------- ------ -------- -- ------ ---------- ------ ---<br>------ -- -- ---- -- ---------- -------- ------ ---- -------<br>---- --- --------- ------- ----- --------- ---- ----- --<br>------ liquids, -- ------ -- ---- ------------",346721,346703,345856.82,345856,345857.02,346722.08,,45,"liquids,"
screen,html.Screen,2_3_1_0_1_46,2022-05-09T12:42:05.569Z,,,,,,,,,,,,,,,,,19,,,,,,,,,,,,,,496.9199999999837,,response,,,,17,F,,,,,,Space,keypress(Space),,,,lyrical,,,,-------------- --- -------- -------- ---------- ---- -------<br>-- ---------- -- --- ----- ------ ----- ---- --------- ----<br>------- ------ -------- -- ------ ---------- ------ ---<br>------ -- -- ---- -- ---------- -------- ------ ---- -------<br>---- --- --------- ------- ----- --------- ---- ----- --<br>------ -------- or ------ -- ---- ------------,347238,347219,346721.56,346721,346722.08,347239.9,,46,or
screen,html.Screen,2_3_1_0_1_47,2022-05-09T12:42:06.061Z,,,,,,,,,,,,,,,,,19,,,,,,,,,,,,,,479.0999999999767,,response,,,,17,F,,,,,,Space,keypress(Space),,,,lyrical,,,,-------------- --- -------- -------- ---------- ---- -------<br>-- ---------- -- --- ----- ------ ----- ---- --------- ----<br>------- ------ -------- -- ------ ---------- ------ ---<br>------ -- -- ---- -- ---------- -------- ------ ---- -------<br>---- --- --------- ------- ----- --------- ---- ----- --<br>------ -------- -- solids -- ---- ------------,347730,347719,347239.54,347239,347239.9,347731.08,,47,solids
screen,html.Screen,2_3_1_0_1_48,2022-05-09T12:42:06.520Z,,,,,,,,,,,,,,,,,19,,,,,,,,,,,,,,440.9199999999837,,response,,,,17,F,,,,,,Space,keypress(Space),,,,lyrical,,,,-------------- --- -------- -------- ---------- ---- -------<br>-- ---------- -- --- ----- ------ ----- ---- --------- ----<br>------- ------ -------- -- ------ ---------- ------ ---<br>------ -- -- ---- -- ---------- -------- ------ ---- -------<br>---- --- --------- ------- ----- --------- ---- ----- --<br>------ -------- -- ------ at ---- ------------,348189,348172,347730.62,347731,347731.08,348189.3,,48,at
screen,html.Screen,2_3_1_0_1_49,2022-05-09T12:42:07.103Z,,,,,,,,,,,,,,,,,19,,,,,,,,,,,,,,576.7000000000116,,response,,,,17,F,,,,,,Space,keypress(Space),,,,lyrical,,,,-------------- --- -------- -------- ---------- ---- -------<br>-- ---------- -- --- ----- ------ ----- ---- --------- ----<br>------- ------ -------- -- ------ ---------- ------ ---<br>------ -- -- ---- -- ---------- -------- ------ ---- -------<br>---- --- --------- ------- ----- --------- ---- ----- --<br>------ -------- -- ------ -- room ------------,348772,348766,348189.12,348189,348189.3,348772.24,,49,room
screen,html.Screen,2_3_1_0_1_50,2022-05-09T12:42:07.719Z,,,,,,,,,,,,,,,,,19,,,,,,,,,,,,,,602.7600000000093,,response,,,,17,F,,,,,,Space,keypress(Space),,,,lyrical,,,,-------------- --- -------- -------- ---------- ---- -------<br>-- ---------- -- --- ----- ------ ----- ---- --------- ----<br>------- ------ -------- -- ------ ---------- ------ ---<br>------ -- -- ---- -- ---------- -------- ------ ---- -------<br>---- --- --------- ------- ----- --------- ---- ----- --<br>------ -------- -- ------ -- ---- temperature.,349387,349375,348771.74,348772,348772.24,349388.94,,50,temperature.
