sender,sender_type,sender_id,timestamp,meta,,Blues,Classical,Country,Dance,Electronic,Folk,Gospel,Hip-Hop,Jazz,Latin,Musical/Film,New-age,Pop,Prolific_id,Provo_ID,R&B,Rap,Reggae,Religious,Rock,Soul,Swing,Traditional,age,artist_name,correct,correctResponse,distraction,duration,education,ended_on,familiarity,gender,headphone_check_performance,item,list,music_frequency,offensiveness,pleasantness,position_correct,preference,response,response_action,snippet_file,song_name,song_rating,sound,stimulus_1,stimulus_2,stimulus_3,text,time_commit,time_end,time_render,time_run,time_show,time_switch,url,word,word_ID
Prolific ID,html.Form,0,2022-05-10T13:34:09.165Z,"{""labjs_version"":""20.2.2"",""labjs_build"":{""flavor"":""production"",""commit"":""a25486e0c714a0ae2ce03ff94b7bb6896854dcfa""},""location"":""https://run.pavlovia.org/mvasilev/prolific3_music_b/"",""userAgent"":""Mozilla/5.0 (Windows NT 10.0; Win64; x64) AppleWebKit/537.36 (KHTML, like Gecko) Chrome/101.0.4951.54 Safari/537.36"",""platform"":""Win32"",""language"":""en-US"",""locale"":""en-US"",""timeZone"":""Europe/London"",""timezoneOffset"":-60,""screen_width"":1366,""screen_height"":768,""scroll_width"":1366,""scroll_height"":577,""window_innerWidth"":1366,""window_innerHeight"":625,""devicePixelRatio"":1}",,,,,,,,,,,,,,,5ce64b4d0226ce0019c49a3f,,,,,,,,,,,,,,,6860.393999928474,,form submission,,,,,,,,,,,,,,,,,,,,,20541.100000023842,20540.699999928474,13646.856,13661.600000023842,13680.306,20671.557,{},,
Introduction,html.Screen,1_0,2022-05-10T13:34:17.995Z,,,,,,,,,,,,,,,,,,,,,,,,,,,,,,,8697.142999928474,,response,,,,,,,,,,,continue,click button,,,,,,,,,29371.100000023842,29368.699999928474,20537.757,20541.5,20671.557,29385.403,,,
Volume calibration,html.Screen,1_1,2022-05-10T13:34:34.604Z,,,,,,,,,,,,,,,,,,,,,,,,,,,,,,,16590.197000023843,,response,,,,,,,,,,,continue,click button,,,,,,,,,45979.299999952316,45975.60000002384,29368.678,29371.299999952316,29385.403,45976.957,,,
Task instructions,html.Screen,1_2,2022-05-10T13:35:11.596Z,,,,,,,,,,,,,,,,,,,,,,,,,,,,,,,36993.64300002384,,response,,,,,,,,,,,continue,click button,,,,,,,,,82971.29999995232,82970.60000002384,45960.232,45979.39999997616,45976.957,82989.93,,,
Sounds,html.Screen,1_3_0_0,2022-05-10T13:35:15.867Z,,,,,,,,,,,,,,,,,,,,,,,,,,,,,,,4281.688000000009,,timeout,,,,,,,,,2,,,,,,,,O,S,I,,87241.79999995232,87221.443,82956.48,82971.5,82989.93,87271.618,,,
Judgement,html.Screen,1_3_0_1,2022-05-10T13:35:19.551Z,,,,,,,,,,,,,,,,,,,,,,,,,,,,true,2,,3653.881999999998,,response,,,,,,,,,2,,2,click #choice-2,,,,,O,S,I,,90926.39999997616,90925.5,87221.443,87241.89999997616,87271.618,90934.511,,,
Trial,flow.Sequence,1_3_0,2022-05-10T13:35:19.551Z,,,,,,,,,,,,,,,,,,,,,,,,,,,,,,,7935.570000000007,,completion,,,,,,,,,2,,,,,,,,O,S,I,,90926.60000002384,90925.5,82956.48,82971.5,82989.93,90934.511,,,
Sounds,html.Screen,1_3_1_0,2022-05-10T13:35:23.792Z,,,,,,,,,,,,,,,,,,,,,,,,,,,,,,,4248.150999999998,,timeout,,,,,,,,,3,,,,,,,,O,I,S,,95167.69999992847,95165.937,90917.786,90927,90934.511,95182.662,,,
Judgement,html.Screen,1_3_1_1,2022-05-10T13:35:25.484Z,,,,,,,,,,,,,,,,,,,,,,,,,,,,true,3,,1675.8380000000034,,response,,,,,,,,,3,,3,click #choice-3,,,,,O,I,S,,96859.5,96858.5,95165.937,95167.79999995232,95182.662,96871.963,,,
Trial,flow.Sequence,1_3_1,2022-05-10T13:35:25.484Z,,,,,,,,,,,,,,,,,,,,,,,,,,,,,,,5923.989000000001,,completion,,,,,,,,,3,,,,,,,,O,I,S,,96859.79999995232,96858.5,90917.786,90926.69999992847,90934.511,96871.963,,,
Sounds,html.Screen,1_3_2_0,2022-05-10T13:35:29.729Z,,,,,,,,,,,,,,,,,,,,,,,,,,,,,,,4248.179000000004,,timeout,,,,,,,,,3,,,,,,,,I,O,S,,101105.10000002384,101103.417,96855.238,96860,96871.963,101120.142,,,
Judgement,html.Screen,1_3_2_1,2022-05-10T13:35:30.789Z,,,,,,,,,,,,,,,,,,,,,,,,,,,,true,3,,1043.357999999993,,response,,,,,,,,,3,,3,click #choice-3,,,,,I,O,S,,102164.29999995232,102163.5,101103.417,101105.29999995232,101120.142,102173.896,,,
Trial,flow.Sequence,1_3_2,2022-05-10T13:35:30.789Z,,,,,,,,,,,,,,,,,,,,,,,,,,,,,,,5291.536999999997,,completion,,,,,,,,,3,,,,,,,,I,O,S,,102164.5,102163.5,96855.238,96859.89999997616,96871.963,102173.896,,,
Sounds,html.Screen,1_3_3_0,2022-05-10T13:35:35.031Z,,,,,,,,,,,,,,,,,,,,,,,,,,,,,,,4248.166000000012,,timeout,,,,,,,,,1,,,,,,,,S,O,I,,106406.79999995232,106405.337,102157.171,102164.60000002384,102173.896,106422.062,,,
Judgement,html.Screen,1_3_3_1,2022-05-10T13:35:35.900Z,,,,,,,,,,,,,,,,,,,,,,,,,,,,false,1,,852.4379999999946,,response,,,,,,,,,1,,2,click #choice-2,,,,,S,O,I,,107275.19999992847,107274.5,106405.337,106406.89999997616,106422.062,107275.103,,,
Trial,flow.Sequence,1_3_3,2022-05-10T13:35:35.900Z,,,,,,,,,,,,,,,,,,,,,,,,,,,,,,,5100.604000000007,,completion,,,,,,,,,1,,,,,,,,S,O,I,,107275.60000002384,107274.5,102157.171,102164.60000002384,102173.896,107275.103,,,
Sounds,html.Screen,1_3_4_0,2022-05-10T13:35:40.133Z,,,,,,,,,,,,,,,,,,,,,,,,,,,,,,,4248.157999999996,,timeout,,,,,,,,,1,,,,,,,,S,I,O,,111508.39999997616,111506.536,107258.378,107275.69999992847,107275.103,111523.261,,,
Judgement,html.Screen,1_3_4_1,2022-05-10T13:35:41.349Z,,,,,,,,,,,,,,,,,,,,,,,,,,,,true,1,,1200.2390000000014,,response,,,,,,,,,1,,1,click #choice-1,,,,,S,I,O,,112724.19999992847,112723.5,111506.536,111508.39999997616,111523.261,112727.541,,,
Trial,flow.Sequence,1_3_4,2022-05-10T13:35:41.349Z,,,,,,,,,,,,,,,,,,,,,,,,,,,,,,,5448.396999999997,,completion,,,,,,,,,1,,,,,,,,S,I,O,,112724.29999995232,112723.5,107258.378,107275.69999992847,107275.103,112727.541,,,
Sounds,html.Screen,1_3_5_0,2022-05-10T13:35:45.585Z,,,,,,,,,,,,,,,,,,,,,,,,,,,,,,,4248.157999999996,,timeout,,,,,,,,,2,,,,,,,,I,S,O,,116960.89999997616,116958.974,112710.816,112724.5,112727.541,116975.699,,,
Judgement,html.Screen,1_3_5_1,2022-05-10T13:35:46.687Z,,,,,,,,,,,,,,,,,,,,,,,,,,,,true,2,,1085.8010000000068,,response,,,,,,,,,2,,2,click #choice-2,,,,,I,S,O,,118062.39999997616,118061.5,116958.974,116961.10000002384,116975.699,118062.911,,,
Trial,flow.Sequence,1_3_5,2022-05-10T13:35:46.687Z,,,,,,,,,,,,,,,,,,,,,,,,,,,,,,,5333.959000000003,,completion,,,,,,,,,2,,,,,,,,I,S,O,,118062.5,118061.5,112710.816,112724.39999997616,112727.541,118062.911,,,
Task,flow.Loop,1_3,2022-05-10T13:35:46.692Z,,,,,,,,,,,,,,,,,,,,,,,,,,,,,,,35071.57000000001,,completion,,,0.8333333333333334,,,,,,,,,,,,,,,,,,118067.19999992847,118061.5,82956.48,82971.5,82989.93,118062.911,,,
Trap,html.Screen,1_4,2022-05-10T13:35:46.693Z,,,,,,,,,,,,,,,,,,,,,,,,,,,,,,,NaN,,skipped,,,,,,,,,,,,,,,,,,,,,118068.39999997616,118061.5,,118068.29999995232,,118062.911,,,
Thanks,html.Screen,1_5,2022-05-10T13:35:50.681Z,,,,,,,,,,,,,,,,,,,,,,,,,,,,,,,3992.589000000007,,response,,,,,,,,,,,continue,click button,,,,,,,,,122056.29999995232,122055.5,118046.186,118068.5,118062.911,129235.314,,,
Headphone screening,flow.Sequence,1,2022-05-10T13:35:50.681Z,,,,,,,,,,,,,,,,,,,,,,,,,,,,,,,101383.943,,completion,,,,,,,,,,,,,,,,,,,,,122056.5,122055.5,20537.757,20541.399999976158,20671.557,129235.314,,,
Instructions,html.Page,2_0,2022-05-10T13:36:22.626Z,,,,,,,,,,,,,,,,,,,,,,,,,,,,,,,24765.885999928476,,form submission,,,,,,,,,,,,,,,,,,,,,154001.5,154001.19999992847,129118.239,129206.10000002384,129235.314,154005.567,,,
Holding screen,html.Screen,2_1_0_0,2022-05-10T13:36:32.616Z,,,,,,,,,,,,,,,,,,,,,,,,,,,,,,,10102.050999999978,,timeout,,,,,,,,,,,,,,,,,,,,,163991.89999997616,163990.543,153988.842,154001.60000002384,154005.567,164107.618,,,
screen,html.Screen,2_1_0_1_0,2022-05-10T13:36:33.885Z,,,,,,,,,,,,,,,,,53,,,,,,,,,,,,,,1150.3820000000123,,response,,,,99,,,,,,,Space,keypress(Space),,,,,,,,When -- ----- -- ------ - ------- --- ----------<br>------------- ------ ------ ---- ---- ------- ----- -- ----<br>-------- ------- -- ---------- --- - --- ----- ----- ----<br>---- --- --- ----- --- ---- ---- ------- ----- ---- -------<br>--- --- -- ----- -- --- ---- -- --- ---- -- ------ ------<br>--- ----- -- ----,165260.10000002384,165258,163990.543,163992,164107.618,165261.661,,0,When
screen,html.Screen,2_1_0_1_1,2022-05-10T13:36:34.739Z,,,,,,,,,,,,,,,,,53,,,,,,,,,,,,,,852.0389999284816,,response,,,,99,,,,,,,Space,keypress(Space),,,,,,,,---- it ----- -- ------ - ------- --- ----------<br>------------- ------ ------ ---- ---- ------- ----- -- ----<br>-------- ------- -- ---------- --- - --- ----- ----- ----<br>---- --- --- ----- --- ---- ---- ------- ----- ---- -------<br>--- --- -- ----- -- --- ---- -- --- ---- -- ------ ------<br>--- ----- -- ----,166114.10000002384,166113.69999992847,165244.936,165260.29999995232,165261.661,166114.671,,1,it
screen,html.Screen,2_1_0_1_2,2022-05-10T13:36:35.714Z,,,,,,,,,,,,,,,,,53,,,,,,,,,,,,,,974.728999976156,,response,,,,99,,,,,,,Space,keypress(Space),,,,,,,,---- -- comes -- ------ - ------- --- ----------<br>------------- ------ ------ ---- ---- ------- ----- -- ----<br>-------- ------- -- ---------- --- - --- ----- ----- ----<br>---- --- --- ----- --- ---- ---- ------- ----- ---- -------<br>--- --- -- ----- -- --- ---- -- --- ---- -- ------ ------<br>--- ----- -- ----,167089.79999995232,167089.39999997616,166097.946,166114.29999995232,166114.671,167101.466,,2,comes
screen,html.Screen,2_1_0_1_3,2022-05-10T13:36:36.587Z,,,,,,,,,,,,,,,,,53,,,,,,,,,,,,,,860.2339999284886,,response,,,,99,,,,,,,Space,keypress(Space),,,,,,,,---- -- ----- to ------ - ------- --- ----------<br>------------- ------ ------ ---- ---- ------- ----- -- ----<br>-------- ------- -- ---------- --- - --- ----- ----- ----<br>---- --- --- ----- --- ---- ---- ------- ----- ---- -------<br>--- --- -- ----- -- --- ---- -- --- ---- -- ------ ------<br>--- ----- -- ----,167962.10000002384,167961.69999992847,167084.741,167089.89999997616,167101.466,167971.173,,3,to
screen,html.Screen,2_1_0_1_4,2022-05-10T13:36:37.451Z,,,,,,,,,,,,,,,,,53,,,,,,,,,,,,,,854.5269999284646,,response,,,,99,,,,,,,Space,keypress(Space),,,,,,,,---- -- ----- -- having - ------- --- ----------<br>------------- ------ ------ ---- ---- ------- ----- -- ----<br>-------- ------- -- ---------- --- - --- ----- ----- ----<br>---- --- --- ----- --- ---- ---- ------- ----- ---- -------<br>--- --- -- ----- -- --- ---- -- --- ---- -- ------ ------<br>--- ----- -- ----,168826.29999995232,168825.69999992847,167954.448,167962.29999995232,167971.173,168840.891,,4,having
screen,html.Screen,2_1_0_1_5,2022-05-10T13:36:37.987Z,,,,,,,,,,,,,,,,,53,,,,,,,,,,,,,,521.0089999761549,,response,,,,99,,,,,,,Space,keypress(Space),,,,,,,,---- -- ----- -- ------ a ------- --- ----------<br>------------- ------ ------ ---- ---- ------- ----- -- ----<br>-------- ------- -- ---------- --- - --- ----- ----- ----<br>---- --- --- ----- --- ---- ---- ------- ----- ---- -------<br>--- --- -- ----- -- --- ---- -- --- ---- -- ------ ------<br>--- ----- -- ----,169362.39999997616,169361.89999997616,168824.166,168826.39999997616,168840.891,169376.116,,5,a
screen,html.Screen,2_1_0_1_6,2022-05-10T13:36:38.859Z,,,,,,,,,,,,,,,,,53,,,,,,,,,,,,,,857.6839999523072,,response,,,,99,,,,,,,Space,keypress(Space),,,,,,,,---- -- ----- -- ------ - lasting --- ----------<br>------------- ------ ------ ---- ---- ------- ----- -- ----<br>-------- ------- -- ---------- --- - --- ----- ----- ----<br>---- --- --- ----- --- ---- ---- ------- ----- ---- -------<br>--- --- -- ----- -- --- ---- -- --- ---- -- ------ ------<br>--- ----- -- ----,170234.29999995232,170233.79999995232,169359.391,169362.5,169376.116,170245.821,,6,lasting
screen,html.Screen,2_1_0_1_7,2022-05-10T13:36:40.139Z,,,,,,,,,,,,,,,,,53,,,,,,,,,,,,,,1267.8789999284782,,response,,,,99,,,,,,,Space,keypress(Space),,,,,,,,---- -- ----- -- ------ - ------- and ----------<br>------------- ------ ------ ---- ---- ------- ----- -- ----<br>-------- ------- -- ---------- --- - --- ----- ----- ----<br>---- --- --- ----- --- ---- ---- ------- ----- ---- -------<br>--- --- -- ----- -- --- ---- -- --- ---- -- ------ ------<br>--- ----- -- ----,171514.19999992847,171513.69999992847,170229.096,170234.39999997616,170245.821,171516.919,,7,and
screen,html.Screen,2_1_0_1_8,2022-05-10T13:36:41.387Z,,,,,,,,,,,,,,,,,53,,,,,,,,,,,,,,1244.6810000238474,,response,,,,99,,,,,,,Space,keypress(Space),,,,,,,,---- -- ----- -- ------ - ------- --- fulfilling<br>------------- ------ ------ ---- ---- ------- ----- -- ----<br>-------- ------- -- ---------- --- - --- ----- ----- ----<br>---- --- --- ----- --- ---- ---- ------- ----- ---- -------<br>--- --- -- ----- -- --- ---- -- --- ---- -- ------ ------<br>--- ----- -- ----,172762.10000002384,172761.60000002384,171500.194,171514.39999997616,171516.919,172771.331,,8,fulfilling
screen,html.Screen,2_1_0_1_9,2022-05-10T13:36:42.931Z,,,,,,,,,,,,,,,,,53,,,,,,,,,,,,,,1534.2690000238363,,response,,,,99,,,,,,,Space,keypress(Space),,,,,,,,"---- -- ----- -- ------ - ------- --- ----------<br>relationship, ------ ------ ---- ---- ------- ----- -- ----<br>-------- ------- -- ---------- --- - --- ----- ----- ----<br>---- --- --- ----- --- ---- ---- ------- ----- ---- -------<br>--- --- -- ----- -- --- ---- -- --- ---- -- ------ ------<br>--- ----- -- ----",174306.10000002384,174305.60000002384,172754.606,172762.19999992847,172771.331,174310.036,,9,"relationship,"
screen,html.Screen,2_1_0_1_10,2022-05-10T13:36:43.859Z,,,,,,,,,,,,,,,,,53,,,,,,,,,,,,,,923.6639999284816,,response,,,,99,,,,,,,Space,keypress(Space),,,,,,,,---- -- ----- -- ------ - ------- --- ----------<br>------------- common ------ ---- ---- ------- ----- -- ----<br>-------- ------- -- ---------- --- - --- ----- ----- ----<br>---- --- --- ----- --- ---- ---- ------- ----- ---- -------<br>--- --- -- ----- -- --- ---- -- --- ---- -- ------ ------<br>--- ----- -- ----,175234.10000002384,175233.69999992847,174293.311,174306.19999992847,174310.036,175246.655,,10,common
screen,html.Screen,2_1_0_1_11,2022-05-10T13:36:44.787Z,,,,,,,,,,,,,,,,,53,,,,,,,,,,,,,,915.445000023843,,response,,,,99,,,,,,,Space,keypress(Space),,,,,,,,---- -- ----- -- ------ - ------- --- ----------<br>------------- ------ wisdom ---- ---- ------- ----- -- ----<br>-------- ------- -- ---------- --- - --- ----- ----- ----<br>---- --- --- ----- --- ---- ---- ------- ----- ---- -------<br>--- --- -- ----- -- --- ---- -- --- ---- -- ------ ------<br>--- ----- -- ----,176162.69999992847,176162.10000002384,175229.93,175234.29999995232,175246.655,176166.552,,11,wisdom
screen,html.Screen,2_1_0_1_12,2022-05-10T13:36:45.835Z,,,,,,,,,,,,,,,,,53,,,,,,,,,,,,,,1042.948000000004,,response,,,,99,,,,,,,Space,keypress(Space),,,,,,,,---- -- ----- -- ------ - ------- --- ----------<br>------------- ------ ------ says ---- ------- ----- -- ----<br>-------- ------- -- ---------- --- - --- ----- ----- ----<br>---- --- --- ----- --- ---- ---- ------- ----- ---- -------<br>--- --- -- ----- -- --- ---- -- --- ---- -- ------ ------<br>--- ----- -- ----,177210.10000002384,177209.5,176149.827,176162.69999992847,176166.552,177220.249,,12,says
screen,html.Screen,2_1_0_1_13,2022-05-10T13:36:46.699Z,,,,,,,,,,,,,,,,,53,,,,,,,,,,,,,,853.5509999523056,,response,,,,99,,,,,,,Space,keypress(Space),,,,,,,,---- -- ----- -- ------ - ------- --- ----------<br>------------- ------ ------ ---- that ------- ----- -- ----<br>-------- ------- -- ---------- --- - --- ----- ----- ----<br>---- --- --- ----- --- ---- ---- ------- ----- ---- -------<br>--- --- -- ----- -- --- ---- -- --- ---- -- ------ ------<br>--- ----- -- ----,178074.29999995232,178073.79999995232,177203.524,177210.10000002384,177220.249,178089.961,,13,that
screen,html.Screen,2_1_0_1_14,2022-05-10T13:36:47.691Z,,,,,,,,,,,,,,,,,53,,,,,,,,,,,,,,975.6390000238316,,response,,,,99,,,,,,,Space,keypress(Space),,,,,,,,---- -- ----- -- ------ - ------- --- ----------<br>------------- ------ ------ ---- ---- feeling ----- -- ----<br>-------- ------- -- ---------- --- - --- ----- ----- ----<br>---- --- --- ----- --- ---- ---- ------- ----- ---- -------<br>--- --- -- ----- -- --- ---- -- --- ---- -- ------ ------<br>--- ----- -- ----,179066.10000002384,179065.60000002384,178073.236,178074.79999995232,178089.961,179076.768,,14,feeling
screen,html.Screen,2_1_0_1_15,2022-05-10T13:36:48.714Z,,,,,,,,,,,,,,,,,53,,,,,,,,,,,,,,1012.7319999999891,,response,,,,99,,,,,,,Space,keypress(Space),,,,,,,,---- -- ----- -- ------ - ------- --- ----------<br>------------- ------ ------ ---- ---- ------- close -- ----<br>-------- ------- -- ---------- --- - --- ----- ----- ----<br>---- --- --- ----- --- ---- ---- ------- ----- ---- -------<br>--- --- -- ----- -- --- ---- -- --- ---- -- ------ ------<br>--- ----- -- ----,180090,180089.5,179060.043,179066.10000002384,179076.768,180097.015,,15,close
screen,html.Screen,2_1_0_1_16,2022-05-10T13:36:49.611Z,,,,,,,,,,,,,,,,,53,,,,,,,,,,,,,,888.7849999523023,,response,,,,99,,,,,,,Space,keypress(Space),,,,,,,,---- -- ----- -- ------ - ------- --- ----------<br>------------- ------ ------ ---- ---- ------- ----- to ----<br>-------- ------- -- ---------- --- - --- ----- ----- ----<br>---- --- --- ----- --- ---- ---- ------- ----- ---- -------<br>--- --- -- ----- -- --- ---- -- --- ---- -- ------ ------<br>--- ----- -- ----,180986.19999992847,180985.79999995232,180080.29,180090.10000002384,180097.015,181000.177,,16,to
screen,html.Screen,2_1_0_1_17,2022-05-10T13:36:50.507Z,,,,,,,,,,,,,,,,,53,,,,,,,,,,,,,,881.4230000238458,,response,,,,99,,,,,,,Space,keypress(Space),,,,,,,,---- -- ----- -- ------ - ------- --- ----------<br>------------- ------ ------ ---- ---- ------- ----- -- your<br>-------- ------- -- ---------- --- - --- ----- ----- ----<br>---- --- --- ----- --- ---- ---- ------- ----- ---- -------<br>--- --- -- ----- -- --- ---- -- --- ---- -- ------ ------<br>--- ----- -- ----,181882.19999992847,181881.60000002384,180983.452,180986.29999995232,181000.177,181886.617,,17,your
screen,html.Screen,2_1_0_1_18,2022-05-10T13:36:51.291Z,,,,,,,,,,,,,,,,,53,,,,,,,,,,,,,,778.9830000238435,,response,,,,99,,,,,,,Space,keypress(Space),,,,,,,,---- -- ----- -- ------ - ------- --- ----------<br>------------- ------ ------ ---- ---- ------- ----- -- ----<br>romantic ------- -- ---------- --- - --- ----- ----- ----<br>---- --- --- ----- --- ---- ---- ------- ----- ---- -------<br>--- --- -- ----- -- --- ---- -- --- ---- -- ------ ------<br>--- ----- -- ----,182666.10000002384,182665.60000002384,181869.892,181882.29999995232,181886.617,182672.702,,18,romantic
screen,html.Screen,2_1_0_1_19,2022-05-10T13:36:52.227Z,,,,,,,,,,,,,,,,,53,,,,,,,,,,,,,,929.1979999761679,,response,,,,99,,,,,,,Space,keypress(Space),,,,,,,,---- -- ----- -- ------ - ------- --- ----------<br>------------- ------ ------ ---- ---- ------- ----- -- ----<br>-------- partner -- ---------- --- - --- ----- ----- ----<br>---- --- --- ----- --- ---- ---- ------- ----- ---- -------<br>--- --- -- ----- -- --- ---- -- --- ---- -- ------ ------<br>--- ----- -- ----,183602.5,183601.89999997616,182655.977,182666.29999995232,182672.702,183609.319,,19,partner
screen,html.Screen,2_1_0_1_20,2022-05-10T13:36:53.115Z,,,,,,,,,,,,,,,,,53,,,,,,,,,,,,,,880.3809999284858,,response,,,,99,,,,,,,Space,keypress(Space),,,,,,,,---- -- ----- -- ------ - ------- --- ----------<br>------------- ------ ------ ---- ---- ------- ----- -- ----<br>-------- ------- is ---------- --- - --- ----- ----- ----<br>---- --- --- ----- --- ---- ---- ------- ----- ---- -------<br>--- --- -- ----- -- --- ---- -- --- ---- -- ------ ------<br>--- ----- -- ----,184490.29999995232,184489.69999992847,183592.594,183602.60000002384,183609.319,184495.764,,20,is
screen,html.Screen,2_1_0_1_21,2022-05-10T13:36:54.651Z,,,,,,,,,,,,,,,,,53,,,,,,,,,,,,,,1529.9359999284789,,response,,,,99,,,,,,,Space,keypress(Space),,,,,,,,---- -- ----- -- ------ - ------- --- ----------<br>------------- ------ ------ ---- ---- ------- ----- -- ----<br>-------- ------- -- paramount. --- - --- ----- ----- ----<br>---- --- --- ----- --- ---- ---- ------- ----- ---- -------<br>--- --- -- ----- -- --- ---- -- --- ---- -- ------ ------<br>--- ----- -- ----,186026.19999992847,186025.69999992847,184479.039,184490.39999997616,184495.764,186034.465,,21,paramount.
screen,html.Screen,2_1_0_1_22,2022-05-10T13:36:55.419Z,,,,,,,,,,,,,,,,,53,,,,,,,,,,,,,,759.6350000238454,,response,,,,99,,,,,,,Space,keypress(Space),,,,,,,,---- -- ----- -- ------ - ------- --- ----------<br>------------- ------ ------ ---- ---- ------- ----- -- ----<br>-------- ------- -- ---------- But - --- ----- ----- ----<br>---- --- --- ----- --- ---- ---- ------- ----- ---- -------<br>--- --- -- ----- -- --- ---- -- --- ---- -- ------ ------<br>--- ----- -- ----,186794.60000002384,186794.10000002384,186017.74,186026.19999992847,186034.465,186803.856,,22,But
screen,html.Screen,2_1_0_1_23,2022-05-10T13:36:56.131Z,,,,,,,,,,,,,,,,,53,,,,,,,,,,,,,,701.9439999523165,,response,,,,99,,,,,,,Space,keypress(Space),,,,,,,,---- -- ----- -- ------ - ------- --- ----------<br>------------- ------ ------ ---- ---- ------- ----- -- ----<br>-------- ------- -- ---------- --- a --- ----- ----- ----<br>---- --- --- ----- --- ---- ---- ------- ----- ---- -------<br>--- --- -- ----- -- --- ---- -- --- ---- -- ------ ------<br>--- ----- -- ----,187506.19999992847,187505.79999995232,186787.131,186794.79999995232,186803.856,187523.044,,23,a
screen,html.Screen,2_1_0_1_24,2022-05-10T13:36:56.915Z,,,,,,,,,,,,,,,,,53,,,,,,,,,,,,,,766.5560000238474,,response,,,,99,,,,,,,Space,keypress(Space),,,,,,,,---- -- ----- -- ------ - ------- --- ----------<br>------------- ------ ------ ---- ---- ------- ----- -- ----<br>-------- ------- -- ---------- --- - new ----- ----- ----<br>---- --- --- ----- --- ---- ---- ------- ----- ---- -------<br>--- --- -- ----- -- --- ---- -- --- ---- -- ------ ------<br>--- ----- -- ----,188290.10000002384,188289.60000002384,187506.319,187506.29999995232,187523.044,188292.406,,24,new
screen,html.Screen,2_1_0_1_25,2022-05-10T13:36:58.194Z,,,,,,,,,,,,,,,,,53,,,,,,,,,,,,,,1277.0940000000119,,response,,,,99,,,,,,,Space,keypress(Space),,,,,,,,---- -- ----- -- ------ - ------- --- ----------<br>------------- ------ ------ ---- ---- ------- ----- -- ----<br>-------- ------- -- ---------- --- - --- study ----- ----<br>---- --- --- ----- --- ---- ---- ------- ----- ---- -------<br>--- --- -- ----- -- --- ---- -- --- ---- -- ------ ------<br>--- ----- -- ----,189570,189569.5,188275.681,188290.19999992847,188292.406,189580.226,,25,study
screen,html.Screen,2_1_0_1_26,2022-05-10T13:36:59.410Z,,,,,,,,,,,,,,,,,53,,,,,,,,,,,,,,1205.274000000005,,response,,,,99,,,,,,,Space,keypress(Space),,,,,,,,---- -- ----- -- ------ - ------- --- ----------<br>------------- ------ ------ ---- ---- ------- ----- -- ----<br>-------- ------- -- ---------- --- - --- ----- finds ----<br>---- --- --- ----- --- ---- ---- ------- ----- ---- -------<br>--- --- -- ----- -- --- ---- -- --- ---- -- ------ ------<br>--- ----- -- ----,190785.89999997616,190785.5,189563.501,189570.10000002384,189580.226,190801.198,,26,finds
screen,html.Screen,2_1_0_1_27,2022-05-10T13:37:00.107Z,,,,,,,,,,,,,,,,,53,,,,,,,,,,,,,,680.301999999996,,response,,,,99,,,,,,,Space,keypress(Space),,,,,,,,---- -- ----- -- ------ - ------- --- ----------<br>------------- ------ ------ ---- ---- ------- ----- -- ----<br>-------- ------- -- ---------- --- - --- ----- ----- that<br>---- --- --- ----- --- ---- ---- ------- ----- ---- -------<br>--- --- -- ----- -- --- ---- -- --- ---- -- ------ ------<br>--- ----- -- ----,191482,191481.5,190784.473,190786,190801.198,191486.944,,27,that
screen,html.Screen,2_1_0_1_28,2022-05-10T13:37:00.955Z,,,,,,,,,,,,,,,,,53,,,,,,,,,,,,,,842.6560000238533,,response,,,,99,,,,,,,Space,keypress(Space),,,,,,,,---- -- ----- -- ------ - ------- --- ----------<br>------------- ------ ------ ---- ---- ------- ----- -- ----<br>-------- ------- -- ---------- --- - --- ----- ----- ----<br>it's --- --- ----- --- ---- ---- ------- ----- ---- -------<br>--- --- -- ----- -- --- ---- -- --- ---- -- ------ ------<br>--- ----- -- ----,192330.10000002384,192329.60000002384,191470.219,191482.10000002384,191486.944,192339.916,,28,it's
screen,html.Screen,2_1_0_1_29,2022-05-10T13:37:01.683Z,,,,,,,,,,,,,,,,,53,,,,,,,,,,,,,,717.5840000000026,,response,,,,99,,,,,,,Space,keypress(Space),,,,,,,,---- -- ----- -- ------ - ------- --- ----------<br>------------- ------ ------ ---- ---- ------- ----- -- ----<br>-------- ------- -- ---------- --- - --- ----- ----- ----<br>---- not --- ----- --- ---- ---- ------- ----- ---- -------<br>--- --- -- ----- -- --- ---- -- --- ---- -- ------ ------<br>--- ----- -- ----,193058,193057.5,192323.191,192330.19999992847,192339.916,193059.113,,29,not
screen,html.Screen,2_1_0_1_30,2022-05-10T13:37:02.418Z,,,,,,,,,,,,,,,,,53,,,,,,,,,,,,,,734.286999976146,,response,,,,99,,,,,,,Space,keypress(Space),,,,,,,,---- -- ----- -- ------ - ------- --- ----------<br>------------- ------ ------ ---- ---- ------- ----- -- ----<br>-------- ------- -- ---------- --- - --- ----- ----- ----<br>---- --- how ----- --- ---- ---- ------- ----- ---- -------<br>--- --- -- ----- -- --- ---- -- --- ---- -- ------ ------<br>--- ----- -- ----,193794,193793.39999997616,193042.388,193058.19999992847,193059.113,193795.052,,30,how
screen,html.Screen,2_1_0_1_31,2022-05-10T13:37:03.131Z,,,,,,,,,,,,,,,,,53,,,,,,,,,,,,,,710.5480000238458,,response,,,,99,,,,,,,Space,keypress(Space),,,,,,,,---- -- ----- -- ------ - ------- --- ----------<br>------------- ------ ------ ---- ---- ------- ----- -- ----<br>-------- ------- -- ---------- --- - --- ----- ----- ----<br>---- --- --- close --- ---- ---- ------- ----- ---- -------<br>--- --- -- ----- -- --- ---- -- --- ---- -- ------ ------<br>--- ----- -- ----,194506.19999992847,194505.60000002384,193778.327,193794.10000002384,193795.052,194514.198,,31,close
screen,html.Screen,2_1_0_1_32,2022-05-10T13:37:04.035Z,,,,,,,,,,,,,,,,,53,,,,,,,,,,,,,,895.6019999523123,,response,,,,99,,,,,,,Space,keypress(Space),,,,,,,,---- -- ----- -- ------ - ------- --- ----------<br>------------- ------ ------ ---- ---- ------- ----- -- ----<br>-------- ------- -- ---------- --- - --- ----- ----- ----<br>---- --- --- ----- you ---- ---- ------- ----- ---- -------<br>--- --- -- ----- -- --- ---- -- --- ---- -- ------ ------<br>--- ----- -- ----,195410.29999995232,195409.79999995232,194497.473,194506.29999995232,194514.198,195417.376,,32,you
screen,html.Screen,2_1_0_1_33,2022-05-10T13:37:04.619Z,,,,,,,,,,,,,,,,,53,,,,,,,,,,,,,,576.2240000238526,,response,,,,99,,,,,,,Space,keypress(Space),,,,,,,,---- -- ----- -- ------ - ------- --- ----------<br>------------- ------ ------ ---- ---- ------- ----- -- ----<br>-------- ------- -- ---------- --- - --- ----- ----- ----<br>---- --- --- ----- --- feel ---- ------- ----- ---- -------<br>--- --- -- ----- -- --- ---- -- --- ---- -- ------ ------<br>--- ----- -- ----,195994.10000002384,195993.60000002384,195400.651,195410.39999997616,195417.376,196002.76,,33,feel
screen,html.Screen,2_1_0_1_34,2022-05-10T13:37:05.163Z,,,,,,,,,,,,,,,,,53,,,,,,,,,,,,,,534.7399999999907,,response,,,,99,,,,,,,Space,keypress(Space),,,,,,,,---- -- ----- -- ------ - ------- --- ----------<br>------------- ------ ------ ---- ---- ------- ----- -- ----<br>-------- ------- -- ---------- --- - --- ----- ----- ----<br>---- --- --- ----- --- ---- that ------- ----- ---- -------<br>--- --- -- ----- -- --- ---- -- --- ---- -- ------ ------<br>--- ----- -- ----,196538,196537.5,195986.035,195994.19999992847,196002.76,196554.703,,34,that
screen,html.Screen,2_1_0_1_35,2022-05-10T13:37:06.515Z,,,,,,,,,,,,,,,,,53,,,,,,,,,,,,,,1335.4969999284658,,response,,,,99,,,,,,,Space,keypress(Space),,,,,,,,---- -- ----- -- ------ - ------- --- ----------<br>------------- ------ ------ ---- ---- ------- ----- -- ----<br>-------- ------- -- ---------- --- - --- ----- ----- ----<br>---- --- --- ----- --- ---- ---- matters ----- ---- -------<br>--- --- -- ----- -- --- ---- -- --- ---- -- ------ ------<br>--- ----- -- ----,197890.60000002384,197890.19999992847,196537.978,196538.19999992847,196554.703,197892.713,,35,matters
screen,html.Screen,2_1_0_1_36,2022-05-10T13:37:07.843Z,,,,,,,,,,,,,,,,,53,,,,,,,,,,,,,,1324.9869999284856,,response,,,,99,,,,,,,Space,keypress(Space),,,,,,,,"---- -- ----- -- ------ - ------- --- ----------<br>------------- ------ ------ ---- ---- ------- ----- -- ----<br>-------- ------- -- ---------- --- - --- ----- ----- ----<br>---- --- --- ----- --- ---- ---- ------- most, ---- -------<br>--- --- -- ----- -- --- ---- -- --- ---- -- ------ ------<br>--- ----- -- ----",199218.19999992847,199217.69999992847,197875.988,197890.69999992847,197892.713,199230.716,,36,"most,"
screen,html.Screen,2_1_0_1_37,2022-05-10T13:37:08.483Z,,,,,,,,,,,,,,,,,53,,,,,,,,,,,,,,626.8840000238561,,response,,,,99,,,,,,,Space,keypress(Space),,,,,,,,---- -- ----- -- ------ - ------- --- ----------<br>------------- ------ ------ ---- ---- ------- ----- -- ----<br>-------- ------- -- ---------- --- - --- ----- ----- ----<br>---- --- --- ----- --- ---- ---- ------- ----- it's -------<br>--- --- -- ----- -- --- ---- -- --- ---- -- ------ ------<br>--- ----- -- ----,199858.10000002384,199857.60000002384,199213.991,199218.29999995232,199230.716,199866.294,,37,it's
screen,html.Screen,2_1_0_1_38,2022-05-10T13:37:08.979Z,,,,,,,,,,,,,,,,,53,,,,,,,,,,,,,,487.30600002384745,,response,,,,99,,,,,,,Space,keypress(Space),,,,,,,,---- -- ----- -- ------ - ------- --- ----------<br>------------- ------ ------ ---- ---- ------- ----- -- ----<br>-------- ------- -- ---------- --- - --- ----- ----- ----<br>---- --- --- ----- --- ---- ---- ------- ----- ---- whether<br>--- --- -- ----- -- --- ---- -- --- ---- -- ------ ------<br>--- ----- -- ----,200354.10000002384,200353.60000002384,199849.569,199858.19999992847,199866.294,200368.076,,38,whether
screen,html.Screen,2_1_0_1_39,2022-05-10T13:37:09.947Z,,,,,,,,,,,,,,,,,53,,,,,,,,,,,,,,953.6239999284735,,response,,,,99,,,,,,,Space,keypress(Space),,,,,,,,---- -- ----- -- ------ - ------- --- ----------<br>------------- ------ ------ ---- ---- ------- ----- -- ----<br>-------- ------- -- ---------- --- - --- ----- ----- ----<br>---- --- --- ----- --- ---- ---- ------- ----- ---- -------<br>you --- -- ----- -- --- ---- -- --- ---- -- ------ ------<br>--- ----- -- ----,201322.19999992847,201321.69999992847,200351.351,200354.19999992847,200368.076,201338.132,,39,you
screen,html.Screen,2_1_0_1_40,2022-05-10T13:37:10.715Z,,,,,,,,,,,,,,,,,53,,,,,,,,,,,,,,751.3679999999877,,response,,,,99,,,,,,,Space,keypress(Space),,,,,,,,---- -- ----- -- ------ - ------- --- ----------<br>------------- ------ ------ ---- ---- ------- ----- -- ----<br>-------- ------- -- ---------- --- - --- ----- ----- ----<br>---- --- --- ----- --- ---- ---- ------- ----- ---- -------<br>--- are -- ----- -- --- ---- -- --- ---- -- ------ ------<br>--- ----- -- ----,202090.10000002384,202089.5,201321.407,201322.29999995232,201338.132,202090.774,,40,are
screen,html.Screen,2_1_0_1_41,2022-05-10T13:37:11.498Z,,,,,,,,,,,,,,,,,53,,,,,,,,,,,,,,782.7259999999951,,response,,,,99,,,,,,,Space,keypress(Space),,,,,,,,---- -- ----- -- ------ - ------- --- ----------<br>------------- ------ ------ ---- ---- ------- ----- -- ----<br>-------- ------- -- ---------- --- - --- ----- ----- ----<br>---- --- --- ----- --- ---- ---- ------- ----- ---- -------<br>--- --- as ----- -- --- ---- -- --- ---- -- ------ ------<br>--- ----- -- ----,202874,202873.5,202074.049,202090.10000002384,202090.774,202876.872,,41,as
screen,html.Screen,2_1_0_1_42,2022-05-10T13:37:12.419Z,,,,,,,,,,,,,,,,,53,,,,,,,,,,,,,,916.8279999284714,,response,,,,99,,,,,,,Space,keypress(Space),,,,,,,,---- -- ----- -- ------ - ------- --- ----------<br>------------- ------ ------ ---- ---- ------- ----- -- ----<br>-------- ------- -- ---------- --- - --- ----- ----- ----<br>---- --- --- ----- --- ---- ---- ------- ----- ---- -------<br>--- --- -- close -- --- ---- -- --- ---- -- ------ ------<br>--- ----- -- ----,203794.19999992847,203793.69999992847,202860.147,202874.10000002384,202876.872,203796.751,,42,close
screen,html.Screen,2_1_0_1_43,2022-05-10T13:37:13.043Z,,,,,,,,,,,,,,,,,53,,,,,,,,,,,,,,620.9489999284851,,response,,,,99,,,,,,,Space,keypress(Space),,,,,,,,---- -- ----- -- ------ - ------- --- ----------<br>------------- ------ ------ ---- ---- ------- ----- -- ----<br>-------- ------- -- ---------- --- - --- ----- ----- ----<br>---- --- --- ----- --- ---- ---- ------- ----- ---- -------<br>--- --- -- ----- as --- ---- -- --- ---- -- ------ ------<br>--- ----- -- ----,204418.19999992847,204417.69999992847,203780.026,203794.19999992847,203796.751,204432.318,,43,as
screen,html.Screen,2_1_0_1_44,2022-05-10T13:37:14.066Z,,,,,,,,,,,,,,,,,53,,,,,,,,,,,,,,1009.0819999761588,,response,,,,99,,,,,,,Space,keypress(Space),,,,,,,,---- -- ----- -- ------ - ------- --- ----------<br>------------- ------ ------ ---- ---- ------- ----- -- ----<br>-------- ------- -- ---------- --- - --- ----- ----- ----<br>---- --- --- ----- --- ---- ---- ------- ----- ---- -------<br>--- --- -- ----- -- you ---- -- --- ---- -- ------ ------<br>--- ----- -- ----,205441.89999997616,205441.39999997616,204415.593,204418.29999995232,204432.318,205452.551,,44,you
screen,html.Screen,2_1_0_1_45,2022-05-10T13:37:15.059Z,,,,,,,,,,,,,,,,,53,,,,,,,,,,,,,,981.0490000238351,,response,,,,99,,,,,,,Space,keypress(Space),,,,,,,,---- -- ----- -- ------ - ------- --- ----------<br>------------- ------ ------ ---- ---- ------- ----- -- ----<br>-------- ------- -- ---------- --- - --- ----- ----- ----<br>---- --- --- ----- --- ---- ---- ------- ----- ---- -------<br>--- --- -- ----- -- --- want -- --- ---- -- ------ ------<br>--- ----- -- ----,206434.10000002384,206433.60000002384,205435.826,205442,205452.551,206439.339,,45,want
screen,html.Screen,2_1_0_1_46,2022-05-10T13:37:16.122Z,,,,,,,,,,,,,,,,,53,,,,,,,,,,,,,,1058.1609999999928,,response,,,,99,,,,,,,Space,keypress(Space),,,,,,,,---- -- ----- -- ------ - ------- --- ----------<br>------------- ------ ------ ---- ---- ------- ----- -- ----<br>-------- ------- -- ---------- --- - --- ----- ----- ----<br>---- --- --- ----- --- ---- ---- ------- ----- ---- -------<br>--- --- -- ----- -- --- ---- to --- ---- -- ------ ------<br>--- ----- -- ----,207497.89999997616,207497.5,206422.614,206434.19999992847,206439.339,207509.752,,46,to
screen,html.Screen,2_1_0_1_47,2022-05-10T13:37:17.403Z,,,,,,,,,,,,,,,,,53,,,,,,,,,,,,,,1268.3480000238342,,response,,,,99,,,,,,,Space,keypress(Space),,,,,,,,"---- -- ----- -- ------ - ------- --- ----------<br>------------- ------ ------ ---- ---- ------- ----- -- ----<br>-------- ------- -- ---------- --- - --- ----- ----- ----<br>---- --- --- ----- --- ---- ---- ------- ----- ---- -------<br>--- --- -- ----- -- --- ---- -- be, ---- -- ------ ------<br>--- ----- -- ----",208778.79999995232,208778.10000002384,207493.027,207498,207509.752,208780.88,,47,"be,"
screen,html.Screen,2_1_0_1_48,2022-05-10T13:37:18.266Z,,,,,,,,,,,,,,,,,53,,,,,,,,,,,,,,860.5199999761535,,response,,,,99,,,,,,,Space,keypress(Space),,,,,,,,---- -- ----- -- ------ - ------- --- ----------<br>------------- ------ ------ ---- ---- ------- ----- -- ----<br>-------- ------- -- ---------- --- - --- ----- ----- ----<br>---- --- --- ----- --- ---- ---- ------- ----- ---- -------<br>--- --- -- ----- -- --- ---- -- --- even -- ------ ------<br>--- ----- -- ----,209642,209641.39999997616,208764.155,208778.89999997616,208780.88,209650.597,,48,even
screen,html.Screen,2_1_0_1_49,2022-05-10T13:37:18.898Z,,,,,,,,,,,,,,,,,53,,,,,,,,,,,,,,622.8029999761493,,response,,,,99,,,,,,,Space,keypress(Space),,,,,,,,---- -- ----- -- ------ - ------- --- ----------<br>------------- ------ ------ ---- ---- ------- ----- -- ----<br>-------- ------- -- ---------- --- - --- ----- ----- ----<br>---- --- --- ----- --- ---- ---- ------- ----- ---- -------<br>--- --- -- ----- -- --- ---- -- --- ---- if ------ ------<br>--- ----- -- ----,210273.89999997616,210273.39999997616,209633.872,209642.19999992847,209650.597,210286.142,,49,if
screen,html.Screen,2_1_0_1_50,2022-05-10T13:37:19.739Z,,,,,,,,,,,,,,,,,53,,,,,,,,,,,,,,827.4580000238493,,response,,,,99,,,,,,,Space,keypress(Space),,,,,,,,---- -- ----- -- ------ - ------- --- ----------<br>------------- ------ ------ ---- ---- ------- ----- -- ----<br>-------- ------- -- ---------- --- - --- ----- ----- ----<br>---- --- --- ----- --- ---- ---- ------- ----- ---- -------<br>--- --- -- ----- -- --- ---- -- --- ---- -- that's ------<br>--- ----- -- ----,211114.10000002384,211113.60000002384,210269.417,210274.60000002384,210286.142,211122.432,,50,that's
screen,html.Screen,2_1_0_1_51,2022-05-10T13:37:20.754Z,,,,,,,,,,,,,,,,,53,,,,,,,,,,,,,,1006.9679999761574,,response,,,,99,,,,,,,Space,keypress(Space),,,,,,,,---- -- ----- -- ------ - ------- --- ----------<br>------------- ------ ------ ---- ---- ------- ----- -- ----<br>-------- ------- -- ---------- --- - --- ----- ----- ----<br>---- --- --- ----- --- ---- ---- ------- ----- ---- -------<br>--- --- -- ----- -- --- ---- -- --- ---- -- ------ really<br>--- ----- -- ----,212129.79999995232,212129.39999997616,211105.707,211114.19999992847,211122.432,212142.644,,51,really
screen,html.Screen,2_1_0_1_52,2022-05-10T13:37:21.530Z,,,,,,,,,,,,,,,,,53,,,,,,,,,,,,,,762.8559999999998,,response,,,,99,,,,,,,Space,keypress(Space),,,,,,,,---- -- ----- -- ------ - ------- --- ----------<br>------------- ------ ------ ---- ---- ------- ----- -- ----<br>-------- ------- -- ---------- --- - --- ----- ----- ----<br>---- --- --- ----- --- ---- ---- ------- ----- ---- -------<br>--- --- -- ----- -- --- ---- -- --- ---- -- ------ ------<br>not ----- -- ----,212906.10000002384,212905.5,212125.919,212130,212142.644,212912.04,,52,not
screen,html.Screen,2_1_0_1_53,2022-05-10T13:37:22.842Z,,,,,,,,,,,,,,,,,53,,,,,,,,,,,,,,1305.4599999999919,,response,,,,99,,,,,,,Space,keypress(Space),,,,,,,,---- -- ----- -- ------ - ------- --- ----------<br>------------- ------ ------ ---- ---- ------- ----- -- ----<br>-------- ------- -- ---------- --- - --- ----- ----- ----<br>---- --- --- ----- --- ---- ---- ------- ----- ---- -------<br>--- --- -- ----- -- --- ---- -- --- ---- -- ------ ------<br>--- close -- ----,214218,214217.5,212895.315,212906.29999995232,212912.04,214233.318,,53,close
screen,html.Screen,2_1_0_1_54,2022-05-10T13:37:23.475Z,,,,,,,,,,,,,,,,,53,,,,,,,,,,,,,,616.3819999284751,,response,,,,99,,,,,,,Space,keypress(Space),,,,,,,,---- -- ----- -- ------ - ------- --- ----------<br>------------- ------ ------ ---- ---- ------- ----- -- ----<br>-------- ------- -- ---------- --- - --- ----- ----- ----<br>---- --- --- ----- --- ---- ---- ------- ----- ---- -------<br>--- --- -- ----- -- --- ---- -- --- ---- -- ------ ------<br>--- ----- at ----,214850.29999995232,214849.69999992847,214216.593,214218,214233.318,214852.189,,54,at
screen,html.Screen,2_1_0_1_55,2022-05-10T13:37:26.019Z,,,,,,,,,,,,,,,,,53,,,,,,,,,,,,,,2541.5109999284614,,response,,,,99,,,,,,,Space,keypress(Space),,,,,,,,---- -- ----- -- ------ - ------- --- ----------<br>------------- ------ ------ ---- ---- ------- ----- -- ----<br>-------- ------- -- ---------- --- - --- ----- ----- ----<br>---- --- --- ----- --- ---- ---- ------- ----- ---- -------<br>--- --- -- ----- -- --- ---- -- --- ---- -- ------ ------<br>--- ----- -- all.,217394.39999997616,217393.69999992847,214835.464,214850.39999997616,214852.189,217411.093,,55,all.
Item 99,flow.Loop,2_1_0_1,2022-05-10T13:37:26.019Z,,,,,,,,,,,,,,,,,,,,,,,,,,,,,,,53286.08199992849,,completion,,,,,B,,,,,,,,,,,silence,,,,,217394.5,217393.69999992847,163990.543,163992,164107.618,217411.093,,,
Question 1,html.Screen,2_1_0_2,2022-05-10T13:37:31.050Z,,,,,,,,,,,,,,,,,,,,,,,,,,,,true,FALSE,,5014.007000023848,,response,,,,99,B,,,,,,FALSE,click #choice-2,,,,silence,,,,,222425.89999997616,222425.10000002384,217394.368,217394.69999992847,217411.093,222428.724,,,
Question 2,html.Screen,2_1_0_3,2022-05-10T13:37:38.387Z,,,,,,,,,,,,,,,,,,,,,,,,,,,,true,TRUE,,7333.475999928487,,response,,,,99,B,,,,,,TRUE,click #choice-1,,,,silence,,,,,229762.89999997616,229762.19999992847,222411.999,222426,222428.724,229771.128,,,
Item 99,flow.Sequence,2_1_0,2022-05-10T13:37:38.387Z,,,,,,,,,,,,,,,,,,,,,,,,,,,,,,,75756.63299992846,,completion,,,,,,,,,,,,,,,,,,,,,229763.10000002384,229762.19999992847,153988.842,154001.60000002384,154005.567,229771.128,,,
Holding screen,html.Screen,2_1_1_0,2022-05-10T13:37:48.382Z,,,,,,,,,,,,,,,,,,,,,,,,,,,,,,,10001.712999999989,,timeout,,,,,,,,,,,,,,,,,,,,,239757.60000002384,239756.116,229754.403,229763.19999992847,229771.128,239772.841,,,
screen,html.Screen,2_1_1_1_0,2022-05-10T13:37:49.075Z,,,,,,,,,,,,,,,,,54,,,,,,,,,,,,,,677.0589999761723,,response,,,,100,,,,,,,Space,keypress(Space),,,,,,,,At --- ---- --- ------ ----- ------- ---- -- --- ------- --<br>------- ---------- ------ -- ----- -- ----- -- ---- ------<br>--- ----- --- --- ------ -------- ----- --- ------ ----- --<br>----- ----- ---------- --- --- ------ ------ ---- -- ------<br>------- --- ------ ----- --- ---- ------- -- ---- --- --<br>------- ------,240450.69999992847,240449.89999997616,239756.116,239757.60000002384,239772.841,240458.591,,0,At
screen,html.Screen,2_1_1_1_1,2022-05-10T13:37:49.578Z,,,,,,,,,,,,,,,,,54,,,,,,,,,,,,,,494.9090000000142,,response,,,,100,,,,,,,Space,keypress(Space),,,,,,,,-- the ---- --- ------ ----- ------- ---- -- --- ------- --<br>------- ---------- ------ -- ----- -- ----- -- ---- ------<br>--- ----- --- --- ------ -------- ----- --- ------ ----- --<br>----- ----- ---------- --- --- ------ ------ ---- -- ------<br>------- --- ------ ----- --- ---- ------- -- ---- --- --<br>------- ------,240954,240953.5,240441.866,240450.79999995232,240458.591,240960.352,,1,the
screen,html.Screen,2_1_1_1_2,2022-05-10T13:37:50.338Z,,,,,,,,,,,,,,,,,54,,,,,,,,,,,,,,753.0479999761446,,response,,,,100,,,,,,,Space,keypress(Space),,,,,,,,-- --- time --- ------ ----- ------- ---- -- --- ------- --<br>------- ---------- ------ -- ----- -- ----- -- ---- ------<br>--- ----- --- --- ------ -------- ----- --- ------ ----- --<br>----- ----- ---------- --- --- ------ ------ ---- -- ------<br>------- --- ------ ----- --- ---- ------- -- ---- --- --<br>------- ------,241713.79999995232,241713.39999997616,240943.627,240954.19999992847,240960.352,241729.698,,2,time
screen,html.Screen,2_1_1_1_3,2022-05-10T13:37:51.146Z,,,,,,,,,,,,,,,,,54,,,,,,,,,,,,,,791.6019999523123,,response,,,,100,,,,,,,Space,keypress(Space),,,,,,,,-- --- ---- the ------ ----- ------- ---- -- --- ------- --<br>------- ---------- ------ -- ----- -- ----- -- ---- ------<br>--- ----- --- --- ------ -------- ----- --- ------ ----- --<br>----- ----- ---------- --- --- ------ ------ ---- -- ------<br>------- --- ------ ----- --- ---- ------- -- ---- --- --<br>------- ------,242521.79999995232,242521.29999995232,241712.973,241714,241729.698,242532.512,,3,the
screen,html.Screen,2_1_1_1_4,2022-05-10T13:37:51.946Z,,,,,,,,,,,,,,,,,54,,,,,,,,,,,,,,788.9880000000121,,response,,,,100,,,,,,,Space,keypress(Space),,,,,,,,-- --- ---- --- French ----- ------- ---- -- --- ------- --<br>------- ---------- ------ -- ----- -- ----- -- ---- ------<br>--- ----- --- --- ------ -------- ----- --- ------ ----- --<br>----- ----- ---------- --- --- ------ ------ ---- -- ------<br>------- --- ------ ----- --- ---- ------- -- ---- --- --<br>------- ------,243321.79999995232,243321.5,242515.787,242521.89999997616,242532.512,243335.33,,4,French
screen,html.Screen,2_1_1_1_5,2022-05-10T13:37:52.546Z,,,,,,,,,,,,,,,,,54,,,,,,,,,,,,,,586.1700000000128,,response,,,,100,,,,,,,Space,keypress(Space),,,,,,,,-- --- ---- --- ------ crown ------- ---- -- --- ------- --<br>------- ---------- ------ -- ----- -- ----- -- ---- ------<br>--- ----- --- --- ------ -------- ----- --- ------ ----- --<br>----- ----- ---------- --- --- ------ ------ ---- -- ------<br>------- --- ------ ----- --- ---- ------- -- ---- --- --<br>------- ------,243922,243921.5,243318.605,243322,243335.33,243937.442,,5,crown
screen,html.Screen,2_1_1_1_6,2022-05-10T13:37:53.690Z,,,,,,,,,,,,,,,,,54,,,,,,,,,,,,,,1128.05799999999,,response,,,,100,,,,,,,Space,keypress(Space),,,,,,,,-- --- ---- --- ------ ----- secured ---- -- --- ------- --<br>------- ---------- ------ -- ----- -- ----- -- ---- ------<br>--- ----- --- --- ------ -------- ----- --- ------ ----- --<br>----- ----- ---------- --- --- ------ ------ ---- -- ------<br>------- --- ------ ----- --- ---- ------- -- ---- --- --<br>------- ------,245065.89999997616,245065.5,243920.717,243922.19999992847,243937.442,245074.759,,6,secured
screen,html.Screen,2_1_1_1_7,2022-05-10T13:37:54.666Z,,,,,,,,,,,,,,,,,54,,,,,,,,,,,,,,966.7410000000091,,response,,,,100,,,,,,,Space,keypress(Space),,,,,,,,-- --- ---- --- ------ ----- ------- much -- --- ------- --<br>------- ---------- ------ -- ----- -- ----- -- ---- ------<br>--- ----- --- --- ------ -------- ----- --- ------ ----- --<br>----- ----- ---------- --- --- ------ ------ ---- -- ------<br>------- --- ------ ----- --- ---- ------- -- ---- --- --<br>------- ------,246042.10000002384,246041.5,245058.034,245066,245074.759,246044.82,,7,much
screen,html.Screen,2_1_1_1_8,2022-05-10T13:37:55.130Z,,,,,,,,,,,,,,,,,54,,,,,,,,,,,,,,460.4799999523093,,response,,,,100,,,,,,,Space,keypress(Space),,,,,,,,-- --- ---- --- ------ ----- ------- ---- of --- ------- --<br>------- ---------- ------ -- ----- -- ----- -- ---- ------<br>--- ----- --- --- ------ -------- ----- --- ------ ----- --<br>----- ----- ---------- --- --- ------ ------ ---- -- ------<br>------- --- ------ ----- --- ---- ------- -- ---- --- --<br>------- ------,246505.79999995232,246505.29999995232,246028.095,246042.10000002384,246044.82,246513.122,,8,of
screen,html.Screen,2_1_1_1_9,2022-05-10T13:37:55.802Z,,,,,,,,,,,,,,,,,54,,,,,,,,,,,,,,664.4780000238388,,response,,,,100,,,,,,,Space,keypress(Space),,,,,,,,-- --- ---- --- ------ ----- ------- ---- -- its ------- --<br>------- ---------- ------ -- ----- -- ----- -- ---- ------<br>--- ----- --- --- ------ -------- ----- --- ------ ----- --<br>----- ----- ---------- --- --- ------ ------ ---- -- ------<br>------- --- ------ ----- --- ---- ------- -- ---- --- --<br>------- ------,247178.10000002384,247177.60000002384,246496.397,246505.89999997616,246513.122,247182.148,,9,its
screen,html.Screen,2_1_1_1_10,2022-05-10T13:37:56.890Z,,,,,,,,,,,,,,,,,54,,,,,,,,,,,,,,1083.3520000000135,,response,,,,100,,,,,,,Space,keypress(Space),,,,,,,,-- --- ---- --- ------ ----- ------- ---- -- --- revenue --<br>------- ---------- ------ -- ----- -- ----- -- ---- ------<br>--- ----- --- --- ------ -------- ----- --- ------ ----- --<br>----- ----- ---------- --- --- ------ ------ ---- -- ------<br>------- --- ------ ----- --- ---- ------- -- ---- --- --<br>------- ------,248266.10000002384,248265.5,247165.423,247178.19999992847,247182.148,248269.281,,10,revenue
screen,html.Screen,2_1_1_1_11,2022-05-10T13:37:58.426Z,,,,,,,,,,,,,,,,,54,,,,,,,,,,,,,,1532.3190000238537,,response,,,,100,,,,,,,Space,keypress(Space),,,,,,,,-- --- ---- --- ------ ----- ------- ---- -- --- ------- by<br>------- ---------- ------ -- ----- -- ----- -- ---- ------<br>--- ----- --- --- ------ -------- ----- --- ------ ----- --<br>----- ----- ---------- --- --- ------ ------ ---- -- ------<br>------- --- ------ ----- --- ---- ------- -- ---- --- --<br>------- ------,249802.19999992847,249801.60000002384,248252.556,248266.19999992847,248269.281,249807.98,,11,by
screen,html.Screen,2_1_1_1_12,2022-05-10T13:37:59.195Z,,,,,,,,,,,,,,,,,54,,,,,,,,,,,,,,762.1200000238314,,response,,,,100,,,,,,,Space,keypress(Space),,,,,,,,-- --- ---- --- ------ ----- ------- ---- -- --- ------- --<br>issuing ---------- ------ -- ----- -- ----- -- ---- ------<br>--- ----- --- --- ------ -------- ----- --- ------ ----- --<br>----- ----- ---------- --- --- ------ ------ ---- -- ------<br>------- --- ------ ----- --- ---- ------- -- ---- --- --<br>------- ------,250570.5,250570.10000002384,249791.255,249802.29999995232,249807.98,250577.362,,12,issuing
screen,html.Screen,2_1_1_1_13,2022-05-10T13:37:59.906Z,,,,,,,,,,,,,,,,,54,,,,,,,,,,,,,,704.1380000000063,,response,,,,100,,,,,,,Space,keypress(Space),,,,,,,,-- --- ---- --- ------ ----- ------- ---- -- --- ------- --<br>------- government ------ -- ----- -- ----- -- ---- ------<br>--- ----- --- --- ------ -------- ----- --- ------ ----- --<br>----- ----- ---------- --- --- ------ ------ ---- -- ------<br>------- --- ------ ----- --- ---- ------- -- ---- --- --<br>------- ------,251281.89999997616,251281.5,250560.637,250570.69999992847,250577.362,251296.555,,13,government
screen,html.Screen,2_1_1_1_14,2022-05-10T13:38:02.802Z,,,,,,,,,,,,,,,,,54,,,,,,,,,,,,,,2880.844999976165,,response,,,,100,,,,,,,Space,keypress(Space),,,,,,,,-- --- ---- --- ------ ----- ------- ---- -- --- ------- --<br>------- ---------- bonds. -- ----- -- ----- -- ---- ------<br>--- ----- --- --- ------ -------- ----- --- ------ ----- --<br>----- ----- ---------- --- --- ------ ------ ---- -- ------<br>------- --- ------ ----- --- ---- ------- -- ---- --- --<br>------- ------,254178,254177.39999997616,251279.83,251282,251296.555,254190.001,,14,bonds.
screen,html.Screen,2_1_1_1_15,2022-05-10T13:38:03.314Z,,,,,,,,,,,,,,,,,54,,,,,,,,,,,,,,499.39899997616885,,response,,,,100,,,,,,,Space,keypress(Space),,,,,,,,-- --- ---- --- ------ ----- ------- ---- -- --- ------- --<br>------- ---------- ------ In ----- -- ----- -- ---- ------<br>--- ----- --- --- ------ -------- ----- --- ------ ----- --<br>----- ----- ---------- --- --- ------ ------ ---- -- ------<br>------- --- ------ ----- --- ---- ------- -- ---- --- --<br>------- ------,254689.79999995232,254689.39999997616,254173.276,254178.10000002384,254190.001,254691.769,,15,In
screen,html.Screen,2_1_1_1_16,2022-05-10T13:38:04.762Z,,,,,,,,,,,,,,,,,54,,,,,,,,,,,,,,1445.530999952316,,response,,,,100,,,,,,,Space,keypress(Space),,,,,,,,"-- --- ---- --- ------ ----- ------- ---- -- --- ------- --<br>------- ---------- ------ -- 1727, -- ----- -- ---- ------<br>--- ----- --- --- ------ -------- ----- --- ------ ----- --<br>----- ----- ---------- --- --- ------ ------ ---- -- ------<br>------- --- ------ ----- --- ---- ------- -- ---- --- --<br>------- ------",256137.89999997616,256137.29999995232,254675.044,254689.89999997616,254691.769,256146.884,,16,"1727,"
screen,html.Screen,2_1_1_1_17,2022-05-10T13:38:05.634Z,,,,,,,,,,,,,,,,,54,,,,,,,,,,,,,,862.7160000238509,,response,,,,100,,,,,,,Space,keypress(Space),,,,,,,,-- --- ---- --- ------ ----- ------- ---- -- --- ------- --<br>------- ---------- ------ -- ----- in ----- -- ---- ------<br>--- ----- --- --- ------ -------- ----- --- ------ ----- --<br>----- ----- ---------- --- --- ------ ------ ---- -- ------<br>------- --- ------ ----- --- ---- ------- -- ---- --- --<br>------- ------,257010.19999992847,257009.60000002384,256130.159,256138,256146.884,257016.617,,17,in
screen,html.Screen,2_1_1_1_18,2022-05-10T13:38:06.458Z,,,,,,,,,,,,,,,,,54,,,,,,,,,,,,,,816.7829999761598,,response,,,,100,,,,,,,Space,keypress(Space),,,,,,,,-- --- ---- --- ------ ----- ------- ---- -- --- ------- --<br>------- ---------- ------ -- ----- -- order -- ---- ------<br>--- ----- --- --- ------ -------- ----- --- ------ ----- --<br>----- ----- ---------- --- --- ------ ------ ---- -- ------<br>------- --- ------ ----- --- ---- ------- -- ---- --- --<br>------- ------,257833.89999997616,257833.39999997616,256999.892,257010.19999992847,257016.617,257836.153,,18,order
screen,html.Screen,2_1_1_1_19,2022-05-10T13:38:06.946Z,,,,,,,,,,,,,,,,,54,,,,,,,,,,,,,,485.246999976167,,response,,,,100,,,,,,,Space,keypress(Space),,,,,,,,-- --- ---- --- ------ ----- ------- ---- -- --- ------- --<br>------- ---------- ------ -- ----- -- ----- to ---- ------<br>--- ----- --- --- ------ -------- ----- --- ------ ----- --<br>----- ----- ---------- --- --- ------ ------ ---- -- ------<br>------- --- ------ ----- --- ---- ------- -- ---- --- --<br>------- ------,258321.79999995232,258321.39999997616,257819.428,257834,257836.153,258337.918,,19,to
screen,html.Screen,2_1_1_1_20,2022-05-10T13:38:07.938Z,,,,,,,,,,,,,,,,,54,,,,,,,,,,,,,,975.6820000238367,,response,,,,100,,,,,,,Space,keypress(Space),,,,,,,,-- --- ---- --- ------ ----- ------- ---- -- --- ------- --<br>------- ---------- ------ -- ----- -- ----- -- save ------<br>--- ----- --- --- ------ -------- ----- --- ------ ----- --<br>----- ----- ---------- --- --- ------ ------ ---- -- ------<br>------- --- ------ ----- --- ---- ------- -- ---- --- --<br>------- ------,259314,259313.60000002384,258321.193,258321.89999997616,258337.918,259324.701,,20,save
screen,html.Screen,2_1_1_1_21,2022-05-10T13:38:08.946Z,,,,,,,,,,,,,,,,,54,,,,,,,,,,,,,,996.6989999761572,,response,,,,100,,,,,,,Space,keypress(Space),,,,,,,,"-- --- ---- --- ------ ----- ------- ---- -- --- ------- --<br>------- ---------- ------ -- ----- -- ----- -- ---- money,<br>--- ----- --- --- ------ -------- ----- --- ------ ----- --<br>----- ----- ---------- --- --- ------ ------ ---- -- ------<br>------- --- ------ ----- --- ---- ------- -- ---- --- --<br>------- ------",260321.89999997616,260321.39999997616,259307.976,259314.10000002384,259324.701,260328.216,,21,"money,"
screen,html.Screen,2_1_1_1_22,2022-05-10T13:38:09.507Z,,,,,,,,,,,,,,,,,54,,,,,,,,,,,,,,553.7840000000142,,response,,,,100,,,,,,,Space,keypress(Space),,,,,,,,-- --- ---- --- ------ ----- ------- ---- -- --- ------- --<br>------- ---------- ------ -- ----- -- ----- -- ---- ------<br>the ----- --- --- ------ -------- ----- --- ------ ----- --<br>----- ----- ---------- --- --- ------ ------ ---- -- ------<br>------- --- ------ ----- --- ---- ------- -- ---- --- --<br>------- ------,260882.5,260882,260311.491,260322.10000002384,260328.216,260896.883,,22,the
screen,html.Screen,2_1_1_1_23,2022-05-10T13:38:10.034Z,,,,,,,,,,,,,,,,,54,,,,,,,,,,,,,,512.4169999523147,,response,,,,100,,,,,,,Space,keypress(Space),,,,,,,,-- --- ---- --- ------ ----- ------- ---- -- --- ------- --<br>------- ---------- ------ -- ----- -- ----- -- ---- ------<br>--- state --- --- ------ -------- ----- --- ------ ----- --<br>----- ----- ---------- --- --- ------ ------ ---- -- ------<br>------- --- ------ ----- --- ---- ------- -- ---- --- --<br>------- ------,261409.89999997616,261409.29999995232,260880.158,260882.60000002384,260896.883,261415.372,,23,state
screen,html.Screen,2_1_1_1_24,2022-05-10T13:38:10.754Z,,,,,,,,,,,,,,,,,54,,,,,,,,,,,,,,714.2280000238388,,response,,,,100,,,,,,,Space,keypress(Space),,,,,,,,-- --- ---- --- ------ ----- ------- ---- -- --- ------- --<br>------- ---------- ------ -- ----- -- ----- -- ---- ------<br>--- ----- cut --- ------ -------- ----- --- ------ ----- --<br>----- ----- ---------- --- --- ------ ------ ---- -- ------<br>------- --- ------ ----- --- ---- ------- -- ---- --- --<br>------- ------,262130.10000002384,262129.60000002384,261398.647,261410,261415.372,262134.548,,24,cut
screen,html.Screen,2_1_1_1_25,2022-05-10T13:38:11.298Z,,,,,,,,,,,,,,,,,54,,,,,,,,,,,,,,539.0520000238321,,response,,,,100,,,,,,,Space,keypress(Space),,,,,,,,-- --- ---- --- ------ ----- ------- ---- -- --- ------- --<br>------- ---------- ------ -- ----- -- ----- -- ---- ------<br>--- ----- --- the ------ -------- ----- --- ------ ----- --<br>----- ----- ---------- --- --- ------ ------ ---- -- ------<br>------- --- ------ ----- --- ---- ------- -- ---- --- --<br>------- ------,262674.10000002384,262673.60000002384,262117.823,262130.10000002384,262134.548,262686.483,,25,the
screen,html.Screen,2_1_1_1_26,2022-05-10T13:38:12.346Z,,,,,,,,,,,,,,,,,54,,,,,,,,,,,,,,1035.0169999999925,,response,,,,100,,,,,,,Space,keypress(Space),,,,,,,,-- --- ---- --- ------ ----- ------- ---- -- --- ------- --<br>------- ---------- ------ -- ----- -- ----- -- ---- ------<br>--- ----- --- --- bonds' -------- ----- --- ------ ----- --<br>----- ----- ---------- --- --- ------ ------ ---- -- ------<br>------- --- ------ ----- --- ---- ------- -- ---- --- --<br>------- ------,263721.89999997616,263721.5,262669.758,262674.10000002384,262686.483,263723.446,,26,bonds'
screen,html.Screen,2_1_1_1_27,2022-05-10T13:38:13.162Z,,,,,,,,,,,,,,,,,54,,,,,,,,,,,,,,813.9539999761619,,response,,,,100,,,,,,,Space,keypress(Space),,,,,,,,-- --- ---- --- ------ ----- ------- ---- -- --- ------- --<br>------- ---------- ------ -- ----- -- ----- -- ---- ------<br>--- ----- --- --- ------ interest ----- --- ------ ----- --<br>----- ----- ---------- --- --- ------ ------ ---- -- ------<br>------- --- ------ ----- --- ---- ------- -- ---- --- --<br>------- ------,264537.89999997616,264537.39999997616,263706.721,263722,263723.446,264542.999,,27,interest
screen,html.Screen,2_1_1_1_28,2022-05-10T13:38:16.250Z,,,,,,,,,,,,,,,,,54,,,,,,,,,,,,,,3082.5009999999893,,response,,,,100,,,,,,,Space,keypress(Space),,,,,,,,-- --- ---- --- ------ ----- ------- ---- -- --- ------- --<br>------- ---------- ------ -- ----- -- ----- -- ---- ------<br>--- ----- --- --- ------ -------- rate. --- ------ ----- --<br>----- ----- ---------- --- --- ------ ------ ---- -- ------<br>------- --- ------ ----- --- ---- ------- -- ---- --- --<br>------- ------,267626,267625.5,264526.274,264538,264542.999,267637.127,,28,rate.
screen,html.Screen,2_1_1_1_29,2022-05-10T13:38:17.570Z,,,,,,,,,,,,,,,,,54,,,,,,,,,,,,,,1308.2729999761796,,response,,,,100,,,,,,,Space,keypress(Space),,,,,,,,-- --- ---- --- ------ ----- ------- ---- -- --- ------- --<br>------- ---------- ------ -- ----- -- ----- -- ---- ------<br>--- ----- --- --- ------ -------- ----- The ------ ----- --<br>----- ----- ---------- --- --- ------ ------ ---- -- ------<br>------- --- ------ ----- --- ---- ------- -- ---- --- --<br>------- ------,268945.7999999523,268945.39999997616,267620.402,267626.10000002384,267637.127,268958.424,,29,The
screen,html.Screen,2_1_1_1_30,2022-05-10T13:38:18.050Z,,,,,,,,,,,,,,,,,54,,,,,,,,,,,,,,467.07600000000093,,response,,,,100,,,,,,,Space,keypress(Space),,,,,,,,-- --- ---- --- ------ ----- ------- ---- -- --- ------- --<br>------- ---------- ------ -- ----- -- ----- -- ---- ------<br>--- ----- --- --- ------ -------- ----- --- market ----- --<br>----- ----- ---------- --- --- ------ ------ ---- -- ------<br>------- --- ------ ----- --- ---- ------- -- ---- --- --<br>------- ------,269426.10000002384,269425.5,268941.699,268946,268958.424,269426.786,,30,market
screen,html.Screen,2_1_1_1_31,2022-05-10T13:38:18.546Z,,,,,,,,,,,,,,,,,54,,,,,,,,,,,,,,494.61399997613626,,response,,,,100,,,,,,,Space,keypress(Space),,,,,,,,-- --- ---- --- ------ ----- ------- ---- -- --- ------- --<br>------- ---------- ------ -- ----- -- ----- -- ---- ------<br>--- ----- --- --- ------ -------- ----- --- ------ value --<br>----- ----- ---------- --- --- ------ ------ ---- -- ------<br>------- --- ------ ----- --- ---- ------- -- ---- --- --<br>------- ------,269922,269921.39999997616,269410.061,269426.1999999285,269426.786,269928.524,,31,value
screen,html.Screen,2_1_1_1_32,2022-05-10T13:38:19.298Z,,,,,,,,,,,,,,,,,54,,,,,,,,,,,,,,744.9760000000242,,response,,,,100,,,,,,,Space,keypress(Space),,,,,,,,-- --- ---- --- ------ ----- ------- ---- -- --- ------- --<br>------- ---------- ------ -- ----- -- ----- -- ---- ------<br>--- ----- --- --- ------ -------- ----- --- ------ ----- of<br>----- ----- ---------- --- --- ------ ------ ---- -- ------<br>------- --- ------ ----- --- ---- ------- -- ---- --- --<br>------- ------,270674,270673.5,269911.799,269922,269928.524,270681.16,,32,of
screen,html.Screen,2_1_1_1_33,2022-05-10T13:38:19.962Z,,,,,,,,,,,,,,,,,54,,,,,,,,,,,,,,656.4400000238675,,response,,,,100,,,,,,,Space,keypress(Space),,,,,,,,-- --- ---- --- ------ ----- ------- ---- -- --- ------- --<br>------- ---------- ------ -- ----- -- ----- -- ---- ------<br>--- ----- --- --- ------ -------- ----- --- ------ ----- --<br>these ----- ---------- --- --- ------ ------ ---- -- ------<br>------- --- ------ ----- --- ---- ------- -- ---- --- --<br>------- ------,271338.1999999285,271337.60000002384,270664.435,270674,270681.16,271350.191,,33,these
screen,html.Screen,2_1_1_1_34,2022-05-10T13:38:20.514Z,,,,,,,,,,,,,,,,,54,,,,,,,,,,,,,,539.4090000238502,,response,,,,100,,,,,,,Space,keypress(Space),,,,,,,,-- --- ---- --- ------ ----- ------- ---- -- --- ------- --<br>------- ---------- ------ -- ----- -- ----- -- ---- ------<br>--- ----- --- --- ------ -------- ----- --- ------ ----- --<br>----- bonds ---------- --- --- ------ ------ ---- -- ------<br>------- --- ------ ----- --- ---- ------- -- ---- --- --<br>------- ------,271890.10000002384,271889.60000002384,271333.466,271338.6999999285,271350.191,271902.131,,34,bonds
screen,html.Screen,2_1_1_1_35,2022-05-10T13:38:21.739Z,,,,,,,,,,,,,,,,,54,,,,,,,,,,,,,,1211.1689999523223,,response,,,,100,,,,,,,Space,keypress(Space),,,,,,,,"-- --- ---- --- ------ ----- ------- ---- -- --- ------- --<br>------- ---------- ------ -- ----- -- ----- -- ---- ------<br>--- ----- --- --- ------ -------- ----- --- ------ ----- --<br>----- ----- plummeted, --- --- ------ ------ ---- -- ------<br>------- --- ------ ----- --- ---- ------- -- ---- --- --<br>------- ------",273113.89999997616,273113.2999999523,271885.406,271890.1999999285,271902.131,273123.066,,35,"plummeted,"
screen,html.Screen,2_1_1_1_36,2022-05-10T13:38:22.531Z,,,,,,,,,,,,,,,,,54,,,,,,,,,,,,,,782.4340000000084,,response,,,,100,,,,,,,Space,keypress(Space),,,,,,,,-- --- ---- --- ------ ----- ------- ---- -- --- ------- --<br>------- ---------- ------ -- ----- -- ----- -- ---- ------<br>--- ----- --- --- ------ -------- ----- --- ------ ----- --<br>----- ----- ---------- and --- ------ ------ ---- -- ------<br>------- --- ------ ----- --- ---- ------- -- ---- --- --<br>------- ------,273906,273905.5,273106.341,273113.89999997616,273123.066,273909.156,,36,and
screen,html.Screen,2_1_1_1_37,2022-05-10T13:38:23.283Z,,,,,,,,,,,,,,,,,54,,,,,,,,,,,,,,748.2439999761409,,response,,,,100,,,,,,,Space,keypress(Space),,,,,,,,-- --- ---- --- ------ ----- ------- ---- -- --- ------- --<br>------- ---------- ------ -- ----- -- ----- -- ---- ------<br>--- ----- --- --- ------ -------- ----- --- ------ ----- --<br>----- ----- ---------- --- the ------ ------ ---- -- ------<br>------- --- ------ ----- --- ---- ------- -- ---- --- --<br>------- ------,274658,274657.39999997616,273892.431,273906.10000002384,273909.156,274661.798,,37,the
screen,html.Screen,2_1_1_1_38,2022-05-10T13:38:23.835Z,,,,,,,,,,,,,,,,,54,,,,,,,,,,,,,,547.7019999999902,,response,,,,100,,,,,,,Space,keypress(Space),,,,,,,,-- --- ---- --- ------ ----- ------- ---- -- --- ------- --<br>------- ---------- ------ -- ----- -- ----- -- ---- ------<br>--- ----- --- --- ------ -------- ----- --- ------ ----- --<br>----- ----- ---------- --- --- market ------ ---- -- ------<br>------- --- ------ ----- --- ---- ------- -- ---- --- --<br>------- ------,275210,275209.5,274645.073,274658.10000002384,274661.798,275213.726,,38,market
screen,html.Screen,2_1_1_1_39,2022-05-10T13:38:24.467Z,,,,,,,,,,,,,,,,,54,,,,,,,,,,,,,,627.5739999522921,,response,,,,100,,,,,,,Space,keypress(Space),,,,,,,,-- --- ---- --- ------ ----- ------- ---- -- --- ------- --<br>------- ---------- ------ -- ----- -- ----- -- ---- ------<br>--- ----- --- --- ------ -------- ----- --- ------ ----- --<br>----- ----- ---------- --- --- ------ became ---- -- ------<br>------- --- ------ ----- --- ---- ------- -- ---- --- --<br>------- ------,275841.6999999285,275841.2999999523,275197.001,275210,275213.726,275849.285,,39,became
screen,html.Screen,2_1_1_1_40,2022-05-10T13:38:25.419Z,,,,,,,,,,,,,,,,,54,,,,,,,,,,,,,,944.1149999761838,,response,,,,100,,,,,,,Space,keypress(Space),,,,,,,,-- --- ---- --- ------ ----- ------- ---- -- --- ------- --<br>------- ---------- ------ -- ----- -- ----- -- ---- ------<br>--- ----- --- --- ------ -------- ----- --- ------ ----- --<br>----- ----- ---------- --- --- ------ ------ wary -- ------<br>------- --- ------ ----- --- ---- ------- -- ---- --- --<br>------- ------,276793.89999997616,276793.39999997616,275832.56,275841.7999999523,275849.285,276802.611,,40,wary
screen,html.Screen,2_1_1_1_41,2022-05-10T13:38:25.891Z,,,,,,,,,,,,,,,,,54,,,,,,,,,,,,,,462.68899995234096,,response,,,,100,,,,,,,Space,keypress(Space),,,,,,,,-- --- ---- --- ------ ----- ------- ---- -- --- ------- --<br>------- ---------- ------ -- ----- -- ----- -- ---- ------<br>--- ----- --- --- ------ -------- ----- --- ------ ----- --<br>----- ----- ---------- --- --- ------ ------ ---- of ------<br>------- --- ------ ----- --- ---- ------- -- ---- --- --<br>------- ------,277265.89999997616,277265.2999999523,276785.886,276794,276802.611,277270.925,,41,of
screen,html.Screen,2_1_1_1_42,2022-05-10T13:38:26.443Z,,,,,,,,,,,,,,,,,54,,,,,,,,,,,,,,546.2749999284861,,response,,,,100,,,,,,,Space,keypress(Space),,,,,,,,-- --- ---- --- ------ ----- ------- ---- -- --- ------- --<br>------- ---------- ------ -- ----- -- ----- -- ---- ------<br>--- ----- --- --- ------ -------- ----- --- ------ ----- --<br>----- ----- ---------- --- --- ------ ------ ---- -- French<br>------- --- ------ ----- --- ---- ------- -- ---- --- --<br>------- ------,277817.7999999523,277817.1999999285,277254.2,277265.89999997616,277270.925,277822.874,,42,French
screen,html.Screen,2_1_1_1_43,2022-05-10T13:38:28.187Z,,,,,,,,,,,,,,,,,54,,,,,,,,,,,,,,1738.5259999761474,,response,,,,100,,,,,,,Space,keypress(Space),,,,,,,,-- --- ---- --- ------ ----- ------- ---- -- --- ------- --<br>------- ---------- ------ -- ----- -- ----- -- ---- ------<br>--- ----- --- --- ------ -------- ----- --- ------ ----- --<br>----- ----- ---------- --- --- ------ ------ ---- -- ------<br>credit. --- ------ ----- --- ---- ------- -- ---- --- --<br>------- ------,279561.89999997616,279561.39999997616,277806.149,277817.89999997616,277822.874,279579.011,,43,credit.
screen,html.Screen,2_1_1_1_44,2022-05-10T13:38:28.707Z,,,,,,,,,,,,,,,,,54,,,,,,,,,,,,,,502.38899997615954,,response,,,,100,,,,,,,Space,keypress(Space),,,,,,,,-- --- ---- --- ------ ----- ------- ---- -- --- ------- --<br>------- ---------- ------ -- ----- -- ----- -- ---- ------<br>--- ----- --- --- ------ -------- ----- --- ------ ----- --<br>----- ----- ---------- --- --- ------ ------ ---- -- ------<br>------- The ------ ----- --- ---- ------- -- ---- --- --<br>------- ------,280081.89999997616,280081.39999997616,279562.286,279562,279579.011,280097.52,,44,The
screen,html.Screen,2_1_1_1_45,2022-05-10T13:38:29.339Z,,,,,,,,,,,,,,,,,54,,,,,,,,,,,,,,615.6799999284558,,response,,,,100,,,,,,,Space,keypress(Space),,,,,,,,-- --- ---- --- ------ ----- ------- ---- -- --- ------- --<br>------- ---------- ------ -- ----- -- ----- -- ---- ------<br>--- ----- --- --- ------ -------- ----- --- ------ ----- --<br>----- ----- ---------- --- --- ------ ------ ---- -- ------<br>------- --- French ----- --- ---- ------- -- ---- --- --<br>------- ------,280713.6999999285,280713.1999999285,280080.795,280081.89999997616,280097.52,280716.383,,45,French
screen,html.Screen,2_1_1_1_46,2022-05-10T13:38:29.930Z,,,,,,,,,,,,,,,,,54,,,,,,,,,,,,,,588.8169999285019,,response,,,,100,,,,,,,Space,keypress(Space),,,,,,,,-- --- ---- --- ------ ----- ------- ---- -- --- ------- --<br>------- ---------- ------ -- ----- -- ----- -- ---- ------<br>--- ----- --- --- ------ -------- ----- --- ------ ----- --<br>----- ----- ---------- --- --- ------ ------ ---- -- ------<br>------- --- ------ state --- ---- ------- -- ---- --- --<br>------- ------,281305.6999999285,281305.1999999285,280699.658,280713.7999999523,280716.383,281318.462,,46,state
screen,html.Screen,2_1_1_1_47,2022-05-10T13:38:30.419Z,,,,,,,,,,,,,,,,,54,,,,,,,,,,,,,,475.2379999284749,,response,,,,100,,,,,,,Space,keypress(Space),,,,,,,,-- --- ---- --- ------ ----- ------- ---- -- --- ------- --<br>------- ---------- ------ -- ----- -- ----- -- ---- ------<br>--- ----- --- --- ------ -------- ----- --- ------ ----- --<br>----- ----- ---------- --- --- ------ ------ ---- -- ------<br>------- --- ------ ----- was ---- ------- -- ---- --- --<br>------- ------,281794.39999997616,281793.6999999285,281301.737,281305.7999999523,281318.462,281803.503,,47,was
screen,html.Screen,2_1_1_1_48,2022-05-10T13:38:31.011Z,,,,,,,,,,,,,,,,,54,,,,,,,,,,,,,,581.9969999999739,,response,,,,100,,,,,,,Space,keypress(Space),,,,,,,,-- --- ---- --- ------ ----- ------- ---- -- --- ------- --<br>------- ---------- ------ -- ----- -- ----- -- ---- ------<br>--- ----- --- --- ------ -------- ----- --- ------ ----- --<br>----- ----- ---------- --- --- ------ ------ ---- -- ------<br>------- --- ------ ----- --- left ------- -- ---- --- --<br>------- ------,282386,282385.5,281786.778,281794.5,281803.503,282388.883,,48,left
screen,html.Screen,2_1_1_1_49,2022-05-10T13:38:31.643Z,,,,,,,,,,,,,,,,,54,,,,,,,,,,,,,,628.3169999285019,,response,,,,100,,,,,,,Space,keypress(Space),,,,,,,,-- --- ---- --- ------ ----- ------- ---- -- --- ------- --<br>------- ---------- ------ -- ----- -- ----- -- ---- ------<br>--- ----- --- --- ------ -------- ----- --- ------ ----- --<br>----- ----- ---------- --- --- ------ ------ ---- -- ------<br>------- --- ------ ----- --- ---- without -- ---- --- --<br>------- ------,283017.7999999523,283017.1999999285,282372.158,282386.10000002384,282388.883,283024.448,,49,without
screen,html.Screen,2_1_1_1_50,2022-05-10T13:38:32.195Z,,,,,,,,,,,,,,,,,54,,,,,,,,,,,,,,544.9519999761833,,response,,,,100,,,,,,,Space,keypress(Space),,,,,,,,-- --- ---- --- ------ ----- ------- ---- -- --- ------- --<br>------- ---------- ------ -- ----- -- ----- -- ---- ------<br>--- ----- --- --- ------ -------- ----- --- ------ ----- --<br>----- ----- ---------- --- --- ------ ------ ---- -- ------<br>------- --- ------ ----- --- ---- ------- an ---- --- --<br>------- ------,283570,283569.39999997616,283007.723,283017.89999997616,283024.448,283576.365,,50,an
screen,html.Screen,2_1_1_1_51,2022-05-10T13:38:32.707Z,,,,,,,,,,,,,,,,,54,,,,,,,,,,,,,,505.23500002385117,,response,,,,100,,,,,,,Space,keypress(Space),,,,,,,,-- --- ---- --- ------ ----- ------- ---- -- --- ------- --<br>------- ---------- ------ -- ----- -- ----- -- ---- ------<br>--- ----- --- --- ------ -------- ----- --- ------ ----- --<br>----- ----- ---------- --- --- ------ ------ ---- -- ------<br>------- --- ------ ----- --- ---- ------- -- easy --- --<br>------- ------,284082,284081.60000002384,283559.64,283570,283576.365,284094.844,,51,easy
screen,html.Screen,2_1_1_1_52,2022-05-10T13:38:33.211Z,,,,,,,,,,,,,,,,,54,,,,,,,,,,,,,,490.35599992849166,,response,,,,100,,,,,,,Space,keypress(Space),,,,,,,,-- --- ---- --- ------ ----- ------- ---- -- --- ------- --<br>------- ---------- ------ -- ----- -- ----- -- ---- ------<br>--- ----- --- --- ------ -------- ----- --- ------ ----- --<br>----- ----- ---------- --- --- ------ ------ ---- -- ------<br>------- --- ------ ----- --- ---- ------- -- ---- way --<br>------- ------,284585.6999999285,284585.1999999285,284078.119,284082.1999999285,284094.844,284596.624,,52,way
screen,html.Screen,2_1_1_1_53,2022-05-10T13:38:33.802Z,,,,,,,,,,,,,,,,,54,,,,,,,,,,,,,,580.3759999999893,,response,,,,100,,,,,,,Space,keypress(Space),,,,,,,,-- --- ---- --- ------ ----- ------- ---- -- --- ------- --<br>------- ---------- ------ -- ----- -- ----- -- ---- ------<br>--- ----- --- --- ------ -------- ----- --- ------ ----- --<br>----- ----- ---------- --- --- ------ ------ ---- -- ------<br>------- --- ------ ----- --- ---- ------- -- ---- --- of<br>------- ------,285177.39999997616,285177,284579.899,284585.7999999523,284596.624,285181.991,,53,of
screen,html.Screen,2_1_1_1_54,2022-05-10T13:38:34.426Z,,,,,,,,,,,,,,,,,54,,,,,,,,,,,,,,619.00900000002,,response,,,,100,,,,,,,Space,keypress(Space),,,,,,,,-- --- ---- --- ------ ----- ------- ---- -- --- ------- --<br>------- ---------- ------ -- ----- -- ----- -- ---- ------<br>--- ----- --- --- ------ -------- ----- --- ------ ----- --<br>----- ----- ---------- --- --- ------ ------ ---- -- ------<br>------- --- ------ ----- --- ---- ------- -- ---- --- --<br>raising ------,285801.5,285801,285165.266,285177.5,285181.991,285817.558,,54,raising
screen,html.Screen,2_1_1_1_55,2022-05-10T13:38:35.651Z,,,,,,,,,,,,,,,,,54,,,,,,,,,,,,,,1207.941999999981,,response,,,,100,,,,,,,Space,keypress(Space),,,,,,,,-- --- ---- --- ------ ----- ------- ---- -- --- ------- --<br>------- ---------- ------ -- ----- -- ----- -- ---- ------<br>--- ----- --- --- ------ -------- ----- --- ------ ----- --<br>----- ----- ---------- --- --- ------ ------ ---- -- ------<br>------- --- ------ ----- --- ---- ------- -- ---- --- --<br>------- money.,287026,287025.5,285800.833,285801.6999999285,285817.558,287038.484,,55,money.
Item 100,flow.Loop,2_1_1_1,2022-05-10T13:38:35.651Z,,,,,,,,,,,,,,,,,,,,,,,,,,,,,,,47252.659000000014,,completion,,,,,B,,,,,,,,,,,silence,,,,,287026.2999999523,287025.5,239756.116,239757.60000002384,239772.841,287038.484,,,
Question 1,html.Screen,2_1_1_2,2022-05-10T13:38:38.239Z,,,,,,,,,,,,,,,,,,,,,,,,,,,,true,TRUE,,2574.5160000000033,,response,,,,100,B,,,,,,TRUE,click #choice-1,,,,silence,,,,,289613.6999999285,289613,287021.759,287026.39999997616,287038.484,289614.208,,,
Question 2,html.Screen,2_1_1_3,2022-05-10T13:38:41.990Z,,,,,,,,,,,,,,,,,,,,,,,,,,,,true,FALSE,,3749.691999976174,,response,,,,100,B,,,,,,FALSE,click #choice-2,,,,silence,,,,,293364.6999999285,293363.89999997616,289597.483,289613.89999997616,289614.208,293377.401,,,
Item 100,flow.Sequence,2_1_1,2022-05-10T13:38:41.990Z,,,,,,,,,,,,,,,,,,,,,,,,,,,,,,,63592.77199997616,,completion,,,,,,,,,,,,,,,,,,,,,293364.7999999523,293363.89999997616,229754.403,229763.19999992847,229771.128,293377.401,,,
End of Practice,html.Page,2_1_2,2022-05-10T13:38:49.816Z,,,,,,,,,,,,,,,,,,,,,,,,,,,,,,,7813.398999952304,,form submission,,,,,,,,,,,,,,,,,,,,,301191,301190.7999999523,293360.676,293364.89999997616,293377.401,301204.817,,,
Practice,flow.Sequence,2_1,2022-05-10T13:38:49.816Z,,,,,,,,,,,,,,,,,,,,,,,,,,,,,,,147185.2329999523,,completion,,,,,,,,,,,,,,,,,,,,,301191.10000002384,301190.7999999523,153988.842,154001.60000002384,154005.567,301204.817,,,
Trap_instruction,html.Page,2_2_0,2022-05-10T13:38:57.006Z,,,,,,,,,,,,,,,,,,,,,,,,,,,,,,,7175.982999952335,,form submission,,,,,,,,,,,,,,,,,,,,,308381.10000002384,308380.7999999523,301188.092,301191.2999999523,301204.817,308547.218,,,
trap_trial,html.Screen,2_2_1,2022-05-10T13:39:02.606Z,,,,,,,,,,,,,,,,,,,,,,,,,,,,true,1,,5432.7820000000065,,response,,,,,,,,,,,1,click #choice-1,,,,,,,,,313980.6999999285,313980,308379.968,308381.1999999285,308547.218,313982.871,,,
end of trap trial,html.Page,2_2_2,2022-05-10T13:39:05.031Z,,,,,,,,,,,,,,,,,,,,,,,,,,,,,,,2422.82899992849,,form submission,,,,,,,,,,,,,,,,,,,,,316406,316405.6999999285,313966.146,313980.7999999523,313982.871,316408.124,,,
Trap 1,flow.Sequence,2_2,2022-05-10T13:39:05.031Z,,,,,,,,,,,,,,,,,,,,,,,,,,,,,,,15200.882999928494,,completion,,,,,,,,,,,,,,,,,,,,,316406.10000002384,316405.6999999285,301188.092,301191.2999999523,301204.817,316408.124,,,
Standby,html.Page,2_3_0,2022-05-10T13:39:13.012Z,,,,,,,,,,,,,,,,,,,,,,,,,,,,,,,7994.582999999984,,timeout,,,,,,,,,,,,,,,,,,,,,324387.39999997616,324385.982,316391.399,316406.1999999285,316408.124,324402.707,,,
Holding screen,html.Screen,2_3_1_0_0,2022-05-10T13:39:20.021Z,,,,,,,,,,,,,,,,,,,,,,,,,,,,,,,7007.972999999998,,timeout,,,,,,,,,,,,,,,,,,,,,331396,331393.955,324385.982,324387.60000002384,324402.707,331410.68,,,
screen,html.Screen,2_3_1_0_1_0,2022-05-10T13:39:21.459Z,,,,,,,,,,,,,,,,,19,,,,,,,,,,,,,,1423.1199999523233,,response,,,,17,B,,,,,,Space,keypress(Space),,,,lyrical,,,,"Interestingly, --- -------- -------- ---------- ---- -------<br>-- ---------- -- --- ----- ------ ----- ---- --------- ----<br>------- ------ -------- -- ------ ---------- ------ ---<br>------ -- -- ---- -- ---------- -------- ------ ---- -------<br>---- --- --------- ------- ----- --------- ---- ----- --<br>------ -------- -- ------ -- ---- ------------",332834.5,332833.7999999523,331393.955,331396.10000002384,331410.68,332849.061,,0,"Interestingly,"
screen,html.Screen,2_3_1_0_1_1,2022-05-10T13:39:22.066Z,,,,,,,,,,,,,,,,,19,,,,,,,,,,,,,,591.939000000013,,response,,,,17,B,,,,,,Space,keypress(Space),,,,lyrical,,,,-------------- the -------- -------- ---------- ---- -------<br>-- ---------- -- --- ----- ------ ----- ---- --------- ----<br>------- ------ -------- -- ------ ---------- ------ ---<br>------ -- -- ---- -- ---------- -------- ------ ---- -------<br>---- --- --------- ------- ----- --------- ---- ----- --<br>------ -------- -- ------ -- ---- ------------,333441.5,333441,332832.336,332834.60000002384,332849.061,333451.183,,1,the
screen,html.Screen,2_3_1_0_1_2,2022-05-10T13:39:22.731Z,,,,,,,,,,,,,,,,,19,,,,,,,,,,,,,,654.0169999284553,,response,,,,17,B,,,,,,Space,keypress(Space),,,,lyrical,,,,-------------- --- heaviest -------- ---------- ---- -------<br>-- ---------- -- --- ----- ------ ----- ---- --------- ----<br>------- ------ -------- -- ------ ---------- ------ ---<br>------ -- -- ---- -- ---------- -------- ------ ---- -------<br>---- --- --------- ------- ----- --------- ---- ----- --<br>------ -------- -- ------ -- ---- ------------,334105.6999999285,334105.1999999285,333434.458,333441.5,333451.183,334120.181,,2,heaviest
screen,html.Screen,2_3_1_0_1_3,2022-05-10T13:39:23.907Z,,,,,,,,,,,,,,,,,19,,,,,,,,,,,,,,1161.2189999761758,,response,,,,17,B,,,,,,Space,keypress(Space),,,,lyrical,,,,-------------- --- -------- isotopes ---------- ---- -------<br>-- ---------- -- --- ----- ------ ----- ---- --------- ----<br>------- ------ -------- -- ------ ---------- ------ ---<br>------ -- -- ---- -- ---------- -------- ------ ---- -------<br>---- --- --------- ------- ----- --------- ---- ----- --<br>------ -------- -- ------ -- ---- ------------,335281.89999997616,335281.39999997616,334103.456,334105.89999997616,334120.181,335290.961,,3,isotopes
screen,html.Screen,2_3_1_0_1_4,2022-05-10T13:39:24.779Z,,,,,,,,,,,,,,,,,19,,,,,,,,,,,,,,862.338999952306,,response,,,,17,B,,,,,,Space,keypress(Space),,,,lyrical,,,,-------------- --- -------- -------- physicists ---- -------<br>-- ---------- -- --- ----- ------ ----- ---- --------- ----<br>------- ------ -------- -- ------ ---------- ------ ---<br>------ -- -- ---- -- ---------- -------- ------ ---- -------<br>---- --- --------- ------- ----- --------- ---- ----- --<br>------ -------- -- ------ -- ---- ------------,336153.7999999523,336153.2999999523,335274.236,335282,335290.961,336160.676,,4,physicists
screen,html.Screen,2_3_1_0_1_5,2022-05-10T13:39:25.507Z,,,,,,,,,,,,,,,,,19,,,,,,,,,,,,,,720.6239999523386,,response,,,,17,B,,,,,,Space,keypress(Space),,,,lyrical,,,,-------------- --- -------- -------- ---------- have -------<br>-- ---------- -- --- ----- ------ ----- ---- --------- ----<br>------- ------ -------- -- ------ ---------- ------ ---<br>------ -- -- ---- -- ---------- -------- ------ ---- -------<br>---- --- --------- ------- ----- --------- ---- ----- --<br>------ -------- -- ------ -- ---- ------------,336881.7999999523,336881.2999999523,336143.951,336153.89999997616,336160.676,336896.579,,5,have
screen,html.Screen,2_3_1_0_1_6,2022-05-10T13:39:26.187Z,,,,,,,,,,,,,,,,,19,,,,,,,,,,,,,,664.5210000238148,,response,,,,17,B,,,,,,Space,keypress(Space),,,,lyrical,,,,-------------- --- -------- -------- ---------- ---- managed<br>-- ---------- -- --- ----- ------ ----- ---- --------- ----<br>------- ------ -------- -- ------ ---------- ------ ---<br>------ -- -- ---- -- ---------- -------- ------ ---- -------<br>---- --- --------- ------- ----- --------- ---- ----- --<br>------ -------- -- ------ -- ---- ------------,337561.6999999285,337561.10000002384,336879.854,336882,336896.579,337565.593,,6,managed
screen,html.Screen,2_3_1_0_1_7,2022-05-10T13:39:26.659Z,,,,,,,,,,,,,,,,,19,,,,,,,,,,,,,,467.5070000238484,,response,,,,17,B,,,,,,Space,keypress(Space),,,,lyrical,,,,-------------- --- -------- -------- ---------- ---- -------<br>to ---------- -- --- ----- ------ ----- ---- --------- ----<br>------- ------ -------- -- ------ ---------- ------ ---<br>------ -- -- ---- -- ---------- -------- ------ ---- -------<br>---- --- --------- ------- ----- --------- ---- ----- --<br>------ -------- -- ------ -- ---- ------------,338033.6999999285,338033.10000002384,337548.868,337561.7999999523,337565.593,338050.641,,7,to
screen,html.Screen,2_3_1_0_1_8,2022-05-10T13:39:27.898Z,,,,,,,,,,,,,,,,,19,,,,,,,,,,,,,,1222.3589999999967,,response,,,,17,B,,,,,,Space,keypress(Space),,,,lyrical,,,,-------------- --- -------- -------- ---------- ---- -------<br>-- synthesize -- --- ----- ------ ----- ---- --------- ----<br>------- ------ -------- -- ------ ---------- ------ ---<br>------ -- -- ---- -- ---------- -------- ------ ---- -------<br>---- --- --------- ------- ----- --------- ---- ----- --<br>------ -------- -- ------ -- ---- ------------,339273.5,339273,338033.916,338033.7999999523,338050.641,339288.297,,8,synthesize
screen,html.Screen,2_3_1_0_1_9,2022-05-10T13:39:28.491Z,,,,,,,,,,,,,,,,,19,,,,,,,,,,,,,,577.0029999522958,,response,,,,17,B,,,,,,Space,keypress(Space),,,,lyrical,,,,-------------- --- -------- -------- ---------- ---- -------<br>-- ---------- so --- ----- ------ ----- ---- --------- ----<br>------- ------ -------- -- ------ ---------- ------ ---<br>------ -- -- ---- -- ---------- -------- ------ ---- -------<br>---- --- --------- ------- ----- --------- ---- ----- --<br>------ -------- -- ------ -- ---- ------------,339865.6999999285,339865.2999999523,339271.572,339273.60000002384,339288.297,339873.702,,9,so
screen,html.Screen,2_3_1_0_1_10,2022-05-10T13:39:29.435Z,,,,,,,,,,,,,,,,,19,,,,,,,,,,,,,,935.4979999284842,,response,,,,17,B,,,,,,Space,keypress(Space),,,,lyrical,,,,-------------- --- -------- -------- ---------- ---- -------<br>-- ---------- -- far ----- ------ ----- ---- --------- ----<br>------- ------ -------- -- ------ ---------- ------ ---<br>------ -- -- ---- -- ---------- -------- ------ ---- -------<br>---- --- --------- ------- ----- --------- ---- ----- --<br>------ -------- -- ------ -- ---- ------------,340809.89999997616,340809.1999999285,339856.977,339865.89999997616,339873.702,340827.032,,10,far
screen,html.Screen,2_3_1_0_1_11,2022-05-10T13:39:30.147Z,,,,,,,,,,,,,,,,,19,,,,,,,,,,,,,,694.2679999523098,,response,,,,17,B,,,,,,Space,keypress(Space),,,,lyrical,,,,-------------- --- -------- -------- ---------- ---- -------<br>-- ---------- -- --- don't ------ ----- ---- --------- ----<br>------- ------ -------- -- ------ ---------- ------ ---<br>------ -- -- ---- -- ---------- -------- ------ ---- -------<br>---- --- --------- ------- ----- --------- ---- ----- --<br>------ -------- -- ------ -- ---- ------------,341521.7999999523,341521.2999999523,340810.307,340810,340827.032,341529.498,,11,don't
screen,html.Screen,2_3_1_0_1_12,2022-05-10T13:39:31.146Z,,,,,,,,,,,,,,,,,19,,,,,,,,,,,,,,991.6020000238204,,response,,,,17,B,,,,,,Space,keypress(Space),,,,lyrical,,,,-------------- --- -------- -------- ---------- ---- -------<br>-- ---------- -- --- ----- behave ----- ---- --------- ----<br>------- ------ -------- -- ------ ---------- ------ ---<br>------ -- -- ---- -- ---------- -------- ------ ---- -------<br>---- --- --------- ------- ----- --------- ---- ----- --<br>------ -------- -- ------ -- ---- ------------,342521.60000002384,342521.10000002384,341512.773,341521.89999997616,341529.498,342533.009,,12,behave
screen,html.Screen,2_3_1_0_1_13,2022-05-10T13:39:31.747Z,,,,,,,,,,,,,,,,,19,,,,,,,,,,,,,,588.7909999522963,,response,,,,17,B,,,,,,Space,keypress(Space),,,,lyrical,,,,-------------- --- -------- -------- ---------- ---- -------<br>-- ---------- -- --- ----- ------ quite ---- --------- ----<br>------- ------ -------- -- ------ ---------- ------ ---<br>------ -- -- ---- -- ---------- -------- ------ ---- -------<br>---- --- --------- ------- ----- --------- ---- ----- --<br>------ -------- -- ------ -- ---- ------------,343122.2999999523,343121.7999999523,342516.284,342521.6999999285,342533.009,343135.11,,13,quite
screen,html.Screen,2_3_1_0_1_14,2022-05-10T13:39:32.186Z,,,,,,,,,,,,,,,,,19,,,,,,,,,,,,,,425.7899999761721,,response,,,,17,B,,,,,,Space,keypress(Space),,,,lyrical,,,,-------------- --- -------- -------- ---------- ---- -------<br>-- ---------- -- --- ----- ------ ----- like --------- ----<br>------- ------ -------- -- ------ ---------- ------ ---<br>------ -- -- ---- -- ---------- -------- ------ ---- -------<br>---- --- --------- ------- ----- --------- ---- ----- --<br>------ -------- -- ------ -- ---- ------------,343561.5,343560.89999997616,343118.385,343122.39999997616,343135.11,343569.985,,14,like
screen,html.Screen,2_3_1_0_1_15,2022-05-10T13:39:33.075Z,,,,,,,,,,,,,,,,,19,,,,,,,,,,,,,,879.015000000014,,response,,,,17,B,,,,,,Space,keypress(Space),,,,lyrical,,,,-------------- --- -------- -------- ---------- ---- -------<br>-- ---------- -- --- ----- ------ ----- ---- science's ----<br>------- ------ -------- -- ------ ---------- ------ ---<br>------ -- -- ---- -- ---------- -------- ------ ---- -------<br>---- --- --------- ------- ----- --------- ---- ----- --<br>------ -------- -- ------ -- ---- ------------,344449.60000002384,344449,343553.26,343561.60000002384,343569.985,344456.425,,15,science's
screen,html.Screen,2_3_1_0_1_16,2022-05-10T13:39:33.586Z,,,,,,,,,,,,,,,,,19,,,,,,,,,,,,,,504.4749999761698,,response,,,,17,B,,,,,,Space,keypress(Space),,,,lyrical,,,,-------------- --- -------- -------- ---------- ---- -------<br>-- ---------- -- --- ----- ------ ----- ---- --------- best<br>------- ------ -------- -- ------ ---------- ------ ---<br>------ -- -- ---- -- ---------- -------- ------ ---- -------<br>---- --- --------- ------- ----- --------- ---- ----- --<br>------ -------- -- ------ -- ---- ------------,344961.5,344960.89999997616,344439.7,344449.6999999285,344456.425,344974.911,,16,best
screen,html.Screen,2_3_1_0_1_17,2022-05-10T13:39:34.435Z,,,,,,,,,,,,,,,,,19,,,,,,,,,,,,,,834.5889999999781,,response,,,,17,B,,,,,,Space,keypress(Space),,,,lyrical,,,,-------------- --- -------- -------- ---------- ---- -------<br>-- ---------- -- --- ----- ------ ----- ---- --------- ----<br>current ------ -------- -- ------ ---------- ------ ---<br>------ -- -- ---- -- ---------- -------- ------ ---- -------<br>---- --- --------- ------- ----- --------- ---- ----- --<br>------ -------- -- ------ -- ---- ------------,345810.10000002384,345809.5,344958.186,344961.60000002384,344974.911,345811.165,,17,current
screen,html.Screen,2_3_1_0_1_18,2022-05-10T13:39:34.914Z,,,,,,,,,,,,,,,,,19,,,,,,,,,,,,,,477.9350000238628,,response,,,,17,B,,,,,,Space,keypress(Space),,,,lyrical,,,,-------------- --- -------- -------- ---------- ---- -------<br>-- ---------- -- --- ----- ------ ----- ---- --------- ----<br>------- models -------- -- ------ ---------- ------ ---<br>------ -- -- ---- -- ---------- -------- ------ ---- -------<br>---- --- --------- ------- ----- --------- ---- ----- --<br>------ -------- -- ------ -- ---- ------------,346289.5,346289.10000002384,345794.44,345810.10000002384,345811.165,346296.215,,18,models
screen,html.Screen,2_3_1_0_1_19,2022-05-10T13:39:36.850Z,,,,,,,,,,,,,,,,,19,,,,,,,,,,,,,,1928.7849999999744,,response,,,,17,B,,,,,,Space,keypress(Space),,,,lyrical,,,,"-------------- --- -------- -------- ---------- ---- -------<br>-- ---------- -- --- ----- ------ ----- ---- --------- ----<br>------- ------ predict, -- ------ ---------- ------ ---<br>------ -- -- ---- -- ---------- -------- ------ ---- -------<br>---- --- --------- ------- ----- --------- ---- ----- --<br>------ -------- -- ------ -- ---- ------------",348225.60000002384,348225,346279.49,346289.60000002384,346296.215,348236.319,,19,"predict,"
screen,html.Screen,2_3_1_0_1_20,2022-05-10T13:39:37.979Z,,,,,,,,,,,,,,,,,19,,,,,,,,,,,,,,1116.7810000238242,,response,,,,17,B,,,,,,Space,keypress(Space),,,,lyrical,,,,-------------- --- -------- -------- ---------- ---- -------<br>-- ---------- -- --- ----- ------ ----- ---- --------- ----<br>------- ------ -------- so ------ ---------- ------ ---<br>------ -- -- ---- -- ---------- -------- ------ ---- -------<br>---- --- --------- ------- ----- --------- ---- ----- --<br>------ -------- -- ------ -- ---- ------------,349353.60000002384,349353.10000002384,348219.594,348225.60000002384,348236.319,349356.927,,20,so
screen,html.Screen,2_3_1_0_1_21,2022-05-10T13:39:38.459Z,,,,,,,,,,,,,,,,,19,,,,,,,,,,,,,,476.37299995229114,,response,,,,17,B,,,,,,Space,keypress(Space),,,,lyrical,,,,-------------- --- -------- -------- ---------- ---- -------<br>-- ---------- -- --- ----- ------ ----- ---- --------- ----<br>------- ------ -------- -- stable ---------- ------ ---<br>------ -- -- ---- -- ---------- -------- ------ ---- -------<br>---- --- --------- ------- ----- --------- ---- ----- --<br>------ -------- -- ------ -- ---- ------------,349833.6999999285,349833.2999999523,349340.202,349353.6999999285,349356.927,349841.958,,21,stable
screen,html.Screen,2_3_1_0_1_22,2022-05-10T13:39:39.250Z,,,,,,,,,,,,,,,,,19,,,,,,,,,,,,,,783.0420000000158,,response,,,,17,B,,,,,,Space,keypress(Space),,,,lyrical,,,,-------------- --- -------- -------- ---------- ---- -------<br>-- ---------- -- --- ----- ------ ----- ---- --------- ----<br>------- ------ -------- -- ------ superheavy ------ ---<br>------ -- -- ---- -- ---------- -------- ------ ---- -------<br>---- --- --------- ------- ----- --------- ---- ----- --<br>------ -------- -- ------ -- ---- ------------,350625.5,350625,349825.233,349833.7999999523,349841.958,350628.053,,22,superheavy
screen,html.Screen,2_3_1_0_1_23,2022-05-10T13:39:39.898Z,,,,,,,,,,,,,,,,,19,,,,,,,,,,,,,,644.9469999999856,,response,,,,17,B,,,,,,Space,keypress(Space),,,,lyrical,,,,-------------- --- -------- -------- ---------- ---- -------<br>-- ---------- -- --- ----- ------ ----- ---- --------- ----<br>------- ------ -------- -- ------ ---------- nuclei ---<br>------ -- -- ---- -- ---------- -------- ------ ---- -------<br>---- --- --------- ------- ----- --------- ---- ----- --<br>------ -------- -- ------ -- ---- ------------,351273.60000002384,351273,350611.328,350625.60000002384,350628.053,351297.07,,23,nuclei
screen,html.Screen,2_3_1_0_1_24,2022-05-10T13:39:41.347Z,,,,,,,,,,,,,,,,,19,,,,,,,,,,,,,,1424.3299999761512,,response,,,,17,B,,,,,,Space,keypress(Space),,,,lyrical,,,,-------------- --- -------- -------- ---------- ---- -------<br>-- ---------- -- --- ----- ------ ----- ---- --------- ----<br>------- ------ -------- -- ------ ---------- ------ are<br>------ -- -- ---- -- ---------- -------- ------ ---- -------<br>---- --- --------- ------- ----- --------- ---- ----- --<br>------ -------- -- ------ -- ---- ------------,352722,352721.39999997616,351280.345,351273.60000002384,351297.07,352735.426,,24,are
screen,html.Screen,2_3_1_0_1_25,2022-05-10T13:39:42.035Z,,,,,,,,,,,,,,,,,19,,,,,,,,,,,,,,674.1740000238642,,response,,,,17,B,,,,,,Space,keypress(Space),,,,lyrical,,,,-------------- --- -------- -------- ---------- ---- -------<br>-- ---------- -- --- ----- ------ ----- ---- --------- ----<br>------- ------ -------- -- ------ ---------- ------ ---<br>likely -- -- ---- -- ---------- -------- ------ ---- -------<br>---- --- --------- ------- ----- --------- ---- ----- --<br>------ -------- -- ------ -- ---- ------------,353410.10000002384,353409.60000002384,352718.701,352722.10000002384,352735.426,353421.18,,25,likely
screen,html.Screen,2_3_1_0_1_26,2022-05-10T13:39:42.603Z,,,,,,,,,,,,,,,,,19,,,,,,,,,,,,,,556.1199999523233,,response,,,,17,B,,,,,,Space,keypress(Space),,,,lyrical,,,,-------------- --- -------- -------- ---------- ---- -------<br>-- ---------- -- --- ----- ------ ----- ---- --------- ----<br>------- ------ -------- -- ------ ---------- ------ ---<br>------ to -- ---- -- ---------- -------- ------ ---- -------<br>---- --- --------- ------- ----- --------- ---- ----- --<br>------ -------- -- ------ -- ---- ------------,353977.7999999523,353977.2999999523,353404.455,353410.1999999285,353421.18,353989.825,,26,to
screen,html.Screen,2_3_1_0_1_27,2022-05-10T13:39:43.307Z,,,,,,,,,,,,,,,,,19,,,,,,,,,,,,,,691.3749999284628,,response,,,,17,B,,,,,,Space,keypress(Space),,,,lyrical,,,,-------------- --- -------- -------- ---------- ---- -------<br>-- ---------- -- --- ----- ------ ----- ---- --------- ----<br>------- ------ -------- -- ------ ---------- ------ ---<br>------ -- be ---- -- ---------- -------- ------ ---- -------<br>---- --- --------- ------- ----- --------- ---- ----- --<br>------ -------- -- ------ -- ---- ------------,354681.6999999285,354681.1999999285,353973.1,353977.89999997616,353989.825,354692.301,,27,be
screen,html.Screen,2_3_1_0_1_28,2022-05-10T13:39:44.026Z,,,,,,,,,,,,,,,,,19,,,,,,,,,,,,,,708.6990000000224,,response,,,,17,B,,,,,,Space,keypress(Space),,,,lyrical,,,,-------------- --- -------- -------- ---------- ---- -------<br>-- ---------- -- --- ----- ------ ----- ---- --------- ----<br>------- ------ -------- -- ------ ---------- ------ ---<br>------ -- -- full -- ---------- -------- ------ ---- -------<br>---- --- --------- ------- ----- --------- ---- ----- --<br>------ -------- -- ------ -- ---- ------------,355401.5,355401,354675.576,354681.89999997616,354692.301,355411.485,,28,full
screen,html.Screen,2_3_1_0_1_29,2022-05-10T13:39:44.451Z,,,,,,,,,,,,,,,,,19,,,,,,,,,,,,,,413.9149999761721,,response,,,,17,B,,,,,,Space,keypress(Space),,,,lyrical,,,,-------------- --- -------- -------- ---------- ---- -------<br>-- ---------- -- --- ----- ------ ----- ---- --------- ----<br>------- ------ -------- -- ------ ---------- ------ ---<br>------ -- -- ---- of ---------- -------- ------ ---- -------<br>---- --- --------- ------- ----- --------- ---- ----- --<br>------ -------- -- ------ -- ---- ------------,355826,355825.39999997616,355394.76,355401.60000002384,355411.485,355829.606,,29,of
screen,html.Screen,2_3_1_0_1_30,2022-05-10T13:39:46.051Z,,,,,,,,,,,,,,,,,19,,,,,,,,,,,,,,1595.6939999522874,,response,,,,17,B,,,,,,Space,keypress(Space),,,,lyrical,,,,-------------- --- -------- -------- ---------- ---- -------<br>-- ---------- -- --- ----- ------ ----- ---- --------- ----<br>------- ------ -------- -- ------ ---------- ------ ---<br>------ -- -- ---- -- surprises. -------- ------ ---- -------<br>---- --- --------- ------- ----- --------- ---- ----- --<br>------ -------- -- ------ -- ---- ------------,357425.7999999523,357425.2999999523,355812.881,355826.10000002384,355829.606,357435.237,,30,surprises.
screen,html.Screen,2_3_1_0_1_31,2022-05-10T13:39:46.923Z,,,,,,,,,,,,,,,,,19,,,,,,,,,,,,,,862.0629999522935,,response,,,,17,B,,,,,,Space,keypress(Space),,,,lyrical,,,,-------------- --- -------- -------- ---------- ---- -------<br>-- ---------- -- --- ----- ------ ----- ---- --------- ----<br>------- ------ -------- -- ------ ---------- ------ ---<br>------ -- -- ---- -- ---------- Chemists ------ ---- -------<br>---- --- --------- ------- ----- --------- ---- ----- --<br>------ -------- -- ------ -- ---- ------------,358297.7999999523,358297.2999999523,357418.512,357425.89999997616,357435.237,358304.944,,31,Chemists
screen,html.Screen,2_3_1_0_1_32,2022-05-10T13:39:47.699Z,,,,,,,,,,,,,,,,,19,,,,,,,,,,,,,,768.1560000238242,,response,,,,17,B,,,,,,Space,keypress(Space),,,,lyrical,,,,-------------- --- -------- -------- ---------- ---- -------<br>-- ---------- -- --- ----- ------ ----- ---- --------- ----<br>------- ------ -------- -- ------ ---------- ------ ---<br>------ -- -- ---- -- ---------- -------- cannot ---- -------<br>---- --- --------- ------- ----- --------- ---- ----- --<br>------ -------- -- ------ -- ---- ------------,359073.6999999285,359073.10000002384,358288.219,358298,358304.944,359074.308,,32,cannot
screen,html.Screen,2_3_1_0_1_33,2022-05-10T13:39:48.419Z,,,,,,,,,,,,,,,,,19,,,,,,,,,,,,,,719.091999976139,,response,,,,17,B,,,,,,Space,keypress(Space),,,,lyrical,,,,-------------- --- -------- -------- ---------- ---- -------<br>-- ---------- -- --- ----- ------ ----- ---- --------- ----<br>------- ------ -------- -- ------ ---------- ------ ---<br>------ -- -- ---- -- ---------- -------- ------ even -------<br>---- --- --------- ------- ----- --------- ---- ----- --<br>------ -------- -- ------ -- ---- ------------,359793.89999997616,359793.39999997616,359057.583,359073.6999999285,359074.308,359810.224,,33,even
screen,html.Screen,2_3_1_0_1_34,2022-05-10T13:39:49.563Z,,,,,,,,,,,,,,,,,19,,,,,,,,,,,,,,1126.975999928487,,response,,,,17,B,,,,,,Space,keypress(Space),,,,lyrical,,,,-------------- --- -------- -------- ---------- ---- -------<br>-- ---------- -- --- ----- ------ ----- ---- --------- ----<br>------- ------ -------- -- ------ ---------- ------ ---<br>------ -- -- ---- -- ---------- -------- ------ ---- predict<br>---- --- --------- ------- ----- --------- ---- ----- --<br>------ -------- -- ------ -- ---- ------------,360937.7999999523,360937.1999999285,359793.499,359794,359810.224,360947.559,,34,predict
screen,html.Screen,2_3_1_0_1_35,2022-05-10T13:39:50.299Z,,,,,,,,,,,,,,,,,19,,,,,,,,,,,,,,725.7409999523079,,response,,,,17,B,,,,,,Space,keypress(Space),,,,lyrical,,,,-------------- --- -------- -------- ---------- ---- -------<br>-- ---------- -- --- ----- ------ ----- ---- --------- ----<br>------- ------ -------- -- ------ ---------- ------ ---<br>------ -- -- ---- -- ---------- -------- ------ ---- -------<br>with --- --------- ------- ----- --------- ---- ----- --<br>------ -------- -- ------ -- ---- ------------,361673.7999999523,361673.2999999523,360930.834,360937.89999997616,360947.559,361683.451,,35,with
screen,html.Screen,2_3_1_0_1_36,2022-05-10T13:39:50.699Z,,,,,,,,,,,,,,,,,19,,,,,,,,,,,,,,389.7489999284735,,response,,,,17,B,,,,,,Space,keypress(Space),,,,lyrical,,,,-------------- --- -------- -------- ---------- ---- -------<br>-- ---------- -- --- ----- ------ ----- ---- --------- ----<br>------- ------ -------- -- ------ ---------- ------ ---<br>------ -- -- ---- -- ---------- -------- ------ ---- -------<br>---- any --------- ------- ----- --------- ---- ----- --<br>------ -------- -- ------ -- ---- ------------,362073.6999999285,362073.1999999285,361666.726,361673.89999997616,361683.451,362084.885,,36,any
screen,html.Screen,2_3_1_0_1_37,2022-05-10T13:39:51.499Z,,,,,,,,,,,,,,,,,19,,,,,,,,,,,,,,788.3149999284651,,response,,,,17,B,,,,,,Space,keypress(Space),,,,lyrical,,,,-------------- --- -------- -------- ---------- ---- -------<br>-- ---------- -- --- ----- ------ ----- ---- --------- ----<br>------- ------ -------- -- ------ ---------- ------ ---<br>------ -- -- ---- -- ---------- -------- ------ ---- -------<br>---- --- certainty ------- ----- --------- ---- ----- --<br>------ -------- -- ------ -- ---- ------------,362873.6999999285,362873.1999999285,362068.16,362073.6999999285,362084.885,362887.692,,37,certainty
screen,html.Screen,2_3_1_0_1_38,2022-05-10T13:39:52.075Z,,,,,,,,,,,,,,,,,19,,,,,,,,,,,,,,561.8080000000191,,response,,,,17,B,,,,,,Space,keypress(Space),,,,lyrical,,,,-------------- --- -------- -------- ---------- ---- -------<br>-- ---------- -- --- ----- ------ ----- ---- --------- ----<br>------- ------ -------- -- ------ ---------- ------ ---<br>------ -- -- ---- -- ---------- -------- ------ ---- -------<br>---- --- --------- whether ----- --------- ---- ----- --<br>------ -------- -- ------ -- ---- ------------,363450,363449.5,362870.967,362873.7999999523,362887.692,363456.363,,38,whether
screen,html.Screen,2_3_1_0_1_39,2022-05-10T13:39:52.587Z,,,,,,,,,,,,,,,,,19,,,,,,,,,,,,,,504.73700002382975,,response,,,,17,B,,,,,,Space,keypress(Space),,,,lyrical,,,,-------------- --- -------- -------- ---------- ---- -------<br>-- ---------- -- --- ----- ------ ----- ---- --------- ----<br>------- ------ -------- -- ------ ---------- ------ ---<br>------ -- -- ---- -- ---------- -------- ------ ---- -------<br>---- --- --------- ------- these --------- ---- ----- --<br>------ -------- -- ------ -- ---- ------------,363961.60000002384,363961.10000002384,363439.638,363450.1999999285,363456.363,363974.821,,39,these
