sender,sender_type,sender_id,timestamp,meta,,Blues,Classical,Country,Dance,Electronic,Folk,Gospel,Hip-Hop,Jazz,Latin,Musical/Film,New-age,Pop,Prolific_id,Provo_ID,R&B,Rap,Reggae,Religious,Rock,Soul,Swing,Traditional,age,artist_name,correct,correctResponse,distraction,duration,education,ended_on,familiarity,gender,headphone_check_performance,item,list,music_frequency,offensiveness,pleasantness,position_correct,preference,response,response_action,snippet_file,song_name,song_rating,sound,stimulus_1,stimulus_2,stimulus_3,text,time_commit,time_end,time_render,time_run,time_show,time_switch,url,word,word_ID
Prolific ID,html.Form,0,2022-04-25T17:17:43.657Z,"{""labjs_version"":""20.2.2"",""labjs_build"":{""flavor"":""production"",""commit"":""a25486e0c714a0ae2ce03ff94b7bb6896854dcfa""},""location"":""https://run.pavlovia.org/mvasilev/prolific3_music_b/"",""userAgent"":""Mozilla/5.0 (X11; CrOS x86_64 14526.89.0) AppleWebKit/537.36 (KHTML, like Gecko) Chrome/100.0.4896.133 Safari/537.36"",""platform"":""Linux x86_64"",""language"":""en-US"",""locale"":""en-US"",""timeZone"":""Europe/London"",""timezoneOffset"":-60,""screen_width"":1616,""screen_height"":909,""scroll_width"":1616,""scroll_height"":743,""window_innerWidth"":1616,""window_innerHeight"":791,""devicePixelRatio"":1.1875}",,,,,,,,,,,,,,,5f75d01a857e4e27a575f7ca,,,,,,,,,,,,,,,5834.84,,form submission,,,,,,,,,,,,,,,,,,,,,31245.60000000056,31245,25143.444,25376.900000000373,25410.16,31260.263,{},,
Introduction,html.Screen,1_0,2022-04-25T17:17:46.734Z,,,,,,,,,,,,,,,,,,,,,,,,,,,,,,,3060.0369999998147,,response,,,,,,,,,,,continue,click button,,,,,,,,,34322.40000000037,34320.299999999814,31243.597,31246.400000000373,31260.263,34326.972,,,
Volume calibration,html.Screen,1_1,2022-04-25T17:18:07.130Z,,,,,,,,,,,,,,,,,,,,,,,,,,,,,,,20389.628000000557,,response,,,,,,,,,,,continue,click button,,,,,,,,,54718.299999999814,54716.60000000056,34310.306,34322.60000000056,34326.972,54727.336,,,
Task instructions,html.Screen,1_2,2022-04-25T17:18:17.550Z,,,,,,,,,,,,,,,,,,,,,,,,,,,,,,,10409.06400000037,,response,,,,,,,,,,,continue,click button,,,,,,,,,65138.200000000186,65136.40000000037,54710.67,54718.5,54727.336,65144.166,,,
Sounds,html.Screen,1_3_0_0,2022-04-25T17:18:21.793Z,,,,,,,,,,,,,,,,,,,,,,,,,,,,,,,4250.081000000006,,timeout,,,,,,,,,2,,,,,,,,I,S,O,,69381,69377.581,65127.5,65138.5,65144.166,69394.247,,,
Judgement,html.Screen,1_3_0_1,2022-04-25T17:18:23.548Z,,,,,,,,,,,,,,,,,,,,,,,,,,,,true,2,,1740.3530000005558,,response,,,,,,,,,2,,2,click #choice-2,,,,,I,S,O,,71136.60000000056,71134.60000000056,69377.581,69381.29999999981,69394.247,71144.258,,,
Trial,flow.Sequence,1_3_0,2022-04-25T17:18:23.549Z,,,,,,,,,,,,,,,,,,,,,,,,,,,,,,,5990.434000000561,,completion,,,,,,,,,2,,,,,,,,I,S,O,,71137,71134.60000000056,65127.5,65138.40000000037,65144.166,71144.258,,,
Sounds,html.Screen,1_3_1_0,2022-04-25T17:18:27.791Z,,,,,,,,,,,,,,,,,,,,,,,,,,,,,,,4250.0899999999965,,timeout,,,,,,,,,3,,,,,,,,O,I,S,,75378.79999999981,75377.682,71127.592,71137.29999999981,71144.258,75394.348,,,
Judgement,html.Screen,1_3_1_1,2022-04-25T17:18:28.366Z,,,,,,,,,,,,,,,,,,,,,,,,,,,,true,3,,558.0520000003744,,response,,,,,,,,,3,,3,click #choice-3,,,,,O,I,S,,75954.40000000037,75952.40000000037,75377.682,75378.90000000037,75394.348,75961.022,,,
Trial,flow.Sequence,1_3_1,2022-04-25T17:18:28.366Z,,,,,,,,,,,,,,,,,,,,,,,,,,,,,,,4808.142000000371,,completion,,,,,,,,,3,,,,,,,,O,I,S,,75954.70000000019,75952.40000000037,71127.592,71137.10000000056,71144.258,75961.022,,,
Sounds,html.Screen,1_3_2_0,2022-04-25T17:18:32.608Z,,,,,,,,,,,,,,,,,,,,,,,,,,,,,,,4250.024000000005,,timeout,,,,,,,,,3,,,,,,,,I,O,S,,80196,80194.38,75944.356,75954.90000000037,75961.022,80211.046,,,
Judgement,html.Screen,1_3_2_1,2022-04-25T17:18:33.740Z,,,,,,,,,,,,,,,,,,,,,,,,,,,,true,3,,1115.3540000003704,,response,,,,,,,,,3,,3,click #choice-3,,,,,I,O,S,,81328.20000000019,81326.40000000037,80194.38,80196.10000000056,80211.046,81344.458,,,
Trial,flow.Sequence,1_3_2,2022-04-25T17:18:33.740Z,,,,,,,,,,,,,,,,,,,,,,,,,,,,,,,5365.378000000375,,completion,,,,,,,,,3,,,,,,,,I,O,S,,81328.5,81326.40000000037,75944.356,75954.90000000037,75961.022,81344.458,,,
Sounds,html.Screen,1_3_3_0,2022-04-25T17:18:37.991Z,,,,,,,,,,,,,,,,,,,,,,,,,,,,,,,4250.054000000004,,timeout,,,,,,,,,2,,,,,,,,O,S,I,,85579.20000000019,85577.846,81327.792,81328.70000000019,81344.458,85594.512,,,
Judgement,html.Screen,1_3_3_1,2022-04-25T17:18:38.418Z,,,,,,,,,,,,,,,,,,,,,,,,,,,,true,2,,409.8880000003701,,response,,,,,,,,,2,,2,click #choice-2,,,,,O,S,I,,86006.20000000019,86004.40000000037,85577.846,85579.40000000037,85594.512,86027.849,,,
Trial,flow.Sequence,1_3_3,2022-04-25T17:18:38.418Z,,,,,,,,,,,,,,,,,,,,,,,,,,,,,,,4659.942000000374,,completion,,,,,,,,,2,,,,,,,,O,S,I,,86006.5,86004.40000000037,81327.792,81328.60000000056,81344.458,86027.849,,,
Sounds,html.Screen,1_3_4_0,2022-04-25T17:18:42.674Z,,,,,,,,,,,,,,,,,,,,,,,,,,,,,,,4250.029999999999,,timeout,,,,,,,,,1,,,,,,,,S,O,I,,90262.5,90261.213,86011.183,86006.60000000056,86027.849,90277.879,,,
Judgement,html.Screen,1_3_4_1,2022-04-25T17:18:43.288Z,,,,,,,,,,,,,,,,,,,,,,,,,,,,true,1,,596.3210000001854,,response,,,,,,,,,1,,1,click #choice-1,,,,,S,O,I,,90875.90000000037,90874.20000000019,90261.213,90262.70000000019,90277.879,90877.941,,,
Trial,flow.Sequence,1_3_4,2022-04-25T17:18:43.288Z,,,,,,,,,,,,,,,,,,,,,,,,,,,,,,,4846.351000000184,,completion,,,,,,,,,1,,,,,,,,S,O,I,,90876.40000000037,90874.20000000019,86011.183,86006.60000000056,86027.849,90877.941,,,
Sounds,html.Screen,1_3_5_0,2022-04-25T17:18:47.525Z,,,,,,,,,,,,,,,,,,,,,,,,,,,,,,,4250.023000000001,,timeout,,,,,,,,,1,,,,,,,,S,I,O,,95113.29999999981,95111.298,90861.275,90876.60000000056,90877.941,95127.964,,,
Judgement,html.Screen,1_3_5_1,2022-04-25T17:18:48.106Z,,,,,,,,,,,,,,,,,,,,,,,,,,,,true,1,,564.5359999999928,,response,,,,,,,,,1,,1,click #choice-1,,,,,S,I,O,,95694.5,95692.5,95111.298,95113.5,95127.964,95694.664,,,
Trial,flow.Sequence,1_3_5,2022-04-25T17:18:48.107Z,,,,,,,,,,,,,,,,,,,,,,,,,,,,,,,4814.558999999994,,completion,,,,,,,,,1,,,,,,,,S,I,O,,95694.90000000037,95692.5,90861.275,90876.5,90877.941,95694.664,,,
Task,flow.Loop,1_3,2022-04-25T17:18:48.113Z,,,,,,,,,,,,,,,,,,,,,,,,,,,,,,,30548.334000000003,,completion,,,1,,,,,,,,,,,,,,,,,,95701.60000000056,95692.5,65127.5,65138.40000000037,65144.166,95694.664,,,
Trap,html.Screen,1_4,2022-04-25T17:18:48.115Z,,,,,,,,,,,,,,,,,,,,,,,,,,,,,,,NaN,,skipped,,,,,,,,,,,,,,,,,,,,,95703.20000000019,95692.5,,95703,,95694.664,,,
Thanks,html.Screen,1_5,2022-04-25T17:18:54.906Z,,,,,,,,,,,,,,,,,,,,,,,,,,,,,,,6797.635999999809,,response,,,,,,,,,,,continue,click button,,,,,,,,,102494.20000000019,102492.29999999981,95677.998,95703.29999999981,95694.664,106144.829,,,
Headphone screening,flow.Sequence,1,2022-04-25T17:18:54.906Z,,,,,,,,,,,,,,,,,,,,,,,,,,,,,,,71232.03699999981,,completion,,,,,,,,,,,,,,,,,,,,,102494.40000000037,102492.29999999981,31243.597,31246.400000000373,31260.263,106144.829,,,
Instructions,html.Page,2_0,2022-04-25T17:19:29.203Z,,,,,,,,,,,,,,,,,,,,,,,,,,,,,,,30645.671000000002,,form submission,,,,,,,,,,,,,,,,,,,,,136790.90000000037,136790.5,106128.163,106129,106144.829,136795.38,,,
Holding screen,html.Screen,2_1_0_0,2022-04-25T17:19:39.192Z,,,,,,,,,,,,,,,,,,,,,,,,,,,,,,,10000.130000000005,,timeout,,,,,,,,,,,,,,,,,,,,,146779.7999999998,146778.844,136778.714,136791.2000000002,136795.38,146795.51,,,
screen,html.Screen,2_1_0_1_0,2022-04-25T17:19:40.504Z,,,,,,,,,,,,,,,,,53,,,,,,,,,,,,,,1292.2899999998044,,response,,,,99,,,,,,,Space,keypress(Space),,,,,,,,When -- ----- -- ------ - ------- --- ----------<br>------------- ------ ------ ---- ---- ------- ----- -- ----<br>-------- ------- -- ---------- --- - --- ----- ----- ----<br>---- --- --- ----- --- ---- ---- ------- ----- ---- -------<br>--- --- -- ----- -- --- ---- -- --- ---- -- ------ ------<br>--- ----- -- ----,148092,148087.7999999998,146778.844,146780.10000000056,146795.51,148095.514,,0,When
screen,html.Screen,2_1_0_1_1,2022-04-25T17:19:41.872Z,,,,,,,,,,,,,,,,,53,,,,,,,,,,,,,,1363.1860000001907,,response,,,,99,,,,,,,Space,keypress(Space),,,,,,,,---- it ----- -- ------ - ------- --- ----------<br>------------- ------ ------ ---- ---- ------- ----- -- ----<br>-------- ------- -- ---------- --- - --- ----- ----- ----<br>---- --- --- ----- --- ---- ---- ------- ----- ---- -------<br>--- --- -- ----- -- --- ---- -- --- ---- -- ------ ------<br>--- ----- -- ----,149460.2999999998,149458.7000000002,148078.848,148092.2999999998,148095.514,149462.203,,1,it
screen,html.Screen,2_1_0_1_2,2022-04-25T17:19:42.911Z,,,,,,,,,,,,,,,,,53,,,,,,,,,,,,,,1034.9970000001776,,response,,,,99,,,,,,,Space,keypress(Space),,,,,,,,---- -- comes -- ------ - ------- --- ----------<br>------------- ------ ------ ---- ---- ------- ----- -- ----<br>-------- ------- -- ---------- --- - --- ----- ----- ----<br>---- --- --- ----- --- ---- ---- ------- ----- ---- -------<br>--- --- -- ----- -- --- ---- -- --- ---- -- ------ ------<br>--- ----- -- ----,150498.7999999998,150497.2000000002,149445.537,149460.40000000037,149462.203,150512.245,,2,comes
screen,html.Screen,2_1_0_1_3,2022-04-25T17:19:43.357Z,,,,,,,,,,,,,,,,,53,,,,,,,,,,,,,,430.75500000000466,,response,,,,99,,,,,,,Space,keypress(Space),,,,,,,,---- -- ----- to ------ - ------- --- ----------<br>------------- ------ ------ ---- ---- ------- ----- -- ----<br>-------- ------- -- ---------- --- - --- ----- ----- ----<br>---- --- --- ----- --- ---- ---- ------- ----- ---- -------<br>--- --- -- ----- -- --- ---- -- --- ---- -- ------ ------<br>--- ----- -- ----,150945,150943,150495.579,150498.90000000037,150512.245,150962.282,,3,to
screen,html.Screen,2_1_0_1_4,2022-04-25T17:19:43.783Z,,,,,,,,,,,,,,,,,53,,,,,,,,,,,,,,406.7179999999935,,response,,,,99,,,,,,,Space,keypress(Space),,,,,,,,---- -- ----- -- having - ------- --- ----------<br>------------- ------ ------ ---- ---- ------- ----- -- ----<br>-------- ------- -- ---------- --- - --- ----- ----- ----<br>---- --- --- ----- --- ---- ---- ------- ----- ---- -------<br>--- --- -- ----- -- --- ---- -- --- ---- -- ------ ------<br>--- ----- -- ----,151370.90000000037,151369,150945.616,150945.10000000056,150962.282,151378.953,,4,having
screen,html.Screen,2_1_0_1_5,2022-04-25T17:19:44.180Z,,,,,,,,,,,,,,,,,53,,,,,,,,,,,,,,387.24700000017765,,response,,,,99,,,,,,,Space,keypress(Space),,,,,,,,---- -- ----- -- ------ a ------- --- ----------<br>------------- ------ ------ ---- ---- ------- ----- -- ----<br>-------- ------- -- ---------- --- - --- ----- ----- ----<br>---- --- --- ----- --- ---- ---- ------- ----- ---- -------<br>--- --- -- ----- -- --- ---- -- --- ---- -- ------ ------<br>--- ----- -- ----,151768.2000000002,151766.2000000002,151362.287,151371.10000000056,151378.953,151778.961,,5,a
screen,html.Screen,2_1_0_1_6,2022-04-25T17:19:44.552Z,,,,,,,,,,,,,,,,,53,,,,,,,,,,,,,,359.03899999998976,,response,,,,99,,,,,,,Space,keypress(Space),,,,,,,,---- -- ----- -- ------ - lasting --- ----------<br>------------- ------ ------ ---- ---- ------- ----- -- ----<br>-------- ------- -- ---------- --- - --- ----- ----- ----<br>---- --- --- ----- --- ---- ---- ------- ----- ---- -------<br>--- --- -- ----- -- --- ---- -- --- ---- -- ------ ------<br>--- ----- -- ----,152140,152138,151762.295,151768.40000000037,151778.961,152145.635,,6,lasting
screen,html.Screen,2_1_0_1_7,2022-04-25T17:19:45.016Z,,,,,,,,,,,,,,,,,53,,,,,,,,,,,,,,456.7650000003632,,response,,,,99,,,,,,,Space,keypress(Space),,,,,,,,---- -- ----- -- ------ - ------- and ----------<br>------------- ------ ------ ---- ---- ------- ----- -- ----<br>-------- ------- -- ---------- --- - --- ----- ----- ----<br>---- --- --- ----- --- ---- ---- ------- ----- ---- -------<br>--- --- -- ----- -- --- ---- -- --- ---- -- ------ ------<br>--- ----- -- ----,152604.2999999998,152602.40000000037,152128.969,152140.10000000056,152145.635,152612.305,,7,and
screen,html.Screen,2_1_0_1_8,2022-04-25T17:19:45.356Z,,,,,,,,,,,,,,,,,53,,,,,,,,,,,,,,330.2950000005658,,response,,,,99,,,,,,,Space,keypress(Space),,,,,,,,---- -- ----- -- ------ - ------- --- fulfilling<br>------------- ------ ------ ---- ---- ------- ----- -- ----<br>-------- ------- -- ---------- --- - --- ----- ----- ----<br>---- --- --- ----- --- ---- ---- ------- ----- ---- -------<br>--- --- -- ----- -- --- ---- -- --- ---- -- ------ ------<br>--- ----- -- ----,152944.60000000056,152942.60000000056,152595.639,152604.5,152612.305,152962.32,,8,fulfilling
screen,html.Screen,2_1_0_1_9,2022-04-25T17:19:46.254Z,,,,,,,,,,,,,,,,,53,,,,,,,,,,,,,,877.7800000005518,,response,,,,99,,,,,,,Space,keypress(Space),,,,,,,,"---- -- ----- -- ------ - ------- --- ----------<br>relationship, ------ ------ ---- ---- ------- ----- -- ----<br>-------- ------- -- ---------- --- - --- ----- ----- ----<br>---- --- --- ----- --- ---- ---- ------- ----- ---- -------<br>--- --- -- ----- -- --- ---- -- --- ---- -- ------ ------<br>--- ----- -- ----",153842.2999999998,153840.10000000056,152945.654,152944.7000000002,152962.32,153845.636,,9,"relationship,"
screen,html.Screen,2_1_0_1_10,2022-04-25T17:19:46.763Z,,,,,,,,,,,,,,,,,53,,,,,,,,,,,,,,503.3640000000014,,response,,,,99,,,,,,,Space,keypress(Space),,,,,,,,---- -- ----- -- ------ - ------- --- ----------<br>------------- common ------ ---- ---- ------- ----- -- ----<br>-------- ------- -- ---------- --- - --- ----- ----- ----<br>---- --- --- ----- --- ---- ---- ------- ----- ---- -------<br>--- --- -- ----- -- --- ---- -- --- ---- -- ------ ------<br>--- ----- -- ----,154350.90000000037,154349,153828.97,153842.40000000037,153845.636,154362.345,,10,common
screen,html.Screen,2_1_0_1_11,2022-04-25T17:19:47.329Z,,,,,,,,,,,,,,,,,53,,,,,,,,,,,,,,553.1549999999988,,response,,,,99,,,,,,,Space,keypress(Space),,,,,,,,---- -- ----- -- ------ - ------- --- ----------<br>------------- ------ wisdom ---- ---- ------- ----- -- ----<br>-------- ------- -- ---------- --- - --- ----- ----- ----<br>---- --- --- ----- --- ---- ---- ------- ----- ---- -------<br>--- --- -- ----- -- --- ---- -- --- ---- -- ------ ------<br>--- ----- -- ----,154917.5,154915.5,154345.679,154351.10000000056,154362.345,154929.004,,11,wisdom
screen,html.Screen,2_1_0_1_12,2022-04-25T17:19:47.886Z,,,,,,,,,,,,,,,,,53,,,,,,,,,,,,,,543.3960000003863,,response,,,,99,,,,,,,Space,keypress(Space),,,,,,,,---- -- ----- -- ------ - ------- --- ----------<br>------------- ------ ------ says ---- ------- ----- -- ----<br>-------- ------- -- ---------- --- - --- ----- ----- ----<br>---- --- --- ----- --- ---- ---- ------- ----- ---- -------<br>--- --- -- ----- -- --- ---- -- --- ---- -- ------ ------<br>--- ----- -- ----,155474.10000000056,155472.40000000037,154912.338,154917.7000000002,154929.004,155479.028,,12,says
screen,html.Screen,2_1_0_1_13,2022-04-25T17:19:48.337Z,,,,,,,,,,,,,,,,,53,,,,,,,,,,,,,,444.07200000056764,,response,,,,99,,,,,,,Space,keypress(Space),,,,,,,,---- -- ----- -- ------ - ------- --- ----------<br>------------- ------ ------ ---- that ------- ----- -- ----<br>-------- ------- -- ---------- --- - --- ----- ----- ----<br>---- --- --- ----- --- ---- ---- ------- ----- ---- -------<br>--- --- -- ----- -- --- ---- -- --- ---- -- ------ ------<br>--- ----- -- ----,155924.7999999998,155923.10000000056,155462.362,155474.2999999998,155479.028,155929.031,,13,that
screen,html.Screen,2_1_0_1_14,2022-04-25T17:19:49.126Z,,,,,,,,,,,,,,,,,53,,,,,,,,,,,,,,784.0690000005707,,response,,,,99,,,,,,,Space,keypress(Space),,,,,,,,---- -- ----- -- ------ - ------- --- ----------<br>------------- ------ ------ ---- ---- feeling ----- -- ----<br>-------- ------- -- ---------- --- - --- ----- ----- ----<br>---- --- --- ----- --- ---- ---- ------- ----- ---- -------<br>--- --- -- ----- -- --- ---- -- --- ---- -- ------ ------<br>--- ----- -- ----,156714.7000000002,156713.10000000056,155912.365,155924.90000000037,155929.031,156729.033,,14,feeling
screen,html.Screen,2_1_0_1_15,2022-04-25T17:19:49.577Z,,,,,,,,,,,,,,,,,53,,,,,,,,,,,,,,433.9670000000042,,response,,,,99,,,,,,,Space,keypress(Space),,,,,,,,---- -- ----- -- ------ - ------- --- ----------<br>------------- ------ ------ ---- ---- ------- close -- ----<br>-------- ------- -- ---------- --- - --- ----- ----- ----<br>---- --- --- ----- --- ---- ---- ------- ----- ---- -------<br>--- --- -- ----- -- --- ---- -- --- ---- -- ------ ------<br>--- ----- -- ----,157165.10000000056,157163,156712.367,156714.7999999998,156729.033,157179.052,,15,close
screen,html.Screen,2_1_0_1_16,2022-04-25T17:19:49.979Z,,,,,,,,,,,,,,,,,53,,,,,,,,,,,,,,385.94800000000396,,response,,,,99,,,,,,,Space,keypress(Space),,,,,,,,---- -- ----- -- ------ - ------- --- ----------<br>------------- ------ ------ ---- ---- ------- ----- to ----<br>-------- ------- -- ---------- --- - --- ----- ----- ----<br>---- --- --- ----- --- ---- ---- ------- ----- ---- -------<br>--- --- -- ----- -- --- ---- -- --- ---- -- ------ ------<br>--- ----- -- ----,157566.90000000037,157565,157162.386,157165.2999999998,157179.052,157579.058,,16,to
screen,html.Screen,2_1_0_1_17,2022-04-25T17:19:50.270Z,,,,,,,,,,,,,,,,,53,,,,,,,,,,,,,,277.0420000005688,,response,,,,99,,,,,,,Space,keypress(Space),,,,,,,,---- -- ----- -- ------ - ------- --- ----------<br>------------- ------ ------ ---- ---- ------- ----- -- your<br>-------- ------- -- ---------- --- - --- ----- ----- ----<br>---- --- --- ----- --- ---- ---- ------- ----- ---- -------<br>--- --- -- ----- -- --- ---- -- --- ---- -- ------ ------<br>--- ----- -- ----,157857.90000000037,157856.10000000056,157562.392,157567.10000000056,157579.058,157862.412,,17,your
screen,html.Screen,2_1_0_1_18,2022-04-25T17:19:50.622Z,,,,,,,,,,,,,,,,,53,,,,,,,,,,,,,,345.98800000036135,,response,,,,99,,,,,,,Space,keypress(Space),,,,,,,,---- -- ----- -- ------ - ------- --- ----------<br>------------- ------ ------ ---- ---- ------- ----- -- ----<br>romantic ------- -- ---------- --- - --- ----- ----- ----<br>---- --- --- ----- --- ---- ---- ------- ----- ---- -------<br>--- --- -- ----- -- --- ---- -- --- ---- -- ------ ------<br>--- ----- -- ----,158210.7000000002,158208.40000000037,157845.746,157858.10000000056,157862.412,158212.413,,18,romantic
screen,html.Screen,2_1_0_1_19,2022-04-25T17:19:50.949Z,,,,,,,,,,,,,,,,,53,,,,,,,,,,,,,,323.1870000005583,,response,,,,99,,,,,,,Space,keypress(Space),,,,,,,,---- -- ----- -- ------ - ------- --- ----------<br>------------- ------ ------ ---- ---- ------- ----- -- ----<br>-------- partner -- ---------- --- - --- ----- ----- ----<br>---- --- --- ----- --- ---- ---- ------- ----- ---- -------<br>--- --- -- ----- -- --- ---- -- --- ---- -- ------ ------<br>--- ----- -- ----,158537.2000000002,158535.60000000056,158195.747,158210.7999999998,158212.413,158545.754,,19,partner
screen,html.Screen,2_1_0_1_20,2022-04-25T17:19:51.219Z,,,,,,,,,,,,,,,,,53,,,,,,,,,,,,,,259.84600000057253,,response,,,,99,,,,,,,Space,keypress(Space),,,,,,,,---- -- ----- -- ------ - ------- --- ----------<br>------------- ------ ------ ---- ---- ------- ----- -- ----<br>-------- ------- is ---------- --- - --- ----- ----- ----<br>---- --- --- ----- --- ---- ---- ------- ----- ---- -------<br>--- --- -- ----- -- --- ---- -- --- ---- -- ------ ------<br>--- ----- -- ----,158807.40000000037,158805.60000000056,158529.088,158537.2999999998,158545.754,158812.427,,20,is
screen,html.Screen,2_1_0_1_21,2022-04-25T17:19:51.518Z,,,,,,,,,,,,,,,,,53,,,,,,,,,,,,,,290.67300000056275,,response,,,,99,,,,,,,Space,keypress(Space),,,,,,,,---- -- ----- -- ------ - ------- --- ----------<br>------------- ------ ------ ---- ---- ------- ----- -- ----<br>-------- ------- -- paramount. --- - --- ----- ----- ----<br>---- --- --- ----- --- ---- ---- ------- ----- ---- -------<br>--- --- -- ----- -- --- ---- -- --- ---- -- ------ ------<br>--- ----- -- ----,159105.7000000002,159103.10000000056,158795.761,158807.5,158812.427,159112.427,,21,paramount.
screen,html.Screen,2_1_0_1_22,2022-04-25T17:19:51.838Z,,,,,,,,,,,,,,,,,53,,,,,,,,,,,,,,311.9730000003765,,response,,,,99,,,,,,,Space,keypress(Space),,,,,,,,---- -- ----- -- ------ - ------- --- ----------<br>------------- ------ ------ ---- ---- ------- ----- -- ----<br>-------- ------- -- ---------- But - --- ----- ----- ----<br>---- --- --- ----- --- ---- ---- ------- ----- ---- -------<br>--- --- -- ----- -- --- ---- -- --- ---- -- ------ ------<br>--- ----- -- ----,159426.40000000037,159424.40000000037,159095.761,159106,159112.427,159429.104,,22,But
screen,html.Screen,2_1_0_1_23,2022-04-25T17:19:52.168Z,,,,,,,,,,,,,,,,,53,,,,,,,,,,,,,,325.79600000038045,,response,,,,99,,,,,,,Space,keypress(Space),,,,,,,,---- -- ----- -- ------ - ------- --- ----------<br>------------- ------ ------ ---- ---- ------- ----- -- ----<br>-------- ------- -- ---------- --- a --- ----- ----- ----<br>---- --- --- ----- --- ---- ---- ------- ----- ---- -------<br>--- --- -- ----- -- --- ---- -- --- ---- -- ------ ------<br>--- ----- -- ----,159756.5,159754.90000000037,159412.438,159426.60000000056,159429.104,159762.446,,23,a
screen,html.Screen,2_1_0_1_24,2022-04-25T17:19:52.475Z,,,,,,,,,,,,,,,,,53,,,,,,,,,,,,,,299.0540000000037,,response,,,,99,,,,,,,Space,keypress(Space),,,,,,,,---- -- ----- -- ------ - ------- --- ----------<br>------------- ------ ------ ---- ---- ------- ----- -- ----<br>-------- ------- -- ---------- --- - new ----- ----- ----<br>---- --- --- ----- --- ---- ---- ------- ----- ---- -------<br>--- --- -- ----- -- --- ---- -- --- ---- -- ------ ------<br>--- ----- -- ----,160063,160061.5,159745.78,159756.7000000002,159762.446,160079.11,,24,new
screen,html.Screen,2_1_0_1_25,2022-04-25T17:19:52.787Z,,,,,,,,,,,,,,,,,53,,,,,,,,,,,,,,294.1899999998277,,response,,,,99,,,,,,,Space,keypress(Space),,,,,,,,---- -- ----- -- ------ - ------- --- ----------<br>------------- ------ ------ ---- ---- ------- ----- -- ----<br>-------- ------- -- ---------- --- - --- study ----- ----<br>---- --- --- ----- --- ---- ---- ------- ----- ---- -------<br>--- --- -- ----- -- --- ---- -- --- ---- -- ------ ------<br>--- ----- -- ----,160374.90000000037,160373.2999999998,160062.444,160063.2000000002,160079.11,160379.118,,25,study
screen,html.Screen,2_1_0_1_26,2022-04-25T17:19:53.105Z,,,,,,,,,,,,,,,,,53,,,,,,,,,,,,,,312.48200000057113,,response,,,,99,,,,,,,Space,keypress(Space),,,,,,,,---- -- ----- -- ------ - ------- --- ----------<br>------------- ------ ------ ---- ---- ------- ----- -- ----<br>-------- ------- -- ---------- --- - --- ----- finds ----<br>---- --- --- ----- --- ---- ---- ------- ----- ---- -------<br>--- --- -- ----- -- --- ---- -- --- ---- -- ------ ------<br>--- ----- -- ----,160693.5,160691.60000000056,160362.452,160375.10000000056,160379.118,160695.796,,26,finds
screen,html.Screen,2_1_0_1_27,2022-04-25T17:19:53.433Z,,,,,,,,,,,,,,,,,53,,,,,,,,,,,,,,323.60400000037043,,response,,,,99,,,,,,,Space,keypress(Space),,,,,,,,---- -- ----- -- ------ - ------- --- ----------<br>------------- ------ ------ ---- ---- ------- ----- -- ----<br>-------- ------- -- ---------- --- - --- ----- ----- that<br>---- --- --- ----- --- ---- ---- ------- ----- ---- -------<br>--- --- -- ----- -- --- ---- -- --- ---- -- ------ ------<br>--- ----- -- ----,161021.5,161019.40000000037,160679.13,160693.60000000056,160695.796,161029.123,,27,that
screen,html.Screen,2_1_0_1_28,2022-04-25T17:19:53.770Z,,,,,,,,,,,,,,,,,53,,,,,,,,,,,,,,327.1769999998214,,response,,,,99,,,,,,,Space,keypress(Space),,,,,,,,---- -- ----- -- ------ - ------- --- ----------<br>------------- ------ ------ ---- ---- ------- ----- -- ----<br>-------- ------- -- ---------- --- - --- ----- ----- ----<br>it's --- --- ----- --- ---- ---- ------- ----- ---- -------<br>--- --- -- ----- -- --- ---- -- --- ---- -- ------ ------<br>--- ----- -- ----,161357.90000000037,161356.2999999998,161012.457,161021.60000000056,161029.123,161362.467,,28,it's
screen,html.Screen,2_1_0_1_29,2022-04-25T17:19:54.080Z,,,,,,,,,,,,,,,,,53,,,,,,,,,,,,,,303.83299999980954,,response,,,,99,,,,,,,Space,keypress(Space),,,,,,,,---- -- ----- -- ------ - ------- --- ----------<br>------------- ------ ------ ---- ---- ------- ----- -- ----<br>-------- ------- -- ---------- --- - --- ----- ----- ----<br>---- not --- ----- --- ---- ---- ------- ----- ---- -------<br>--- --- -- ----- -- --- ---- -- --- ---- -- ------ ------<br>--- ----- -- ----,161668.2000000002,161666.2999999998,161345.801,161358.10000000056,161362.467,161679.144,,29,not
screen,html.Screen,2_1_0_1_30,2022-04-25T17:19:54.371Z,,,,,,,,,,,,,,,,,53,,,,,,,,,,,,,,277.7560000003723,,response,,,,99,,,,,,,Space,keypress(Space),,,,,,,,---- -- ----- -- ------ - ------- --- ----------<br>------------- ------ ------ ---- ---- ------- ----- -- ----<br>-------- ------- -- ---------- --- - --- ----- ----- ----<br>---- --- how ----- --- ---- ---- ------- ----- ---- -------<br>--- --- -- ----- -- --- ---- -- --- ---- -- ------ ------<br>--- ----- -- ----,161959,161956.90000000037,161662.478,161668.40000000037,161679.144,161962.486,,30,how
screen,html.Screen,2_1_0_1_31,2022-04-25T17:19:54.702Z,,,,,,,,,,,,,,,,,53,,,,,,,,,,,,,,325.9140000003681,,response,,,,99,,,,,,,Space,keypress(Space),,,,,,,,---- -- ----- -- ------ - ------- --- ----------<br>------------- ------ ------ ---- ---- ------- ----- -- ----<br>-------- ------- -- ---------- --- - --- ----- ----- ----<br>---- --- --- close --- ---- ---- ------- ----- ---- -------<br>--- --- -- ----- -- --- ---- -- --- ---- -- ------ ------<br>--- ----- -- ----,162290.2999999998,162288.40000000037,161945.82,161959.10000000056,161962.486,162295.815,,31,close
screen,html.Screen,2_1_0_1_32,2022-04-25T17:19:55.004Z,,,,,,,,,,,,,,,,,53,,,,,,,,,,,,,,294.78500000055647,,response,,,,99,,,,,,,Space,keypress(Space),,,,,,,,---- -- ----- -- ------ - ------- --- ----------<br>------------- ------ ------ ---- ---- ------- ----- -- ----<br>-------- ------- -- ---------- --- - --- ----- ----- ----<br>---- --- --- ----- you ---- ---- ------- ----- ---- -------<br>--- --- -- ----- -- --- ---- -- --- ---- -- ------ ------<br>--- ----- -- ----,162592.60000000056,162590.60000000056,162279.149,162290.5,162295.815,162595.821,,32,you
screen,html.Screen,2_1_0_1_33,2022-04-25T17:19:55.458Z,,,,,,,,,,,,,,,,,53,,,,,,,,,,,,,,448.1790000000037,,response,,,,99,,,,,,,Space,keypress(Space),,,,,,,,---- -- ----- -- ------ - ------- --- ----------<br>------------- ------ ------ ---- ---- ------- ----- -- ----<br>-------- ------- -- ---------- --- - --- ----- ----- ----<br>---- --- --- ----- --- feel ---- ------- ----- ---- -------<br>--- --- -- ----- -- --- ---- -- --- ---- -- ------ ------<br>--- ----- -- ----,163045.7999999998,163044,162579.155,162592.7000000002,162595.821,163062.487,,33,feel
screen,html.Screen,2_1_0_1_34,2022-04-25T17:19:55.701Z,,,,,,,,,,,,,,,,,53,,,,,,,,,,,,,,225.31299999982002,,response,,,,99,,,,,,,Space,keypress(Space),,,,,,,,---- -- ----- -- ------ - ------- --- ----------<br>------------- ------ ------ ---- ---- ------- ----- -- ----<br>-------- ------- -- ---------- --- - --- ----- ----- ----<br>---- --- --- ----- --- ---- that ------- ----- ---- -------<br>--- --- -- ----- -- --- ---- -- --- ---- -- ------ ------<br>--- ----- -- ----,163289.60000000056,163287.7999999998,163045.821,163046,163062.487,163295.832,,34,that
screen,html.Screen,2_1_0_1_35,2022-04-25T17:19:55.886Z,,,,,,,,,,,,,,,,,53,,,,,,,,,,,,,,176.76800000056392,,response,,,,99,,,,,,,Space,keypress(Space),,,,,,,,---- -- ----- -- ------ - ------- --- ----------<br>------------- ------ ------ ---- ---- ------- ----- -- ----<br>-------- ------- -- ---------- --- - --- ----- ----- ----<br>---- --- --- ----- --- ---- ---- matters ----- ---- -------<br>--- --- -- ----- -- --- ---- -- --- ---- -- ------ ------<br>--- ----- -- ----,163474.5,163472.60000000056,163279.166,163289.7999999998,163295.832,163479.176,,35,matters
screen,html.Screen,2_1_0_1_36,2022-04-25T17:19:56.147Z,,,,,,,,,,,,,,,,,53,,,,,,,,,,,,,,253.92400000055204,,response,,,,99,,,,,,,Space,keypress(Space),,,,,,,,"---- -- ----- -- ------ - ------- --- ----------<br>------------- ------ ------ ---- ---- ------- ----- -- ----<br>-------- ------- -- ---------- --- - --- ----- ----- ----<br>---- --- --- ----- --- ---- ---- ------- most, ---- -------<br>--- --- -- ----- -- --- ---- -- --- ---- -- ------ ------<br>--- ----- -- ----",163734.90000000037,163733.10000000056,163462.51,163474.7000000002,163479.176,163745.849,,36,"most,"
screen,html.Screen,2_1_0_1_37,2022-04-25T17:19:56.616Z,,,,,,,,,,,,,,,,,53,,,,,,,,,,,,,,455.6510000000126,,response,,,,99,,,,,,,Space,keypress(Space),,,,,,,,---- -- ----- -- ------ - ------- --- ----------<br>------------- ------ ------ ---- ---- ------- ----- -- ----<br>-------- ------- -- ---------- --- - --- ----- ----- ----<br>---- --- --- ----- --- ---- ---- ------- ----- it's -------<br>--- --- -- ----- -- --- ---- -- --- ---- -- ------ ------<br>--- ----- -- ----,164203.90000000037,164201.5,163729.183,163735,163745.849,164212.505,,37,it's
screen,html.Screen,2_1_0_1_38,2022-04-25T17:19:56.978Z,,,,,,,,,,,,,,,,,53,,,,,,,,,,,,,,351.8950000003679,,response,,,,99,,,,,,,Space,keypress(Space),,,,,,,,---- -- ----- -- ------ - ------- --- ----------<br>------------- ------ ------ ---- ---- ------- ----- -- ----<br>-------- ------- -- ---------- --- - --- ----- ----- ----<br>---- --- --- ----- --- ---- ---- ------- ----- ---- whether<br>--- --- -- ----- -- --- ---- -- --- ---- -- ------ ------<br>--- ----- -- ----,164566.2999999998,164564.40000000037,164195.839,164204.10000000056,164212.505,164579.186,,38,whether
screen,html.Screen,2_1_0_1_39,2022-04-25T17:19:57.205Z,,,,,,,,,,,,,,,,,53,,,,,,,,,,,,,,212.5140000001993,,response,,,,99,,,,,,,Space,keypress(Space),,,,,,,,---- -- ----- -- ------ - ------- --- ----------<br>------------- ------ ------ ---- ---- ------- ----- -- ----<br>-------- ------- -- ---------- --- - --- ----- ----- ----<br>---- --- --- ----- --- ---- ---- ------- ----- ---- -------<br>you --- -- ----- -- --- ---- -- --- ---- -- ------ ------<br>--- ----- -- ----,164793.5,164791.7000000002,164562.52,164566.40000000037,164579.186,164795.861,,39,you
screen,html.Screen,2_1_0_1_40,2022-04-25T17:19:57.573Z,,,,,,,,,,,,,,,,,53,,,,,,,,,,,,,,363.1389999999956,,response,,,,99,,,,,,,Space,keypress(Space),,,,,,,,---- -- ----- -- ------ - ------- --- ----------<br>------------- ------ ------ ---- ---- ------- ----- -- ----<br>-------- ------- -- ---------- --- - --- ----- ----- ----<br>---- --- --- ----- --- ---- ---- ------- ----- ---- -------<br>--- are -- ----- -- --- ---- -- --- ---- -- ------ ------<br>--- ----- -- ----,165161,165159,164779.195,164793.60000000056,164795.861,165162.524,,40,are
screen,html.Screen,2_1_0_1_41,2022-04-25T17:19:57.899Z,,,,,,,,,,,,,,,,,53,,,,,,,,,,,,,,323.0760000005539,,response,,,,99,,,,,,,Space,keypress(Space),,,,,,,,---- -- ----- -- ------ - ------- --- ----------<br>------------- ------ ------ ---- ---- ------- ----- -- ----<br>-------- ------- -- ---------- --- - --- ----- ----- ----<br>---- --- --- ----- --- ---- ---- ------- ----- ---- -------<br>--- --- as ----- -- --- ---- -- --- ---- -- ------ ------<br>--- ----- -- ----,165487.40000000037,165485.60000000056,165145.858,165161.2000000002,165162.524,165495.865,,41,as
screen,html.Screen,2_1_0_1_42,2022-04-25T17:19:58.181Z,,,,,,,,,,,,,,,,,53,,,,,,,,,,,,,,271.03500000038184,,response,,,,99,,,,,,,Space,keypress(Space),,,,,,,,---- -- ----- -- ------ - ------- --- ----------<br>------------- ------ ------ ---- ---- ------- ----- -- ----<br>-------- ------- -- ---------- --- - --- ----- ----- ----<br>---- --- --- ----- --- ---- ---- ------- ----- ---- -------<br>--- --- -- close -- --- ---- -- --- ---- -- ------ ------<br>--- ----- -- ----,165768.7999999998,165766.90000000037,165479.199,165487.60000000056,165495.865,165779.215,,42,close
screen,html.Screen,2_1_0_1_43,2022-04-25T17:19:58.506Z,,,,,,,,,,,,,,,,,53,,,,,,,,,,,,,,313.185000000376,,response,,,,99,,,,,,,Space,keypress(Space),,,,,,,,---- -- ----- -- ------ - ------- --- ----------<br>------------- ------ ------ ---- ---- ------- ----- -- ----<br>-------- ------- -- ---------- --- - --- ----- ----- ----<br>---- --- --- ----- --- ---- ---- ------- ----- ---- -------<br>--- --- -- ----- as --- ---- -- --- ---- -- ------ ------<br>--- ----- -- ----,166094.40000000037,166092.40000000037,165762.549,165769,165779.215,166095.878,,43,as
screen,html.Screen,2_1_0_1_44,2022-04-25T17:19:58.782Z,,,,,,,,,,,,,,,,,53,,,,,,,,,,,,,,272.52200000037556,,response,,,,99,,,,,,,Space,keypress(Space),,,,,,,,---- -- ----- -- ------ - ------- --- ----------<br>------------- ------ ------ ---- ---- ------- ----- -- ----<br>-------- ------- -- ---------- --- - --- ----- ----- ----<br>---- --- --- ----- --- ---- ---- ------- ----- ---- -------<br>--- --- -- ----- -- you ---- -- --- ---- -- ------ ------<br>--- ----- -- ----,166370.2000000002,166368.40000000037,166079.212,166094.5,166095.878,166379.224,,44,you
screen,html.Screen,2_1_0_1_45,2022-04-25T17:19:59.113Z,,,,,,,,,,,,,,,,,53,,,,,,,,,,,,,,319.6760000003851,,response,,,,99,,,,,,,Space,keypress(Space),,,,,,,,---- -- ----- -- ------ - ------- --- ----------<br>------------- ------ ------ ---- ---- ------- ----- -- ----<br>-------- ------- -- ---------- --- - --- ----- ----- ----<br>---- --- --- ----- --- ---- ---- ------- ----- ---- -------<br>--- --- -- ----- -- --- want -- --- ---- -- ------ ------<br>--- ----- -- ----,166700.7000000002,166698.90000000037,166362.558,166370.40000000037,166379.224,166712.562,,45,want
screen,html.Screen,2_1_0_1_46,2022-04-25T17:19:59.484Z,,,,,,,,,,,,,,,,,53,,,,,,,,,,,,,,357.7379999998084,,response,,,,99,,,,,,,Space,keypress(Space),,,,,,,,---- -- ----- -- ------ - ------- --- ----------<br>------------- ------ ------ ---- ---- ------- ----- -- ----<br>-------- ------- -- ---------- --- - --- ----- ----- ----<br>---- --- --- ----- --- ---- ---- ------- ----- ---- -------<br>--- --- -- ----- -- --- ---- to --- ---- -- ------ ------<br>--- ----- -- ----,167072.10000000056,167070.2999999998,166695.896,166700.90000000037,166712.562,167079.224,,46,to
screen,html.Screen,2_1_0_1_47,2022-04-25T17:19:59.860Z,,,,,,,,,,,,,,,,,53,,,,,,,,,,,,,,367.47600000019884,,response,,,,99,,,,,,,Space,keypress(Space),,,,,,,,"---- -- ----- -- ------ - ------- --- ----------<br>------------- ------ ------ ---- ---- ------- ----- -- ----<br>-------- ------- -- ---------- --- - --- ----- ----- ----<br>---- --- --- ----- --- ---- ---- ------- ----- ---- -------<br>--- --- -- ----- -- --- ---- -- be, ---- -- ------ ------<br>--- ----- -- ----",167448.60000000056,167446.7000000002,167062.558,167072.2999999998,167079.224,167462.573,,47,"be,"
screen,html.Screen,2_1_0_1_48,2022-04-25T17:20:00.446Z,,,,,,,,,,,,,,,,,53,,,,,,,,,,,,,,569.3270000003686,,response,,,,99,,,,,,,Space,keypress(Space),,,,,,,,---- -- ----- -- ------ - ------- --- ----------<br>------------- ------ ------ ---- ---- ------- ----- -- ----<br>-------- ------- -- ---------- --- - --- ----- ----- ----<br>---- --- --- ----- --- ---- ---- ------- ----- ---- -------<br>--- --- -- ----- -- --- ---- -- --- even -- ------ ------<br>--- ----- -- ----,168033.90000000037,168031.90000000037,167445.907,167448.7000000002,167462.573,168045.9,,48,even
screen,html.Screen,2_1_0_1_49,2022-04-25T17:20:00.782Z,,,,,,,,,,,,,,,,,53,,,,,,,,,,,,,,322.3000000001921,,response,,,,99,,,,,,,Space,keypress(Space),,,,,,,,---- -- ----- -- ------ - ------- --- ----------<br>------------- ------ ------ ---- ---- ------- ----- -- ----<br>-------- ------- -- ---------- --- - --- ----- ----- ----<br>---- --- --- ----- --- ---- ---- ------- ----- ---- -------<br>--- --- -- ----- -- --- ---- -- --- ---- if ------ ------<br>--- ----- -- ----,168370.40000000037,168368.2000000002,168029.234,168034,168045.9,168379.259,,49,if
screen,html.Screen,2_1_0_1_50,2022-04-25T17:20:01.070Z,,,,,,,,,,,,,,,,,53,,,,,,,,,,,,,,277.2410000000091,,response,,,,99,,,,,,,Space,keypress(Space),,,,,,,,---- -- ----- -- ------ - ------- --- ----------<br>------------- ------ ------ ---- ---- ------- ----- -- ----<br>-------- ------- -- ---------- --- - --- ----- ----- ----<br>---- --- --- ----- --- ---- ---- ------- ----- ---- -------<br>--- --- -- ----- -- --- ---- -- --- ---- -- that's ------<br>--- ----- -- ----,168658.40000000037,168656.5,168362.593,168370.5,168379.259,168662.598,,50,that's
screen,html.Screen,2_1_0_1_51,2022-04-25T17:20:01.618Z,,,,,,,,,,,,,,,,,53,,,,,,,,,,,,,,541.9020000000019,,response,,,,99,,,,,,,Space,keypress(Space),,,,,,,,---- -- ----- -- ------ - ------- --- ----------<br>------------- ------ ------ ---- ---- ------- ----- -- ----<br>-------- ------- -- ---------- --- - --- ----- ----- ----<br>---- --- --- ----- --- ---- ---- ------- ----- ---- -------<br>--- --- -- ----- -- --- ---- -- --- ---- -- ------ really<br>--- ----- -- ----,169206.5,169204.5,168645.932,168658.60000000056,168662.598,169212.587,,51,really
screen,html.Screen,2_1_0_1_52,2022-04-25T17:20:02.125Z,,,,,,,,,,,,,,,,,53,,,,,,,,,,,,,,499.01300000055926,,response,,,,99,,,,,,,Space,keypress(Space),,,,,,,,---- -- ----- -- ------ - ------- --- ----------<br>------------- ------ ------ ---- ---- ------- ----- -- ----<br>-------- ------- -- ---------- --- - --- ----- ----- ----<br>---- --- --- ----- --- ---- ---- ------- ----- ---- -------<br>--- --- -- ----- -- --- ---- -- --- ---- -- ------ ------<br>not ----- -- ----,169713.5,169711.60000000056,169195.921,169206.7000000002,169212.587,169729.262,,52,not
screen,html.Screen,2_1_0_1_53,2022-04-25T17:20:02.517Z,,,,,,,,,,,,,,,,,53,,,,,,,,,,,,,,374.4380000001984,,response,,,,99,,,,,,,Space,keypress(Space),,,,,,,,---- -- ----- -- ------ - ------- --- ----------<br>------------- ------ ------ ---- ---- ------- ----- -- ----<br>-------- ------- -- ---------- --- - --- ----- ----- ----<br>---- --- --- ----- --- ---- ---- ------- ----- ---- -------<br>--- --- -- ----- -- --- ---- -- --- ---- -- ------ ------<br>--- close -- ----,170105.5,170103.7000000002,169712.596,169713.60000000056,169729.262,170112.61,,53,close
screen,html.Screen,2_1_0_1_54,2022-04-25T17:20:02.898Z,,,,,,,,,,,,,,,,,53,,,,,,,,,,,,,,371.99000000057276,,response,,,,99,,,,,,,Space,keypress(Space),,,,,,,,---- -- ----- -- ------ - ------- --- ----------<br>------------- ------ ------ ---- ---- ------- ----- -- ----<br>-------- ------- -- ---------- --- - --- ----- ----- ----<br>---- --- --- ----- --- ---- ---- ------- ----- ---- -------<br>--- --- -- ----- -- --- ---- -- --- ---- -- ------ ------<br>--- ----- at ----,170486.60000000056,170484.60000000056,170095.944,170105.7000000002,170112.61,170495.952,,54,at
screen,html.Screen,2_1_0_1_55,2022-04-25T17:20:03.275Z,,,,,,,,,,,,,,,,,53,,,,,,,,,,,,,,365.0480000000098,,response,,,,99,,,,,,,Space,keypress(Space),,,,,,,,---- -- ----- -- ------ - ------- --- ----------<br>------------- ------ ------ ---- ---- ------- ----- -- ----<br>-------- ------- -- ---------- --- - --- ----- ----- ----<br>---- --- --- ----- --- ---- ---- ------- ----- ---- -------<br>--- --- -- ----- -- --- ---- -- --- ---- -- ------ ------<br>--- ----- -- all.,170863,170861,170479.286,170486.7000000002,170495.952,170879.293,,55,all.
Item 99,flow.Loop,2_1_0_1,2022-04-25T17:20:03.275Z,,,,,,,,,,,,,,,,,,,,,,,,,,,,,,,24065.48999999999,,completion,,,,,B,,,,,,,,,,,silence,,,,,170863.40000000037,170861,146778.844,146780,146795.51,170879.293,,,
Question 1,html.Screen,2_1_0_2,2022-04-25T17:20:10.452Z,,,,,,,,,,,,,,,,,,,,,,,,,,,,true,FALSE,,7159.206999999995,,response,,,,99,B,,,,,,FALSE,click #choice-2,,,,silence,,,,,178040.40000000037,178038.5,170862.627,170863.5,170879.293,178046.096,,,
Question 2,html.Screen,2_1_0_3,2022-04-25T17:20:14.998Z,,,,,,,,,,,,,,,,,,,,,,,,,,,,true,TRUE,,4538.304000000382,,response,,,,99,B,,,,,,TRUE,click #choice-1,,,,silence,,,,,182586.10000000056,182584.40000000037,178029.43,178040.60000000056,178046.096,182596.159,,,
Item 99,flow.Sequence,2_1_0,2022-04-25T17:20:14.998Z,,,,,,,,,,,,,,,,,,,,,,,,,,,,,,,45789.02000000037,,completion,,,,,,,,,,,,,,,,,,,,,182586.40000000037,182584.40000000037,136778.714,136791.2000000002,136795.38,182596.159,,,
Holding screen,html.Screen,2_1_1_0,2022-04-25T17:20:24.992Z,,,,,,,,,,,,,,,,,,,,,,,,,,,,,,,10000.132999999973,,timeout,,,,,,,,,,,,,,,,,,,,,192580.7000000002,192579.626,182579.493,182586.60000000056,182596.159,192596.292,,,
screen,html.Screen,2_1_1_1_0,2022-04-25T17:20:25.825Z,,,,,,,,,,,,,,,,,54,,,,,,,,,,,,,,814.4080000001995,,response,,,,100,,,,,,,Space,keypress(Space),,,,,,,,At --- ---- --- ------ ----- ------- ---- -- --- ------- --<br>------- ---------- ------ -- ----- -- ----- -- ---- ------<br>--- ----- --- --- ------ -------- ----- --- ------ ----- --<br>----- ----- ---------- --- --- ------ ------ ---- -- ------<br>------- --- ------ ----- --- ---- ------- -- ---- --- --<br>------- ------,193413.2999999998,193410.7000000002,192579.626,192580.90000000037,192596.292,193429.647,,0,At
screen,html.Screen,2_1_1_1_1,2022-04-25T17:20:26.226Z,,,,,,,,,,,,,,,,,54,,,,,,,,,,,,,,382.55300000018906,,response,,,,100,,,,,,,Space,keypress(Space),,,,,,,,-- the ---- --- ------ ----- ------- ---- -- --- ------- --<br>------- ---------- ------ -- ----- -- ----- -- ---- ------<br>--- ----- --- --- ------ -------- ----- --- ------ ----- --<br>----- ----- ---------- --- --- ------ ------ ---- -- ------<br>------- --- ------ ----- --- ---- ------- -- ---- --- --<br>------- ------,193814.2000000002,193812.2000000002,193412.981,193413.40000000037,193429.647,193829.677,,1,the
screen,html.Screen,2_1_1_1_2,2022-04-25T17:20:26.605Z,,,,,,,,,,,,,,,,,54,,,,,,,,,,,,,,361.6229999998177,,response,,,,100,,,,,,,Space,keypress(Space),,,,,,,,-- --- time --- ------ ----- ------- ---- -- --- ------- --<br>------- ---------- ------ -- ----- -- ----- -- ---- ------<br>--- ----- --- --- ------ -------- ----- --- ------ ----- --<br>----- ----- ---------- --- --- ------ ------ ---- -- ------<br>------- --- ------ ----- --- ---- ------- -- ---- --- --<br>------- ------,194193.2999999998,194191.2999999998,193813.011,193814.40000000037,193829.677,194196.354,,2,time
screen,html.Screen,2_1_1_1_3,2022-04-25T17:20:26.977Z,,,,,,,,,,,,,,,,,54,,,,,,,,,,,,,,366.6460000000079,,response,,,,100,,,,,,,Space,keypress(Space),,,,,,,,-- --- ---- the ------ ----- ------- ---- -- --- ------- --<br>------- ---------- ------ -- ----- -- ----- -- ---- ------<br>--- ----- --- --- ------ -------- ----- --- ------ ----- --<br>----- ----- ---------- --- --- ------ ------ ---- -- ------<br>------- --- ------ ----- --- ---- ------- -- ---- --- --<br>------- ------,194565.40000000037,194563,194179.688,194193.5,194196.354,194579.696,,3,the
screen,html.Screen,2_1_1_1_4,2022-04-25T17:20:27.267Z,,,,,,,,,,,,,,,,,54,,,,,,,,,,,,,,273.20400000037625,,response,,,,100,,,,,,,Space,keypress(Space),,,,,,,,-- --- ---- --- French ----- ------- ---- -- --- ------- --<br>------- ---------- ------ -- ----- -- ----- -- ---- ------<br>--- ----- --- --- ------ -------- ----- --- ------ ----- --<br>----- ----- ---------- --- --- ------ ------ ---- -- ------<br>------- --- ------ ----- --- ---- ------- -- ---- --- --<br>------- ------,194854.7000000002,194852.90000000037,194563.03,194565.5,194579.696,194863.042,,4,French
screen,html.Screen,2_1_1_1_5,2022-04-25T17:20:27.678Z,,,,,,,,,,,,,,,,,54,,,,,,,,,,,,,,401.65800000019954,,response,,,,100,,,,,,,Space,keypress(Space),,,,,,,,-- --- ---- --- ------ crown ------- ---- -- --- ------- --<br>------- ---------- ------ -- ----- -- ----- -- ---- ------<br>--- ----- --- --- ------ -------- ----- --- ------ ----- --<br>----- ----- ---------- --- --- ------ ------ ---- -- ------<br>------- --- ------ ----- --- ---- ------- -- ---- --- --<br>------- ------,195266.60000000056,195264.7000000002,194846.376,194854.90000000037,194863.042,195279.703,,5,crown
screen,html.Screen,2_1_1_1_6,2022-04-25T17:20:27.963Z,,,,,,,,,,,,,,,,,54,,,,,,,,,,,,,,269.7969999999914,,response,,,,100,,,,,,,Space,keypress(Space),,,,,,,,-- --- ---- --- ------ ----- secured ---- -- --- ------- --<br>------- ---------- ------ -- ----- -- ----- -- ---- ------<br>--- ----- --- --- ------ -------- ----- --- ------ ----- --<br>----- ----- ---------- --- --- ------ ------ ---- -- ------<br>------- --- ------ ----- --- ---- ------- -- ---- --- --<br>------- ------,195551.5,195549.5,195263.037,195266.7999999998,195279.703,195563.047,,6,secured
screen,html.Screen,2_1_1_1_7,2022-04-25T17:20:28.698Z,,,,,,,,,,,,,,,,,54,,,,,,,,,,,,,,721.7529999998224,,response,,,,100,,,,,,,Space,keypress(Space),,,,,,,,-- --- ---- --- ------ ----- ------- much -- --- ------- --<br>------- ---------- ------ -- ----- -- ----- -- ---- ------<br>--- ----- --- --- ------ -------- ----- --- ------ ----- --<br>----- ----- ---------- --- --- ------ ------ ---- -- ------<br>------- --- ------ ----- --- ---- ------- -- ---- --- --<br>------- ------,196286.2999999998,196284.7999999998,195546.381,195551.7000000002,195563.047,196296.375,,7,much
screen,html.Screen,2_1_1_1_8,2022-04-25T17:20:29.136Z,,,,,,,,,,,,,,,,,54,,,,,,,,,,,,,,426.52500000037253,,response,,,,100,,,,,,,Space,keypress(Space),,,,,,,,-- --- ---- --- ------ ----- ------- ---- of --- ------- --<br>------- ---------- ------ -- ----- -- ----- -- ---- ------<br>--- ----- --- --- ------ -------- ----- --- ------ ----- --<br>----- ----- ---------- --- --- ------ ------ ---- -- ------<br>------- --- ------ ----- --- ---- ------- -- ---- --- --<br>------- ------,196724.40000000037,196722.90000000037,196279.709,196286.5,196296.375,196729.725,,8,of
screen,html.Screen,2_1_1_1_9,2022-04-25T17:20:29.654Z,,,,,,,,,,,,,,,,,54,,,,,,,,,,,,,,510.875000000553,,response,,,,100,,,,,,,Space,keypress(Space),,,,,,,,-- --- ---- --- ------ ----- ------- ---- -- its ------- --<br>------- ---------- ------ -- ----- -- ----- -- ---- ------<br>--- ----- --- --- ------ -------- ----- --- ------ ----- --<br>----- ----- ---------- --- --- ------ ------ ---- -- ------<br>------- --- ------ ----- --- ---- ------- -- ---- --- --<br>------- ------,197242.5,197240.60000000056,196713.059,196724.60000000056,196729.725,197246.397,,9,its
screen,html.Screen,2_1_1_1_10,2022-04-25T17:20:30.038Z,,,,,,,,,,,,,,,,,54,,,,,,,,,,,,,,378.2030000005616,,response,,,,100,,,,,,,Space,keypress(Space),,,,,,,,-- --- ---- --- ------ ----- ------- ---- -- --- revenue --<br>------- ---------- ------ -- ----- -- ----- -- ---- ------<br>--- ----- --- --- ------ -------- ----- --- ------ ----- --<br>----- ----- ---------- --- --- ------ ------ ---- -- ------<br>------- --- ------ ----- --- ---- ------- -- ---- --- --<br>------- ------,197626.40000000037,197624.60000000056,197229.731,197242.60000000056,197246.397,197629.748,,10,revenue
screen,html.Screen,2_1_1_1_11,2022-04-25T17:20:30.598Z,,,,,,,,,,,,,,,,,54,,,,,,,,,,,,,,554.6520000003802,,response,,,,100,,,,,,,Space,keypress(Space),,,,,,,,-- --- ---- --- ------ ----- ------- ---- -- --- ------- by<br>------- ---------- ------ -- ----- -- ----- -- ---- ------<br>--- ----- --- --- ------ -------- ----- --- ------ ----- --<br>----- ----- ---------- --- --- ------ ------ ---- -- ------<br>------- --- ------ ----- --- ---- ------- -- ---- --- --<br>------- ------,198186.2999999998,198184.40000000037,197613.082,197626.60000000056,197629.748,198196.411,,11,by
screen,html.Screen,2_1_1_1_12,2022-04-25T17:20:31.948Z,,,,,,,,,,,,,,,,,54,,,,,,,,,,,,,,1337.5890000000072,,response,,,,100,,,,,,,Space,keypress(Space),,,,,,,,-- --- ---- --- ------ ----- ------- ---- -- --- ------- --<br>issuing ---------- ------ -- ----- -- ----- -- ---- ------<br>--- ----- --- --- ------ -------- ----- --- ------ ----- --<br>----- ----- ---------- --- --- ------ ------ ---- -- ------<br>------- --- ------ ----- --- ---- ------- -- ---- --- --<br>------- ------,199535.90000000037,199534,198179.745,198186.5,198196.411,199546.395,,12,issuing
screen,html.Screen,2_1_1_1_13,2022-04-25T17:20:32.297Z,,,,,,,,,,,,,,,,,54,,,,,,,,,,,,,,336.9049999998242,,response,,,,100,,,,,,,Space,keypress(Space),,,,,,,,-- --- ---- --- ------ ----- ------- ---- -- --- ------- --<br>------- government ------ -- ----- -- ----- -- ---- ------<br>--- ----- --- --- ------ -------- ----- --- ------ ----- --<br>----- ----- ---------- --- --- ------ ------ ---- -- ------<br>------- --- ------ ----- --- ---- ------- -- ---- --- --<br>------- ------,199884.90000000037,199883.2999999998,199529.729,199536,199546.395,199896.454,,13,government
screen,html.Screen,2_1_1_1_14,2022-04-25T17:20:32.647Z,,,,,,,,,,,,,,,,,54,,,,,,,,,,,,,,337.24600000018836,,response,,,,100,,,,,,,Space,keypress(Space),,,,,,,,-- --- ---- --- ------ ----- ------- ---- -- --- ------- --<br>------- ---------- bonds. -- ----- -- ----- -- ---- ------<br>--- ----- --- --- ------ -------- ----- --- ------ ----- --<br>----- ----- ---------- --- --- ------ ------ ---- -- ------<br>------- --- ------ ----- --- ---- ------- -- ---- --- --<br>------- ------,200235.40000000037,200233.7000000002,199879.788,199885.10000000056,199896.454,200246.471,,14,bonds.
screen,html.Screen,2_1_1_1_15,2022-04-25T17:20:33.995Z,,,,,,,,,,,,,,,,,54,,,,,,,,,,,,,,1335.1290000005683,,response,,,,100,,,,,,,Space,keypress(Space),,,,,,,,-- --- ---- --- ------ ----- ------- ---- -- --- ------- --<br>------- ---------- ------ In ----- -- ----- -- ---- ------<br>--- ----- --- --- ------ -------- ----- --- ------ ----- --<br>----- ----- ---------- --- --- ------ ------ ---- -- ------<br>------- --- ------ ----- --- ---- ------- -- ---- --- --<br>------- ------,201583.5,201581.60000000056,200229.805,200235.60000000056,200246.471,201596.433,,15,In
screen,html.Screen,2_1_1_1_16,2022-04-25T17:20:34.336Z,,,,,,,,,,,,,,,,,54,,,,,,,,,,,,,,326.06700000001,,response,,,,100,,,,,,,Space,keypress(Space),,,,,,,,"-- --- ---- --- ------ ----- ------- ---- -- --- ------- --<br>------- ---------- ------ -- 1727, -- ----- -- ---- ------<br>--- ----- --- --- ------ -------- ----- --- ------ ----- --<br>----- ----- ---------- --- --- ------ ------ ---- -- ------<br>------- --- ------ ----- --- ---- ------- -- ---- --- --<br>------- ------",201924.40000000037,201922.5,201579.767,201583.60000000056,201596.433,201929.824,,16,"1727,"
screen,html.Screen,2_1_1_1_17,2022-04-25T17:20:35.202Z,,,,,,,,,,,,,,,,,54,,,,,,,,,,,,,,858.0760000003793,,response,,,,100,,,,,,,Space,keypress(Space),,,,,,,,-- --- ---- --- ------ ----- ------- ---- -- --- ------- --<br>------- ---------- ------ -- ----- in ----- -- ---- ------<br>--- ----- --- --- ------ -------- ----- --- ------ ----- --<br>----- ----- ---------- --- --- ------ ------ ---- -- ------<br>------- --- ------ ----- --- ---- ------- -- ---- --- --<br>------- ------,202789.90000000037,202787.90000000037,201913.158,201924.5,201929.824,202796.481,,17,in
screen,html.Screen,2_1_1_1_18,2022-04-25T17:20:35.576Z,,,,,,,,,,,,,,,,,54,,,,,,,,,,,,,,365.51900000000023,,response,,,,100,,,,,,,Space,keypress(Space),,,,,,,,-- --- ---- --- ------ ----- ------- ---- -- --- ------- --<br>------- ---------- ------ -- ----- -- order -- ---- ------<br>--- ----- --- --- ------ -------- ----- --- ------ ----- --<br>----- ----- ---------- --- --- ------ ------ ---- -- ------<br>------- --- ------ ----- --- ---- ------- -- ---- --- --<br>------- ------,203164,203162,202779.815,202790,202796.481,203179.851,,18,order
screen,html.Screen,2_1_1_1_19,2022-04-25T17:20:35.900Z,,,,,,,,,,,,,,,,,54,,,,,,,,,,,,,,306.4489999998186,,response,,,,100,,,,,,,Space,keypress(Space),,,,,,,,-- --- ---- --- ------ ----- ------- ---- -- --- ------- --<br>------- ---------- ------ -- ----- -- ----- to ---- ------<br>--- ----- --- --- ------ -------- ----- --- ------ ----- --<br>----- ----- ---------- --- --- ------ ------ ---- -- ------<br>------- --- ------ ----- --- ---- ------- -- ---- --- --<br>------- ------,203488.40000000037,203486.2999999998,203163.185,203164.2000000002,203179.851,203496.515,,19,to
screen,html.Screen,2_1_1_1_20,2022-04-25T17:20:36.169Z,,,,,,,,,,,,,,,,,54,,,,,,,,,,,,,,258.48499999998603,,response,,,,100,,,,,,,Space,keypress(Space),,,,,,,,-- --- ---- --- ------ ----- ------- ---- -- --- ------- --<br>------- ---------- ------ -- ----- -- ----- -- save ------<br>--- ----- --- --- ------ -------- ----- --- ------ ----- --<br>----- ----- ---------- --- --- ------ ------ ---- -- ------<br>------- --- ------ ----- --- ---- ------- -- ---- --- --<br>------- ------,203756.7999999998,203755,203479.849,203488.60000000056,203496.515,203763.2,,20,save
screen,html.Screen,2_1_1_1_21,2022-04-25T17:20:36.433Z,,,,,,,,,,,,,,,,,54,,,,,,,,,,,,,,256.0999999998021,,response,,,,100,,,,,,,Space,keypress(Space),,,,,,,,"-- --- ---- --- ------ ----- ------- ---- -- --- ------- --<br>------- ---------- ------ -- ----- -- ----- -- ---- money,<br>--- ----- --- --- ------ -------- ----- --- ------ ----- --<br>----- ----- ---------- --- --- ------ ------ ---- -- ------<br>------- --- ------ ----- --- ---- ------- -- ---- --- --<br>------- ------",204021.2000000002,204019.2999999998,203746.534,203756.90000000037,203763.2,204029.86,,21,"money,"
screen,html.Screen,2_1_1_1_22,2022-04-25T17:20:36.993Z,,,,,,,,,,,,,,,,,54,,,,,,,,,,,,,,549.640000000014,,response,,,,100,,,,,,,Space,keypress(Space),,,,,,,,-- --- ---- --- ------ ----- ------- ---- -- --- ------- --<br>------- ---------- ------ -- ----- -- ----- -- ---- ------<br>the ----- --- --- ------ -------- ----- --- ------ ----- --<br>----- ----- ---------- --- --- ------ ------ ---- -- ------<br>------- --- ------ ----- --- ---- ------- -- ---- --- --<br>------- ------,204581.7000000002,204579.5,204013.194,204021.2999999998,204029.86,204596.528,,22,the
screen,html.Screen,2_1_1_1_23,2022-04-25T17:20:37.350Z,,,,,,,,,,,,,,,,,54,,,,,,,,,,,,,,339.7719999998226,,response,,,,100,,,,,,,Space,keypress(Space),,,,,,,,-- --- ---- --- ------ ----- ------- ---- -- --- ------- --<br>------- ---------- ------ -- ----- -- ----- -- ---- ------<br>--- state --- --- ------ -------- ----- --- ------ ----- --<br>----- ----- ---------- --- --- ------ ------ ---- -- ------<br>------- --- ------ ----- --- ---- ------- -- ---- --- --<br>------- ------,204938,204936.2999999998,204579.862,204581.7999999998,204596.528,204946.539,,23,state
screen,html.Screen,2_1_1_1_24,2022-04-25T17:20:37.612Z,,,,,,,,,,,,,,,,,54,,,,,,,,,,,,,,251.26099999982398,,response,,,,100,,,,,,,Space,keypress(Space),,,,,,,,-- --- ---- --- ------ ----- ------- ---- -- --- ------- --<br>------- ---------- ------ -- ----- -- ----- -- ---- ------<br>--- ----- cut --- ------ -------- ----- --- ------ ----- --<br>----- ----- ---------- --- --- ------ ------ ---- -- ------<br>------- --- ------ ----- --- ---- ------- -- ---- --- --<br>------- ------,205199.90000000037,205197.7999999998,204929.873,204938.10000000056,204946.539,205213.214,,24,cut
screen,html.Screen,2_1_1_1_25,2022-04-25T17:20:38.011Z,,,,,,,,,,,,,,,,,54,,,,,,,,,,,,,,384.7859999999928,,response,,,,100,,,,,,,Space,keypress(Space),,,,,,,,-- --- ---- --- ------ ----- ------- ---- -- --- ------- --<br>------- ---------- ------ -- ----- -- ----- -- ---- ------<br>--- ----- --- the ------ -------- ----- --- ------ ----- --<br>----- ----- ---------- --- --- ------ ------ ---- -- ------<br>------- --- ------ ----- --- ---- ------- -- ---- --- --<br>------- ------,205599.60000000056,205598,205196.548,205200.10000000056,205213.214,205613.213,,25,the
screen,html.Screen,2_1_1_1_26,2022-04-25T17:20:38.270Z,,,,,,,,,,,,,,,,,54,,,,,,,,,,,,,,243.0869999998249,,response,,,,100,,,,,,,Space,keypress(Space),,,,,,,,-- --- ---- --- ------ ----- ------- ---- -- --- ------- --<br>------- ---------- ------ -- ----- -- ----- -- ---- ------<br>--- ----- --- --- bonds' -------- ----- --- ------ ----- --<br>----- ----- ---------- --- --- ------ ------ ---- -- ------<br>------- --- ------ ----- --- ---- ------- -- ---- --- --<br>------- ------,205858,205856.2999999998,205596.547,205599.7999999998,205613.213,205863.226,,26,bonds'
screen,html.Screen,2_1_1_1_27,2022-04-25T17:20:38.688Z,,,,,,,,,,,,,,,,,54,,,,,,,,,,,,,,411.0739999998186,,response,,,,100,,,,,,,Space,keypress(Space),,,,,,,,-- --- ---- --- ------ ----- ------- ---- -- --- ------- --<br>------- ---------- ------ -- ----- -- ----- -- ---- ------<br>--- ----- --- --- ------ interest ----- --- ------ ----- --<br>----- ----- ---------- --- --- ------ ------ ---- -- ------<br>------- --- ------ ----- --- ---- ------- -- ---- --- --<br>------- ------,206276.10000000056,206274.2999999998,205846.56,205858.10000000056,205863.226,206279.897,,27,interest
screen,html.Screen,2_1_1_1_28,2022-04-25T17:20:39.069Z,,,,,,,,,,,,,,,,,54,,,,,,,,,,,,,,375.30300000018906,,response,,,,100,,,,,,,Space,keypress(Space),,,,,,,,-- --- ---- --- ------ ----- ------- ---- -- --- ------- --<br>------- ---------- ------ -- ----- -- ----- -- ---- ------<br>--- ----- --- --- ------ -------- rate. --- ------ ----- --<br>----- ----- ---------- --- --- ------ ------ ---- -- ------<br>------- --- ------ ----- --- ---- ------- -- ---- --- --<br>------- ------,206657,206655.2000000002,206263.231,206276.10000000056,206279.897,206663.235,,28,rate.
screen,html.Screen,2_1_1_1_29,2022-04-25T17:20:39.501Z,,,,,,,,,,,,,,,,,54,,,,,,,,,,,,,,424.46500000020023,,response,,,,100,,,,,,,Space,keypress(Space),,,,,,,,-- --- ---- --- ------ ----- ------- ---- -- --- ------- --<br>------- ---------- ------ -- ----- -- ----- -- ---- ------<br>--- ----- --- --- ------ -------- ----- The ------ ----- --<br>----- ----- ---------- --- --- ------ ------ ---- -- ------<br>------- --- ------ ----- --- ---- ------- -- ---- --- --<br>------- ------,207089.40000000037,207087.7000000002,206646.569,206658.10000000056,206663.235,207096.571,,29,The
screen,html.Screen,2_1_1_1_30,2022-04-25T17:20:39.861Z,,,,,,,,,,,,,,,,,54,,,,,,,,,,,,,,350.82900000037625,,response,,,,100,,,,,,,Space,keypress(Space),,,,,,,,-- --- ---- --- ------ ----- ------- ---- -- --- ------- --<br>------- ---------- ------ -- ----- -- ----- -- ---- ------<br>--- ----- --- --- ------ -------- ----- --- market ----- --<br>----- ----- ---------- --- --- ------ ------ ---- -- ------<br>------- --- ------ ----- --- ---- ------- -- ---- --- --<br>------- ------,207449.2000000002,207447.40000000037,207079.905,207089.60000000056,207096.571,207463.26,,30,market
screen,html.Screen,2_1_1_1_31,2022-04-25T17:20:40.173Z,,,,,,,,,,,,,,,,,54,,,,,,,,,,,,,,295.94000000017695,,response,,,,100,,,,,,,Space,keypress(Space),,,,,,,,-- --- ---- --- ------ ----- ------- ---- -- --- ------- --<br>------- ---------- ------ -- ----- -- ----- -- ---- ------<br>--- ----- --- --- ------ -------- ----- --- ------ value --<br>----- ----- ---------- --- --- ------ ------ ---- -- ------<br>------- --- ------ ----- --- ---- ------- -- ---- --- --<br>------- ------,207760.90000000037,207759.2000000002,207446.594,207449.40000000037,207463.26,207763.258,,31,value
screen,html.Screen,2_1_1_1_32,2022-04-25T17:20:40.492Z,,,,,,,,,,,,,,,,,54,,,,,,,,,,,,,,315.0419999998121,,response,,,,100,,,,,,,Space,keypress(Space),,,,,,,,-- --- ---- --- ------ ----- ------- ---- -- --- ------- --<br>------- ---------- ------ -- ----- -- ----- -- ---- ------<br>--- ----- --- --- ------ -------- ----- --- ------ ----- of<br>----- ----- ---------- --- --- ------ ------ ---- -- ------<br>------- --- ------ ----- --- ---- ------- -- ---- --- --<br>------- ------,208080.2999999998,208078.2999999998,207746.592,207761.10000000056,207763.258,208096.598,,32,of
screen,html.Screen,2_1_1_1_33,2022-04-25T17:20:40.803Z,,,,,,,,,,,,,,,,,54,,,,,,,,,,,,,,293.2019999998156,,response,,,,100,,,,,,,Space,keypress(Space),,,,,,,,-- --- ---- --- ------ ----- ------- ---- -- --- ------- --<br>------- ---------- ------ -- ----- -- ----- -- ---- ------<br>--- ----- --- --- ------ -------- ----- --- ------ ----- --<br>these ----- ---------- --- --- ------ ------ ---- -- ------<br>------- --- ------ ----- --- ---- ------- -- ---- --- --<br>------- ------,208391.40000000037,208389.7999999998,208079.932,208080.5,208096.598,208396.605,,33,these
screen,html.Screen,2_1_1_1_34,2022-04-25T17:20:41.146Z,,,,,,,,,,,,,,,,,54,,,,,,,,,,,,,,336.3949999999895,,response,,,,100,,,,,,,Space,keypress(Space),,,,,,,,-- --- ---- --- ------ ----- ------- ---- -- --- ------- --<br>------- ---------- ------ -- ----- -- ----- -- ---- ------<br>--- ----- --- --- ------ -------- ----- --- ------ ----- --<br>----- bonds ---------- --- --- ------ ------ ---- -- ------<br>------- --- ------ ----- --- ---- ------- -- ---- --- --<br>------- ------,208734.60000000056,208733,208379.939,208391.7000000002,208396.605,208746.607,,34,bonds
screen,html.Screen,2_1_1_1_35,2022-04-25T17:20:41.459Z,,,,,,,,,,,,,,,,,54,,,,,,,,,,,,,,299.49300000056974,,response,,,,100,,,,,,,Space,keypress(Space),,,,,,,,"-- --- ---- --- ------ ----- ------- ---- -- --- ------- --<br>------- ---------- ------ -- ----- -- ----- -- ---- ------<br>--- ----- --- --- ------ -------- ----- --- ------ ----- --<br>----- ----- plummeted, --- --- ------ ------ ---- -- ------<br>------- --- ------ ----- --- ---- ------- -- ---- --- --<br>------- ------",209047.7000000002,209046.10000000056,208729.941,208734.7000000002,208746.607,209063.28,,35,"plummeted,"
screen,html.Screen,2_1_1_1_36,2022-04-25T17:20:42.017Z,,,,,,,,,,,,,,,,,54,,,,,,,,,,,,,,539.5199999998149,,response,,,,100,,,,,,,Space,keypress(Space),,,,,,,,-- --- ---- --- ------ ----- ------- ---- -- --- ------- --<br>------- ---------- ------ -- ----- -- ----- -- ---- ------<br>--- ----- --- --- ------ -------- ----- --- ------ ----- --<br>----- ----- ---------- and --- ------ ------ ---- -- ------<br>------- --- ------ ----- --- ---- ------- -- ---- --- --<br>------- ------,209605,209602.7999999998,209046.614,209047.90000000037,209063.28,209613.273,,36,and
screen,html.Screen,2_1_1_1_37,2022-04-25T17:20:42.576Z,,,,,,,,,,,,,,,,,54,,,,,,,,,,,,,,549.127000000386,,response,,,,100,,,,,,,Space,keypress(Space),,,,,,,,-- --- ---- --- ------ ----- ------- ---- -- --- ------- --<br>------- ---------- ------ -- ----- -- ----- -- ---- ------<br>--- ----- --- --- ------ -------- ----- --- ------ ----- --<br>----- ----- ---------- --- the ------ ------ ---- -- ------<br>------- --- ------ ----- --- ---- ------- -- ---- --- --<br>------- ------,210164.40000000037,210162.40000000037,209596.607,209605.2000000002,209613.273,210179.96,,37,the
screen,html.Screen,2_1_1_1_38,2022-04-25T17:20:42.881Z,,,,,,,,,,,,,,,,,54,,,,,,,,,,,,,,286.9400000003807,,response,,,,100,,,,,,,Space,keypress(Space),,,,,,,,-- --- ---- --- ------ ----- ------- ---- -- --- ------- --<br>------- ---------- ------ -- ----- -- ----- -- ---- ------<br>--- ----- --- --- ------ -------- ----- --- ------ ----- --<br>----- ----- ---------- --- --- market ------ ---- -- ------<br>------- --- ------ ----- --- ---- ------- -- ---- --- --<br>------- ------,210469,210466.90000000037,210163.294,210164.5,210179.96,210479.979,,38,market
screen,html.Screen,2_1_1_1_39,2022-04-25T17:20:43.169Z,,,,,,,,,,,,,,,,,54,,,,,,,,,,,,,,275.42100000038045,,response,,,,100,,,,,,,Space,keypress(Space),,,,,,,,-- --- ---- --- ------ ----- ------- ---- -- --- ------- --<br>------- ---------- ------ -- ----- -- ----- -- ---- ------<br>--- ----- --- --- ------ -------- ----- --- ------ ----- --<br>----- ----- ---------- --- --- ------ became ---- -- ------<br>------- --- ------ ----- --- ---- ------- -- ---- --- --<br>------- ------,210757.5,210755.40000000037,210463.313,210469.2000000002,210479.979,210763.307,,39,became
screen,html.Screen,2_1_1_1_40,2022-04-25T17:20:43.464Z,,,,,,,,,,,,,,,,,54,,,,,,,,,,,,,,287.09300000037183,,response,,,,100,,,,,,,Space,keypress(Space),,,,,,,,-- --- ---- --- ------ ----- ------- ---- -- --- ------- --<br>------- ---------- ------ -- ----- -- ----- -- ---- ------<br>--- ----- --- --- ------ -------- ----- --- ------ ----- --<br>----- ----- ---------- --- --- ------ ------ wary -- ------<br>------- --- ------ ----- --- ---- ------- -- ---- --- --<br>------- ------,211052.40000000037,211050.40000000037,210746.641,210757.7000000002,210763.307,211063.321,,40,wary
screen,html.Screen,2_1_1_1_41,2022-04-25T17:20:43.754Z,,,,,,,,,,,,,,,,,54,,,,,,,,,,,,,,277.47899999981746,,response,,,,100,,,,,,,Space,keypress(Space),,,,,,,,-- --- ---- --- ------ ----- ------- ---- -- --- ------- --<br>------- ---------- ------ -- ----- -- ----- -- ---- ------<br>--- ----- --- --- ------ -------- ----- --- ------ ----- --<br>----- ----- ---------- --- --- ------ ------ ---- of ------<br>------- --- ------ ----- --- ---- ------- -- ---- --- --<br>------- ------,211342.5,211340.7999999998,211046.655,211052.40000000037,211063.321,211346.662,,41,of
screen,html.Screen,2_1_1_1_42,2022-04-25T17:20:44.058Z,,,,,,,,,,,,,,,,,54,,,,,,,,,,,,,,297.4380000005476,,response,,,,100,,,,,,,Space,keypress(Space),,,,,,,,-- --- ---- --- ------ ----- ------- ---- -- --- ------- --<br>------- ---------- ------ -- ----- -- ----- -- ---- ------<br>--- ----- --- --- ------ -------- ----- --- ------ ----- --<br>----- ----- ---------- --- --- ------ ------ ---- -- French<br>------- --- ------ ----- --- ---- ------- -- ---- --- --<br>------- ------,211645.7999999998,211644.10000000056,211329.996,211342.60000000056,211346.662,211663.321,,42,French
screen,html.Screen,2_1_1_1_43,2022-04-25T17:20:44.375Z,,,,,,,,,,,,,,,,,54,,,,,,,,,,,,,,297.7790000005625,,response,,,,100,,,,,,,Space,keypress(Space),,,,,,,,-- --- ---- --- ------ ----- ------- ---- -- --- ------- --<br>------- ---------- ------ -- ----- -- ----- -- ---- ------<br>--- ----- --- --- ------ -------- ----- --- ------ ----- --<br>----- ----- ---------- --- --- ------ ------ ---- -- ------<br>credit. --- ------ ----- --- ---- ------- -- ---- --- --<br>------- ------,211962.90000000037,211961.10000000056,211646.655,211646,211663.321,211979.996,,43,credit.
screen,html.Screen,2_1_1_1_44,2022-04-25T17:20:44.933Z,,,,,,,,,,,,,,,,,54,,,,,,,,,,,,,,539.4040000003588,,response,,,,100,,,,,,,Space,keypress(Space),,,,,,,,-- --- ---- --- ------ ----- ------- ---- -- --- ------- --<br>------- ---------- ------ -- ----- -- ----- -- ---- ------<br>--- ----- --- --- ------ -------- ----- --- ------ ----- --<br>----- ----- ---------- --- --- ------ ------ ---- -- ------<br>------- The ------ ----- --- ---- ------- -- ---- --- --<br>------- ------,212521.2999999998,212519.40000000037,211963.33,211963.10000000056,211979.996,212529.995,,44,The
screen,html.Screen,2_1_1_1_45,2022-04-25T17:20:45.382Z,,,,,,,,,,,,,,,,,54,,,,,,,,,,,,,,438.4050000003772,,response,,,,100,,,,,,,Space,keypress(Space),,,,,,,,-- --- ---- --- ------ ----- ------- ---- -- --- ------- --<br>------- ---------- ------ -- ----- -- ----- -- ---- ------<br>--- ----- --- --- ------ -------- ----- --- ------ ----- --<br>----- ----- ---------- --- --- ------ ------ ---- -- ------<br>------- --- French ----- --- ---- ------- -- ---- --- --<br>------- ------,212970.2999999998,212968.40000000037,212513.329,212521.5,212529.995,212980.013,,45,French
screen,html.Screen,2_1_1_1_46,2022-04-25T17:20:45.779Z,,,,,,,,,,,,,,,,,54,,,,,,,,,,,,,,385.38700000036624,,response,,,,100,,,,,,,Space,keypress(Space),,,,,,,,-- --- ---- --- ------ ----- ------- ---- -- --- ------- --<br>------- ---------- ------ -- ----- -- ----- -- ---- ------<br>--- ----- --- --- ------ -------- ----- --- ------ ----- --<br>----- ----- ---------- --- --- ------ ------ ---- -- ------<br>------- --- ------ state --- ---- ------- -- ---- --- --<br>------- ------,213367.10000000056,213365.40000000037,212963.347,212970.5,212980.013,213380.012,,46,state
screen,html.Screen,2_1_1_1_47,2022-04-25T17:20:46.129Z,,,,,,,,,,,,,,,,,54,,,,,,,,,,,,,,334.6880000001984,,response,,,,100,,,,,,,Space,keypress(Space),,,,,,,,-- --- ---- --- ------ ----- ------- ---- -- --- ------- --<br>------- ---------- ------ -- ----- -- ----- -- ---- ------<br>--- ----- --- --- ------ -------- ----- --- ------ ----- --<br>----- ----- ---------- --- --- ------ ------ ---- -- ------<br>------- --- ------ ----- was ---- ------- -- ---- --- --<br>------- ------,213717,213714.7000000002,213363.346,213367.2999999998,213380.012,213730.019,,47,was
screen,html.Screen,2_1_1_1_48,2022-04-25T17:20:46.404Z,,,,,,,,,,,,,,,,,54,,,,,,,,,,,,,,260.3810000003723,,response,,,,100,,,,,,,Space,keypress(Space),,,,,,,,-- --- ---- --- ------ ----- ------- ---- -- --- ------- --<br>------- ---------- ------ -- ----- -- ----- -- ---- ------<br>--- ----- --- --- ------ -------- ----- --- ------ ----- --<br>----- ----- ---------- --- --- ------ ------ ---- -- ------<br>------- --- ------ ----- --- left ------- -- ---- --- --<br>------- ------,213992.2999999998,213990.40000000037,213713.353,213717.10000000056,213730.019,213996.696,,48,left
screen,html.Screen,2_1_1_1_49,2022-04-25T17:20:46.674Z,,,,,,,,,,,,,,,,,54,,,,,,,,,,,,,,263.50400000019,,response,,,,100,,,,,,,Space,keypress(Space),,,,,,,,-- --- ---- --- ------ ----- ------- ---- -- --- ------- --<br>------- ---------- ------ -- ----- -- ----- -- ---- ------<br>--- ----- --- --- ------ -------- ----- --- ------ ----- --<br>----- ----- ---------- --- --- ------ ------ ---- -- ------<br>------- --- ------ ----- --- ---- without -- ---- --- --<br>------- ------,214262.10000000056,214260.2000000002,213980.03,213992.5,213996.696,214263.382,,49,without
screen,html.Screen,2_1_1_1_50,2022-04-25T17:20:47.015Z,,,,,,,,,,,,,,,,,54,,,,,,,,,,,,,,338.3180000001739,,response,,,,100,,,,,,,Space,keypress(Space),,,,,,,,-- --- ---- --- ------ ----- ------- ---- -- --- ------- --<br>------- ---------- ------ -- ----- -- ----- -- ---- ------<br>--- ----- --- --- ------ -------- ----- --- ------ ----- --<br>----- ----- ---------- --- --- ------ ------ ---- -- ------<br>------- --- ------ ----- --- ---- ------- an ---- --- --<br>------- ------,214603.5,214601.7000000002,214246.716,214262.2999999998,214263.382,214613.371,,50,an
screen,html.Screen,2_1_1_1_51,2022-04-25T17:20:47.568Z,,,,,,,,,,,,,,,,,54,,,,,,,,,,,,,,540.6289999999863,,response,,,,100,,,,,,,Space,keypress(Space),,,,,,,,-- --- ---- --- ------ ----- ------- ---- -- --- ------- --<br>------- ---------- ------ -- ----- -- ----- -- ---- ------<br>--- ----- --- --- ------ -------- ----- --- ------ ----- --<br>----- ----- ---------- --- --- ------ ------ ---- -- ------<br>------- --- ------ ----- --- ---- ------- -- easy --- --<br>------- ------,215156,215154,214596.705,214603.7000000002,214613.371,215163.381,,51,easy
screen,html.Screen,2_1_1_1_52,2022-04-25T17:20:47.937Z,,,,,,,,,,,,,,,,,54,,,,,,,,,,,,,,360.61900000000605,,response,,,,100,,,,,,,Space,keypress(Space),,,,,,,,-- --- ---- --- ------ ----- ------- ---- -- --- ------- --<br>------- ---------- ------ -- ----- -- ----- -- ---- ------<br>--- ----- --- --- ------ -------- ----- --- ------ ----- --<br>----- ----- ---------- --- --- ------ ------ ---- -- ------<br>------- --- ------ ----- --- ---- ------- -- ---- way --<br>------- ------,215525.60000000056,215524,215146.715,215156.10000000056,215163.381,215530.056,,52,way
screen,html.Screen,2_1_1_1_53,2022-04-25T17:20:48.243Z,,,,,,,,,,,,,,,,,54,,,,,,,,,,,,,,299.4439999999886,,response,,,,100,,,,,,,Space,keypress(Space),,,,,,,,-- --- ---- --- ------ ----- ------- ---- -- --- ------- --<br>------- ---------- ------ -- ----- -- ----- -- ---- ------<br>--- ----- --- --- ------ -------- ----- --- ------ ----- --<br>----- ----- ---------- --- --- ------ ------ ---- -- ------<br>------- --- ------ ----- --- ---- ------- -- ---- --- of<br>------- ------,215831.40000000037,215829.5,215513.39,215525.7000000002,215530.056,215846.727,,53,of
screen,html.Screen,2_1_1_1_54,2022-04-25T17:20:48.693Z,,,,,,,,,,,,,,,,,54,,,,,,,,,,,,,,432.57299999980023,,response,,,,100,,,,,,,Space,keypress(Space),,,,,,,,-- --- ---- --- ------ ----- ------- ---- -- --- ------- --<br>------- ---------- ------ -- ----- -- ----- -- ---- ------<br>--- ----- --- --- ------ -------- ----- --- ------ ----- --<br>----- ----- ---------- --- --- ------ ------ ---- -- ------<br>------- --- ------ ----- --- ---- ------- -- ---- --- --<br>raising ------,216281,216279.2999999998,215830.061,215831.5,215846.727,216296.737,,54,raising
screen,html.Screen,2_1_1_1_55,2022-04-25T17:20:49.475Z,,,,,,,,,,,,,,,,,54,,,,,,,,,,,,,,765.06299999982,,response,,,,100,,,,,,,Space,keypress(Space),,,,,,,,-- --- ---- --- ------ ----- ------- ---- -- --- ------- --<br>------- ---------- ------ -- ----- -- ----- -- ---- ------<br>--- ----- --- --- ------ -------- ----- --- ------ ----- --<br>----- ----- ---------- --- --- ------ ------ ---- -- ------<br>------- --- ------ ----- --- ---- ------- -- ---- --- --<br>------- money.,217063.5,217061.7999999998,216280.071,216281.10000000056,216296.737,217080.052,,55,money.
Item 100,flow.Loop,2_1_1_1,2022-04-25T17:20:49.476Z,,,,,,,,,,,,,,,,,,,,,,,,,,,,,,,24465.507999999827,,completion,,,,,B,,,,,,,,,,,silence,,,,,217063.7000000002,217061.7999999998,192579.626,192580.7999999998,192596.292,217080.052,,,
Question 1,html.Screen,2_1_1_2,2022-04-25T17:20:52.032Z,,,,,,,,,,,,,,,,,,,,,,,,,,,,true,TRUE,,2538.3480000003765,,response,,,,100,B,,,,,,TRUE,click #choice-1,,,,silence,,,,,219620.2999999998,219618.40000000037,217063.386,217063.90000000037,217080.052,219646.789,,,
Question 2,html.Screen,2_1_1_3,2022-04-25T17:20:54.270Z,,,,,,,,,,,,,,,,,,,,,,,,,,,,true,FALSE,,2209.510999999824,,response,,,,100,B,,,,,,FALSE,click #choice-2,,,,silence,,,,,221858,221856.2999999998,219630.123,219620.5,219646.789,221863.502,,,
Item 100,flow.Sequence,2_1_1,2022-04-25T17:20:54.270Z,,,,,,,,,,,,,,,,,,,,,,,,,,,,,,,39260.1409999998,,completion,,,,,,,,,,,,,,,,,,,,,221858.2999999998,221856.2999999998,182579.493,182586.5,182596.159,221863.502,,,
End of Practice,html.Page,2_1_2,2022-04-25T17:20:59.311Z,,,,,,,,,,,,,,,,,,,,,,,,,,,,,,,5035.098000000551,,form submission,,,,,,,,,,,,,,,,,,,,,226899,226898.60000000056,221846.836,221858.5,221863.502,226913.588,,,
Practice,flow.Sequence,2_1,2022-04-25T17:20:59.311Z,,,,,,,,,,,,,,,,,,,,,,,,,,,,,,,90103.22000000055,,completion,,,,,,,,,,,,,,,,,,,,,226899.2999999998,226898.60000000056,136778.714,136791.10000000056,136795.38,226913.588,,,
Trap_instruction,html.Page,2_2_0,2022-04-25T17:21:04.035Z,,,,,,,,,,,,,,,,,,,,,,,,,,,,,,,4708.912000000011,,form submission,,,,,,,,,,,,,,,,,,,,,231622.7000000002,231622.5,226896.922,226899.40000000037,226913.588,231647.005,,,
trap_trial,html.Screen,2_2_1,2022-04-25T17:21:07.718Z,,,,,,,,,,,,,,,,,,,,,,,,,,,,true,1,,3657.1950000001816,,response,,,,,,,,,,,1,click #choice-1,,,,,,,,,235306,235304.2000000002,231613.673,231623,231647.005,235313.547,,,
end of trap trial,html.Page,2_2_2,2022-04-25T17:21:09.662Z,,,,,,,,,,,,,,,,,,,,,,,,,,,,,,,1936.8530000003811,,form submission,,,,,,,,,,,,,,,,,,,,,237250.7000000002,237250.40000000037,235296.881,235306.10000000056,235313.547,237263.754,,,
Trap 1,flow.Sequence,2_2,2022-04-25T17:21:09.663Z,,,,,,,,,,,,,,,,,,,,,,,,,,,,,,,10336.812000000384,,completion,,,,,,,,,,,,,,,,,,,,,237250.90000000037,237250.40000000037,226896.922,226899.40000000037,226913.588,237263.754,,,
Standby,html.Page,2_3_0,2022-04-25T17:21:17.660Z,,,,,,,,,,,,,,,,,,,,,,,,,,,,,,,7999.7119999999995,,timeout,,,,,,,,,,,,,,,,,,,,,245248,245246.8,237247.088,237252.10000000056,237263.754,245263.466,,,
Holding screen,html.Screen,2_3_1_0_0,2022-04-25T17:21:24.660Z,,,,,,,,,,,,,,,,,,,,,,,,,,,,,,,7000.542000000016,,timeout,,,,,,,,,,,,,,,,,,,,,252248.2999999998,252247.342,245246.8,245248.2000000002,245263.466,252264.008,,,
screen,html.Screen,2_3_1_0_1_0,2022-04-25T17:21:26.359Z,,,,,,,,,,,,,,,,,12,,,,,,,,,,,,,,1679.4919999999984,,response,,,,5,B,,,,,,Space,keypress(Space),,,,lyrical,,,,Some ------ ------ ------- ------ --- ------- -----------<br>-- ----- --- ---- -- --- ------ ---- - ---- -- ----------<br>-- ------ ---- --- ---- --- --- --- ----- -- -------- ---<br>------ ------- -------- --- ---- -- ------- ------------ --<br>------ -- ---- -- --- ---- -- -------- -- --- ------ ------,253946.90000000037,253943.5,252247.342,252248.5,252264.008,253947.332,,0,Some
screen,html.Screen,2_3_1_0_1_1,2022-04-25T17:21:26.922Z,,,,,,,,,,,,,,,,,12,,,,,,,,,,,,,,561.1680000000051,,response,,,,5,B,,,,,,Space,keypress(Space),,,,lyrical,,,,---- months ------ ------- ------ --- ------- -----------<br>-- ----- --- ---- -- --- ------ ---- - ---- -- ----------<br>-- ------ ---- --- ---- --- --- --- ----- -- -------- ---<br>------ ------- -------- --- ---- -- ------- ------------ --<br>------ -- ---- -- --- ---- -- -------- -- --- ------ ------,254510.60000000056,254508.5,253930.666,253947,253947.332,254514.051,,1,months
screen,html.Screen,2_3_1_0_1_2,2022-04-25T17:21:28.642Z,,,,,,,,,,,,,,,,,12,,,,,,,,,,,,,,1714.4489999999932,,response,,,,5,B,,,,,,Space,keypress(Space),,,,lyrical,,,,"---- ------ later, ------- ------ --- ------- -----------<br>-- ----- --- ---- -- --- ------ ---- - ---- -- ----------<br>-- ------ ---- --- ---- --- --- --- ----- -- -------- ---<br>------ ------- -------- --- ---- -- ------- ------------ --<br>------ -- ---- -- --- ---- -- -------- -- --- ------ ------",256230.7000000002,256228.5,254497.385,254510.7000000002,254514.051,256247.358,,2,"later,"
screen,html.Screen,2_3_1_0_1_3,2022-04-25T17:21:29.049Z,,,,,,,,,,,,,,,,,12,,,,,,,,,,,,,,388.14199999999255,,response,,,,5,B,,,,,,Space,keypress(Space),,,,lyrical,,,,---- ------ ------ Michael ------ --- ------- -----------<br>-- ----- --- ---- -- --- ------ ---- - ---- -- ----------<br>-- ------ ---- --- ---- --- --- --- ----- -- -------- ---<br>------ ------- -------- --- ---- -- ------- ------------ --<br>------ -- ---- -- --- ---- -- -------- -- --- ------ ------,256637.60000000056,256635.5,256230.692,256230.7999999998,256247.358,256647.428,,3,Michael
screen,html.Screen,2_3_1_0_1_4,2022-04-25T17:21:29.441Z,,,,,,,,,,,,,,,,,12,,,,,,,,,,,,,,379.17200000054436,,response,,,,5,B,,,,,,Space,keypress(Space),,,,lyrical,,,,---- ------ ------ ------- Larson --- ------- -----------<br>-- ----- --- ---- -- --- ------ ---- - ---- -- ----------<br>-- ------ ---- --- ---- --- --- --- ----- -- -------- ---<br>------ ------- -------- --- ---- -- ------- ------------ --<br>------ -- ---- -- --- ---- -- -------- -- --- ------ ------,257029.5,257026.60000000056,256630.762,256637.60000000056,256647.428,257030.76,,4,Larson
screen,html.Screen,2_3_1_0_1_5,2022-04-25T17:21:30.065Z,,,,,,,,,,,,,,,,,12,,,,,,,,,,,,,,620.6400000003632,,response,,,,5,B,,,,,,Space,keypress(Space),,,,lyrical,,,,---- ------ ------ ------- ------ saw ------- -----------<br>-- ----- --- ---- -- --- ------ ---- - ---- -- ----------<br>-- ------ ---- --- ---- --- --- --- ----- -- -------- ---<br>------ ------- -------- --- ---- -- ------- ------------ --<br>------ -- ---- -- --- ---- -- -------- -- --- ------ ------,257653.5,257651.40000000037,257014.094,257029.60000000056,257030.76,257664.097,,5,saw
screen,html.Screen,2_3_1_0_1_6,2022-04-25T17:21:31.255Z,,,,,,,,,,,,,,,,,12,,,,,,,,,,,,,,1177.8030000003637,,response,,,,5,B,,,,,,Space,keypress(Space),,,,lyrical,,,,---- ------ ------ ------- ------ --- another -----------<br>-- ----- --- ---- -- --- ------ ---- - ---- -- ----------<br>-- ------ ---- --- ---- --- --- --- ----- -- -------- ---<br>------ ------- -------- --- ---- -- ------- ------------ --<br>------ -- ---- -- --- ---- -- -------- -- --- ------ ------,258843.5,258841.90000000037,257647.431,257653.7000000002,257664.097,258847.421,,6,another
screen,html.Screen,2_3_1_0_1_7,2022-04-25T17:21:31.594Z,,,,,,,,,,,,,,,,,12,,,,,,,,,,,,,,333.0789999999979,,response,,,,5,B,,,,,,Space,keypress(Space),,,,lyrical,,,,---- ------ ------ ------- ------ --- ------- opportunity<br>-- ----- --- ---- -- --- ------ ---- - ---- -- ----------<br>-- ------ ---- --- ---- --- --- --- ----- -- -------- ---<br>------ ------- -------- --- ---- -- ------- ------------ --<br>------ -- ---- -- --- ---- -- -------- -- --- ------ ------,259182.40000000037,259180.5,258830.755,258843.60000000056,258847.421,259197.469,,7,opportunity
screen,html.Screen,2_3_1_0_1_8,2022-04-25T17:21:32.557Z,,,,,,,,,,,,,,,,,12,,,,,,,,,,,,,,946.0309999999881,,response,,,,5,B,,,,,,Space,keypress(Space),,,,lyrical,,,,---- ------ ------ ------- ------ --- ------- -----------<br>to ----- --- ---- -- --- ------ ---- - ---- -- ----------<br>-- ------ ---- --- ---- --- --- --- ----- -- -------- ---<br>------ ------- -------- --- ---- -- ------- ------------ --<br>------ -- ---- -- --- ---- -- -------- -- --- ------ ------,260145.2999999998,260143.5,259180.803,259182.5,259197.469,260147.452,,8,to
screen,html.Screen,2_3_1_0_1_9,2022-04-25T17:21:32.918Z,,,,,,,,,,,,,,,,,12,,,,,,,,,,,,,,356.5480000000098,,response,,,,5,B,,,,,,Space,keypress(Space),,,,lyrical,,,,---- ------ ------ ------- ------ --- ------- -----------<br>-- stack --- ---- -- --- ------ ---- - ---- -- ----------<br>-- ------ ---- --- ---- --- --- --- ----- -- -------- ---<br>------ ------- -------- --- ---- -- ------- ------------ --<br>------ -- ---- -- --- ---- -- -------- -- --- ------ ------,260505.7999999998,260504,260130.786,260145.5,260147.452,260514.155,,9,stack
screen,html.Screen,2_3_1_0_1_10,2022-04-25T17:21:33.269Z,,,,,,,,,,,,,,,,,12,,,,,,,,,,,,,,341.04500000018743,,response,,,,5,B,,,,,,Space,keypress(Space),,,,lyrical,,,,---- ------ ------ ------- ------ --- ------- -----------<br>-- ----- the ---- -- --- ------ ---- - ---- -- ----------<br>-- ------ ---- --- ---- --- --- --- ----- -- -------- ---<br>------ ------- -------- --- ---- -- ------- ------------ --<br>------ -- ---- -- --- ---- -- -------- -- --- ------ ------,260857.2000000002,260855.2000000002,260497.489,260505.90000000037,260514.155,260864.161,,10,the
screen,html.Screen,2_3_1_0_1_11,2022-04-25T17:21:34.465Z,,,,,,,,,,,,,,,,,12,,,,,,,,,,,,,,1187.138999999821,,response,,,,5,B,,,,,,Space,keypress(Space),,,,lyrical,,,,---- ------ ------ ------- ------ --- ------- -----------<br>-- ----- --- odds -- --- ------ ---- - ---- -- ----------<br>-- ------ ---- --- ---- --- --- --- ----- -- -------- ---<br>------ ------- -------- --- ---- -- ------- ------------ --<br>------ -- ---- -- --- ---- -- -------- -- --- ------ ------,262053.2999999998,262051.2999999998,260847.495,260857.40000000037,260864.161,262064.14,,11,odds
screen,html.Screen,2_3_1_0_1_12,2022-04-25T17:21:34.985Z,,,,,,,,,,,,,,,,,12,,,,,,,,,,,,,,507.0600000001723,,response,,,,5,B,,,,,,Space,keypress(Space),,,,lyrical,,,,---- ------ ------ ------- ------ --- ------- -----------<br>-- ----- --- ---- in --- ------ ---- - ---- -- ----------<br>-- ------ ---- --- ---- --- --- --- ----- -- -------- ---<br>------ ------- -------- --- ---- -- ------- ------------ --<br>------ -- ---- -- --- ---- -- -------- -- --- ------ ------,262573,262571.2000000002,262047.474,262053.60000000056,262064.14,262580.847,,12,in
screen,html.Screen,2_3_1_0_1_13,2022-04-25T17:21:35.340Z,,,,,,,,,,,,,,,,,12,,,,,,,,,,,,,,345.65299999999115,,response,,,,5,B,,,,,,Space,keypress(Space),,,,lyrical,,,,---- ------ ------ ------- ------ --- ------- -----------<br>-- ----- --- ---- -- his ------ ---- - ---- -- ----------<br>-- ------ ---- --- ---- --- --- --- ----- -- -------- ---<br>------ ------- -------- --- ---- -- ------- ------------ --<br>------ -- ---- -- --- ---- -- -------- -- --- ------ ------,262928.5,262926.5,262564.181,262573.5,262580.847,262930.868,,13,his
screen,html.Screen,2_3_1_0_1_14,2022-04-25T17:21:35.627Z,,,,,,,,,,,,,,,,,12,,,,,,,,,,,,,,282.8320000001695,,response,,,,5,B,,,,,,Space,keypress(Space),,,,lyrical,,,,---- ------ ------ ------- ------ --- ------- -----------<br>-- ----- --- ---- -- --- favour ---- - ---- -- ----------<br>-- ------ ---- --- ---- --- --- --- ----- -- -------- ---<br>------ ------- -------- --- ---- -- ------- ------------ --<br>------ -- ---- -- --- ---- -- -------- -- --- ------ ------,263215.5,263213.7000000002,262914.202,262928.60000000056,262930.868,263230.873,,14,favour
screen,html.Screen,2_3_1_0_1_15,2022-04-25T17:21:36.019Z,,,,,,,,,,,,,,,,,12,,,,,,,,,,,,,,374.5270000003511,,response,,,,5,B,,,,,,Space,keypress(Space),,,,lyrical,,,,---- ------ ------ ------- ------ --- ------- -----------<br>-- ----- --- ---- -- --- ------ with - ---- -- ----------<br>-- ------ ---- --- ---- --- --- --- ----- -- -------- ---<br>------ ------- -------- --- ---- -- ------- ------------ --<br>------ -- ---- -- --- ---- -- -------- -- --- ------ ------,263607.4000000004,263605.4000000004,263214.207,263215.7000000002,263230.873,263614.215,,15,with
screen,html.Screen,2_3_1_0_1_16,2022-04-25T17:21:36.312Z,,,,,,,,,,,,,,,,,12,,,,,,,,,,,,,,284.5849999997881,,response,,,,5,B,,,,,,Space,keypress(Space),,,,lyrical,,,,---- ------ ------ ------- ------ --- ------- -----------<br>-- ----- --- ---- -- --- ------ ---- a ---- -- ----------<br>-- ------ ---- --- ---- --- --- --- ----- -- -------- ---<br>------ ------- -------- --- ---- -- ------- ------------ --<br>------ -- ---- -- --- ---- -- -------- -- --- ------ ------,263900.2999999998,263898.7999999998,263597.549,263607.5,263614.215,263914.219,,16,a
screen,html.Screen,2_3_1_0_1_17,2022-04-25T17:21:36.603Z,,,,,,,,,,,,,,,,,12,,,,,,,,,,,,,,274.28100000001723,,response,,,,5,B,,,,,,Space,keypress(Space),,,,lyrical,,,,---- ------ ------ ------- ------ --- ------- -----------<br>-- ----- --- ---- -- --- ------ ---- - dash -- ----------<br>-- ------ ---- --- ---- --- --- --- ----- -- -------- ---<br>------ ------- -------- --- ---- -- ------- ------------ --<br>------ -- ---- -- --- ---- -- -------- -- --- ------ ------,264190.7999999998,264188.5,263897.553,263900.5,263914.219,264197.564,,17,dash
screen,html.Screen,2_3_1_0_1_18,2022-04-25T17:21:36.952Z,,,,,,,,,,,,,,,,,12,,,,,,,,,,,,,,340.43599999998696,,response,,,,5,B,,,,,,Space,keypress(Space),,,,lyrical,,,,---- ------ ------ ------- ------ --- ------- -----------<br>-- ----- --- ---- -- --- ------ ---- - ---- of ----------<br>-- ------ ---- --- ---- --- --- --- ----- -- -------- ---<br>------ ------- -------- --- ---- -- ------- ------------ --<br>------ -- ---- -- --- ---- -- -------- -- --- ------ ------,264540,264538,264180.898,264190.9000000004,264197.564,264547.558,,18,of
screen,html.Screen,2_3_1_0_1_19,2022-04-25T17:21:37.229Z,,,,,,,,,,,,,,,,,12,,,,,,,,,,,,,,267.24199999979464,,response,,,,5,B,,,,,,Space,keypress(Space),,,,lyrical,,,,---- ------ ------ ------- ------ --- ------- -----------<br>-- ----- --- ---- -- --- ------ ---- - ---- -- ingenuity.<br>-- ------ ---- --- ---- --- --- --- ----- -- -------- ---<br>------ ------- -------- --- ---- -- ------- ------------ --<br>------ -- ---- -- --- ---- -- -------- -- --- ------ ------,264816.9000000004,264814.7999999998,264530.892,264540.2000000002,264547.558,264830.901,,19,ingenuity.
screen,html.Screen,2_3_1_0_1_20,2022-04-25T17:21:37.949Z,,,,,,,,,,,,,,,,,12,,,,,,,,,,,,,,704.5989999999874,,response,,,,5,B,,,,,,Space,keypress(Space),,,,lyrical,,,,---- ------ ------ ------- ------ --- ------- -----------<br>-- ----- --- ---- -- --- ------ ---- - ---- -- ----------<br>He ------ ---- --- ---- --- --- --- ----- -- -------- ---<br>------ ------- -------- --- ---- -- ------- ------------ --<br>------ -- ---- -- --- ---- -- -------- -- --- ------ ------,265537.5,265535.5,264814.235,264816.9000000004,264830.901,265547.55,,20,He
screen,html.Screen,2_3_1_0_1_21,2022-04-25T17:21:38.303Z,,,,,,,,,,,,,,,,,12,,,,,,,,,,,,,,340.95000000001164,,response,,,,5,B,,,,,,Space,keypress(Space),,,,lyrical,,,,---- ------ ------ ------- ------ --- ------- -----------<br>-- ----- --- ---- -- --- ------ ---- - ---- -- ----------<br>-- walked ---- --- ---- --- --- --- ----- -- -------- ---<br>------ ------- -------- --- ---- -- ------- ------------ --<br>------ -- ---- -- --- ---- -- -------- -- --- ------ ------,265890.7999999998,265888.5,265530.884,265537.60000000056,265547.55,265897.581,,21,walked
screen,html.Screen,2_3_1_0_1_22,2022-04-25T17:21:38.679Z,,,,,,,,,,,,,,,,,12,,,,,,,,,,,,,,367.6190000001807,,response,,,,5,B,,,,,,Space,keypress(Space),,,,lyrical,,,,---- ------ ------ ------- ------ --- ------- -----------<br>-- ----- --- ---- -- --- ------ ---- - ---- -- ----------<br>-- ------ into --- ---- --- --- --- ----- -- -------- ---<br>------ ------- -------- --- ---- -- ------- ------------ --<br>------ -- ---- -- --- ---- -- -------- -- --- ------ ------,266267.4000000004,266265.2000000002,265880.915,265891,265897.581,266280.92,,22,into
screen,html.Screen,2_3_1_0_1_23,2022-04-25T17:21:38.984Z,,,,,,,,,,,,,,,,,12,,,,,,,,,,,,,,289.28000000020256,,response,,,,5,B,,,,,,Space,keypress(Space),,,,lyrical,,,,---- ------ ------ ------- ------ --- ------- -----------<br>-- ----- --- ---- -- --- ------ ---- - ---- -- ----------<br>-- ------ ---- his ---- --- --- --- ----- -- -------- ---<br>------ ------- -------- --- ---- -- ------- ------------ --<br>------ -- ---- -- --- ---- -- -------- -- --- ------ ------,266571.7000000002,266570.2000000002,266264.254,266267.60000000056,266280.92,266580.924,,23,his
screen,html.Screen,2_3_1_0_1_24,2022-04-25T17:21:39.284Z,,,,,,,,,,,,,,,,,12,,,,,,,,,,,,,,289.2760000001872,,response,,,,5,B,,,,,,Space,keypress(Space),,,,lyrical,,,,---- ------ ------ ------- ------ --- ------- -----------<br>-- ----- --- ---- -- --- ------ ---- - ---- -- ----------<br>-- ------ ---- --- bank --- --- --- ----- -- -------- ---<br>------ ------- -------- --- ---- -- ------- ------------ --<br>------ -- ---- -- --- ---- -- -------- -- --- ------ ------,266872.2000000002,266870.2000000002,266564.258,266571.9000000004,266580.924,266880.934,,24,bank
screen,html.Screen,2_3_1_0_1_25,2022-04-25T17:21:39.593Z,,,,,,,,,,,,,,,,,12,,,,,,,,,,,,,,297.86599999980535,,response,,,,5,B,,,,,,Space,keypress(Space),,,,lyrical,,,,---- ------ ------ ------- ------ --- ------- -----------<br>-- ----- --- ---- -- --- ------ ---- - ---- -- ----------<br>-- ------ ---- --- ---- one --- --- ----- -- -------- ---<br>------ ------- -------- --- ---- -- ------- ------------ --<br>------ -- ---- -- --- ---- -- -------- -- --- ------ ------,267181.2999999998,267178.7999999998,266864.268,266872.4000000004,266880.934,267197.603,,25,one
screen,html.Screen,2_3_1_0_1_26,2022-04-25T17:21:39.930Z,,,,,,,,,,,,,,,,,12,,,,,,,,,,,,,,318.79700000036974,,response,,,,5,B,,,,,,Space,keypress(Space),,,,lyrical,,,,---- ------ ------ ------- ------ --- ------- -----------<br>-- ----- --- ---- -- --- ------ ---- - ---- -- ----------<br>-- ------ ---- --- ---- --- day --- ----- -- -------- ---<br>------ ------- -------- --- ---- -- ------- ------------ --<br>------ -- ---- -- --- ---- -- -------- -- --- ------ ------,267518.4000000004,267516.4000000004,267180.937,267181.5,267197.603,267530.949,,26,day
screen,html.Screen,2_3_1_0_1_27,2022-04-25T17:21:40.239Z,,,,,,,,,,,,,,,,,12,,,,,,,,,,,,,,294.65100000053644,,response,,,,5,B,,,,,,Space,keypress(Space),,,,lyrical,,,,---- ------ ------ ------- ------ --- ------- -----------<br>-- ----- --- ---- -- --- ------ ---- - ---- -- ----------<br>-- ------ ---- --- ---- --- --- and ----- -- -------- ---<br>------ ------- -------- --- ---- -- ------- ------------ --<br>------ -- ---- -- --- ---- -- -------- -- --- ------ ------,267827.5,267825.60000000056,267514.283,267518.5,267530.949,267830.959,,27,and
screen,html.Screen,2_3_1_0_1_28,2022-04-25T17:21:40.573Z,,,,,,,,,,,,,,,,,12,,,,,,,,,,,,,,328.64100000058534,,response,,,,5,B,,,,,,Space,keypress(Space),,,,lyrical,,,,---- ------ ------ ------- ------ --- ------- -----------<br>-- ----- --- ---- -- --- ------ ---- - ---- -- ----------<br>-- ------ ---- --- ---- --- --- --- asked -- -------- ---<br>------ ------- -------- --- ---- -- ------- ------------ --<br>------ -- ---- -- --- ---- -- -------- -- --- ------ ------,268161.60000000056,268159.60000000056,267814.293,267827.7000000002,267830.959,268164.284,,28,asked
screen,html.Screen,2_3_1_0_1_29,2022-04-25T17:21:40.881Z,,,,,,,,,,,,,,,,,12,,,,,,,,,,,,,,303.2160000000149,,response,,,,5,B,,,,,,Space,keypress(Space),,,,lyrical,,,,---- ------ ------ ------- ------ --- ------- -----------<br>-- ----- --- ---- -- --- ------ ---- - ---- -- ----------<br>-- ------ ---- --- ---- --- --- --- ----- to -------- ---<br>------ ------- -------- --- ---- -- ------- ------------ --<br>------ -- ---- -- --- ---- -- -------- -- --- ------ ------,268469.4000000004,268467.5,268147.618,268161.7999999998,268164.284,268480.959,,29,to
screen,html.Screen,2_3_1_0_1_30,2022-04-25T17:21:41.222Z,,,,,,,,,,,,,,,,,12,,,,,,,,,,,,,,327.7410000002128,,response,,,,5,B,,,,,,Space,keypress(Space),,,,lyrical,,,,---- ------ ------ ------- ------ --- ------- -----------<br>-- ----- --- ---- -- --- ------ ---- - ---- -- ----------<br>-- ------ ---- --- ---- --- --- --- ----- -- withdraw ---<br>------ ------- -------- --- ---- -- ------- ------------ --<br>------ -- ---- -- --- ---- -- -------- -- --- ------ ------,268810.4000000004,268808.7000000002,268464.293,268469.60000000056,268480.959,268814.296,,30,withdraw
screen,html.Screen,2_3_1_0_1_31,2022-04-25T17:21:41.595Z,,,,,,,,,,,,,,,,,12,,,,,,,,,,,,,,366.8040000005858,,response,,,,5,B,,,,,,Space,keypress(Space),,,,lyrical,,,,---- ------ ------ ------- ------ --- ------- -----------<br>-- ----- --- ---- -- --- ------ ---- - ---- -- ----------<br>-- ------ ---- --- ---- --- --- --- ----- -- -------- his<br>------ ------- -------- --- ---- -- ------- ------------ --<br>------ -- ---- -- --- ---- -- -------- -- --- ------ ------,269183,269181.10000000056,268797.63,268810.5,268814.296,269197.642,,31,his
screen,html.Screen,2_3_1_0_1_32,2022-04-25T17:21:41.957Z,,,,,,,,,,,,,,,,,12,,,,,,,,,,,,,,345.75800000038,,response,,,,5,B,,,,,,Space,keypress(Space),,,,lyrical,,,,---- ------ ------ ------- ------ --- ------- -----------<br>-- ----- --- ---- -- --- ------ ---- - ---- -- ----------<br>-- ------ ---- --- ---- --- --- --- ----- -- -------- ---<br>entire ------- -------- --- ---- -- ------- ------------ --<br>------ -- ---- -- --- ---- -- -------- -- --- ------ ------,269545.10000000056,269543.4000000004,269180.976,269183.10000000056,269197.642,269547.65,,32,entire
screen,html.Screen,2_3_1_0_1_33,2022-04-25T17:21:42.341Z,,,,,,,,,,,,,,,,,12,,,,,,,,,,,,,,379.3499999999767,,response,,,,5,B,,,,,,Space,keypress(Space),,,,lyrical,,,,---- ------ ------ ------- ------ --- ------- -----------<br>-- ----- --- ---- -- --- ------ ---- - ---- -- ----------<br>-- ------ ---- --- ---- --- --- --- ----- -- -------- ---<br>------ account -------- --- ---- -- ------- ------------ --<br>------ -- ---- -- --- ---- -- -------- -- --- ------ ------,269928.7999999998,269927,269530.984,269545.2000000002,269547.65,269930.978,,33,account
screen,html.Screen,2_3_1_0_1_34,2022-04-25T17:21:42.623Z,,,,,,,,,,,,,,,,,12,,,,,,,,,,,,,,278.5219999999972,,response,,,,5,B,,,,,,Space,keypress(Space),,,,lyrical,,,,"---- ------ ------ ------- ------ --- ------- -----------<br>-- ----- --- ---- -- --- ------ ---- - ---- -- ----------<br>-- ------ ---- --- ---- --- --- --- ----- -- -------- ---<br>------ ------- balance, --- ---- -- ------- ------------ --<br>------ -- ---- -- --- ---- -- -------- -- --- ------ ------",270211.5,270209.5,269914.312,269929,269930.978,270214.333,,34,"balance,"
screen,html.Screen,2_3_1_0_1_35,2022-04-25T17:21:42.943Z,,,,,,,,,,,,,,,,,12,,,,,,,,,,,,,,314.8670000002021,,response,,,,5,B,,,,,,Space,keypress(Space),,,,lyrical,,,,---- ------ ------ ------- ------ --- ------- -----------<br>-- ----- --- ---- -- --- ------ ---- - ---- -- ----------<br>-- ------ ---- --- ---- --- --- --- ----- -- -------- ---<br>------ ------- -------- but ---- -- ------- ------------ --<br>------ -- ---- -- --- ---- -- -------- -- --- ------ ------,270531.60000000056,270529.2000000002,270197.667,270211.7000000002,270214.333,270547.666,,35,but
screen,html.Screen,2_3_1_0_1_36,2022-04-25T17:21:43.487Z,,,,,,,,,,,,,,,,,12,,,,,,,,,,,,,,525.6339999997872,,response,,,,5,B,,,,,,Space,keypress(Space),,,,lyrical,,,,---- ------ ------ ------- ------ --- ------- -----------<br>-- ----- --- ---- -- --- ------ ---- - ---- -- ----------<br>-- ------ ---- --- ---- --- --- --- ----- -- -------- ---<br>------ ------- -------- --- with -- ------- ------------ --<br>------ -- ---- -- --- ---- -- -------- -- --- ------ ------,271075.5,271073.2999999998,270531,270531.7000000002,270547.666,271080.993,,36,with
screen,html.Screen,2_3_1_0_1_37,2022-04-25T17:21:43.946Z,,,,,,,,,,,,,,,,,12,,,,,,,,,,,,,,450.90700000035577,,response,,,,5,B,,,,,,Space,keypress(Space),,,,lyrical,,,,---- ------ ------ ------- ------ --- ------- -----------<br>-- ----- --- ---- -- --- ------ ---- - ---- -- ----------<br>-- ------ ---- --- ---- --- --- --- ----- -- -------- ---<br>------ ------- -------- --- ---- an ------- ------------ --<br>------ -- ---- -- --- ---- -- -------- -- --- ------ ------,271534.2000000002,271531.9000000004,271064.327,271075.7000000002,271080.993,271547.678,,37,an
screen,html.Screen,2_3_1_0_1_38,2022-04-25T17:21:44.962Z,,,,,,,,,,,,,,,,,12,,,,,,,,,,,,,,1000.6219999997993,,response,,,,5,B,,,,,,Space,keypress(Space),,,,lyrical,,,,---- ------ ------ ------- ------ --- ------- -----------<br>-- ----- --- ---- -- --- ------ ---- - ---- -- ----------<br>-- ------ ---- --- ---- --- --- --- ----- -- -------- ---<br>------ ------- -------- --- ---- -- unusual ------------ --<br>------ -- ---- -- --- ---- -- -------- -- --- ------ ------,272550.5,272548.2999999998,271531.012,271534.4000000004,271547.678,272564.32,,38,unusual
screen,html.Screen,2_3_1_0_1_39,2022-04-25T17:21:45.320Z,,,,,,,,,,,,,,,,,12,,,,,,,,,,,,,,342.58000000036554,,response,,,,5,B,,,,,,Space,keypress(Space),,,,lyrical,,,,---- ------ ------ ------- ------ --- ------- -----------<br>-- ----- --- ---- -- --- ------ ---- - ---- -- ----------<br>-- ------ ---- --- ---- --- --- --- ----- -- -------- ---<br>------ ------- -------- --- ---- -- ------- stipulation: --<br>------ -- ---- -- --- ---- -- -------- -- --- ------ ------,272908.7000000002,272906.9000000004,272547.654,272550.7000000002,272564.32,272914.364,,39,stipulation:
screen,html.Screen,2_3_1_0_1_40,2022-04-25T17:21:46.062Z,,,,,,,,,,,,,,,,,12,,,,,,,,,,,,,,733.7360000005574,,response,,,,5,B,,,,,,Space,keypress(Space),,,,lyrical,,,,---- ------ ------ ------- ------ --- ------- -----------<br>-- ----- --- ---- -- --- ------ ---- - ---- -- ----------<br>-- ------ ---- --- ---- --- --- --- ----- -- -------- ---<br>------ ------- -------- --- ---- -- ------- ------------ He<br>------ -- ---- -- --- ---- -- -------- -- --- ------ ------,273649.9000000004,273648.10000000056,272897.698,272908.9000000004,272914.364,273664.356,,40,He
screen,html.Screen,2_3_1_0_1_41,2022-04-25T17:21:47.919Z,,,,,,,,,,,,,,,,,12,,,,,,,,,,,,,,1840.24400000053,,response,,,,5,B,,,,,,Space,keypress(Space),,,,lyrical,,,,---- ------ ------ ------- ------ --- ------- -----------<br>-- ----- --- ---- -- --- ------ ---- - ---- -- ----------<br>-- ------ ---- --- ---- --- --- --- ----- -- -------- ---<br>------ ------- -------- --- ---- -- ------- ------------ --<br>wanted -- ---- -- --- ---- -- -------- -- --- ------ ------,275506.9000000004,275504.60000000056,273647.69,273650.10000000056,273664.356,275514.332,,41,wanted
screen,html.Screen,2_3_1_0_1_42,2022-04-25T17:21:48.235Z,,,,,,,,,,,,,,,,,12,,,,,,,,,,,,,,306.96799999981886,,response,,,,5,B,,,,,,Space,keypress(Space),,,,lyrical,,,,---- ------ ------ ------- ------ --- ------- -----------<br>-- ----- --- ---- -- --- ------ ---- - ---- -- ----------<br>-- ------ ---- --- ---- --- --- --- ----- -- -------- ---<br>------ ------- -------- --- ---- -- ------- ------------ --<br>------ as ---- -- --- ---- -- -------- -- --- ------ ------,275823.2000000002,275821.2999999998,275497.666,275507.10000000056,275514.332,275831.095,,42,as
screen,html.Screen,2_3_1_0_1_43,2022-04-25T17:21:48.564Z,,,,,,,,,,,,,,,,,12,,,,,,,,,,,,,,318.80500000040047,,response,,,,5,B,,,,,,Space,keypress(Space),,,,lyrical,,,,---- ------ ------ ------- ------ --- ------- -----------<br>-- ----- --- ---- -- --- ------ ---- - ---- -- ----------<br>-- ------ ---- --- ---- --- --- --- ----- -- -------- ---<br>------ ------- -------- --- ---- -- ------- ------------ --<br>------ -- much -- --- ---- -- -------- -- --- ------ ------,276152.4000000004,276149.9000000004,275814.429,275823.4000000004,275831.095,276164.426,,43,much
