sender,sender_type,sender_id,timestamp,meta,,Blues,Classical,Country,Dance,Electronic,Folk,Gospel,Hip-Hop,Jazz,Latin,Musical/Film,New-age,Pop,Prolific_id,Provo_ID,R&B,Rap,Reggae,Religious,Rock,Soul,Swing,Traditional,age,artist_name,correct,correctResponse,distraction,duration,education,ended_on,familiarity,gender,headphone_check_performance,item,list,music_frequency,offensiveness,pleasantness,position_correct,preference,response,response_action,snippet_file,song_name,song_rating,sound,stimulus_1,stimulus_2,stimulus_3,text,time_commit,time_end,time_render,time_run,time_show,time_switch,url,word,word_ID
Prolific ID,html.Form,0,2022-05-03T11:58:30.520Z,"{""labjs_version"":""20.2.2"",""labjs_build"":{""flavor"":""production"",""commit"":""a25486e0c714a0ae2ce03ff94b7bb6896854dcfa""},""location"":""https://run.pavlovia.org/mvasilev/prolific3_music_h/"",""userAgent"":""Mozilla/5.0 (Windows NT 10.0; Win64; x64) AppleWebKit/537.36 (KHTML, like Gecko) Chrome/100.0.4896.127 Safari/537.36"",""platform"":""Win32"",""language"":""en-US"",""locale"":""en-GB"",""timeZone"":""Europe/London"",""timezoneOffset"":-60,""screen_width"":1920,""screen_height"":1080,""scroll_width"":1920,""scroll_height"":889,""window_innerWidth"":1920,""window_innerHeight"":937,""devicePixelRatio"":1}",,,,,,,,,,,,,,,5e62ece11e3088084e0039b8,,,,,,,,,,,,,,,11079.462000017884,,form submission,,,,,,,,,,,,,,,,,,,,,98246.30000001192,98245.70000001788,84982.992,84628.20000001788,87166.238,99752.441,{},,
Introduction,html.Screen,1_0,2022-05-03T11:58:59.064Z,,,,,,,,,,,,,,,,,,,,,,,,,,,,,,,27029.158999994033,,response,,,,,,,,,,,continue,click button,,,,,,,,,126790.70000001788,126781.59999999404,97835.851,98246.80000001192,99752.441,127019.106,,,
Volume calibration,html.Screen,1_1,2022-05-03T11:59:35.365Z,,,,,,,,,,,,,,,,,,,,,,,,,,,,,,,36064.59400001788,,response,,,,,,,,,,,continue,click button,,,,,,,,,163091.80000001192,163083.70000001788,126785.782,126791,127019.106,163102.368,,,
Task instructions,html.Screen,1_2,2022-05-03T11:59:45.690Z,,,,,,,,,,,,,,,,,,,,,,,,,,,,,,,10313.332000017894,,response,,,,,,,,,,,continue,click button,,,,,,,,,173417.30000001192,173415.70000001788,163069.036,163092,163102.368,173435.68,,,
Sounds,html.Screen,1_3_0_0,2022-05-03T11:59:49.949Z,,,,,,,,,,,,,,,,,,,,,,,,,,,,,,,4249.9100000000035,,timeout,,,,,,,,,3,,,,,,,,O,I,S,,177676.59999999404,177668.924,173402.348,173417.5,173435.68,177685.59,,,
Judgement,html.Screen,1_3_0_1,2022-05-03T11:59:51.462Z,,,,,,,,,,,,,,,,,,,,,,,,,,,,true,3,,1501.509999994043,,response,,,,,,,,,3,,3,click #choice-3,,,,,O,I,S,,179189,179187.09999999404,177668.924,177676.90000000596,177685.59,179202.351,,,
Trial,flow.Sequence,1_3_0,2022-05-03T11:59:51.462Z,,,,,,,,,,,,,,,,,,,,,,,,,,,,,,,5751.4199999940465,,completion,,,,,,,,,3,,,,,,,,O,I,S,,179189.40000000596,179187.09999999404,173402.348,173417.5,173435.68,179202.351,,,
Sounds,html.Screen,1_3_1_0,2022-05-03T11:59:55.711Z,,,,,,,,,,,,,,,,,,,,,,,,,,,,,,,4249.8490000000165,,timeout,,,,,,,,,1,,,,,,,,S,I,O,,183438.40000000596,183435.534,179185.685,179189.80000001192,179202.351,183452.2,,,
Judgement,html.Screen,1_3_1_1,2022-05-03T11:59:56.688Z,,,,,,,,,,,,,,,,,,,,,,,,,,,,true,1,,960.3999999940279,,response,,,,,,,,,1,,1,click #choice-1,,,,,S,I,O,,184415.09999999404,184412.59999999404,183435.534,183439.30000001192,183452.2,184419.012,,,
Trial,flow.Sequence,1_3_1,2022-05-03T11:59:56.688Z,,,,,,,,,,,,,,,,,,,,,,,,,,,,,,,5210.248999994044,,completion,,,,,,,,,1,,,,,,,,S,I,O,,184415.5,184412.59999999404,179185.685,179189.5,179202.351,184419.012,,,
Sounds,html.Screen,1_3_2_0,2022-05-03T12:00:00.928Z,,,,,,,,,,,,,,,,,,,,,,,,,,,,,,,4249.835000000021,,timeout,,,,,,,,,2,,,,,,,,O,S,I,,188655.20000001788,188652.181,184402.346,184415.59999999404,184419.012,188668.847,,,
Judgement,html.Screen,1_3_2_1,2022-05-03T12:00:01.898Z,,,,,,,,,,,,,,,,,,,,,,,,,,,,true,2,,954.6529999999912,,response,,,,,,,,,2,,2,click #choice-2,,,,,O,S,I,,189625.40000000596,189623.5,188652.181,188655.70000001788,188668.847,189635.67,,,
Trial,flow.Sequence,1_3_2,2022-05-03T12:00:01.898Z,,,,,,,,,,,,,,,,,,,,,,,,,,,,,,,5204.488000000012,,completion,,,,,,,,,2,,,,,,,,O,S,I,,189625.59999999404,189623.5,184402.346,184415.59999999404,184419.012,189635.67,,,
Sounds,html.Screen,1_3_3_0,2022-05-03T12:00:06.144Z,,,,,,,,,,,,,,,,,,,,,,,,,,,,,,,4249.8279999999795,,timeout,,,,,,,,,2,,,,,,,,I,S,O,,193870.80000001192,193868.832,189619.004,189625.70000001788,189635.67,193885.498,,,
Judgement,html.Screen,1_3_3_1,2022-05-03T12:00:06.890Z,,,,,,,,,,,,,,,,,,,,,,,,,,,,true,2,,729.5020000000077,,response,,,,,,,,,2,,2,click #choice-2,,,,,I,S,O,,194617,194615,193868.832,193871,193885.498,194619.002,,,
Trial,flow.Sequence,1_3_3,2022-05-03T12:00:06.890Z,,,,,,,,,,,,,,,,,,,,,,,,,,,,,,,4979.329999999987,,completion,,,,,,,,,2,,,,,,,,I,S,O,,194617.20000001788,194615,189619.004,189625.70000001788,189635.67,194619.002,,,
Sounds,html.Screen,1_3_4_0,2022-05-03T12:00:11.127Z,,,,,,,,,,,,,,,,,,,,,,,,,,,,,,,4249.837999999989,,timeout,,,,,,,,,3,,,,,,,,I,O,S,,198854.59999999404,198852.174,194602.336,194617.5,194619.002,198868.84,,,
Judgement,html.Screen,1_3_4_1,2022-05-03T12:00:11.828Z,,,,,,,,,,,,,,,,,,,,,,,,,,,,true,3,,684.9600000119244,,response,,,,,,,,,3,,3,click #choice-3,,,,,I,O,S,,199555.70000001788,199553.80000001192,198852.174,198854.70000001788,198868.84,199568.998,,,
Trial,flow.Sequence,1_3_4,2022-05-03T12:00:11.829Z,,,,,,,,,,,,,,,,,,,,,,,,,,,,,,,4934.798000011913,,completion,,,,,,,,,3,,,,,,,,I,O,S,,199555.90000000596,199553.80000001192,194602.336,194617.40000000596,194619.002,199568.998,,,
Sounds,html.Screen,1_3_5_0,2022-05-03T12:00:16.078Z,,,,,,,,,,,,,,,,,,,,,,,,,,,,,,,4249.888999999996,,timeout,,,,,,,,,1,,,,,,,,S,O,I,,203804.90000000596,203802.221,199552.332,199556.09999999404,199568.998,203818.887,,,
Judgement,html.Screen,1_3_5_1,2022-05-03T12:00:17.534Z,,,,,,,,,,,,,,,,,,,,,,,,,,,,true,1,,1440.7129999940516,,response,,,,,,,,,1,,1,click #choice-1,,,,,S,O,I,,205261.40000000596,205259.59999999404,203802.221,203805.20000001788,203818.887,205335.649,,,
Trial,flow.Sequence,1_3_5,2022-05-03T12:00:17.534Z,,,,,,,,,,,,,,,,,,,,,,,,,,,,,,,5690.601999994047,,completion,,,,,,,,,1,,,,,,,,S,O,I,,205261.80000001192,205259.59999999404,199552.332,199556.09999999404,199568.998,205335.649,,,
Task,flow.Loop,1_3,2022-05-03T12:00:17.543Z,,,,,,,,,,,,,,,,,,,,,,,,,,,,,,,31823.919999994047,,completion,,,1,,,,,,,,,,,,,,,,,,205270.40000000596,205259.59999999404,173402.348,173417.5,173435.68,205335.649,,,
Trap,html.Screen,1_4,2022-05-03T12:00:17.569Z,,,,,,,,,,,,,,,,,,,,,,,,,,,,,,,NaN,,skipped,,,,,,,,,,,,,,,,,,,,,205296.59999999404,205259.59999999404,,205296.30000001192,,205335.649,,,
Thanks,html.Screen,1_5,2022-05-03T12:00:22.671Z,,,,,,,,,,,,,,,,,,,,,,,,,,,,,,,5060.950999994035,,response,,,,,,,,,,,continue,click button,,,,,,,,,210398,210396.59999999404,205252.319,205296.90000000596,205335.649,218068.684,,,
Headphone screening,flow.Sequence,1,2022-05-03T12:00:22.671Z,,,,,,,,,,,,,,,,,,,,,,,,,,,,,,,110644.15899999403,,completion,,,,,,,,,,,,,,,,,,,,,210398.20000001788,210396.59999999404,97835.851,98246.70000001788,99752.441,218068.684,,,
Instructions,html.Page,2_0,2022-05-03T12:00:54.655Z,,,,,,,,,,,,,,,,,,,,,,,,,,,,,,,24312.81599999999,,form submission,,,,,,,,,,,,,,,,,,,,,242382.09999999404,242381.5,217402.044,217823.20000001788,218068.684,242452.222,,,
Holding screen,html.Screen,2_1_0_0,2022-05-03T12:01:04.710Z,,,,,,,,,,,,,,,,,,,,,,,,,,,,,,,10216.671000000002,,timeout,,,,,,,,,,,,,,,,,,,,,252437,252435.502,242335.56,242382.30000001192,242452.222,252668.893,,,
screen,html.Screen,2_1_0_1_0,2022-05-03T12:01:06.496Z,,,,,,,,,,,,,,,,,53,,,,,,,,,,,,,,1530.7069999940286,,response,,,,99,,,,,,,Space,keypress(Space),,,,,,,,When -- ----- -- ------ - ------- --- ----------<br>------------- ------ ------ ---- ---- ------- ----- -- ----<br>-------- ------- -- ---------- --- - --- ----- ----- ----<br>---- --- --- ----- --- ---- ---- ------- ----- ---- -------<br>--- --- -- ----- -- --- ---- -- --- ---- -- ------ ------<br>--- ----- -- ----,254223.80000001192,254199.59999999404,252435.502,252437.20000001788,252668.893,254235.501,,0,When
screen,html.Screen,2_1_0_1_1,2022-05-03T12:01:07.731Z,,,,,,,,,,,,,,,,,53,,,,,,,,,,,,,,1221.4990000000107,,response,,,,99,,,,,,,Space,keypress(Space),,,,,,,,---- it ----- -- ------ - ------- --- ----------<br>------------- ------ ------ ---- ---- ------- ----- -- ----<br>-------- ------- -- ---------- --- - --- ----- ----- ----<br>---- --- --- ----- --- ---- ---- ------- ----- ---- -------<br>--- --- -- ----- -- --- ---- -- --- ---- -- ------ ------<br>--- ----- -- ----,255458.70000001788,255457,254218.835,254224.20000001788,254235.501,255468.787,,1,it
screen,html.Screen,2_1_0_1_2,2022-05-03T12:01:09.407Z,,,,,,,,,,,,,,,,,53,,,,,,,,,,,,,,1664.2129999999888,,response,,,,99,,,,,,,Space,keypress(Space),,,,,,,,---- -- comes -- ------ - ------- --- ----------<br>------------- ------ ------ ---- ---- ------- ----- -- ----<br>-------- ------- -- ---------- --- - --- ----- ----- ----<br>---- --- --- ----- --- ---- ---- ------- ----- ---- -------<br>--- --- -- ----- -- --- ---- -- --- ---- -- ------ ------<br>--- ----- -- ----,257134.70000001788,257133,255452.121,255459,255468.787,257152.115,,2,comes
screen,html.Screen,2_1_0_1_3,2022-05-03T12:01:10.844Z,,,,,,,,,,,,,,,,,53,,,,,,,,,,,,,,1416.5850000178907,,response,,,,99,,,,,,,Space,keypress(Space),,,,,,,,---- -- ----- to ------ - ------- --- ----------<br>------------- ------ ------ ---- ---- ------- ----- -- ----<br>-------- ------- -- ---------- --- - --- ----- ----- ----<br>---- --- --- ----- --- ---- ---- ------- ----- ---- -------<br>--- --- -- ----- -- --- ---- -- --- ---- -- ------ ------<br>--- ----- -- ----,258571,258568.70000001788,257135.449,257135.40000000596,257152.115,258585.449,,3,to
screen,html.Screen,2_1_0_1_4,2022-05-03T12:01:11.908Z,,,,,,,,,,,,,,,,,53,,,,,,,,,,,,,,1047.5510000000068,,response,,,,99,,,,,,,Space,keypress(Space),,,,,,,,---- -- ----- -- having - ------- --- ----------<br>------------- ------ ------ ---- ---- ------- ----- -- ----<br>-------- ------- -- ---------- --- - --- ----- ----- ----<br>---- --- --- ----- --- ---- ---- ------- ----- ---- -------<br>--- --- -- ----- -- --- ---- -- --- ---- -- ------ ------<br>--- ----- -- ----,259635.30000001192,259633,258568.783,258571.20000001788,258585.449,259652.152,,4,having
screen,html.Screen,2_1_0_1_5,2022-05-03T12:01:13.237Z,,,,,,,,,,,,,,,,,53,,,,,,,,,,,,,,1311.648000011919,,response,,,,99,,,,,,,Space,keypress(Space),,,,,,,,---- -- ----- -- ------ a ------- --- ----------<br>------------- ------ ------ ---- ---- ------- ----- -- ----<br>-------- ------- -- ---------- --- - --- ----- ----- ----<br>---- --- --- ----- --- ---- ---- ------- ----- ---- -------<br>--- --- -- ----- -- --- ---- -- --- ---- -- ------ ------<br>--- ----- -- ----,260964.80000001192,260963.80000001192,259635.486,259635.5,259652.152,260968.805,,5,a
screen,html.Screen,2_1_0_1_6,2022-05-03T12:01:14.310Z,,,,,,,,,,,,,,,,,53,,,,,,,,,,,,,,1067.2949999940465,,response,,,,99,,,,,,,Space,keypress(Space),,,,,,,,---- -- ----- -- ------ - lasting --- ----------<br>------------- ------ ------ ---- ---- ------- ----- -- ----<br>-------- ------- -- ---------- --- - --- ----- ----- ----<br>---- --- --- ----- --- ---- ---- ------- ----- ---- -------<br>--- --- -- ----- -- --- ---- -- --- ---- -- ------ ------<br>--- ----- -- ----,262037.40000000596,262036.09999999404,260952.139,260965,260968.805,262052.16,,6,lasting
screen,html.Screen,2_1_0_1_7,2022-05-03T12:01:15.429Z,,,,,,,,,,,,,,,,,53,,,,,,,,,,,,,,1103.6400000119174,,response,,,,99,,,,,,,Space,keypress(Space),,,,,,,,---- -- ----- -- ------ - ------- and ----------<br>------------- ------ ------ ---- ---- ------- ----- -- ----<br>-------- ------- -- ---------- --- - --- ----- ----- ----<br>---- --- --- ----- --- ---- ---- ------- ----- ---- -------<br>--- --- -- ----- -- --- ---- -- --- ---- -- ------ ------<br>--- ----- -- ----,263156.90000000596,263155.8000000119,262035.494,262037.5,262052.16,263168.791,,7,and
screen,html.Screen,2_1_0_1_8,2022-05-03T12:01:16.453Z,,,,,,,,,,,,,,,,,53,,,,,,,,,,,,,,1010.808999994013,,response,,,,99,,,,,,,Space,keypress(Space),,,,,,,,---- -- ----- -- ------ - ------- --- fulfilling<br>------------- ------ ------ ---- ---- ------- ----- -- ----<br>-------- ------- -- ---------- --- - --- ----- ----- ----<br>---- --- --- ----- --- ---- ---- ------- ----- ---- -------<br>--- --- -- ----- -- --- ---- -- --- ---- -- ------ ------<br>--- ----- -- ----,264180.5,264179.59999999404,263152.125,263157,263168.791,264185.462,,8,fulfilling
screen,html.Screen,2_1_0_1_9,2022-05-03T12:01:17.744Z,,,,,,,,,,,,,,,,,53,,,,,,,,,,,,,,1283.7380000178819,,response,,,,99,,,,,,,Space,keypress(Space),,,,,,,,"---- -- ----- -- ------ - ------- --- ----------<br>relationship, ------ ------ ---- ---- ------- ----- -- ----<br>-------- ------- -- ---------- --- - --- ----- ----- ----<br>---- --- --- ----- --- ---- ---- ------- ----- ---- -------<br>--- --- -- ----- -- --- ---- -- --- ---- -- ------ ------<br>--- ----- -- ----",265471,265469.2000000179,264168.796,264180.59999999404,264185.462,265485.453,,9,"relationship,"
screen,html.Screen,2_1_0_1_10,2022-05-03T12:01:19.046Z,,,,,,,,,,,,,,,,,53,,,,,,,,,,,,,,1286.947000005981,,response,,,,99,,,,,,,Space,keypress(Space),,,,,,,,---- -- ----- -- ------ - ------- --- ----------<br>------------- common ------ ---- ---- ------- ----- -- ----<br>-------- ------- -- ---------- --- - --- ----- ----- ----<br>---- --- --- ----- --- ---- ---- ------- ----- ---- -------<br>--- --- -- ----- -- --- ---- -- --- ---- -- ------ ------<br>--- ----- -- ----,266773.90000000596,266772.40000000596,265468.787,265471.2000000179,265485.453,266785.42,,10,common
screen,html.Screen,2_1_0_1_11,2022-05-03T12:01:20.551Z,,,,,,,,,,,,,,,,,53,,,,,,,,,,,,,,1491.3800000119372,,response,,,,99,,,,,,,Space,keypress(Space),,,,,,,,---- -- ----- -- ------ - ------- --- ----------<br>------------- ------ wisdom ---- ---- ------- ----- -- ----<br>-------- ------- -- ---------- --- - --- ----- ----- ----<br>---- --- --- ----- --- ---- ---- ------- ----- ---- -------<br>--- --- -- ----- -- --- ---- -- --- ---- -- ------ ------<br>--- ----- -- ----,268278.40000000596,268276.8000000119,266768.754,266774.09999999404,266785.42,268285.442,,11,wisdom
screen,html.Screen,2_1_0_1_12,2022-05-03T12:01:21.680Z,,,,,,,,,,,,,,,,,53,,,,,,,,,,,,,,1118.6579999940586,,response,,,,99,,,,,,,Space,keypress(Space),,,,,,,,---- -- ----- -- ------ - ------- --- ----------<br>------------- ------ ------ says ---- ------- ----- -- ----<br>-------- ------- -- ---------- --- - --- ----- ----- ----<br>---- --- --- ----- --- ---- ---- ------- ----- ---- -------<br>--- --- -- ----- -- --- ---- -- --- ---- -- ------ ------<br>--- ----- -- ----,269407.09999999404,269404.09999999404,268268.776,268278.7000000179,268285.442,269418.812,,12,says
screen,html.Screen,2_1_0_1_13,2022-05-03T12:01:22.711Z,,,,,,,,,,,,,,,,,53,,,,,,,,,,,,,,1017.7879999940633,,response,,,,99,,,,,,,Space,keypress(Space),,,,,,,,---- -- ----- -- ------ - ------- --- ----------<br>------------- ------ ------ ---- that ------- ----- -- ----<br>-------- ------- -- ---------- --- - --- ----- ----- ----<br>---- --- --- ----- --- ---- ---- ------- ----- ---- -------<br>--- --- -- ----- -- --- ---- -- --- ---- -- ------ ------<br>--- ----- -- ----,270438.40000000596,270436.59999999404,269402.146,269407.2000000179,269418.812,270452.131,,13,that
screen,html.Screen,2_1_0_1_14,2022-05-03T12:01:23.959Z,,,,,,,,,,,,,,,,,53,,,,,,,,,,,,,,1232.4689999940456,,response,,,,99,,,,,,,Space,keypress(Space),,,,,,,,---- -- ----- -- ------ - ------- --- ----------<br>------------- ------ ------ ---- ---- feeling ----- -- ----<br>-------- ------- -- ---------- --- - --- ----- ----- ----<br>---- --- --- ----- --- ---- ---- ------- ----- ---- -------<br>--- --- -- ----- -- --- ---- -- --- ---- -- ------ ------<br>--- ----- -- ----,271686.8000000119,271684.59999999404,270435.465,270438.8000000119,270452.131,271702.13,,14,feeling
screen,html.Screen,2_1_0_1_15,2022-05-03T12:01:25.079Z,,,,,,,,,,,,,,,,,53,,,,,,,,,,,,,,1102.3699999999953,,response,,,,99,,,,,,,Space,keypress(Space),,,,,,,,---- -- ----- -- ------ - ------- --- ----------<br>------------- ------ ------ ---- ---- ------- close -- ----<br>-------- ------- -- ---------- --- - --- ----- ----- ----<br>---- --- --- ----- --- ---- ---- ------- ----- ---- -------<br>--- --- -- ----- -- --- ---- -- --- ---- -- ------ ------<br>--- ----- -- ----,272806.09999999404,272804.5,271685.464,271687.09999999404,271702.13,272818.789,,15,close
screen,html.Screen,2_1_0_1_16,2022-05-03T12:01:26.111Z,,,,,,,,,,,,,,,,,53,,,,,,,,,,,,,,1018.1110000059707,,response,,,,99,,,,,,,Space,keypress(Space),,,,,,,,---- -- ----- -- ------ - ------- --- ----------<br>------------- ------ ------ ---- ---- ------- ----- to ----<br>-------- ------- -- ---------- --- - --- ----- ----- ----<br>---- --- --- ----- --- ---- ---- ------- ----- ---- -------<br>--- --- -- ----- -- --- ---- -- --- ---- -- ------ ------<br>--- ----- -- ----,273838.7000000179,273836.90000000596,272802.123,272806.3000000119,272818.789,273852.143,,16,to
screen,html.Screen,2_1_0_1_17,2022-05-03T12:01:27.246Z,,,,,,,,,,,,,,,,,53,,,,,,,,,,,,,,1119.5570000178996,,response,,,,99,,,,,,,Space,keypress(Space),,,,,,,,---- -- ----- -- ------ - ------- --- ----------<br>------------- ------ ------ ---- ---- ------- ----- -- your<br>-------- ------- -- ---------- --- - --- ----- ----- ----<br>---- --- --- ----- --- ---- ---- ------- ----- ---- -------<br>--- --- -- ----- -- --- ---- -- --- ---- -- ------ ------<br>--- ----- -- ----,274972.8000000119,274971.7000000179,273835.477,273838.90000000596,273852.143,274985.465,,17,your
screen,html.Screen,2_1_0_1_18,2022-05-03T12:01:28.671Z,,,,,,,,,,,,,,,,,53,,,,,,,,,,,,,,1410.634999994014,,response,,,,99,,,,,,,Space,keypress(Space),,,,,,,,---- -- ----- -- ------ - ------- --- ----------<br>------------- ------ ------ ---- ---- ------- ----- -- ----<br>romantic ------- -- ---------- --- - --- ----- ----- ----<br>---- --- --- ----- --- ---- ---- ------- ----- ---- -------<br>--- --- -- ----- -- --- ---- -- --- ---- -- ------ ------<br>--- ----- -- ----,276398.09999999404,276396.09999999404,274968.799,274972.8000000119,274985.465,276402.13,,18,romantic
screen,html.Screen,2_1_0_1_19,2022-05-03T12:01:29.831Z,,,,,,,,,,,,,,,,,53,,,,,,,,,,,,,,1154.4699999940349,,response,,,,99,,,,,,,Space,keypress(Space),,,,,,,,---- -- ----- -- ------ - ------- --- ----------<br>------------- ------ ------ ---- ---- ------- ----- -- ----<br>-------- partner -- ---------- --- - --- ----- ----- ----<br>---- --- --- ----- --- ---- ---- ------- ----- ---- -------<br>--- --- -- ----- -- --- ---- -- --- ---- -- ------ ------<br>--- ----- -- ----,277558.09999999404,277556.59999999404,276385.464,276398.3000000119,276402.13,277568.748,,19,partner
screen,html.Screen,2_1_0_1_20,2022-05-03T12:01:30.464Z,,,,,,,,,,,,,,,,,53,,,,,,,,,,,,,,619.8519999940181,,response,,,,99,,,,,,,Space,keypress(Space),,,,,,,,---- -- ----- -- ------ - ------- --- ----------<br>------------- ------ ------ ---- ---- ------- ----- -- ----<br>-------- ------- is ---------- --- - --- ----- ----- ----<br>---- --- --- ----- --- ---- ---- ------- ----- ---- -------<br>--- --- -- ----- -- --- ---- -- --- ---- -- ------ ------<br>--- ----- -- ----,278190.5,278188.59999999404,277552.082,277558.2000000179,277568.748,278202.136,,20,is
screen,html.Screen,2_1_0_1_21,2022-05-03T12:01:31.535Z,,,,,,,,,,,,,,,,,53,,,,,,,,,,,,,,1057.963999994041,,response,,,,99,,,,,,,Space,keypress(Space),,,,,,,,---- -- ----- -- ------ - ------- --- ----------<br>------------- ------ ------ ---- ---- ------- ----- -- ----<br>-------- ------- -- paramount. --- - --- ----- ----- ----<br>---- --- --- ----- --- ---- ---- ------- ----- ---- -------<br>--- --- -- ----- -- --- ---- -- --- ---- -- ------ ------<br>--- ----- -- ----,279261.5,279260.09999999404,278185.47,278190.90000000596,278202.136,279285.487,,21,paramount.
screen,html.Screen,2_1_0_1_22,2022-05-03T12:01:32.367Z,,,,,,,,,,,,,,,,,53,,,,,,,,,,,,,,806.9130000059376,,response,,,,99,,,,,,,Space,keypress(Space),,,,,,,,---- -- ----- -- ------ - ------- --- ----------<br>------------- ------ ------ ---- ---- ------- ----- -- ----<br>-------- ------- -- ---------- But - --- ----- ----- ----<br>---- --- --- ----- --- ---- ---- ------- ----- ---- -------<br>--- --- -- ----- -- --- ---- -- --- ---- -- ------ ------<br>--- ----- -- ----,280094,280092.40000000596,279252.155,279261.8000000119,279285.487,280102.113,,22,But
screen,html.Screen,2_1_0_1_23,2022-05-03T12:01:32.967Z,,,,,,,,,,,,,,,,,53,,,,,,,,,,,,,,590.2870000059484,,response,,,,99,,,,,,,Space,keypress(Space),,,,,,,,---- -- ----- -- ------ - ------- --- ----------<br>------------- ------ ------ ---- ---- ------- ----- -- ----<br>-------- ------- -- ---------- --- a --- ----- ----- ----<br>---- --- --- ----- --- ---- ---- ------- ----- ---- -------<br>--- --- -- ----- -- --- ---- -- --- ---- -- ------ ------<br>--- ----- -- ----,280694,280692.40000000596,280085.447,280094.3000000119,280102.113,280702.151,,23,a
screen,html.Screen,2_1_0_1_24,2022-05-03T12:01:34.048Z,,,,,,,,,,,,,,,,,53,,,,,,,,,,,,,,1070.8489999999874,,response,,,,99,,,,,,,Space,keypress(Space),,,,,,,,---- -- ----- -- ------ - ------- --- ----------<br>------------- ------ ------ ---- ---- ------- ----- -- ----<br>-------- ------- -- ---------- --- - new ----- ----- ----<br>---- --- --- ----- --- ---- ---- ------- ----- ---- -------<br>--- --- -- ----- -- --- ---- -- --- ---- -- ------ ------<br>--- ----- -- ----,281774.5,281773,280685.485,280694.3000000119,280702.151,281785.45,,24,new
screen,html.Screen,2_1_0_1_25,2022-05-03T12:01:34.928Z,,,,,,,,,,,,,,,,,53,,,,,,,,,,,,,,867.7500000178698,,response,,,,99,,,,,,,Space,keypress(Space),,,,,,,,---- -- ----- -- ------ - ------- --- ----------<br>------------- ------ ------ ---- ---- ------- ----- -- ----<br>-------- ------- -- ---------- --- - --- study ----- ----<br>---- --- --- ----- --- ---- ---- ------- ----- ---- -------<br>--- --- -- ----- -- --- ---- -- --- ---- -- ------ ------<br>--- ----- -- ----,282655,282653.2000000179,281768.784,281774.8000000119,281785.45,282668.831,,25,study
screen,html.Screen,2_1_0_1_26,2022-05-03T12:01:35.700Z,,,,,,,,,,,,,,,,,53,,,,,,,,,,,,,,755.6689999999944,,response,,,,99,,,,,,,Space,keypress(Space),,,,,,,,---- -- ----- -- ------ - ------- --- ----------<br>------------- ------ ------ ---- ---- ------- ----- -- ----<br>-------- ------- -- ---------- --- - --- ----- finds ----<br>---- --- --- ----- --- ---- ---- ------- ----- ---- -------<br>--- --- -- ----- -- --- ---- -- --- ---- -- ------ ------<br>--- ----- -- ----,283426.8000000119,283424.5,282652.165,282655.2000000179,282668.831,283435.454,,26,finds
screen,html.Screen,2_1_0_1_27,2022-05-03T12:01:36.656Z,,,,,,,,,,,,,,,,,53,,,,,,,,,,,,,,945.2460000178544,,response,,,,99,,,,,,,Space,keypress(Space),,,,,,,,---- -- ----- -- ------ - ------- --- ----------<br>------------- ------ ------ ---- ---- ------- ----- -- ----<br>-------- ------- -- ---------- --- - --- ----- ----- that<br>---- --- --- ----- --- ---- ---- ------- ----- ---- -------<br>--- --- -- ----- -- --- ---- -- --- ---- -- ------ ------<br>--- ----- -- ----,284382.90000000596,284380.7000000179,283418.788,283427.2000000179,283435.454,284385.465,,27,that
screen,html.Screen,2_1_0_1_28,2022-05-03T12:01:37.465Z,,,,,,,,,,,,,,,,,53,,,,,,,,,,,,,,803.7350000178558,,response,,,,99,,,,,,,Space,keypress(Space),,,,,,,,---- -- ----- -- ------ - ------- --- ----------<br>------------- ------ ------ ---- ---- ------- ----- -- ----<br>-------- ------- -- ---------- --- - --- ----- ----- ----<br>it's --- --- ----- --- ---- ---- ------- ----- ---- -------<br>--- --- -- ----- -- --- ---- -- --- ---- -- ------ ------<br>--- ----- -- ----,285191.5,285189.2000000179,284368.799,284383.09999999404,284385.465,285202.124,,28,it's
screen,html.Screen,2_1_0_1_29,2022-05-03T12:01:38.212Z,,,,,,,,,,,,,,,,,53,,,,,,,,,,,,,,734.6760000119102,,response,,,,99,,,,,,,Space,keypress(Space),,,,,,,,---- -- ----- -- ------ - ------- --- ----------<br>------------- ------ ------ ---- ---- ------- ----- -- ----<br>-------- ------- -- ---------- --- - --- ----- ----- ----<br>---- not --- ----- --- ---- ---- ------- ----- ---- -------<br>--- --- -- ----- -- --- ---- -- --- ---- -- ------ ------<br>--- ----- -- ----,285939.2000000179,285936.8000000119,285185.458,285191.7000000179,285202.124,285952.141,,29,not
screen,html.Screen,2_1_0_1_30,2022-05-03T12:01:38.913Z,,,,,,,,,,,,,,,,,53,,,,,,,,,,,,,,684.7590000059572,,response,,,,99,,,,,,,Space,keypress(Space),,,,,,,,---- -- ----- -- ------ - ------- --- ----------<br>------------- ------ ------ ---- ---- ------- ----- -- ----<br>-------- ------- -- ---------- --- - --- ----- ----- ----<br>---- --- how ----- --- ---- ---- ------- ----- ---- -------<br>--- --- -- ----- -- --- ---- -- --- ---- -- ------ ------<br>--- ----- -- ----,286639.59999999404,286636.90000000596,285935.475,285939.40000000596,285952.141,286652.121,,30,how
screen,html.Screen,2_1_0_1_31,2022-05-03T12:01:39.592Z,,,,,,,,,,,,,,,,,53,,,,,,,,,,,,,,665.3790000000154,,response,,,,99,,,,,,,Space,keypress(Space),,,,,,,,---- -- ----- -- ------ - ------- --- ----------<br>------------- ------ ------ ---- ---- ------- ----- -- ----<br>-------- ------- -- ---------- --- - --- ----- ----- ----<br>---- --- --- close --- ---- ---- ------- ----- ---- -------<br>--- --- -- ----- -- --- ---- -- --- ---- -- ------ ------<br>--- ----- -- ----,287319,287317.5,286635.455,286639.8000000119,286652.121,287335.446,,31,close
screen,html.Screen,2_1_0_1_32,2022-05-03T12:01:40.134Z,,,,,,,,,,,,,,,,,53,,,,,,,,,,,,,,522.6539999940433,,response,,,,99,,,,,,,Space,keypress(Space),,,,,,,,---- -- ----- -- ------ - ------- --- ----------<br>------------- ------ ------ ---- ---- ------- ----- -- ----<br>-------- ------- -- ---------- --- - --- ----- ----- ----<br>---- --- --- ----- you ---- ---- ------- ----- ---- -------<br>--- --- -- ----- -- --- ---- -- --- ---- -- ------ ------<br>--- ----- -- ----,287860.40000000596,287858.09999999404,287318.78,287319.3000000119,287335.446,287868.794,,32,you
screen,html.Screen,2_1_0_1_33,2022-05-03T12:01:41.169Z,,,,,,,,,,,,,,,,,53,,,,,,,,,,,,,,1024.8059999940451,,response,,,,99,,,,,,,Space,keypress(Space),,,,,,,,---- -- ----- -- ------ - ------- --- ----------<br>------------- ------ ------ ---- ---- ------- ----- -- ----<br>-------- ------- -- ---------- --- - --- ----- ----- ----<br>---- --- --- ----- --- feel ---- ------- ----- ---- -------<br>--- --- -- ----- -- --- ---- -- --- ---- -- ------ ------<br>--- ----- -- ----,288895.7000000179,288893.59999999404,287852.128,287860.7000000179,287868.794,288902.113,,33,feel
screen,html.Screen,2_1_0_1_34,2022-05-03T12:01:42.032Z,,,,,,,,,,,,,,,,,53,,,,,,,,,,,,,,855.0870000178693,,response,,,,99,,,,,,,Space,keypress(Space),,,,,,,,---- -- ----- -- ------ - ------- --- ----------<br>------------- ------ ------ ---- ---- ------- ----- -- ----<br>-------- ------- -- ---------- --- - --- ----- ----- ----<br>---- --- --- ----- --- ---- that ------- ----- ---- -------<br>--- --- -- ----- -- --- ---- -- --- ---- -- ------ ------<br>--- ----- -- ----,289758.59999999404,289757.2000000179,288885.447,288896,288902.113,289768.783,,34,that
screen,html.Screen,2_1_0_1_35,2022-05-03T12:01:43.100Z,,,,,,,,,,,,,,,,,53,,,,,,,,,,,,,,1055.7170000000042,,response,,,,99,,,,,,,Space,keypress(Space),,,,,,,,---- -- ----- -- ------ - ------- --- ----------<br>------------- ------ ------ ---- ---- ------- ----- -- ----<br>-------- ------- -- ---------- --- - --- ----- ----- ----<br>---- --- --- ----- --- ---- ---- matters ----- ---- -------<br>--- --- -- ----- -- --- ---- -- --- ---- -- ------ ------<br>--- ----- -- ----,290827.09999999404,290824.5,289752.117,289758.90000000596,289768.783,290835.417,,35,matters
screen,html.Screen,2_1_0_1_36,2022-05-03T12:01:44.099Z,,,,,,,,,,,,,,,,,53,,,,,,,,,,,,,,988.9830000059446,,response,,,,99,,,,,,,Space,keypress(Space),,,,,,,,"---- -- ----- -- ------ - ------- --- ----------<br>------------- ------ ------ ---- ---- ------- ----- -- ----<br>-------- ------- -- ---------- --- - --- ----- ----- ----<br>---- --- --- ----- --- ---- ---- ------- most, ---- -------<br>--- --- -- ----- -- --- ---- -- --- ---- -- ------ ------<br>--- ----- -- ----",291826.3000000119,291824.40000000596,290818.751,290827.40000000596,290835.417,291835.441,,36,"most,"
screen,html.Screen,2_1_0_1_37,2022-05-03T12:01:45.116Z,,,,,,,,,,,,,,,,,53,,,,,,,,,,,,,,1004.7590000178898,,response,,,,99,,,,,,,Space,keypress(Space),,,,,,,,---- -- ----- -- ------ - ------- --- ----------<br>------------- ------ ------ ---- ---- ------- ----- -- ----<br>-------- ------- -- ---------- --- - --- ----- ----- ----<br>---- --- --- ----- --- ---- ---- ------- ----- it's -------<br>--- --- -- ----- -- --- ---- -- --- ---- -- ------ ------<br>--- ----- -- ----,292842.90000000596,292840.2000000179,291818.775,291826.5,291835.441,292852.101,,37,it's
screen,html.Screen,2_1_0_1_38,2022-05-03T12:01:46.036Z,,,,,,,,,,,,,,,,,53,,,,,,,,,,,,,,908.8989999999758,,response,,,,99,,,,,,,Space,keypress(Space),,,,,,,,---- -- ----- -- ------ - ------- --- ----------<br>------------- ------ ------ ---- ---- ------- ----- -- ----<br>-------- ------- -- ---------- --- - --- ----- ----- ----<br>---- --- --- ----- --- ---- ---- ------- ----- ---- whether<br>--- --- -- ----- -- --- ---- -- --- ---- -- ------ ------<br>--- ----- -- ----,293762.5,293761,292835.435,292843.09999999404,292852.101,293768.783,,38,whether
screen,html.Screen,2_1_0_1_39,2022-05-03T12:01:46.915Z,,,,,,,,,,,,,,,,,53,,,,,,,,,,,,,,871.6170000059647,,response,,,,99,,,,,,,Space,keypress(Space),,,,,,,,---- -- ----- -- ------ - ------- --- ----------<br>------------- ------ ------ ---- ---- ------- ----- -- ----<br>-------- ------- -- ---------- --- - --- ----- ----- ----<br>---- --- --- ----- --- ---- ---- ------- ----- ---- -------<br>you --- -- ----- -- --- ---- -- --- ---- -- ------ ------<br>--- ----- -- ----,294641.90000000596,294640.40000000596,293752.117,293762.7000000179,293768.783,294652.078,,39,you
screen,html.Screen,2_1_0_1_40,2022-05-03T12:01:47.691Z,,,,,,,,,,,,,,,,,53,,,,,,,,,,,,,,764.6220000179019,,response,,,,99,,,,,,,Space,keypress(Space),,,,,,,,---- -- ----- -- ------ - ------- --- ----------<br>------------- ------ ------ ---- ---- ------- ----- -- ----<br>-------- ------- -- ---------- --- - --- ----- ----- ----<br>---- --- --- ----- --- ---- ---- ------- ----- ---- -------<br>--- are -- ----- -- --- ---- -- --- ---- -- ------ ------<br>--- ----- -- ----,295418.3000000119,295416.7000000179,294635.412,294642.09999999404,294652.078,295435.45,,40,are
screen,html.Screen,2_1_0_1_41,2022-05-03T12:01:48.492Z,,,,,,,,,,,,,,,,,53,,,,,,,,,,,,,,781.6499999940279,,response,,,,99,,,,,,,Space,keypress(Space),,,,,,,,---- -- ----- -- ------ - ------- --- ----------<br>------------- ------ ------ ---- ---- ------- ----- -- ----<br>-------- ------- -- ---------- --- - --- ----- ----- ----<br>---- --- --- ----- --- ---- ---- ------- ----- ---- -------<br>--- --- as ----- -- --- ---- -- --- ---- -- ------ ------<br>--- ----- -- ----,296218.8000000119,296217.09999999404,295418.784,295418.40000000596,295435.45,296235.458,,41,as
screen,html.Screen,2_1_0_1_42,2022-05-03T12:01:49.485Z,,,,,,,,,,,,,,,,,53,,,,,,,,,,,,,,973.3420000119368,,response,,,,99,,,,,,,Space,keypress(Space),,,,,,,,---- -- ----- -- ------ - ------- --- ----------<br>------------- ------ ------ ---- ---- ------- ----- -- ----<br>-------- ------- -- ---------- --- - --- ----- ----- ----<br>---- --- --- ----- --- ---- ---- ------- ----- ---- -------<br>--- --- -- close -- --- ---- -- --- ---- -- ------ ------<br>--- ----- -- ----,297211.59999999404,297208.8000000119,296218.792,296219,296235.458,297218.757,,42,close
screen,html.Screen,2_1_0_1_43,2022-05-03T12:01:50.283Z,,,,,,,,,,,,,,,,,53,,,,,,,,,,,,,,789.7430000000168,,response,,,,99,,,,,,,Space,keypress(Space),,,,,,,,---- -- ----- -- ------ - ------- --- ----------<br>------------- ------ ------ ---- ---- ------- ----- -- ----<br>-------- ------- -- ---------- --- - --- ----- ----- ----<br>---- --- --- ----- --- ---- ---- ------- ----- ---- -------<br>--- --- -- ----- as --- ---- -- --- ---- -- ------ ------<br>--- ----- -- ----,298010,298008.5,297202.091,297211.8000000119,297218.757,298018.772,,43,as
screen,html.Screen,2_1_0_1_44,2022-05-03T12:01:51.067Z,,,,,,,,,,,,,,,,,53,,,,,,,,,,,,,,773.7280000000028,,response,,,,99,,,,,,,Space,keypress(Space),,,,,,,,---- -- ----- -- ------ - ------- --- ----------<br>------------- ------ ------ ---- ---- ------- ----- -- ----<br>-------- ------- -- ---------- --- - --- ----- ----- ----<br>---- --- --- ----- --- ---- ---- ------- ----- ---- -------<br>--- --- -- ----- -- you ---- -- --- ---- -- ------ ------<br>--- ----- -- ----,298794,298792.5,298002.106,298010.2000000179,298018.772,298802.11,,44,you
screen,html.Screen,2_1_0_1_45,2022-05-03T12:01:51.947Z,,,,,,,,,,,,,,,,,53,,,,,,,,,,,,,,870.390000000014,,response,,,,99,,,,,,,Space,keypress(Space),,,,,,,,---- -- ----- -- ------ - ------- --- ----------<br>------------- ------ ------ ---- ---- ------- ----- -- ----<br>-------- ------- -- ---------- --- - --- ----- ----- ----<br>---- --- --- ----- --- ---- ---- ------- ----- ---- -------<br>--- --- -- ----- -- --- want -- --- ---- -- ------ ------<br>--- ----- -- ----,299674,299672.5,298785.444,298794.3000000119,298802.11,299685.426,,45,want
screen,html.Screen,2_1_0_1_46,2022-05-03T12:01:52.643Z,,,,,,,,,,,,,,,,,53,,,,,,,,,,,,,,683.0740000000224,,response,,,,99,,,,,,,Space,keypress(Space),,,,,,,,---- -- ----- -- ------ - ------- --- ----------<br>------------- ------ ------ ---- ---- ------- ----- -- ----<br>-------- ------- -- ---------- --- - --- ----- ----- ----<br>---- --- --- ----- --- ---- ---- ------- ----- ---- -------<br>--- --- -- ----- -- --- ---- to --- ---- -- ------ ------<br>--- ----- -- ----,300370.3000000119,300368.5,299668.76,299674.2000000179,299685.426,300385.438,,46,to
screen,html.Screen,2_1_0_1_47,2022-05-03T12:01:53.731Z,,,,,,,,,,,,,,,,,53,,,,,,,,,,,,,,1070.8620000118972,,response,,,,99,,,,,,,Space,keypress(Space),,,,,,,,"---- -- ----- -- ------ - ------- --- ----------<br>------------- ------ ------ ---- ---- ------- ----- -- ----<br>-------- ------- -- ---------- --- - --- ----- ----- ----<br>---- --- --- ----- --- ---- ---- ------- ----- ---- -------<br>--- --- -- ----- -- --- ---- -- be, ---- -- ------ ------<br>--- ----- -- ----",301458.09999999404,301456.3000000119,300368.772,300370.59999999404,300385.438,301468.76,,47,"be,"
screen,html.Screen,2_1_0_1_48,2022-05-03T12:01:54.645Z,,,,,,,,,,,,,,,,,53,,,,,,,,,,,,,,899.6400000059512,,response,,,,99,,,,,,,Space,keypress(Space),,,,,,,,---- -- ----- -- ------ - ------- --- ----------<br>------------- ------ ------ ---- ---- ------- ----- -- ----<br>-------- ------- -- ---------- --- - --- ----- ----- ----<br>---- --- --- ----- --- ---- ---- ------- ----- ---- -------<br>--- --- -- ----- -- --- ---- -- --- even -- ------ ------<br>--- ----- -- ----,302371.3000000119,302368.40000000596,301452.094,301458.3000000119,301468.76,302385.414,,48,even
screen,html.Screen,2_1_0_1_49,2022-05-03T12:01:55.308Z,,,,,,,,,,,,,,,,,53,,,,,,,,,,,,,,647.3860000119312,,response,,,,99,,,,,,,Space,keypress(Space),,,,,,,,---- -- ----- -- ------ - ------- --- ----------<br>------------- ------ ------ ---- ---- ------- ----- -- ----<br>-------- ------- -- ---------- --- - --- ----- ----- ----<br>---- --- --- ----- --- ---- ---- ------- ----- ---- -------<br>--- --- -- ----- -- --- ---- -- --- ---- if ------ ------<br>--- ----- -- ----,303034.59999999404,303032.8000000119,302368.748,302371.59999999404,302385.414,303052.086,,49,if
screen,html.Screen,2_1_0_1_50,2022-05-03T12:01:56.116Z,,,,,,,,,,,,,,,,,53,,,,,,,,,,,,,,788.4139999999898,,response,,,,99,,,,,,,Space,keypress(Space),,,,,,,,---- -- ----- -- ------ - ------- --- ----------<br>------------- ------ ------ ---- ---- ------- ----- -- ----<br>-------- ------- -- ---------- --- - --- ----- ----- ----<br>---- --- --- ----- --- ---- ---- ------- ----- ---- -------<br>--- --- -- ----- -- --- ---- -- --- ---- -- that's ------<br>--- ----- -- ----,303842.5,303840.5,303035.42,303035,303052.086,303852.102,,50,that's
screen,html.Screen,2_1_0_1_51,2022-05-03T12:01:57.116Z,,,,,,,,,,,,,,,,,53,,,,,,,,,,,,,,988.3979999999865,,response,,,,99,,,,,,,Space,keypress(Space),,,,,,,,---- -- ----- -- ------ - ------- --- ----------<br>------------- ------ ------ ---- ---- ------- ----- -- ----<br>-------- ------- -- ---------- --- - --- ----- ----- ----<br>---- --- --- ----- --- ---- ---- ------- ----- ---- -------<br>--- --- -- ----- -- --- ---- -- --- ---- -- ------ really<br>--- ----- -- ----,304842.3000000119,304840.5,303835.436,303842.7000000179,303852.102,304852.076,,51,really
screen,html.Screen,2_1_0_1_52,2022-05-03T12:01:57.876Z,,,,,,,,,,,,,,,,,53,,,,,,,,,,,,,,748.3240000059595,,response,,,,99,,,,,,,Space,keypress(Space),,,,,,,,---- -- ----- -- ------ - ------- --- ----------<br>------------- ------ ------ ---- ---- ------- ----- -- ----<br>-------- ------- -- ---------- --- - --- ----- ----- ----<br>---- --- --- ----- --- ---- ---- ------- ----- ---- -------<br>--- --- -- ----- -- --- ---- -- --- ---- -- ------ ------<br>not ----- -- ----,305602.3000000119,305600.40000000596,304835.41,304842.59999999404,304852.076,305618.756,,52,not
screen,html.Screen,2_1_0_1_53,2022-05-03T12:01:58.820Z,,,,,,,,,,,,,,,,,53,,,,,,,,,,,,,,925.544000011927,,response,,,,99,,,,,,,Space,keypress(Space),,,,,,,,---- -- ----- -- ------ - ------- --- ----------<br>------------- ------ ------ ---- ---- ------- ----- -- ----<br>-------- ------- -- ---------- --- - --- ----- ----- ----<br>---- --- --- ----- --- ---- ---- ------- ----- ---- -------<br>--- --- -- ----- -- --- ---- -- --- ---- -- ------ ------<br>--- close -- ----,306546.5,306544.3000000119,305602.09,305602.59999999404,305618.756,306552.075,,53,close
screen,html.Screen,2_1_0_1_54,2022-05-03T12:01:59.339Z,,,,,,,,,,,,,,,,,53,,,,,,,,,,,,,,512.2250000119093,,response,,,,99,,,,,,,Space,keypress(Space),,,,,,,,---- -- ----- -- ------ - ------- --- ----------<br>------------- ------ ------ ---- ---- ------- ----- -- ----<br>-------- ------- -- ---------- --- - --- ----- ----- ----<br>---- --- --- ----- --- ---- ---- ------- ----- ---- -------<br>--- --- -- ----- -- --- ---- -- --- ---- -- ------ ------<br>--- ----- at ----,307065.90000000596,307064.3000000119,306535.409,306546.8000000119,306552.075,307068.763,,54,at
screen,html.Screen,2_1_0_1_55,2022-05-03T12:02:01.469Z,,,,,,,,,,,,,,,,,53,,,,,,,,,,,,,,2124.237000000023,,response,,,,99,,,,,,,Space,keypress(Space),,,,,,,,---- -- ----- -- ------ - ------- --- ----------<br>------------- ------ ------ ---- ---- ------- ----- -- ----<br>-------- ------- -- ---------- --- - --- ----- ----- ----<br>---- --- --- ----- --- ---- ---- ------- ----- ---- -------<br>--- --- -- ----- -- --- ---- -- --- ---- -- ------ ------<br>--- ----- -- all.,309195.59999999404,309193,307052.097,307066.09999999404,307068.763,309235.371,,55,all.
Item 99,flow.Loop,2_1_0_1,2022-05-03T12:02:01.469Z,,,,,,,,,,,,,,,,,,,,,,,,,,,,,,,56524.10699999999,,completion,,,,,H,,,,,,,,,,,silence,,,,,309196,309193,252435.502,252437.09999999404,252668.893,309235.371,,,
Question 1,html.Screen,2_1_0_2,2022-05-03T12:02:07.589Z,,,,,,,,,,,,,,,,,,,,,,,,,,,,false,FALSE,,6079.129000000015,,response,,,,99,H,,,,,,TRUE,click #choice-1,,,,silence,,,,,315316,315314.5,309185.373,309196.2000000179,309235.371,315352.102,,,
Question 2,html.Screen,2_1_0_3,2022-05-03T12:02:16.732Z,,,,,,,,,,,,,,,,,,,,,,,,,,,,false,TRUE,,9105.397999999986,,response,,,,99,H,,,,,,FALSE,click #choice-2,,,,silence,,,,,324459,324457.5,315302.104,315316.2000000179,315352.102,324485.42,,,
Item 99,flow.Sequence,2_1_0,2022-05-03T12:02:16.732Z,,,,,,,,,,,,,,,,,,,,,,,,,,,,,,,82005.27799999999,,completion,,,,,,,,,,,,,,,,,,,,,324459.2000000179,324457.5,242335.56,242382.30000001192,242452.222,324485.42,,,
Holding screen,html.Screen,2_1_1_0,2022-05-03T12:02:26.749Z,,,,,,,,,,,,,,,,,,,,,,,,,,,,,,,10016.623000000021,,timeout,,,,,,,,,,,,,,,,,,,,,334476,334468.711,324452.088,324459.3000000119,324485.42,334502.043,,,
screen,html.Screen,2_1_1_1_0,2022-05-03T12:02:27.847Z,,,,,,,,,,,,,,,,,54,,,,,,,,,,,,,,1070.9569999999949,,response,,,,100,,,,,,,Space,keypress(Space),,,,,,,,At --- ---- --- ------ ----- ------- ---- -- --- ------- --<br>------- ---------- ------ -- ----- -- ----- -- ---- ------<br>--- ----- --- --- ------ -------- ----- --- ------ ----- --<br>----- ----- ---------- --- --- ------ ------ ---- -- ------<br>------- --- ------ ----- --- ---- ------- -- ---- --- --<br>------- ------,335574.40000000596,335573,334468.711,334476.3000000119,334502.043,335585.339,,0,At
screen,html.Screen,2_1_1_1_1,2022-05-03T12:02:28.448Z,,,,,,,,,,,,,,,,,54,,,,,,,,,,,,,,587.7609999940614,,response,,,,100,,,,,,,Space,keypress(Space),,,,,,,,-- the ---- --- ------ ----- ------- ---- -- --- ------- --<br>------- ---------- ------ -- ----- -- ----- -- ---- ------<br>--- ----- --- --- ------ -------- ----- --- ------ ----- --<br>----- ----- ---------- --- --- ------ ------ ---- -- ------<br>------- --- ------ ----- --- ---- ------- -- ---- --- --<br>------- ------,336174.90000000596,336173.09999999404,335568.673,335574.59999999404,335585.339,336185.346,,1,the
screen,html.Screen,2_1_1_1_2,2022-05-03T12:02:29.048Z,,,,,,,,,,,,,,,,,54,,,,,,,,,,,,,,586.9540000119014,,response,,,,100,,,,,,,Space,keypress(Space),,,,,,,,-- --- time --- ------ ----- ------- ---- -- --- ------- --<br>------- ---------- ------ -- ----- -- ----- -- ---- ------<br>--- ----- --- --- ------ -------- ----- --- ------ ----- --<br>----- ----- ---------- --- --- ------ ------ ---- -- ------<br>------- --- ------ ----- --- ---- ------- -- ---- --- --<br>------- ------,336775.3000000119,336772.3000000119,336168.68,336175.09999999404,336185.346,336785.38,,2,time
screen,html.Screen,2_1_1_1_3,2022-05-03T12:02:29.663Z,,,,,,,,,,,,,,,,,54,,,,,,,,,,,,,,603.0200000059558,,response,,,,100,,,,,,,Space,keypress(Space),,,,,,,,-- --- ---- the ------ ----- ------- ---- -- --- ------- --<br>------- ---------- ------ -- ----- -- ----- -- ---- ------<br>--- ----- --- --- ------ -------- ----- --- ------ ----- --<br>----- ----- ---------- --- --- ------ ------ ---- -- ------<br>------- --- ------ ----- --- ---- ------- -- ---- --- --<br>------- ------,337390.09999999404,337388.40000000596,336768.714,336775.40000000596,336785.38,337402.021,,3,the
screen,html.Screen,2_1_1_1_4,2022-05-03T12:02:30.367Z,,,,,,,,,,,,,,,,,54,,,,,,,,,,,,,,690.3790000059525,,response,,,,100,,,,,,,Space,keypress(Space),,,,,,,,-- --- ---- --- French ----- ------- ---- -- --- ------- --<br>------- ---------- ------ -- ----- -- ----- -- ---- ------<br>--- ----- --- --- ------ -------- ----- --- ------ ----- --<br>----- ----- ---------- --- --- ------ ------ ---- -- ------<br>------- --- ------ ----- --- ---- ------- -- ---- --- --<br>------- ------,338094.09999999404,338092.40000000596,337385.355,337390.2000000179,337402.021,338102.019,,4,French
screen,html.Screen,2_1_1_1_5,2022-05-03T12:02:31.111Z,,,,,,,,,,,,,,,,,54,,,,,,,,,,,,,,734.8810000059893,,response,,,,100,,,,,,,Space,keypress(Space),,,,,,,,-- --- ---- --- ------ crown ------- ---- -- --- ------- --<br>------- ---------- ------ -- ----- -- ----- -- ---- ------<br>--- ----- --- --- ------ -------- ----- --- ------ ----- --<br>----- ----- ---------- --- --- ------ ------ ---- -- ------<br>------- --- ------ ----- --- ---- ------- -- ---- --- --<br>------- ------,338838.5,338836.90000000596,338085.353,338094.3000000119,338102.019,338852.037,,5,crown
screen,html.Screen,2_1_1_1_6,2022-05-03T12:02:31.920Z,,,,,,,,,,,,,,,,,54,,,,,,,,,,,,,,793.7630000119098,,response,,,,100,,,,,,,Space,keypress(Space),,,,,,,,-- --- ---- --- ------ ----- secured ---- -- --- ------- --<br>------- ---------- ------ -- ----- -- ----- -- ---- ------<br>--- ----- --- --- ------ -------- ----- --- ------ ----- --<br>----- ----- ---------- --- --- ------ ------ ---- -- ------<br>------- --- ------ ----- --- ---- ------- -- ---- --- --<br>------- ------,339647.40000000596,339645.8000000119,338835.371,338838.7000000179,338852.037,339652.017,,6,secured
screen,html.Screen,2_1_1_1_7,2022-05-03T12:02:32.903Z,,,,,,,,,,,,,,,,,54,,,,,,,,,,,,,,976.3830000059679,,response,,,,100,,,,,,,Space,keypress(Space),,,,,,,,-- --- ---- --- ------ ----- ------- much -- --- ------- --<br>------- ---------- ------ -- ----- -- ----- -- ---- ------<br>--- ----- --- --- ------ -------- ----- --- ------ ----- --<br>----- ----- ---------- --- --- ------ ------ ---- -- ------<br>------- --- ------ ----- --- ---- ------- -- ---- --- --<br>------- ------,340629.90000000596,340628.40000000596,339635.351,339647.7000000179,339652.017,340635.35,,7,much
screen,html.Screen,2_1_1_1_8,2022-05-03T12:02:33.755Z,,,,,,,,,,,,,,,,,54,,,,,,,,,,,,,,845.0500000059837,,response,,,,100,,,,,,,Space,keypress(Space),,,,,,,,-- --- ---- --- ------ ----- ------- ---- of --- ------- --<br>------- ---------- ------ -- ----- -- ----- -- ---- ------<br>--- ----- --- --- ------ -------- ----- --- ------ ----- --<br>----- ----- ---------- --- --- ------ ------ ---- -- ------<br>------- --- ------ ----- --- ---- ------- -- ---- --- --<br>------- ------,341481.8000000119,341480.40000000596,340618.684,340630,340635.35,341485.327,,8,of
screen,html.Screen,2_1_1_1_9,2022-05-03T12:02:34.559Z,,,,,,,,,,,,,,,,,54,,,,,,,,,,,,,,799.0730000059702,,response,,,,100,,,,,,,Space,keypress(Space),,,,,,,,-- --- ---- --- ------ ----- ------- ---- -- its ------- --<br>------- ---------- ------ -- ----- -- ----- -- ---- ------<br>--- ----- --- --- ------ -------- ----- --- ------ ----- --<br>----- ----- ---------- --- --- ------ ------ ---- -- ------<br>------- --- ------ ----- --- ---- ------- -- ---- --- --<br>------- ------,342286.2000000179,342284.40000000596,341468.661,341482,341485.327,342302.013,,9,its
screen,html.Screen,2_1_1_1_10,2022-05-03T12:02:35.584Z,,,,,,,,,,,,,,,,,54,,,,,,,,,,,,,,1007.2870000119437,,response,,,,100,,,,,,,Space,keypress(Space),,,,,,,,-- --- ---- --- ------ ----- ------- ---- -- --- revenue --<br>------- ---------- ------ -- ----- -- ----- -- ---- ------<br>--- ----- --- --- ------ -------- ----- --- ------ ----- --<br>----- ----- ---------- --- --- ------ ------ ---- -- ------<br>------- --- ------ ----- --- ---- ------- -- ---- --- --<br>------- ------,343311.09999999404,343309.3000000119,342285.347,342286.5,342302.013,343318.665,,10,revenue
screen,html.Screen,2_1_1_1_11,2022-05-03T12:02:36.468Z,,,,,,,,,,,,,,,,,54,,,,,,,,,,,,,,875.2350000059814,,response,,,,100,,,,,,,Space,keypress(Space),,,,,,,,-- --- ---- --- ------ ----- ------- ---- -- --- ------- by<br>------- ---------- ------ -- ----- -- ----- -- ---- ------<br>--- ----- --- --- ------ -------- ----- --- ------ ----- --<br>----- ----- ---------- --- --- ------ ------ ---- -- ------<br>------- --- ------ ----- --- ---- ------- -- ---- --- --<br>------- ------,344195.2000000179,344193.90000000596,343301.999,343311.40000000596,343318.665,344202,,11,by
screen,html.Screen,2_1_1_1_12,2022-05-03T12:02:37.687Z,,,,,,,,,,,,,,,,,54,,,,,,,,,,,,,,1210.9000000059605,,response,,,,100,,,,,,,Space,keypress(Space),,,,,,,,-- --- ---- --- ------ ----- ------- ---- -- --- ------- --<br>issuing ---------- ------ -- ----- -- ----- -- ---- ------<br>--- ----- --- --- ------ -------- ----- --- ------ ----- --<br>----- ----- ---------- --- --- ------ ------ ---- -- ------<br>------- --- ------ ----- --- ---- ------- -- ---- --- --<br>------- ------,345414.59999999404,345412.90000000596,344185.334,344195.5,344202,345418.659,,12,issuing
screen,html.Screen,2_1_1_1_13,2022-05-03T12:02:38.647Z,,,,,,,,,,,,,,,,,54,,,,,,,,,,,,,,954.1410000119358,,response,,,,100,,,,,,,Space,keypress(Space),,,,,,,,-- --- ---- --- ------ ----- ------- ---- -- --- ------- --<br>------- government ------ -- ----- -- ----- -- ---- ------<br>--- ----- --- --- ------ -------- ----- --- ------ ----- --<br>----- ----- ---------- --- --- ------ ------ ---- -- ------<br>------- --- ------ ----- --- ---- ------- -- ---- --- --<br>------- ------,346373.90000000596,346372.8000000119,345401.993,345414.8000000119,345418.659,346385.302,,13,government
screen,html.Screen,2_1_1_1_14,2022-05-03T12:02:39.844Z,,,,,,,,,,,,,,,,,54,,,,,,,,,,,,,,1184.0980000059353,,response,,,,100,,,,,,,Space,keypress(Space),,,,,,,,-- --- ---- --- ------ ----- ------- ---- -- --- ------- --<br>------- ---------- bonds. -- ----- -- ----- -- ---- ------<br>--- ----- --- --- ------ -------- ----- --- ------ ----- --<br>----- ----- ---------- --- --- ------ ------ ---- -- ------<br>------- --- ------ ----- --- ---- ------- -- ---- --- --<br>------- ------,347571.2000000179,347569.40000000596,346368.636,346374.09999999404,346385.302,347585.316,,14,bonds.
screen,html.Screen,2_1_1_1_15,2022-05-03T12:02:41.424Z,,,,,,,,,,,,,,,,,54,,,,,,,,,,,,,,1563.9840000119293,,response,,,,100,,,,,,,Space,keypress(Space),,,,,,,,-- --- ---- --- ------ ----- ------- ---- -- --- ------- --<br>------- ---------- ------ In ----- -- ----- -- ---- ------<br>--- ----- --- --- ------ -------- ----- --- ------ ----- --<br>----- ----- ---------- --- --- ------ ------ ---- -- ------<br>------- --- ------ ----- --- ---- ------- -- ---- --- --<br>------- ------,349150.8000000119,349149.3000000119,347568.65,347571.5,347585.316,349168.609,,15,In
screen,html.Screen,2_1_1_1_16,2022-05-03T12:02:42.643Z,,,,,,,,,,,,,,,,,54,,,,,,,,,,,,,,1199.7910000059637,,response,,,,100,,,,,,,Space,keypress(Space),,,,,,,,"-- --- ---- --- ------ ----- ------- ---- -- --- ------- --<br>------- ---------- ------ -- 1727, -- ----- -- ---- ------<br>--- ----- --- --- ------ -------- ----- --- ------ ----- --<br>----- ----- ---------- --- --- ------ ------ ---- -- ------<br>------- --- ------ ----- --- ---- ------- -- ---- --- --<br>------- ------",350370.09999999404,350368.40000000596,349151.943,349151.09999999404,349168.609,350385.288,,16,"1727,"
screen,html.Screen,2_1_1_1_17,2022-05-03T12:02:43.539Z,,,,,,,,,,,,,,,,,54,,,,,,,,,,,,,,879.0120000119205,,response,,,,100,,,,,,,Space,keypress(Space),,,,,,,,-- --- ---- --- ------ ----- ------- ---- -- --- ------- --<br>------- ---------- ------ -- ----- in ----- -- ---- ------<br>--- ----- --- --- ------ -------- ----- --- ------ ----- --<br>----- ----- ---------- --- --- ------ ------ ---- -- ------<br>------- --- ------ ----- --- ---- ------- -- ---- --- --<br>------- ------,351266,351264.3000000119,350368.622,350370.3000000119,350385.288,351268.643,,17,in
screen,html.Screen,2_1_1_1_18,2022-05-03T12:02:44.324Z,,,,,,,,,,,,,,,,,54,,,,,,,,,,,,,,779.7570000059786,,response,,,,100,,,,,,,Space,keypress(Space),,,,,,,,-- --- ---- --- ------ ----- ------- ---- -- --- ------- --<br>------- ---------- ------ -- ----- -- order -- ---- ------<br>--- ----- --- --- ------ -------- ----- --- ------ ----- --<br>----- ----- ---------- --- --- ------ ------ ---- -- ------<br>------- --- ------ ----- --- ---- ------- -- ---- --- --<br>------- ------,352051,352048.40000000596,351251.977,351266.3000000119,351268.643,352051.994,,18,order
screen,html.Screen,2_1_1_1_19,2022-05-03T12:02:45.067Z,,,,,,,,,,,,,,,,,54,,,,,,,,,,,,,,740.4060000059544,,response,,,,100,,,,,,,Space,keypress(Space),,,,,,,,-- --- ---- --- ------ ----- ------- ---- -- --- ------- --<br>------- ---------- ------ -- ----- -- ----- to ---- ------<br>--- ----- --- --- ------ -------- ----- --- ------ ----- --<br>----- ----- ---------- --- --- ------ ------ ---- -- ------<br>------- --- ------ ----- --- ---- ------- -- ---- --- --<br>------- ------,352794,352792.40000000596,352035.328,352051.2000000179,352051.994,352802.003,,19,to
screen,html.Screen,2_1_1_1_20,2022-05-03T12:02:45.923Z,,,,,,,,,,,,,,,,,54,,,,,,,,,,,,,,846.4969999999739,,response,,,,100,,,,,,,Space,keypress(Space),,,,,,,,-- --- ---- --- ------ ----- ------- ---- -- --- ------- --<br>------- ---------- ------ -- ----- -- ----- -- save ------<br>--- ----- --- --- ------ -------- ----- --- ------ ----- --<br>----- ----- ---------- --- --- ------ ------ ---- -- ------<br>------- --- ------ ----- --- ---- ------- -- ---- --- --<br>------- ------,353650,353648.5,352785.337,352794.2000000179,352802.003,353651.975,,20,save
screen,html.Screen,2_1_1_1_21,2022-05-03T12:02:46.850Z,,,,,,,,,,,,,,,,,54,,,,,,,,,,,,,,923.7250000179047,,response,,,,100,,,,,,,Space,keypress(Space),,,,,,,,"-- --- ---- --- ------ ----- ------- ---- -- --- ------- --<br>------- ---------- ------ -- ----- -- ----- -- ---- money,<br>--- ----- --- --- ------ -------- ----- --- ------ ----- --<br>----- ----- ---------- --- --- ------ ------ ---- -- ------<br>------- --- ------ ----- --- ---- ------- -- ---- --- --<br>------- ------",354577.59999999404,354575.7000000179,353635.309,353650.3000000119,353651.975,354585.333,,21,"money,"
screen,html.Screen,2_1_1_1_22,2022-05-03T12:02:47.915Z,,,,,,,,,,,,,,,,,54,,,,,,,,,,,,,,1055.4670000119368,,response,,,,100,,,,,,,Space,keypress(Space),,,,,,,,-- --- ---- --- ------ ----- ------- ---- -- --- ------- --<br>------- ---------- ------ -- ----- -- ----- -- ---- ------<br>the ----- --- --- ------ -------- ----- --- ------ ----- --<br>----- ----- ---------- --- --- ------ ------ ---- -- ------<br>------- --- ------ ----- --- ---- ------- -- ---- --- --<br>------- ------,355642.3000000119,355640.8000000119,354568.667,354577.7000000179,354585.333,355651.97,,22,the
screen,html.Screen,2_1_1_1_23,2022-05-03T12:02:48.710Z,,,,,,,,,,,,,,,,,54,,,,,,,,,,,,,,782.0300000000279,,response,,,,100,,,,,,,Space,keypress(Space),,,,,,,,-- --- ---- --- ------ ----- ------- ---- -- --- ------- --<br>------- ---------- ------ -- ----- -- ----- -- ---- ------<br>--- state --- --- ------ -------- ----- --- ------ ----- --<br>----- ----- ---------- --- --- ------ ------ ---- -- ------<br>------- --- ------ ----- --- ---- ------- -- ---- --- --<br>------- ------,356436.90000000596,356434,355635.304,355642.5,355651.97,356451.979,,23,state
screen,html.Screen,2_1_1_1_24,2022-05-03T12:02:49.459Z,,,,,,,,,,,,,,,,,54,,,,,,,,,,,,,,732.5210000000079,,response,,,,100,,,,,,,Space,keypress(Space),,,,,,,,-- --- ---- --- ------ ----- ------- ---- -- --- ------- --<br>------- ---------- ------ -- ----- -- ----- -- ---- ------<br>--- ----- cut --- ------ -------- ----- --- ------ ----- --<br>----- ----- ---------- --- --- ------ ------ ---- -- ------<br>------- --- ------ ----- --- ---- ------- -- ---- --- --<br>------- ------,357186,357184.5,356435.313,356437.2000000179,356451.979,357201.975,,24,cut
screen,html.Screen,2_1_1_1_25,2022-05-03T12:02:50.163Z,,,,,,,,,,,,,,,,,54,,,,,,,,,,,,,,686.4250000059837,,response,,,,100,,,,,,,Space,keypress(Space),,,,,,,,-- --- ---- --- ------ ----- ------- ---- -- --- ------- --<br>------- ---------- ------ -- ----- -- ----- -- ---- ------<br>--- ----- --- the ------ -------- ----- --- ------ ----- --<br>----- ----- ---------- --- --- ------ ------ ---- -- ------<br>------- --- ------ ----- --- ---- ------- -- ---- --- --<br>------- ------,357890.09999999404,357888.40000000596,357185.309,357186.3000000119,357201.975,357901.99,,25,the
screen,html.Screen,2_1_1_1_26,2022-05-03T12:02:51.059Z,,,,,,,,,,,,,,,,,54,,,,,,,,,,,,,,882.5100000000093,,response,,,,100,,,,,,,Space,keypress(Space),,,,,,,,-- --- ---- --- ------ ----- ------- ---- -- --- ------- --<br>------- ---------- ------ -- ----- -- ----- -- ---- ------<br>--- ----- --- --- bonds' -------- ----- --- ------ ----- --<br>----- ----- ---------- --- --- ------ ------ ---- -- ------<br>------- --- ------ ----- --- ---- ------- -- ---- --- --<br>------- ------,358786.09999999404,358784.5,357885.324,357890.3000000119,357901.99,358801.997,,26,bonds'
screen,html.Screen,2_1_1_1_27,2022-05-03T12:02:52.155Z,,,,,,,,,,,,,,,,,54,,,,,,,,,,,,,,1078.4030000059865,,response,,,,100,,,,,,,Space,keypress(Space),,,,,,,,-- --- ---- --- ------ ----- ------- ---- -- --- ------- --<br>------- ---------- ------ -- ----- -- ----- -- ---- ------<br>--- ----- --- --- ------ interest ----- --- ------ ----- --<br>----- ----- ---------- --- --- ------ ------ ---- -- ------<br>------- --- ------ ----- --- ---- ------- -- ---- --- --<br>------- ------,359881.90000000596,359880.40000000596,358785.331,358786.40000000596,358801.997,359885.304,,27,interest
screen,html.Screen,2_1_1_1_28,2022-05-03T12:02:54.146Z,,,,,,,,,,,,,,,,,54,,,,,,,,,,,,,,1986.5960000059567,,response,,,,100,,,,,,,Space,keypress(Space),,,,,,,,-- --- ---- --- ------ ----- ------- ---- -- --- ------- --<br>------- ---------- ------ -- ----- -- ----- -- ---- ------<br>--- ----- --- --- ------ -------- rate. --- ------ ----- --<br>----- ----- ---------- --- --- ------ ------ ---- -- ------<br>------- --- ------ ----- --- ---- ------- -- ---- --- --<br>------- ------,361873,361871.90000000596,359868.638,359882.09999999404,359885.304,361885.26,,28,rate.
screen,html.Screen,2_1_1_1_29,2022-05-03T12:02:55.050Z,,,,,,,,,,,,,,,,,54,,,,,,,,,,,,,,890.6400000059512,,response,,,,100,,,,,,,Space,keypress(Space),,,,,,,,-- --- ---- --- ------ ----- ------- ---- -- --- ------- --<br>------- ---------- ------ -- ----- -- ----- -- ---- ------<br>--- ----- --- --- ------ -------- ----- The ------ ----- --<br>----- ----- ---------- --- --- ------ ------ ---- -- ------<br>------- --- ------ ----- --- ---- ------- -- ---- --- --<br>------- ------,362776.90000000596,362775.90000000596,361868.594,361873.2000000179,361885.26,362785.249,,29,The
screen,html.Screen,2_1_1_1_30,2022-05-03T12:02:55.779Z,,,,,,,,,,,,,,,,,54,,,,,,,,,,,,,,719.6510000059498,,response,,,,100,,,,,,,Space,keypress(Space),,,,,,,,-- --- ---- --- ------ ----- ------- ---- -- --- ------- --<br>------- ---------- ------ -- ----- -- ----- -- ---- ------<br>--- ----- --- --- ------ -------- ----- --- market ----- --<br>----- ----- ---------- --- --- ------ ------ ---- -- ------<br>------- --- ------ ----- --- ---- ------- -- ---- --- --<br>------- ------,363506.40000000596,363504.90000000596,362768.583,362777,362785.249,363518.626,,30,market
screen,html.Screen,2_1_1_1_31,2022-05-03T12:02:56.579Z,,,,,,,,,,,,,,,,,54,,,,,,,,,,,,,,785.8740000000107,,response,,,,100,,,,,,,Space,keypress(Space),,,,,,,,-- --- ---- --- ------ ----- ------- ---- -- --- ------- --<br>------- ---------- ------ -- ----- -- ----- -- ---- ------<br>--- ----- --- --- ------ -------- ----- --- ------ value --<br>----- ----- ---------- --- --- ------ ------ ---- -- ------<br>------- --- ------ ----- --- ---- ------- -- ---- --- --<br>------- ------,364305.90000000596,364304.5,363501.96,363506.59999999404,363518.626,364318.645,,31,value
screen,html.Screen,2_1_1_1_32,2022-05-03T12:02:57.339Z,,,,,,,,,,,,,,,,,54,,,,,,,,,,,,,,745.7550000059418,,response,,,,100,,,,,,,Space,keypress(Space),,,,,,,,-- --- ---- --- ------ ----- ------- ---- -- --- ------- --<br>------- ---------- ------ -- ----- -- ----- -- ---- ------<br>--- ----- --- --- ------ -------- ----- --- ------ ----- of<br>----- ----- ---------- --- --- ------ ------ ---- -- ------<br>------- --- ------ ----- --- ---- ------- -- ---- --- --<br>------- ------,365065.90000000596,365064.40000000596,364301.979,364306.2000000179,364318.645,365068.647,,32,of
screen,html.Screen,2_1_1_1_33,2022-05-03T12:02:58.091Z,,,,,,,,,,,,,,,,,54,,,,,,,,,,,,,,747.7530000059633,,response,,,,100,,,,,,,Space,keypress(Space),,,,,,,,-- --- ---- --- ------ ----- ------- ---- -- --- ------- --<br>------- ---------- ------ -- ----- -- ----- -- ---- ------<br>--- ----- --- --- ------ -------- ----- --- ------ ----- --<br>these ----- ---------- --- --- ------ ------ ---- -- ------<br>------- --- ------ ----- --- ---- ------- -- ---- --- --<br>------- ------,365818.2000000179,365816.40000000596,365051.981,365066.2000000179,365068.647,365835.314,,33,these
screen,html.Screen,2_1_1_1_34,2022-05-03T12:02:58.860Z,,,,,,,,,,,,,,,,,54,,,,,,,,,,,,,,750.185999999987,,response,,,,100,,,,,,,Space,keypress(Space),,,,,,,,-- --- ---- --- ------ ----- ------- ---- -- --- ------- --<br>------- ---------- ------ -- ----- -- ----- -- ---- ------<br>--- ----- --- --- ------ -------- ----- --- ------ ----- --<br>----- bonds ---------- --- --- ------ ------ ---- -- ------<br>------- --- ------ ----- --- ---- ------- -- ---- --- --<br>------- ------,366587.2000000179,366585.5,365818.648,365818.40000000596,365835.314,366601.981,,34,bonds
screen,html.Screen,2_1_1_1_35,2022-05-03T12:03:00.259Z,,,,,,,,,,,,,,,,,54,,,,,,,,,,,,,,1382.319000011892,,response,,,,100,,,,,,,Space,keypress(Space),,,,,,,,"-- --- ---- --- ------ ----- ------- ---- -- --- ------- --<br>------- ---------- ------ -- ----- -- ----- -- ---- ------<br>--- ----- --- --- ------ -------- ----- --- ------ ----- --<br>----- ----- plummeted, --- --- ------ ------ ---- -- ------<br>------- --- ------ ----- --- ---- ------- -- ---- --- --<br>------- ------",367986,367984.3000000119,366585.315,366587.5,366601.981,368001.942,,35,"plummeted,"
screen,html.Screen,2_1_1_1_36,2022-05-03T12:03:00.883Z,,,,,,,,,,,,,,,,,54,,,,,,,,,,,,,,606.1579999940586,,response,,,,100,,,,,,,Space,keypress(Space),,,,,,,,-- --- ---- --- ------ ----- ------- ---- -- --- ------- --<br>------- ---------- ------ -- ----- -- ----- -- ---- ------<br>--- ----- --- --- ------ -------- ----- --- ------ ----- --<br>----- ----- ---------- and --- ------ ------ ---- -- ------<br>------- --- ------ ----- --- ---- ------- -- ---- --- --<br>------- ------,368610.5,368608.09999999404,367985.276,367986.2000000179,368001.942,368618.61,,36,and
screen,html.Screen,2_1_1_1_37,2022-05-03T12:03:01.539Z,,,,,,,,,,,,,,,,,54,,,,,,,,,,,,,,646.4899999940535,,response,,,,100,,,,,,,Space,keypress(Space),,,,,,,,-- --- ---- --- ------ ----- ------- ---- -- --- ------- --<br>------- ---------- ------ -- ----- -- ----- -- ---- ------<br>--- ----- --- --- ------ -------- ----- --- ------ ----- --<br>----- ----- ---------- --- the ------ ------ ---- -- ------<br>------- --- ------ ----- --- ---- ------- -- ---- --- --<br>------- ------,369266.59999999404,369265.09999999404,368601.944,368611,368618.61,369268.73,,37,the
screen,html.Screen,2_1_1_1_38,2022-05-03T12:03:02.547Z,,,,,,,,,,,,,,,,,54,,,,,,,,,,,,,,1004.1700000059791,,response,,,,100,,,,,,,Space,keypress(Space),,,,,,,,-- --- ---- --- ------ ----- ------- ---- -- --- ------- --<br>------- ---------- ------ -- ----- -- ----- -- ---- ------<br>--- ----- --- --- ------ -------- ----- --- ------ ----- --<br>----- ----- ---------- --- --- market ------ ---- -- ------<br>------- --- ------ ----- --- ---- ------- -- ---- --- --<br>------- ------,370274.59999999404,370272.90000000596,369252.064,369266.8000000119,369268.73,370285.284,,38,market
screen,html.Screen,2_1_1_1_39,2022-05-03T12:03:03.461Z,,,,,,,,,,,,,,,,,54,,,,,,,,,,,,,,899.1160000059754,,response,,,,100,,,,,,,Space,keypress(Space),,,,,,,,-- --- ---- --- ------ ----- ------- ---- -- --- ------- --<br>------- ---------- ------ -- ----- -- ----- -- ---- ------<br>--- ----- --- --- ------ -------- ----- --- ------ ----- --<br>----- ----- ---------- --- --- ------ became ---- -- ------<br>------- --- ------ ----- --- ---- ------- -- ---- --- --<br>------- ------,371187.7000000179,371184.40000000596,370268.618,370274.8000000119,370285.284,371201.945,,39,became
screen,html.Screen,2_1_1_1_40,2022-05-03T12:03:04.291Z,,,,,,,,,,,,,,,,,54,,,,,,,,,,,,,,814.855000011914,,response,,,,100,,,,,,,Space,keypress(Space),,,,,,,,-- --- ---- --- ------ ----- ------- ---- -- --- ------- --<br>------- ---------- ------ -- ----- -- ----- -- ---- ------<br>--- ----- --- --- ------ -------- ----- --- ------ ----- --<br>----- ----- ---------- --- --- ------ ------ wary -- ------<br>------- --- ------ ----- --- ---- ------- -- ---- --- --<br>------- ------,372018.3000000119,372016.8000000119,371185.279,371188,371201.945,372035.299,,40,wary
screen,html.Screen,2_1_1_1_41,2022-05-03T12:03:04.940Z,,,,,,,,,,,,,,,,,54,,,,,,,,,,,,,,629.1010000059614,,response,,,,100,,,,,,,Space,keypress(Space),,,,,,,,-- --- ---- --- ------ ----- ------- ---- -- --- ------- --<br>------- ---------- ------ -- ----- -- ----- -- ---- ------<br>--- ----- --- --- ------ -------- ----- --- ------ ----- --<br>----- ----- ---------- --- --- ------ ------ ---- of ------<br>------- --- ------ ----- --- ---- ------- -- ---- --- --<br>------- ------,372666.8000000119,372664.40000000596,372018.633,372018.5,372035.299,372668.604,,41,of
screen,html.Screen,2_1_1_1_42,2022-05-03T12:03:05.971Z,,,,,,,,,,,,,,,,,54,,,,,,,,,,,,,,1027.9959999940475,,response,,,,100,,,,,,,Space,keypress(Space),,,,,,,,-- --- ---- --- ------ ----- ------- ---- -- --- ------- --<br>------- ---------- ------ -- ----- -- ----- -- ---- ------<br>--- ----- --- --- ------ -------- ----- --- ------ ----- --<br>----- ----- ---------- --- --- ------ ------ ---- -- French<br>------- --- ------ ----- --- ---- ------- -- ---- --- --<br>------- ------,373698.40000000596,373696.59999999404,372651.938,372667.2000000179,372668.604,373701.947,,42,French
screen,html.Screen,2_1_1_1_43,2022-05-03T12:03:07.972Z,,,,,,,,,,,,,,,,,54,,,,,,,,,,,,,,1994.453000005975,,response,,,,100,,,,,,,Space,keypress(Space),,,,,,,,-- --- ---- --- ------ ----- ------- ---- -- --- ------- --<br>------- ---------- ------ -- ----- -- ----- -- ---- ------<br>--- ----- --- --- ------ -------- ----- --- ------ ----- --<br>----- ----- ---------- --- --- ------ ------ ---- -- ------<br>credit. --- ------ ----- --- ---- ------- -- ---- --- --<br>------- ------,375699.09999999404,375696.40000000596,373685.281,373698.59999999404,373701.947,375701.913,,43,credit.
screen,html.Screen,2_1_1_1_44,2022-05-03T12:03:08.836Z,,,,,,,,,,,,,,,,,54,,,,,,,,,,,,,,859.0869999999995,,response,,,,100,,,,,,,Space,keypress(Space),,,,,,,,-- --- ---- --- ------ ----- ------- ---- -- --- ------- --<br>------- ---------- ------ -- ----- -- ----- -- ---- ------<br>--- ----- --- --- ------ -------- ----- --- ------ ----- --<br>----- ----- ---------- --- --- ------ ------ ---- -- ------<br>------- The ------ ----- --- ---- ------- -- ---- --- --<br>------- ------,376562.59999999404,376561,375685.247,375699.3000000119,375701.913,376568.634,,44,The
screen,html.Screen,2_1_1_1_45,2022-05-03T12:03:09.716Z,,,,,,,,,,,,,,,,,54,,,,,,,,,,,,,,872.9659999940195,,response,,,,100,,,,,,,Space,keypress(Space),,,,,,,,-- --- ---- --- ------ ----- ------- ---- -- --- ------- --<br>------- ---------- ------ -- ----- -- ----- -- ---- ------<br>--- ----- --- --- ------ -------- ----- --- ------ ----- --<br>----- ----- ---------- --- --- ------ ------ ---- -- ------<br>------- --- French ----- --- ---- ------- -- ---- --- --<br>------- ------,377443.2000000179,377441.59999999404,376551.968,376562.90000000596,376568.634,377451.977,,45,French
screen,html.Screen,2_1_1_1_46,2022-05-03T12:03:10.484Z,,,,,,,,,,,,,,,,,54,,,,,,,,,,,,,,756.5229999999865,,response,,,,100,,,,,,,Space,keypress(Space),,,,,,,,-- --- ---- --- ------ ----- ------- ---- -- --- ------- --<br>------- ---------- ------ -- ----- -- ----- -- ---- ------<br>--- ----- --- --- ------ -------- ----- --- ------ ----- --<br>----- ----- ---------- --- --- ------ ------ ---- -- ------<br>------- --- ------ state --- ---- ------- -- ---- --- --<br>------- ------,378211.5,378208.5,377435.311,377443.40000000596,377451.977,378218.626,,46,state
screen,html.Screen,2_1_1_1_47,2022-05-03T12:03:11.171Z,,,,,,,,,,,,,,,,,54,,,,,,,,,,,,,,678.0740000178921,,response,,,,100,,,,,,,Space,keypress(Space),,,,,,,,-- --- ---- --- ------ ----- ------- ---- -- --- ------- --<br>------- ---------- ------ -- ----- -- ----- -- ---- ------<br>--- ----- --- --- ------ -------- ----- --- ------ ----- --<br>----- ----- ---------- --- --- ------ ------ ---- -- ------<br>------- --- ------ ----- was ---- ------- -- ---- --- --<br>------- ------,378898.2000000179,378896.7000000179,378201.96,378211.7000000179,378218.626,378901.951,,47,was
screen,html.Screen,2_1_1_1_48,2022-05-03T12:03:11.912Z,,,,,,,,,,,,,,,,,54,,,,,,,,,,,,,,734.4490000059595,,response,,,,100,,,,,,,Space,keypress(Space),,,,,,,,-- --- ---- --- ------ ----- ------- ---- -- --- ------- --<br>------- ---------- ------ -- ----- -- ----- -- ---- ------<br>--- ----- --- --- ------ -------- ----- --- ------ ----- --<br>----- ----- ---------- --- --- ------ ------ ---- -- ------<br>------- --- ------ ----- --- left ------- -- ---- --- --<br>------- ------,379639.59999999404,379636.40000000596,378885.285,378898.5,378901.951,379651.954,,48,left
screen,html.Screen,2_1_1_1_49,2022-05-03T12:03:12.772Z,,,,,,,,,,,,,,,,,54,,,,,,,,,,,,,,845.8460000118939,,response,,,,100,,,,,,,Space,keypress(Space),,,,,,,,-- --- ---- --- ------ ----- ------- ---- -- --- ------- --<br>------- ---------- ------ -- ----- -- ----- -- ---- ------<br>--- ----- --- --- ------ -------- ----- --- ------ ----- --<br>----- ----- ---------- --- --- ------ ------ ---- -- ------<br>------- --- ------ ----- --- ---- without -- ---- --- --<br>------- ------,380499.3000000119,380497.8000000119,379635.288,379639.8000000119,379651.954,380501.936,,49,without
screen,html.Screen,2_1_1_1_50,2022-05-03T12:03:13.471Z,,,,,,,,,,,,,,,,,54,,,,,,,,,,,,,,695.064000000013,,response,,,,100,,,,,,,Space,keypress(Space),,,,,,,,-- --- ---- --- ------ ----- ------- ---- -- --- ------- --<br>------- ---------- ------ -- ----- -- ----- -- ---- ------<br>--- ----- --- --- ------ -------- ----- --- ------ ----- --<br>----- ----- ---------- --- --- ------ ------ ---- -- ------<br>------- --- ------ ----- --- ---- ------- an ---- --- --<br>------- ------,381198.5,381197,380485.27,380499.5,380501.936,381201.954,,50,an
screen,html.Screen,2_1_1_1_51,2022-05-03T12:03:14.319Z,,,,,,,,,,,,,,,,,54,,,,,,,,,,,,,,842.6459999940125,,response,,,,100,,,,,,,Space,keypress(Space),,,,,,,,-- --- ---- --- ------ ----- ------- ---- -- --- ------- --<br>------- ---------- ------ -- ----- -- ----- -- ---- ------<br>--- ----- --- --- ------ -------- ----- --- ------ ----- --<br>----- ----- ---------- --- --- ------ ------ ---- -- ------<br>------- --- ------ ----- --- ---- ------- -- easy --- --<br>------- ------,382046.2000000179,382044.59999999404,381185.288,381198.7000000179,381201.954,382051.963,,51,easy
screen,html.Screen,2_1_1_1_52,2022-05-03T12:03:14.951Z,,,,,,,,,,,,,,,,,54,,,,,,,,,,,,,,624.6369999940507,,response,,,,100,,,,,,,Space,keypress(Space),,,,,,,,-- --- ---- --- ------ ----- ------- ---- -- --- ------- --<br>------- ---------- ------ -- ----- -- ----- -- ---- ------<br>--- ----- --- --- ------ -------- ----- --- ------ ----- --<br>----- ----- ---------- --- --- ------ ------ ---- -- ------<br>------- --- ------ ----- --- ---- ------- -- ---- way --<br>------- ------,382678.09999999404,382676.59999999404,382035.297,382046.40000000596,382051.963,382685.28,,52,way
screen,html.Screen,2_1_1_1_53,2022-05-03T12:03:15.855Z,,,,,,,,,,,,,,,,,54,,,,,,,,,,,,,,895.2199999999721,,response,,,,100,,,,,,,Space,keypress(Space),,,,,,,,-- --- ---- --- ------ ----- ------- ---- -- --- ------- --<br>------- ---------- ------ -- ----- -- ----- -- ---- ------<br>--- ----- --- --- ------ -------- ----- --- ------ ----- --<br>----- ----- ---------- --- --- ------ ------ ---- -- ------<br>------- --- ------ ----- --- ---- ------- -- ---- --- of<br>------- ------,383581.90000000596,383580.5,382668.614,382678.40000000596,382685.28,383585.279,,53,of
screen,html.Screen,2_1_1_1_54,2022-05-03T12:03:16.655Z,,,,,,,,,,,,,,,,,54,,,,,,,,,,,,,,794.8209999940591,,response,,,,100,,,,,,,Space,keypress(Space),,,,,,,,-- --- ---- --- ------ ----- ------- ---- -- --- ------- --<br>------- ---------- ------ -- ----- -- ----- -- ---- ------<br>--- ----- --- --- ------ -------- ----- --- ------ ----- --<br>----- ----- ---------- --- --- ------ ------ ---- -- ------<br>------- --- ------ ----- --- ---- ------- -- ---- --- --<br>raising ------,384381.59999999404,384380.09999999404,383568.613,383582.09999999404,383585.279,384385.271,,54,raising
screen,html.Screen,2_1_1_1_55,2022-05-03T12:03:18.960Z,,,,,,,,,,,,,,,,,54,,,,,,,,,,,,,,2298.9290000178735,,response,,,,100,,,,,,,Space,keypress(Space),,,,,,,,-- --- ---- --- ------ ----- ------- ---- -- --- ------- --<br>------- ---------- ------ -- ----- -- ----- -- ---- ------<br>--- ----- --- --- ------ -------- ----- --- ------ ----- --<br>----- ----- ---------- --- --- ------ ------ ---- -- ------<br>------- --- ------ ----- --- ---- ------- -- ---- --- --<br>------- money.,386687.2000000179,386684.2000000179,384368.605,384381.8000000119,384385.271,386718.529,,55,money.
Item 100,flow.Loop,2_1_1_1,2022-05-03T12:03:18.960Z,,,,,,,,,,,,,,,,,,,,,,,,,,,,,,,52182.157000017876,,completion,,,,,H,,,,,,,,,,,silence,,,,,386687.59999999404,386684.2000000179,334468.711,334476.2000000179,334502.043,386718.529,,,
Question 1,html.Screen,2_1_1_2,2022-05-03T12:03:23.020Z,,,,,,,,,,,,,,,,,,,,,,,,,,,,true,TRUE,,4026.9710000000196,,response,,,,100,H,,,,,,TRUE,click #choice-1,,,,silence,,,,,390747.2000000179,390745.5,386685.197,386687.8000000119,386718.529,390768.613,,,
Question 2,html.Screen,2_1_1_3,2022-05-03T12:03:25.781Z,,,,,,,,,,,,,,,,,,,,,,,,,,,,true,FALSE,,2737.886999999988,,response,,,,100,H,,,,,,FALSE,click #choice-2,,,,silence,,,,,393508.2000000179,393506.5,390735.281,390747.3000000119,390768.613,393518.604,,,
Item 100,flow.Sequence,2_1_1,2022-05-03T12:03:25.781Z,,,,,,,,,,,,,,,,,,,,,,,,,,,,,,,69021.08000000002,,completion,,,,,,,,,,,,,,,,,,,,,393508.40000000596,393506.5,324452.088,324459.3000000119,324485.42,393518.604,,,
End of Practice,html.Page,2_1_2,2022-05-03T12:03:38.708Z,,,,,,,,,,,,,,,,,,,,,,,,,,,,,,,12916.09600001789,,form submission,,,,,,,,,,,,,,,,,,,,,406435.3000000119,406434.7000000179,393501.938,393508.59999999404,393518.604,406451.864,,,
Practice,flow.Sequence,2_1,2022-05-03T12:03:38.709Z,,,,,,,,,,,,,,,,,,,,,,,,,,,,,,,163982.47800001787,,completion,,,,,,,,,,,,,,,,,,,,,406436.2000000179,406434.7000000179,242335.56,242382.20000001788,242452.222,406451.864,,,
Trap_instruction,html.Page,2_2_0,2022-05-03T12:03:44.832Z,,,,,,,,,,,,,,,,,,,,,,,,,,,,,,,6106.9360000119195,,form submission,,,,,,,,,,,,,,,,,,,,,412559.2000000179,412558.8000000119,406418.532,406436.40000000596,406451.864,412751.891,,,
trap_trial,html.Screen,2_2_1,2022-05-03T12:03:50.070Z,,,,,,,,,,,,,,,,,,,,,,,,,,,,true,1,,5043.708999994036,,response,,,,,,,,,,,1,click #choice-1,,,,,,,,,417797,417795.59999999404,412551.899,412559.3000000119,412751.891,417835.07,,,
end of trap trial,html.Page,2_2_2,2022-05-03T12:03:54.096Z,,,,,,,,,,,,,,,,,,,,,,,,,,,,,,,3987.6300000178744,,form submission,,,,,,,,,,,,,,,,,,,,,421823.09999999404,421822.7000000179,417785.072,417797.2000000179,417835.07,421835.209,,,
Trap 1,flow.Sequence,2_2,2022-05-03T12:03:54.096Z,,,,,,,,,,,,,,,,,,,,,,,,,,,,,,,15370.83600001788,,completion,,,,,,,,,,,,,,,,,,,,,421823.40000000596,421822.7000000179,406418.532,406436.40000000596,406451.864,421835.209,,,
Standby,html.Page,2_3_0,2022-05-03T12:04:02.094Z,,,,,,,,,,,,,,,,,,,,,,,,,,,,,,,8016.372000000032,,timeout,,,,,,,,,,,,,,,,,,,,,429821.3000000119,429818.249,421818.543,421823.5,421835.209,429851.581,,,
Holding screen,html.Screen,2_3_1_0_0,2022-05-03T12:04:09.111Z,,,,,,,,,,,,,,,,,,,,,,,,,,,,,,,7016.935999999987,,timeout,,,,,,,,,,,,,,,,,,,,,436837.7000000179,436835.185,429818.249,429821.7000000179,429851.581,436868.517,,,
screen,html.Screen,2_3_1_0_1_0,2022-05-03T12:04:10.438Z,,,,,,,,,,,,,,,,,12,,,,,,,,,,,,,,1293.2830000119284,,response,,,,5,H,,,,,,Space,keypress(Space),,,,speech,,,,Some ------ ------ ------- ------ --- ------- -----------<br>-- ----- --- ---- -- --- ------ ---- - ---- -- ----------<br>-- ------ ---- --- ---- --- --- --- ----- -- -------- ---<br>------ ------- -------- --- ---- -- ------- ------------ --<br>------ -- ---- -- --- ---- -- -------- -- --- ------ ------,438164.7000000179,438161.8000000119,436835.185,436838,436868.517,438168.45,,0,Some
screen,html.Screen,2_3_1_0_1_1,2022-05-03T12:04:11.567Z,,,,,,,,,,,,,,,,,12,,,,,,,,,,,,,,1124.149999994028,,response,,,,5,H,,,,,,Space,keypress(Space),,,,speech,,,,---- months ------ ------- ------ --- ------- -----------<br>-- ----- --- ---- -- --- ------ ---- - ---- -- ----------<br>-- ------ ---- --- ---- --- --- --- ----- -- -------- ---<br>------ ------- -------- --- ---- -- ------- ------------ --<br>------ -- ---- -- --- ---- -- -------- -- --- ------ ------,439294.3000000119,439292.59999999404,438151.784,438165,438168.45,439301.79,,1,months
screen,html.Screen,2_3_1_0_1_2,2022-05-03T12:04:12.495Z,,,,,,,,,,,,,,,,,12,,,,,,,,,,,,,,919.1100000059814,,response,,,,5,H,,,,,,Space,keypress(Space),,,,speech,,,,"---- ------ later, ------- ------ --- ------- -----------<br>-- ----- --- ---- -- --- ------ ---- - ---- -- ----------<br>-- ------ ---- --- ---- --- --- --- ----- -- -------- ---<br>------ ------- -------- --- ---- -- ------- ------------ --<br>------ -- ---- -- --- ---- -- -------- -- --- ------ ------",440222.40000000596,440220.90000000596,439285.124,439294.5,439301.79,440235.13,,2,"later,"
screen,html.Screen,2_3_1_0_1_3,2022-05-03T12:04:13.375Z,,,,,,,,,,,,,,,,,12,,,,,,,,,,,,,,865.2700000059558,,response,,,,5,H,,,,,,Space,keypress(Space),,,,speech,,,,---- ------ ------ Michael ------ --- ------- -----------<br>-- ----- --- ---- -- --- ------ ---- - ---- -- ----------<br>-- ------ ---- --- ---- --- --- --- ----- -- -------- ---<br>------ ------- -------- --- ---- -- ------- ------------ --<br>------ -- ---- -- --- ---- -- -------- -- --- ------ ------,441102.09999999404,441100.40000000596,440218.464,440222.7000000179,440235.13,441118.462,,3,Michael
screen,html.Screen,2_3_1_0_1_4,2022-05-03T12:04:14.464Z,,,,,,,,,,,,,,,,,12,,,,,,,,,,,,,,1071.13799999404,,response,,,,5,H,,,,,,Space,keypress(Space),,,,speech,,,,---- ------ ------ ------- Larson --- ------- -----------<br>-- ----- --- ---- -- --- ------ ---- - ---- -- ----------<br>-- ------ ---- --- ---- --- --- --- ----- -- -------- ---<br>------ ------- -------- --- ---- -- ------- ------------ --<br>------ -- ---- -- --- ---- -- -------- -- --- ------ ------,442191.3000000119,442189.59999999404,441101.796,441102.40000000596,441118.462,442201.809,,4,Larson
screen,html.Screen,2_3_1_0_1_5,2022-05-03T12:04:15.318Z,,,,,,,,,,,,,,,,,12,,,,,,,,,,,,,,842.1909999999916,,response,,,,5,H,,,,,,Space,keypress(Space),,,,speech,,,,---- ------ ------ ------- ------ saw ------- -----------<br>-- ----- --- ---- -- --- ------ ---- - ---- -- ----------<br>-- ------ ---- --- ---- --- --- --- ----- -- -------- ---<br>------ ------- -------- --- ---- -- ------- ------------ --<br>------ -- ---- -- --- ---- -- -------- -- --- ------ ------,443045.09999999404,443044,442185.143,442191.5,442201.809,443051.809,,5,saw
screen,html.Screen,2_3_1_0_1_6,2022-05-03T12:04:16.615Z,,,,,,,,,,,,,,,,,12,,,,,,,,,,,,,,1288.591000005952,,response,,,,5,H,,,,,,Space,keypress(Space),,,,speech,,,,---- ------ ------ ------- ------ --- another -----------<br>-- ----- --- ---- -- --- ------ ---- - ---- -- ----------<br>-- ------ ---- --- ---- --- --- --- ----- -- -------- ---<br>------ ------- -------- --- ---- -- ------- ------------ --<br>------ -- ---- -- --- ---- -- -------- -- --- ------ ------,444342.2000000179,444340.40000000596,443035.143,443045.2000000179,443051.809,444351.797,,6,another
screen,html.Screen,2_3_1_0_1_7,2022-05-03T12:04:18.047Z,,,,,,,,,,,,,,,,,12,,,,,,,,,,,,,,1420.60300000594,,response,,,,5,H,,,,,,Space,keypress(Space),,,,speech,,,,---- ------ ------ ------- ------ --- ------- opportunity<br>-- ----- --- ---- -- --- ------ ---- - ---- -- ----------<br>-- ------ ---- --- ---- --- --- --- ----- -- -------- ---<br>------ ------- -------- --- ---- -- ------- ------------ --<br>------ -- ---- -- --- ---- -- -------- -- --- ------ ------,445774,445772.40000000596,444335.131,444342.40000000596,444351.797,445785.093,,7,opportunity
screen,html.Screen,2_3_1_0_1_8,2022-05-03T12:04:19.255Z,,,,,,,,,,,,,,,,,12,,,,,,,,,,,,,,1194.607000017888,,response,,,,5,H,,,,,,Space,keypress(Space),,,,speech,,,,---- ------ ------ ------- ------ --- ------- -----------<br>to ----- --- ---- -- --- ------ ---- - ---- -- ----------<br>-- ------ ---- --- ---- --- --- --- ----- -- -------- ---<br>------ ------- -------- --- ---- -- ------- ------------ --<br>------ -- ---- -- --- ---- -- -------- -- --- ------ ------,446981.59999999404,446979.7000000179,445768.427,445774.2000000179,445785.093,446985.137,,8,to
screen,html.Screen,2_3_1_0_1_9,2022-05-03T12:04:20.095Z,,,,,,,,,,,,,,,,,12,,,,,,,,,,,,,,835.5630000178935,,response,,,,5,H,,,,,,Space,keypress(Space),,,,speech,,,,---- ------ ------ ------- ------ --- ------- -----------<br>-- stack --- ---- -- --- ------ ---- - ---- -- ----------<br>-- ------ ---- --- ---- --- --- --- ----- -- -------- ---<br>------ ------- -------- --- ---- -- ------- ------------ --<br>------ -- ---- -- --- ---- -- -------- -- --- ------ ------,447822.2000000179,447820.7000000179,446968.471,446981.7000000179,446985.137,447835.145,,9,stack
screen,html.Screen,2_3_1_0_1_10,2022-05-03T12:04:20.760Z,,,,,,,,,,,,,,,,,12,,,,,,,,,,,,,,649.8549999999814,,response,,,,5,H,,,,,,Space,keypress(Space),,,,speech,,,,---- ------ ------ ------- ------ --- ------- -----------<br>-- ----- the ---- -- --- ------ ---- - ---- -- ----------<br>-- ------ ---- --- ---- --- --- --- ----- -- -------- ---<br>------ ------- -------- --- ---- -- ------- ------------ --<br>------ -- ---- -- --- ---- -- -------- -- --- ------ ------,448486.8000000119,448485,447818.479,447822.40000000596,447835.145,448501.801,,10,the
screen,html.Screen,2_3_1_0_1_11,2022-05-03T12:04:21.455Z,,,,,,,,,,,,,,,,,12,,,,,,,,,,,,,,678.5990000059828,,response,,,,5,H,,,,,,Space,keypress(Space),,,,speech,,,,---- ------ ------ ------- ------ --- ------- -----------<br>-- ----- --- odds -- --- ------ ---- - ---- -- ----------<br>-- ------ ---- --- ---- --- --- --- ----- -- -------- ---<br>------ ------- -------- --- ---- -- ------- ------------ --<br>------ -- ---- -- --- ---- -- -------- -- --- ------ ------,449181.8000000119,449180.40000000596,448485.135,448487,448501.801,449185.153,,11,odds
screen,html.Screen,2_3_1_0_1_12,2022-05-03T12:04:22.032Z,,,,,,,,,,,,,,,,,12,,,,,,,,,,,,,,571.9469999940484,,response,,,,5,H,,,,,,Space,keypress(Space),,,,speech,,,,---- ------ ------ ------- ------ --- ------- -----------<br>-- ----- --- ---- in --- ------ ---- - ---- -- ----------<br>-- ------ ---- --- ---- --- --- --- ----- -- -------- ---<br>------ ------- -------- --- ---- -- ------- ------------ --<br>------ -- ---- -- --- ---- -- -------- -- --- ------ ------,449759.2000000179,449757.09999999404,449168.487,449182.09999999404,449185.153,449768.473,,12,in
screen,html.Screen,2_3_1_0_1_13,2022-05-03T12:04:22.624Z,,,,,,,,,,,,,,,,,12,,,,,,,,,,,,,,579.9270000059623,,response,,,,5,H,,,,,,Space,keypress(Space),,,,speech,,,,---- ------ ------ ------- ------ --- ------- -----------<br>-- ----- --- ---- -- his ------ ---- - ---- -- ----------<br>-- ------ ---- --- ---- --- --- --- ----- -- -------- ---<br>------ ------- -------- --- ---- -- ------- ------------ --<br>------ -- ---- -- --- ---- -- -------- -- --- ------ ------,450350.59999999404,450348.40000000596,449751.807,449759.40000000596,449768.473,450368.494,,13,his
screen,html.Screen,2_3_1_0_1_14,2022-05-03T12:04:23.903Z,,,,,,,,,,,,,,,,,12,,,,,,,,,,,,,,1260.2060000178753,,response,,,,5,H,,,,,,Space,keypress(Space),,,,speech,,,,---- ------ ------ ------- ------ --- ------- -----------<br>-- ----- --- ---- -- --- favour ---- - ---- -- ----------<br>-- ------ ---- --- ---- --- --- --- ----- -- -------- ---<br>------ ------- -------- --- ---- -- ------- ------------ --<br>------ -- ---- -- --- ---- -- -------- -- --- ------ ------,451630.3000000119,451628.7000000179,450351.828,450350.90000000596,450368.494,451635.124,,14,favour
screen,html.Screen,2_3_1_0_1_15,2022-05-03T12:04:24.879Z,,,,,,,,,,,,,,,,,12,,,,,,,,,,,,,,969.4759999940288,,response,,,,5,H,,,,,,Space,keypress(Space),,,,speech,,,,---- ------ ------ ------- ------ --- ------- -----------<br>-- ----- --- ---- -- --- ------ with - ---- -- ----------<br>-- ------ ---- --- ---- --- --- --- ----- -- -------- ---<br>------ ------- -------- --- ---- -- ------- ------------ --<br>------ -- ---- -- --- ---- -- -------- -- --- ------ ------,452606.09999999404,452604.59999999404,451618.458,451630.5,451635.124,452618.461,,15,with
screen,html.Screen,2_3_1_0_1_16,2022-05-03T12:04:25.607Z,,,,,,,,,,,,,,,,,12,,,,,,,,,,,,,,714.0389999999898,,response,,,,5,H,,,,,,Space,keypress(Space),,,,speech,,,,---- ------ ------ ------- ------ --- ------- -----------<br>-- ----- --- ---- -- --- ------ ---- a ---- -- ----------<br>-- ------ ---- --- ---- --- --- --- ----- -- -------- ---<br>------ ------- -------- --- ---- -- ------- ------------ --<br>------ -- ---- -- --- ---- -- -------- -- --- ------ ------,453333.90000000596,453332.5,452601.795,452606.3000000119,452618.461,453351.801,,16,a
screen,html.Screen,2_3_1_0_1_17,2022-05-03T12:04:27.080Z,,,,,,,,,,,,,,,,,12,,,,,,,,,,,,,,1452.1990000000224,,response,,,,5,H,,,,,,Space,keypress(Space),,,,speech,,,,---- ------ ------ ------- ------ --- ------- -----------<br>-- ----- --- ---- -- --- ------ ---- - dash -- ----------<br>-- ------ ---- --- ---- --- --- --- ----- -- -------- ---<br>------ ------- -------- --- ---- -- ------- ------------ --<br>------ -- ---- -- --- ---- -- -------- -- --- ------ ------,454806.8000000119,454804,453335.135,453334.2000000179,453351.801,454818.441,,17,dash
screen,html.Screen,2_3_1_0_1_18,2022-05-03T12:04:27.887Z,,,,,,,,,,,,,,,,,12,,,,,,,,,,,,,,793.7590000178898,,response,,,,5,H,,,,,,Space,keypress(Space),,,,speech,,,,---- ------ ------ ------- ------ --- ------- -----------<br>-- ----- --- ---- -- --- ------ ---- - ---- of ----------<br>-- ------ ---- --- ---- --- --- --- ----- -- -------- ---<br>------ ------- -------- --- ---- -- ------- ------------ --<br>------ -- ---- -- --- ---- -- -------- -- --- ------ ------,455613.7000000179,455612.2000000179,454801.775,454807,454818.441,455618.456,,18,of
screen,html.Screen,2_3_1_0_1_19,2022-05-03T12:04:29.095Z,,,,,,,,,,,,,,,,,12,,,,,,,,,,,,,,1202.2440000178758,,response,,,,5,H,,,,,,Space,keypress(Space),,,,speech,,,,---- ------ ------ ------- ------ --- ------- -----------<br>-- ----- --- ---- -- --- ------ ---- - ---- -- ingenuity.<br>-- ------ ---- --- ---- --- --- --- ----- -- -------- ---<br>------ ------- -------- --- ---- -- ------- ------------ --<br>------ -- ---- -- --- ---- -- -------- -- --- ------ ------,456822.2000000179,456820.7000000179,455601.79,455614,455618.456,456835.125,,19,ingenuity.
screen,html.Screen,2_3_1_0_1_20,2022-05-03T12:04:29.959Z,,,,,,,,,,,,,,,,,12,,,,,,,,,,,,,,849.6750000119209,,response,,,,5,H,,,,,,Space,keypress(Space),,,,speech,,,,---- ------ ------ ------- ------ --- ------- -----------<br>-- ----- --- ---- -- --- ------ ---- - ---- -- ----------<br>He ------ ---- --- ---- --- --- --- ----- -- -------- ---<br>------ ------- -------- --- ---- -- ------- ------------ --<br>------ -- ---- -- --- ---- -- -------- -- --- ------ ------,457686.3000000119,457684.8000000119,456818.459,456822.40000000596,456835.125,457701.766,,20,He
screen,html.Screen,2_3_1_0_1_21,2022-05-03T12:04:30.747Z,,,,,,,,,,,,,,,,,12,,,,,,,,,,,,,,770.6340000059572,,response,,,,5,H,,,,,,Space,keypress(Space),,,,speech,,,,---- ------ ------ ------- ------ --- ------- -----------<br>-- ----- --- ---- -- --- ------ ---- - ---- -- ----------<br>-- walked ---- --- ---- --- --- --- ----- -- -------- ---<br>------ ------- -------- --- ---- -- ------- ------------ --<br>------ -- ---- -- --- ---- -- -------- -- --- ------ ------,458473.90000000596,458472.40000000596,457685.1,457686.59999999404,457701.766,458485.13,,21,walked
screen,html.Screen,2_3_1_0_1_22,2022-05-03T12:04:31.532Z,,,,,,,,,,,,,,,,,12,,,,,,,,,,,,,,771.8699999999953,,response,,,,5,H,,,,,,Space,keypress(Space),,,,speech,,,,---- ------ ------ ------- ------ --- ------- -----------<br>-- ----- --- ---- -- --- ------ ---- - ---- -- ----------<br>-- ------ into --- ---- --- --- --- ----- -- -------- ---<br>------ ------- -------- --- ---- -- ------- ------------ --<br>------ -- ---- -- --- ---- -- -------- -- --- ------ ------,459258.8000000119,459257,458468.464,458474.09999999404,458485.13,459268.462,,22,into
screen,html.Screen,2_3_1_0_1_23,2022-05-03T12:04:32.326Z,,,,,,,,,,,,,,,,,12,,,,,,,,,,,,,,783.4380000059609,,response,,,,5,H,,,,,,Space,keypress(Space),,,,speech,,,,---- ------ ------ ------- ------ --- ------- -----------<br>-- ----- --- ---- -- --- ------ ---- - ---- -- ----------<br>-- ------ ---- his ---- --- --- --- ----- -- -------- ---<br>------ ------- -------- --- ---- -- ------- ------------ --<br>------ -- ---- -- --- ---- -- -------- -- --- ------ ------,460053.09999999404,460051.90000000596,459251.796,459259.09999999404,459268.462,460068.442,,23,his
screen,html.Screen,2_3_1_0_1_24,2022-05-03T12:04:33.191Z,,,,,,,,,,,,,,,,,12,,,,,,,,,,,,,,848.1579999940586,,response,,,,5,H,,,,,,Space,keypress(Space),,,,speech,,,,---- ------ ------ ------- ------ --- ------- -----------<br>-- ----- --- ---- -- --- ------ ---- - ---- -- ----------<br>-- ------ ---- --- bank --- --- --- ----- -- -------- ---<br>------ ------- -------- --- ---- -- ------- ------------ --<br>------ -- ---- -- --- ---- -- -------- -- --- ------ ------,460918.09999999404,460916.59999999404,460051.776,460053.3000000119,460068.442,460935.147,,24,bank
screen,html.Screen,2_3_1_0_1_25,2022-05-03T12:04:33.905Z,,,,,,,,,,,,,,,,,12,,,,,,,,,,,,,,695.0530000178842,,response,,,,5,H,,,,,,Space,keypress(Space),,,,speech,,,,---- ------ ------ ------- ------ --- ------- -----------<br>-- ----- --- ---- -- --- ------ ---- - ---- -- ----------<br>-- ------ ---- --- ---- one --- --- ----- -- -------- ---<br>------ ------- -------- --- ---- -- ------- ------------ --<br>------ -- ---- -- --- ---- -- -------- -- --- ------ ------,461631.90000000596,461630.2000000179,460918.481,460918.40000000596,460935.147,461635.125,,25,one
screen,html.Screen,2_3_1_0_1_26,2022-05-03T12:04:34.839Z,,,,,,,,,,,,,,,,,12,,,,,,,,,,,,,,929.6750000119209,,response,,,,5,H,,,,,,Space,keypress(Space),,,,speech,,,,---- ------ ------ ------- ------ --- ------- -----------<br>-- ----- --- ---- -- --- ------ ---- - ---- -- ----------<br>-- ------ ---- --- ---- --- day --- ----- -- -------- ---<br>------ ------- -------- --- ---- -- ------- ------------ --<br>------ -- ---- -- --- ---- -- -------- -- --- ------ ------,462566.2000000179,462564.8000000119,461618.459,461632.3000000119,461635.125,462568.426,,26,day
screen,html.Screen,2_3_1_0_1_27,2022-05-03T12:04:35.545Z,,,,,,,,,,,,,,,,,12,,,,,,,,,,,,,,701.2740000179037,,response,,,,5,H,,,,,,Space,keypress(Space),,,,speech,,,,---- ------ ------ ------- ------ --- ------- -----------<br>-- ----- --- ---- -- --- ------ ---- - ---- -- ----------<br>-- ------ ---- --- ---- --- --- and ----- -- -------- ---<br>------ ------- -------- --- ---- -- ------- ------------ --<br>------ -- ---- -- --- ---- -- -------- -- --- ------ ------,463271.59999999404,463269.7000000179,462551.76,462566.5,462568.426,463285.116,,27,and
screen,html.Screen,2_3_1_0_1_28,2022-05-03T12:04:36.271Z,,,,,,,,,,,,,,,,,12,,,,,,,,,,,,,,710.684000011941,,response,,,,5,H,,,,,,Space,keypress(Space),,,,speech,,,,---- ------ ------ ------- ------ --- ------- -----------<br>-- ----- --- ---- -- --- ------ ---- - ---- -- ----------<br>-- ------ ---- --- ---- --- --- --- asked -- -------- ---<br>------ ------- -------- --- ---- -- ------- ------------ --<br>------ -- ---- -- --- ---- -- -------- -- --- ------ ------,463997.7000000179,463995.8000000119,463268.45,463271.8000000119,463285.116,464001.785,,28,asked
screen,html.Screen,2_3_1_0_1_29,2022-05-03T12:04:36.895Z,,,,,,,,,,,,,,,,,12,,,,,,,,,,,,,,618.7150000000256,,response,,,,5,H,,,,,,Space,keypress(Space),,,,speech,,,,---- ------ ------ ------- ------ --- ------- -----------<br>-- ----- --- ---- -- --- ------ ---- - ---- -- ----------<br>-- ------ ---- --- ---- --- --- --- ----- to -------- ---<br>------ ------- -------- --- ---- -- ------- ------------ --<br>------ -- ---- -- --- ---- -- -------- -- --- ------ ------,464622.40000000596,464620.5,463985.119,463997.90000000596,464001.785,464635.132,,29,to
screen,html.Screen,2_3_1_0_1_30,2022-05-03T12:04:37.800Z,,,,,,,,,,,,,,,,,12,,,,,,,,,,,,,,889.7680000059772,,response,,,,5,H,,,,,,Space,keypress(Space),,,,speech,,,,---- ------ ------ ------- ------ --- ------- -----------<br>-- ----- --- ---- -- --- ------ ---- - ---- -- ----------<br>-- ------ ---- --- ---- --- --- --- ----- -- withdraw ---<br>------ ------- -------- --- ---- -- ------- ------------ --<br>------ -- ---- -- --- ---- -- -------- -- --- ------ ------,465526.5,465524.90000000596,464618.466,464622.59999999404,464635.132,465535.124,,30,withdraw
screen,html.Screen,2_3_1_0_1_31,2022-05-03T12:04:38.618Z,,,,,,,,,,,,,,,,,12,,,,,,,,,,,,,,808.7760000059498,,response,,,,5,H,,,,,,Space,keypress(Space),,,,speech,,,,---- ------ ------ ------- ------ --- ------- -----------<br>-- ----- --- ---- -- --- ------ ---- - ---- -- ----------<br>-- ------ ---- --- ---- --- --- --- ----- -- -------- his<br>------ ------- -------- --- ---- -- ------- ------------ --<br>------ -- ---- -- --- ---- -- -------- -- --- ------ ------,466345.2000000179,466343.90000000596,465518.458,465526.7000000179,465535.124,466351.769,,31,his
screen,html.Screen,2_3_1_0_1_32,2022-05-03T12:04:39.571Z,,,,,,,,,,,,,,,,,12,,,,,,,,,,,,,,944.6310000059893,,response,,,,5,H,,,,,,Space,keypress(Space),,,,speech,,,,---- ------ ------ ------- ------ --- ------- -----------<br>-- ----- --- ---- -- --- ------ ---- - ---- -- ----------<br>-- ------ ---- --- ---- --- --- --- ----- -- -------- ---<br>entire ------- -------- --- ---- -- ------- ------------ --<br>------ -- ---- -- --- ---- -- -------- -- --- ------ ------,467298.2000000179,467296.40000000596,466335.103,466345.40000000596,466351.769,467301.772,,32,entire
screen,html.Screen,2_3_1_0_1_33,2022-05-03T12:04:40.987Z,,,,,,,,,,,,,,,,,12,,,,,,,,,,,,,,1410.6280000059633,,response,,,,5,H,,,,,,Space,keypress(Space),,,,speech,,,,---- ------ ------ ------- ------ --- ------- -----------<br>-- ----- --- ---- -- --- ------ ---- - ---- -- ----------<br>-- ------ ---- --- ---- --- --- --- ----- -- -------- ---<br>------ account -------- --- ---- -- ------- ------------ --<br>------ -- ---- -- --- ---- -- -------- -- --- ------ ------,468713.90000000596,468712.40000000596,467285.106,467298.8000000119,467301.772,468718.398,,33,account
screen,html.Screen,2_3_1_0_1_34,2022-05-03T12:04:42.428Z,,,,,,,,,,,,,,,,,12,,,,,,,,,,,,,,1434.701999994053,,response,,,,5,H,,,,,,Space,keypress(Space),,,,speech,,,,"---- ------ ------ ------- ------ --- ------- -----------<br>-- ----- --- ---- -- --- ------ ---- - ---- -- ----------<br>-- ------ ---- --- ---- --- --- --- ----- -- -------- ---<br>------ ------- balance, --- ---- -- ------- ------------ --<br>------ -- ---- -- --- ---- -- -------- -- --- ------ ------",470154.90000000596,470153.09999999404,468701.732,468714.09999999404,468718.398,470168.399,,34,"balance,"
screen,html.Screen,2_3_1_0_1_35,2022-05-03T12:04:43.171Z,,,,,,,,,,,,,,,,,12,,,,,,,,,,,,,,727.9010000119451,,response,,,,5,H,,,,,,Space,keypress(Space),,,,speech,,,,---- ------ ------ ------- ------ --- ------- -----------<br>-- ----- --- ---- -- --- ------ ---- - ---- -- ----------<br>-- ------ ---- --- ---- --- --- --- ----- -- -------- ---<br>------ ------- -------- but ---- -- ------- ------------ --<br>------ -- ---- -- --- ---- -- -------- -- --- ------ ------,470897.90000000596,470896.3000000119,470151.733,470155.09999999404,470168.399,470901.743,,35,but
screen,html.Screen,2_3_1_0_1_36,2022-05-03T12:04:43.915Z,,,,,,,,,,,,,,,,,12,,,,,,,,,,,,,,738.6570000059437,,response,,,,5,H,,,,,,Space,keypress(Space),,,,speech,,,,---- ------ ------ ------- ------ --- ------- -----------<br>-- ----- --- ---- -- --- ------ ---- - ---- -- ----------<br>-- ------ ---- --- ---- --- --- --- ----- -- -------- ---<br>------ ------- -------- --- with -- ------- ------------ --<br>------ -- ---- -- --- ---- -- -------- -- --- ------ ------,471642,471640.40000000596,470885.077,470898.09999999404,470901.743,471651.769,,36,with
screen,html.Screen,2_3_1_0_1_37,2022-05-03T12:04:44.612Z,,,,,,,,,,,,,,,,,12,,,,,,,,,,,,,,684.7310000000289,,response,,,,5,H,,,,,,Space,keypress(Space),,,,speech,,,,---- ------ ------ ------- ------ --- ------- -----------<br>-- ----- --- ---- -- --- ------ ---- - ---- -- ----------<br>-- ------ ---- --- ---- --- --- --- ----- -- -------- ---<br>------ ------- -------- --- ---- an ------- ------------ --<br>------ -- ---- -- --- ---- -- -------- -- --- ------ ------,472339.09999999404,472336.5,471635.103,471642.2000000179,471651.769,472351.783,,37,an
screen,html.Screen,2_3_1_0_1_38,2022-05-03T12:04:45.539Z,,,,,,,,,,,,,,,,,12,,,,,,,,,,,,,,912.6170000059647,,response,,,,5,H,,,,,,Space,keypress(Space),,,,speech,,,,---- ------ ------ ------- ------ --- ------- -----------<br>-- ----- --- ---- -- --- ------ ---- - ---- -- ----------<br>-- ------ ---- --- ---- --- --- --- ----- -- -------- ---<br>------ ------- -------- --- ---- -- unusual ------------ --<br>------ -- ---- -- --- ---- -- -------- -- --- ------ ------,473266,473264.40000000596,472335.117,472339.5,472351.783,473268.437,,38,unusual
screen,html.Screen,2_3_1_0_1_39,2022-05-03T12:04:47.322Z,,,,,,,,,,,,,,,,,12,,,,,,,,,,,,,,1779.3630000119447,,response,,,,5,H,,,,,,Space,keypress(Space),,,,speech,,,,---- ------ ------ ------- ------ --- ------- -----------<br>-- ----- --- ---- -- --- ------ ---- - ---- -- ----------<br>-- ------ ---- --- ---- --- --- --- ----- -- -------- ---<br>------ ------- -------- --- ---- -- ------- stipulation: --<br>------ -- ---- -- --- ---- -- -------- -- --- ------ ------,475049.3000000119,475047.8000000119,473251.771,473266.09999999404,473268.437,475051.707,,39,stipulation:
screen,html.Screen,2_3_1_0_1_40,2022-05-03T12:04:48.219Z,,,,,,,,,,,,,,,,,12,,,,,,,,,,,,,,892.593000011926,,response,,,,5,H,,,,,,Space,keypress(Space),,,,speech,,,,---- ------ ------ ------- ------ --- ------- -----------<br>-- ----- --- ---- -- --- ------ ---- - ---- -- ----------<br>-- ------ ---- --- ---- --- --- --- ----- -- -------- ---<br>------ ------- -------- --- ---- -- ------- ------------ He<br>------ -- ---- -- --- ---- -- -------- -- --- ------ ------,475945.7000000179,475944.3000000119,475035.041,475049.5,475051.707,475951.77,,40,He
screen,html.Screen,2_3_1_0_1_41,2022-05-03T12:04:49.051Z,,,,,,,,,,,,,,,,,12,,,,,,,,,,,,,,824.6300000059418,,response,,,,5,H,,,,,,Space,keypress(Space),,,,speech,,,,---- ------ ------ ------- ------ --- ------- -----------<br>-- ----- --- ---- -- --- ------ ---- - ---- -- ----------<br>-- ------ ---- --- ---- --- --- --- ----- -- -------- ---<br>------ ------- -------- --- ---- -- ------- ------------ --<br>wanted -- ---- -- --- ---- -- -------- -- --- ------ ------,476778,476776.40000000596,475935.104,475946,475951.77,476785.089,,41,wanted
screen,html.Screen,2_3_1_0_1_42,2022-05-03T12:04:49.836Z,,,,,,,,,,,,,,,,,12,,,,,,,,,,,,,,776.0109999940614,,response,,,,5,H,,,,,,Space,keypress(Space),,,,speech,,,,---- ------ ------ ------- ------ --- ------- -----------<br>-- ----- --- ---- -- --- ------ ---- - ---- -- ----------<br>-- ------ ---- --- ---- --- --- --- ----- -- -------- ---<br>------ ------- -------- --- ---- -- ------- ------------ --<br>------ as ---- -- --- ---- -- -------- -- --- ------ ------,477562.8000000119,477561.09999999404,476768.423,476778.2000000179,476785.089,477568.526,,42,as
screen,html.Screen,2_3_1_0_1_43,2022-05-03T12:04:50.659Z,,,,,,,,,,,,,,,,,12,,,,,,,,,,,,,,815.9739999999874,,response,,,,5,H,,,,,,Space,keypress(Space),,,,speech,,,,---- ------ ------ ------- ------ --- ------- -----------<br>-- ----- --- ---- -- --- ------ ---- - ---- -- ----------<br>-- ------ ---- --- ---- --- --- --- ----- -- -------- ---<br>------ ------- -------- --- ---- -- ------- ------------ --<br>------ -- much -- --- ---- -- -------- -- --- ------ ------,478386.09999999404,478384.5,477551.86,477563.09999999404,477568.526,478401.766,,43,much
