sender,sender_type,sender_id,timestamp,meta,,Blues,Classical,Country,Dance,Electronic,Folk,Gospel,Hip-Hop,Jazz,Latin,Musical/Film,New-age,Pop,Prolific_id,Provo_ID,R&B,Rap,Reggae,Religious,Rock,Soul,Swing,Traditional,age,artist_name,correct,correctResponse,distraction,duration,education,ended_on,familiarity,gender,headphone_check_performance,item,list,music_frequency,offensiveness,pleasantness,position_correct,preference,response,response_action,snippet_file,song_name,song_rating,sound,stimulus_1,stimulus_2,stimulus_3,text,time_commit,time_end,time_render,time_run,time_show,time_switch,url,word,word_ID
Prolific ID,html.Form,0,2022-05-12T15:29:54.448Z,"{""labjs_version"":""20.2.2"",""labjs_build"":{""flavor"":""production"",""commit"":""a25486e0c714a0ae2ce03ff94b7bb6896854dcfa""},""location"":""https://run.pavlovia.org/mvasilev/prolific3_music_f/"",""userAgent"":""Mozilla/5.0 (Windows NT 10.0; Win64; x64) AppleWebKit/537.36 (KHTML, like Gecko) Chrome/101.0.4951.54 Safari/537.36"",""platform"":""Win32"",""language"":""en-GB"",""locale"":""en-US"",""timeZone"":""Europe/London"",""timezoneOffset"":-60,""screen_width"":1920,""screen_height"":1080,""scroll_width"":1920,""scroll_height"":899,""window_innerWidth"":1920,""window_innerHeight"":947,""devicePixelRatio"":1}",,,,,,,,,,,,,,,623478b74666adc4ae9be6ab,,,,,,,,,,,,,,,3749.85599999851,,form submission,,,,,,,,,,,,,,,,,,,,,9998.60000000149,9998.39999999851,6234.374,6237.20000000298,6248.544,9998.197,{},,
Introduction,html.Screen,1_0,2022-05-12T15:29:57.431Z,,,,,,,,,,,,,,,,,,,,,,,,,,,,,,,2981.803,,response,,,,,,,,,,,continue,click button,,,,,,,,,12981.20000000298,12980,9991.446,9998.70000000298,9998.197,12984.249,,,
Volume calibration,html.Screen,1_1,2022-05-12T15:30:04.562Z,,,,,,,,,,,,,,,,,,,,,,,,,,,,,,,7127.65099999851,,response,,,,,,,,,,,continue,click button,,,,,,,,,20112.20000000298,20111.89999999851,12977.272,12981.30000000447,12984.249,20116.041,,,
Task instructions,html.Screen,1_2,2022-05-12T15:30:07.044Z,,,,,,,,,,,,,,,,,,,,,,,,,,,,,,,2478.159000002979,,response,,,,,,,,,,,continue,click button,,,,,,,,,22594.39999999851,22594.20000000298,20109.254,20112.20000000298,20116.041,22595.104,,,
Sounds,html.Screen,1_3_0_0,2022-05-12T15:30:11.289Z,,,,,,,,,,,,,,,,,,,,,,,,,,,,,,,4249.893,,timeout,,,,,,,,,3,,,,,,,,O,I,S,,26839.20000000298,26838.259,22588.149,22594.5,22595.104,26844.997,,,
Judgement,html.Screen,1_3_0_1,2022-05-12T15:30:11.948Z,,,,,,,,,,,,,,,,,,,,,,,,,,,,true,3,,652.7030000029808,,response,,,,,,,,,3,,3,click #choice-3,,,,,O,I,S,,27498.10000000149,27497.70000000298,26838.259,26839.39999999851,26844.997,27504.706,,,
Trial,flow.Sequence,1_3_0,2022-05-12T15:30:11.948Z,,,,,,,,,,,,,,,,,,,,,,,,,,,,,,,4902.596000002981,,completion,,,,,,,,,3,,,,,,,,O,I,S,,27498.20000000298,27497.70000000298,22588.149,22594.5,22595.104,27504.706,,,
Sounds,html.Screen,1_3_1_0,2022-05-12T15:30:16.197Z,,,,,,,,,,,,,,,,,,,,,,,,,,,,,,,4249.896000000001,,timeout,,,,,,,,,2,,,,,,,,I,S,O,,31747.80000000447,31747.651,27497.752,27498.20000000298,27504.706,31754.602,,,
Judgement,html.Screen,1_3_1_1,2022-05-12T15:30:16.550Z,,,,,,,,,,,,,,,,,,,,,,,,,,,,true,2,,345.5980000029813,,response,,,,,,,,,2,,2,click #choice-2,,,,,I,S,O,,32100.60000000149,32100.20000000298,31747.651,31747.89999999851,31754.602,32108.755,,,
Trial,flow.Sequence,1_3_1,2022-05-12T15:30:16.550Z,,,,,,,,,,,,,,,,,,,,,,,,,,,,,,,4595.494000002982,,completion,,,,,,,,,2,,,,,,,,I,S,O,,32100.70000000298,32100.20000000298,27497.752,27498.20000000298,27504.706,32108.755,,,
Sounds,html.Screen,1_3_2_0,2022-05-12T15:30:20.801Z,,,,,,,,,,,,,,,,,,,,,,,,,,,,,,,4249.895,,timeout,,,,,,,,,3,,,,,,,,I,O,S,,36351.89999999851,36351.726,32094.883,32100.80000000447,32108.755,36358.65,,,
Judgement,html.Screen,1_3_2_1,2022-05-12T15:30:21.138Z,,,,,,,,,,,,,,,,,,,,,,,,,,,,true,3,,329.0500000029788,,response,,,,,,,,,3,,3,click #choice-3,,,,,I,O,S,,36688.10000000149,36687.70000000298,36351.726,36352,36358.65,36691.98,,,
Trial,flow.Sequence,1_3_2,2022-05-12T15:30:21.138Z,,,,,,,,,,,,,,,,,,,,,,,,,,,,,,,4578.945000002979,,completion,,,,,,,,,3,,,,,,,,I,O,S,,36688.20000000298,36687.70000000298,32094.883,32100.80000000447,32108.755,36691.98,,,
Sounds,html.Screen,1_3_3_0,2022-05-12T15:30:25.385Z,,,,,,,,,,,,,,,,,,,,,,,,,,,,,,,4249.896999999997,,timeout,,,,,,,,,1,,,,,,,,S,O,I,,40935.10000000149,40934.938,36685.031,36688.20000000298,36691.98,40941.877,,,
Judgement,html.Screen,1_3_3_1,2022-05-12T15:30:25.720Z,,,,,,,,,,,,,,,,,,,,,,,,,,,,true,1,,328.3230000029798,,response,,,,,,,,,1,,1,click #choice-1,,,,,S,O,I,,41270.5,41270.20000000298,40934.938,40935.20000000298,40941.877,41275.206,,,
Trial,flow.Sequence,1_3_3,2022-05-12T15:30:25.720Z,,,,,,,,,,,,,,,,,,,,,,,,,,,,,,,4578.220000002977,,completion,,,,,,,,,1,,,,,,,,S,O,I,,41270.60000000149,41270.20000000298,36685.031,36688.20000000298,36691.98,41275.206,,,
Sounds,html.Screen,1_3_4_0,2022-05-12T15:30:29.968Z,,,,,,,,,,,,,,,,,,,,,,,,,,,,,,,4249.889999999999,,timeout,,,,,,,,,1,,,,,,,,S,I,O,,45518.30000000447,45518.17,41268.249,41270.60000000149,41275.206,45525.096,,,
Judgement,html.Screen,1_3_4_1,2022-05-12T15:30:30.332Z,,,,,,,,,,,,,,,,,,,,,,,,,,,,true,1,,356.6040000029825,,response,,,,,,,,,1,,1,click #choice-1,,,,,S,I,O,,45882.10000000149,45881.70000000298,45518.17,45518.39999999851,45525.096,45886.202,,,
Trial,flow.Sequence,1_3_4,2022-05-12T15:30:30.332Z,,,,,,,,,,,,,,,,,,,,,,,,,,,,,,,4606.494000002982,,completion,,,,,,,,,1,,,,,,,,S,I,O,,45882.30000000447,45881.70000000298,41268.249,41270.60000000149,41275.206,45886.202,,,
Sounds,html.Screen,1_3_5_0,2022-05-12T15:30:34.579Z,,,,,,,,,,,,,,,,,,,,,,,,,,,,,,,4249.916000000005,,timeout,,,,,,,,,2,,,,,,,,O,S,I,,50129.39999999851,50129.15,45879.25,45882.30000000447,45886.202,50136.118,,,
Judgement,html.Screen,1_3_5_1,2022-05-12T15:30:34.952Z,,,,,,,,,,,,,,,,,,,,,,,,,,,,true,2,,366.18200000446814,,response,,,,,,,,,2,,2,click #choice-2,,,,,O,S,I,,50502.70000000298,50502.30000000447,50129.15,50129.39999999851,50136.118,50504.195,,,
Trial,flow.Sequence,1_3_5,2022-05-12T15:30:34.952Z,,,,,,,,,,,,,,,,,,,,,,,,,,,,,,,4616.098000004473,,completion,,,,,,,,,2,,,,,,,,O,S,I,,50502.70000000298,50502.30000000447,45879.25,45882.30000000447,45886.202,50504.195,,,
Task,flow.Loop,1_3,2022-05-12T15:30:34.954Z,,,,,,,,,,,,,,,,,,,,,,,,,,,,,,,27907.19600000447,,completion,,,1,,,,,,,,,,,,,,,,,,50504.70000000298,50502.30000000447,22588.149,22594.5,22595.104,50504.195,,,
Trap,html.Screen,1_4,2022-05-12T15:30:34.955Z,,,,,,,,,,,,,,,,,,,,,,,,,,,,,,,NaN,,skipped,,,,,,,,,,,,,,,,,,,,,50505.20000000298,50502.30000000447,,50505.20000000298,,50504.195,,,
Thanks,html.Screen,1_5,2022-05-12T15:30:36.937Z,,,,,,,,,,,,,,,,,,,,,,,,,,,,,,,1983.3050000000003,,response,,,,,,,,,,,continue,click button,,,,,,,,,52487.70000000298,52487.5,50497.193,50505.30000000447,50504.195,53990.225,,,
Headphone screening,flow.Sequence,1,2022-05-12T15:30:36.937Z,,,,,,,,,,,,,,,,,,,,,,,,,,,,,,,42489.303,,completion,,,,,,,,,,,,,,,,,,,,,52487.80000000447,52487.5,9991.446,9998.70000000298,9998.197,53990.225,,,
Instructions,html.Page,2_0,2022-05-12T15:30:47.852Z,,,,,,,,,,,,,,,,,,,,,,,,,,,,,,,9411.674999998511,,form submission,,,,,,,,,,,,,,,,,,,,,63402.10000000149,63401.89999999851,53983.26,53984.5,53990.225,63406.606,,,
Holding screen,html.Screen,2_1_0_0,2022-05-12T15:30:57.849Z,,,,,,,,,,,,,,,,,,,,,,,,,,,,,,,9999.759000000005,,timeout,,,,,,,,,,,,,,,,,,,,,73399.5,73399.415,63399.656,63402.20000000298,63406.606,73406.365,,,
screen,html.Screen,2_1_0_1_0,2022-05-12T15:30:58.396Z,,,,,,,,,,,,,,,,,53,,,,,,,,,,,,,,538.835000002975,,response,,,,99,,,,,,,Space,keypress(Space),,,,,,,,When -- ----- -- ------ - ------- --- ----------<br>------------- ------ ------ ---- ---- ------- ----- -- ----<br>-------- ------- -- ---------- --- - --- ----- ----- ----<br>---- --- --- ----- --- ---- ---- ------- ----- ---- -------<br>--- --- -- ----- -- --- ---- -- --- ---- -- ------ ------<br>--- ----- -- ----,73946.30000000447,73945.20000000298,73399.415,73399.60000000149,73406.365,73948.045,,0,When
screen,html.Screen,2_1_0_1_1,2022-05-12T15:30:58.661Z,,,,,,,,,,,,,,,,,53,,,,,,,,,,,,,,263.05500000149186,,response,,,,99,,,,,,,Space,keypress(Space),,,,,,,,---- it ----- -- ------ - ------- --- ----------<br>------------- ------ ------ ---- ---- ------- ----- -- ----<br>-------- ------- -- ---------- --- - --- ----- ----- ----<br>---- --- --- ----- --- ---- ---- ------- ----- ---- -------<br>--- --- -- ----- -- --- ---- -- --- ---- -- ------ ------<br>--- ----- -- ----,74211.30000000447,74211.10000000149,73941.045,73946.39999999851,73948.045,74234.333,,1,it
screen,html.Screen,2_1_0_1_2,2022-05-12T15:30:58.967Z,,,,,,,,,,,,,,,,,53,,,,,,,,,,,,,,282.7670000014914,,response,,,,99,,,,,,,Space,keypress(Space),,,,,,,,---- -- comes -- ------ - ------- --- ----------<br>------------- ------ ------ ---- ---- ------- ----- -- ----<br>-------- ------- -- ---------- --- - --- ----- ----- ----<br>---- --- --- ----- --- ---- ---- ------- ----- ---- -------<br>--- --- -- ----- -- --- ---- -- --- ---- -- ------ ------<br>--- ----- -- ----,74517.39999999851,74517.10000000149,74204.944,74211.5,74234.333,74524.432,,2,comes
screen,html.Screen,2_1_0_1_3,2022-05-12T15:30:59.261Z,,,,,,,,,,,,,,,,,53,,,,,,,,,,,,,,286.4679999985092,,response,,,,99,,,,,,,Space,keypress(Space),,,,,,,,---- -- ----- to ------ - ------- --- ----------<br>------------- ------ ------ ---- ---- ------- ----- -- ----<br>-------- ------- -- ---------- --- - --- ----- ----- ----<br>---- --- --- ----- --- ---- ---- ------- ----- ---- -------<br>--- --- -- ----- -- --- ---- -- --- ---- -- ------ ------<br>--- ----- -- ----,74811.10000000149,74810.89999999851,74517.554,74517.5,74524.432,74816.081,,3,to
screen,html.Screen,2_1_0_1_4,2022-05-12T15:30:59.504Z,,,,,,,,,,,,,,,,,53,,,,,,,,,,,,,,237.8189999985043,,response,,,,99,,,,,,,Space,keypress(Space),,,,,,,,---- -- ----- -- having - ------- --- ----------<br>------------- ------ ------ ---- ---- ------- ----- -- ----<br>-------- ------- -- ---------- --- - --- ----- ----- ----<br>---- --- --- ----- --- ---- ---- ------- ----- ---- -------<br>--- --- -- ----- -- --- ---- -- --- ---- -- ------ ------<br>--- ----- -- ----,75054.10000000149,75053.89999999851,74809.091,74811.20000000298,74816.081,75059.327,,4,having
screen,html.Screen,2_1_0_1_5,2022-05-12T15:30:59.703Z,,,,,,,,,,,,,,,,,53,,,,,,,,,,,,,,193.5729999985051,,response,,,,99,,,,,,,Space,keypress(Space),,,,,,,,---- -- ----- -- ------ a ------- --- ----------<br>------------- ------ ------ ---- ---- ------- ----- -- ----<br>-------- ------- -- ---------- --- - --- ----- ----- ----<br>---- --- --- ----- --- ---- ---- ------- ----- ---- -------<br>--- --- -- ----- -- --- ---- -- --- ---- -- ------ ------<br>--- ----- -- ----,75253.10000000149,75252.89999999851,75052.152,75054.20000000298,75059.327,75274.336,,5,a
screen,html.Screen,2_1_0_1_6,2022-05-12T15:30:59.890Z,,,,,,,,,,,,,,,,,53,,,,,,,,,,,,,,165.5639999985142,,response,,,,99,,,,,,,Space,keypress(Space),,,,,,,,---- -- ----- -- ------ - lasting --- ----------<br>------------- ------ ------ ---- ---- ------- ----- -- ----<br>-------- ------- -- ---------- --- - --- ----- ----- ----<br>---- --- --- ----- --- ---- ---- ------- ----- ---- -------<br>--- --- -- ----- -- --- ---- -- --- ---- -- ------ ------<br>--- ----- -- ----,75440.10000000149,75439.89999999851,75246.595,75253.10000000149,75274.336,75464.515,,6,lasting
screen,html.Screen,2_1_0_1_7,2022-05-12T15:31:00.172Z,,,,,,,,,,,,,,,,,53,,,,,,,,,,,,,,257.88499999851047,,response,,,,99,,,,,,,Space,keypress(Space),,,,,,,,---- -- ----- -- ------ - ------- and ----------<br>------------- ------ ------ ---- ---- ------- ----- -- ----<br>-------- ------- -- ---------- --- - --- ----- ----- ----<br>---- --- --- ----- --- ---- ---- ------- ----- ---- -------<br>--- --- -- ----- -- --- ---- -- --- ---- -- ------ ------<br>--- ----- -- ----,75722.70000000298,75722.39999999851,75434.113,75440.10000000149,75464.515,75725.809,,7,and
screen,html.Screen,2_1_0_1_8,2022-05-12T15:31:00.483Z,,,,,,,,,,,,,,,,,53,,,,,,,,,,,,,,307.19100000000617,,response,,,,99,,,,,,,Space,keypress(Space),,,,,,,,---- -- ----- -- ------ - ------- --- fulfilling<br>------------- ------ ------ ---- ---- ------- ----- -- ----<br>-------- ------- -- ---------- --- - --- ----- ----- ----<br>---- --- --- ----- --- ---- ---- ------- ----- ---- -------<br>--- --- -- ----- -- --- ---- -- --- ---- -- ------ ------<br>--- ----- -- ----,76033.39999999851,76033,75718.796,75722.80000000447,75725.809,76038.254,,8,fulfilling
screen,html.Screen,2_1_0_1_9,2022-05-12T15:31:00.764Z,,,,,,,,,,,,,,,,,53,,,,,,,,,,,,,,275.64599999850907,,response,,,,99,,,,,,,Space,keypress(Space),,,,,,,,"---- -- ----- -- ------ - ------- --- ----------<br>relationship, ------ ------ ---- ---- ------- ----- -- ----<br>-------- ------- -- ---------- --- - --- ----- ----- ----<br>---- --- --- ----- --- ---- ---- ------- ----- ---- -------<br>--- --- -- ----- -- --- ---- -- --- ---- -- ------ ------<br>--- ----- -- ----",76314.10000000149,76313.89999999851,76031.297,76033.39999999851,76038.254,76316.034,,9,"relationship,"
screen,html.Screen,2_1_0_1_10,2022-05-12T15:31:01.206Z,,,,,,,,,,,,,,,,,53,,,,,,,,,,,,,,439.96600000000035,,response,,,,99,,,,,,,Space,keypress(Space),,,,,,,,---- -- ----- -- ------ - ------- --- ----------<br>------------- common ------ ---- ---- ------- ----- -- ----<br>-------- ------- -- ---------- --- - --- ----- ----- ----<br>---- --- --- ----- --- ---- ---- ------- ----- ---- -------<br>--- --- -- ----- -- --- ---- -- --- ---- -- ------ ------<br>--- ----- -- ----,76756.30000000447,76756,76309.055,76314.10000000149,76316.034,76760.462,,10,common
screen,html.Screen,2_1_0_1_11,2022-05-12T15:31:01.429Z,,,,,,,,,,,,,,,,,53,,,,,,,,,,,,,,218.43799999851035,,response,,,,99,,,,,,,Space,keypress(Space),,,,,,,,---- -- ----- -- ------ - ------- --- ----------<br>------------- ------ wisdom ---- ---- ------- ----- -- ----<br>-------- ------- -- ---------- --- - --- ----- ----- ----<br>---- --- --- ----- --- ---- ---- ------- ----- ---- -------<br>--- --- -- ----- -- --- ---- -- --- ---- -- ------ ------<br>--- ----- -- ----,76979.10000000149,76978.89999999851,76753.48,76756.30000000447,76760.462,76982.692,,11,wisdom
screen,html.Screen,2_1_0_1_12,2022-05-12T15:31:01.659Z,,,,,,,,,,,,,,,,,53,,,,,,,,,,,,,,226.40800000149466,,response,,,,99,,,,,,,Space,keypress(Space),,,,,,,,---- -- ----- -- ------ - ------- --- ----------<br>------------- ------ ------ says ---- ------- ----- -- ----<br>-------- ------- -- ---------- --- - --- ----- ----- ----<br>---- --- --- ----- --- ---- ---- ------- ----- ---- -------<br>--- --- -- ----- -- --- ---- -- --- ---- -- ------ ------<br>--- ----- -- ----,77209.39999999851,77209.10000000149,76975.908,76979.10000000149,76982.692,77211.881,,12,says
screen,html.Screen,2_1_0_1_13,2022-05-12T15:31:01.887Z,,,,,,,,,,,,,,,,,53,,,,,,,,,,,,,,225.11900000000605,,response,,,,99,,,,,,,Space,keypress(Space),,,,,,,,---- -- ----- -- ------ - ------- --- ----------<br>------------- ------ ------ ---- that ------- ----- -- ----<br>-------- ------- -- ---------- --- - --- ----- ----- ----<br>---- --- --- ----- --- ---- ---- ------- ----- ---- -------<br>--- --- -- ----- -- --- ---- -- --- ---- -- ------ ------<br>--- ----- -- ----,77437.10000000149,77437,77205.068,77209.39999999851,77211.881,77441.285,,13,that
screen,html.Screen,2_1_0_1_14,2022-05-12T15:31:02.062Z,,,,,,,,,,,,,,,,,53,,,,,,,,,,,,,,170.6149999985064,,response,,,,99,,,,,,,Space,keypress(Space),,,,,,,,---- -- ----- -- ------ - ------- --- ----------<br>------------- ------ ------ ---- ---- feeling ----- -- ----<br>-------- ------- -- ---------- --- - --- ----- ----- ----<br>---- --- --- ----- --- ---- ---- ------- ----- ---- -------<br>--- --- -- ----- -- --- ---- -- --- ---- -- ------ ------<br>--- ----- -- ----,77612.20000000298,77611.89999999851,77434.042,77437.10000000149,77441.285,77614.608,,14,feeling
screen,html.Screen,2_1_0_1_15,2022-05-12T15:31:02.391Z,,,,,,,,,,,,,,,,,53,,,,,,,,,,,,,,326.291999998517,,response,,,,99,,,,,,,Space,keypress(Space),,,,,,,,---- -- ----- -- ------ - ------- --- ----------<br>------------- ------ ------ ---- ---- ------- close -- ----<br>-------- ------- -- ---------- --- - --- ----- ----- ----<br>---- --- --- ----- --- ---- ---- ------- ----- ---- -------<br>--- --- -- ----- -- --- ---- -- --- ---- -- ------ ------<br>--- ----- -- ----,77941.10000000149,77940.89999999851,77607.846,77612.20000000298,77614.608,77947.948,,15,close
screen,html.Screen,2_1_0_1_16,2022-05-12T15:31:02.637Z,,,,,,,,,,,,,,,,,53,,,,,,,,,,,,,,239.15200000148616,,response,,,,99,,,,,,,Space,keypress(Space),,,,,,,,---- -- ----- -- ------ - ------- --- ----------<br>------------- ------ ------ ---- ---- ------- ----- to ----<br>-------- ------- -- ---------- --- - --- ----- ----- ----<br>---- --- --- ----- --- ---- ---- ------- ----- ---- -------<br>--- --- -- ----- -- --- ---- -- --- ---- -- ------ ------<br>--- ----- -- ----,78187.39999999851,78187.10000000149,77940.961,77941.10000000149,77947.948,78190.986,,16,to
screen,html.Screen,2_1_0_1_17,2022-05-12T15:31:02.914Z,,,,,,,,,,,,,,,,,53,,,,,,,,,,,,,,273.41399999850546,,response,,,,99,,,,,,,Space,keypress(Space),,,,,,,,---- -- ----- -- ------ - ------- --- ----------<br>------------- ------ ------ ---- ---- ------- ----- -- your<br>-------- ------- -- ---------- --- - --- ----- ----- ----<br>---- --- --- ----- --- ---- ---- ------- ----- ---- -------<br>--- --- -- ----- -- --- ---- -- --- ---- -- ------ ------<br>--- ----- -- ----,78464.80000000447,78464.39999999851,78184.252,78187.39999999851,78190.986,78468.773,,17,your
screen,html.Screen,2_1_0_1_18,2022-05-12T15:31:03.214Z,,,,,,,,,,,,,,,,,53,,,,,,,,,,,,,,295.12699999850884,,response,,,,99,,,,,,,Space,keypress(Space),,,,,,,,---- -- ----- -- ------ - ------- --- ----------<br>------------- ------ ------ ---- ---- ------- ----- -- ----<br>romantic ------- -- ---------- --- - --- ----- ----- ----<br>---- --- --- ----- --- ---- ---- ------- ----- ---- -------<br>--- --- -- ----- -- --- ---- -- --- ---- -- ------ ------<br>--- ----- -- ----,78764.10000000149,78763.89999999851,78461.778,78464.80000000447,78468.773,78767.356,,18,romantic
screen,html.Screen,2_1_0_1_19,2022-05-12T15:31:03.410Z,,,,,,,,,,,,,,,,,53,,,,,,,,,,,,,,192.54399999851012,,response,,,,99,,,,,,,Space,keypress(Space),,,,,,,,---- -- ----- -- ------ - ------- --- ----------<br>------------- ------ ------ ---- ---- ------- ----- -- ----<br>-------- partner -- ---------- --- - --- ----- ----- ----<br>---- --- --- ----- --- ---- ---- ------- ----- ---- -------<br>--- --- -- ----- -- --- ---- -- --- ---- -- ------ ------<br>--- ----- -- ----,78960.10000000149,78959.89999999851,78760.443,78764.10000000149,78767.356,78961.812,,19,partner
screen,html.Screen,2_1_0_1_20,2022-05-12T15:31:03.611Z,,,,,,,,,,,,,,,,,53,,,,,,,,,,,,,,199.08799999850453,,response,,,,99,,,,,,,Space,keypress(Space),,,,,,,,---- -- ----- -- ------ - ------- --- ----------<br>------------- ------ ------ ---- ---- ------- ----- -- ----<br>-------- ------- is ---------- --- - --- ----- ----- ----<br>---- --- --- ----- --- ---- ---- ------- ----- ---- -------<br>--- --- -- ----- -- --- ---- -- --- ---- -- ------ ------<br>--- ----- -- ----,79161.10000000149,79160.89999999851,78954.836,78960.10000000149,78961.812,79163.218,,20,is
screen,html.Screen,2_1_0_1_21,2022-05-12T15:31:03.793Z,,,,,,,,,,,,,,,,,53,,,,,,,,,,,,,,179.6819999985164,,response,,,,99,,,,,,,Space,keypress(Space),,,,,,,,---- -- ----- -- ------ - ------- --- ----------<br>------------- ------ ------ ---- ---- ------- ----- -- ----<br>-------- ------- -- paramount. --- - --- ----- ----- ----<br>---- --- --- ----- --- ---- ---- ------- ----- ---- -------<br>--- --- -- ----- -- --- ---- -- --- ---- -- ------ ------<br>--- ----- -- ----,79343.20000000298,79342.89999999851,79156.407,79161.10000000149,79163.218,79364.327,,21,paramount.
screen,html.Screen,2_1_0_1_22,2022-05-12T15:31:04.115Z,,,,,,,,,,,,,,,,,53,,,,,,,,,,,,,,301.0729999985051,,response,,,,99,,,,,,,Space,keypress(Space),,,,,,,,---- -- ----- -- ------ - ------- --- ----------<br>------------- ------ ------ ---- ---- ------- ----- -- ----<br>-------- ------- -- ---------- But - --- ----- ----- ----<br>---- --- --- ----- --- ---- ---- ------- ----- ---- -------<br>--- --- -- ----- -- --- ---- -- --- ---- -- ------ ------<br>--- ----- -- ----,79665.70000000298,79665.39999999851,79336.762,79343.20000000298,79364.327,79670.115,,22,But
screen,html.Screen,2_1_0_1_23,2022-05-12T15:31:04.300Z,,,,,,,,,,,,,,,,,53,,,,,,,,,,,,,,179.78499999850465,,response,,,,99,,,,,,,Space,keypress(Space),,,,,,,,---- -- ----- -- ------ - ------- --- ----------<br>------------- ------ ------ ---- ---- ------- ----- -- ----<br>-------- ------- -- ---------- --- a --- ----- ----- ----<br>---- --- --- ----- --- ---- ---- ------- ----- ---- -------<br>--- --- -- ----- -- --- ---- -- --- ---- -- ------ ------<br>--- ----- -- ----,79850,79849.89999999851,79663.145,79665.80000000447,79670.115,79874.32,,23,a
screen,html.Screen,2_1_0_1_24,2022-05-12T15:31:04.457Z,,,,,,,,,,,,,,,,,53,,,,,,,,,,,,,,132.48000000446336,,response,,,,99,,,,,,,Space,keypress(Space),,,,,,,,---- -- ----- -- ------ - ------- --- ----------<br>------------- ------ ------ ---- ---- ------- ----- -- ----<br>-------- ------- -- ---------- --- - new ----- ----- ----<br>---- --- --- ----- --- ---- ---- ------- ----- ---- -------<br>--- --- -- ----- -- --- ---- -- --- ---- -- ------ ------<br>--- ----- -- ----,80007.10000000149,80006.80000000447,79843.695,79850.10000000149,79874.32,80010.379,,24,new
screen,html.Screen,2_1_0_1_25,2022-05-12T15:31:04.624Z,,,,,,,,,,,,,,,,,53,,,,,,,,,,,,,,163.52099999850907,,response,,,,99,,,,,,,Space,keypress(Space),,,,,,,,---- -- ----- -- ------ - ------- --- ----------<br>------------- ------ ------ ---- ---- ------- ----- -- ----<br>-------- ------- -- ---------- --- - --- study ----- ----<br>---- --- --- ----- --- ---- ---- ------- ----- ---- -------<br>--- --- -- ----- -- --- ---- -- --- ---- -- ------ ------<br>--- ----- -- ----,80174.10000000149,80173.89999999851,80003.605,80007.20000000298,80010.379,80177.041,,25,study
screen,html.Screen,2_1_0_1_26,2022-05-12T15:31:04.873Z,,,,,,,,,,,,,,,,,53,,,,,,,,,,,,,,246.35899999851245,,response,,,,99,,,,,,,Space,keypress(Space),,,,,,,,---- -- ----- -- ------ - ------- --- ----------<br>------------- ------ ------ ---- ---- ------- ----- -- ----<br>-------- ------- -- ---------- --- - --- ----- finds ----<br>---- --- --- ----- --- ---- ---- ------- ----- ---- -------<br>--- --- -- ----- -- --- ---- -- --- ---- -- ------ ------<br>--- ----- -- ----,80423.70000000298,80423.39999999851,80170.078,80174.10000000149,80177.041,80427.089,,26,finds
screen,html.Screen,2_1_0_1_27,2022-05-12T15:31:05.052Z,,,,,,,,,,,,,,,,,53,,,,,,,,,,,,,,175.21100000446313,,response,,,,99,,,,,,,Space,keypress(Space),,,,,,,,---- -- ----- -- ------ - ------- --- ----------<br>------------- ------ ------ ---- ---- ------- ----- -- ----<br>-------- ------- -- ---------- --- - --- ----- ----- that<br>---- --- --- ----- --- ---- ---- ------- ----- ---- -------<br>--- --- -- ----- -- --- ---- -- --- ---- -- ------ ------<br>--- ----- -- ----,80602.70000000298,80602.30000000447,80420.068,80423.80000000447,80427.089,80607.601,,27,that
screen,html.Screen,2_1_0_1_28,2022-05-12T15:31:05.213Z,,,,,,,,,,,,,,,,,53,,,,,,,,,,,,,,155.79899999851477,,response,,,,99,,,,,,,Space,keypress(Space),,,,,,,,---- -- ----- -- ------ - ------- --- ----------<br>------------- ------ ------ ---- ---- ------- ----- -- ----<br>-------- ------- -- ---------- --- - --- ----- ----- ----<br>it's --- --- ----- --- ---- ---- ------- ----- ---- -------<br>--- --- -- ----- -- --- ---- -- --- ---- -- ------ ------<br>--- ----- -- ----,80763.60000000149,80763.39999999851,80600.644,80602.80000000447,80607.601,80767.309,,28,it's
screen,html.Screen,2_1_0_1_29,2022-05-12T15:31:05.477Z,,,,,,,,,,,,,,,,,53,,,,,,,,,,,,,,260.09099999851605,,response,,,,99,,,,,,,Space,keypress(Space),,,,,,,,---- -- ----- -- ------ - ------- --- ----------<br>------------- ------ ------ ---- ---- ------- ----- -- ----<br>-------- ------- -- ---------- --- - --- ----- ----- ----<br>---- not --- ----- --- ---- ---- ------- ----- ---- -------<br>--- --- -- ----- -- --- ---- -- --- ---- -- ------ ------<br>--- ----- -- ----,81027.70000000298,81027.39999999851,80760.367,80763.80000000447,80767.309,81031.211,,29,not
screen,html.Screen,2_1_0_1_30,2022-05-12T15:31:05.648Z,,,,,,,,,,,,,,,,,53,,,,,,,,,,,,,,166.88900000149442,,response,,,,99,,,,,,,Space,keypress(Space),,,,,,,,---- -- ----- -- ------ - ------- --- ----------<br>------------- ------ ------ ---- ---- ------- ----- -- ----<br>-------- ------- -- ---------- --- - --- ----- ----- ----<br>---- --- how ----- --- ---- ---- ------- ----- ---- -------<br>--- --- -- ----- -- --- ---- -- --- ---- -- ------ ------<br>--- ----- -- ----,81198.30000000447,81198.10000000149,81024.414,81027.80000000447,81031.211,81204.801,,30,how
screen,html.Screen,2_1_0_1_31,2022-05-12T15:31:05.808Z,,,,,,,,,,,,,,,,,53,,,,,,,,,,,,,,153.59899999850313,,response,,,,99,,,,,,,Space,keypress(Space),,,,,,,,---- -- ----- -- ------ - ------- --- ----------<br>------------- ------ ------ ---- ---- ------- ----- -- ----<br>-------- ------- -- ---------- --- - --- ----- ----- ----<br>---- --- --- close --- ---- ---- ------- ----- ---- -------<br>--- --- -- ----- -- --- ---- -- --- ---- -- ------ ------<br>--- ----- -- ----,81358.70000000298,81358.39999999851,81198.141,81198.30000000447,81204.801,81364.526,,31,close
screen,html.Screen,2_1_0_1_32,2022-05-12T15:31:05.967Z,,,,,,,,,,,,,,,,,53,,,,,,,,,,,,,,152.87399999851186,,response,,,,99,,,,,,,Space,keypress(Space),,,,,,,,---- -- ----- -- ------ - ------- --- ----------<br>------------- ------ ------ ---- ---- ------- ----- -- ----<br>-------- ------- -- ---------- --- - --- ----- ----- ----<br>---- --- --- ----- you ---- ---- ------- ----- ---- -------<br>--- --- -- ----- -- --- ---- -- --- ---- -- ------ ------<br>--- ----- -- ----,81517.70000000298,81517.39999999851,81357.569,81358.80000000447,81364.526,81524.35,,32,you
screen,html.Screen,2_1_0_1_33,2022-05-12T15:31:06.135Z,,,,,,,,,,,,,,,,,53,,,,,,,,,,,,,,161.04999999850406,,response,,,,99,,,,,,,Space,keypress(Space),,,,,,,,---- -- ----- -- ------ - ------- --- ----------<br>------------- ------ ------ ---- ---- ------- ----- -- ----<br>-------- ------- -- ---------- --- - --- ----- ----- ----<br>---- --- --- ----- --- feel ---- ------- ----- ---- -------<br>--- --- -- ----- -- --- ---- -- --- ---- -- ------ ------<br>--- ----- -- ----,81685.70000000298,81685.39999999851,81517.493,81517.80000000447,81524.35,81690.944,,33,feel
screen,html.Screen,2_1_0_1_34,2022-05-12T15:31:06.292Z,,,,,,,,,,,,,,,,,53,,,,,,,,,,,,,,151.45599999850674,,response,,,,99,,,,,,,Space,keypress(Space),,,,,,,,---- -- ----- -- ------ - ------- --- ----------<br>------------- ------ ------ ---- ---- ------- ----- -- ----<br>-------- ------- -- ---------- --- - --- ----- ----- ----<br>---- --- --- ----- --- ---- that ------- ----- ---- -------<br>--- --- -- ----- -- --- ---- -- --- ---- -- ------ ------<br>--- ----- -- ----,81842.70000000298,81842.39999999851,81683.935,81685.70000000298,81690.944,81863.506,,34,that
screen,html.Screen,2_1_0_1_35,2022-05-12T15:31:06.459Z,,,,,,,,,,,,,,,,,53,,,,,,,,,,,,,,145.89399999851594,,response,,,,99,,,,,,,Space,keypress(Space),,,,,,,,---- -- ----- -- ------ - ------- --- ----------<br>------------- ------ ------ ---- ---- ------- ----- -- ----<br>-------- ------- -- ---------- --- - --- ----- ----- ----<br>---- --- --- ----- --- ---- ---- matters ----- ---- -------<br>--- --- -- ----- -- --- ---- -- --- ---- -- ------ ------<br>--- ----- -- ----,82009.70000000298,82009.39999999851,81836.917,81842.80000000447,81863.506,82021.249,,35,matters
screen,html.Screen,2_1_0_1_36,2022-05-12T15:31:06.628Z,,,,,,,,,,,,,,,,,53,,,,,,,,,,,,,,157.0510000044742,,response,,,,99,,,,,,,Space,keypress(Space),,,,,,,,"---- -- ----- -- ------ - ------- --- ----------<br>------------- ------ ------ ---- ---- ------- ----- -- ----<br>-------- ------- -- ---------- --- - --- ----- ----- ----<br>---- --- --- ----- --- ---- ---- ------- most, ---- -------<br>--- --- -- ----- -- --- ---- -- --- ---- -- ------ ------<br>--- ----- -- ----",82178.70000000298,82178.30000000447,82003.389,82009.80000000447,82021.249,82184.267,,36,"most,"
screen,html.Screen,2_1_0_1_37,2022-05-12T15:31:06.795Z,,,,,,,,,,,,,,,,,53,,,,,,,,,,,,,,161.13299999850278,,response,,,,99,,,,,,,Space,keypress(Space),,,,,,,,---- -- ----- -- ------ - ------- --- ----------<br>------------- ------ ------ ---- ---- ------- ----- -- ----<br>-------- ------- -- ---------- --- - --- ----- ----- ----<br>---- --- --- ----- --- ---- ---- ------- ----- it's -------<br>--- --- -- ----- -- --- ---- -- --- ---- -- ------ ------<br>--- ----- -- ----,82345.70000000298,82345.39999999851,82176.991,82178.80000000447,82184.267,82350.615,,37,it's
screen,html.Screen,2_1_0_1_38,2022-05-12T15:31:06.963Z,,,,,,,,,,,,,,,,,53,,,,,,,,,,,,,,162.78499999850465,,response,,,,99,,,,,,,Space,keypress(Space),,,,,,,,---- -- ----- -- ------ - ------- --- ----------<br>------------- ------ ------ ---- ---- ------- ----- -- ----<br>-------- ------- -- ---------- --- - --- ----- ----- ----<br>---- --- --- ----- --- ---- ---- ------- ----- ---- whether<br>--- --- -- ----- -- --- ---- -- --- ---- -- ------ ------<br>--- ----- -- ----,82513.70000000298,82513.39999999851,82343.813,82345.70000000298,82350.615,82517.277,,38,whether
screen,html.Screen,2_1_0_1_39,2022-05-12T15:31:07.152Z,,,,,,,,,,,,,,,,,53,,,,,,,,,,,,,,185.02300000446849,,response,,,,99,,,,,,,Space,keypress(Space),,,,,,,,---- -- ----- -- ------ - ------- --- ----------<br>------------- ------ ------ ---- ---- ------- ----- -- ----<br>-------- ------- -- ---------- --- - --- ----- ----- ----<br>---- --- --- ----- --- ---- ---- ------- ----- ---- -------<br>you --- -- ----- -- --- ---- -- --- ---- -- ------ ------<br>--- ----- -- ----,82702.80000000447,82702.30000000447,82510.52,82513.80000000447,82517.277,82704.779,,39,you
screen,html.Screen,2_1_0_1_40,2022-05-12T15:31:07.328Z,,,,,,,,,,,,,,,,,53,,,,,,,,,,,,,,173.6209999985149,,response,,,,99,,,,,,,Space,keypress(Space),,,,,,,,---- -- ----- -- ------ - ------- --- ----------<br>------------- ------ ------ ---- ---- ------- ----- -- ----<br>-------- ------- -- ---------- --- - --- ----- ----- ----<br>---- --- --- ----- --- ---- ---- ------- ----- ---- -------<br>--- are -- ----- -- --- ---- -- --- ---- -- ------ ------<br>--- ----- -- ----,82878.60000000149,82878.39999999851,82697.793,82702.80000000447,82704.779,82885.35,,40,are
screen,html.Screen,2_1_0_1_41,2022-05-12T15:31:07.514Z,,,,,,,,,,,,,,,,,53,,,,,,,,,,,,,,179.04999999850406,,response,,,,99,,,,,,,Space,keypress(Space),,,,,,,,---- -- ----- -- ------ - ------- --- ----------<br>------------- ------ ------ ---- ---- ------- ----- -- ----<br>-------- ------- -- ---------- --- - --- ----- ----- ----<br>---- --- --- ----- --- ---- ---- ------- ----- ---- -------<br>--- --- as ----- -- --- ---- -- --- ---- -- ------ ------<br>--- ----- -- ----,83064.70000000298,83064.39999999851,82878.403,82878.70000000298,82885.35,83073.236,,41,as
screen,html.Screen,2_1_0_1_42,2022-05-12T15:31:07.674Z,,,,,,,,,,,,,,,,,53,,,,,,,,,,,,,,150.9640000029758,,response,,,,99,,,,,,,Space,keypress(Space),,,,,,,,---- -- ----- -- ------ - ------- --- ----------<br>------------- ------ ------ ---- ---- ------- ----- -- ----<br>-------- ------- -- ---------- --- - --- ----- ----- ----<br>---- --- --- ----- --- ---- ---- ------- ----- ---- -------<br>--- --- -- close -- --- ---- -- --- ---- -- ------ ------<br>--- ----- -- ----,83224.5,83224.20000000298,83059.117,83064.80000000447,83073.236,83243.833,,42,close
screen,html.Screen,2_1_0_1_43,2022-05-12T15:31:07.840Z,,,,,,,,,,,,,,,,,53,,,,,,,,,,,,,,146.56699999851116,,response,,,,99,,,,,,,Space,keypress(Space),,,,,,,,---- -- ----- -- ------ - ------- --- ----------<br>------------- ------ ------ ---- ---- ------- ----- -- ----<br>-------- ------- -- ---------- --- - --- ----- ----- ----<br>---- --- --- ----- --- ---- ---- ------- ----- ---- -------<br>--- --- -- ----- as --- ---- -- --- ---- -- ------ ------<br>--- ----- -- ----,83390.70000000298,83390.39999999851,83218.818,83224.60000000149,83243.833,83392.264,,43,as
screen,html.Screen,2_1_0_1_44,2022-05-12T15:31:08.018Z,,,,,,,,,,,,,,,,,53,,,,,,,,,,,,,,176.1359999985143,,response,,,,99,,,,,,,Space,keypress(Space),,,,,,,,---- -- ----- -- ------ - ------- --- ----------<br>------------- ------ ------ ---- ---- ------- ----- -- ----<br>-------- ------- -- ---------- --- - --- ----- ----- ----<br>---- --- --- ----- --- ---- ---- ------- ----- ---- -------<br>--- --- -- ----- -- you ---- -- --- ---- -- ------ ------<br>--- ----- -- ----,83568.70000000298,83568.39999999851,83385.279,83390.80000000447,83392.264,83572.794,,44,you
screen,html.Screen,2_1_0_1_45,2022-05-12T15:31:08.181Z,,,,,,,,,,,,,,,,,53,,,,,,,,,,,,,,158.60599999851547,,response,,,,99,,,,,,,Space,keypress(Space),,,,,,,,---- -- ----- -- ------ - ------- --- ----------<br>------------- ------ ------ ---- ---- ------- ----- -- ----<br>-------- ------- -- ---------- --- - --- ----- ----- ----<br>---- --- --- ----- --- ---- ---- ------- ----- ---- -------<br>--- --- -- ----- -- --- want -- --- ---- -- ------ ------<br>--- ----- -- ----,83731.70000000298,83731.39999999851,83565.825,83568.70000000298,83572.794,83743.56,,45,want
screen,html.Screen,2_1_0_1_46,2022-05-12T15:31:08.361Z,,,,,,,,,,,,,,,,,53,,,,,,,,,,,,,,167.8399999985122,,response,,,,99,,,,,,,Space,keypress(Space),,,,,,,,---- -- ----- -- ------ - ------- --- ----------<br>------------- ------ ------ ---- ---- ------- ----- -- ----<br>-------- ------- -- ---------- --- - --- ----- ----- ----<br>---- --- --- ----- --- ---- ---- ------- ----- ---- -------<br>--- --- -- ----- -- --- ---- to --- ---- -- ------ ------<br>--- ----- -- ----,83911.70000000298,83911.39999999851,83725.609,83731.80000000447,83743.56,83913.093,,46,to
screen,html.Screen,2_1_0_1_47,2022-05-12T15:31:08.522Z,,,,,,,,,,,,,,,,,53,,,,,,,,,,,,,,159.50700000149664,,response,,,,99,,,,,,,Space,keypress(Space),,,,,,,,"---- -- ----- -- ------ - ------- --- ----------<br>------------- ------ ------ ---- ---- ------- ----- -- ----<br>-------- ------- -- ---------- --- - --- ----- ----- ----<br>---- --- --- ----- --- ---- ---- ------- ----- ---- -------<br>--- --- -- ----- -- --- ---- -- be, ---- -- ------ ------<br>--- ----- -- ----",84072.80000000447,84072.60000000149,83906.095,83911.70000000298,83913.093,84079.729,,47,"be,"
screen,html.Screen,2_1_0_1_48,2022-05-12T15:31:08.694Z,,,,,,,,,,,,,,,,,53,,,,,,,,,,,,,,164.4710000029736,,response,,,,99,,,,,,,Space,keypress(Space),,,,,,,,---- -- ----- -- ------ - ------- --- ----------<br>------------- ------ ------ ---- ---- ------- ----- -- ----<br>-------- ------- -- ---------- --- - --- ----- ----- ----<br>---- --- --- ----- --- ---- ---- ------- ----- ---- -------<br>--- --- -- ----- -- --- ---- -- --- even -- ------ ------<br>--- ----- -- ----,84244.5,84244.20000000298,84072.758,84072.89999999851,84079.729,84246.41,,48,even
screen,html.Screen,2_1_0_1_49,2022-05-12T15:31:08.867Z,,,,,,,,,,,,,,,,,53,,,,,,,,,,,,,,171.0899999999965,,response,,,,99,,,,,,,Space,keypress(Space),,,,,,,,---- -- ----- -- ------ - ------- --- ----------<br>------------- ------ ------ ---- ---- ------- ----- -- ----<br>-------- ------- -- ---------- --- - --- ----- ----- ----<br>---- --- --- ----- --- ---- ---- ------- ----- ---- -------<br>--- --- -- ----- -- --- ---- -- --- ---- if ------ ------<br>--- ----- -- ----,84417.80000000447,84417.5,84239.646,84244.5,84246.41,84420.022,,49,if
screen,html.Screen,2_1_0_1_50,2022-05-12T15:31:09.046Z,,,,,,,,,,,,,,,,,53,,,,,,,,,,,,,,176.37799999851268,,response,,,,99,,,,,,,Space,keypress(Space),,,,,,,,---- -- ----- -- ------ - ------- --- ----------<br>------------- ------ ------ ---- ---- ------- ----- -- ----<br>-------- ------- -- ---------- --- - --- ----- ----- ----<br>---- --- --- ----- --- ---- ---- ------- ----- ---- -------<br>--- --- -- ----- -- --- ---- -- --- ---- -- that's ------<br>--- ----- -- ----,84596.70000000298,84596.39999999851,84413.029,84417.89999999851,84420.022,84600.561,,50,that's
screen,html.Screen,2_1_0_1_51,2022-05-12T15:31:09.207Z,,,,,,,,,,,,,,,,,53,,,,,,,,,,,,,,156.73900000446883,,response,,,,99,,,,,,,Space,keypress(Space),,,,,,,,---- -- ----- -- ------ - ------- --- ----------<br>------------- ------ ------ ---- ---- ------- ----- -- ----<br>-------- ------- -- ---------- --- - --- ----- ----- ----<br>---- --- --- ----- --- ---- ---- ------- ----- ---- -------<br>--- --- -- ----- -- --- ---- -- --- ---- -- ------ really<br>--- ----- -- ----,84757.5,84757.30000000447,84593.809,84596.80000000447,84600.561,84760.269,,51,really
screen,html.Screen,2_1_0_1_52,2022-05-12T15:31:09.572Z,,,,,,,,,,,,,,,,,53,,,,,,,,,,,,,,362.13099999850965,,response,,,,99,,,,,,,Space,keypress(Space),,,,,,,,---- -- ----- -- ------ - ------- --- ----------<br>------------- ------ ------ ---- ---- ------- ----- -- ----<br>-------- ------- -- ---------- --- - --- ----- ----- ----<br>---- --- --- ----- --- ---- ---- ------- ----- ---- -------<br>--- --- -- ----- -- --- ---- -- --- ---- -- ------ ------<br>not ----- -- ----,85122.60000000149,85122.39999999851,84753.307,84757.5,84760.269,85128.315,,52,not
screen,html.Screen,2_1_0_1_53,2022-05-12T15:31:09.786Z,,,,,,,,,,,,,,,,,53,,,,,,,,,,,,,,207.98500000446802,,response,,,,99,,,,,,,Space,keypress(Space),,,,,,,,---- -- ----- -- ------ - ------- --- ----------<br>------------- ------ ------ ---- ---- ------- ----- -- ----<br>-------- ------- -- ---------- --- - --- ----- ----- ----<br>---- --- --- ----- --- ---- ---- ------- ----- ---- -------<br>--- --- -- ----- -- --- ---- -- --- ---- -- ------ ------<br>--- close -- ----,85336.70000000298,85336.30000000447,85121.358,85122.70000000298,85128.315,85343.664,,53,close
screen,html.Screen,2_1_0_1_54,2022-05-12T15:31:10.020Z,,,,,,,,,,,,,,,,,53,,,,,,,,,,,,,,226.4360000014858,,response,,,,99,,,,,,,Space,keypress(Space),,,,,,,,---- -- ----- -- ------ - ------- --- ----------<br>------------- ------ ------ ---- ---- ------- ----- -- ----<br>-------- ------- -- ---------- --- - --- ----- ----- ----<br>---- --- --- ----- --- ---- ---- ------- ----- ---- -------<br>--- --- -- ----- -- --- ---- -- --- ---- -- ------ ------<br>--- ----- at ----,85570.39999999851,85570.10000000149,85336.83,85336.80000000447,85343.664,85572.795,,54,at
screen,html.Screen,2_1_0_1_55,2022-05-12T15:31:10.265Z,,,,,,,,,,,,,,,,,53,,,,,,,,,,,,,,242.60499999851163,,response,,,,99,,,,,,,Space,keypress(Space),,,,,,,,---- -- ----- -- ------ - ------- --- ----------<br>------------- ------ ------ ---- ---- ------- ----- -- ----<br>-------- ------- -- ---------- --- - --- ----- ----- ----<br>---- --- --- ----- --- ---- ---- ------- ----- ---- -------<br>--- --- -- ----- -- --- ---- -- --- ---- -- ------ ------<br>--- ----- -- all.,85815.70000000298,85815.39999999851,85565.779,85570.5,85572.795,85822.744,,55,all.
Item 99,flow.Loop,2_1_0_1,2022-05-12T15:31:10.265Z,,,,,,,,,,,,,,,,,,,,,,,,,,,,,,,12409.034999998505,,completion,,,,,F,,,,,,,,,,,silence,,,,,85815.80000000447,85815.39999999851,73399.415,73399.60000000149,73406.365,85822.744,,,
Question 1,html.Screen,2_1_0_2,2022-05-12T15:31:12.669Z,,,,,,,,,,,,,,,,,,,,,,,,,,,,true,FALSE,,2396.255999999994,,response,,,,99,F,,,,,,FALSE,click #choice-2,,,,silence,,,,,88219.39999999851,88219,85815.967,85815.89999999851,85822.744,88225.463,,,
Question 2,html.Screen,2_1_0_3,2022-05-12T15:31:16.186Z,,,,,,,,,,,,,,,,,,,,,,,,,,,,true,TRUE,,3510.9369999985065,,response,,,,99,F,,,,,,TRUE,click #choice-1,,,,silence,,,,,91736.80000000447,91736.39999999851,88218.494,88219.39999999851,88225.463,91739.282,,,
Item 99,flow.Sequence,2_1_0,2022-05-12T15:31:16.186Z,,,,,,,,,,,,,,,,,,,,,,,,,,,,,,,28329.79399999851,,completion,,,,,,,,,,,,,,,,,,,,,91736.89999999851,91736.39999999851,63399.656,63402.20000000298,63406.606,91739.282,,,
Holding screen,html.Screen,2_1_1_0,2022-05-12T15:31:26.182Z,,,,,,,,,,,,,,,,,,,,,,,,,,,,,,,9999.73599999999,,timeout,,,,,,,,,,,,,,,,,,,,,101732.20000000298,101732.09,91732.297,91737,91739.282,101739.018,,,
screen,html.Screen,2_1_1_1_0,2022-05-12T15:31:27.244Z,,,,,,,,,,,,,,,,,54,,,,,,,,,,,,,,1055.0820000014937,,response,,,,100,,,,,,,Space,keypress(Space),,,,,,,,At --- ---- --- ------ ----- ------- ---- -- --- ------- --<br>------- ---------- ------ -- ----- -- ----- -- ---- ------<br>--- ----- --- --- ------ -------- ----- --- ------ ----- --<br>----- ----- ---------- --- --- ------ ------ ---- -- ------<br>------- --- ------ ----- --- ---- ------- -- ---- --- --<br>------- ------,102794.39999999851,102794.10000000149,101732.09,101732.20000000298,101739.018,102801.514,,0,At
screen,html.Screen,2_1_1_1_1,2022-05-12T15:31:27.387Z,,,,,,,,,,,,,,,,,54,,,,,,,,,,,,,,135.58600000149454,,response,,,,100,,,,,,,Space,keypress(Space),,,,,,,,-- the ---- --- ------ ----- ------- ---- -- --- ------- --<br>------- ---------- ------ -- ----- -- ----- -- ---- ------<br>--- ----- --- --- ------ -------- ----- --- ------ ----- --<br>----- ----- ---------- --- --- ------ ------ ---- -- ------<br>------- --- ------ ----- --- ---- ------- -- ---- --- --<br>------- ------,102937.20000000298,102937.10000000149,102794.487,102794.39999999851,102801.514,102940.413,,1,the
screen,html.Screen,2_1_1_1_2,2022-05-12T15:31:27.558Z,,,,,,,,,,,,,,,,,54,,,,,,,,,,,,,,167.58699999999953,,response,,,,100,,,,,,,Space,keypress(Space),,,,,,,,-- --- time --- ------ ----- ------- ---- -- --- ------- --<br>------- ---------- ------ -- ----- -- ----- -- ---- ------<br>--- ----- --- --- ------ -------- ----- --- ------ ----- --<br>----- ----- ---------- --- --- ------ ------ ---- -- ------<br>------- --- ------ ----- --- ---- ------- -- ---- --- --<br>------- ------,103108.30000000447,103108,102933.638,102937.30000000447,102940.413,103113.99,,2,time
screen,html.Screen,2_1_1_1_3,2022-05-12T15:31:27.793Z,,,,,,,,,,,,,,,,,54,,,,,,,,,,,,,,229.3100000044651,,response,,,,100,,,,,,,Space,keypress(Space),,,,,,,,-- --- ---- the ------ ----- ------- ---- -- --- ------- --<br>------- ---------- ------ -- ----- -- ----- -- ---- ------<br>--- ----- --- --- ------ -------- ----- --- ------ ----- --<br>----- ----- ---------- --- --- ------ ------ ---- -- ------<br>------- --- ------ ----- --- ---- ------- -- ---- --- --<br>------- ------,103343.60000000149,103343.30000000447,103107.017,103108.39999999851,103113.99,103350.096,,3,the
screen,html.Screen,2_1_1_1_4,2022-05-12T15:31:27.946Z,,,,,,,,,,,,,,,,,54,,,,,,,,,,,,,,146.30399999850488,,response,,,,100,,,,,,,Space,keypress(Space),,,,,,,,-- --- ---- --- French ----- ------- ---- -- --- ------- --<br>------- ---------- ------ -- ----- -- ----- -- ---- ------<br>--- ----- --- --- ------ -------- ----- --- ------ ----- --<br>----- ----- ---------- --- --- ------ ------ ---- -- ------<br>------- --- ------ ----- --- ---- ------- -- ---- --- --<br>------- ------,103496.70000000298,103496.39999999851,103343.324,103343.70000000298,103350.096,103502.877,,4,French
screen,html.Screen,2_1_1_1_5,2022-05-12T15:31:28.126Z,,,,,,,,,,,,,,,,,54,,,,,,,,,,,,,,173.22300000149698,,response,,,,100,,,,,,,Space,keypress(Space),,,,,,,,-- --- ---- --- ------ crown ------- ---- -- --- ------- --<br>------- ---------- ------ -- ----- -- ----- -- ---- ------<br>--- ----- --- --- ------ -------- ----- --- ------ ----- --<br>----- ----- ---------- --- --- ------ ------ ---- -- ------<br>------- --- ------ ----- --- ---- ------- -- ---- --- --<br>------- ------,103676.39999999851,103676.10000000149,103495.916,103496.80000000447,103502.877,103683.437,,5,crown
screen,html.Screen,2_1_1_1_6,2022-05-12T15:31:28.290Z,,,,,,,,,,,,,,,,,54,,,,,,,,,,,,,,156.96299999850453,,response,,,,100,,,,,,,Space,keypress(Space),,,,,,,,-- --- ---- --- ------ ----- secured ---- -- --- ------- --<br>------- ---------- ------ -- ----- -- ----- -- ---- ------<br>--- ----- --- --- ------ -------- ----- --- ------ ----- --<br>----- ----- ---------- --- --- ------ ------ ---- -- ------<br>------- --- ------ ----- --- ---- ------- -- ---- --- --<br>------- ------,103840.60000000149,103840.39999999851,103676.512,103676.39999999851,103683.437,103843.201,,6,secured
screen,html.Screen,2_1_1_1_7,2022-05-12T15:31:28.469Z,,,,,,,,,,,,,,,,,54,,,,,,,,,,,,,,175.89900000148918,,response,,,,100,,,,,,,Space,keypress(Space),,,,,,,,-- --- ---- --- ------ ----- ------- much -- --- ------- --<br>------- ---------- ------ -- ----- -- ----- -- ---- ------<br>--- ----- --- --- ------ -------- ----- --- ------ ----- --<br>----- ----- ---------- --- --- ------ ------ ---- -- ------<br>------- --- ------ ----- --- ---- ------- -- ---- --- --<br>------- ------,104019.39999999851,104019.10000000149,103836.387,103840.70000000298,103843.201,104023.734,,7,much
screen,html.Screen,2_1_1_1_8,2022-05-12T15:31:28.679Z,,,,,,,,,,,,,,,,,54,,,,,,,,,,,,,,205.66599999851314,,response,,,,100,,,,,,,Space,keypress(Space),,,,,,,,-- --- ---- --- ------ ----- ------- ---- of --- ------- --<br>------- ---------- ------ -- ----- -- ----- -- ---- ------<br>--- ----- --- --- ------ -------- ----- --- ------ ----- --<br>----- ----- ---------- --- --- ------ ------ ---- -- ------<br>------- --- ------ ----- --- ---- ------- -- ---- --- --<br>------- ------,104229.70000000298,104229.39999999851,104016.72,104019.5,104023.734,104232.045,,8,of
screen,html.Screen,2_1_1_1_9,2022-05-12T15:31:29.192Z,,,,,,,,,,,,,,,,,54,,,,,,,,,,,,,,510.2550000044721,,response,,,,100,,,,,,,Space,keypress(Space),,,,,,,,-- --- ---- --- ------ ----- ------- ---- -- its ------- --<br>------- ---------- ------ -- ----- -- ----- -- ---- ------<br>--- ----- --- --- ------ -------- ----- --- ------ ----- --<br>----- ----- ---------- --- --- ------ ------ ---- -- ------<br>------- --- ------ ----- --- ---- ------- -- ---- --- --<br>------- ------,104742.70000000298,104742.30000000447,104225.108,104229.80000000447,104232.045,104745.899,,9,its
screen,html.Screen,2_1_1_1_10,2022-05-12T15:31:29.487Z,,,,,,,,,,,,,,,,,54,,,,,,,,,,,,,,291.500999998505,,response,,,,100,,,,,,,Space,keypress(Space),,,,,,,,-- --- ---- --- ------ ----- ------- ---- -- --- revenue --<br>------- ---------- ------ -- ----- -- ----- -- ---- ------<br>--- ----- --- --- ------ -------- ----- --- ------ ----- --<br>----- ----- ---------- --- --- ------ ------ ---- -- ------<br>------- --- ------ ----- --- ---- ------- -- ---- --- --<br>------- ------,105037.70000000298,105037.39999999851,104738.913,104742.70000000298,104745.899,105044.507,,10,revenue
screen,html.Screen,2_1_1_1_11,2022-05-12T15:31:29.890Z,,,,,,,,,,,,,,,,,54,,,,,,,,,,,,,,395.79300000447256,,response,,,,100,,,,,,,Space,keypress(Space),,,,,,,,-- --- ---- --- ------ ----- ------- ---- -- --- ------- by<br>------- ---------- ------ -- ----- -- ----- -- ---- ------<br>--- ----- --- --- ------ -------- ----- --- ------ ----- --<br>----- ----- ---------- --- --- ------ ------ ---- -- ------<br>------- --- ------ ----- --- ---- ------- -- ---- --- --<br>------- ------,105440.70000000298,105440.30000000447,105037.523,105037.80000000447,105044.507,105447.273,,11,by
screen,html.Screen,2_1_1_1_12,2022-05-12T15:31:30.132Z,,,,,,,,,,,,,,,,,54,,,,,,,,,,,,,,235.12699999850884,,response,,,,100,,,,,,,Space,keypress(Space),,,,,,,,-- --- ---- --- ------ ----- ------- ---- -- --- ------- --<br>issuing ---------- ------ -- ----- -- ----- -- ---- ------<br>--- ----- --- --- ------ -------- ----- --- ------ ----- --<br>----- ----- ---------- --- --- ------ ------ ---- -- ------<br>------- --- ------ ----- --- ---- ------- -- ---- --- --<br>------- ------,105682.70000000298,105682.39999999851,105440.315,105440.70000000298,105447.273,105693.282,,12,issuing
screen,html.Screen,2_1_1_1_13,2022-05-12T15:31:30.300Z,,,,,,,,,,,,,,,,,54,,,,,,,,,,,,,,157.01800000446383,,response,,,,100,,,,,,,Space,keypress(Space),,,,,,,,-- --- ---- --- ------ ----- ------- ---- -- --- ------- --<br>------- government ------ -- ----- -- ----- -- ---- ------<br>--- ----- --- --- ------ -------- ----- --- ------ ----- --<br>----- ----- ---------- --- --- ------ ------ ---- -- ------<br>------- --- ------ ----- --- ---- ------- -- ---- --- --<br>------- ------,105850.70000000298,105850.30000000447,105676.456,105682.80000000447,105693.282,105856.989,,13,government
screen,html.Screen,2_1_1_1_14,2022-05-12T15:31:30.468Z,,,,,,,,,,,,,,,,,54,,,,,,,,,,,,,,161.4109999985085,,response,,,,100,,,,,,,Space,keypress(Space),,,,,,,,-- --- ---- --- ------ ----- ------- ---- -- --- ------- --<br>------- ---------- bonds. -- ----- -- ----- -- ---- ------<br>--- ----- --- --- ------ -------- ----- --- ------ ----- --<br>----- ----- ---------- --- --- ------ ------ ---- -- ------<br>------- --- ------ ----- --- ---- ------- -- ---- --- --<br>------- ------,106018.70000000298,106018.39999999851,105850.026,105850.70000000298,105856.989,106023.642,,14,bonds.
screen,html.Screen,2_1_1_1_15,2022-05-12T15:31:30.726Z,,,,,,,,,,,,,,,,,54,,,,,,,,,,,,,,252.95800000148301,,response,,,,100,,,,,,,Space,keypress(Space),,,,,,,,-- --- ---- --- ------ ----- ------- ---- -- --- ------- --<br>------- ---------- ------ In ----- -- ----- -- ---- ------<br>--- ----- --- --- ------ -------- ----- --- ------ ----- --<br>----- ----- ---------- --- --- ------ ------ ---- -- ------<br>------- --- ------ ----- --- ---- ------- -- ---- --- --<br>------- ------,106276.89999999851,106276.60000000149,106016.696,106018.70000000298,106023.642,106280.578,,15,In
screen,html.Screen,2_1_1_1_16,2022-05-12T15:31:30.911Z,,,,,,,,,,,,,,,,,54,,,,,,,,,,,,,,180.82199999851582,,response,,,,100,,,,,,,Space,keypress(Space),,,,,,,,"-- --- ---- --- ------ ----- ------- ---- -- --- ------- --<br>------- ---------- ------ -- 1727, -- ----- -- ---- ------<br>--- ----- --- --- ------ -------- ----- --- ------ ----- --<br>----- ----- ---------- --- --- ------ ------ ---- -- ------<br>------- --- ------ ----- --- ---- ------- -- ---- --- --<br>------- ------",106461.70000000298,106461.39999999851,106273.604,106276.89999999851,106280.578,106468.084,,16,"1727,"
screen,html.Screen,2_1_1_1_17,2022-05-12T15:31:31.087Z,,,,,,,,,,,,,,,,,54,,,,,,,,,,,,,,169.31599999850732,,response,,,,100,,,,,,,Space,keypress(Space),,,,,,,,-- --- ---- --- ------ ----- ------- ---- -- --- ------- --<br>------- ---------- ------ -- ----- in ----- -- ---- ------<br>--- ----- --- --- ------ -------- ----- --- ------ ----- --<br>----- ----- ---------- --- --- ------ ------ ---- -- ------<br>------- --- ------ ----- --- ---- ------- -- ---- --- --<br>------- ------,106637.70000000298,106637.39999999851,106461.124,106461.70000000298,106468.084,106641.682,,17,in
screen,html.Screen,2_1_1_1_18,2022-05-12T15:31:31.268Z,,,,,,,,,,,,,,,,,54,,,,,,,,,,,,,,176.61800000446965,,response,,,,100,,,,,,,Space,keypress(Space),,,,,,,,-- --- ---- --- ------ ----- ------- ---- -- --- ------- --<br>------- ---------- ------ -- ----- -- order -- ---- ------<br>--- ----- --- --- ------ -------- ----- --- ------ ----- --<br>----- ----- ---------- --- --- ------ ------ ---- -- ------<br>------- --- ------ ----- --- ---- ------- -- ---- --- --<br>------- ------,106818.5,106818.30000000447,106634.722,106637.70000000298,106641.682,106822.275,,18,order
screen,html.Screen,2_1_1_1_19,2022-05-12T15:31:31.452Z,,,,,,,,,,,,,,,,,54,,,,,,,,,,,,,,180.02500000447617,,response,,,,100,,,,,,,Space,keypress(Space),,,,,,,,-- --- ---- --- ------ ----- ------- ---- -- --- ------- --<br>------- ---------- ------ -- ----- -- ----- to ---- ------<br>--- ----- --- --- ------ -------- ----- --- ------ ----- --<br>----- ----- ---------- --- --- ------ ------ ---- -- ------<br>------- --- ------ ----- --- ---- ------- -- ---- --- --<br>------- ------,107002.60000000149,107002.30000000447,106815.325,106818.60000000149,106822.275,107009.944,,19,to
screen,html.Screen,2_1_1_1_20,2022-05-12T15:31:31.632Z,,,,,,,,,,,,,,,,,54,,,,,,,,,,,,,,172.3560000044672,,response,,,,100,,,,,,,Space,keypress(Space),,,,,,,,-- --- ---- --- ------ ----- ------- ---- -- --- ------- --<br>------- ---------- ------ -- ----- -- ----- -- save ------<br>--- ----- --- --- ------ -------- ----- --- ------ ----- --<br>----- ----- ---------- --- --- ------ ------ ---- -- ------<br>------- --- ------ ----- --- ---- ------- -- ---- --- --<br>------- ------,107182.70000000298,107182.30000000447,107002.817,107002.60000000149,107009.944,107190.968,,20,save
screen,html.Screen,2_1_1_1_21,2022-05-12T15:31:31.942Z,,,,,,,,,,,,,,,,,54,,,,,,,,,,,,,,301.4319999985164,,response,,,,100,,,,,,,Space,keypress(Space),,,,,,,,"-- --- ---- --- ------ ----- ------- ---- -- --- ------- --<br>------- ---------- ------ -- ----- -- ----- -- ---- money,<br>--- ----- --- --- ------ -------- ----- --- ------ ----- --<br>----- ----- ---------- --- --- ------ ------ ---- -- ------<br>------- --- ------ ----- --- ---- ------- -- ---- --- --<br>------- ------",107492.70000000298,107492.39999999851,107176.587,107182.70000000298,107190.968,107495.827,,21,"money,"
screen,html.Screen,2_1_1_1_22,2022-05-12T15:31:32.136Z,,,,,,,,,,,,,,,,,54,,,,,,,,,,,,,,191.17299999999523,,response,,,,100,,,,,,,Space,keypress(Space),,,,,,,,-- --- ---- --- ------ ----- ------- ---- -- --- ------- --<br>------- ---------- ------ -- ----- -- ----- -- ---- ------<br>the ----- --- --- ------ -------- ----- --- ------ ----- --<br>----- ----- ---------- --- --- ------ ------ ---- -- ------<br>------- --- ------ ----- --- ---- ------- -- ---- --- --<br>------- ------,107687.30000000447,107687,107488.86,107492.80000000447,107495.827,107690.262,,22,the
screen,html.Screen,2_1_1_1_23,2022-05-12T15:31:32.313Z,,,,,,,,,,,,,,,,,54,,,,,,,,,,,,,,173.0380000044679,,response,,,,100,,,,,,,Space,keypress(Space),,,,,,,,-- --- ---- --- ------ ----- ------- ---- -- --- ------- --<br>------- ---------- ------ -- ----- -- ----- -- ---- ------<br>--- state --- --- ------ -------- ----- --- ------ ----- --<br>----- ----- ---------- --- --- ------ ------ ---- -- ------<br>------- --- ------ ----- --- ---- ------- -- ---- --- --<br>------- ------,107863.60000000149,107863.30000000447,107683.315,107687.39999999851,107690.262,107877.819,,23,state
screen,html.Screen,2_1_1_1_24,2022-05-12T15:31:32.494Z,,,,,,,,,,,,,,,,,54,,,,,,,,,,,,,,166.4810000044672,,response,,,,100,,,,,,,Space,keypress(Space),,,,,,,,-- --- ---- --- ------ ----- ------- ---- -- --- ------- --<br>------- ---------- ------ -- ----- -- ----- -- ---- ------<br>--- ----- cut --- ------ -------- ----- --- ------ ----- --<br>----- ----- ---------- --- --- ------ ------ ---- -- ------<br>------- --- ------ ----- --- ---- ------- -- ---- --- --<br>------- ------,108044.60000000149,108044.30000000447,107871.144,107863.70000000298,107877.819,108051.379,,24,cut
screen,html.Screen,2_1_1_1_25,2022-05-12T15:31:32.686Z,,,,,,,,,,,,,,,,,54,,,,,,,,,,,,,,185.02099999850907,,response,,,,100,,,,,,,Space,keypress(Space),,,,,,,,-- --- ---- --- ------ ----- ------- ---- -- --- ------- --<br>------- ---------- ------ -- ----- -- ----- -- ---- ------<br>--- ----- --- the ------ -------- ----- --- ------ ----- --<br>----- ----- ---------- --- --- ------ ------ ---- -- ------<br>------- --- ------ ----- --- ---- ------- -- ---- --- --<br>------- ------,108236.70000000298,108236.39999999851,108044.462,108044.60000000149,108051.379,108238.91,,25,the
screen,html.Screen,2_1_1_1_26,2022-05-12T15:31:32.913Z,,,,,,,,,,,,,,,,,54,,,,,,,,,,,,,,224.4899999985064,,response,,,,100,,,,,,,Space,keypress(Space),,,,,,,,-- --- ---- --- ------ ----- ------- ---- -- --- ------- --<br>------- ---------- ------ -- ----- -- ----- -- ---- ------<br>--- ----- --- --- bonds' -------- ----- --- ------ ----- --<br>----- ----- ---------- --- --- ------ ------ ---- -- ------<br>------- --- ------ ----- --- ---- ------- -- ---- --- --<br>------- ------,108463.60000000149,108463.39999999851,108231.951,108236.70000000298,108238.91,108468.027,,26,bonds'
screen,html.Screen,2_1_1_1_27,2022-05-12T15:31:33.156Z,,,,,,,,,,,,,,,,,54,,,,,,,,,,,,,,238.37299999850802,,response,,,,100,,,,,,,Space,keypress(Space),,,,,,,,-- --- ---- --- ------ ----- ------- ---- -- --- ------- --<br>------- ---------- ------ -- ----- -- ----- -- ---- ------<br>--- ----- --- --- ------ interest ----- --- ------ ----- --<br>----- ----- ---------- --- --- ------ ------ ---- -- ------<br>------- --- ------ ----- --- ---- ------- -- ---- --- --<br>------- ------,108706.70000000298,108706.39999999851,108461.118,108463.70000000298,108468.027,108711.087,,27,interest
screen,html.Screen,2_1_1_1_28,2022-05-12T15:31:33.338Z,,,,,,,,,,,,,,,,,54,,,,,,,,,,,,,,177.2130000044708,,response,,,,100,,,,,,,Space,keypress(Space),,,,,,,,-- --- ---- --- ------ ----- ------- ---- -- --- ------- --<br>------- ---------- ------ -- ----- -- ----- -- ---- ------<br>--- ----- --- --- ------ -------- rate. --- ------ ----- --<br>----- ----- ---------- --- --- ------ ------ ---- -- ------<br>------- --- ------ ----- --- ---- ------- -- ---- --- --<br>------- ------,108888.70000000298,108888.30000000447,108704.133,108706.80000000447,108711.087,108891.625,,28,rate.
screen,html.Screen,2_1_1_1_29,2022-05-12T15:31:33.640Z,,,,,,,,,,,,,,,,,54,,,,,,,,,,,,,,298.67500000447035,,response,,,,100,,,,,,,Space,keypress(Space),,,,,,,,-- --- ---- --- ------ ----- ------- ---- -- --- ------- --<br>------- ---------- ------ -- ----- -- ----- -- ---- ------<br>--- ----- --- --- ------ -------- ----- The ------ ----- --<br>----- ----- ---------- --- --- ------ ------ ---- -- ------<br>------- --- ------ ----- --- ---- ------- -- ---- --- --<br>------- ------,109190.60000000149,109190.30000000447,108884.72,108888.70000000298,108891.625,109197.18,,29,The
screen,html.Screen,2_1_1_1_30,2022-05-12T15:31:33.842Z,,,,,,,,,,,,,,,,,54,,,,,,,,,,,,,,195.12000000447733,,response,,,,100,,,,,,,Space,keypress(Space),,,,,,,,-- --- ---- --- ------ ----- ------- ---- -- --- ------- --<br>------- ---------- ------ -- ----- -- ----- -- ---- ------<br>--- ----- --- --- ------ -------- ----- --- market ----- --<br>----- ----- ---------- --- --- ------ ------ ---- -- ------<br>------- --- ------ ----- --- ---- ------- -- ---- --- --<br>------- ------,109392.60000000149,109392.30000000447,109190.209,109190.70000000298,109197.18,109398.56,,30,market
screen,html.Screen,2_1_1_1_31,2022-05-12T15:31:34.023Z,,,,,,,,,,,,,,,,,54,,,,,,,,,,,,,,174.8399999985122,,response,,,,100,,,,,,,Space,keypress(Space),,,,,,,,-- --- ---- --- ------ ----- ------- ---- -- --- ------- --<br>------- ---------- ------ -- ----- -- ----- -- ---- ------<br>--- ----- --- --- ------ -------- ----- --- ------ value --<br>----- ----- ---------- --- --- ------ ------ ---- -- ------<br>------- --- ------ ----- --- ---- ------- -- ---- --- --<br>------- ------,109573.70000000298,109573.39999999851,109391.648,109392.70000000298,109398.56,109579.109,,31,value
screen,html.Screen,2_1_1_1_32,2022-05-12T15:31:34.302Z,,,,,,,,,,,,,,,,,54,,,,,,,,,,,,,,273.9910000014934,,response,,,,100,,,,,,,Space,keypress(Space),,,,,,,,-- --- ---- --- ------ ----- ------- ---- -- --- ------- --<br>------- ---------- ------ -- ----- -- ----- -- ---- ------<br>--- ----- --- --- ------ -------- ----- --- ------ ----- of<br>----- ----- ---------- --- --- ------ ------ ---- -- ------<br>------- --- ------ ----- --- ---- ------- -- ---- --- --<br>------- ------,109853.30000000447,109853.10000000149,109572.156,109573.80000000447,109579.109,109856.883,,32,of
screen,html.Screen,2_1_1_1_33,2022-05-12T15:31:34.480Z,,,,,,,,,,,,,,,,,54,,,,,,,,,,,,,,173.41700000446872,,response,,,,100,,,,,,,Space,keypress(Space),,,,,,,,-- --- ---- --- ------ ----- ------- ---- -- --- ------- --<br>------- ---------- ------ -- ----- -- ----- -- ---- ------<br>--- ----- --- --- ------ -------- ----- --- ------ ----- --<br>these ----- ---------- --- --- ------ ------ ---- -- ------<br>------- --- ------ ----- --- ---- ------- -- ---- --- --<br>------- ------,110030.70000000298,110030.30000000447,109850.132,109853.39999999851,109856.883,110037.44,,33,these
screen,html.Screen,2_1_1_1_34,2022-05-12T15:31:34.653Z,,,,,,,,,,,,,,,,,54,,,,,,,,,,,,,,165.95999999850756,,response,,,,100,,,,,,,Space,keypress(Space),,,,,,,,-- --- ---- --- ------ ----- ------- ---- -- --- ------- --<br>------- ---------- ------ -- ----- -- ----- -- ---- ------<br>--- ----- --- --- ------ -------- ----- --- ------ ----- --<br>----- bonds ---------- --- --- ------ ------ ---- -- ------<br>------- --- ------ ----- --- ---- ------- -- ---- --- --<br>------- ------,110203.60000000149,110203.39999999851,110030.52,110030.80000000447,110037.44,110222.068,,34,bonds
screen,html.Screen,2_1_1_1_35,2022-05-12T15:31:34.818Z,,,,,,,,,,,,,,,,,54,,,,,,,,,,,,,,146.9320000000007,,response,,,,100,,,,,,,Space,keypress(Space),,,,,,,,"-- --- ---- --- ------ ----- ------- ---- -- --- ------- --<br>------- ---------- ------ -- ----- -- ----- -- ---- ------<br>--- ----- --- --- ------ -------- ----- --- ------ ----- --<br>----- ----- plummeted, --- --- ------ ------ ---- -- ------<br>------- --- ------ ----- --- ---- ------- -- ---- --- --<br>------- ------",110369.20000000298,110369,110197.376,110203.70000000298,110222.068,110370.784,,35,"plummeted,"
screen,html.Screen,2_1_1_1_36,2022-05-12T15:31:35.017Z,,,,,,,,,,,,,,,,,54,,,,,,,,,,,,,,196.61599999851023,,response,,,,100,,,,,,,Space,keypress(Space),,,,,,,,-- --- ---- --- ------ ----- ------- ---- -- --- ------- --<br>------- ---------- ------ -- ----- -- ----- -- ---- ------<br>--- ----- --- --- ------ -------- ----- --- ------ ----- --<br>----- ----- ---------- and --- ------ ------ ---- -- ------<br>------- --- ------ ----- --- ---- ------- -- ---- --- --<br>------- ------,110567.60000000149,110567.39999999851,110363.786,110369.30000000447,110370.784,110572.139,,36,and
screen,html.Screen,2_1_1_1_37,2022-05-12T15:31:35.221Z,,,,,,,,,,,,,,,,,54,,,,,,,,,,,,,,199.86100000000442,,response,,,,100,,,,,,,Space,keypress(Space),,,,,,,,-- --- ---- --- ------ ----- ------- ---- -- --- ------- --<br>------- ---------- ------ -- ----- -- ----- -- ---- ------<br>--- ----- --- --- ------ -------- ----- --- ------ ----- --<br>----- ----- ---------- --- the ------ ------ ---- -- ------<br>------- --- ------ ----- --- ---- ------- -- ---- --- --<br>------- ------,110772.20000000298,110772,110565.232,110567.70000000298,110572.139,110773.529,,37,the
screen,html.Screen,2_1_1_1_38,2022-05-12T15:31:35.472Z,,,,,,,,,,,,,,,,,54,,,,,,,,,,,,,,248.8709999985149,,response,,,,100,,,,,,,Space,keypress(Space),,,,,,,,-- --- ---- --- ------ ----- ------- ---- -- --- ------- --<br>------- ---------- ------ -- ----- -- ----- -- ---- ------<br>--- ----- --- --- ------ -------- ----- --- ------ ----- --<br>----- ----- ---------- --- --- market ------ ---- -- ------<br>------- --- ------ ----- --- ---- ------- -- ---- --- --<br>------- ------,111022.60000000149,111022.39999999851,110766.571,110772.30000000447,110773.529,111043.367,,38,market
screen,html.Screen,2_1_1_1_39,2022-05-12T15:31:35.665Z,,,,,,,,,,,,,,,,,54,,,,,,,,,,,,,,171.93300000447198,,response,,,,100,,,,,,,Space,keypress(Space),,,,,,,,-- --- ---- --- ------ ----- ------- ---- -- --- ------- --<br>------- ---------- ------ -- ----- -- ----- -- ---- ------<br>--- ----- --- --- ------ -------- ----- --- ------ ----- --<br>----- ----- ---------- --- --- ------ became ---- -- ------<br>------- --- ------ ----- --- ---- ------- -- ---- --- --<br>------- ------,111215.70000000298,111215.30000000447,111016.609,111022.70000000298,111043.367,111217.987,,39,became
screen,html.Screen,2_1_1_1_40,2022-05-12T15:31:35.865Z,,,,,,,,,,,,,,,,,54,,,,,,,,,,,,,,197.31300000447663,,response,,,,100,,,,,,,Space,keypress(Space),,,,,,,,-- --- ---- --- ------ ----- ------- ---- -- --- ------- --<br>------- ---------- ------ -- ----- -- ----- -- ---- ------<br>--- ----- --- --- ------ -------- ----- --- ------ ----- --<br>----- ----- ---------- --- --- ------ ------ wary -- ------<br>------- --- ------ ----- --- ---- ------- -- ---- --- --<br>------- ------,111415.70000000298,111415.30000000447,111210.99,111215.70000000298,111217.987,111419.361,,40,wary
screen,html.Screen,2_1_1_1_41,2022-05-12T15:31:36.118Z,,,,,,,,,,,,,,,,,54,,,,,,,,,,,,,,249.03899999850546,,response,,,,100,,,,,,,Space,keypress(Space),,,,,,,,-- --- ---- --- ------ ----- ------- ---- -- --- ------- --<br>------- ---------- ------ -- ----- -- ----- -- ---- ------<br>--- ----- --- --- ------ -------- ----- --- ------ ----- --<br>----- ----- ---------- --- --- ------ ------ ---- of ------<br>------- --- ------ ----- --- ---- ------- -- ---- --- --<br>------- ------,111668.70000000298,111668.39999999851,111412.582,111415.70000000298,111419.361,111690.325,,41,of
screen,html.Screen,2_1_1_1_42,2022-05-12T15:31:36.360Z,,,,,,,,,,,,,,,,,54,,,,,,,,,,,,,,219.97500000447326,,response,,,,100,,,,,,,Space,keypress(Space),,,,,,,,-- --- ---- --- ------ ----- ------- ---- -- --- ------- --<br>------- ---------- ------ -- ----- -- ----- -- ---- ------<br>--- ----- --- --- ------ -------- ----- --- ------ ----- --<br>----- ----- ---------- --- --- ------ ------ ---- -- French<br>------- --- ------ ----- --- ---- ------- -- ---- --- --<br>------- ------,111910.60000000149,111910.30000000447,111662.364,111668.70000000298,111690.325,111912.417,,42,French
screen,html.Screen,2_1_1_1_43,2022-05-12T15:31:36.578Z,,,,,,,,,,,,,,,,,54,,,,,,,,,,,,,,216.68300000148884,,response,,,,100,,,,,,,Space,keypress(Space),,,,,,,,-- --- ---- --- ------ ----- ------- ---- -- --- ------- --<br>------- ---------- ------ -- ----- -- ----- -- ---- ------<br>--- ----- --- --- ------ -------- ----- --- ------ ----- --<br>----- ----- ---------- --- --- ------ ------ ---- -- ------<br>credit. --- ------ ----- --- ---- ------- -- ---- --- --<br>------- ------,112129.30000000447,112129.10000000149,111905.433,111910.70000000298,111912.417,112134.604,,43,credit.
screen,html.Screen,2_1_1_1_44,2022-05-12T15:31:36.862Z,,,,,,,,,,,,,,,,,54,,,,,,,,,,,,,,277.79599999850325,,response,,,,100,,,,,,,Space,keypress(Space),,,,,,,,-- --- ---- --- ------ ----- ------- ---- -- --- ------- --<br>------- ---------- ------ -- ----- -- ----- -- ---- ------<br>--- ----- --- --- ------ -------- ----- --- ------ ----- --<br>----- ----- ---------- --- --- ------ ------ ---- -- ------<br>------- The ------ ----- --- ---- ------- -- ---- --- --<br>------- ------,112412.70000000298,112412.39999999851,112127.631,112129.39999999851,112134.604,112419.32,,44,The
screen,html.Screen,2_1_1_1_45,2022-05-12T15:31:37.168Z,,,,,,,,,,,,,,,,,54,,,,,,,,,,,,,,298.98000000446336,,response,,,,100,,,,,,,Space,keypress(Space),,,,,,,,-- --- ---- --- ------ ----- ------- ---- -- --- ------- --<br>------- ---------- ------ -- ----- -- ----- -- ---- ------<br>--- ----- --- --- ------ -------- ----- --- ------ ----- --<br>----- ----- ---------- --- --- ------ ------ ---- -- ------<br>------- --- French ----- --- ---- ------- -- ---- --- --<br>------- ------,112718.70000000298,112718.30000000447,112412.563,112412.70000000298,112419.32,112724.998,,45,French
screen,html.Screen,2_1_1_1_46,2022-05-12T15:31:37.368Z,,,,,,,,,,,,,,,,,54,,,,,,,,,,,,,,193.50199999999313,,response,,,,100,,,,,,,Space,keypress(Space),,,,,,,,-- --- ---- --- ------ ----- ------- ---- -- --- ------- --<br>------- ---------- ------ -- ----- -- ----- -- ---- ------<br>--- ----- --- --- ------ -------- ----- --- ------ ----- --<br>----- ----- ---------- --- --- ------ ------ ---- -- ------<br>------- --- ------ state --- ---- ------- -- ---- --- --<br>------- ------,112918.80000000447,112918.5,112717.95,112718.70000000298,112724.998,112937.729,,46,state
screen,html.Screen,2_1_1_1_47,2022-05-12T15:31:37.552Z,,,,,,,,,,,,,,,,,54,,,,,,,,,,,,,,165.37100000148348,,response,,,,100,,,,,,,Space,keypress(Space),,,,,,,,-- --- ---- --- ------ ----- ------- ---- -- --- ------- --<br>------- ---------- ------ -- ----- -- ----- -- ---- ------<br>--- ----- --- --- ------ -------- ----- --- ------ ----- --<br>----- ----- ---------- --- --- ------ ------ ---- -- ------<br>------- --- ------ ----- was ---- ------- -- ---- --- --<br>------- ------,113103.30000000447,113103.10000000149,112912.366,112918.89999999851,112937.729,113106.802,,47,was
screen,html.Screen,2_1_1_1_48,2022-05-12T15:31:37.739Z,,,,,,,,,,,,,,,,,54,,,,,,,,,,,,,,182.4980000044743,,response,,,,100,,,,,,,Space,keypress(Space),,,,,,,,-- --- ---- --- ------ ----- ------- ---- -- --- ------- --<br>------- ---------- ------ -- ----- -- ----- -- ---- ------<br>--- ----- --- --- ------ -------- ----- --- ------ ----- --<br>----- ----- ---------- --- --- ------ ------ ---- -- ------<br>------- --- ------ ----- --- left ------- -- ---- --- --<br>------- ------,113289.70000000298,113289.30000000447,113099.828,113103.30000000447,113106.802,113294.297,,48,left
screen,html.Screen,2_1_1_1_49,2022-05-12T15:31:37.923Z,,,,,,,,,,,,,,,,,54,,,,,,,,,,,,,,179.0030000044644,,response,,,,100,,,,,,,Space,keypress(Space),,,,,,,,-- --- ---- --- ------ ----- ------- ---- -- --- ------- --<br>------- ---------- ------ -- ----- -- ----- -- ---- ------<br>--- ----- --- --- ------ -------- ----- --- ------ ----- --<br>----- ----- ---------- --- --- ------ ------ ---- -- ------<br>------- --- ------ ----- --- ---- without -- ---- --- --<br>------- ------,113473.60000000149,113473.30000000447,113287.333,113289.70000000298,113294.297,113488.204,,49,without
screen,html.Screen,2_1_1_1_50,2022-05-12T15:31:38.105Z,,,,,,,,,,,,,,,,,54,,,,,,,,,,,,,,167.09600000447244,,response,,,,100,,,,,,,Space,keypress(Space),,,,,,,,-- --- ---- --- ------ ----- ------- ---- -- --- ------- --<br>------- ---------- ------ -- ----- -- ----- -- ---- ------<br>--- ----- --- --- ------ -------- ----- --- ------ ----- --<br>----- ----- ---------- --- --- ------ ------ ---- -- ------<br>------- --- ------ ----- --- ---- ------- an ---- --- --<br>------- ------,113655.70000000298,113655.30000000447,113468.072,113473.70000000298,113488.204,113662.362,,50,an
screen,html.Screen,2_1_1_1_51,2022-05-12T15:31:38.306Z,,,,,,,,,,,,,,,,,54,,,,,,,,,,,,,,194.03799999851617,,response,,,,100,,,,,,,Space,keypress(Space),,,,,,,,-- --- ---- --- ------ ----- ------- ---- -- --- ------- --<br>------- ---------- ------ -- ----- -- ----- -- ---- ------<br>--- ----- --- --- ------ -------- ----- --- ------ ----- --<br>----- ----- ---------- --- --- ------ ------ ---- -- ------<br>------- --- ------ ----- --- ---- ------- -- easy --- --<br>------- ------,113856.60000000149,113856.39999999851,113655.39,113655.70000000298,113662.362,113863.746,,51,easy
screen,html.Screen,2_1_1_1_52,2022-05-12T15:31:38.557Z,,,,,,,,,,,,,,,,,54,,,,,,,,,,,,,,243.6539999985107,,response,,,,100,,,,,,,Space,keypress(Space),,,,,,,,-- --- ---- --- ------ ----- ------- ---- -- --- ------- --<br>------- ---------- ------ -- ----- -- ----- -- ---- ------<br>--- ----- --- --- ------ -------- ----- --- ------ ----- --<br>----- ----- ---------- --- --- ------ ------ ---- -- ------<br>------- --- ------ ----- --- ---- ------- -- ---- way --<br>------- ------,114107.60000000149,114107.39999999851,113856.822,113856.70000000298,113863.746,114113.932,,52,way
screen,html.Screen,2_1_1_1_53,2022-05-12T15:31:38.780Z,,,,,,,,,,,,,,,,,54,,,,,,,,,,,,,,217.16800000148942,,response,,,,100,,,,,,,Space,keypress(Space),,,,,,,,-- --- ---- --- ------ ----- ------- ---- -- --- ------- --<br>------- ---------- ------ -- ----- -- ----- -- ---- ------<br>--- ----- --- --- ------ -------- ----- --- ------ ----- --<br>----- ----- ---------- --- --- ------ ------ ---- -- ------<br>------- --- ------ ----- --- ---- ------- -- ---- --- of<br>------- ------,114331.39999999851,114331.10000000149,114106.948,114107.70000000298,114113.932,114335.956,,53,of
screen,html.Screen,2_1_1_1_54,2022-05-12T15:31:39.103Z,,,,,,,,,,,,,,,,,54,,,,,,,,,,,,,,317.4439999985043,,response,,,,100,,,,,,,Space,keypress(Space),,,,,,,,-- --- ---- --- ------ ----- ------- ---- -- --- ------- --<br>------- ---------- ------ -- ----- -- ----- -- ---- ------<br>--- ----- --- --- ------ -------- ----- --- ------ ----- --<br>----- ----- ---------- --- --- ------ ------ ---- -- ------<br>------- --- ------ ----- --- ---- ------- -- ---- --- --<br>raising ------,114653.60000000149,114653.39999999851,114329.188,114331.5,114335.956,114655.399,,54,raising
screen,html.Screen,2_1_1_1_55,2022-05-12T15:31:39.397Z,,,,,,,,,,,,,,,,,54,,,,,,,,,,,,,,292.7010000014852,,response,,,,100,,,,,,,Space,keypress(Space),,,,,,,,-- --- ---- --- ------ ----- ------- ---- -- --- ------- --<br>------- ---------- ------ -- ----- -- ----- -- ---- ------<br>--- ----- --- --- ------ -------- ----- --- ------ ----- --<br>----- ----- ---------- --- --- ------ ------ ---- -- ------<br>------- --- ------ ----- --- ---- ------- -- ---- --- --<br>------- money.,114948.39999999851,114948.10000000149,114648.459,114653.70000000298,114655.399,114953.986,,55,money.
Item 100,flow.Loop,2_1_1_1,2022-05-12T15:31:39.397Z,,,,,,,,,,,,,,,,,,,,,,,,,,,,,,,13209.082000001494,,completion,,,,,F,,,,,,,,,,,silence,,,,,114948.5,114948.10000000149,101732.09,101732.20000000298,101739.018,114953.986,,,
Question 1,html.Screen,2_1_1_2,2022-05-12T15:31:41.104Z,,,,,,,,,,,,,,,,,,,,,,,,,,,,true,TRUE,,1700.1140000014857,,response,,,,100,F,,,,,,TRUE,click #choice-1,,,,silence,,,,,116654.5,116654.10000000149,114947,114948.5,114953.986,116670.79,,,
Question 2,html.Screen,2_1_1_3,2022-05-12T15:31:44.529Z,,,,,,,,,,,,,,,,,,,,,,,,,,,,true,FALSE,,3408.7100000000064,,response,,,,100,F,,,,,,FALSE,click #choice-2,,,,silence,,,,,120080,120079.5,116648.358,116654.5,116670.79,120085.806,,,
Item 100,flow.Sequence,2_1_1,2022-05-12T15:31:44.529Z,,,,,,,,,,,,,,,,,,,,,,,,,,,,,,,28340.217999999993,,completion,,,,,,,,,,,,,,,,,,,,,120080.10000000149,120079.5,91732.297,91736.89999999851,91739.282,120085.806,,,
End of Practice,html.Page,2_1_2,2022-05-12T15:31:47.518Z,,,,,,,,,,,,,,,,,,,,,,,,,,,,,,,2983.4940000044735,,form submission,,,,,,,,,,,,,,,,,,,,,123069.5,123069.30000000447,120079.049,120080.20000000298,120085.806,123071.855,,,
Practice,flow.Sequence,2_1,2022-05-12T15:31:47.519Z,,,,,,,,,,,,,,,,,,,,,,,,,,,,,,,59662.69400000447,,completion,,,,,,,,,,,,,,,,,,,,,123069.60000000149,123069.30000000447,63399.656,63402.10000000149,63406.606,123071.855,,,
Trap_instruction,html.Page,2_2_0,2022-05-12T15:31:52.398Z,,,,,,,,,,,,,,,,,,,,,,,,,,,,,,,4877.044999998514,,form submission,,,,,,,,,,,,,,,,,,,,,127949,127948.89999999851,123064.878,123069.60000000149,123071.855,127953.672,,,
trap_trial,html.Screen,2_2_1,2022-05-12T15:31:55.042Z,,,,,,,,,,,,,,,,,,,,,,,,,,,,true,1,,2639.5280000029743,,response,,,,,,,,,,,1,click #choice-1,,,,,,,,,130593.39999999851,130593.20000000298,127946.69,127949,127953.672,130599.444,,,
end of trap trial,html.Page,2_2_2,2022-05-12T15:31:56.452Z,,,,,,,,,,,,,,,,,,,,,,,,,,,,,,,1403.256000002977,,form submission,,,,,,,,,,,,,,,,,,,,,132002.8999999985,132002.70000000298,130592.47,130593.60000000149,130599.444,132009.115,,,
Trap 1,flow.Sequence,2_2,2022-05-12T15:31:56.452Z,,,,,,,,,,,,,,,,,,,,,,,,,,,,,,,8930.845000002984,,completion,,,,,,,,,,,,,,,,,,,,,132002.8999999985,132002.70000000298,123064.878,123069.60000000149,123071.855,132009.115,,,
Standby,html.Page,2_3_0,2022-05-12T15:32:04.451Z,,,,,,,,,,,,,,,,,,,,,,,,,,,,,,,7999.81700000001,,timeout,,,,,,,,,,,,,,,,,,,,,140002.30000000447,140002.164,132002.149,132002.8999999985,132009.115,140008.932,,,
Holding screen,html.Screen,2_3_1_0_0,2022-05-12T15:32:11.451Z,,,,,,,,,,,,,,,,,,,,,,,,,,,,,,,6999.81700000001,,timeout,,,,,,,,,,,,,,,,,,,,,147001.8999999985,147001.796,140002.164,140002.3999999985,140008.932,147008.749,,,
screen,html.Screen,2_3_1_0_1_0,2022-05-12T15:32:12.394Z,,,,,,,,,,,,,,,,,40,,,,,,,,,,,,,,936.3510000014794,,response,,,,9,F,,,,,,Space,keypress(Space),,,,lyrical,,,,Police -- ------- ---- ---- ---- - -------- ----- --- --<br>----- ----- ------ -- ---- -- --- - ---- -- - ----- -----<br>------ ---- ------ ---- - -------- ------- -- --- --------<br>-------- ----------- ---- ------ ---- ------ ---- --- ---<br>-------- --- -----,147945.3999999985,147945.1000000015,147001.796,147002,147008.749,147962.447,,0,Police
screen,html.Screen,2_3_1_0_1_1,2022-05-12T15:32:12.674Z,,,,,,,,,,,,,,,,,40,,,,,,,,,,,,,,262.4529999985243,,response,,,,9,F,,,,,,Space,keypress(Space),,,,lyrical,,,,------ in ------- ---- ---- ---- - -------- ----- --- --<br>----- ----- ------ -- ---- -- --- - ---- -- - ----- -----<br>------ ---- ------ ---- - -------- ------- -- --- --------<br>-------- ----------- ---- ------ ---- ------ ---- --- ---<br>-------- --- -----,148225.1000000015,148224.8999999985,147939.54,147945.5,147962.447,148230.945,,1,in
screen,html.Screen,2_3_1_0_1_2,2022-05-12T15:32:13.319Z,,,,,,,,,,,,,,,,,40,,,,,,,,,,,,,,638.4549999985029,,response,,,,9,F,,,,,,Space,keypress(Space),,,,lyrical,,,,------ -- Georgia ---- ---- ---- - -------- ----- --- --<br>----- ----- ------ -- ---- -- --- - ---- -- - ----- -----<br>------ ---- ------ ---- - -------- ------- -- --- --------<br>-------- ----------- ---- ------ ---- ------ ---- --- ---<br>-------- --- -----,148869.6000000015,148869.3999999985,148223.975,148225.20000000298,148230.945,148876.824,,2,Georgia
screen,html.Screen,2_3_1_0_1_3,2022-05-12T15:32:13.665Z,,,,,,,,,,,,,,,,,40,,,,,,,,,,,,,,339.17600000000675,,response,,,,9,F,,,,,,Space,keypress(Space),,,,lyrical,,,,------ -- ------- have ---- ---- - -------- ----- --- --<br>----- ----- ------ -- ---- -- --- - ---- -- - ----- -----<br>------ ---- ------ ---- - -------- ------- -- --- --------<br>-------- ----------- ---- ------ ---- ------ ---- --- ---<br>-------- --- -----,149216.20000000298,149216,148869.771,148869.70000000298,148876.824,149242.449,,3,have
screen,html.Screen,2_3_1_0_1_4,2022-05-12T15:32:13.854Z,,,,,,,,,,,,,,,,,40,,,,,,,,,,,,,,162.3510000044771,,response,,,,9,F,,,,,,Space,keypress(Space),,,,lyrical,,,,------ -- ------- ---- shut ---- - -------- ----- --- --<br>----- ----- ------ -- ---- -- --- - ---- -- - ----- -----<br>------ ---- ------ ---- - -------- ------- -- --- --------<br>-------- ----------- ---- ------ ---- ------ ---- --- ---<br>-------- --- -----,149405,149404.80000000447,149210.119,149216.30000000447,149242.449,149411.469,,4,shut
screen,html.Screen,2_3_1_0_1_5,2022-05-12T15:32:14.061Z,,,,,,,,,,,,,,,,,40,,,,,,,,,,,,,,200.430999998498,,response,,,,9,F,,,,,,Space,keypress(Space),,,,lyrical,,,,------ -- ------- ---- ---- down - -------- ----- --- --<br>----- ----- ------ -- ---- -- --- - ---- -- - ----- -----<br>------ ---- ------ ---- - -------- ------- -- --- --------<br>-------- ----------- ---- ------ ---- ------ ---- --- ---<br>-------- --- -----,149612.1000000015,149611.8999999985,149404.531,149405.1000000015,149411.469,149632.664,,5,down
screen,html.Screen,2_3_1_0_1_6,2022-05-12T15:32:14.360Z,,,,,,,,,,,,,,,,,40,,,,,,,,,,,,,,278.33600000001024,,response,,,,9,F,,,,,,Space,keypress(Space),,,,lyrical,,,,------ -- ------- ---- ---- ---- a -------- ----- --- --<br>----- ----- ------ -- ---- -- --- - ---- -- - ----- -----<br>------ ---- ------ ---- - -------- ------- -- --- --------<br>-------- ----------- ---- ------ ---- ------ ---- --- ---<br>-------- --- -----,149911.20000000298,149911,149605.894,149612.1000000015,149632.664,149918.414,,6,a
screen,html.Screen,2_3_1_0_1_7,2022-05-12T15:32:14.818Z,,,,,,,,,,,,,,,,,40,,,,,,,,,,,,,,449.8860000044806,,response,,,,9,F,,,,,,Space,keypress(Space),,,,lyrical,,,,------ -- ------- ---- ---- ---- - lemonade ----- --- --<br>----- ----- ------ -- ---- -- --- - ---- -- - ----- -----<br>------ ---- ------ ---- - -------- ------- -- --- --------<br>-------- ----------- ---- ------ ---- ------ ---- --- ---<br>-------- --- -----,150368.70000000298,150368.30000000447,149911.432,149911.30000000447,149918.414,150382.505,,7,lemonade
screen,html.Screen,2_3_1_0_1_8,2022-05-12T15:32:15.485Z,,,,,,,,,,,,,,,,,40,,,,,,,,,,,,,,653.4949999999953,,response,,,,9,F,,,,,,Space,keypress(Space),,,,lyrical,,,,------ -- ------- ---- ---- ---- - -------- stand --- --<br>----- ----- ------ -- ---- -- --- - ---- -- - ----- -----<br>------ ---- ------ ---- - -------- ------- -- --- --------<br>-------- ----------- ---- ------ ---- ------ ---- --- ---<br>-------- --- -----,151036.30000000447,151036,150363.004,150368.70000000298,150382.505,151043.389,,8,stand
screen,html.Screen,2_3_1_0_1_9,2022-05-12T15:32:15.703Z,,,,,,,,,,,,,,,,,40,,,,,,,,,,,,,,210.41100000447477,,response,,,,9,F,,,,,,Space,keypress(Space),,,,lyrical,,,,------ -- ------- ---- ---- ---- - -------- ----- run --<br>----- ----- ------ -- ---- -- --- - ---- -- - ----- -----<br>------ ---- ------ ---- - -------- ------- -- --- --------<br>-------- ----------- ---- ------ ---- ------ ---- --- ---<br>-------- --- -----,151254,151253.80000000447,151036.487,151036.30000000447,151043.389,151258.646,,9,run
screen,html.Screen,2_3_1_0_1_10,2022-05-12T15:32:15.983Z,,,,,,,,,,,,,,,,,40,,,,,,,,,,,,,,275.4540000014822,,response,,,,9,F,,,,,,Space,keypress(Space),,,,lyrical,,,,------ -- ------- ---- ---- ---- - -------- ----- --- by<br>----- ----- ------ -- ---- -- --- - ---- -- - ----- -----<br>------ ---- ------ ---- - -------- ------- -- --- --------<br>-------- ----------- ---- ------ ---- ------ ---- --- ---<br>-------- --- -----,151534.30000000447,151534.1000000015,151251.678,151254,151258.646,151536.446,,10,by
screen,html.Screen,2_3_1_0_1_11,2022-05-12T15:32:16.177Z,,,,,,,,,,,,,,,,,40,,,,,,,,,,,,,,191.4539999985136,,response,,,,9,F,,,,,,Space,keypress(Space),,,,lyrical,,,,------ -- ------- ---- ---- ---- - -------- ----- --- --<br>three ----- ------ -- ---- -- --- - ---- -- - ----- -----<br>------ ---- ------ ---- - -------- ------- -- --- --------<br>-------- ----------- ---- ------ ---- ------ ---- --- ---<br>-------- --- -----,151727.8999999985,151727.8999999985,151529.45,151534.3999999985,151536.446,151730.875,,11,three
screen,html.Screen,2_3_1_0_1_12,2022-05-12T15:32:16.380Z,,,,,,,,,,,,,,,,,40,,,,,,,,,,,,,,199.92500000447035,,response,,,,9,F,,,,,,Space,keypress(Space),,,,lyrical,,,,------ -- ------- ---- ---- ---- - -------- ----- --- --<br>----- girls ------ -- ---- -- --- - ---- -- - ----- -----<br>------ ---- ------ ---- - -------- ------- -- --- --------<br>-------- ----------- ---- ------ ---- ------ ---- --- ---<br>-------- --- -----,151931.1000000015,151930.80000000447,151724.102,151728,151730.875,151952.445,,12,girls
screen,html.Screen,2_3_1_0_1_13,2022-05-12T15:32:16.605Z,,,,,,,,,,,,,,,,,40,,,,,,,,,,,,,,203.35500000446336,,response,,,,9,F,,,,,,Space,keypress(Space),,,,lyrical,,,,------ -- ------- ---- ---- ---- - -------- ----- --- --<br>----- ----- trying -- ---- -- --- - ---- -- - ----- -----<br>------ ---- ------ ---- - -------- ------- -- --- --------<br>-------- ----------- ---- ------ ---- ------ ---- --- ---<br>-------- --- -----,152156,152155.80000000447,151925.293,151931.1000000015,151952.445,152161.401,,13,trying
screen,html.Screen,2_3_1_0_1_14,2022-05-12T15:32:16.787Z,,,,,,,,,,,,,,,,,40,,,,,,,,,,,,,,176.39900000445778,,response,,,,9,F,,,,,,Space,keypress(Space),,,,lyrical,,,,------ -- ------- ---- ---- ---- - -------- ----- --- --<br>----- ----- ------ to ---- -- --- - ---- -- - ----- -----<br>------ ---- ------ ---- - -------- ------- -- --- --------<br>-------- ----------- ---- ------ ---- ------ ---- --- ---<br>-------- --- -----,152338,152337.80000000447,152154.435,152156,152161.401,152341.952,,14,to
screen,html.Screen,2_3_1_0_1_15,2022-05-12T15:32:16.959Z,,,,,,,,,,,,,,,,,40,,,,,,,,,,,,,,168.04800000000978,,response,,,,9,F,,,,,,Space,keypress(Space),,,,lyrical,,,,------ -- ------- ---- ---- ---- - -------- ----- --- --<br>----- ----- ------ -- save -- --- - ---- -- - ----- -----<br>------ ---- ------ ---- - -------- ------- -- --- --------<br>-------- ----------- ---- ------ ---- ------ ---- --- ---<br>-------- --- -----,152510.20000000298,152510,152335.194,152338,152341.952,152515.56,,15,save
screen,html.Screen,2_3_1_0_1_16,2022-05-12T15:32:17.140Z,,,,,,,,,,,,,,,,,40,,,,,,,,,,,,,,175.24000000447268,,response,,,,9,F,,,,,,Space,keypress(Space),,,,lyrical,,,,------ -- ------- ---- ---- ---- - -------- ----- --- --<br>----- ----- ------ -- ---- up --- - ---- -- - ----- -----<br>------ ---- ------ ---- - -------- ------- -- --- --------<br>-------- ----------- ---- ------ ---- ------ ---- --- ---<br>-------- --- -----,152691.1000000015,152690.80000000447,152508.594,152510.20000000298,152515.56,152696.318,,16,up
screen,html.Screen,2_3_1_0_1_17,2022-05-12T15:32:17.321Z,,,,,,,,,,,,,,,,,40,,,,,,,,,,,,,,174.98200000447105,,response,,,,9,F,,,,,,Space,keypress(Space),,,,lyrical,,,,------ -- ------- ---- ---- ---- - -------- ----- --- --<br>----- ----- ------ -- ---- -- for - ---- -- - ----- -----<br>------ ---- ------ ---- - -------- ------- -- --- --------<br>-------- ----------- ---- ------ ---- ------ ---- --- ---<br>-------- --- -----,152871.6000000015,152871.30000000447,152689.153,152691.1000000015,152696.318,152876.667,,17,for
screen,html.Screen,2_3_1_0_1_18,2022-05-12T15:32:17.505Z,,,,,,,,,,,,,,,,,40,,,,,,,,,,,,,,179.13300000448362,,response,,,,9,F,,,,,,Space,keypress(Space),,,,lyrical,,,,------ -- ------- ---- ---- ---- - -------- ----- --- --<br>----- ----- ------ -- ---- -- --- a ---- -- - ----- -----<br>------ ---- ------ ---- - -------- ------- -- --- --------<br>-------- ----------- ---- ------ ---- ------ ---- --- ---<br>-------- --- -----,153055.8999999985,153055.80000000447,152869.694,152871.70000000298,152876.667,153057.229,,18,a
screen,html.Screen,2_3_1_0_1_19,2022-05-12T15:32:17.698Z,,,,,,,,,,,,,,,,,40,,,,,,,,,,,,,,191.07100000447826,,response,,,,9,F,,,,,,Space,keypress(Space),,,,lyrical,,,,------ -- ------- ---- ---- ---- - -------- ----- --- --<br>----- ----- ------ -- ---- -- --- - trip -- - ----- -----<br>------ ---- ------ ---- - -------- ------- -- --- --------<br>-------- ----------- ---- ------ ---- ------ ---- --- ---<br>-------- --- -----,153248.6000000015,153248.30000000447,153050.253,153056,153057.229,153251.676,,19,trip
screen,html.Screen,2_3_1_0_1_20,2022-05-12T15:32:17.891Z,,,,,,,,,,,,,,,,,40,,,,,,,,,,,,,,189.6240000044636,,response,,,,9,F,,,,,,Space,keypress(Space),,,,lyrical,,,,------ -- ------- ---- ---- ---- - -------- ----- --- --<br>----- ----- ------ -- ---- -- --- - ---- to - ----- -----<br>------ ---- ------ ---- - -------- ------- -- --- --------<br>-------- ----------- ---- ------ ---- ------ ---- --- ---<br>-------- --- -----,153441.6000000015,153441.30000000447,153244.886,153248.70000000298,153251.676,153446.304,,20,to
screen,html.Screen,2_3_1_0_1_21,2022-05-12T15:32:18.072Z,,,,,,,,,,,,,,,,,40,,,,,,,,,,,,,,176.69599999999627,,response,,,,9,F,,,,,,Space,keypress(Space),,,,lyrical,,,,------ -- ------- ---- ---- ---- - -------- ----- --- --<br>----- ----- ------ -- ---- -- --- - ---- -- a ----- -----<br>------ ---- ------ ---- - -------- ------- -- --- --------<br>-------- ----------- ---- ------ ---- ------ ---- --- ---<br>-------- --- -----,153623.30000000447,153623,153439.337,153441.6000000015,153446.304,153626.652,,21,a
screen,html.Screen,2_3_1_0_1_22,2022-05-12T15:32:18.261Z,,,,,,,,,,,,,,,,,40,,,,,,,,,,,,,,185.14800000446849,,response,,,,9,F,,,,,,Space,keypress(Space),,,,lyrical,,,,------ -- ------- ---- ---- ---- - -------- ----- --- --<br>----- ----- ------ -- ---- -- --- - ---- -- - water -----<br>------ ---- ------ ---- - -------- ------- -- --- --------<br>-------- ----------- ---- ------ ---- ------ ---- --- ---<br>-------- --- -----,153812,153811.80000000447,153619.886,153623.3999999985,153626.652,153814.154,,22,water
screen,html.Screen,2_3_1_0_1_23,2022-05-12T15:32:18.442Z,,,,,,,,,,,,,,,,,40,,,,,,,,,,,,,,178.84599999999045,,response,,,,9,F,,,,,,Space,keypress(Space),,,,lyrical,,,,"------ -- ------- ---- ---- ---- - -------- ----- --- --<br>----- ----- ------ -- ---- -- --- - ---- -- - ----- park,<br>------ ---- ------ ---- - -------- ------- -- --- --------<br>-------- ----------- ---- ------ ---- ------ ---- --- ---<br>-------- --- -----",153993.3999999985,153993,153807.174,153812,153814.154,153994.722,,23,"park,"
screen,html.Screen,2_3_1_0_1_24,2022-05-12T15:32:18.944Z,,,,,,,,,,,,,,,,,40,,,,,,,,,,,,,,500.17799999850104,,response,,,,9,F,,,,,,Space,keypress(Space),,,,lyrical,,,,------ -- ------- ---- ---- ---- - -------- ----- --- --<br>----- ----- ------ -- ---- -- --- - ---- -- - ----- -----<br>saying ---- ------ ---- - -------- ------- -- --- --------<br>-------- ----------- ---- ------ ---- ------ ---- --- ---<br>-------- --- -----,154495.3999999985,154494.8999999985,153987.925,153993.3999999985,153994.722,154501.628,,24,saying
screen,html.Screen,2_3_1_0_1_25,2022-05-12T15:32:19.125Z,,,,,,,,,,,,,,,,,40,,,,,,,,,,,,,,174.17200000447338,,response,,,,9,F,,,,,,Space,keypress(Space),,,,lyrical,,,,------ -- ------- ---- ---- ---- - -------- ----- --- --<br>----- ----- ------ -- ---- -- --- - ---- -- - ----- -----<br>------ they ------ ---- - -------- ------- -- --- --------<br>-------- ----------- ---- ------ ---- ------ ---- --- ---<br>-------- --- -----,154676.1000000015,154675.80000000447,154494.652,154495.5,154501.628,154682.172,,25,they
screen,html.Screen,2_3_1_0_1_26,2022-05-12T15:32:19.301Z,,,,,,,,,,,,,,,,,40,,,,,,,,,,,,,,169.62800000447896,,response,,,,9,F,,,,,,Space,keypress(Space),,,,lyrical,,,,------ -- ------- ---- ---- ---- - -------- ----- --- --<br>----- ----- ------ -- ---- -- --- - ---- -- - ----- -----<br>------ ---- didn't ---- - -------- ------- -- --- --------<br>-------- ----------- ---- ------ ---- ------ ---- --- ---<br>-------- --- -----,154851.8999999985,154851.80000000447,154675.206,154676.1000000015,154682.172,154855.993,,26,didn't
screen,html.Screen,2_3_1_0_1_27,2022-05-12T15:32:19.480Z,,,,,,,,,,,,,,,,,40,,,,,,,,,,,,,,174.3070000044827,,response,,,,9,F,,,,,,Space,keypress(Space),,,,lyrical,,,,------ -- ------- ---- ---- ---- - -------- ----- --- --<br>----- ----- ------ -- ---- -- --- - ---- -- - ----- -----<br>------ ---- ------ have - -------- ------- -- --- --------<br>-------- ----------- ---- ------ ---- ------ ---- --- ---<br>-------- --- -----,155030.6000000015,155030.30000000447,154849.01,154852,154855.993,155036.349,,27,have
screen,html.Screen,2_3_1_0_1_28,2022-05-12T15:32:19.651Z,,,,,,,,,,,,,,,,,40,,,,,,,,,,,,,,165.45100000448292,,response,,,,9,F,,,,,,Space,keypress(Space),,,,lyrical,,,,------ -- ------- ---- ---- ---- - -------- ----- --- --<br>----- ----- ------ -- ---- -- --- - ---- -- - ----- -----<br>------ ---- ------ ---- a -------- ------- -- --- --------<br>-------- ----------- ---- ------ ---- ------ ---- --- ---<br>-------- --- -----,155202,155201.80000000447,155029.367,155030.6000000015,155036.349,155212.337,,28,a
screen,html.Screen,2_3_1_0_1_29,2022-05-12T15:32:19.848Z,,,,,,,,,,,,,,,,,40,,,,,,,,,,,,,,185.9630000044708,,response,,,,9,F,,,,,,Space,keypress(Space),,,,lyrical,,,,------ -- ------- ---- ---- ---- - -------- ----- --- --<br>----- ----- ------ -- ---- -- --- - ---- -- - ----- -----<br>------ ---- ------ ---- - business ------- -- --- --------<br>-------- ----------- ---- ------ ---- ------ ---- --- ---<br>-------- --- -----,155398.6000000015,155398.30000000447,155196.028,155202.1000000015,155212.337,155404.392,,29,business
screen,html.Screen,2_3_1_0_1_30,2022-05-12T15:32:20.044Z,,,,,,,,,,,,,,,,,40,,,,,,,,,,,,,,190.4080000044778,,response,,,,9,F,,,,,,Space,keypress(Space),,,,lyrical,,,,------ -- ------- ---- ---- ---- - -------- ----- --- --<br>----- ----- ------ -- ---- -- --- - ---- -- - ----- -----<br>------ ---- ------ ---- - -------- license -- --- --------<br>-------- ----------- ---- ------ ---- ------ ---- --- ---<br>-------- --- -----,155595,155594.80000000447,155397.413,155398.70000000298,155404.392,155598.819,,30,license
screen,html.Screen,2_3_1_0_1_31,2022-05-12T15:32:20.221Z,,,,,,,,,,,,,,,,,40,,,,,,,,,,,,,,173.0809999985213,,response,,,,9,F,,,,,,Space,keypress(Space),,,,lyrical,,,,------ -- ------- ---- ---- ---- - -------- ----- --- --<br>----- ----- ------ -- ---- -- --- - ---- -- - ----- -----<br>------ ---- ------ ---- - -------- ------- or --- --------<br>-------- ----------- ---- ------ ---- ------ ---- --- ---<br>-------- --- -----,155772,155771.8999999985,155591.87,155595,155598.819,155792.438,,31,or
screen,html.Screen,2_3_1_0_1_32,2022-05-12T15:32:20.398Z,,,,,,,,,,,,,,,,,40,,,,,,,,,,,,,,155.8620000044757,,response,,,,9,F,,,,,,Space,keypress(Space),,,,lyrical,,,,------ -- ------- ---- ---- ---- - -------- ----- --- --<br>----- ----- ------ -- ---- -- --- - ---- -- - ----- -----<br>------ ---- ------ ---- - -------- ------- -- the --------<br>-------- ----------- ---- ------ ---- ------ ---- --- ---<br>-------- --- -----,155948.6000000015,155948.30000000447,155765.703,155772,155792.438,155952.999,,32,the
screen,html.Screen,2_3_1_0_1_33,2022-05-12T15:32:20.591Z,,,,,,,,,,,,,,,,,40,,,,,,,,,,,,,,188.30100000445964,,response,,,,9,F,,,,,,Space,keypress(Space),,,,lyrical,,,,------ -- ------- ---- ---- ---- - -------- ----- --- --<br>----- ----- ------ -- ---- -- --- - ---- -- - ----- -----<br>------ ---- ------ ---- - -------- ------- -- --- required<br>-------- ----------- ---- ------ ---- ------ ---- --- ---<br>-------- --- -----,156141.6000000015,156141.30000000447,155946.017,155948.70000000298,155952.999,156147.635,,33,required
screen,html.Screen,2_3_1_0_1_34,2022-05-12T15:32:20.790Z,,,,,,,,,,,,,,,,,40,,,,,,,,,,,,,,192.66500000446104,,response,,,,9,F,,,,,,Space,keypress(Space),,,,lyrical,,,,------ -- ------- ---- ---- ---- - -------- ----- --- --<br>----- ----- ------ -- ---- -- --- - ---- -- - ----- -----<br>------ ---- ------ ---- - -------- ------- -- --- --------<br>permits. ----------- ---- ------ ---- ------ ---- --- ---<br>-------- --- -----,156340.6000000015,156340.30000000447,156140.65,156141.6000000015,156147.635,156352.489,,34,permits.
screen,html.Screen,2_3_1_0_1_35,2022-05-12T15:32:20.989Z,,,,,,,,,,,,,,,,,40,,,,,,,,,,,,,,187.5109999999986,,response,,,,9,F,,,,,,Space,keypress(Space),,,,lyrical,,,,------ -- ------- ---- ---- ---- - -------- ----- --- --<br>----- ----- ------ -- ---- -- --- - ---- -- - ----- -----<br>------ ---- ------ ---- - -------- ------- -- --- --------<br>-------- Morningstar ---- ------ ---- ------ ---- --- ---<br>-------- --- -----,156540.30000000447,156540,156335.098,156340.6000000015,156352.489,156543.243,,35,Morningstar
screen,html.Screen,2_3_1_0_1_36,2022-05-12T15:32:21.192Z,,,,,,,,,,,,,,,,,40,,,,,,,,,,,,,,199.75700000001234,,response,,,,9,F,,,,,,Space,keypress(Space),,,,lyrical,,,,------ -- ------- ---- ---- ---- - -------- ----- --- --<br>----- ----- ------ -- ---- -- --- - ---- -- - ----- -----<br>------ ---- ------ ---- - -------- ------- -- --- --------<br>-------- ----------- says ------ ---- ------ ---- --- ---<br>-------- --- -----,156743.30000000447,156743,156536.274,156540.30000000447,156543.243,156762.648,,36,says
screen,html.Screen,2_3_1_0_1_37,2022-05-12T15:32:21.535Z,,,,,,,,,,,,,,,,,40,,,,,,,,,,,,,,323.3520000000135,,response,,,,9,F,,,,,,Space,keypress(Space),,,,lyrical,,,,------ -- ------- ---- ---- ---- - -------- ----- --- --<br>----- ----- ------ -- ---- -- --- - ---- -- - ----- -----<br>------ ---- ------ ---- - -------- ------- -- --- --------<br>-------- ----------- ---- police ---- ------ ---- --- ---<br>-------- --- -----,157086.30000000447,157086,156737.659,156743.3999999985,156762.648,157091.842,,37,police
screen,html.Screen,2_3_1_0_1_38,2022-05-12T15:32:21.755Z,,,,,,,,,,,,,,,,,40,,,,,,,,,,,,,,213.35800000297604,,response,,,,9,F,,,,,,Space,keypress(Space),,,,lyrical,,,,------ -- ------- ---- ---- ---- - -------- ----- --- --<br>----- ----- ------ -- ---- -- --- - ---- -- - ----- -----<br>------ ---- ------ ---- - -------- ------- -- --- --------<br>-------- ----------- ---- ------ also ------ ---- --- ---<br>-------- --- -----,157305.6000000015,157305.20000000298,157084.868,157086.3999999985,157091.842,157307.14,,38,also
screen,html.Screen,2_3_1_0_1_39,2022-05-12T15:32:21.961Z,,,,,,,,,,,,,,,,,40,,,,,,,,,,,,,,204.85999999998603,,response,,,,9,F,,,,,,Space,keypress(Space),,,,lyrical,,,,------ -- ------- ---- ---- ---- - -------- ----- --- --<br>----- ----- ------ -- ---- -- --- - ---- -- - ----- -----<br>------ ---- ------ ---- - -------- ------- -- --- --------<br>-------- ----------- ---- ------ ---- didn't ---- --- ---<br>-------- --- -----,157512.20000000298,157512,157300.154,157305.6000000015,157307.14,157515.459,,39,didn't
screen,html.Screen,2_3_1_0_1_40,2022-05-12T15:32:22.161Z,,,,,,,,,,,,,,,,,40,,,,,,,,,,,,,,196.44099999850732,,response,,,,9,F,,,,,,Space,keypress(Space),,,,lyrical,,,,------ -- ------- ---- ---- ---- - -------- ----- --- --<br>----- ----- ------ -- ---- -- --- - ---- -- - ----- -----<br>------ ---- ------ ---- - -------- ------- -- --- --------<br>-------- ----------- ---- ------ ---- ------ know --- ---<br>-------- --- -----,157712.20000000298,157711.8999999985,157508.672,157512.30000000447,157515.459,157717.037,,40,know
screen,html.Screen,2_3_1_0_1_41,2022-05-12T15:32:22.369Z,,,,,,,,,,,,,,,,,40,,,,,,,,,,,,,,202.26300000445917,,response,,,,9,F,,,,,,Space,keypress(Space),,,,lyrical,,,,------ -- ------- ---- ---- ---- - -------- ----- --- --<br>----- ----- ------ -- ---- -- --- - ---- -- - ----- -----<br>------ ---- ------ ---- - -------- ------- -- --- --------<br>-------- ----------- ---- ------ ---- ------ ---- how ---<br>-------- --- -----,157919.6000000015,157919.30000000447,157709.865,157712.30000000447,157717.037,157925.362,,41,how
screen,html.Screen,2_3_1_0_1_42,2022-05-12T15:32:22.578Z,,,,,,,,,,,,,,,,,40,,,,,,,,,,,,,,203.1380000000063,,response,,,,9,F,,,,,,Space,keypress(Space),,,,lyrical,,,,------ -- ------- ---- ---- ---- - -------- ----- --- --<br>----- ----- ------ -- ---- -- --- - ---- -- - ----- -----<br>------ ---- ------ ---- - -------- ------- -- --- --------<br>-------- ----------- ---- ------ ---- ------ ---- --- the<br>-------- --- -----,158128.80000000447,158128.5,157918.449,157919.70000000298,157925.362,158133.623,,42,the
screen,html.Screen,2_3_1_0_1_43,2022-05-12T15:32:22.792Z,,,,,,,,,,,,,,,,,40,,,,,,,,,,,,,,208.67700000447803,,response,,,,9,F,,,,,,Space,keypress(Space),,,,lyrical,,,,------ -- ------- ---- ---- ---- - -------- ----- --- --<br>----- ----- ------ -- ---- -- --- - ---- -- - ----- -----<br>------ ---- ------ ---- - -------- ------- -- --- --------<br>-------- ----------- ---- ------ ---- ------ ---- --- ---<br>lemonade --- -----,158342.6000000015,158342.30000000447,158126.721,158128.8999999985,158133.623,158348.765,,43,lemonade
screen,html.Screen,2_3_1_0_1_44,2022-05-12T15:32:23.071Z,,,,,,,,,,,,,,,,,40,,,,,,,,,,,,,,272.5350000044564,,response,,,,9,F,,,,,,Space,keypress(Space),,,,lyrical,,,,------ -- ------- ---- ---- ---- - -------- ----- --- --<br>----- ----- ------ -- ---- -- --- - ---- -- - ----- -----<br>------ ---- ------ ---- - -------- ------- -- --- --------<br>-------- ----------- ---- ------ ---- ------ ---- --- ---<br>-------- was -----,158621.6000000015,158621.30000000447,158341.796,158342.70000000298,158348.765,158626.563,,44,was
screen,html.Screen,2_3_1_0_1_45,2022-05-12T15:32:23.343Z,,,,,,,,,,,,,,,,,40,,,,,,,,,,,,,,267.2370000044757,,response,,,,9,F,,,,,,Space,keypress(Space),,,,lyrical,,,,------ -- ------- ---- ---- ---- - -------- ----- --- --<br>----- ----- ------ -- ---- -- --- - ---- -- - ----- -----<br>------ ---- ------ ---- - -------- ------- -- --- --------<br>-------- ----------- ---- ------ ---- ------ ---- --- ---<br>-------- --- made.,158894,158893.80000000447,158619.757,158621.6000000015,158626.563,158897.353,,45,made.
Item 9,flow.Loop,2_3_1_0_1,2022-05-12T15:32:23.343Z,,,,,,,,,,,,,,,,,,,,,,,,,,,,,,,11885.05100000446,,completion,,,,,,,,,,,,,,,,,,,,,158894.1000000015,158893.80000000447,147001.796,147002,147008.749,158897.353,,,
Question 1,html.Screen,2_3_1_0_2,2022-05-12T15:32:25.216Z,,,,,,,,,,,,,,,,,,,,,,,,,,,,true,FALSE,,1869.3470000029774,,response,,,,9,F,,,,,,FALSE,click #choice-2,,,,lyrical,,,,,160767,160766.70000000298,158890.598,158894.1000000015,158897.353,160772.304,,,
