sender,sender_type,sender_id,timestamp,meta,,Blues,Classical,Country,Dance,Electronic,Folk,Gospel,Hip-Hop,Jazz,Latin,Musical/Film,New-age,Pop,Prolific_id,Provo_ID,R&B,Rap,Reggae,Religious,Rock,Soul,Swing,Traditional,age,artist_name,correct,correctResponse,distraction,duration,education,ended_on,familiarity,gender,headphone_check_performance,item,list,music_frequency,offensiveness,pleasantness,position_correct,preference,response,response_action,snippet_file,song_name,song_rating,sound,stimulus_1,stimulus_2,stimulus_3,text,time_commit,time_end,time_render,time_run,time_show,time_switch,url,word,word_ID
Prolific ID,html.Form,0,2022-05-09T17:15:34.343Z,"{""labjs_version"":""20.2.2"",""labjs_build"":{""flavor"":""production"",""commit"":""a25486e0c714a0ae2ce03ff94b7bb6896854dcfa""},""location"":""https://run.pavlovia.org/mvasilev/prolific3_music_g/"",""userAgent"":""Mozilla/5.0 (Windows NT 10.0; Win64; x64) AppleWebKit/537.36 (KHTML, like Gecko) Chrome/101.0.4951.54 Safari/537.36"",""platform"":""Win32"",""language"":""en-GB"",""locale"":""en-GB"",""timeZone"":""Europe/London"",""timezoneOffset"":-60,""screen_width"":1366,""screen_height"":768,""scroll_width"":1366,""scroll_height"":577,""window_innerWidth"":1366,""window_innerHeight"":625,""devicePixelRatio"":1}",,,,,,,,,,,,,,,5f933255e25f2b0e6f794a54,,,,,,,,,,,,,,,5353.619999999908,,form submission,,,,,,,,,,,,,,,,,,,,,62911.59999999986,62910.89999999991,57457.284,57464.59999999986,57557.28,63023.211,{},,
Introduction,html.Screen,1_0,2022-05-09T17:15:37.207Z,,,,,,,,,,,,,,,,,,,,,,,,,,,,,,,2749.0889999998108,,response,,,,,,,,,,,continue,click button,,,,,,,,,65774.79999999981,65772.29999999981,62856.551,62912.19999999995,63023.211,65839.893,,,
Volume calibration,html.Screen,1_1,2022-05-09T17:16:00.696Z,,,,,,,,,,,,,,,,,,,,,,,,,,,,,,,23417.107000000004,,response,,,,,,,,,,,continue,click button,,,,,,,,,89264.09999999986,89257,65773.229,65775.09999999986,65839.893,89321.062,,,
Task instructions,html.Screen,1_2,2022-05-09T17:16:07.792Z,,,,,,,,,,,,,,,,,,,,,,,,,,,,,,,7037.137999999948,,response,,,,,,,,,,,continue,click button,,,,,,,,,96359.79999999981,96358.19999999995,89254.398,89264.29999999981,89321.062,96387.23,,,
Sounds,html.Screen,1_3_0_0,2022-05-09T17:16:12.079Z,,,,,,,,,,,,,,,,,,,,,,,,,,,,,,,4266.434000000008,,timeout,,,,,,,,,2,,,,,,,,I,S,O,,100647.3999999999,100620.332,96353.898,96360.19999999995,96387.23,100653.664,,,
Judgement,html.Screen,1_3_0_1,2022-05-09T17:16:13.104Z,,,,,,,,,,,,,,,,,,,,,,,,,,,,true,2,,1015.935999999856,,response,,,,,,,,,2,,2,click #choice-2,,,,,I,S,O,,101672.29999999981,101669.59999999986,100620.332,100648.29999999981,100653.664,101686.75,,,
Trial,flow.Sequence,1_3_0,2022-05-09T17:16:13.105Z,,,,,,,,,,,,,,,,,,,,,,,,,,,,,,,5282.369999999864,,completion,,,,,,,,,2,,,,,,,,I,S,O,,101672.69999999995,101669.59999999986,96353.898,96360.09999999986,96387.23,101686.75,,,
Sounds,html.Screen,1_3_1_0,2022-05-09T17:16:17.354Z,,,,,,,,,,,,,,,,,,,,,,,,,,,,,,,4249.860000000001,,timeout,,,,,,,,,3,,,,,,,,O,I,S,,105921.8999999999,105919.944,101670.084,101673,101686.75,105936.61,,,
Judgement,html.Screen,1_3_1_1,2022-05-09T17:16:17.900Z,,,,,,,,,,,,,,,,,,,,,,,,,,,,true,3,,529.6899999998132,,response,,,,,,,,,3,,3,click #choice-3,,,,,O,I,S,,106468.29999999981,106466.29999999981,105919.944,105922.09999999986,105936.61,106469.709,,,
Trial,flow.Sequence,1_3_1,2022-05-09T17:16:17.901Z,,,,,,,,,,,,,,,,,,,,,,,,,,,,,,,4779.549999999814,,completion,,,,,,,,,3,,,,,,,,O,I,S,,106468.69999999995,106466.29999999981,101670.084,101672.8999999999,101686.75,106469.709,,,
Sounds,html.Screen,1_3_2_0,2022-05-09T17:16:22.138Z,,,,,,,,,,,,,,,,,,,,,,,,,,,,,,,4249.763999999996,,timeout,,,,,,,,,3,,,,,,,,I,O,S,,110706.09999999986,110702.807,106453.043,106469,106469.709,110719.473,,,
Judgement,html.Screen,1_3_2_1,2022-05-09T17:16:22.674Z,,,,,,,,,,,,,,,,,,,,,,,,,,,,true,3,,520.7269999999553,,response,,,,,,,,,3,,3,click #choice-3,,,,,I,O,S,,111242.29999999981,111240.19999999995,110702.807,110706.59999999986,110719.473,111252.685,,,
Trial,flow.Sequence,1_3_2,2022-05-09T17:16:22.675Z,,,,,,,,,,,,,,,,,,,,,,,,,,,,,,,4770.490999999951,,completion,,,,,,,,,3,,,,,,,,I,O,S,,111242.69999999995,111240.19999999995,106453.043,106468.8999999999,106469.709,111252.685,,,
Sounds,html.Screen,1_3_3_0,2022-05-09T17:16:26.920Z,,,,,,,,,,,,,,,,,,,,,,,,,,,,,,,4249.75,,timeout,,,,,,,,,1,,,,,,,,S,I,O,,115488.3999999999,115485.769,111236.019,111243,111252.685,115502.435,,,
Judgement,html.Screen,1_3_3_1,2022-05-09T17:16:27.499Z,,,,,,,,,,,,,,,,,,,,,,,,,,,,true,1,,563.0650000000023,,response,,,,,,,,,1,,1,click #choice-1,,,,,S,I,O,,116067.3999999999,116065.5,115485.769,115488.59999999986,115502.435,116069.015,,,
Trial,flow.Sequence,1_3_3,2022-05-09T17:16:27.500Z,,,,,,,,,,,,,,,,,,,,,,,,,,,,,,,4812.815000000002,,completion,,,,,,,,,1,,,,,,,,S,I,O,,116067.69999999995,116065.5,111236.019,111242.8999999999,111252.685,116069.015,,,
Sounds,html.Screen,1_3_4_0,2022-05-09T17:16:31.736Z,,,,,,,,,,,,,,,,,,,,,,,,,,,,,,,4249.695999999996,,timeout,,,,,,,,,2,,,,,,,,O,S,I,,120304.19999999995,120302.045,116052.349,116067.8999999999,116069.015,120318.711,,,
Judgement,html.Screen,1_3_4_1,2022-05-09T17:16:32.287Z,,,,,,,,,,,,,,,,,,,,,,,,,,,,true,2,,534.6889999999112,,response,,,,,,,,,2,,2,click #choice-2,,,,,O,S,I,,120855.3999999999,120853.3999999999,120302.045,120304.5,120318.711,120868.603,,,
Trial,flow.Sequence,1_3_4,2022-05-09T17:16:32.287Z,,,,,,,,,,,,,,,,,,,,,,,,,,,,,,,4784.384999999907,,completion,,,,,,,,,2,,,,,,,,O,S,I,,120855.59999999986,120853.3999999999,116052.349,116067.79999999981,116069.015,120868.603,,,
Sounds,html.Screen,1_3_5_0,2022-05-09T17:16:36.537Z,,,,,,,,,,,,,,,,,,,,,,,,,,,,,,,4249.743000000002,,timeout,,,,,,,,,1,,,,,,,,S,O,I,,125104.29999999981,125101.68,120851.937,120855.8999999999,120868.603,125118.346,,,
Judgement,html.Screen,1_3_5_1,2022-05-09T17:16:37.063Z,,,,,,,,,,,,,,,,,,,,,,,,,,,,true,1,,510.2539999998553,,response,,,,,,,,,1,,1,click #choice-1,,,,,S,O,I,,125631,125628.59999999986,125101.68,125104.59999999986,125118.346,125634.885,,,
Trial,flow.Sequence,1_3_5,2022-05-09T17:16:37.064Z,,,,,,,,,,,,,,,,,,,,,,,,,,,,,,,4759.9969999998575,,completion,,,,,,,,,1,,,,,,,,S,O,I,,125631.3999999999,125628.59999999986,120851.937,120855.79999999981,120868.603,125634.885,,,
Task,flow.Loop,1_3,2022-05-09T17:16:37.073Z,,,,,,,,,,,,,,,,,,,,,,,,,,,,,,,29241.369999999864,,completion,,,1,,,,,,,,,,,,,,,,,,125640.29999999981,125628.59999999986,96353.898,96360,96387.23,125634.885,,,
Trap,html.Screen,1_4,2022-05-09T17:16:37.075Z,,,,,,,,,,,,,,,,,,,,,,,,,,,,,,,NaN,,skipped,,,,,,,,,,,,,,,,,,,,,125642.29999999981,125628.59999999986,,125642.09999999986,,125634.885,,,
Thanks,html.Screen,1_5,2022-05-09T17:16:39.369Z,,,,,,,,,,,,,,,,,,,,,,,,,,,,,,,2299.2149999998655,,response,,,,,,,,,,,continue,click button,,,,,,,,,127936.5,127934.09999999986,125618.219,125642.3999999999,125634.885,131334.375,,,
Headphone screening,flow.Sequence,1,2022-05-09T17:16:39.369Z,,,,,,,,,,,,,,,,,,,,,,,,,,,,,,,64910.88899999986,,completion,,,,,,,,,,,,,,,,,,,,,127936.8999999999,127934.09999999986,62856.551,62912.09999999986,63023.211,131334.375,,,
Instructions,html.Page,2_0,2022-05-09T17:16:53.274Z,,,,,,,,,,,,,,,,,,,,,,,,,,,,,,,10506.924999999814,,form submission,,,,,,,,,,,,,,,,,,,,,141841.7999999998,141841.2999999998,130651.185,131274.5,131334.375,141850.115,,,
Holding screen,html.Screen,2_1_0_0,2022-05-09T17:17:03.267Z,,,,,,,,,,,,,,,,,,,,,,,,,,,,,,,10149.381000000023,,timeout,,,,,,,,,,,,,,,,,,,,,151834.7999999998,151832.836,141833.449,141842.19999999995,141850.115,151999.496,,,
screen,html.Screen,2_1_0_1_0,2022-05-09T17:17:04.360Z,,,,,,,,,,,,,,,,,53,,,,,,,,,,,,,,920.6039999998466,,response,,,,99,,,,,,,Space,keypress(Space),,,,,,,,When -- ----- -- ------ - ------- --- ----------<br>------------- ------ ------ ---- ---- ------- ----- -- ----<br>-------- ------- -- ---------- --- - --- ----- ----- ----<br>---- --- --- ----- --- ---- ---- ------- ----- ---- -------<br>--- --- -- ----- -- --- ---- -- --- ---- -- ------ ------<br>--- ----- -- ----,152928,152920.09999999986,151832.836,151835.59999999986,151999.496,152932.678,,0,When
screen,html.Screen,2_1_0_1_1,2022-05-09T17:17:04.808Z,,,,,,,,,,,,,,,,,53,,,,,,,,,,,,,,440.72199999989243,,response,,,,99,,,,,,,Space,keypress(Space),,,,,,,,---- it ----- -- ------ - ------- --- ----------<br>------------- ------ ------ ---- ---- ------- ----- -- ----<br>-------- ------- -- ---------- --- - --- ----- ----- ----<br>---- --- --- ----- --- ---- ---- ------- ----- ---- -------<br>--- --- -- ----- -- --- ---- -- --- ---- -- ------ ------<br>--- ----- -- ----,153375.8999999999,153373.3999999999,152916.012,152928.69999999995,152932.678,153382.598,,1,it
screen,html.Screen,2_1_0_1_2,2022-05-09T17:17:05.277Z,,,,,,,,,,,,,,,,,53,,,,,,,,,,,,,,459.90200000000186,,response,,,,99,,,,,,,Space,keypress(Space),,,,,,,,---- -- comes -- ------ - ------- --- ----------<br>------------- ------ ------ ---- ---- ------- ----- -- ----<br>-------- ------- -- ---------- --- - --- ----- ----- ----<br>---- --- --- ----- --- ---- ---- ------- ----- ---- -------<br>--- --- -- ----- -- --- ---- -- --- ---- -- ------ ------<br>--- ----- -- ----,153844.8999999999,153842.5,153365.932,153376.3999999999,153382.598,153849.389,,2,comes
screen,html.Screen,2_1_0_1_3,2022-05-09T17:17:05.684Z,,,,,,,,,,,,,,,,,53,,,,,,,,,,,,,,399.41099999981816,,response,,,,99,,,,,,,Space,keypress(Space),,,,,,,,---- -- ----- to ------ - ------- --- ----------<br>------------- ------ ------ ---- ---- ------- ----- -- ----<br>-------- ------- -- ---------- --- - --- ----- ----- ----<br>---- --- --- ----- --- ---- ---- ------- ----- ---- -------<br>--- --- -- ----- -- --- ---- -- --- ---- -- ------ ------<br>--- ----- -- ----,154251.19999999995,154248.7999999998,153832.723,153845.2999999998,153849.389,154265.894,,3,to
screen,html.Screen,2_1_0_1_4,2022-05-09T17:17:06.137Z,,,,,,,,,,,,,,,,,53,,,,,,,,,,,,,,436.3059999999532,,response,,,,99,,,,,,,Space,keypress(Space),,,,,,,,---- -- ----- -- having - ------- --- ----------<br>------------- ------ ------ ---- ---- ------- ----- -- ----<br>-------- ------- -- ---------- --- - --- ----- ----- ----<br>---- --- --- ----- --- ---- ---- ------- ----- ---- -------<br>--- --- -- ----- -- --- ---- -- --- ---- -- ------ ------<br>--- ----- -- ----,154704.19999999995,154702.19999999995,154249.228,154251.59999999986,154265.894,154715.817,,4,having
screen,html.Screen,2_1_0_1_5,2022-05-09T17:17:06.411Z,,,,,,,,,,,,,,,,,53,,,,,,,,,,,,,,260.68299999999,,response,,,,99,,,,,,,Space,keypress(Space),,,,,,,,---- -- ----- -- ------ a ------- --- ----------<br>------------- ------ ------ ---- ---- ------- ----- -- ----<br>-------- ------- -- ---------- --- - --- ----- ----- ----<br>---- --- --- ----- --- ---- ---- ------- ----- ---- -------<br>--- --- -- ----- -- --- ---- -- --- ---- -- ------ ------<br>--- ----- -- ----,154978.3999999999,154976.5,154699.151,154704.59999999986,154715.817,154982.547,,5,a
screen,html.Screen,2_1_0_1_6,2022-05-09T17:17:06.811Z,,,,,,,,,,,,,,,,,53,,,,,,,,,,,,,,393.8529999999155,,response,,,,99,,,,,,,Space,keypress(Space),,,,,,,,---- -- ----- -- ------ - lasting --- ----------<br>------------- ------ ------ ---- ---- ------- ----- -- ----<br>-------- ------- -- ---------- --- - --- ----- ----- ----<br>---- --- --- ----- --- ---- ---- ------- ----- ---- -------<br>--- --- -- ----- -- --- ---- -- --- ---- -- ------ ------<br>--- ----- -- ----,155378.59999999986,155376.3999999999,154965.881,154978.69999999995,154982.547,155382.557,,6,lasting
screen,html.Screen,2_1_0_1_7,2022-05-09T17:17:07.330Z,,,,,,,,,,,,,,,,,53,,,,,,,,,,,,,,512.5429999998596,,response,,,,99,,,,,,,Space,keypress(Space),,,,,,,,---- -- ----- -- ------ - ------- and ----------<br>------------- ------ ------ ---- ---- ------- ----- -- ----<br>-------- ------- -- ---------- --- - --- ----- ----- ----<br>---- --- --- ----- --- ---- ---- ------- ----- ---- -------<br>--- --- -- ----- -- --- ---- -- --- ---- -- ------ ------<br>--- ----- -- ----,155897.2999999998,155895.09999999986,155365.891,155379.09999999986,155382.557,155899.042,,7,and
screen,html.Screen,2_1_0_1_8,2022-05-09T17:17:07.843Z,,,,,,,,,,,,,,,,,53,,,,,,,,,,,,,,502.5579999998736,,response,,,,99,,,,,,,Space,keypress(Space),,,,,,,,---- -- ----- -- ------ - ------- --- fulfilling<br>------------- ------ ------ ---- ---- ------- ----- -- ----<br>-------- ------- -- ---------- --- - --- ----- ----- ----<br>---- --- --- ----- --- ---- ---- ------- ----- ---- -------<br>--- --- -- ----- -- --- ---- -- --- ---- -- ------ ------<br>--- ----- -- ----,156411.09999999986,156401.59999999986,155882.376,155897.69999999995,155899.042,156415.854,,8,fulfilling
screen,html.Screen,2_1_0_1_9,2022-05-09T17:17:08.505Z,,,,,,,,,,,,,,,,,53,,,,,,,,,,,,,,654.4459999998217,,response,,,,99,,,,,,,Space,keypress(Space),,,,,,,,"---- -- ----- -- ------ - ------- --- ----------<br>relationship, ------ ------ ---- ---- ------- ----- -- ----<br>-------- ------- -- ---------- --- - --- ----- ----- ----<br>---- --- --- ----- --- ---- ---- ------- ----- ---- -------<br>--- --- -- ----- -- --- ---- -- --- ---- -- ------ ------<br>--- ----- -- ----",157072.69999999995,157070.2999999998,156399.188,156411.7999999998,156415.854,157082.373,,9,"relationship,"
screen,html.Screen,2_1_0_1_10,2022-05-09T17:17:09.011Z,,,,,,,,,,,,,,,,,53,,,,,,,,,,,,,,492.726999999868,,response,,,,99,,,,,,,Space,keypress(Space),,,,,,,,---- -- ----- -- ------ - ------- --- ----------<br>------------- common ------ ---- ---- ------- ----- -- ----<br>-------- ------- -- ---------- --- - --- ----- ----- ----<br>---- --- --- ----- --- ---- ---- ------- ----- ---- -------<br>--- --- -- ----- -- --- ---- -- --- ---- -- ------ ------<br>--- ----- -- ----,157578.59999999986,157575.09999999986,157065.707,157073.19999999995,157082.373,157582.438,,10,common
screen,html.Screen,2_1_0_1_11,2022-05-09T17:17:09.375Z,,,,,,,,,,,,,,,,,53,,,,,,,,,,,,,,356.3619999998191,,response,,,,99,,,,,,,Space,keypress(Space),,,,,,,,---- -- ----- -- ------ - ------- --- ----------<br>------------- ------ wisdom ---- ---- ------- ----- -- ----<br>-------- ------- -- ---------- --- - --- ----- ----- ----<br>---- --- --- ----- --- ---- ---- ------- ----- ---- -------<br>--- --- -- ----- -- --- ---- -- --- ---- -- ------ ------<br>--- ----- -- ----,157942.2999999998,157938.7999999998,157565.772,157579,157582.438,157949.115,,11,wisdom
screen,html.Screen,2_1_0_1_12,2022-05-09T17:17:09.806Z,,,,,,,,,,,,,,,,,53,,,,,,,,,,,,,,421.8850000000093,,response,,,,99,,,,,,,Space,keypress(Space),,,,,,,,---- -- ----- -- ------ - ------- --- ----------<br>------------- ------ ------ says ---- ------- ----- -- ----<br>-------- ------- -- ---------- --- - --- ----- ----- ----<br>---- --- --- ----- --- ---- ---- ------- ----- ---- -------<br>--- --- -- ----- -- --- ---- -- --- ---- -- ------ ------<br>--- ----- -- ----,158373.3999999999,158371,157932.449,157942.7999999998,157949.115,158382.22,,12,says
screen,html.Screen,2_1_0_1_13,2022-05-09T17:17:10.203Z,,,,,,,,,,,,,,,,,53,,,,,,,,,,,,,,385.6799999999057,,response,,,,99,,,,,,,Space,keypress(Space),,,,,,,,---- -- ----- -- ------ - ------- --- ----------<br>------------- ------ ------ ---- that ------- ----- -- ----<br>-------- ------- -- ---------- --- - --- ----- ----- ----<br>---- --- --- ----- --- ---- ---- ------- ----- ---- -------<br>--- --- -- ----- -- --- ---- -- --- ---- -- ------ ------<br>--- ----- -- ----,158770.3999999999,158767.8999999999,158365.554,158373.7999999998,158382.22,158782.179,,13,that
screen,html.Screen,2_1_0_1_14,2022-05-09T17:17:10.816Z,,,,,,,,,,,,,,,,,53,,,,,,,,,,,,,,598.12099999981,,response,,,,99,,,,,,,Space,keypress(Space),,,,,,,,---- -- ----- -- ------ - ------- --- ----------<br>------------- ------ ------ ---- ---- feeling ----- -- ----<br>-------- ------- -- ---------- --- - --- ----- ----- ----<br>---- --- --- ----- --- ---- ---- ------- ----- ---- -------<br>--- --- -- ----- -- --- ---- -- --- ---- -- ------ ------<br>--- ----- -- ----,159384.09999999986,159380.2999999998,158765.513,158770.7999999998,158782.179,159398.728,,14,feeling
screen,html.Screen,2_1_0_1_15,2022-05-09T17:17:11.139Z,,,,,,,,,,,,,,,,,53,,,,,,,,,,,,,,305.1719999999041,,response,,,,99,,,,,,,Space,keypress(Space),,,,,,,,---- -- ----- -- ------ - ------- --- ----------<br>------------- ------ ------ ---- ---- ------- close -- ----<br>-------- ------- -- ---------- --- - --- ----- ----- ----<br>---- --- --- ----- --- ---- ---- ------- ----- ---- -------<br>--- --- -- ----- -- --- ---- -- --- ---- -- ------ ------<br>--- ----- -- ----,159706.3999999999,159703.8999999999,159382.062,159384.5,159398.728,159715.559,,15,close
screen,html.Screen,2_1_0_1_16,2022-05-09T17:17:11.509Z,,,,,,,,,,,,,,,,,53,,,,,,,,,,,,,,358.24099999980535,,response,,,,99,,,,,,,Space,keypress(Space),,,,,,,,---- -- ----- -- ------ - ------- --- ----------<br>------------- ------ ------ ---- ---- ------- ----- to ----<br>-------- ------- -- ---------- --- - --- ----- ----- ----<br>---- --- --- ----- --- ---- ---- ------- ----- ---- -------<br>--- --- -- ----- -- --- ---- -- --- ---- -- ------ ------<br>--- ----- -- ----,160076.3999999999,160073.7999999998,159698.893,159706.69999999995,159715.559,160082.065,,16,to
screen,html.Screen,2_1_0_1_17,2022-05-09T17:17:11.823Z,,,,,,,,,,,,,,,,,53,,,,,,,,,,,,,,305.7349999998114,,response,,,,99,,,,,,,Space,keypress(Space),,,,,,,,---- -- ----- -- ------ - ------- --- ----------<br>------------- ------ ------ ---- ---- ------- ----- -- your<br>-------- ------- -- ---------- --- - --- ----- ----- ----<br>---- --- --- ----- --- ---- ---- ------- ----- ---- -------<br>--- --- -- ----- -- --- ---- -- --- ---- -- ------ ------<br>--- ----- -- ----,160390.5,160387.7999999998,160065.399,160076.8999999999,160082.065,160398.83,,17,your
screen,html.Screen,2_1_0_1_18,2022-05-09T17:17:12.305Z,,,,,,,,,,,,,,,,,53,,,,,,,,,,,,,,472.5699999999197,,response,,,,99,,,,,,,Space,keypress(Space),,,,,,,,---- -- ----- -- ------ - ------- --- ----------<br>------------- ------ ------ ---- ---- ------- ----- -- ----<br>romantic ------- -- ---------- --- - --- ----- ----- ----<br>---- --- --- ----- --- ---- ---- ------- ----- ---- -------<br>--- --- -- ----- -- --- ---- -- --- ---- -- ------ ------<br>--- ----- -- ----,160872.8999999999,160871.3999999999,160382.164,160391,160398.83,160882.102,,18,romantic
screen,html.Screen,2_1_0_1_19,2022-05-09T17:17:12.665Z,,,,,,,,,,,,,,,,,53,,,,,,,,,,,,,,348.3979999999865,,response,,,,99,,,,,,,Space,keypress(Space),,,,,,,,---- -- ----- -- ------ - ------- --- ----------<br>------------- ------ ------ ---- ---- ------- ----- -- ----<br>-------- partner -- ---------- --- - --- ----- ----- ----<br>---- --- --- ----- --- ---- ---- ------- ----- ---- -------<br>--- --- -- ----- -- --- ---- -- --- ---- -- ------ ------<br>--- ----- -- ----,161232.2999999998,161230.5,160865.436,160873.2999999998,160882.102,161248.641,,19,partner
screen,html.Screen,2_1_0_1_20,2022-05-09T17:17:13.076Z,,,,,,,,,,,,,,,,,53,,,,,,,,,,,,,,391.7589999999036,,response,,,,99,,,,,,,Space,keypress(Space),,,,,,,,---- -- ----- -- ------ - ------- --- ----------<br>------------- ------ ------ ---- ---- ------- ----- -- ----<br>-------- ------- is ---------- --- - --- ----- ----- ----<br>---- --- --- ----- --- ---- ---- ------- ----- ---- -------<br>--- --- -- ----- -- --- ---- -- --- ---- -- ------ ------<br>--- ----- -- ----,161643.8999999999,161640.3999999999,161231.975,161232.59999999986,161248.641,161648.789,,20,is
screen,html.Screen,2_1_0_1_21,2022-05-09T17:17:13.436Z,,,,,,,,,,,,,,,,,53,,,,,,,,,,,,,,350.9109999999637,,response,,,,99,,,,,,,Space,keypress(Space),,,,,,,,---- -- ----- -- ------ - ------- --- ----------<br>------------- ------ ------ ---- ---- ------- ----- -- ----<br>-------- ------- -- paramount. --- - --- ----- ----- ----<br>---- --- --- ----- --- ---- ---- ------- ----- ---- -------<br>--- --- -- ----- -- --- ---- -- --- ---- -- ------ ------<br>--- ----- -- ----,162003.5,161999.69999999995,161632.123,161644.2999999998,161648.789,162015.179,,21,paramount.
screen,html.Screen,2_1_0_1_22,2022-05-09T17:17:13.950Z,,,,,,,,,,,,,,,,,53,,,,,,,,,,,,,,500.8209999999963,,response,,,,99,,,,,,,Space,keypress(Space),,,,,,,,---- -- ----- -- ------ - ------- --- ----------<br>------------- ------ ------ ---- ---- ------- ----- -- ----<br>-------- ------- -- ---------- But - --- ----- ----- ----<br>---- --- --- ----- --- ---- ---- ------- ----- ---- -------<br>--- --- -- ----- -- --- ---- -- --- ---- -- ------ ------<br>--- ----- -- ----,162517.3999999999,162516,161998.513,162004,162015.179,162531.831,,22,But
screen,html.Screen,2_1_0_1_23,2022-05-09T17:17:14.303Z,,,,,,,,,,,,,,,,,53,,,,,,,,,,,,,,336.5689999999013,,response,,,,99,,,,,,,Space,keypress(Space),,,,,,,,---- -- ----- -- ------ - ------- --- ----------<br>------------- ------ ------ ---- ---- ------- ----- -- ----<br>-------- ------- -- ---------- --- a --- ----- ----- ----<br>---- --- --- ----- --- ---- ---- ------- ----- ---- -------<br>--- --- -- ----- -- --- ---- -- --- ---- -- ------ ------<br>--- ----- -- ----,162870.59999999986,162868.3999999999,162515.165,162517.59999999986,162531.831,162881.863,,23,a
screen,html.Screen,2_1_0_1_24,2022-05-09T17:17:14.697Z,,,,,,,,,,,,,,,,,53,,,,,,,,,,,,,,377.2369999998482,,response,,,,99,,,,,,,Space,keypress(Space),,,,,,,,---- -- ----- -- ------ - ------- --- ----------<br>------------- ------ ------ ---- ---- ------- ----- -- ----<br>-------- ------- -- ---------- --- - new ----- ----- ----<br>---- --- --- ----- --- ---- ---- ------- ----- ---- -------<br>--- --- -- ----- -- --- ---- -- --- ---- -- ------ ------<br>--- ----- -- ----,163264.19999999995,163259.09999999986,162865.197,162871.09999999986,162881.863,163281.805,,24,new
screen,html.Screen,2_1_0_1_25,2022-05-09T17:17:15.116Z,,,,,,,,,,,,,,,,,53,,,,,,,,,,,,,,397.8949999999604,,response,,,,99,,,,,,,Space,keypress(Space),,,,,,,,---- -- ----- -- ------ - ------- --- ----------<br>------------- ------ ------ ---- ---- ------- ----- -- ----<br>-------- ------- -- ---------- --- - --- study ----- ----<br>---- --- --- ----- --- ---- ---- ------- ----- ---- -------<br>--- --- -- ----- -- --- ---- -- --- ---- -- ------ ------<br>--- ----- -- ----,163683.19999999995,163679.69999999995,163265.139,163264.69999999995,163281.805,163698.599,,25,study
screen,html.Screen,2_1_0_1_26,2022-05-09T17:17:15.497Z,,,,,,,,,,,,,,,,,53,,,,,,,,,,,,,,362.5009999998729,,response,,,,99,,,,,,,Space,keypress(Space),,,,,,,,---- -- ----- -- ------ - ------- --- ----------<br>------------- ------ ------ ---- ---- ------- ----- -- ----<br>-------- ------- -- ---------- --- - --- ----- finds ----<br>---- --- --- ----- --- ---- ---- ------- ----- ---- -------<br>--- --- -- ----- -- --- ---- -- --- ---- -- ------ ------<br>--- ----- -- ----,164064.7999999998,164061.09999999986,163681.933,163683.8999999999,163698.599,164081.683,,26,finds
screen,html.Screen,2_1_0_1_27,2022-05-09T17:17:15.924Z,,,,,,,,,,,,,,,,,53,,,,,,,,,,,,,,408.31700000001,,response,,,,99,,,,,,,Space,keypress(Space),,,,,,,,---- -- ----- -- ------ - ------- --- ----------<br>------------- ------ ------ ---- ---- ------- ----- -- ----<br>-------- ------- -- ---------- --- - --- ----- ----- that<br>---- --- --- ----- --- ---- ---- ------- ----- ---- -------<br>--- --- -- ----- -- --- ---- -- --- ---- -- ------ ------<br>--- ----- -- ----,164491.69999999995,164490,164065.017,164065.19999999995,164081.683,164498.414,,27,that
screen,html.Screen,2_1_0_1_28,2022-05-09T17:17:16.338Z,,,,,,,,,,,,,,,,,53,,,,,,,,,,,,,,404.2859999999637,,response,,,,99,,,,,,,Space,keypress(Space),,,,,,,,---- -- ----- -- ------ - ------- --- ----------<br>------------- ------ ------ ---- ---- ------- ----- -- ----<br>-------- ------- -- ---------- --- - --- ----- ----- ----<br>it's --- --- ----- --- ---- ---- ------- ----- ---- -------<br>--- --- -- ----- -- --- ---- -- --- ---- -- ------ ------<br>--- ----- -- ----,164906,164902.69999999995,164481.748,164492,164498.414,164915.118,,28,it's
screen,html.Screen,2_1_0_1_29,2022-05-09T17:17:16.670Z,,,,,,,,,,,,,,,,,53,,,,,,,,,,,,,,319.48199999987264,,response,,,,99,,,,,,,Space,keypress(Space),,,,,,,,---- -- ----- -- ------ - ------- --- ----------<br>------------- ------ ------ ---- ---- ------- ----- -- ----<br>-------- ------- -- ---------- --- - --- ----- ----- ----<br>---- not --- ----- --- ---- ---- ------- ----- ---- -------<br>--- --- -- ----- -- --- ---- -- --- ---- -- ------ ------<br>--- ----- -- ----,165238.09999999986,165234.59999999986,164898.452,164906.3999999999,164915.118,165248.305,,29,not
screen,html.Screen,2_1_0_1_30,2022-05-09T17:17:16.959Z,,,,,,,,,,,,,,,,,53,,,,,,,,,,,,,,275.695000000007,,response,,,,99,,,,,,,Space,keypress(Space),,,,,,,,---- -- ----- -- ------ - ------- --- ----------<br>------------- ------ ------ ---- ---- ------- ----- -- ----<br>-------- ------- -- ---------- --- - --- ----- ----- ----<br>---- --- how ----- --- ---- ---- ------- ----- ---- -------<br>--- --- -- ----- -- --- ---- -- --- ---- -- ------ ------<br>--- ----- -- ----,165526.3999999999,165524,165231.639,165238.5,165248.305,165531.751,,30,how
screen,html.Screen,2_1_0_1_31,2022-05-09T17:17:17.290Z,,,,,,,,,,,,,,,,,53,,,,,,,,,,,,,,321.848999999871,,response,,,,99,,,,,,,Space,keypress(Space),,,,,,,,---- -- ----- -- ------ - ------- --- ----------<br>------------- ------ ------ ---- ---- ------- ----- -- ----<br>-------- ------- -- ---------- --- - --- ----- ----- ----<br>---- --- --- close --- ---- ---- ------- ----- ---- -------<br>--- --- -- ----- -- --- ---- -- --- ---- -- ------ ------<br>--- ----- -- ----,165857.3999999999,165853.59999999986,165515.085,165526.8999999999,165531.751,165864.929,,31,close
screen,html.Screen,2_1_0_1_32,2022-05-09T17:17:17.583Z,,,,,,,,,,,,,,,,,53,,,,,,,,,,,,,,283.1709999998566,,response,,,,99,,,,,,,Space,keypress(Space),,,,,,,,---- -- ----- -- ------ - ------- --- ----------<br>------------- ------ ------ ---- ---- ------- ----- -- ----<br>-------- ------- -- ---------- --- - --- ----- ----- ----<br>---- --- --- ----- you ---- ---- ------- ----- ---- -------<br>--- --- -- ----- -- --- ---- -- --- ---- -- ------ ------<br>--- ----- -- ----,166150.5,166148.09999999986,165848.263,165857.7999999998,165864.929,166164.988,,32,you
screen,html.Screen,2_1_0_1_33,2022-05-09T17:17:17.956Z,,,,,,,,,,,,,,,,,53,,,,,,,,,,,,,,357.91199999989476,,response,,,,99,,,,,,,Space,keypress(Space),,,,,,,,---- -- ----- -- ------ - ------- --- ----------<br>------------- ------ ------ ---- ---- ------- ----- -- ----<br>-------- ------- -- ---------- --- - --- ----- ----- ----<br>---- --- --- ----- --- feel ---- ------- ----- ---- -------<br>--- --- -- ----- -- --- ---- -- --- ---- -- ------ ------<br>--- ----- -- ----,166524,166522.8999999999,166148.322,166151,166164.988,166531.694,,33,feel
screen,html.Screen,2_1_0_1_34,2022-05-09T17:17:18.555Z,,,,,,,,,,,,,,,,,53,,,,,,,,,,,,,,587.1059999998251,,response,,,,99,,,,,,,Space,keypress(Space),,,,,,,,---- -- ----- -- ------ - ------- --- ----------<br>------------- ------ ------ ---- ---- ------- ----- -- ----<br>-------- ------- -- ---------- --- - --- ----- ----- ----<br>---- --- --- ----- --- ---- that ------- ----- ---- -------<br>--- --- -- ----- -- --- ---- -- --- ---- -- ------ ------<br>--- ----- -- ----,167122.3999999999,167118.7999999998,166515.028,166525.09999999986,166531.694,167131.672,,34,that
screen,html.Screen,2_1_0_1_35,2022-05-09T17:17:18.959Z,,,,,,,,,,,,,,,,,53,,,,,,,,,,,,,,393.3280000000086,,response,,,,99,,,,,,,Space,keypress(Space),,,,,,,,---- -- ----- -- ------ - ------- --- ----------<br>------------- ------ ------ ---- ---- ------- ----- -- ----<br>-------- ------- -- ---------- --- - --- ----- ----- ----<br>---- --- --- ----- --- ---- ---- matters ----- ---- -------<br>--- --- -- ----- -- --- ---- -- --- ---- -- ------ ------<br>--- ----- -- ----,167527.09999999986,167525,167115.006,167122.7999999998,167131.672,167531.589,,35,matters
screen,html.Screen,2_1_0_1_36,2022-05-09T17:17:19.389Z,,,,,,,,,,,,,,,,,53,,,,,,,,,,,,,,423.81099999989965,,response,,,,99,,,,,,,Space,keypress(Space),,,,,,,,"---- -- ----- -- ------ - ------- --- ----------<br>------------- ------ ------ ---- ---- ------- ----- -- ----<br>-------- ------- -- ---------- --- - --- ----- ----- ----<br>---- --- --- ----- --- ---- ---- ------- most, ---- -------<br>--- --- -- ----- -- --- ---- -- --- ---- -- ------ ------<br>--- ----- -- ----",167956.5,167955.3999999999,167514.923,167527.5,167531.589,167964.716,,36,"most,"
screen,html.Screen,2_1_0_1_37,2022-05-09T17:17:19.742Z,,,,,,,,,,,,,,,,,53,,,,,,,,,,,,,,341.8839999998745,,response,,,,99,,,,,,,Space,keypress(Space),,,,,,,,---- -- ----- -- ------ - ------- --- ----------<br>------------- ------ ------ ---- ---- ------- ----- -- ----<br>-------- ------- -- ---------- --- - --- ----- ----- ----<br>---- --- --- ----- --- ---- ---- ------- ----- it's -------<br>--- --- -- ----- -- --- ---- -- --- ---- -- ------ ------<br>--- ----- -- ----,168309.19999999995,168306.59999999986,167948.05,167956.69999999995,167964.716,168314.879,,37,it's
screen,html.Screen,2_1_0_1_38,2022-05-09T17:17:20.166Z,,,,,,,,,,,,,,,,,53,,,,,,,,,,,,,,417.32099999996717,,response,,,,99,,,,,,,Space,keypress(Space),,,,,,,,---- -- ----- -- ------ - ------- --- ----------<br>------------- ------ ------ ---- ---- ------- ----- -- ----<br>-------- ------- -- ---------- --- - --- ----- ----- ----<br>---- --- --- ----- --- ---- ---- ------- ----- ---- whether<br>--- --- -- ----- -- --- ---- -- --- ---- -- ------ ------<br>--- ----- -- ----,168733.8999999999,168732.19999999995,168298.213,168309.69999999995,168314.879,168747.966,,38,whether
screen,html.Screen,2_1_0_1_39,2022-05-09T17:17:20.542Z,,,,,,,,,,,,,,,,,53,,,,,,,,,,,,,,359.5340000000142,,response,,,,99,,,,,,,Space,keypress(Space),,,,,,,,---- -- ----- -- ------ - ------- --- ----------<br>------------- ------ ------ ---- ---- ------- ----- -- ----<br>-------- ------- -- ---------- --- - --- ----- ----- ----<br>---- --- --- ----- --- ---- ---- ------- ----- ---- -------<br>you --- -- ----- -- --- ---- -- --- ---- -- ------ ------<br>--- ----- -- ----,169109.7999999998,169107.5,168731.3,168734.2999999998,168747.966,169114.864,,39,you
screen,html.Screen,2_1_0_1_40,2022-05-09T17:17:20.844Z,,,,,,,,,,,,,,,,,53,,,,,,,,,,,,,,295.6359999999986,,response,,,,99,,,,,,,Space,keypress(Space),,,,,,,,---- -- ----- -- ------ - ------- --- ----------<br>------------- ------ ------ ---- ---- ------- ----- -- ----<br>-------- ------- -- ---------- --- - --- ----- ----- ----<br>---- --- --- ----- --- ---- ---- ------- ----- ---- -------<br>--- are -- ----- -- --- ---- -- --- ---- -- ------ ------<br>--- ----- -- ----,169411.59999999986,169410.5,169098.198,169110.19999999995,169114.864,169414.655,,40,are
screen,html.Screen,2_1_0_1_41,2022-05-09T17:17:21.166Z,,,,,,,,,,,,,,,,,53,,,,,,,,,,,,,,317.84500000000116,,response,,,,99,,,,,,,Space,keypress(Space),,,,,,,,---- -- ----- -- ------ - ------- --- ----------<br>------------- ------ ------ ---- ---- ------- ----- -- ----<br>-------- ------- -- ---------- --- - --- ----- ----- ----<br>---- --- --- ----- --- ---- ---- ------- ----- ---- -------<br>--- --- as ----- -- --- ---- -- --- ---- -- ------ ------<br>--- ----- -- ----,169734,169732.5,169397.989,169411.7999999998,169414.655,169748.133,,41,as
screen,html.Screen,2_1_0_1_42,2022-05-09T17:17:21.563Z,,,,,,,,,,,,,,,,,53,,,,,,,,,,,,,,379.5669999999518,,response,,,,99,,,,,,,Space,keypress(Space),,,,,,,,---- -- ----- -- ------ - ------- --- ----------<br>------------- ------ ------ ---- ---- ------- ----- -- ----<br>-------- ------- -- ---------- --- - --- ----- ----- ----<br>---- --- --- ----- --- ---- ---- ------- ----- ---- -------<br>--- --- -- close -- --- ---- -- --- ---- -- ------ ------<br>--- ----- -- ----,170130.19999999995,170127.69999999995,169731.467,169734.2999999998,169748.133,170147.976,,42,close
screen,html.Screen,2_1_0_1_43,2022-05-09T17:17:21.864Z,,,,,,,,,,,,,,,,,53,,,,,,,,,,,,,,282.6239999998652,,response,,,,99,,,,,,,Space,keypress(Space),,,,,,,,---- -- ----- -- ------ - ------- --- ----------<br>------------- ------ ------ ---- ---- ------- ----- -- ----<br>-------- ------- -- ---------- --- - --- ----- ----- ----<br>---- --- --- ----- --- ---- ---- ------- ----- ---- -------<br>--- --- -- ----- as --- ---- -- --- ---- -- ------ ------<br>--- ----- -- ----,170431.5,170430.59999999986,170131.31,170130.69999999995,170147.976,170447.903,,43,as
screen,html.Screen,2_1_0_1_44,2022-05-09T17:17:22.139Z,,,,,,,,,,,,,,,,,53,,,,,,,,,,,,,,256.4969999999157,,response,,,,99,,,,,,,Space,keypress(Space),,,,,,,,---- -- ----- -- ------ - ------- --- ----------<br>------------- ------ ------ ---- ---- ------- ----- -- ----<br>-------- ------- -- ---------- --- - --- ----- ----- ----<br>---- --- --- ----- --- ---- ---- ------- ----- ---- -------<br>--- --- -- ----- -- you ---- -- --- ---- -- ------ ------<br>--- ----- -- ----,170706.7999999998,170704.3999999999,170431.237,170431.69999999995,170447.903,170714.674,,44,you
screen,html.Screen,2_1_0_1_45,2022-05-09T17:17:22.505Z,,,,,,,,,,,,,,,,,53,,,,,,,,,,,,,,355.62599999981467,,response,,,,99,,,,,,,Space,keypress(Space),,,,,,,,---- -- ----- -- ------ - ------- --- ----------<br>------------- ------ ------ ---- ---- ------- ----- -- ----<br>-------- ------- -- ---------- --- - --- ----- ----- ----<br>---- --- --- ----- --- ---- ---- ------- ----- ---- -------<br>--- --- -- ----- -- --- want -- --- ---- -- ------ ------<br>--- ----- -- ----,171072.59999999986,171070.2999999998,170698.008,170707.2999999998,170714.674,171081.132,,45,want
screen,html.Screen,2_1_0_1_46,2022-05-09T17:17:22.848Z,,,,,,,,,,,,,,,,,53,,,,,,,,,,,,,,329.2679999998945,,response,,,,99,,,,,,,Space,keypress(Space),,,,,,,,---- -- ----- -- ------ - ------- --- ----------<br>------------- ------ ------ ---- ---- ------- ----- -- ----<br>-------- ------- -- ---------- --- - --- ----- ----- ----<br>---- --- --- ----- --- ---- ---- ------- ----- ---- -------<br>--- --- -- ----- -- --- ---- to --- ---- -- ------ ------<br>--- ----- -- ----,171415.19999999995,171410.3999999999,171064.466,171073,171081.132,171431.116,,46,to
screen,html.Screen,2_1_0_1_47,2022-05-09T17:17:23.174Z,,,,,,,,,,,,,,,,,53,,,,,,,,,,,,,,308.2839999998978,,response,,,,99,,,,,,,Space,keypress(Space),,,,,,,,"---- -- ----- -- ------ - ------- --- ----------<br>------------- ------ ------ ---- ---- ------- ----- -- ----<br>-------- ------- -- ---------- --- - --- ----- ----- ----<br>---- --- --- ----- --- ---- ---- ------- ----- ---- -------<br>--- --- -- ----- -- --- ---- -- be, ---- -- ------ ------<br>--- ----- -- ----",171741.69999999995,171739.3999999999,171414.45,171415.69999999995,171431.116,171747.786,,47,"be,"
screen,html.Screen,2_1_0_1_48,2022-05-09T17:17:23.632Z,,,,,,,,,,,,,,,,,53,,,,,,,,,,,,,,448.1139999999141,,response,,,,99,,,,,,,Space,keypress(Space),,,,,,,,---- -- ----- -- ------ - ------- --- ----------<br>------------- ------ ------ ---- ---- ------- ----- -- ----<br>-------- ------- -- ---------- --- - --- ----- ----- ----<br>---- --- --- ----- --- ---- ---- ------- ----- ---- -------<br>--- --- -- ----- -- --- ---- -- --- even -- ------ ------<br>--- ----- -- ----,172199.2999999998,172195.8999999999,171731.12,171742,171747.786,172214.564,,48,even
screen,html.Screen,2_1_0_1_49,2022-05-09T17:17:23.875Z,,,,,,,,,,,,,,,,,53,,,,,,,,,,,,,,227.43599999998696,,response,,,,99,,,,,,,Space,keypress(Space),,,,,,,,---- -- ----- -- ------ - ------- --- ----------<br>------------- ------ ------ ---- ---- ------- ----- -- ----<br>-------- ------- -- ---------- --- - --- ----- ----- ----<br>---- --- --- ----- --- ---- ---- ------- ----- ---- -------<br>--- --- -- ----- -- --- ---- -- --- ---- if ------ ------<br>--- ----- -- ----,172443,172442,172197.898,172199.69999999995,172214.564,172447.834,,49,if
screen,html.Screen,2_1_0_1_50,2022-05-09T17:17:24.179Z,,,,,,,,,,,,,,,,,53,,,,,,,,,,,,,,294.9659999998112,,response,,,,99,,,,,,,Space,keypress(Space),,,,,,,,---- -- ----- -- ------ - ------- --- ----------<br>------------- ------ ------ ---- ---- ------- ----- -- ----<br>-------- ------- -- ---------- --- - --- ----- ----- ----<br>---- --- --- ----- --- ---- ---- ------- ----- ---- -------<br>--- --- -- ----- -- --- ---- -- --- ---- -- that's ------<br>--- ----- -- ----,172746.19999999995,172742.7999999998,172431.168,172443.19999999995,172447.834,172747.729,,50,that's
screen,html.Screen,2_1_0_1_51,2022-05-09T17:17:24.633Z,,,,,,,,,,,,,,,,,53,,,,,,,,,,,,,,450.97099999996135,,response,,,,99,,,,,,,Space,keypress(Space),,,,,,,,---- -- ----- -- ------ - ------- --- ----------<br>------------- ------ ------ ---- ---- ------- ----- -- ----<br>-------- ------- -- ---------- --- - --- ----- ----- ----<br>---- --- --- ----- --- ---- ---- ------- ----- ---- -------<br>--- --- -- ----- -- --- ---- -- --- ---- -- ------ really<br>--- ----- -- ----,173200.69999999995,173198.69999999995,172731.063,172746.59999999986,172747.729,173214.492,,51,really
screen,html.Screen,2_1_0_1_52,2022-05-09T17:17:25.061Z,,,,,,,,,,,,,,,,,53,,,,,,,,,,,,,,411.9079999999085,,response,,,,99,,,,,,,Space,keypress(Space),,,,,,,,---- -- ----- -- ------ - ------- --- ----------<br>------------- ------ ------ ---- ---- ------- ----- -- ----<br>-------- ------- -- ---------- --- - --- ----- ----- ----<br>---- --- --- ----- --- ---- ---- ------- ----- ---- -------<br>--- --- -- ----- -- --- ---- -- --- ---- -- ------ ------<br>not ----- -- ----,173628.8999999999,173626.3999999999,173197.826,173201.09999999986,173214.492,173631.141,,52,not
screen,html.Screen,2_1_0_1_53,2022-05-09T17:17:25.416Z,,,,,,,,,,,,,,,,,53,,,,,,,,,,,,,,348.95899999985704,,response,,,,99,,,,,,,Space,keypress(Space),,,,,,,,---- -- ----- -- ------ - ------- --- ----------<br>------------- ------ ------ ---- ---- ------- ----- -- ----<br>-------- ------- -- ---------- --- - --- ----- ----- ----<br>---- --- --- ----- --- ---- ---- ------- ----- ---- -------<br>--- --- -- ----- -- --- ---- -- --- ---- -- ------ ------<br>--- close -- ----,173983.7999999998,173980.09999999986,173614.475,173629.3999999999,173631.141,173997.701,,53,close
screen,html.Screen,2_1_0_1_54,2022-05-09T17:17:25.815Z,,,,,,,,,,,,,,,,,53,,,,,,,,,,,,,,381.79899999999907,,response,,,,99,,,,,,,Space,keypress(Space),,,,,,,,---- -- ----- -- ------ - ------- --- ----------<br>------------- ------ ------ ---- ---- ------- ----- -- ----<br>-------- ------- -- ---------- --- - --- ----- ----- ----<br>---- --- --- ----- --- ---- ---- ------- ----- ---- -------<br>--- --- -- ----- -- --- ---- -- --- ---- -- ------ ------<br>--- ----- at ----,174382.8999999999,174379.5,173981.035,173984.2999999998,173997.701,174397.592,,54,at
screen,html.Screen,2_1_0_1_55,2022-05-09T17:17:26.239Z,,,,,,,,,,,,,,,,,53,,,,,,,,,,,,,,405.9079999999958,,response,,,,99,,,,,,,Space,keypress(Space),,,,,,,,---- -- ----- -- ------ - ------- --- ----------<br>------------- ------ ------ ---- ---- ------- ----- -- ----<br>-------- ------- -- ---------- --- - --- ----- ----- ----<br>---- --- --- ----- --- ---- ---- ------- ----- ---- -------<br>--- --- -- ----- -- --- ---- -- --- ---- -- ------ ------<br>--- ----- -- all.,174806.8999999999,174803.5,174380.926,174383.69999999995,174397.592,174830.835,,55,all.
Item 99,flow.Loop,2_1_0_1,2022-05-09T17:17:26.240Z,,,,,,,,,,,,,,,,,,,,,,,,,,,,,,,22804.003999999986,,completion,,,,,G,,,,,,,,,,,silence,,,,,174807.7999999998,174803.5,151832.836,151835.3999999999,151999.496,174830.835,,,
Question 1,html.Screen,2_1_0_2,2022-05-09T17:17:30.283Z,,,,,,,,,,,,,,,,,,,,,,,,,,,,true,FALSE,,4018.665000000008,,response,,,,99,G,,,,,,FALSE,click #choice-2,,,,silence,,,,,178851.09999999986,178849.5,174797.503,174808.19999999995,174830.835,178880.516,,,
Question 2,html.Screen,2_1_0_3,2022-05-09T17:17:33.936Z,,,,,,,,,,,,,,,,,,,,,,,,,,,,true,TRUE,,3621.3839999999036,,response,,,,99,G,,,,,,TRUE,click #choice-1,,,,silence,,,,,182503.2999999998,182501.8999999999,178863.85,178851.2999999998,178880.516,182513.47,,,
Item 99,flow.Sequence,2_1_0,2022-05-09T17:17:33.936Z,,,,,,,,,,,,,,,,,,,,,,,,,,,,,,,40651.784999999916,,completion,,,,,,,,,,,,,,,,,,,,,182503.5,182501.8999999999,141833.449,141842.09999999986,141850.115,182513.47,,,
Holding screen,html.Screen,2_1_1_0,2022-05-09T17:17:43.930Z,,,,,,,,,,,,,,,,,,,,,,,,,,,,,,,9999.342000000004,,timeout,,,,,,,,,,,,,,,,,,,,,192497.19999999995,192496.146,182496.804,182503.69999999995,182513.47,192512.812,,,
screen,html.Screen,2_1_1_1_0,2022-05-09T17:17:44.547Z,,,,,,,,,,,,,,,,,54,,,,,,,,,,,,,,599.5879999999015,,response,,,,100,,,,,,,Space,keypress(Space),,,,,,,,At --- ---- --- ------ ----- ------- ---- -- --- ------- --<br>------- ---------- ------ -- ----- -- ----- -- ---- ------<br>--- ----- --- --- ------ -------- ----- --- ------ ----- --<br>----- ----- ---------- --- --- ------ ------ ---- -- ------<br>------- --- ------ ----- --- ---- ------- -- ---- --- --<br>------- ------,193114.8999999999,193112.3999999999,192496.146,192497.5,192512.812,193129.44,,0,At
screen,html.Screen,2_1_1_1_1,2022-05-09T17:17:44.927Z,,,,,,,,,,,,,,,,,54,,,,,,,,,,,,,,362.0599999999977,,response,,,,100,,,,,,,Space,keypress(Space),,,,,,,,-- the ---- --- ------ ----- ------- ---- -- --- ------- --<br>------- ---------- ------ -- ----- -- ----- -- ---- ------<br>--- ----- --- --- ------ -------- ----- --- ------ ----- --<br>----- ----- ---------- --- --- ------ ------ ---- -- ------<br>------- --- ------ ----- --- ---- ------- -- ---- --- --<br>------- ------,193494.69999999995,193491.5,193112.774,193115.3999999999,193129.44,193512.632,,1,the
screen,html.Screen,2_1_1_1_2,2022-05-09T17:17:45.253Z,,,,,,,,,,,,,,,,,54,,,,,,,,,,,,,,305.7679999998945,,response,,,,100,,,,,,,Space,keypress(Space),,,,,,,,-- --- time --- ------ ----- ------- ---- -- --- ------- --<br>------- ---------- ------ -- ----- -- ----- -- ---- ------<br>--- ----- --- --- ------ -------- ----- --- ------ ----- --<br>----- ----- ---------- --- --- ------ ------ ---- -- ------<br>------- --- ------ ----- --- ---- ------- -- ---- --- --<br>------- ------,193820.7999999998,193818.3999999999,193495.966,193496,193512.632,193829.314,,2,time
screen,html.Screen,2_1_1_1_3,2022-05-09T17:17:45.512Z,,,,,,,,,,,,,,,,,54,,,,,,,,,,,,,,248.3859999999404,,response,,,,100,,,,,,,Space,keypress(Space),,,,,,,,-- --- ---- the ------ ----- ------- ---- -- --- ------- --<br>------- ---------- ------ -- ----- -- ----- -- ---- ------<br>--- ----- --- --- ------ -------- ----- --- ------ ----- --<br>----- ----- ---------- --- --- ------ ------ ---- -- ------<br>------- --- ------ ----- --- ---- ------- -- ---- --- --<br>------- ------,194079.59999999986,194077.69999999995,193812.648,193821.19999999995,193829.314,194096.028,,3,the
screen,html.Screen,2_1_1_1_4,2022-05-09T17:17:45.767Z,,,,,,,,,,,,,,,,,54,,,,,,,,,,,,,,237.37199999991572,,response,,,,100,,,,,,,Space,keypress(Space),,,,,,,,-- --- ---- --- French ----- ------- ---- -- --- ------- --<br>------- ---------- ------ -- ----- -- ----- -- ---- ------<br>--- ----- --- --- ------ -------- ----- --- ------ ----- --<br>----- ----- ---------- --- --- ------ ------ ---- -- ------<br>------- --- ------ ----- --- ---- ------- -- ---- --- --<br>------- ------,194334.59999999986,194333.3999999999,194079.362,194080,194096.028,194345.883,,4,French
screen,html.Screen,2_1_1_1_5,2022-05-09T17:17:46.102Z,,,,,,,,,,,,,,,,,54,,,,,,,,,,,,,,320.61699999999837,,response,,,,100,,,,,,,Space,keypress(Space),,,,,,,,-- --- ---- --- ------ crown ------- ---- -- --- ------- --<br>------- ---------- ------ -- ----- -- ----- -- ---- ------<br>--- ----- --- --- ------ -------- ----- --- ------ ----- --<br>----- ----- ---------- --- --- ------ ------ ---- -- ------<br>------- --- ------ ----- --- ---- ------- -- ---- --- --<br>------- ------,194669.7999999998,194666.5,194329.217,194334.69999999995,194345.883,194679.212,,5,crown
screen,html.Screen,2_1_1_1_6,2022-05-09T17:17:46.369Z,,,,,,,,,,,,,,,,,54,,,,,,,,,,,,,,254.18799999990733,,response,,,,100,,,,,,,Space,keypress(Space),,,,,,,,-- --- ---- --- ------ ----- secured ---- -- --- ------- --<br>------- ---------- ------ -- ----- -- ----- -- ---- ------<br>--- ----- --- --- ------ -------- ----- --- ------ ----- --<br>----- ----- ---------- --- --- ------ ------ ---- -- ------<br>------- --- ------ ----- --- ---- ------- -- ---- --- --<br>------- ------,194936.7999999998,194933.3999999999,194662.546,194670.19999999995,194679.212,194945.828,,6,secured
screen,html.Screen,2_1_1_1_7,2022-05-09T17:17:46.794Z,,,,,,,,,,,,,,,,,54,,,,,,,,,,,,,,411.2719999998517,,response,,,,100,,,,,,,Space,keypress(Space),,,,,,,,-- --- ---- --- ------ ----- ------- much -- --- ------- --<br>------- ---------- ------ -- ----- -- ----- -- ---- ------<br>--- ----- --- --- ------ -------- ----- --- ------ ----- --<br>----- ----- ---------- --- --- ------ ------ ---- -- ------<br>------- --- ------ ----- --- ---- ------- -- ---- --- --<br>------- ------,195361.5,195357.09999999986,194929.162,194937.19999999995,194945.828,195379.188,,7,much
screen,html.Screen,2_1_1_1_8,2022-05-09T17:17:47.161Z,,,,,,,,,,,,,,,,,54,,,,,,,,,,,,,,346.0119999999588,,response,,,,100,,,,,,,Space,keypress(Space),,,,,,,,-- --- ---- --- ------ ----- ------- ---- of --- ------- --<br>------- ---------- ------ -- ----- -- ----- -- ---- ------<br>--- ----- --- --- ------ -------- ----- --- ------ ----- --<br>----- ----- ---------- --- --- ------ ------ ---- -- ------<br>------- --- ------ ----- --- ---- ------- -- ---- --- --<br>------- ------,195728.59999999986,195725.19999999995,195362.522,195361.8999999999,195379.188,195745.948,,8,of
screen,html.Screen,2_1_1_1_9,2022-05-09T17:17:47.437Z,,,,,,,,,,,,,,,,,54,,,,,,,,,,,,,,256.3519999998098,,response,,,,100,,,,,,,Space,keypress(Space),,,,,,,,-- --- ---- --- ------ ----- ------- ---- -- its ------- --<br>------- ---------- ------ -- ----- -- ----- -- ---- ------<br>--- ----- --- --- ------ -------- ----- --- ------ ----- --<br>----- ----- ---------- --- --- ------ ------ ---- -- ------<br>------- --- ------ ----- --- ---- ------- -- ---- --- --<br>------- ------,196004.69999999995,196002.2999999998,195729.282,195731.69999999995,195745.948,196012.433,,9,its
screen,html.Screen,2_1_1_1_10,2022-05-09T17:17:47.761Z,,,,,,,,,,,,,,,,,54,,,,,,,,,,,,,,313.6669999998703,,response,,,,100,,,,,,,Space,keypress(Space),,,,,,,,-- --- ---- --- ------ ----- ------- ---- -- --- revenue --<br>------- ---------- ------ -- ----- -- ----- -- ---- ------<br>--- ----- --- --- ------ -------- ----- --- ------ ----- --<br>----- ----- ---------- --- --- ------ ------ ---- -- ------<br>------- --- ------ ----- --- ---- ------- -- ---- --- --<br>------- ------,196328.3999999999,196326.09999999986,195995.767,196005.09999999986,196012.433,196345.777,,10,revenue
screen,html.Screen,2_1_1_1_11,2022-05-09T17:17:48.349Z,,,,,,,,,,,,,,,,,54,,,,,,,,,,,,,,568.622999999905,,response,,,,100,,,,,,,Space,keypress(Space),,,,,,,,-- --- ---- --- ------ ----- ------- ---- -- --- ------- by<br>------- ---------- ------ -- ----- -- ----- -- ---- ------<br>--- ----- --- --- ------ -------- ----- --- ------ ----- --<br>----- ----- ---------- --- --- ------ ------ ---- -- ------<br>------- --- ------ ----- --- ---- ------- -- ---- --- --<br>------- ------,196916.5,196914.3999999999,196329.111,196328.8999999999,196345.777,196929.252,,11,by
screen,html.Screen,2_1_1_1_12,2022-05-09T17:17:48.923Z,,,,,,,,,,,,,,,,,54,,,,,,,,,,,,,,559.4479999999458,,response,,,,100,,,,,,,Space,keypress(Space),,,,,,,,-- --- ---- --- ------ ----- ------- ---- -- --- ------- --<br>issuing ---------- ------ -- ----- -- ----- -- ---- ------<br>--- ----- --- --- ------ -------- ----- --- ------ ----- --<br>----- ----- ---------- --- --- ------ ------ ---- -- ------<br>------- --- ------ ----- --- ---- ------- -- ---- --- --<br>------- ------,197490.8999999999,197488.69999999995,196912.586,196917.09999999986,196929.252,197495.689,,12,issuing
screen,html.Screen,2_1_1_1_13,2022-05-09T17:17:49.423Z,,,,,,,,,,,,,,,,,54,,,,,,,,,,,,,,492.1109999998007,,response,,,,100,,,,,,,Space,keypress(Space),,,,,,,,-- --- ---- --- ------ ----- ------- ---- -- --- ------- --<br>------- government ------ -- ----- -- ----- -- ---- ------<br>--- ----- --- --- ------ -------- ----- --- ------ ----- --<br>----- ----- ---------- --- --- ------ ------ ---- -- ------<br>------- --- ------ ----- --- ---- ------- -- ---- --- --<br>------- ------,197990.7999999998,197987.7999999998,197479.023,197491.3999999999,197495.689,197995.714,,13,government
screen,html.Screen,2_1_1_1_14,2022-05-09T17:17:50.544Z,,,,,,,,,,,,,,,,,54,,,,,,,,,,,,,,1112.0859999998065,,response,,,,100,,,,,,,Space,keypress(Space),,,,,,,,-- --- ---- --- ------ ----- ------- ---- -- --- ------- --<br>------- ---------- bonds. -- ----- -- ----- -- ---- ------<br>--- ----- --- --- ------ -------- ----- --- ------ ----- --<br>----- ----- ---------- --- --- ------ ------ ---- -- ------<br>------- --- ------ ----- --- ---- ------- -- ---- --- --<br>------- ------,199111.2999999998,199107.7999999998,197979.048,197991.19999999995,197995.714,199129.089,,14,bonds.
screen,html.Screen,2_1_1_1_15,2022-05-09T17:17:51.000Z,,,,,,,,,,,,,,,,,54,,,,,,,,,,,,,,435.9109999999928,,response,,,,100,,,,,,,Space,keypress(Space),,,,,,,,-- --- ---- --- ------ ----- ------- ---- -- --- ------- --<br>------- ---------- ------ In ----- -- ----- -- ---- ------<br>--- ----- --- --- ------ -------- ----- --- ------ ----- --<br>----- ----- ---------- --- --- ------ ------ ---- -- ------<br>------- --- ------ ----- --- ---- ------- -- ---- --- --<br>------- ------,199567.3999999999,199565,199112.423,199111.69999999995,199129.089,199579.061,,15,In
screen,html.Screen,2_1_1_1_16,2022-05-09T17:17:51.411Z,,,,,,,,,,,,,,,,,54,,,,,,,,,,,,,,396.93900000001304,,response,,,,100,,,,,,,Space,keypress(Space),,,,,,,,"-- --- ---- --- ------ ----- ------- ---- -- --- ------- --<br>------- ---------- ------ -- 1727, -- ----- -- ---- ------<br>--- ----- --- --- ------ -------- ----- --- ------ ----- --<br>----- ----- ---------- --- --- ------ ------ ---- -- ------<br>------- --- ------ ----- --- ---- ------- -- ---- --- --<br>------- ------",199978.09999999986,199976,199562.395,199567.8999999999,199579.061,199995.447,,16,"1727,"
screen,html.Screen,2_1_1_1_17,2022-05-09T17:17:51.818Z,,,,,,,,,,,,,,,,,54,,,,,,,,,,,,,,384.55300000001444,,response,,,,100,,,,,,,Space,keypress(Space),,,,,,,,-- --- ---- --- ------ ----- ------- ---- -- --- ------- --<br>------- ---------- ------ -- ----- in ----- -- ---- ------<br>--- ----- --- --- ------ -------- ----- --- ------ ----- --<br>----- ----- ---------- --- --- ------ ------ ---- -- ------<br>------- --- ------ ----- --- ---- ------- -- ---- --- --<br>------- ------,200385.2999999998,200380,199978.781,199978.59999999986,199995.447,200395.388,,17,in
screen,html.Screen,2_1_1_1_18,2022-05-09T17:17:52.184Z,,,,,,,,,,,,,,,,,54,,,,,,,,,,,,,,354.41199999980745,,response,,,,100,,,,,,,Space,keypress(Space),,,,,,,,-- --- ---- --- ------ ----- ------- ---- -- --- ------- --<br>------- ---------- ------ -- ----- -- order -- ---- ------<br>--- ----- --- --- ------ -------- ----- --- ------ ----- --<br>----- ----- ---------- --- --- ------ ------ ---- -- ------<br>------- --- ------ ----- --- ---- ------- -- ---- --- --<br>------- ------,200751.7999999998,200749.7999999998,200378.722,200385.8999999999,200395.388,200762.077,,18,order
screen,html.Screen,2_1_1_1_19,2022-05-09T17:17:52.454Z,,,,,,,,,,,,,,,,,54,,,,,,,,,,,,,,256.5229999998701,,response,,,,100,,,,,,,Space,keypress(Space),,,,,,,,-- --- ---- --- ------ ----- ------- ---- -- --- ------- --<br>------- ---------- ------ -- ----- -- ----- to ---- ------<br>--- ----- --- --- ------ -------- ----- --- ------ ----- --<br>----- ----- ---------- --- --- ------ ------ ---- -- ------<br>------- --- ------ ----- --- ---- ------- -- ---- --- --<br>------- ------,201021,201018.59999999986,200745.411,200752.19999999995,200762.077,201028.662,,19,to
screen,html.Screen,2_1_1_1_20,2022-05-09T17:17:52.661Z,,,,,,,,,,,,,,,,,54,,,,,,,,,,,,,,197.33799999998882,,response,,,,100,,,,,,,Space,keypress(Space),,,,,,,,-- --- ---- --- ------ ----- ------- ---- -- --- ------- --<br>------- ---------- ------ -- ----- -- ----- -- save ------<br>--- ----- --- --- ------ -------- ----- --- ------ ----- --<br>----- ----- ---------- --- --- ------ ------ ---- -- ------<br>------- --- ------ ----- --- ---- ------- -- ---- --- --<br>------- ------,201228.19999999995,201226,201011.996,201021.5,201028.662,201245.389,,20,save
screen,html.Screen,2_1_1_1_21,2022-05-09T17:17:52.937Z,,,,,,,,,,,,,,,,,54,,,,,,,,,,,,,,257.0109999999113,,response,,,,100,,,,,,,Space,keypress(Space),,,,,,,,"-- --- ---- --- ------ ----- ------- ---- -- --- ------- --<br>------- ---------- ------ -- ----- -- ----- -- ---- money,<br>--- ----- --- --- ------ -------- ----- --- ------ ----- --<br>----- ----- ---------- --- --- ------ ------ ---- -- ------<br>------- --- ------ ----- --- ---- ------- -- ---- --- --<br>------- ------",201504.5,201502.3999999999,201228.723,201228.7999999998,201245.389,201511.979,,21,"money,"
screen,html.Screen,2_1_1_1_22,2022-05-09T17:17:53.346Z,,,,,,,,,,,,,,,,,54,,,,,,,,,,,,,,399.5210000000079,,response,,,,100,,,,,,,Space,keypress(Space),,,,,,,,-- --- ---- --- ------ ----- ------- ---- -- --- ------- --<br>------- ---------- ------ -- ----- -- ----- -- ---- ------<br>the ----- --- --- ------ -------- ----- --- ------ ----- --<br>----- ----- ---------- --- --- ------ ------ ---- -- ------<br>------- --- ------ ----- --- ---- ------- -- ---- --- --<br>------- ------,201913.69999999995,201911.5,201495.313,201504.7999999998,201511.979,201928.658,,22,the
screen,html.Screen,2_1_1_1_23,2022-05-09T17:17:53.652Z,,,,,,,,,,,,,,,,,54,,,,,,,,,,,,,,287.0419999999576,,response,,,,100,,,,,,,Space,keypress(Space),,,,,,,,-- --- ---- --- ------ ----- ------- ---- -- --- ------- --<br>------- ---------- ------ -- ----- -- ----- -- ---- ------<br>--- state --- --- ------ -------- ----- --- ------ ----- --<br>----- ----- ---------- --- --- ------ ------ ---- -- ------<br>------- --- ------ ----- --- ---- ------- -- ---- --- --<br>------- ------,202219.09999999986,202215.69999999995,201911.992,201914.09999999986,201928.658,202228.828,,23,state
screen,html.Screen,2_1_1_1_24,2022-05-09T17:17:53.923Z,,,,,,,,,,,,,,,,,54,,,,,,,,,,,,,,260.2719999998517,,response,,,,100,,,,,,,Space,keypress(Space),,,,,,,,-- --- ---- --- ------ ----- ------- ---- -- --- ------- --<br>------- ---------- ------ -- ----- -- ----- -- ---- ------<br>--- ----- cut --- ------ -------- ----- --- ------ ----- --<br>----- ----- ---------- --- --- ------ ------ ---- -- ------<br>------- --- ------ ----- --- ---- ------- -- ---- --- --<br>------- ------,202490.09999999986,202489.09999999986,202212.162,202220,202228.828,202495.23,,24,cut
screen,html.Screen,2_1_1_1_25,2022-05-09T17:17:54.164Z,,,,,,,,,,,,,,,,,54,,,,,,,,,,,,,,234.1699999998964,,response,,,,100,,,,,,,Space,keypress(Space),,,,,,,,-- --- ---- --- ------ ----- ------- ---- -- --- ------- --<br>------- ---------- ------ -- ----- -- ----- -- ---- ------<br>--- ----- --- the ------ -------- ----- --- ------ ----- --<br>----- ----- ---------- --- --- ------ ------ ---- -- ------<br>------- --- ------ ----- --- ---- ------- -- ---- --- --<br>------- ------,202731.3999999999,202729.3999999999,202478.564,202490.3999999999,202495.23,202745.431,,25,the
screen,html.Screen,2_1_1_1_26,2022-05-09T17:17:54.534Z,,,,,,,,,,,,,,,,,54,,,,,,,,,,,,,,354.46899999989546,,response,,,,100,,,,,,,Space,keypress(Space),,,,,,,,-- --- ---- --- ------ ----- ------- ---- -- --- ------- --<br>------- ---------- ------ -- ----- -- ----- -- ---- ------<br>--- ----- --- --- bonds' -------- ----- --- ------ ----- --<br>----- ----- ---------- --- --- ------ ------ ---- -- ------<br>------- --- ------ ----- --- ---- ------- -- ---- --- --<br>------- ------,203101.8999999999,203099.8999999999,202728.765,202731.8999999999,202745.431,203111.881,,26,bonds'
screen,html.Screen,2_1_1_1_27,2022-05-09T17:17:54.975Z,,,,,,,,,,,,,,,,,54,,,,,,,,,,,,,,428.71899999986636,,response,,,,100,,,,,,,Space,keypress(Space),,,,,,,,-- --- ---- --- ------ ----- ------- ---- -- --- ------- --<br>------- ---------- ------ -- ----- -- ----- -- ---- ------<br>--- ----- --- --- ------ interest ----- --- ------ ----- --<br>----- ----- ---------- --- --- ------ ------ ---- -- ------<br>------- --- ------ ----- --- ---- ------- -- ---- --- --<br>------- ------,203542.2999999998,203540.59999999986,203095.215,203102.2999999998,203111.881,203545.307,,27,interest
screen,html.Screen,2_1_1_1_28,2022-05-09T17:17:55.353Z,,,,,,,,,,,,,,,,,54,,,,,,,,,,,,,,373.09299999990617,,response,,,,100,,,,,,,Space,keypress(Space),,,,,,,,-- --- ---- --- ------ ----- ------- ---- -- --- ------- --<br>------- ---------- ------ -- ----- -- ----- -- ---- ------<br>--- ----- --- --- ------ -------- rate. --- ------ ----- --<br>----- ----- ---------- --- --- ------ ------ ---- -- ------<br>------- --- ------ ----- --- ---- ------- -- ---- --- --<br>------- ------,203920.59999999986,203918.3999999999,203528.641,203542.59999999986,203545.307,203928.452,,28,rate.
screen,html.Screen,2_1_1_1_29,2022-05-09T17:17:55.866Z,,,,,,,,,,,,,,,,,54,,,,,,,,,,,,,,503.44799999991665,,response,,,,100,,,,,,,Space,keypress(Space),,,,,,,,-- --- ---- --- ------ ----- ------- ---- -- --- ------- --<br>------- ---------- ------ -- ----- -- ----- -- ---- ------<br>--- ----- --- --- ------ -------- ----- The ------ ----- --<br>----- ----- ---------- --- --- ------ ------ ---- -- ------<br>------- --- ------ ----- --- ---- ------- -- ---- --- --<br>------- ------,204433.59999999986,204431.8999999999,203911.786,203921,203928.452,204445.07,,29,The
screen,html.Screen,2_1_1_1_30,2022-05-09T17:17:56.301Z,,,,,,,,,,,,,,,,,54,,,,,,,,,,,,,,421.5299999998533,,response,,,,100,,,,,,,Space,keypress(Space),,,,,,,,-- --- ---- --- ------ ----- ------- ---- -- --- ------- --<br>------- ---------- ------ -- ----- -- ----- -- ---- ------<br>--- ----- --- --- ------ -------- ----- --- market ----- --<br>----- ----- ---------- --- --- ------ ------ ---- -- ------<br>------- --- ------ ----- --- ---- ------- -- ---- --- --<br>------- ------,204869,204866.59999999986,204428.404,204433.7999999998,204445.07,204878.394,,30,market
screen,html.Screen,2_1_1_1_31,2022-05-09T17:17:56.773Z,,,,,,,,,,,,,,,,,54,,,,,,,,,,,,,,459.3059999999532,,response,,,,100,,,,,,,Space,keypress(Space),,,,,,,,-- --- ---- --- ------ ----- ------- ---- -- --- ------- --<br>------- ---------- ------ -- ----- -- ----- -- ---- ------<br>--- ----- --- --- ------ -------- ----- --- ------ value --<br>----- ----- ---------- --- --- ------ ------ ---- -- ------<br>------- --- ------ ----- --- ---- ------- -- ---- --- --<br>------- ------,205340.19999999995,205337.69999999995,204861.728,204869.5,204878.394,205345.212,,31,value
screen,html.Screen,2_1_1_1_32,2022-05-09T17:17:57.082Z,,,,,,,,,,,,,,,,,54,,,,,,,,,,,,,,301.88799999986077,,response,,,,100,,,,,,,Space,keypress(Space),,,,,,,,-- --- ---- --- ------ ----- ------- ---- -- --- ------- --<br>------- ---------- ------ -- ----- -- ----- -- ---- ------<br>--- ----- --- --- ------ -------- ----- --- ------ ----- of<br>----- ----- ---------- --- --- ------ ------ ---- -- ------<br>------- --- ------ ----- --- ---- ------- -- ---- --- --<br>------- ------,205649.2999999998,205647.09999999986,205328.546,205340.69999999995,205345.212,205661.69,,32,of
screen,html.Screen,2_1_1_1_33,2022-05-09T17:17:57.394Z,,,,,,,,,,,,,,,,,54,,,,,,,,,,,,,,295.3099999999977,,response,,,,100,,,,,,,Space,keypress(Space),,,,,,,,-- --- ---- --- ------ ----- ------- ---- -- --- ------- --<br>------- ---------- ------ -- ----- -- ----- -- ---- ------<br>--- ----- --- --- ------ -------- ----- --- ------ ----- --<br>these ----- ---------- --- --- ------ ------ ---- -- ------<br>------- --- ------ ----- --- ---- ------- -- ---- --- --<br>------- ------,205961.69999999995,205957,205645.024,205649.7999999998,205661.69,205978.425,,33,these
screen,html.Screen,2_1_1_1_34,2022-05-09T17:17:57.686Z,,,,,,,,,,,,,,,,,54,,,,,,,,,,,,,,273.07500000001164,,response,,,,100,,,,,,,Space,keypress(Space),,,,,,,,-- --- ---- --- ------ ----- ------- ---- -- --- ------- --<br>------- ---------- ------ -- ----- -- ----- -- ---- ------<br>--- ----- --- --- ------ -------- ----- --- ------ ----- --<br>----- bonds ---------- --- --- ------ ------ ---- -- ------<br>------- --- ------ ----- --- ---- ------- -- ---- --- --<br>------- ------,206253.8999999999,206251.5,205961.759,205962,205978.425,206261.67,,34,bonds
screen,html.Screen,2_1_1_1_35,2022-05-09T17:17:58.010Z,,,,,,,,,,,,,,,,,54,,,,,,,,,,,,,,313.4299999998475,,response,,,,100,,,,,,,Space,keypress(Space),,,,,,,,"-- --- ---- --- ------ ----- ------- ---- -- --- ------- --<br>------- ---------- ------ -- ----- -- ----- -- ---- ------<br>--- ----- --- --- ------ -------- ----- --- ------ ----- --<br>----- ----- plummeted, --- --- ------ ------ ---- -- ------<br>------- --- ------ ----- --- ---- ------- -- ---- --- --<br>------- ------",206577.09999999986,206575.09999999986,206245.004,206254.3999999999,206261.67,206594.918,,35,"plummeted,"
screen,html.Screen,2_1_1_1_36,2022-05-09T17:17:58.437Z,,,,,,,,,,,,,,,,,54,,,,,,,,,,,,,,407.0819999999949,,response,,,,100,,,,,,,Space,keypress(Space),,,,,,,,-- --- ---- --- ------ ----- ------- ---- -- --- ------- --<br>------- ---------- ------ -- ----- -- ----- -- ---- ------<br>--- ----- --- --- ------ -------- ----- --- ------ ----- --<br>----- ----- ---------- and --- ------ ------ ---- -- ------<br>------- --- ------ ----- --- ---- ------- -- ---- --- --<br>------- ------,207004.5,207002,206578.252,206577.5,206594.918,207011.656,,36,and
screen,html.Screen,2_1_1_1_37,2022-05-09T17:17:58.666Z,,,,,,,,,,,,,,,,,54,,,,,,,,,,,,,,219.74399999991874,,response,,,,100,,,,,,,Space,keypress(Space),,,,,,,,-- --- ---- --- ------ ----- ------- ---- -- --- ------- --<br>------- ---------- ------ -- ----- -- ----- -- ---- ------<br>--- ----- --- --- ------ -------- ----- --- ------ ----- --<br>----- ----- ---------- --- the ------ ------ ---- -- ------<br>------- --- ------ ----- --- ---- ------- -- ---- --- --<br>------- ------,207233.5,207231.3999999999,206994.99,207004.8999999999,207011.656,207245.015,,37,the
screen,html.Screen,2_1_1_1_38,2022-05-09T17:17:58.894Z,,,,,,,,,,,,,,,,,54,,,,,,,,,,,,,,214.28499999979977,,response,,,,100,,,,,,,Space,keypress(Space),,,,,,,,-- --- ---- --- ------ ----- ------- ---- -- --- ------- --<br>------- ---------- ------ -- ----- -- ----- -- ---- ------<br>--- ----- --- --- ------ -------- ----- --- ------ ----- --<br>----- ----- ---------- --- --- market ------ ---- -- ------<br>------- --- ------ ----- --- ---- ------- -- ---- --- --<br>------- ------,207461.3999999999,207459.2999999998,207228.349,207233.8999999999,207245.015,207478.388,,38,market
screen,html.Screen,2_1_1_1_39,2022-05-09T17:17:59.368Z,,,,,,,,,,,,,,,,,54,,,,,,,,,,,,,,451.41199999980745,,response,,,,100,,,,,,,Space,keypress(Space),,,,,,,,-- --- ---- --- ------ ----- ------- ---- -- --- ------- --<br>------- ---------- ------ -- ----- -- ----- -- ---- ------<br>--- ----- --- --- ------ -------- ----- --- ------ ----- --<br>----- ----- ---------- --- --- ------ became ---- -- ------<br>------- --- ------ ----- --- ---- ------- -- ---- --- --<br>------- ------,207935.3999999999,207929.7999999998,207461.722,207461.8999999999,207478.388,207944.825,,39,became
screen,html.Screen,2_1_1_1_40,2022-05-09T17:17:59.712Z,,,,,,,,,,,,,,,,,54,,,,,,,,,,,,,,330.27499999984866,,response,,,,100,,,,,,,Space,keypress(Space),,,,,,,,-- --- ---- --- ------ ----- ------- ---- -- --- ------- --<br>------- ---------- ------ -- ----- -- ----- -- ---- ------<br>--- ----- --- --- ------ -------- ----- --- ------ ----- --<br>----- ----- ---------- --- --- ------ ------ wary -- ------<br>------- --- ------ ----- --- ---- ------- -- ---- --- --<br>------- ------,208279.19999999995,208275.09999999986,207928.159,207935.69999999995,207944.825,208294.988,,40,wary
screen,html.Screen,2_1_1_1_41,2022-05-09T17:18:00.082Z,,,,,,,,,,,,,,,,,54,,,,,,,,,,,,,,352.8119999998016,,response,,,,100,,,,,,,Space,keypress(Space),,,,,,,,-- --- ---- --- ------ ----- ------- ---- -- --- ------- --<br>------- ---------- ------ -- ----- -- ----- -- ---- ------<br>--- ----- --- --- ------ -------- ----- --- ------ ----- --<br>----- ----- ---------- --- --- ------ ------ ---- of ------<br>------- --- ------ ----- --- ---- ------- -- ---- --- --<br>------- ------,208649.19999999995,208647.7999999998,208278.322,208279.69999999995,208294.988,208661.486,,41,of
screen,html.Screen,2_1_1_1_42,2022-05-09T17:18:00.454Z,,,,,,,,,,,,,,,,,54,,,,,,,,,,,,,,358.41399999990244,,response,,,,100,,,,,,,Space,keypress(Space),,,,,,,,-- --- ---- --- ------ ----- ------- ---- -- --- ------- --<br>------- ---------- ------ -- ----- -- ----- -- ---- ------<br>--- ----- --- --- ------ -------- ----- --- ------ ----- --<br>----- ----- ---------- --- --- ------ ------ ---- -- French<br>------- --- ------ ----- --- ---- ------- -- ---- --- --<br>------- ------,209021.5,209019.8999999999,208644.82,208649.5,208661.486,209028.257,,42,French
screen,html.Screen,2_1_1_1_43,2022-05-09T17:18:00.793Z,,,,,,,,,,,,,,,,,54,,,,,,,,,,,,,,330.9429999999411,,response,,,,100,,,,,,,Space,keypress(Space),,,,,,,,-- --- ---- --- ------ ----- ------- ---- -- --- ------- --<br>------- ---------- ------ -- ----- -- ----- -- ---- ------<br>--- ----- --- --- ------ -------- ----- --- ------ ----- --<br>----- ----- ---------- --- --- ------ ------ ---- -- ------<br>credit. --- ------ ----- --- ---- ------- -- ---- --- --<br>------- ------,209360.8999999999,209359.19999999995,209011.591,209021.69999999995,209028.257,209378.107,,43,credit.
screen,html.Screen,2_1_1_1_44,2022-05-09T17:18:01.233Z,,,,,,,,,,,,,,,,,54,,,,,,,,,,,,,,420.49299999987124,,response,,,,100,,,,,,,Space,keypress(Space),,,,,,,,-- --- ---- --- ------ ----- ------- ---- -- --- ------- --<br>------- ---------- ------ -- ----- -- ----- -- ---- ------<br>--- ----- --- --- ------ -------- ----- --- ------ ----- --<br>----- ----- ---------- --- --- ------ ------ ---- -- ------<br>------- The ------ ----- --- ---- ------- -- ---- --- --<br>------- ------,209800.8999999999,209798.59999999986,209361.441,209361.09999999986,209378.107,209811.36,,44,The
screen,html.Screen,2_1_1_1_45,2022-05-09T17:18:01.641Z,,,,,,,,,,,,,,,,,54,,,,,,,,,,,,,,395.23999999987427,,response,,,,100,,,,,,,Space,keypress(Space),,,,,,,,-- --- ---- --- ------ ----- ------- ---- -- --- ------- --<br>------- ---------- ------ -- ----- -- ----- -- ---- ------<br>--- ----- --- --- ------ -------- ----- --- ------ ----- --<br>----- ----- ---------- --- --- ------ ------ ---- -- ------<br>------- --- French ----- --- ---- ------- -- ---- --- --<br>------- ------,210208.19999999995,210206.59999999986,209794.694,209801.3999999999,209811.36,210211.343,,45,French
screen,html.Screen,2_1_1_1_46,2022-05-09T17:18:01.965Z,,,,,,,,,,,,,,,,,54,,,,,,,,,,,,,,320.0569999999134,,response,,,,100,,,,,,,Space,keypress(Space),,,,,,,,-- --- ---- --- ------ ----- ------- ---- -- --- ------- --<br>------- ---------- ------ -- ----- -- ----- -- ---- ------<br>--- ----- --- --- ------ -------- ----- --- ------ ----- --<br>----- ----- ---------- --- --- ------ ------ ---- -- ------<br>------- --- ------ state --- ---- ------- -- ---- --- --<br>------- ------,210532.8999999999,210531.3999999999,210194.677,210208.5,210211.343,210544.672,,46,state
screen,html.Screen,2_1_1_1_47,2022-05-09T17:18:02.297Z,,,,,,,,,,,,,,,,,54,,,,,,,,,,,,,,317.02799999996205,,response,,,,100,,,,,,,Space,keypress(Space),,,,,,,,-- --- ---- --- ------ ----- ------- ---- -- --- ------- --<br>------- ---------- ------ -- ----- -- ----- -- ---- ------<br>--- ----- --- --- ------ -------- ----- --- ------ ----- --<br>----- ----- ---------- --- --- ------ ------ ---- -- ------<br>------- --- ------ ----- was ---- ------- -- ---- --- --<br>------- ------,210864.09999999986,210861.69999999995,210528.006,210533.19999999995,210544.672,210878.061,,47,was
screen,html.Screen,2_1_1_1_48,2022-05-09T17:18:02.566Z,,,,,,,,,,,,,,,,,54,,,,,,,,,,,,,,254.13899999996647,,response,,,,100,,,,,,,Space,keypress(Space),,,,,,,,-- --- ---- --- ------ ----- ------- ---- -- --- ------- --<br>------- ---------- ------ -- ----- -- ----- -- ---- ------<br>--- ----- --- --- ------ -------- ----- --- ------ ----- --<br>----- ----- ---------- --- --- ------ ------ ---- -- ------<br>------- --- ------ ----- --- left ------- -- ---- --- --<br>------- ------,211133.59999999986,211132.19999999995,210861.395,210864.5,210878.061,211144.772,,48,left
screen,html.Screen,2_1_1_1_49,2022-05-09T17:18:02.845Z,,,,,,,,,,,,,,,,,54,,,,,,,,,,,,,,265.4279999999562,,response,,,,100,,,,,,,Space,keypress(Space),,,,,,,,-- --- ---- --- ------ ----- ------- ---- -- --- ------- --<br>------- ---------- ------ -- ----- -- ----- -- ---- ------<br>--- ----- --- --- ------ -------- ----- --- ------ ----- --<br>----- ----- ---------- --- --- ------ ------ ---- -- ------<br>------- --- ------ ----- --- ---- without -- ---- --- --<br>------- ------,211412.59999999986,211410.19999999995,211128.106,211134,211144.772,211427.845,,49,without
screen,html.Screen,2_1_1_1_50,2022-05-09T17:18:03.280Z,,,,,,,,,,,,,,,,,54,,,,,,,,,,,,,,416.25499999985914,,response,,,,100,,,,,,,Space,keypress(Space),,,,,,,,-- --- ---- --- ------ ----- ------- ---- -- --- ------- --<br>------- ---------- ------ -- ----- -- ----- -- ---- ------<br>--- ----- --- --- ------ -------- ----- --- ------ ----- --<br>----- ----- ---------- --- --- ------ ------ ---- -- ------<br>------- --- ------ ----- --- ---- ------- an ---- --- --<br>------- ------,211847.8999999999,211844.09999999986,211411.179,211413.09999999986,211427.845,211861.151,,50,an
screen,html.Screen,2_1_1_1_51,2022-05-09T17:18:03.533Z,,,,,,,,,,,,,,,,,54,,,,,,,,,,,,,,237.54899999994086,,response,,,,100,,,,,,,Space,keypress(Space),,,,,,,,-- --- ---- --- ------ ----- ------- ---- -- --- ------- --<br>------- ---------- ------ -- ----- -- ----- -- ---- ------<br>--- ----- --- --- ------ -------- ----- --- ------ ----- --<br>----- ----- ---------- --- --- ------ ------ ---- -- ------<br>------- --- ------ ----- --- ---- ------- -- easy --- --<br>------- ------,212100.8999999999,212098.69999999995,211844.485,211848.2999999998,211861.151,212111.225,,51,easy
screen,html.Screen,2_1_1_1_52,2022-05-09T17:18:03.785Z,,,,,,,,,,,,,,,,,54,,,,,,,,,,,,,,238.87499999985448,,response,,,,100,,,,,,,Space,keypress(Space),,,,,,,,-- --- ---- --- ------ ----- ------- ---- -- --- ------- --<br>------- ---------- ------ -- ----- -- ----- -- ---- ------<br>--- ----- --- --- ------ -------- ----- --- ------ ----- --<br>----- ----- ---------- --- --- ------ ------ ---- -- ------<br>------- --- ------ ----- --- ---- ------- -- ---- way --<br>------- ------,212352,212350.09999999986,212094.559,212101.3999999999,212111.225,212361.096,,52,way
screen,html.Screen,2_1_1_1_53,2022-05-09T17:18:04.192Z,,,,,,,,,,,,,,,,,54,,,,,,,,,,,,,,396.00399999986985,,response,,,,100,,,,,,,Space,keypress(Space),,,,,,,,-- --- ---- --- ------ ----- ------- ---- -- --- ------- --<br>------- ---------- ------ -- ----- -- ----- -- ---- ------<br>--- ----- --- --- ------ -------- ----- --- ------ ----- --<br>----- ----- ---------- --- --- ------ ------ ---- -- ------<br>------- --- ------ ----- --- ---- ------- -- ---- --- of<br>------- ------,212759,212757.09999999986,212344.43,212352.3999999999,212361.096,212761.123,,53,of
screen,html.Screen,2_1_1_1_54,2022-05-09T17:18:04.602Z,,,,,,,,,,,,,,,,,54,,,,,,,,,,,,,,404.976999999868,,response,,,,100,,,,,,,Space,keypress(Space),,,,,,,,-- --- ---- --- ------ ----- ------- ---- -- --- ------- --<br>------- ---------- ------ -- ----- -- ----- -- ---- ------<br>--- ----- --- --- ------ -------- ----- --- ------ ----- --<br>----- ----- ---------- --- --- ------ ------ ---- -- ------<br>------- --- ------ ----- --- ---- ------- -- ---- --- --<br>raising ------,213169.8999999999,213166.09999999986,212744.457,212759.5,212761.123,213177.676,,54,raising
screen,html.Screen,2_1_1_1_55,2022-05-09T17:18:04.999Z,,,,,,,,,,,,,,,,,54,,,,,,,,,,,,,,385.92399999985355,,response,,,,100,,,,,,,Space,keypress(Space),,,,,,,,-- --- ---- --- ------ ----- ------- ---- -- --- ------- --<br>------- ---------- ------ -- ----- -- ----- -- ---- ------<br>--- ----- --- --- ------ -------- ----- --- ------ ----- --<br>----- ----- ---------- --- --- ------ ------ ---- -- ------<br>------- --- ------ ----- --- ---- ------- -- ---- --- --<br>------- money.,213567,213563.59999999986,213161.01,213170.2999999998,213177.676,213594.502,,55,money.
Item 100,flow.Loop,2_1_1_1,2022-05-09T17:18:05.000Z,,,,,,,,,,,,,,,,,,,,,,,,,,,,,,,21050.787999999855,,completion,,,,,G,,,,,,,,,,,silence,,,,,213567.69999999995,213563.59999999986,192496.146,192497.3999999999,192512.812,213594.502,,,
Question 1,html.Screen,2_1_1_2,2022-05-09T17:18:07.304Z,,,,,,,,,,,,,,,,,,,,,,,,,,,,true,TRUE,,2275.5979999998526,,response,,,,100,G,,,,,,TRUE,click #choice-1,,,,silence,,,,,215871.69999999995,215870.09999999986,213561.17,213568.09999999986,213594.502,215877.505,,,
Question 2,html.Screen,2_1_1_3,2022-05-09T17:18:09.353Z,,,,,,,,,,,,,,,,,,,,,,,,,,,,true,FALSE,,2041.8949999999022,,response,,,,100,G,,,,,,FALSE,click #choice-2,,,,silence,,,,,217920.69999999995,217919.3999999999,215860.839,215871.7999999998,215877.505,217944.007,,,
Item 100,flow.Sequence,2_1_1,2022-05-09T17:18:09.353Z,,,,,,,,,,,,,,,,,,,,,,,,,,,,,,,35405.929999999906,,completion,,,,,,,,,,,,,,,,,,,,,217920.8999999999,217919.3999999999,182496.804,182503.59999999986,182513.47,217944.007,,,
End of Practice,html.Page,2_1_2,2022-05-09T17:18:13.856Z,,,,,,,,,,,,,,,,,,,,,,,,,,,,,,,4479.092999999848,,form submission,,,,,,,,,,,,,,,,,,,,,222423.59999999986,222423.09999999986,217927.341,217921.19999999995,217944.007,222443.636,,,
Practice,flow.Sequence,2_1,2022-05-09T17:18:13.856Z,,,,,,,,,,,,,,,,,,,,,,,,,,,,,,,80572.98499999987,,completion,,,,,,,,,,,,,,,,,,,,,222424,222423.09999999986,141833.449,141842,141850.115,222443.636,,,
Trap_instruction,html.Page,2_2_0,2022-05-09T17:18:16.193Z,,,,,,,,,,,,,,,,,,,,,,,,,,,,,,,2315.9639999998617,,form submission,,,,,,,,,,,,,,,,,,,,,224760.19999999995,224759.59999999986,222426.97,222424.19999999995,222443.636,224893.459,,,
trap_trial,html.Screen,2_2_1,2022-05-09T17:18:20.100Z,,,,,,,,,,,,,,,,,,,,,,,,,,,,true,1,,3773.0409999999974,,response,,,,,,,,,,,1,click #choice-1,,,,,,,,,228668,228666.5,224743.465,224760.5,224893.459,228693.328,,,
end of trap trial,html.Page,2_2_2,2022-05-09T17:18:21.814Z,,,,,,,,,,,,,,,,,,,,,,,,,,,,,,,1688.2719999998517,,form submission,,,,,,,,,,,,,,,,,,,,,230382,230381.59999999986,228676.662,228668.2999999998,228693.328,230392.972,,,
Trap 1,flow.Sequence,2_2,2022-05-09T17:18:21.815Z,,,,,,,,,,,,,,,,,,,,,,,,,,,,,,,7937.963999999862,,completion,,,,,,,,,,,,,,,,,,,,,230382.2999999998,230381.59999999986,222426.97,222424.09999999986,222443.636,230392.972,,,
Standby,html.Page,2_3_0,2022-05-09T17:18:29.812Z,,,,,,,,,,,,,,,,,,,,,,,,,,,,,,,7999.673999999999,,timeout,,,,,,,,,,,,,,,,,,,,,238379.19999999995,238375.98,230376.306,230382.5,230392.972,238392.646,,,
Holding screen,html.Screen,2_3_1_0_0,2022-05-09T17:18:36.809Z,,,,,,,,,,,,,,,,,,,,,,,,,,,,,,,6999.149000000005,,timeout,,,,,,,,,,,,,,,,,,,,,245376.3999999999,245375.129,238375.98,238379.5,238392.646,245391.795,,,
screen,html.Screen,2_3_1_0_1_0,2022-05-09T17:18:37.774Z,,,,,,,,,,,,,,,,,40,,,,,,,,,,,,,,947.8049999998475,,response,,,,9,G,,,,,,Space,keypress(Space),,,,instrumental,,,,Police -- ------- ---- ---- ---- - -------- ----- --- --<br>----- ----- ------ -- ---- -- --- - ---- -- - ----- -----<br>------ ---- ------ ---- - -------- ------- -- --- --------<br>-------- ----------- ---- ------ ---- ------ ---- --- ---<br>-------- --- -----,246342.2999999998,246339.59999999986,245375.129,245376.69999999995,245391.795,246341.7,,0,Police
screen,html.Screen,2_3_1_0_1_1,2022-05-09T17:18:38.116Z,,,,,,,,,,,,,,,,,40,,,,,,,,,,,,,,341.1999999998952,,response,,,,9,G,,,,,,Space,keypress(Space),,,,instrumental,,,,------ in ------- ---- ---- ---- - -------- ----- --- --<br>----- ----- ------ -- ---- -- --- - ---- -- - ----- -----<br>------ ---- ------ ---- - -------- ------- -- --- --------<br>-------- ----------- ---- ------ ---- ------ ---- --- ---<br>-------- --- -----,246684.19999999995,246682.8999999999,246325.034,246342.7999999998,246341.7,246691.814,,1,in
screen,html.Screen,2_3_1_0_1_2,2022-05-09T17:18:38.531Z,,,,,,,,,,,,,,,,,40,,,,,,,,,,,,,,406.4859999998007,,response,,,,9,G,,,,,,Space,keypress(Space),,,,instrumental,,,,------ -- Georgia ---- ---- ---- - -------- ----- --- --<br>----- ----- ------ -- ---- -- --- - ---- -- - ----- -----<br>------ ---- ------ ---- - -------- ------- -- --- --------<br>-------- ----------- ---- ------ ---- ------ ---- --- ---<br>-------- --- -----,247099.2999999998,247098.2999999998,246675.148,246684.2999999998,246691.814,247108.291,,2,Georgia
screen,html.Screen,2_3_1_0_1_3,2022-05-09T17:18:38.895Z,,,,,,,,,,,,,,,,,40,,,,,,,,,,,,,,353.80899999986286,,response,,,,9,G,,,,,,Space,keypress(Space),,,,instrumental,,,,------ -- ------- have ---- ---- - -------- ----- --- --<br>----- ----- ------ -- ---- -- --- - ---- -- - ----- -----<br>------ ---- ------ ---- - -------- ------- -- --- --------<br>-------- ----------- ---- ------ ---- ------ ---- --- ---<br>-------- --- -----,247463.09999999986,247462.09999999986,247091.625,247099.59999999986,247108.291,247474.987,,3,have
screen,html.Screen,2_3_1_0_1_4,2022-05-09T17:18:39.242Z,,,,,,,,,,,,,,,,,40,,,,,,,,,,,,,,333.81299999982,,response,,,,9,G,,,,,,Space,keypress(Space),,,,instrumental,,,,------ -- ------- ---- shut ---- - -------- ----- --- --<br>----- ----- ------ -- ---- -- --- - ---- -- - ----- -----<br>------ ---- ------ ---- - -------- ------- -- --- --------<br>-------- ----------- ---- ------ ---- ------ ---- --- ---<br>-------- --- -----,247810,247808.7999999998,247458.321,247463.3999999999,247474.987,247824.859,,4,shut
screen,html.Screen,2_3_1_0_1_5,2022-05-09T17:18:39.574Z,,,,,,,,,,,,,,,,,40,,,,,,,,,,,,,,316.5409999999101,,response,,,,9,G,,,,,,Space,keypress(Space),,,,instrumental,,,,------ -- ------- ---- ---- down - -------- ----- --- --<br>----- ----- ------ -- ---- -- --- - ---- -- - ----- -----<br>------ ---- ------ ---- - -------- ------- -- --- --------<br>-------- ----------- ---- ------ ---- ------ ---- --- ---<br>-------- --- -----,248142.3999999999,248141.3999999999,247808.193,247810.19999999995,247824.859,248158.208,,5,down
screen,html.Screen,2_3_1_0_1_6,2022-05-09T17:18:39.886Z,,,,,,,,,,,,,,,,,40,,,,,,,,,,,,,,294.79199999998673,,response,,,,9,G,,,,,,Space,keypress(Space),,,,instrumental,,,,------ -- ------- ---- ---- ---- a -------- ----- --- --<br>----- ----- ------ -- ---- -- --- - ---- -- - ----- -----<br>------ ---- ------ ---- - -------- ------- -- --- --------<br>-------- ----------- ---- ------ ---- ------ ---- --- ---<br>-------- --- -----,248453.8999999999,248453,248141.542,248142.5,248158.208,248458.17,,6,a
screen,html.Screen,2_3_1_0_1_7,2022-05-09T17:18:40.163Z,,,,,,,,,,,,,,,,,40,,,,,,,,,,,,,,272.3299999999872,,response,,,,9,G,,,,,,Space,keypress(Space),,,,instrumental,,,,------ -- ------- ---- ---- ---- - lemonade ----- --- --<br>----- ----- ------ -- ---- -- --- - ---- -- - ----- -----<br>------ ---- ------ ---- - -------- ------- -- --- --------<br>-------- ----------- ---- ------ ---- ------ ---- --- ---<br>-------- --- -----,248731.5,248730.5,248441.504,248454.09999999986,248458.17,248741.472,,7,lemonade
screen,html.Screen,2_3_1_0_1_8,2022-05-09T17:18:40.697Z,,,,,,,,,,,,,,,,,40,,,,,,,,,,,,,,521.427999999898,,response,,,,9,G,,,,,,Space,keypress(Space),,,,instrumental,,,,------ -- ------- ---- ---- ---- - -------- stand --- --<br>----- ----- ------ -- ---- -- --- - ---- -- - ----- -----<br>------ ---- ------ ---- - -------- ------- -- --- --------<br>-------- ----------- ---- ------ ---- ------ ---- --- ---<br>-------- --- -----,249264.8999999999,249262.8999999999,248724.806,248731.59999999986,248741.472,249274.772,,8,stand
screen,html.Screen,2_3_1_0_1_9,2022-05-09T17:18:40.945Z,,,,,,,,,,,,,,,,,40,,,,,,,,,,,,,,237.02799999981653,,response,,,,9,G,,,,,,Space,keypress(Space),,,,instrumental,,,,------ -- ------- ---- ---- ---- - -------- ----- run --<br>----- ----- ------ -- ---- -- --- - ---- -- - ----- -----<br>------ ---- ------ ---- - -------- ------- -- --- --------<br>-------- ----------- ---- ------ ---- ------ ---- --- ---<br>-------- --- -----,249513.2999999998,249511.7999999998,249258.106,249265.2999999998,249274.772,249524.766,,9,run
screen,html.Screen,2_3_1_0_1_10,2022-05-09T17:18:41.270Z,,,,,,,,,,,,,,,,,40,,,,,,,,,,,,,,310.33399999985704,,response,,,,9,G,,,,,,Space,keypress(Space),,,,instrumental,,,,------ -- ------- ---- ---- ---- - -------- ----- --- by<br>----- ----- ------ -- ---- -- --- - ---- -- - ----- -----<br>------ ---- ------ ---- - -------- ------- -- --- --------<br>-------- ----------- ---- ------ ---- ------ ---- --- ---<br>-------- --- -----,249838.19999999995,249835.09999999986,249508.1,249513.5,249524.766,249841.419,,10,by
screen,html.Screen,2_3_1_0_1_11,2022-05-09T17:18:41.654Z,,,,,,,,,,,,,,,,,40,,,,,,,,,,,,,,377.0810000000056,,response,,,,9,G,,,,,,Space,keypress(Space),,,,instrumental,,,,------ -- ------- ---- ---- ---- - -------- ----- --- --<br>three ----- ------ -- ---- -- --- - ---- -- - ----- -----<br>------ ---- ------ ---- - -------- ------- -- --- --------<br>-------- ----------- ---- ------ ---- ------ ---- --- ---<br>-------- --- -----,250222.09999999986,250218.5,249824.753,249838.59999999986,249841.419,250224.879,,11,three
screen,html.Screen,2_3_1_0_1_12,2022-05-09T17:18:41.989Z,,,,,,,,,,,,,,,,,40,,,,,,,,,,,,,,331.4209999998275,,response,,,,9,G,,,,,,Space,keypress(Space),,,,instrumental,,,,------ -- ------- ---- ---- ---- - -------- ----- --- --<br>----- girls ------ -- ---- -- --- - ---- -- - ----- -----<br>------ ---- ------ ---- - -------- ------- -- --- --------<br>-------- ----------- ---- ------ ---- ------ ---- --- ---<br>-------- --- -----,250557.19999999995,250556.2999999998,250208.213,250222.59999999986,250224.879,250558.204,,12,girls
screen,html.Screen,2_3_1_0_1_13,2022-05-09T17:18:42.239Z,,,,,,,,,,,,,,,,,40,,,,,,,,,,,,,,246.2960000000021,,response,,,,9,G,,,,,,Space,keypress(Space),,,,instrumental,,,,------ -- ------- ---- ---- ---- - -------- ----- --- --<br>----- ----- trying -- ---- -- --- - ---- -- - ----- -----<br>------ ---- ------ ---- - -------- ------- -- --- --------<br>-------- ----------- ---- ------ ---- ------ ---- --- ---<br>-------- --- -----,250807.09999999986,250804.5,250541.538,250557.3999999999,250558.204,250824.742,,13,trying
screen,html.Screen,2_3_1_0_1_14,2022-05-09T17:18:42.512Z,,,,,,,,,,,,,,,,,40,,,,,,,,,,,,,,254.1579999999085,,response,,,,9,G,,,,,,Space,keypress(Space),,,,instrumental,,,,------ -- ------- ---- ---- ---- - -------- ----- --- --<br>----- ----- ------ to ---- -- --- - ---- -- - ----- -----<br>------ ---- ------ ---- - -------- ------- -- --- --------<br>-------- ----------- ---- ------ ---- ------ ---- --- ---<br>-------- --- -----,251080.5,251078.8999999999,250808.076,250807.5,250824.742,251091.246,,14,to
screen,html.Screen,2_3_1_0_1_15,2022-05-09T17:18:42.750Z,,,,,,,,,,,,,,,,,40,,,,,,,,,,,,,,225.15399999989313,,response,,,,9,G,,,,,,Space,keypress(Space),,,,instrumental,,,,------ -- ------- ---- ---- ---- - -------- ----- --- --<br>----- ----- ------ -- save -- --- - ---- -- - ----- -----<br>------ ---- ------ ---- - -------- ------- -- --- --------<br>-------- ----------- ---- ------ ---- ------ ---- --- ---<br>-------- --- -----,251318,251316.3999999999,251074.58,251080.69999999995,251091.246,251324.617,,15,save
screen,html.Screen,2_3_1_0_1_16,2022-05-09T17:18:42.980Z,,,,,,,,,,,,,,,,,40,,,,,,,,,,,,,,221.38300000000163,,response,,,,9,G,,,,,,Space,keypress(Space),,,,instrumental,,,,------ -- ------- ---- ---- ---- - -------- ----- --- --<br>----- ----- ------ -- ---- up --- - ---- -- - ----- -----<br>------ ---- ------ ---- - -------- ------- -- --- --------<br>-------- ----------- ---- ------ ---- ------ ---- --- ---<br>-------- --- -----,251548.19999999995,251546,251307.951,251318.2999999998,251324.617,251557.95,,16,up
screen,html.Screen,2_3_1_0_1_17,2022-05-09T17:18:43.237Z,,,,,,,,,,,,,,,,,40,,,,,,,,,,,,,,244.64999999984866,,response,,,,9,G,,,,,,Space,keypress(Space),,,,instrumental,,,,------ -- ------- ---- ---- ---- - -------- ----- --- --<br>----- ----- ------ -- ---- -- for - ---- -- - ----- -----<br>------ ---- ------ ---- - -------- ------- -- --- --------<br>-------- ----------- ---- ------ ---- ------ ---- --- ---<br>-------- --- -----,251805.3999999999,251802.59999999986,251541.284,251548.5,251557.95,251807.933,,17,for
screen,html.Screen,2_3_1_0_1_18,2022-05-09T17:18:43.501Z,,,,,,,,,,,,,,,,,40,,,,,,,,,,,,,,259.6669999998703,,response,,,,9,G,,,,,,Space,keypress(Space),,,,instrumental,,,,------ -- ------- ---- ---- ---- - -------- ----- --- --<br>----- ----- ------ -- ---- -- --- a ---- -- - ----- -----<br>------ ---- ------ ---- - -------- ------- -- --- --------<br>-------- ----------- ---- ------ ---- ------ ---- --- ---<br>-------- --- -----,252069.3999999999,252067.59999999986,251791.267,251805.8999999999,251807.933,252074.6,,18,a
screen,html.Screen,2_3_1_0_1_19,2022-05-09T17:18:43.747Z,,,,,,,,,,,,,,,,,40,,,,,,,,,,,,,,237.79999999990105,,response,,,,9,G,,,,,,Space,keypress(Space),,,,instrumental,,,,------ -- ------- ---- ---- ---- - -------- ----- --- --<br>----- ----- ------ -- ---- -- --- - trip -- - ----- -----<br>------ ---- ------ ---- - -------- ------- -- --- --------<br>-------- ----------- ---- ------ ---- ------ ---- --- ---<br>-------- --- -----,252314.69999999995,252312.3999999999,252057.934,252069.69999999995,252074.6,252324.635,,19,trip
screen,html.Screen,2_3_1_0_1_20,2022-05-09T17:18:44.131Z,,,,,,,,,,,,,,,,,40,,,,,,,,,,,,,,372.3649999999907,,response,,,,9,G,,,,,,Space,keypress(Space),,,,instrumental,,,,------ -- ------- ---- ---- ---- - -------- ----- --- --<br>----- ----- ------ -- ---- -- --- - ---- to - ----- -----<br>------ ---- ------ ---- - -------- ------- -- --- --------<br>-------- ----------- ---- ------ ---- ------ ---- --- ---<br>-------- --- -----,252699.09999999986,252697,252307.969,252315.09999999986,252324.635,252708.017,,20,to
screen,html.Screen,2_3_1_0_1_21,2022-05-09T17:18:44.410Z,,,,,,,,,,,,,,,,,40,,,,,,,,,,,,,,267.98300000000745,,response,,,,9,G,,,,,,Space,keypress(Space),,,,instrumental,,,,------ -- ------- ---- ---- ---- - -------- ----- --- --<br>----- ----- ------ -- ---- -- --- - ---- -- a ----- -----<br>------ ---- ------ ---- - -------- ------- -- --- --------<br>-------- ----------- ---- ------ ---- ------ ---- --- ---<br>-------- --- -----,252978.09999999986,252976,252691.351,252699.3999999999,252708.017,252991.23,,21,a
screen,html.Screen,2_3_1_0_1_22,2022-05-09T17:18:44.752Z,,,,,,,,,,,,,,,,,40,,,,,,,,,,,,,,328.06999999980326,,response,,,,9,G,,,,,,Space,keypress(Space),,,,instrumental,,,,------ -- ------- ---- ---- ---- - -------- ----- --- --<br>----- ----- ------ -- ---- -- --- - ---- -- - water -----<br>------ ---- ------ ---- - -------- ------- -- --- --------<br>-------- ----------- ---- ------ ---- ------ ---- --- ---<br>-------- --- -----,253320.59999999986,253319.2999999998,252974.564,252978.3999999999,252991.23,253324.594,,22,water
screen,html.Screen,2_3_1_0_1_23,2022-05-09T17:18:45.098Z,,,,,,,,,,,,,,,,,40,,,,,,,,,,,,,,340.0059999998484,,response,,,,9,G,,,,,,Space,keypress(Space),,,,instrumental,,,,"------ -- ------- ---- ---- ---- - -------- ----- --- --<br>----- ----- ------ -- ---- -- --- - ---- -- - ----- park,<br>------ ---- ------ ---- - -------- ------- -- --- --------<br>-------- ----------- ---- ------ ---- ------ ---- --- ---<br>-------- --- -----",253666.3999999999,253664.59999999986,253307.928,253320.7999999998,253324.594,253674.43,,23,"park,"
screen,html.Screen,2_3_1_0_1_24,2022-05-09T17:18:45.566Z,,,,,,,,,,,,,,,,,40,,,,,,,,,,,,,,457.570000000007,,response,,,,9,G,,,,,,Space,keypress(Space),,,,instrumental,,,,------ -- ------- ---- ---- ---- - -------- ----- --- --<br>----- ----- ------ -- ---- -- --- - ---- -- - ----- -----<br>saying ---- ------ ---- - -------- ------- -- --- --------<br>-------- ----------- ---- ------ ---- ------ ---- --- ---<br>-------- --- -----,254133.7999999998,254132,253657.764,253666.59999999986,253674.43,254141.104,,24,saying
screen,html.Screen,2_3_1_0_1_25,2022-05-09T17:18:45.839Z,,,,,,,,,,,,,,,,,40,,,,,,,,,,,,,,264.59599999996135,,response,,,,9,G,,,,,,Space,keypress(Space),,,,instrumental,,,,------ -- ------- ---- ---- ---- - -------- ----- --- --<br>----- ----- ------ -- ---- -- --- - ---- -- - ----- -----<br>------ they ------ ---- - -------- ------- -- --- --------<br>-------- ----------- ---- ------ ---- ------ ---- --- ---<br>-------- --- -----,254406.7999999998,254405.69999999995,254124.438,254134.19999999995,254141.104,254407.838,,25,they
screen,html.Screen,2_3_1_0_1_26,2022-05-09T17:18:46.088Z,,,,,,,,,,,,,,,,,40,,,,,,,,,,,,,,245.8619999999646,,response,,,,9,G,,,,,,Space,keypress(Space),,,,instrumental,,,,------ -- ------- ---- ---- ---- - -------- ----- --- --<br>----- ----- ------ -- ---- -- --- - ---- -- - ----- -----<br>------ ---- didn't ---- - -------- ------- -- --- --------<br>-------- ----------- ---- ------ ---- ------ ---- --- ---<br>-------- --- -----,254656.5,254653.69999999995,254391.172,254407,254407.838,254674.561,,26,didn't
screen,html.Screen,2_3_1_0_1_27,2022-05-09T17:18:46.448Z,,,,,,,,,,,,,,,,,40,,,,,,,,,,,,,,340.1389999999665,,response,,,,9,G,,,,,,Space,keypress(Space),,,,instrumental,,,,------ -- ------- ---- ---- ---- - -------- ----- --- --<br>----- ----- ------ -- ---- -- --- - ---- -- - ----- -----<br>------ ---- ------ have - -------- ------- -- --- --------<br>-------- ----------- ---- ------ ---- ------ ---- --- ---<br>-------- --- -----,255016.19999999995,255014.69999999995,254657.895,254657.09999999986,254674.561,255024.37,,27,have
screen,html.Screen,2_3_1_0_1_28,2022-05-09T17:18:46.809Z,,,,,,,,,,,,,,,,,40,,,,,,,,,,,,,,350.8299999999581,,response,,,,9,G,,,,,,Space,keypress(Space),,,,instrumental,,,,------ -- ------- ---- ---- ---- - -------- ----- --- --<br>----- ----- ------ -- ---- -- --- - ---- -- - ----- -----<br>------ ---- ------ ---- a -------- ------- -- --- --------<br>-------- ----------- ---- ------ ---- ------ ---- --- ---<br>-------- --- -----,255377,255375.19999999995,255007.704,255017.2999999998,255024.37,255391.073,,28,a
screen,html.Screen,2_3_1_0_1_29,2022-05-09T17:18:47.105Z,,,,,,,,,,,,,,,,,40,,,,,,,,,,,,,,280.2269999998098,,response,,,,9,G,,,,,,Space,keypress(Space),,,,instrumental,,,,------ -- ------- ---- ---- ---- - -------- ----- --- --<br>----- ----- ------ -- ---- -- --- - ---- -- - ----- -----<br>------ ---- ------ ---- - business ------- -- --- --------<br>-------- ----------- ---- ------ ---- ------ ---- --- ---<br>-------- --- -----,255672.69999999995,255671.2999999998,255374.407,255377.19999999995,255391.073,255674.282,,29,business
screen,html.Screen,2_3_1_0_1_30,2022-05-09T17:18:47.689Z,,,,,,,,,,,,,,,,,40,,,,,,,,,,,,,,578.8179999998538,,response,,,,9,G,,,,,,Space,keypress(Space),,,,instrumental,,,,------ -- ------- ---- ---- ---- - -------- ----- --- --<br>----- ----- ------ -- ---- -- --- - ---- -- - ----- -----<br>------ ---- ------ ---- - -------- license -- --- --------<br>-------- ----------- ---- ------ ---- ------ ---- --- ---<br>-------- --- -----,256257.19999999995,256253.09999999986,255657.616,255672.8999999999,255674.282,256274.244,,30,license
screen,html.Screen,2_3_1_0_1_31,2022-05-09T17:18:48.022Z,,,,,,,,,,,,,,,,,40,,,,,,,,,,,,,,314.4559999999474,,response,,,,9,G,,,,,,Space,keypress(Space),,,,instrumental,,,,------ -- ------- ---- ---- ---- - -------- ----- --- --<br>----- ----- ------ -- ---- -- --- - ---- -- - ----- -----<br>------ ---- ------ ---- - -------- ------- or --- --------<br>-------- ----------- ---- ------ ---- ------ ---- --- ---<br>-------- --- -----,256590.09999999986,256588.69999999995,256257.578,256257.59999999986,256274.244,256590.99,,31,or
screen,html.Screen,2_3_1_0_1_32,2022-05-09T17:18:48.279Z,,,,,,,,,,,,,,,,,40,,,,,,,,,,,,,,254.40999999991618,,response,,,,9,G,,,,,,Space,keypress(Space),,,,instrumental,,,,------ -- ------- ---- ---- ---- - -------- ----- --- --<br>----- ----- ------ -- ---- -- --- - ---- -- - ----- -----<br>------ ---- ------ ---- - -------- ------- -- the --------<br>-------- ----------- ---- ------ ---- ------ ---- --- ---<br>-------- --- -----,256846.69999999995,256845.3999999999,256574.324,256590.19999999995,256590.99,256857.665,,32,the
screen,html.Screen,2_3_1_0_1_33,2022-05-09T17:18:49.023Z,,,,,,,,,,,,,,,,,40,,,,,,,,,,,,,,732.1349999998056,,response,,,,9,G,,,,,,Space,keypress(Space),,,,instrumental,,,,------ -- ------- ---- ---- ---- - -------- ----- --- --<br>----- ----- ------ -- ---- -- --- - ---- -- - ----- -----<br>------ ---- ------ ---- - -------- ------- -- --- required<br>-------- ----------- ---- ------ ---- ------ ---- --- ---<br>-------- --- -----,257590.8999999999,257589.7999999998,256840.999,256846.8999999999,256857.665,257607.556,,33,required
screen,html.Screen,2_3_1_0_1_34,2022-05-09T17:18:49.391Z,,,,,,,,,,,,,,,,,40,,,,,,,,,,,,,,350.84399999989546,,response,,,,9,G,,,,,,Space,keypress(Space),,,,instrumental,,,,------ -- ------- ---- ---- ---- - -------- ----- --- --<br>----- ----- ------ -- ---- -- --- - ---- -- - ----- -----<br>------ ---- ------ ---- - -------- ------- -- --- --------<br>permits. ----------- ---- ------ ---- ------ ---- --- ---<br>-------- --- -----,257959.59999999986,257958.3999999999,257590.89,257591.09999999986,257607.556,257974.19,,34,permits.
screen,html.Screen,2_3_1_0_1_35,2022-05-09T17:18:49.997Z,,,,,,,,,,,,,,,,,40,,,,,,,,,,,,,,589.1099999998114,,response,,,,9,G,,,,,,Space,keypress(Space),,,,instrumental,,,,------ -- ------- ---- ---- ---- - -------- ----- --- --<br>----- ----- ------ -- ---- -- --- - ---- -- - ----- -----<br>------ ---- ------ ---- - -------- ------- -- --- --------<br>-------- Morningstar ---- ------ ---- ------ ---- --- ---<br>-------- --- -----,258564.69999999995,258563.2999999998,257957.524,257959.7999999998,257974.19,258574.078,,35,Morningstar
screen,html.Screen,2_3_1_0_1_36,2022-05-09T17:18:50.470Z,,,,,,,,,,,,,,,,,40,,,,,,,,,,,,,,462.9219999999914,,response,,,,9,G,,,,,,Space,keypress(Space),,,,instrumental,,,,------ -- ------- ---- ---- ---- - -------- ----- --- --<br>----- ----- ------ -- ---- -- --- - ---- -- - ----- -----<br>------ ---- ------ ---- - -------- ------- -- --- --------<br>-------- ----------- says ------ ---- ------ ---- --- ---<br>-------- --- -----,259038.3999999999,259037,258557.412,258565,258574.078,259040.666,,36,says
screen,html.Screen,2_3_1_0_1_37,2022-05-09T17:18:50.803Z,,,,,,,,,,,,,,,,,40,,,,,,,,,,,,,,327.93399999986286,,response,,,,9,G,,,,,,Space,keypress(Space),,,,instrumental,,,,------ -- ------- ---- ---- ---- - -------- ----- --- --<br>----- ----- ------ -- ---- -- --- - ---- -- - ----- -----<br>------ ---- ------ ---- - -------- ------- -- --- --------<br>-------- ----------- ---- police ---- ------ ---- --- ---<br>-------- --- -----,259370.8999999999,259368.59999999986,259024,259038.69999999995,259040.666,259374.153,,37,police
screen,html.Screen,2_3_1_0_1_38,2022-05-09T17:18:51.151Z,,,,,,,,,,,,,,,,,40,,,,,,,,,,,,,,343.7469999999157,,response,,,,9,G,,,,,,Space,keypress(Space),,,,instrumental,,,,------ -- ------- ---- ---- ---- - -------- ----- --- --<br>----- ----- ------ -- ---- -- --- - ---- -- - ----- -----<br>------ ---- ------ ---- - -------- ------- -- --- --------<br>-------- ----------- ---- ------ also ------ ---- --- ---<br>-------- --- -----,259719.5,259717.8999999999,259357.487,259371.2999999998,259374.153,259724.086,,38,also
screen,html.Screen,2_3_1_0_1_39,2022-05-09T17:18:51.493Z,,,,,,,,,,,,,,,,,40,,,,,,,,,,,,,,335.3139999998966,,response,,,,9,G,,,,,,Space,keypress(Space),,,,instrumental,,,,------ -- ------- ---- ---- ---- - -------- ----- --- --<br>----- ----- ------ -- ---- -- --- - ---- -- - ----- -----<br>------ ---- ------ ---- - -------- ------- -- --- --------<br>-------- ----------- ---- ------ ---- didn't ---- --- ---<br>-------- --- -----,260061.5,260059.3999999999,259707.42,259719.8999999999,259724.086,260074.005,,39,didn't
screen,html.Screen,2_3_1_0_1_40,2022-05-09T17:18:51.860Z,,,,,,,,,,,,,,,,,40,,,,,,,,,,,,,,353.49499999999534,,response,,,,9,G,,,,,,Space,keypress(Space),,,,instrumental,,,,------ -- ------- ---- ---- ---- - -------- ----- --- --<br>----- ----- ------ -- ---- -- --- - ---- -- - ----- -----<br>------ ---- ------ ---- - -------- ------- -- --- --------<br>-------- ----------- ---- ------ ---- ------ know --- ---<br>-------- --- -----,260428.5,260427.5,260057.339,260061.8999999999,260074.005,260440.532,,40,know
screen,html.Screen,2_3_1_0_1_41,2022-05-09T17:18:52.096Z,,,,,,,,,,,,,,,,,40,,,,,,,,,,,,,,222.96799999999348,,response,,,,9,G,,,,,,Space,keypress(Space),,,,instrumental,,,,------ -- ------- ---- ---- ---- - -------- ----- --- --<br>----- ----- ------ -- ---- -- --- - ---- -- - ----- -----<br>------ ---- ------ ---- - -------- ------- -- --- --------<br>-------- ----------- ---- ------ ---- ------ ---- how ---<br>-------- --- -----,260664.3999999999,260663.5,260423.866,260428.7999999998,260440.532,260673.903,,41,how
screen,html.Screen,2_3_1_0_1_42,2022-05-09T17:18:52.414Z,,,,,,,,,,,,,,,,,40,,,,,,,,,,,,,,306.09700000000885,,response,,,,9,G,,,,,,Space,keypress(Space),,,,instrumental,,,,------ -- ------- ---- ---- ---- - -------- ----- --- --<br>----- ----- ------ -- ---- -- --- - ---- -- - ----- -----<br>------ ---- ------ ---- - -------- ------- -- --- --------<br>-------- ----------- ---- ------ ---- ------ ---- --- the<br>-------- --- -----,260982.3999999999,260980,260657.237,260664.59999999986,260673.903,260990.466,,42,the
screen,html.Screen,2_3_1_0_1_43,2022-05-09T17:18:52.816Z,,,,,,,,,,,,,,,,,40,,,,,,,,,,,,,,390.83399999982794,,response,,,,9,G,,,,,,Space,keypress(Space),,,,instrumental,,,,------ -- ------- ---- ---- ---- - -------- ----- --- --<br>----- ----- ------ -- ---- -- --- - ---- -- - ----- -----<br>------ ---- ------ ---- - -------- ------- -- --- --------<br>-------- ----------- ---- ------ ---- ------ ---- --- ---<br>lemonade --- -----,261383.69999999995,261381.2999999998,260973.8,260982.7999999998,260990.466,261390.655,,43,lemonade
screen,html.Screen,2_3_1_0_1_44,2022-05-09T17:18:53.195Z,,,,,,,,,,,,,,,,,40,,,,,,,,,,,,,,369.84500000000116,,response,,,,9,G,,,,,,Space,keypress(Space),,,,instrumental,,,,------ -- ------- ---- ---- ---- - -------- ----- --- --<br>----- ----- ------ -- ---- -- --- - ---- -- - ----- -----<br>------ ---- ------ ---- - -------- ------- -- --- --------<br>-------- ----------- ---- ------ ---- ------ ---- --- ---<br>-------- was -----,261762.69999999995,261760.5,261373.989,261384,261390.655,261773.911,,44,was
screen,html.Screen,2_3_1_0_1_45,2022-05-09T17:18:54.004Z,,,,,,,,,,,,,,,,,40,,,,,,,,,,,,,,796.4889999999141,,response,,,,9,G,,,,,,Space,keypress(Space),,,,instrumental,,,,------ -- ------- ---- ---- ---- - -------- ----- --- --<br>----- ----- ------ -- ---- -- --- - ---- -- - ----- -----<br>------ ---- ------ ---- - -------- ------- -- --- --------<br>-------- ----------- ---- ------ ---- ------ ---- --- ---<br>-------- --- made.,262572.19999999995,262570.3999999999,261757.245,261763.09999999986,261773.911,262590.502,,45,made.
Item 9,flow.Loop,2_3_1_0_1,2022-05-09T17:18:54.005Z,,,,,,,,,,,,,,,,,,,,,,,,,,,,,,,17178.604999999894,,completion,,,,,,,,,,,,,,,,,,,,,262572.7999999998,262570.3999999999,245375.129,245376.69999999995,245391.795,262590.502,,,
Question 1,html.Screen,2_3_1_0_2,2022-05-09T17:18:56.151Z,,,,,,,,,,,,,,,,,,,,,,,,,,,,true,FALSE,,2127.297999999835,,response,,,,9,G,,,,,,FALSE,click #choice-2,,,,instrumental,,,,,264719.2999999998,264717.7999999998,262573.836,262573.19999999995,262590.502,264740.139,,,
