sender,sender_type,sender_id,timestamp,meta,,Blues,Classical,Country,Dance,Electronic,Folk,Gospel,Hip-Hop,Jazz,Latin,Musical/Film,New-age,Pop,Prolific_id,Provo_ID,R&B,Rap,Reggae,Religious,Rock,Soul,Swing,Traditional,age,artist_name,correct,correctResponse,distraction,duration,education,ended_on,familiarity,gender,headphone_check_performance,item,list,music_frequency,offensiveness,pleasantness,position_correct,preference,response,response_action,snippet_file,song_name,song_rating,sound,stimulus_1,stimulus_2,stimulus_3,text,time_commit,time_end,time_render,time_run,time_show,time_switch,url,word,word_ID
Prolific ID,html.Form,0,2022-05-13T09:16:27.028Z,"{""labjs_version"":""20.2.2"",""labjs_build"":{""flavor"":""production"",""commit"":""a25486e0c714a0ae2ce03ff94b7bb6896854dcfa""},""location"":""https://run.pavlovia.org/mvasilev/prolific3_music_g/"",""userAgent"":""Mozilla/5.0 (Windows NT 10.0; Win64; x64) AppleWebKit/537.36 (KHTML, like Gecko) Chrome/101.0.4951.41 Safari/537.36 Edg/101.0.1210.32"",""platform"":""Win32"",""language"":""en-GB"",""locale"":""en-GB"",""timeZone"":""Europe/London"",""timezoneOffset"":-60,""screen_width"":1280,""screen_height"":720,""scroll_width"":1280,""scroll_height"":561,""window_innerWidth"":1280,""window_innerHeight"":609,""devicePixelRatio"":1.5}",,,,,,,,,,,,,,,5c7bc8ea5a669300172440fc,,,,,,,,,,,,,,,3770.251000095368,,form submission,,,,,,,,,,,,,,,,,,,,,19803.300000071526,19802.900000095367,15982.629,15996.5,16032.649,19815.451,{},,
Introduction,html.Screen,1_0,2022-05-13T09:16:30.541Z,,,,,,,,,,,,,,,,,,,,,,,,,,,,,,,3497.548999999999,,response,,,,,,,,,,,continue,click button,,,,,,,,,23316.200000047684,23313,19798.954,19803.600000023842,19815.451,23331.658,,,
Volume calibration,html.Screen,1_1,2022-05-13T09:17:08.668Z,,,,,,,,,,,,,,,,,,,,,,,,,,,,,,,38108.64200007153,,response,,,,,,,,,,,continue,click button,,,,,,,,,61442.40000009537,61440.300000071526,23298.37,23316.5,23331.658,61443.364,,,
Task instructions,html.Screen,1_2,2022-05-13T09:17:19.984Z,,,,,,,,,,,,,,,,,,,,,,,,,,,,,,,11313.436000071524,,response,,,,,,,,,,,continue,click button,,,,,,,,,72758.30000007153,72756.80000007153,61426.678,61442.5,61443.364,72775.217,,,
Sounds,html.Screen,1_3_0_0,2022-05-13T09:17:24.235Z,,,,,,,,,,,,,,,,,,,,,,,,,,,,,,,4249.390999999989,,timeout,,,,,,,,,2,,,,,,,,O,S,I,,77009.40000009537,77007.905,72758.615,72758.70000004768,72775.217,77024.608,,,
Judgement,html.Screen,1_3_0_1,2022-05-13T09:17:25.808Z,,,,,,,,,,,,,,,,,,,,,,,,,,,,true,2,,1555.392000000007,,response,,,,,,,,,2,,2,click #choice-2,,,,,O,S,I,,78582.30000007153,78580,77007.905,77009.5,77024.608,78591.124,,,
Trial,flow.Sequence,1_3_0,2022-05-13T09:17:25.809Z,,,,,,,,,,,,,,,,,,,,,,,,,,,,,,,5804.782999999996,,completion,,,,,,,,,2,,,,,,,,O,S,I,,78583,78580,72758.615,72758.60000002384,72775.217,78591.124,,,
Sounds,html.Screen,1_3_1_0,2022-05-13T09:17:30.051Z,,,,,,,,,,,,,,,,,,,,,,,,,,,,,,,4249.476999999999,,timeout,,,,,,,,,3,,,,,,,,O,I,S,,82825.5,82823.964,78574.56,78583.30000007153,78591.124,82840.601,,,
Judgement,html.Screen,1_3_1_1,2022-05-13T09:17:30.800Z,,,,,,,,,,,,,,,,,,,,,,,,,,,,true,3,,731.0990000476886,,response,,,,,,,,,3,,3,click #choice-3,,,,,O,I,S,,83573.90000009537,83571.70000004768,82823.964,82825.80000007153,82840.601,83573.826,,,
Trial,flow.Sequence,1_3_1,2022-05-13T09:17:30.800Z,,,,,,,,,,,,,,,,,,,,,,,,,,,,,,,4980.576000047688,,completion,,,,,,,,,3,,,,,,,,O,I,S,,83574.70000004768,83571.70000004768,78574.56,78583.20000004768,78591.124,83573.826,,,
Sounds,html.Screen,1_3_2_0,2022-05-13T09:17:35.035Z,,,,,,,,,,,,,,,,,,,,,,,,,,,,,,,4249.395999999993,,timeout,,,,,,,,,3,,,,,,,,I,O,S,,87809.5,87806.609,83557.184,83575.10000002384,83573.826,87823.222,,,
Judgement,html.Screen,1_3_2_1,2022-05-13T09:17:35.591Z,,,,,,,,,,,,,,,,,,,,,,,,,,,,true,3,,539.8780000238476,,response,,,,,,,,,3,,3,click #choice-3,,,,,I,O,S,,88364.90000009537,88363.10000002384,87806.609,87809.70000004768,87823.222,88373.24,,,
Trial,flow.Sequence,1_3_2,2022-05-13T09:17:35.591Z,,,,,,,,,,,,,,,,,,,,,,,,,,,,,,,4789.274000023841,,completion,,,,,,,,,3,,,,,,,,I,O,S,,88365.40000009537,88363.10000002384,83557.184,83575,83573.826,88373.24,,,
Sounds,html.Screen,1_3_3_0,2022-05-13T09:17:39.834Z,,,,,,,,,,,,,,,,,,,,,,,,,,,,,,,4249.362999999998,,timeout,,,,,,,,,1,,,,,,,,S,O,I,,92607.70000004768,92605.946,88356.587,88365.70000004768,88373.24,92622.603,,,
Judgement,html.Screen,1_3_3_1,2022-05-13T09:17:40.929Z,,,,,,,,,,,,,,,,,,,,,,,,,,,,true,1,,1080.3969999999972,,response,,,,,,,,,1,,1,click #choice-1,,,,,S,O,I,,93703.60000002384,93703,92605.946,92608,92622.603,93705.789,,,
Trial,flow.Sequence,1_3_3,2022-05-13T09:17:40.929Z,,,,,,,,,,,,,,,,,,,,,,,,,,,,,,,5329.759999999995,,completion,,,,,,,,,1,,,,,,,,S,O,I,,93703.60000002384,93703,88356.587,88365.60000002384,88373.24,93705.789,,,
Sounds,html.Screen,1_3_4_0,2022-05-13T09:17:45.165Z,,,,,,,,,,,,,,,,,,,,,,,,,,,,,,,4249.423999999999,,timeout,,,,,,,,,2,,,,,,,,I,S,O,,97939.10000002384,97938.522,93689.126,93703.80000007153,93705.789,97955.213,,,
Judgement,html.Screen,1_3_4_1,2022-05-13T09:17:45.807Z,,,,,,,,,,,,,,,,,,,,,,,,,,,,true,2,,625.8870000238385,,response,,,,,,,,,2,,2,click #choice-2,,,,,I,S,O,,98581.70000004768,98581.10000002384,97938.522,97939.20000004768,97955.213,98588.47,,,
Trial,flow.Sequence,1_3_4,2022-05-13T09:17:45.807Z,,,,,,,,,,,,,,,,,,,,,,,,,,,,,,,4875.311000023838,,completion,,,,,,,,,2,,,,,,,,I,S,O,,98581.80000007153,98581.10000002384,93689.126,93703.70000004768,93705.789,98588.47,,,
Sounds,html.Screen,1_3_5_0,2022-05-13T09:17:50.049Z,,,,,,,,,,,,,,,,,,,,,,,,,,,,,,,4249.542000000001,,timeout,,,,,,,,,1,,,,,,,,S,I,O,,102823.30000007153,102821.385,98571.771,98581.80000007153,98588.47,102838.012,,,
Judgement,html.Screen,1_3_5_1,2022-05-13T09:17:51.013Z,,,,,,,,,,,,,,,,,,,,,,,,,,,,true,1,,948.4879999999976,,response,,,,,,,,,1,,1,click #choice-1,,,,,S,I,O,,103787.20000004768,103786.5,102821.385,102823.80000007153,102838.012,103787.776,,,
Trial,flow.Sequence,1_3_5,2022-05-13T09:17:51.013Z,,,,,,,,,,,,,,,,,,,,,,,,,,,,,,,5198.029999999999,,completion,,,,,,,,,1,,,,,,,,S,I,O,,103787.40000009537,103786.5,98571.771,98581.80000007153,98588.47,103787.776,,,
Task,flow.Loop,1_3,2022-05-13T09:17:51.016Z,,,,,,,,,,,,,,,,,,,,,,,,,,,,,,,31011.282999999996,,completion,,,1,,,,,,,,,,,,,,,,,,103790.5,103786.5,72758.615,72758.60000002384,72775.217,103787.776,,,
Trap,html.Screen,1_4,2022-05-13T09:17:51.017Z,,,,,,,,,,,,,,,,,,,,,,,,,,,,,,,NaN,,skipped,,,,,,,,,,,,,,,,,,,,,103791.40000009537,103786.5,,103791.30000007153,,103787.776,,,
Thanks,html.Screen,1_5,2022-05-13T09:17:55.537Z,,,,,,,,,,,,,,,,,,,,,,,,,,,,,,,4522.024000071528,,response,,,,,,,,,,,continue,click button,,,,,,,,,108311.40000009537,108309.80000007153,103771.099,103791.5,103787.776,114386.39,,,
Headphone screening,flow.Sequence,1,2022-05-13T09:17:55.538Z,,,,,,,,,,,,,,,,,,,,,,,,,,,,,,,88494.34900007152,,completion,,,,,,,,,,,,,,,,,,,,,108311.90000009537,108309.80000007153,19798.954,19803.600000023842,19815.451,114386.39,,,
Instructions,html.Page,2_0,2022-05-13T09:18:33.903Z,,,,,,,,,,,,,,,,,,,,,,,,,,,,,,,32291.210000023842,,form submission,,,,,,,,,,,,,,,,,,,,,146678.20000004768,146677.60000002384,114369.715,114383,114386.39,146682.183,,,
Holding screen,html.Screen,2_1_0_0,2022-05-13T09:18:43.890Z,,,,,,,,,,,,,,,,,,,,,,,,,,,,,,,9998.649000000005,,timeout,,,,,,,,,,,,,,,,,,,,,156664.60000002384,156664.14,146665.543,146678.60000002384,146682.183,156680.832,,,
screen,html.Screen,2_1_0_1_0,2022-05-13T09:18:46.283Z,,,,,,,,,,,,,,,,,53,,,,,,,,,,,,,,2375.0680000953726,,response,,,,99,,,,,,,Space,keypress(Space),,,,,,,,When -- ----- -- ------ - ------- --- ----------<br>------------- ------ ------ ---- ---- ------- ----- -- ----<br>-------- ------- -- ---------- --- - --- ----- ----- ----<br>---- --- --- ----- --- ---- ---- ------- ----- ---- -------<br>--- --- -- ----- -- --- ---- -- --- ---- -- ------ ------<br>--- ----- -- ----,159057.40000009537,159055.90000009537,156664.14,156664.70000004768,156680.832,159063.855,,0,When
screen,html.Screen,2_1_0_1_1,2022-05-13T09:18:46.908Z,,,,,,,,,,,,,,,,,53,,,,,,,,,,,,,,618.2450000238314,,response,,,,99,,,,,,,Space,keypress(Space),,,,,,,,---- it ----- -- ------ - ------- --- ----------<br>------------- ------ ------ ---- ---- ------- ----- -- ----<br>-------- ------- -- ---------- --- - --- ----- ----- ----<br>---- --- --- ----- --- ---- ---- ------- ----- ---- -------<br>--- --- -- ----- -- --- ---- -- --- ---- -- ------ ------<br>--- ----- -- ----,159682.5,159682.10000002384,159047.154,159057.40000009537,159063.855,159697.112,,1,it
screen,html.Screen,2_1_0_1_2,2022-05-13T09:18:47.459Z,,,,,,,,,,,,,,,,,53,,,,,,,,,,,,,,535.6880000715319,,response,,,,99,,,,,,,Space,keypress(Space),,,,,,,,---- -- comes -- ------ - ------- --- ----------<br>------------- ------ ------ ---- ---- ------- ----- -- ----<br>-------- ------- -- ---------- --- - --- ----- ----- ----<br>---- --- --- ----- --- ---- ---- ------- ----- ---- -------<br>--- --- -- ----- -- --- ---- -- --- ---- -- ------ ------<br>--- ----- -- ----,160233.5,160232.80000007153,159680.638,159682.70000004768,159697.112,160247.028,,2,comes
screen,html.Screen,2_1_0_1_3,2022-05-13T09:18:48.049Z,,,,,,,,,,,,,,,,,53,,,,,,,,,,,,,,575.7720000715344,,response,,,,99,,,,,,,Space,keypress(Space),,,,,,,,---- -- ----- to ------ - ------- --- ----------<br>------------- ------ ------ ---- ---- ------- ----- -- ----<br>-------- ------- -- ---------- --- - --- ----- ----- ----<br>---- --- --- ----- --- ---- ---- ------- ----- ---- -------<br>--- --- -- ----- -- --- ---- -- --- ---- -- ------ ------<br>--- ----- -- ----,160823.80000007153,160822.80000007153,160230.512,160233.70000004768,160247.028,160830.364,,3,to
screen,html.Screen,2_1_0_1_4,2022-05-13T09:18:48.597Z,,,,,,,,,,,,,,,,,53,,,,,,,,,,,,,,540.1359999999986,,response,,,,99,,,,,,,Space,keypress(Space),,,,,,,,---- -- ----- -- having - ------- --- ----------<br>------------- ------ ------ ---- ---- ------- ----- -- ----<br>-------- ------- -- ---------- --- - --- ----- ----- ----<br>---- --- --- ----- --- ---- ---- ------- ----- ---- -------<br>--- --- -- ----- -- --- ---- -- --- ---- -- ------ ------<br>--- ----- -- ----,161371.60000002384,161370.5,160813.655,160824,160830.364,161380.213,,4,having
screen,html.Screen,2_1_0_1_5,2022-05-13T09:18:49.067Z,,,,,,,,,,,,,,,,,53,,,,,,,,,,,,,,460.2870000000112,,response,,,,99,,,,,,,Space,keypress(Space),,,,,,,,---- -- ----- -- ------ a ------- --- ----------<br>------------- ------ ------ ---- ---- ------- ----- -- ----<br>-------- ------- -- ---------- --- - --- ----- ----- ----<br>---- --- --- ----- --- ---- ---- ------- ----- ---- -------<br>--- --- -- ----- -- --- ---- -- --- ---- -- ------ ------<br>--- ----- -- ----,161841.5,161840.5,161363.617,161371.90000009537,161380.213,161846.885,,5,a
screen,html.Screen,2_1_0_1_6,2022-05-13T09:18:49.552Z,,,,,,,,,,,,,,,,,53,,,,,,,,,,,,,,479.71500002383254,,response,,,,99,,,,,,,Space,keypress(Space),,,,,,,,---- -- ----- -- ------ - lasting --- ----------<br>------------- ------ ------ ---- ---- ------- ----- -- ----<br>-------- ------- -- ---------- --- - --- ----- ----- ----<br>---- --- --- ----- --- ---- ---- ------- ----- ---- -------<br>--- --- -- ----- -- --- ---- -- --- ---- -- ------ ------<br>--- ----- -- ----,162327.10000002384,162326.60000002384,161830.261,161841.70000004768,161846.885,162330.074,,6,lasting
screen,html.Screen,2_1_0_1_7,2022-05-13T09:18:50.037Z,,,,,,,,,,,,,,,,,53,,,,,,,,,,,,,,480.92600000000675,,response,,,,99,,,,,,,Space,keypress(Space),,,,,,,,---- -- ----- -- ------ - ------- and ----------<br>------------- ------ ------ ---- ---- ------- ----- -- ----<br>-------- ------- -- ---------- --- - --- ----- ----- ----<br>---- --- --- ----- --- ---- ---- ------- ----- ---- -------<br>--- --- -- ----- -- --- ---- -- --- ---- -- ------ ------<br>--- ----- -- ----,162811.80000007153,162811,162313.602,162327.20000004768,162330.074,162813.402,,7,and
screen,html.Screen,2_1_0_1_8,2022-05-13T09:18:50.583Z,,,,,,,,,,,,,,,,,53,,,,,,,,,,,,,,543.0979999999981,,response,,,,99,,,,,,,Space,keypress(Space),,,,,,,,---- -- ----- -- ------ - ------- --- fulfilling<br>------------- ------ ------ ---- ---- ------- ----- -- ----<br>-------- ------- -- ---------- --- - --- ----- ----- ----<br>---- --- --- ----- --- ---- ---- ------- ----- ---- -------<br>--- --- -- ----- -- --- ---- -- --- ---- -- ------ ------<br>--- ----- -- ----,163357.40000009537,163356.5,162796.75,162812,162813.402,163363.331,,8,fulfilling
screen,html.Screen,2_1_0_1_9,2022-05-13T09:18:51.094Z,,,,,,,,,,,,,,,,,53,,,,,,,,,,,,,,504.8690000476781,,response,,,,99,,,,,,,Space,keypress(Space),,,,,,,,"---- -- ----- -- ------ - ------- --- ----------<br>relationship, ------ ------ ---- ---- ------- ----- -- ----<br>-------- ------- -- ---------- --- - --- ----- ----- ----<br>---- --- --- ----- --- ---- ---- ------- ----- ---- -------<br>--- --- -- ----- -- --- ---- -- --- ---- -- ------ ------<br>--- ----- -- ----",163868.80000007153,163868.20000004768,163346.787,163357.60000002384,163363.331,163879.882,,9,"relationship,"
screen,html.Screen,2_1_0_1_10,2022-05-13T09:18:51.558Z,,,,,,,,,,,,,,,,,53,,,,,,,,,,,,,,451.8180000476714,,response,,,,99,,,,,,,Space,keypress(Space),,,,,,,,---- -- ----- -- ------ - ------- --- ----------<br>------------- common ------ ---- ---- ------- ----- -- ----<br>-------- ------- -- ---------- --- - --- ----- ----- ----<br>---- --- --- ----- --- ---- ---- ------- ----- ---- -------<br>--- --- -- ----- -- --- ---- -- --- ---- -- ------ ------<br>--- ----- -- ----,164332.70000004768,164331.70000004768,163863.206,163868.90000009537,163879.882,164346.636,,10,common
screen,html.Screen,2_1_0_1_11,2022-05-13T09:18:52.014Z,,,,,,,,,,,,,,,,,53,,,,,,,,,,,,,,440.76400009536883,,response,,,,99,,,,,,,Space,keypress(Space),,,,,,,,---- -- ----- -- ------ - ------- --- ----------<br>------------- ------ wisdom ---- ---- ------- ----- -- ----<br>-------- ------- -- ---------- --- - --- ----- ----- ----<br>---- --- --- ----- --- ---- ---- ------- ----- ---- -------<br>--- --- -- ----- -- --- ---- -- --- ---- -- ------ ------<br>--- ----- -- ----,164788.30000007153,164787.40000009537,164329.914,164333,164346.636,164796.546,,11,wisdom
screen,html.Screen,2_1_0_1_12,2022-05-13T09:18:52.555Z,,,,,,,,,,,,,,,,,53,,,,,,,,,,,,,,532.9539999999979,,response,,,,99,,,,,,,Space,keypress(Space),,,,,,,,---- -- ----- -- ------ - ------- --- ----------<br>------------- ------ ------ says ---- ------- ----- -- ----<br>-------- ------- -- ---------- --- - --- ----- ----- ----<br>---- --- --- ----- --- ---- ---- ------- ----- ---- -------<br>--- --- -- ----- -- --- ---- -- --- ---- -- ------ ------<br>--- ----- -- ----,165330.10000002384,165329.5,164779.87,164788.70000004768,164796.546,165346.494,,12,says
screen,html.Screen,2_1_0_1_13,2022-05-13T09:18:52.965Z,,,,,,,,,,,,,,,,,53,,,,,,,,,,,,,,392.00599999999395,,response,,,,99,,,,,,,Space,keypress(Space),,,,,,,,---- -- ----- -- ------ - ------- --- ----------<br>------------- ------ ------ ---- that ------- ----- -- ----<br>-------- ------- -- ---------- --- - --- ----- ----- ----<br>---- --- --- ----- --- ---- ---- ------- ----- ---- -------<br>--- --- -- ----- -- --- ---- -- --- ---- -- ------ ------<br>--- ----- -- ----,165739.60000002384,165738.5,165329.691,165330.30000007153,165346.494,165746.278,,13,that
screen,html.Screen,2_1_0_1_14,2022-05-13T09:18:53.476Z,,,,,,,,,,,,,,,,,53,,,,,,,,,,,,,,503.3220000238507,,response,,,,99,,,,,,,Space,keypress(Space),,,,,,,,---- -- ----- -- ------ - ------- --- ----------<br>------------- ------ ------ ---- ---- feeling ----- -- ----<br>-------- ------- -- ---------- --- - --- ----- ----- ----<br>---- --- --- ----- --- ---- ---- ------- ----- ---- -------<br>--- --- -- ----- -- --- ---- -- --- ---- -- ------ ------<br>--- ----- -- ----,166250.60000002384,166249.60000002384,165729.677,165739.80000007153,165746.278,166262.989,,14,feeling
screen,html.Screen,2_1_0_1_15,2022-05-13T09:18:53.926Z,,,,,,,,,,,,,,,,,53,,,,,,,,,,,,,,436.61100002384046,,response,,,,99,,,,,,,Space,keypress(Space),,,,,,,,---- -- ----- -- ------ - ------- --- ----------<br>------------- ------ ------ ---- ---- ------- close -- ----<br>-------- ------- -- ---------- --- - --- ----- ----- ----<br>---- --- --- ----- --- ---- ---- ------- ----- ---- -------<br>--- --- -- ----- -- --- ---- -- --- ---- -- ------ ------<br>--- ----- -- ----,166700.5,166699.60000002384,166246.372,166250.80000007153,166262.989,166712.862,,15,close
screen,html.Screen,2_1_0_1_16,2022-05-13T09:18:54.342Z,,,,,,,,,,,,,,,,,53,,,,,,,,,,,,,,402.6380000000063,,response,,,,99,,,,,,,Space,keypress(Space),,,,,,,,---- -- ----- -- ------ - ------- --- ----------<br>------------- ------ ------ ---- ---- ------- ----- to ----<br>-------- ------- -- ---------- --- - --- ----- ----- ----<br>---- --- --- ----- --- ---- ---- ------- ----- ---- -------<br>--- --- -- ----- -- --- ---- -- --- ---- -- ------ ------<br>--- ----- -- ----,167116.40000009537,167115.5,166696.23,166700.80000007153,166712.862,167129.555,,16,to
screen,html.Screen,2_1_0_1_17,2022-05-13T09:18:54.788Z,,,,,,,,,,,,,,,,,53,,,,,,,,,,,,,,432.54500002384884,,response,,,,99,,,,,,,Space,keypress(Space),,,,,,,,---- -- ----- -- ------ - ------- --- ----------<br>------------- ------ ------ ---- ---- ------- ----- -- your<br>-------- ------- -- ---------- --- - --- ----- ----- ----<br>---- --- --- ----- --- ---- ---- ------- ----- ---- -------<br>--- --- -- ----- -- --- ---- -- --- ---- -- ------ ------<br>--- ----- -- ----,167562.60000002384,167562.10000002384,167112.964,167116.70000004768,167129.555,167579.479,,17,your
screen,html.Screen,2_1_0_1_18,2022-05-13T09:18:55.224Z,,,,,,,,,,,,,,,,,53,,,,,,,,,,,,,,417.8210000715335,,response,,,,99,,,,,,,Space,keypress(Space),,,,,,,,---- -- ----- -- ------ - ------- --- ----------<br>------------- ------ ------ ---- ---- ------- ----- -- ----<br>romantic ------- -- ---------- --- - --- ----- ----- ----<br>---- --- --- ----- --- ---- ---- ------- ----- ---- -------<br>--- --- -- ----- -- --- ---- -- --- ---- -- ------ ------<br>--- ----- -- ----,167998.30000007153,167997.30000007153,167562.769,167562.60000002384,167579.479,168012.781,,18,romantic
screen,html.Screen,2_1_0_1_19,2022-05-13T09:18:55.691Z,,,,,,,,,,,,,,,,,53,,,,,,,,,,,,,,452.2190000000119,,response,,,,99,,,,,,,Space,keypress(Space),,,,,,,,---- -- ----- -- ------ - ------- --- ----------<br>------------- ------ ------ ---- ---- ------- ----- -- ----<br>-------- partner -- ---------- --- - --- ----- ----- ----<br>---- --- --- ----- --- ---- ---- ------- ----- ---- -------<br>--- --- -- ----- -- --- ---- -- --- ---- -- ------ ------<br>--- ----- -- ----,168466,168465,167996.056,167998.5,168012.781,168479.33,,19,partner
screen,html.Screen,2_1_0_1_20,2022-05-13T09:18:56.071Z,,,,,,,,,,,,,,,,,53,,,,,,,,,,,,,,364.9700000715384,,response,,,,99,,,,,,,Space,keypress(Space),,,,,,,,---- -- ----- -- ------ - ------- --- ----------<br>------------- ------ ------ ---- ---- ------- ----- -- ----<br>-------- ------- is ---------- --- - --- ----- ----- ----<br>---- --- --- ----- --- ---- ---- ------- ----- ---- -------<br>--- --- -- ----- -- --- ---- -- --- ---- -- ------ ------<br>--- ----- -- ----,168845.40000009537,168844.30000007153,168462.644,168466.20000004768,168479.33,168862.725,,20,is
screen,html.Screen,2_1_0_1_21,2022-05-13T09:18:56.618Z,,,,,,,,,,,,,,,,,53,,,,,,,,,,,,,,529.375000023836,,response,,,,99,,,,,,,Space,keypress(Space),,,,,,,,---- -- ----- -- ------ - ------- --- ----------<br>------------- ------ ------ ---- ---- ------- ----- -- ----<br>-------- ------- -- paramount. --- - --- ----- ----- ----<br>---- --- --- ----- --- ---- ---- ------- ----- ---- -------<br>--- --- -- ----- -- --- ---- -- --- ---- -- ------ ------<br>--- ----- -- ----,169392.5,169392.10000002384,168846.012,168845.60000002384,168862.725,169395.79,,21,paramount.
screen,html.Screen,2_1_0_1_22,2022-05-13T09:18:57.083Z,,,,,,,,,,,,,,,,,53,,,,,,,,,,,,,,461.1100000953593,,response,,,,99,,,,,,,Space,keypress(Space),,,,,,,,---- -- ----- -- ------ - ------- --- ----------<br>------------- ------ ------ ---- ---- ------- ----- -- ----<br>-------- ------- -- ---------- But - --- ----- ----- ----<br>---- --- --- ----- --- ---- ---- ------- ----- ---- -------<br>--- --- -- ----- -- --- ---- -- --- ---- -- ------ ------<br>--- ----- -- ----,169857.90000009537,169856.90000009537,169379.165,169392.60000002384,169395.79,169862.481,,22,But
screen,html.Screen,2_1_0_1_23,2022-05-13T09:18:57.518Z,,,,,,,,,,,,,,,,,53,,,,,,,,,,,,,,429.71900004768395,,response,,,,99,,,,,,,Space,keypress(Space),,,,,,,,---- -- ----- -- ------ - ------- --- ----------<br>------------- ------ ------ ---- ---- ------- ----- -- ----<br>-------- ------- -- ---------- --- a --- ----- ----- ----<br>---- --- --- ----- --- ---- ---- ------- ----- ---- -------<br>--- --- -- ----- -- --- ---- -- --- ---- -- ------ ------<br>--- ----- -- ----,170293.20000004768,170292.20000004768,169845.797,169858.10000002384,169862.481,170295.744,,23,a
screen,html.Screen,2_1_0_1_24,2022-05-13T09:18:57.908Z,,,,,,,,,,,,,,,,,53,,,,,,,,,,,,,,386.0560000715195,,response,,,,99,,,,,,,Space,keypress(Space),,,,,,,,---- -- ----- -- ------ - ------- --- ----------<br>------------- ------ ------ ---- ---- ------- ----- -- ----<br>-------- ------- -- ---------- --- - new ----- ----- ----<br>---- --- --- ----- --- ---- ---- ------- ----- ---- -------<br>--- --- -- ----- -- --- ---- -- --- ---- -- ------ ------<br>--- ----- -- ----,170682.60000002384,170681.80000007153,170279.11,170293.5,170295.744,170695.728,,24,new
screen,html.Screen,2_1_0_1_25,2022-05-13T09:18:58.400Z,,,,,,,,,,,,,,,,,53,,,,,,,,,,,,,,477.9720000476809,,response,,,,99,,,,,,,Space,keypress(Space),,,,,,,,---- -- ----- -- ------ - ------- --- ----------<br>------------- ------ ------ ---- ---- ------- ----- -- ----<br>-------- ------- -- ---------- --- - --- study ----- ----<br>---- --- --- ----- --- ---- ---- ------- ----- ---- -------<br>--- --- -- ----- -- --- ---- -- --- ---- -- ------ ------<br>--- ----- -- ----,171174.60000002384,171173.70000004768,170679.268,170682.80000007153,170695.728,171178.987,,25,study
screen,html.Screen,2_1_0_1_26,2022-05-13T09:18:58.782Z,,,,,,,,,,,,,,,,,53,,,,,,,,,,,,,,376.31300007153186,,response,,,,99,,,,,,,Space,keypress(Space),,,,,,,,---- -- ----- -- ------ - ------- --- ----------<br>------------- ------ ------ ---- ---- ------- ----- -- ----<br>-------- ------- -- ---------- --- - --- ----- finds ----<br>---- --- --- ----- --- ---- ---- ------- ----- ---- -------<br>--- --- -- ----- -- --- ---- -- --- ---- -- ------ ------<br>--- ----- -- ----,171556.40000009537,171555.30000007153,171162.338,171174.90000009537,171178.987,171562.261,,26,finds
screen,html.Screen,2_1_0_1_27,2022-05-13T09:18:59.205Z,,,,,,,,,,,,,,,,,53,,,,,,,,,,,,,,417.13900009536883,,response,,,,99,,,,,,,Space,keypress(Space),,,,,,,,---- -- ----- -- ------ - ------- --- ----------<br>------------- ------ ------ ---- ---- ------- ----- -- ----<br>-------- ------- -- ---------- --- - --- ----- ----- that<br>---- --- --- ----- --- ---- ---- ------- ----- ---- -------<br>--- --- -- ----- -- --- ---- -- --- ---- -- ------ ------<br>--- ----- -- ----,171980,171979.40000009537,171545.717,171556.60000002384,171562.261,171995.473,,27,that
screen,html.Screen,2_1_0_1_28,2022-05-13T09:18:59.738Z,,,,,,,,,,,,,,,,,53,,,,,,,,,,,,,,516.3270000715274,,response,,,,99,,,,,,,Space,keypress(Space),,,,,,,,---- -- ----- -- ------ - ------- --- ----------<br>------------- ------ ------ ---- ---- ------- ----- -- ----<br>-------- ------- -- ---------- --- - --- ----- ----- ----<br>it's --- --- ----- --- ---- ---- ------- ----- ---- -------<br>--- --- -- ----- -- --- ---- -- --- ---- -- ------ ------<br>--- ----- -- ----,172513,172511.80000007153,171978.896,171980.20000004768,171995.473,172528.839,,28,it's
screen,html.Screen,2_1_0_1_29,2022-05-13T09:19:00.180Z,,,,,,,,,,,,,,,,,53,,,,,,,,,,,,,,424.76100002383464,,response,,,,99,,,,,,,Space,keypress(Space),,,,,,,,---- -- ----- -- ------ - ------- --- ----------<br>------------- ------ ------ ---- ---- ------- ----- -- ----<br>-------- ------- -- ---------- --- - --- ----- ----- ----<br>---- not --- ----- --- ---- ---- ------- ----- ---- -------<br>--- --- -- ----- -- --- ---- -- --- ---- -- ------ ------<br>--- ----- -- ----,172954.60000002384,172953.60000002384,172512.189,172513.20000004768,172528.839,172962.244,,29,not
screen,html.Screen,2_1_0_1_30,2022-05-13T09:19:00.598Z,,,,,,,,,,,,,,,,,53,,,,,,,,,,,,,,409.8560000238358,,response,,,,99,,,,,,,Space,keypress(Space),,,,,,,,---- -- ----- -- ------ - ------- --- ----------<br>------------- ------ ------ ---- ---- ------- ----- -- ----<br>-------- ------- -- ---------- --- - --- ----- ----- ----<br>---- --- how ----- --- ---- ---- ------- ----- ---- -------<br>--- --- -- ----- -- --- ---- -- --- ---- -- ------ ------<br>--- ----- -- ----,173372.5,173372.10000002384,172945.43,172954.80000007153,172962.244,173378.618,,30,how
screen,html.Screen,2_1_0_1_31,2022-05-13T09:19:01.094Z,,,,,,,,,,,,,,,,,53,,,,,,,,,,,,,,488.58200004769606,,response,,,,99,,,,,,,Space,keypress(Space),,,,,,,,---- -- ----- -- ------ - ------- --- ----------<br>------------- ------ ------ ---- ---- ------- ----- -- ----<br>-------- ------- -- ---------- --- - --- ----- ----- ----<br>---- --- --- close --- ---- ---- ------- ----- ---- -------<br>--- --- -- ----- -- --- ---- -- --- ---- -- ------ ------<br>--- ----- -- ----,173868.40000009537,173867.20000004768,173362.004,173372.60000002384,173378.618,173878.637,,31,close
screen,html.Screen,2_1_0_1_32,2022-05-13T09:19:01.494Z,,,,,,,,,,,,,,,,,53,,,,,,,,,,,,,,388.6630000715377,,response,,,,99,,,,,,,Space,keypress(Space),,,,,,,,---- -- ----- -- ------ - ------- --- ----------<br>------------- ------ ------ ---- ---- ------- ----- -- ----<br>-------- ------- -- ---------- --- - --- ----- ----- ----<br>---- --- --- ----- you ---- ---- ------- ----- ---- -------<br>--- --- -- ----- -- --- ---- -- --- ---- -- ------ ------<br>--- ----- -- ----,174268.30000007153,174267.30000007153,173861.976,173868.60000002384,173878.637,174278.538,,32,you
screen,html.Screen,2_1_0_1_33,2022-05-13T09:19:01.785Z,,,,,,,,,,,,,,,,,53,,,,,,,,,,,,,,280.16200004768325,,response,,,,99,,,,,,,Space,keypress(Space),,,,,,,,---- -- ----- -- ------ - ------- --- ----------<br>------------- ------ ------ ---- ---- ------- ----- -- ----<br>-------- ------- -- ---------- --- - --- ----- ----- ----<br>---- --- --- ----- --- feel ---- ------- ----- ---- -------<br>--- --- -- ----- -- --- ---- -- --- ---- -- ------ ------<br>--- ----- -- ----,174559.70000004768,174558.70000004768,174262.017,174268.60000002384,174278.538,174561.947,,33,feel
screen,html.Screen,2_1_0_1_34,2022-05-13T09:19:02.223Z,,,,,,,,,,,,,,,,,53,,,,,,,,,,,,,,435.55300000001444,,response,,,,99,,,,,,,Space,keypress(Space),,,,,,,,---- -- ----- -- ------ - ------- --- ----------<br>------------- ------ ------ ---- ---- ------- ----- -- ----<br>-------- ------- -- ---------- --- - --- ----- ----- ----<br>---- --- --- ----- --- ---- that ------- ----- ---- -------<br>--- --- -- ----- -- --- ---- -- --- ---- -- ------ ------<br>--- ----- -- ----,174997.90000009537,174997.5,174545.366,174559.90000009537,174561.947,175011.781,,34,that
screen,html.Screen,2_1_0_1_35,2022-05-13T09:19:02.568Z,,,,,,,,,,,,,,,,,53,,,,,,,,,,,,,,329.6190000953793,,response,,,,99,,,,,,,Space,keypress(Space),,,,,,,,---- -- ----- -- ------ - ------- --- ----------<br>------------- ------ ------ ---- ---- ------- ----- -- ----<br>-------- ------- -- ---------- --- - --- ----- ----- ----<br>---- --- --- ----- --- ---- ---- matters ----- ---- -------<br>--- --- -- ----- -- --- ---- -- --- ---- -- ------ ------<br>--- ----- -- ----,175342.30000007153,175341.40000009537,174995.11,174998,175011.781,175345.146,,35,matters
screen,html.Screen,2_1_0_1_36,2022-05-13T09:19:03.007Z,,,,,,,,,,,,,,,,,53,,,,,,,,,,,,,,436.15400007151766,,response,,,,99,,,,,,,Space,keypress(Space),,,,,,,,"---- -- ----- -- ------ - ------- --- ----------<br>------------- ------ ------ ---- ---- ------- ----- -- ----<br>-------- ------- -- ---------- --- - --- ----- ----- ----<br>---- --- --- ----- --- ---- ---- ------- most, ---- -------<br>--- --- -- ----- -- --- ---- -- --- ---- -- ------ ------<br>--- ----- -- ----",175782.30000007153,175781.30000007153,175328.496,175342.5,175345.146,175795.037,,36,"most,"
screen,html.Screen,2_1_0_1_37,2022-05-13T09:19:03.365Z,,,,,,,,,,,,,,,,,53,,,,,,,,,,,,,,343.9629999999888,,response,,,,99,,,,,,,Space,keypress(Space),,,,,,,,---- -- ----- -- ------ - ------- --- ----------<br>------------- ------ ------ ---- ---- ------- ----- -- ----<br>-------- ------- -- ---------- --- - --- ----- ----- ----<br>---- --- --- ----- --- ---- ---- ------- ----- it's -------<br>--- --- -- ----- -- --- ---- -- --- ---- -- ------ ------<br>--- ----- -- ----,176139.40000009537,176139,175778.509,175782.5,175795.037,176144.955,,37,it's
screen,html.Screen,2_1_0_1_38,2022-05-13T09:19:03.790Z,,,,,,,,,,,,,,,,,53,,,,,,,,,,,,,,418.7450000476965,,response,,,,99,,,,,,,Space,keypress(Space),,,,,,,,---- -- ----- -- ------ - ------- --- ----------<br>------------- ------ ------ ---- ---- ------- ----- -- ----<br>-------- ------- -- ---------- --- - --- ----- ----- ----<br>---- --- --- ----- --- ---- ---- ------- ----- ---- whether<br>--- --- -- ----- -- --- ---- -- --- ---- -- ------ ------<br>--- ----- -- ----,176564.70000004768,176563.70000004768,176128.298,176139.40000009537,176144.955,176578.272,,38,whether
screen,html.Screen,2_1_0_1_39,2022-05-13T09:19:04.183Z,,,,,,,,,,,,,,,,,53,,,,,,,,,,,,,,379.1280000953702,,response,,,,99,,,,,,,Space,keypress(Space),,,,,,,,---- -- ----- -- ------ - ------- --- ----------<br>------------- ------ ------ ---- ---- ------- ----- -- ----<br>-------- ------- -- ---------- --- - --- ----- ----- ----<br>---- --- --- ----- --- ---- ---- ------- ----- ---- -------<br>you --- -- ----- -- --- ---- -- --- ---- -- ------ ------<br>--- ----- -- ----,176958.20000004768,176957.40000009537,176561.585,176564.90000009537,176578.272,176961.569,,39,you
screen,html.Screen,2_1_0_1_40,2022-05-13T09:19:04.633Z,,,,,,,,,,,,,,,,,53,,,,,,,,,,,,,,445.4310000000114,,response,,,,99,,,,,,,Space,keypress(Space),,,,,,,,---- -- ----- -- ------ - ------- --- ----------<br>------------- ------ ------ ---- ---- ------- ----- -- ----<br>-------- ------- -- ---------- --- - --- ----- ----- ----<br>---- --- --- ----- --- ---- ---- ------- ----- ---- -------<br>--- are -- ----- -- --- ---- -- --- ---- -- ------ ------<br>--- ----- -- ----,177408.10000002384,177407,176944.868,176958.5,176961.569,177411.471,,40,are
screen,html.Screen,2_1_0_1_41,2022-05-13T09:19:04.979Z,,,,,,,,,,,,,,,,,53,,,,,,,,,,,,,,342.429000095377,,response,,,,99,,,,,,,Space,keypress(Space),,,,,,,,---- -- ----- -- ------ - ------- --- ----------<br>------------- ------ ------ ---- ---- ------- ----- -- ----<br>-------- ------- -- ---------- --- - --- ----- ----- ----<br>---- --- --- ----- --- ---- ---- ------- ----- ---- -------<br>--- --- as ----- -- --- ---- -- --- ---- -- ------ ------<br>--- ----- -- ----,177754.20000004768,177753.90000009537,177394.947,177408.30000007153,177411.471,177761.373,,41,as
screen,html.Screen,2_1_0_1_42,2022-05-13T09:19:05.367Z,,,,,,,,,,,,,,,,,53,,,,,,,,,,,,,,379.72700002384954,,response,,,,99,,,,,,,Space,keypress(Space),,,,,,,,---- -- ----- -- ------ - ------- --- ----------<br>------------- ------ ------ ---- ---- ------- ----- -- ----<br>-------- ------- -- ---------- --- - --- ----- ----- ----<br>---- --- --- ----- --- ---- ---- ------- ----- ---- -------<br>--- --- -- close -- --- ---- -- --- ---- -- ------ ------<br>--- ----- -- ----,178142.20000004768,178141.10000002384,177744.727,177754.30000007153,177761.373,178144.746,,42,close
screen,html.Screen,2_1_0_1_43,2022-05-13T09:19:05.822Z,,,,,,,,,,,,,,,,,53,,,,,,,,,,,,,,451.55400007151184,,response,,,,99,,,,,,,Space,keypress(Space),,,,,,,,---- -- ----- -- ------ - ------- --- ----------<br>------------- ------ ------ ---- ---- ------- ----- -- ----<br>-------- ------- -- ---------- --- - --- ----- ----- ----<br>---- --- --- ----- --- ---- ---- ------- ----- ---- -------<br>--- --- -- ----- as --- ---- -- --- ---- -- ------ ------<br>--- ----- -- ----,178596.70000004768,178596.30000007153,178128.089,178142.40000009537,178144.746,178611.308,,43,as
screen,html.Screen,2_1_0_1_44,2022-05-13T09:19:06.186Z,,,,,,,,,,,,,,,,,53,,,,,,,,,,,,,,348.79200002385187,,response,,,,99,,,,,,,Space,keypress(Space),,,,,,,,---- -- ----- -- ------ - ------- --- ----------<br>------------- ------ ------ ---- ---- ------- ----- -- ----<br>-------- ------- -- ---------- --- - --- ----- ----- ----<br>---- --- --- ----- --- ---- ---- ------- ----- ---- -------<br>--- --- -- ----- -- you ---- -- --- ---- -- ------ ------<br>--- ----- -- ----,178961.20000004768,178960.10000002384,178594.617,178596.80000007153,178611.308,178978.03,,44,you
screen,html.Screen,2_1_0_1_45,2022-05-13T09:19:06.548Z,,,,,,,,,,,,,,,,,53,,,,,,,,,,,,,,343.070000023843,,response,,,,99,,,,,,,Space,keypress(Space),,,,,,,,---- -- ----- -- ------ - ------- --- ----------<br>------------- ------ ------ ---- ---- ------- ----- -- ----<br>-------- ------- -- ---------- --- - --- ----- ----- ----<br>---- --- --- ----- --- ---- ---- ------- ----- ---- -------<br>--- --- -- ----- -- --- want -- --- ---- -- ------ ------<br>--- ----- -- ----,179322.40000009537,179321.10000002384,178961.304,178961.40000009537,178978.03,179327.894,,45,want
screen,html.Screen,2_1_0_1_46,2022-05-13T09:19:07.066Z,,,,,,,,,,,,,,,,,53,,,,,,,,,,,,,,511.5060000953672,,response,,,,99,,,,,,,Space,keypress(Space),,,,,,,,---- -- ----- -- ------ - ------- --- ----------<br>------------- ------ ------ ---- ---- ------- ----- -- ----<br>-------- ------- -- ---------- --- - --- ----- ----- ----<br>---- --- --- ----- --- ---- ---- ------- ----- ---- -------<br>--- --- -- ----- -- --- ---- to --- ---- -- ------ ------<br>--- ----- -- ----,179840.40000009537,179839.40000009537,179311.266,179322.70000004768,179327.894,179844.511,,46,to
screen,html.Screen,2_1_0_1_47,2022-05-13T09:19:07.613Z,,,,,,,,,,,,,,,,,53,,,,,,,,,,,,,,541.789000071527,,response,,,,99,,,,,,,Space,keypress(Space),,,,,,,,"---- -- ----- -- ------ - ------- --- ----------<br>------------- ------ ------ ---- ---- ------- ----- -- ----<br>-------- ------- -- ---------- --- - --- ----- ----- ----<br>---- --- --- ----- --- ---- ---- ------- ----- ---- -------<br>--- --- -- ----- -- --- ---- -- be, ---- -- ------ ------<br>--- ----- -- ----",180387.30000007153,180386.30000007153,179827.855,179840.70000004768,179844.511,180394.473,,47,"be,"
screen,html.Screen,2_1_0_1_48,2022-05-13T09:19:08.056Z,,,,,,,,,,,,,,,,,53,,,,,,,,,,,,,,434.7270000476856,,response,,,,99,,,,,,,Space,keypress(Space),,,,,,,,---- -- ----- -- ------ - ------- --- ----------<br>------------- ------ ------ ---- ---- ------- ----- -- ----<br>-------- ------- -- ---------- --- - --- ----- ----- ----<br>---- --- --- ----- --- ---- ---- ------- ----- ---- -------<br>--- --- -- ----- -- --- ---- -- --- even -- ------ ------<br>--- ----- -- ----,180830.30000007153,180829.20000004768,180377.793,180387.60000002384,180394.473,180844.296,,48,even
screen,html.Screen,2_1_0_1_49,2022-05-13T09:19:08.513Z,,,,,,,,,,,,,,,,,53,,,,,,,,,,,,,,442.4040000476816,,response,,,,99,,,,,,,Space,keypress(Space),,,,,,,,---- -- ----- -- ------ - ------- --- ----------<br>------------- ------ ------ ---- ---- ------- ----- -- ----<br>-------- ------- -- ---------- --- - --- ----- ----- ----<br>---- --- --- ----- --- ---- ---- ------- ----- ---- -------<br>--- --- -- ----- -- --- ---- -- --- ---- if ------ ------<br>--- ----- -- ----,181287.70000004768,181286.70000004768,180827.766,180830.5,180844.296,181294.394,,49,if
screen,html.Screen,2_1_0_1_50,2022-05-13T09:19:09.007Z,,,,,,,,,,,,,,,,,53,,,,,,,,,,,,,,485.90600007152534,,response,,,,99,,,,,,,Space,keypress(Space),,,,,,,,---- -- ----- -- ------ - ------- --- ----------<br>------------- ------ ------ ---- ---- ------- ----- -- ----<br>-------- ------- -- ---------- --- - --- ----- ----- ----<br>---- --- --- ----- --- ---- ---- ------- ----- ---- -------<br>--- --- -- ----- -- --- ---- -- --- ---- -- that's ------<br>--- ----- -- ----,181781.30000007153,181780.30000007153,181277.645,181288,181294.394,181794.184,,50,that's
screen,html.Screen,2_1_0_1_51,2022-05-13T09:19:09.465Z,,,,,,,,,,,,,,,,,53,,,,,,,,,,,,,,444.8159999999916,,response,,,,99,,,,,,,Space,keypress(Space),,,,,,,,---- -- ----- -- ------ - ------- --- ----------<br>------------- ------ ------ ---- ---- ------- ----- -- ----<br>-------- ------- -- ---------- --- - --- ----- ----- ----<br>---- --- --- ----- --- ---- ---- ------- ----- ---- -------<br>--- --- -- ----- -- --- ---- -- --- ---- -- ------ really<br>--- ----- -- ----,182239.90000009537,182239,181777.803,181781.5,181794.184,182244.167,,51,really
screen,html.Screen,2_1_0_1_52,2022-05-13T09:19:09.907Z,,,,,,,,,,,,,,,,,53,,,,,,,,,,,,,,436.13300007153885,,response,,,,99,,,,,,,Space,keypress(Space),,,,,,,,---- -- ----- -- ------ - ------- --- ----------<br>------------- ------ ------ ---- ---- ------- ----- -- ----<br>-------- ------- -- ---------- --- - --- ----- ----- ----<br>---- --- --- ----- --- ---- ---- ------- ----- ---- -------<br>--- --- -- ----- -- --- ---- -- --- ---- -- ------ ------<br>not ----- -- ----,182681.30000007153,182680.30000007153,182227.577,182240.20000004768,182244.167,182694.118,,52,not
screen,html.Screen,2_1_0_1_53,2022-05-13T09:19:10.322Z,,,,,,,,,,,,,,,,,53,,,,,,,,,,,,,,402.1820000715379,,response,,,,99,,,,,,,Space,keypress(Space),,,,,,,,---- -- ----- -- ------ - ------- --- ----------<br>------------- ------ ------ ---- ---- ------- ----- -- ----<br>-------- ------- -- ---------- --- - --- ----- ----- ----<br>---- --- --- ----- --- ---- ---- ------- ----- ---- -------<br>--- --- -- ----- -- --- ---- -- --- ---- -- ------ ------<br>--- close -- ----,183097.20000004768,183096.30000007153,182677.486,182681.60000002384,182694.118,183110.779,,53,close
screen,html.Screen,2_1_0_1_54,2022-05-13T09:19:10.699Z,,,,,,,,,,,,,,,,,53,,,,,,,,,,,,,,361.72099999999045,,response,,,,99,,,,,,,Space,keypress(Space),,,,,,,,---- -- ----- -- ------ - ------- --- ----------<br>------------- ------ ------ ---- ---- ------- ----- -- ----<br>-------- ------- -- ---------- --- - --- ----- ----- ----<br>---- --- --- ----- --- ---- ---- ------- ----- ---- -------<br>--- --- -- ----- -- --- ---- -- --- ---- -- ------ ------<br>--- ----- at ----,183473.40000009537,183472.5,183094.12,183097.5,183110.779,183477.376,,54,at
screen,html.Screen,2_1_0_1_55,2022-05-13T09:19:11.529Z,,,,,,,,,,,,,,,,,53,,,,,,,,,,,,,,825.8240000476944,,response,,,,99,,,,,,,Space,keypress(Space),,,,,,,,---- -- ----- -- ------ - ------- --- ----------<br>------------- ------ ------ ---- ---- ------- ----- -- ----<br>-------- ------- -- ---------- --- - --- ----- ----- ----<br>---- --- --- ----- --- ---- ---- ------- ----- ---- -------<br>--- --- -- ----- -- --- ---- -- --- ---- -- ------ ------<br>--- ----- -- all.,184303.60000002384,184303.20000004768,183460.754,183473.70000004768,183477.376,184310.485,,55,all.
Item 99,flow.Loop,2_1_0_1,2022-05-13T09:19:11.529Z,,,,,,,,,,,,,,,,,,,,,,,,,,,,,,,27622.36800004769,,completion,,,,,G,,,,,,,,,,,silence,,,,,184303.70000004768,184303.20000004768,156664.14,156664.70000004768,156680.832,184310.485,,,
Question 1,html.Screen,2_1_0_2,2022-05-13T09:19:17.733Z,,,,,,,,,,,,,,,,,,,,,,,,,,,,true,FALSE,,6195.3150000715395,,response,,,,99,G,,,,,,FALSE,click #choice-2,,,,silence,,,,,190507.40000009537,190505.80000007153,184293.799,184303.70000004768,184310.485,190509.779,,,
Question 2,html.Screen,2_1_0_3,2022-05-13T09:19:25.051Z,,,,,,,,,,,,,,,,,,,,,,,,,,,,true,TRUE,,7314.021000071516,,response,,,,99,G,,,,,,TRUE,click #choice-1,,,,silence,,,,,197825.20000004768,197823.80000007153,190493.063,190507.70000004768,190509.779,197858.815,,,
Item 99,flow.Sequence,2_1_0,2022-05-13T09:19:25.052Z,,,,,,,,,,,,,,,,,,,,,,,,,,,,,,,51141.617000071536,,completion,,,,,,,,,,,,,,,,,,,,,197825.70000004768,197823.80000007153,146665.543,146678.60000002384,146682.183,197858.815,,,
Holding screen,html.Screen,2_1_1_0,2022-05-13T09:19:35.069Z,,,,,,,,,,,,,,,,,,,,,,,,,,,,,,,9998.722999999998,,timeout,,,,,,,,,,,,,,,,,,,,,207843.20000004768,207840.855,197825.561,197826.10000002384,197858.815,207857.538,,,
screen,html.Screen,2_1_1_1_0,2022-05-13T09:19:35.787Z,,,,,,,,,,,,,,,,,54,,,,,,,,,,,,,,703.2620000715251,,response,,,,100,,,,,,,Space,keypress(Space),,,,,,,,At --- ---- --- ------ ----- ------- ---- -- --- ------- --<br>------- ---------- ------ -- ----- -- ----- -- ---- ------<br>--- ----- --- --- ------ -------- ----- --- ------ ----- --<br>----- ----- ---------- --- --- ------ ------ ---- -- ------<br>------- --- ------ ----- --- ---- ------- -- ---- --- --<br>------- ------,208561.30000007153,208560.80000007153,207840.855,207843.60000002384,207857.538,208573.957,,0,At
screen,html.Screen,2_1_1_1_1,2022-05-13T09:19:36.196Z,,,,,,,,,,,,,,,,,54,,,,,,,,,,,,,,395.3430000715307,,response,,,,100,,,,,,,Space,keypress(Space),,,,,,,,-- the ---- --- ------ ----- ------- ---- -- --- ------- --<br>------- ---------- ------ -- ----- -- ----- -- ---- ------<br>--- ----- --- --- ------ -------- ----- --- ------ ----- --<br>----- ----- ---------- --- --- ------ ------ ---- -- ------<br>------- --- ------ ----- --- ---- ------- -- ---- --- --<br>------- ------,208970.20000004768,208969.30000007153,208557.329,208561.40000009537,208573.957,208974.053,,1,the
screen,html.Screen,2_1_1_1_2,2022-05-13T09:19:36.484Z,,,,,,,,,,,,,,,,,54,,,,,,,,,,,,,,283.24700007151114,,response,,,,100,,,,,,,Space,keypress(Space),,,,,,,,-- --- time --- ------ ----- ------- ---- -- --- ------- --<br>------- ---------- ------ -- ----- -- ----- -- ---- ------<br>--- ----- --- --- ------ -------- ----- --- ------ ----- --<br>----- ----- ---------- --- --- ------ ------ ---- -- ------<br>------- --- ------ ----- --- ---- ------- -- ---- --- --<br>------- ------,209258.30000007153,209257.30000007153,208957.323,208970.40000009537,208974.053,209274.104,,2,time
screen,html.Screen,2_1_1_1_3,2022-05-13T09:19:36.826Z,,,,,,,,,,,,,,,,,54,,,,,,,,,,,,,,325.3960000000079,,response,,,,100,,,,,,,Space,keypress(Space),,,,,,,,-- --- ---- the ------ ----- ------- ---- -- --- ------- --<br>------- ---------- ------ -- ----- -- ----- -- ---- ------<br>--- ----- --- --- ------ -------- ----- --- ------ ----- --<br>----- ----- ---------- --- --- ------ ------ ---- -- ------<br>------- --- ------ ----- --- ---- ------- -- ---- --- --<br>------- ------,209600.40000009537,209599.5,209257.371,209258.5,209274.104,209607.288,,3,the
screen,html.Screen,2_1_1_1_4,2022-05-13T09:19:37.074Z,,,,,,,,,,,,,,,,,54,,,,,,,,,,,,,,240.21199999999953,,response,,,,100,,,,,,,Space,keypress(Space),,,,,,,,-- --- ---- --- French ----- ------- ---- -- --- ------- --<br>------- ---------- ------ -- ----- -- ----- -- ---- ------<br>--- ----- --- --- ------ -------- ----- --- ------ ----- --<br>----- ----- ---------- --- --- ------ ------ ---- -- ------<br>------- --- ------ ----- --- ---- ------- -- ---- --- --<br>------- ------,209847.90000009537,209847.5,209590.586,209600.60000002384,209607.288,209857.304,,4,French
screen,html.Screen,2_1_1_1_5,2022-05-13T09:19:37.476Z,,,,,,,,,,,,,,,,,54,,,,,,,,,,,,,,391.89600004768,,response,,,,100,,,,,,,Space,keypress(Space),,,,,,,,-- --- ---- --- ------ crown ------- ---- -- --- ------- --<br>------- ---------- ------ -- ----- -- ----- -- ---- ------<br>--- ----- --- --- ------ -------- ----- --- ------ ----- --<br>----- ----- ---------- --- --- ------ ------ ---- -- ------<br>------- --- ------ ----- --- ---- ------- -- ---- --- --<br>------- ------,210250.30000007153,210249.20000004768,209840.523,209848,209857.304,210257.245,,5,crown
screen,html.Screen,2_1_1_1_6,2022-05-13T09:19:37.747Z,,,,,,,,,,,,,,,,,54,,,,,,,,,,,,,,262.3550000238465,,response,,,,100,,,,,,,Space,keypress(Space),,,,,,,,-- --- ---- --- ------ ----- secured ---- -- --- ------- --<br>------- ---------- ------ -- ----- -- ----- -- ---- ------<br>--- ----- --- --- ------ -------- ----- --- ------ ----- --<br>----- ----- ---------- --- --- ------ ------ ---- -- ------<br>------- --- ------ ----- --- ---- ------- -- ---- --- --<br>------- ------,210520.60000002384,210519.60000002384,210240.562,210250.40000009537,210257.245,210523.852,,6,secured
screen,html.Screen,2_1_1_1_7,2022-05-13T09:19:38.149Z,,,,,,,,,,,,,,,,,54,,,,,,,,,,,,,,398.5480000953539,,response,,,,100,,,,,,,Space,keypress(Space),,,,,,,,-- --- ---- --- ------ ----- ------- much -- --- ------- --<br>------- ---------- ------ -- ----- -- ----- -- ---- ------<br>--- ----- --- --- ------ -------- ----- --- ------ ----- --<br>----- ----- ---------- --- --- ------ ------ ---- -- ------<br>------- --- ------ ----- --- ---- ------- -- ---- --- --<br>------- ------,210922.80000007153,210922.40000009537,210507.157,210521,210523.852,210923.722,,7,much
screen,html.Screen,2_1_1_1_8,2022-05-13T09:19:38.431Z,,,,,,,,,,,,,,,,,54,,,,,,,,,,,,,,280.5780000715167,,response,,,,100,,,,,,,Space,keypress(Space),,,,,,,,-- --- ---- --- ------ ----- ------- ---- of --- ------- --<br>------- ---------- ------ -- ----- -- ----- -- ---- ------<br>--- ----- --- --- ------ -------- ----- --- ------ ----- --<br>----- ----- ---------- --- --- ------ ------ ---- -- ------<br>------- --- ------ ----- --- ---- ------- -- ---- --- --<br>------- ------,211205.20000004768,211204.30000007153,210907.029,210922.80000007153,210923.722,211207.091,,8,of
screen,html.Screen,2_1_1_1_9,2022-05-13T09:19:38.724Z,,,,,,,,,,,,,,,,,54,,,,,,,,,,,,,,289.7090000715398,,response,,,,100,,,,,,,Space,keypress(Space),,,,,,,,-- --- ---- --- ------ ----- ------- ---- -- its ------- --<br>------- ---------- ------ -- ----- -- ----- -- ---- ------<br>--- ----- --- --- ------ -------- ----- --- ------ ----- --<br>----- ----- ---------- --- --- ------ ------ ---- -- ------<br>------- --- ------ ----- --- ---- ------- -- ---- --- --<br>------- ------,211498,211496.80000007153,211190.416,211205.40000009537,211207.091,211507.782,,9,its
screen,html.Screen,2_1_1_1_10,2022-05-13T09:19:39.048Z,,,,,,,,,,,,,,,,,54,,,,,,,,,,,,,,313.81800002383534,,response,,,,100,,,,,,,Space,keypress(Space),,,,,,,,-- --- ---- --- ------ ----- ------- ---- -- --- revenue --<br>------- ---------- ------ -- ----- -- ----- -- ---- ------<br>--- ----- --- --- ------ -------- ----- --- ------ ----- --<br>----- ----- ---------- --- --- ------ ------ ---- -- ------<br>------- --- ------ ----- --- ---- ------- -- ---- --- --<br>------- ------,211822.10000002384,211821.60000002384,211490.321,211498.10000002384,211507.782,211823.593,,10,revenue
screen,html.Screen,2_1_1_1_11,2022-05-13T09:19:39.432Z,,,,,,,,,,,,,,,,,54,,,,,,,,,,,,,,382.30700009537395,,response,,,,100,,,,,,,Space,keypress(Space),,,,,,,,-- --- ---- --- ------ ----- ------- ---- -- --- ------- by<br>------- ---------- ------ -- ----- -- ----- -- ---- ------<br>--- ----- --- --- ------ -------- ----- --- ------ ----- --<br>----- ----- ---------- --- --- ------ ------ ---- -- ------<br>------- --- ------ ----- --- ---- ------- -- ---- --- --<br>------- ------,212206.40000009537,212205.90000009537,211807.123,211822.20000004768,211823.593,212206.854,,11,by
screen,html.Screen,2_1_1_1_12,2022-05-13T09:19:39.795Z,,,,,,,,,,,,,,,,,54,,,,,,,,,,,,,,361.7460000238498,,response,,,,100,,,,,,,Space,keypress(Space),,,,,,,,-- --- ---- --- ------ ----- ------- ---- -- --- ------- --<br>issuing ---------- ------ -- ----- -- ----- -- ---- ------<br>--- ----- --- --- ------ -------- ----- --- ------ ----- --<br>----- ----- ---------- --- --- ------ ------ ---- -- ------<br>------- --- ------ ----- --- ---- ------- -- ---- --- --<br>------- ------,212569,212568.60000002384,212190.366,212206.40000009537,212206.854,212573.493,,12,issuing
screen,html.Screen,2_1_1_1_13,2022-05-13T09:19:40.164Z,,,,,,,,,,,,,,,,,54,,,,,,,,,,,,,,363.8070000715379,,response,,,,100,,,,,,,Space,keypress(Space),,,,,,,,-- --- ---- --- ------ ----- ------- ---- -- --- ------- --<br>------- government ------ -- ----- -- ----- -- ---- ------<br>--- ----- --- --- ------ -------- ----- --- ------ ----- --<br>----- ----- ---------- --- --- ------ ------ ---- -- ------<br>------- --- ------ ----- --- ---- ------- -- ---- --- --<br>------- ------,212938.30000007153,212937.30000007153,212556.786,212569.10000002384,212573.493,212940.18,,13,government
screen,html.Screen,2_1_1_1_14,2022-05-13T09:19:40.549Z,,,,,,,,,,,,,,,,,54,,,,,,,,,,,,,,382.320000000007,,response,,,,100,,,,,,,Space,keypress(Space),,,,,,,,-- --- ---- --- ------ ----- ------- ---- -- --- ------- --<br>------- ---------- bonds. -- ----- -- ----- -- ---- ------<br>--- ----- --- --- ------ -------- ----- --- ------ ----- --<br>----- ----- ---------- --- --- ------ ------ ---- -- ------<br>------- --- ------ ----- --- ---- ------- -- ---- --- --<br>------- ------,213323.5,213322.5,212923.572,212938.40000009537,212940.18,213340.252,,14,bonds.
screen,html.Screen,2_1_1_1_15,2022-05-13T09:19:41.080Z,,,,,,,,,,,,,,,,,54,,,,,,,,,,,,,,512.6480000953597,,response,,,,100,,,,,,,Space,keypress(Space),,,,,,,,-- --- ---- --- ------ ----- ------- ---- -- --- ------- --<br>------- ---------- ------ In ----- -- ----- -- ---- ------<br>--- ----- --- --- ------ -------- ----- --- ------ ----- --<br>----- ----- ---------- --- --- ------ ------ ---- -- ------<br>------- --- ------ ----- --- ---- ------- -- ---- --- --<br>------- ------,213853.80000007153,213852.90000009537,213323.534,213323.70000004768,213340.252,213856.758,,15,In
screen,html.Screen,2_1_1_1_16,2022-05-13T09:19:41.498Z,,,,,,,,,,,,,,,,,54,,,,,,,,,,,,,,414.6420000953658,,response,,,,100,,,,,,,Space,keypress(Space),,,,,,,,"-- --- ---- --- ------ ----- ------- ---- -- --- ------- --<br>------- ---------- ------ -- 1727, -- ----- -- ---- ------<br>--- ----- --- --- ------ -------- ----- --- ------ ----- --<br>----- ----- ---------- --- --- ------ ------ ---- -- ------<br>------- --- ------ ----- --- ---- ------- -- ---- --- --<br>------- ------",214271.70000004768,214271.40000009537,213840.189,213854,213856.758,214273.234,,16,"1727,"
screen,html.Screen,2_1_1_1_17,2022-05-13T09:19:42.869Z,,,,,,,,,,,,,,,,,54,,,,,,,,,,,,,,1369.3660000238451,,response,,,,100,,,,,,,Space,keypress(Space),,,,,,,,-- --- ---- --- ------ ----- ------- ---- -- --- ------- --<br>------- ---------- ------ -- ----- in ----- -- ---- ------<br>--- ----- --- --- ------ -------- ----- --- ------ ----- --<br>----- ----- ---------- --- --- ------ ------ ---- -- ------<br>------- --- ------ ----- --- ---- ------- -- ---- --- --<br>------- ------,215643.5,215642.60000002384,214256.595,214271.80000007153,214273.234,215656.465,,17,in
screen,html.Screen,2_1_1_1_18,2022-05-13T09:19:43.476Z,,,,,,,,,,,,,,,,,54,,,,,,,,,,,,,,593.6350000238454,,response,,,,100,,,,,,,Space,keypress(Space),,,,,,,,-- --- ---- --- ------ ----- ------- ---- -- --- ------- --<br>------- ---------- ------ -- ----- -- order -- ---- ------<br>--- ----- --- --- ------ -------- ----- --- ------ ----- --<br>----- ----- ---------- --- --- ------ ------ ---- -- ------<br>------- --- ------ ----- --- ---- ------- -- ---- --- --<br>------- ------,216250.60000002384,216250.10000002384,215639.828,215643.80000007153,215656.465,216256.479,,18,order
screen,html.Screen,2_1_1_1_19,2022-05-13T09:19:43.952Z,,,,,,,,,,,,,,,,,54,,,,,,,,,,,,,,469.0210000000079,,response,,,,100,,,,,,,Space,keypress(Space),,,,,,,,-- --- ---- --- ------ ----- ------- ---- -- --- ------- --<br>------- ---------- ------ -- ----- -- ----- to ---- ------<br>--- ----- --- --- ------ -------- ----- --- ------ ----- --<br>----- ----- ---------- --- --- ------ ------ ---- -- ------<br>------- --- ------ ----- --- ---- ------- -- ---- --- --<br>------- ------,216725.90000009537,216725.5,216239.667,216250.70000004768,216256.479,216739.771,,19,to
screen,html.Screen,2_1_1_1_20,2022-05-13T09:19:44.406Z,,,,,,,,,,,,,,,,,54,,,,,,,,,,,,,,439.2289999999921,,response,,,,100,,,,,,,Space,keypress(Space),,,,,,,,-- --- ---- --- ------ ----- ------- ---- -- --- ------- --<br>------- ---------- ------ -- ----- -- ----- -- save ------<br>--- ----- --- --- ------ -------- ----- --- ------ ----- --<br>----- ----- ---------- --- --- ------ ------ ---- -- ------<br>------- --- ------ ----- --- ---- ------- -- ---- --- --<br>------- ------,217180,217179,216722.969,216726,216739.771,217189.633,,20,save
screen,html.Screen,2_1_1_1_21,2022-05-13T09:19:44.938Z,,,,,,,,,,,,,,,,,54,,,,,,,,,,,,,,521.9670000238402,,response,,,,100,,,,,,,Space,keypress(Space),,,,,,,,"-- --- ---- --- ------ ----- ------- ---- -- --- ------- --<br>------- ---------- ------ -- ----- -- ----- -- ---- money,<br>--- ----- --- --- ------ -------- ----- --- ------ ----- --<br>----- ----- ---------- --- --- ------ ------ ---- -- ------<br>------- --- ------ ----- --- ---- ------- -- ---- --- --<br>------- ------",217712.5,217711.60000002384,217173.018,217180.20000004768,217189.633,217722.927,,21,"money,"
screen,html.Screen,2_1_1_1_22,2022-05-13T09:19:45.484Z,,,,,,,,,,,,,,,,,54,,,,,,,,,,,,,,533.8730000715295,,response,,,,100,,,,,,,Space,keypress(Space),,,,,,,,-- --- ---- --- ------ ----- ------- ---- -- --- ------- --<br>------- ---------- ------ -- ----- -- ----- -- ---- ------<br>the ----- --- --- ------ -------- ----- --- ------ ----- --<br>----- ----- ---------- --- --- ------ ------ ---- -- ------<br>------- --- ------ ----- --- ---- ------- -- ---- --- --<br>------- ------,218257.70000004768,218256.80000007153,217706.224,217712.70000004768,217722.927,218272.77,,22,the
screen,html.Screen,2_1_1_1_23,2022-05-13T09:19:45.993Z,,,,,,,,,,,,,,,,,54,,,,,,,,,,,,,,493.1300000953779,,response,,,,100,,,,,,,Space,keypress(Space),,,,,,,,-- --- ---- --- ------ ----- ------- ---- -- --- ------- --<br>------- ---------- ------ -- ----- -- ----- -- ---- ------<br>--- state --- --- ------ -------- ----- --- ------ ----- --<br>----- ----- ---------- --- --- ------ ------ ---- -- ------<br>------- --- ------ ----- --- ---- ------- -- ---- --- --<br>------- ------,218766.90000009537,218765.90000009537,218256.147,218257.90000009537,218272.77,218772.806,,23,state
screen,html.Screen,2_1_1_1_24,2022-05-13T09:19:46.356Z,,,,,,,,,,,,,,,,,54,,,,,,,,,,,,,,356.094000095356,,response,,,,100,,,,,,,Space,keypress(Space),,,,,,,,-- --- ---- --- ------ ----- ------- ---- -- --- ------- --<br>------- ---------- ------ -- ----- -- ----- -- ---- ------<br>--- ----- cut --- ------ -------- ----- --- ------ ----- --<br>----- ----- ---------- --- --- ------ ------ ---- -- ------<br>------- --- ------ ----- --- ---- ------- -- ---- --- --<br>------- ------,219130,219128.90000009537,218756.034,218767.10000002384,218772.806,219139.423,,24,cut
screen,html.Screen,2_1_1_1_25,2022-05-13T09:19:46.686Z,,,,,,,,,,,,,,,,,54,,,,,,,,,,,,,,320.1770000238321,,response,,,,100,,,,,,,Space,keypress(Space),,,,,,,,-- --- ---- --- ------ ----- ------- ---- -- --- ------- --<br>------- ---------- ------ -- ----- -- ----- -- ---- ------<br>--- ----- --- the ------ -------- ----- --- ------ ----- --<br>----- ----- ---------- --- --- ------ ------ ---- -- ------<br>------- --- ------ ----- --- ---- ------- -- ---- --- --<br>------- ------,219460,219459.60000002384,219122.715,219130.10000002384,219139.423,219472.561,,25,the
screen,html.Screen,2_1_1_1_26,2022-05-13T09:19:47.136Z,,,,,,,,,,,,,,,,,54,,,,,,,,,,,,,,437.43900000001304,,response,,,,100,,,,,,,Space,keypress(Space),,,,,,,,-- --- ---- --- ------ ----- ------- ---- -- --- ------- --<br>------- ---------- ------ -- ----- -- ----- -- ---- ------<br>--- ----- --- --- bonds' -------- ----- --- ------ ----- --<br>----- ----- ---------- --- --- ------ ------ ---- -- ------<br>------- --- ------ ----- --- ---- ------- -- ---- --- --<br>------- ------,219910.40000009537,219910,219455.916,219460,219472.561,219922.522,,26,bonds'
screen,html.Screen,2_1_1_1_27,2022-05-13T09:19:47.631Z,,,,,,,,,,,,,,,,,54,,,,,,,,,,,,,,481.77800007152837,,response,,,,100,,,,,,,Space,keypress(Space),,,,,,,,-- --- ---- --- ------ ----- ------- ---- -- --- ------- --<br>------- ---------- ------ -- ----- -- ----- -- ---- ------<br>--- ----- --- --- ------ interest ----- --- ------ ----- --<br>----- ----- ---------- --- --- ------ ------ ---- -- ------<br>------- --- ------ ----- --- ---- ------- -- ---- --- --<br>------- ------,220405.40000009537,220404.30000007153,219905.88,219910.40000009537,219922.522,220422.635,,27,interest
screen,html.Screen,2_1_1_1_28,2022-05-13T09:19:48.107Z,,,,,,,,,,,,,,,,,54,,,,,,,,,,,,,,457.2650000953581,,response,,,,100,,,,,,,Space,keypress(Space),,,,,,,,-- --- ---- --- ------ ----- ------- ---- -- --- ------- --<br>------- ---------- ------ -- ----- -- ----- -- ---- ------<br>--- ----- --- --- ------ -------- rate. --- ------ ----- --<br>----- ----- ---------- --- --- ------ ------ ---- -- ------<br>------- --- ------ ----- --- ---- ------- -- ---- --- --<br>------- ------,220880.90000009537,220879.90000009537,220405.892,220405.60000002384,220422.635,220889.086,,28,rate.
screen,html.Screen,2_1_1_1_29,2022-05-13T09:19:48.570Z,,,,,,,,,,,,,,,,,54,,,,,,,,,,,,,,454.3140000953572,,response,,,,100,,,,,,,Space,keypress(Space),,,,,,,,-- --- ---- --- ------ ----- ------- ---- -- --- ------- --<br>------- ---------- ------ -- ----- -- ----- -- ---- ------<br>--- ----- --- --- ------ -------- ----- The ------ ----- --<br>----- ----- ---------- --- --- ------ ------ ---- -- ------<br>------- --- ------ ----- --- ---- ------- -- ---- --- --<br>------- ------,221344.40000009537,221343.40000009537,220872.463,220881.10000002384,220889.086,221355.834,,29,The
screen,html.Screen,2_1_1_1_30,2022-05-13T09:19:49.018Z,,,,,,,,,,,,,,,,,54,,,,,,,,,,,,,,435.966000071523,,response,,,,100,,,,,,,Space,keypress(Space),,,,,,,,-- --- ---- --- ------ ----- ------- ---- -- --- ------- --<br>------- ---------- ------ -- ----- -- ----- -- ---- ------<br>--- ----- --- --- ------ -------- ----- --- market ----- --<br>----- ----- ---------- --- --- ------ ------ ---- -- ------<br>------- --- ------ ----- --- ---- ------- -- ---- --- --<br>------- ------,221792.40000009537,221791.80000007153,221339.07,221344.60000002384,221355.834,221805.62,,30,market
screen,html.Screen,2_1_1_1_31,2022-05-13T09:19:49.413Z,,,,,,,,,,,,,,,,,54,,,,,,,,,,,,,,380.88000000000466,,response,,,,100,,,,,,,Space,keypress(Space),,,,,,,,-- --- ---- --- ------ ----- ------- ---- -- --- ------- --<br>------- ---------- ------ -- ----- -- ----- -- ---- ------<br>--- ----- --- --- ------ -------- ----- --- ------ value --<br>----- ----- ---------- --- --- ------ ------ ---- -- ------<br>------- --- ------ ----- --- ---- ------- -- ---- --- --<br>------- ------,222187.5,222186.5,221788.953,221792.40000009537,221805.62,222188.91,,31,value
screen,html.Screen,2_1_1_1_32,2022-05-13T09:19:49.807Z,,,,,,,,,,,,,,,,,54,,,,,,,,,,,,,,390.7900000476802,,response,,,,100,,,,,,,Space,keypress(Space),,,,,,,,-- --- ---- --- ------ ----- ------- ---- -- --- ------- --<br>------- ---------- ------ -- ----- -- ----- -- ---- ------<br>--- ----- --- --- ------ -------- ----- --- ------ ----- of<br>----- ----- ---------- --- --- ------ ------ ---- -- ------<br>------- --- ------ ----- --- ---- ------- -- ---- --- --<br>------- ------,222580.70000004768,222579.70000004768,222172.292,222187.80000007153,222188.91,222588.843,,32,of
screen,html.Screen,2_1_1_1_33,2022-05-13T09:19:50.218Z,,,,,,,,,,,,,,,,,54,,,,,,,,,,,,,,402.7570000238484,,response,,,,100,,,,,,,Space,keypress(Space),,,,,,,,-- --- ---- --- ------ ----- ------- ---- -- --- ------- --<br>------- ---------- ------ -- ----- -- ----- -- ---- ------<br>--- ----- --- --- ------ -------- ----- --- ------ ----- --<br>these ----- ---------- --- --- ------ ------ ---- -- ------<br>------- --- ------ ----- --- ---- ------- -- ---- --- --<br>------- ------,222992.5,222991.60000002384,222572.299,222580.90000009537,222588.843,223005.572,,33,these
screen,html.Screen,2_1_1_1_34,2022-05-13T09:19:50.612Z,,,,,,,,,,,,,,,,,54,,,,,,,,,,,,,,379.22800007154,,response,,,,100,,,,,,,Space,keypress(Space),,,,,,,,-- --- ---- --- ------ ----- ------- ---- -- --- ------- --<br>------- ---------- ------ -- ----- -- ----- -- ---- ------<br>--- ----- --- --- ------ -------- ----- --- ------ ----- --<br>----- bonds ---------- --- --- ------ ------ ---- -- ------<br>------- --- ------ ----- --- ---- ------- -- ---- --- --<br>------- ------,223385.90000009537,223384.80000007153,222988.814,222992.70000004768,223005.572,223388.85,,34,bonds
screen,html.Screen,2_1_1_1_35,2022-05-13T09:19:51.351Z,,,,,,,,,,,,,,,,,54,,,,,,,,,,,,,,735.3500000476779,,response,,,,100,,,,,,,Space,keypress(Space),,,,,,,,"-- --- ---- --- ------ ----- ------- ---- -- --- ------- --<br>------- ---------- ------ -- ----- -- ----- -- ---- ------<br>--- ----- --- --- ------ -------- ----- --- ------ ----- --<br>----- ----- plummeted, --- --- ------ ------ ---- -- ------<br>------- --- ------ ----- --- ---- ------- -- ---- --- --<br>------- ------",224124.60000002384,224124.20000004768,223372.143,223386.10000002384,223388.85,224138.727,,35,"plummeted,"
screen,html.Screen,2_1_1_1_36,2022-05-13T09:19:51.828Z,,,,,,,,,,,,,,,,,54,,,,,,,,,,,,,,462.1730000953539,,response,,,,100,,,,,,,Space,keypress(Space),,,,,,,,-- --- ---- --- ------ ----- ------- ---- -- --- ------- --<br>------- ---------- ------ -- ----- -- ----- -- ---- ------<br>--- ----- --- --- ------ -------- ----- --- ------ ----- --<br>----- ----- ---------- and --- ------ ------ ---- -- ------<br>------- --- ------ ----- --- ---- ------- -- ---- --- --<br>------- ------,224601.80000007153,224600.90000009537,224122.03,224124.80000007153,224138.727,224605.277,,36,and
screen,html.Screen,2_1_1_1_37,2022-05-13T09:19:52.228Z,,,,,,,,,,,,,,,,,54,,,,,,,,,,,,,,396.22299999999814,,response,,,,100,,,,,,,Space,keypress(Space),,,,,,,,-- --- ---- --- ------ ----- ------- ---- -- --- ------- --<br>------- ---------- ------ -- ----- -- ----- -- ---- ------<br>--- ----- --- --- ------ -------- ----- --- ------ ----- --<br>----- ----- ---------- --- the ------ ------ ---- -- ------<br>------- --- ------ ----- --- ---- ------- -- ---- --- --<br>------- ------,225002.5,225001.5,224588.616,224602.10000002384,224605.277,225005.263,,37,the
screen,html.Screen,2_1_1_1_38,2022-05-13T09:19:52.643Z,,,,,,,,,,,,,,,,,54,,,,,,,,,,,,,,410.43700004767743,,response,,,,100,,,,,,,Space,keypress(Space),,,,,,,,-- --- ---- --- ------ ----- ------- ---- -- --- ------- --<br>------- ---------- ------ -- ----- -- ----- -- ---- ------<br>--- ----- --- --- ------ -------- ----- --- ------ ----- --<br>----- ----- ---------- --- --- market ------ ---- -- ------<br>------- --- ------ ----- --- ---- ------- -- ---- --- --<br>------- ------,225416.70000004768,225415.70000004768,224988.637,225002.70000004768,225005.263,225421.815,,38,market
screen,html.Screen,2_1_1_1_39,2022-05-13T09:19:53.085Z,,,,,,,,,,,,,,,,,54,,,,,,,,,,,,,,436.5850000953651,,response,,,,100,,,,,,,Space,keypress(Space),,,,,,,,-- --- ---- --- ------ ----- ------- ---- -- --- ------- --<br>------- ---------- ------ -- ----- -- ----- -- ---- ------<br>--- ----- --- --- ------ -------- ----- --- ------ ----- --<br>----- ----- ---------- --- --- ------ became ---- -- ------<br>------- --- ------ ----- --- ---- ------- -- ---- --- --<br>------- ------,225859.30000007153,225858.40000009537,225405.291,225416.90000009537,225421.815,225871.782,,39,became
screen,html.Screen,2_1_1_1_40,2022-05-13T09:19:53.511Z,,,,,,,,,,,,,,,,,54,,,,,,,,,,,,,,412.1180000953609,,response,,,,100,,,,,,,Space,keypress(Space),,,,,,,,-- --- ---- --- ------ ----- ------- ---- -- --- ------- --<br>------- ---------- ------ -- ----- -- ----- -- ---- ------<br>--- ----- --- --- ------ -------- ----- --- ------ ----- --<br>----- ----- ---------- --- --- ------ ------ wary -- ------<br>------- --- ------ ----- --- ---- ------- -- ---- --- --<br>------- ------,226284.90000009537,226283.90000009537,225855.166,225859.60000002384,225871.782,226288.442,,40,wary
screen,html.Screen,2_1_1_1_41,2022-05-13T09:19:53.926Z,,,,,,,,,,,,,,,,,54,,,,,,,,,,,,,,410.85800007151556,,response,,,,100,,,,,,,Space,keypress(Space),,,,,,,,-- --- ---- --- ------ ----- ------- ---- -- --- ------- --<br>------- ---------- ------ -- ----- -- ----- -- ---- ------<br>--- ----- --- --- ------ -------- ----- --- ------ ----- --<br>----- ----- ---------- --- --- ------ ------ ---- of ------<br>------- --- ------ ----- --- ---- ------- -- ---- --- --<br>------- ------,226700.5,226699.30000007153,226271.726,226285.10000002384,226288.442,226705.057,,41,of
screen,html.Screen,2_1_1_1_42,2022-05-13T09:19:54.518Z,,,,,,,,,,,,,,,,,54,,,,,,,,,,,,,,586.643000047683,,response,,,,100,,,,,,,Space,keypress(Space),,,,,,,,-- --- ---- --- ------ ----- ------- ---- -- --- ------- --<br>------- ---------- ------ -- ----- -- ----- -- ---- ------<br>--- ----- --- --- ------ -------- ----- --- ------ ----- --<br>----- ----- ---------- --- --- ------ ------ ---- -- French<br>------- --- ------ ----- --- ---- ------- -- ---- --- --<br>------- ------,227292.40000009537,227291.70000004768,226688.365,226700.70000004768,226705.057,227304.955,,42,French
screen,html.Screen,2_1_1_1_43,2022-05-13T09:19:56.628Z,,,,,,,,,,,,,,,,,54,,,,,,,,,,,,,,2096.045000000013,,response,,,,100,,,,,,,Space,keypress(Space),,,,,,,,-- --- ---- --- ------ ----- ------- ---- -- --- ------- --<br>------- ---------- ------ -- ----- -- ----- -- ---- ------<br>--- ----- --- --- ------ -------- ----- --- ------ ----- --<br>----- ----- ---------- --- --- ------ ------ ---- -- ------<br>credit. --- ------ ----- --- ---- ------- -- ---- --- --<br>------- ------,229401.90000009537,229401,227288.304,227292.60000002384,227304.955,229404.673,,43,credit.
screen,html.Screen,2_1_1_1_44,2022-05-13T09:19:57.911Z,,,,,,,,,,,,,,,,,54,,,,,,,,,,,,,,1279.527000047674,,response,,,,100,,,,,,,Space,keypress(Space),,,,,,,,-- --- ---- --- ------ ----- ------- ---- -- --- ------- --<br>------- ---------- ------ -- ----- -- ----- -- ---- ------<br>--- ----- --- --- ------ -------- ----- --- ------ ----- --<br>----- ----- ---------- --- --- ------ ------ ---- -- ------<br>------- The ------ ----- --- ---- ------- -- ---- --- --<br>------- ------,230685.30000007153,230684.20000004768,229388.03,229402.10000002384,229404.673,230687.794,,44,The
screen,html.Screen,2_1_1_1_45,2022-05-13T09:19:58.739Z,,,,,,,,,,,,,,,,,54,,,,,,,,,,,,,,824.5060000715312,,response,,,,100,,,,,,,Space,keypress(Space),,,,,,,,-- --- ---- --- ------ ----- ------- ---- -- --- ------- --<br>------- ---------- ------ -- ----- -- ----- -- ---- ------<br>--- ----- --- --- ------ -------- ----- --- ------ ----- --<br>----- ----- ---------- --- --- ------ ------ ---- -- ------<br>------- --- French ----- --- ---- ------- -- ---- --- --<br>------- ------,231513.10000002384,231512.30000007153,230671.27,230685.5,230687.794,231521.057,,45,French
screen,html.Screen,2_1_1_1_46,2022-05-13T09:19:59.438Z,,,,,,,,,,,,,,,,,54,,,,,,,,,,,,,,689.7430000715249,,response,,,,100,,,,,,,Space,keypress(Space),,,,,,,,-- --- ---- --- ------ ----- ------- ---- -- --- ------- --<br>------- ---------- ------ -- ----- -- ----- -- ---- ------<br>--- ----- --- --- ------ -------- ----- --- ------ ----- --<br>----- ----- ---------- --- --- ------ ------ ---- -- ------<br>------- --- ------ state --- ---- ------- -- ---- --- --<br>------- ------,232211.80000007153,232210.80000007153,231504.474,231513.5,231521.057,232220.965,,46,state
screen,html.Screen,2_1_1_1_47,2022-05-13T09:20:00.115Z,,,,,,,,,,,,,,,,,54,,,,,,,,,,,,,,667.8350000715291,,response,,,,100,,,,,,,Space,keypress(Space),,,,,,,,-- --- ---- --- ------ ----- ------- ---- -- --- ------- --<br>------- ---------- ------ -- ----- -- ----- -- ---- ------<br>--- ----- --- --- ------ -------- ----- --- ------ ----- --<br>----- ----- ---------- --- --- ------ ------ ---- -- ------<br>------- --- ------ ----- was ---- ------- -- ---- --- --<br>------- ------,232889.20000004768,232888.80000007153,232204.278,232212,232220.965,232904.259,,47,was
screen,html.Screen,2_1_1_1_48,2022-05-13T09:20:01.303Z,,,,,,,,,,,,,,,,,54,,,,,,,,,,,,,,1171.6410000953765,,response,,,,100,,,,,,,Space,keypress(Space),,,,,,,,-- --- ---- --- ------ ----- ------- ---- -- --- ------- --<br>------- ---------- ------ -- ----- -- ----- -- ---- ------<br>--- ----- --- --- ------ -------- ----- --- ------ ----- --<br>----- ----- ---------- --- --- ------ ------ ---- -- ------<br>------- --- ------ ----- --- left ------- -- ---- --- --<br>------- ------,234076.80000007153,234075.90000009537,232887.638,232889.30000007153,232904.259,234087.421,,48,left
screen,html.Screen,2_1_1_1_49,2022-05-13T09:20:01.884Z,,,,,,,,,,,,,,,,,54,,,,,,,,,,,,,,569.7790000476816,,response,,,,100,,,,,,,Space,keypress(Space),,,,,,,,-- --- ---- --- ------ ----- ------- ---- -- --- ------- --<br>------- ---------- ------ -- ----- -- ----- -- ---- ------<br>--- ----- --- --- ------ -------- ----- --- ------ ----- --<br>----- ----- ---------- --- --- ------ ------ ---- -- ------<br>------- --- ------ ----- --- ---- without -- ---- --- --<br>------- ------,234657.70000004768,234657.20000004768,234070.814,234077.10000002384,234087.421,234670.608,,49,without
screen,html.Screen,2_1_1_1_50,2022-05-13T09:20:02.475Z,,,,,,,,,,,,,,,,,54,,,,,,,,,,,,,,577.4920000238344,,response,,,,100,,,,,,,Space,keypress(Space),,,,,,,,-- --- ---- --- ------ ----- ------- ---- -- --- ------- --<br>------- ---------- ------ -- ----- -- ----- -- ---- ------<br>--- ----- --- --- ------ -------- ----- --- ------ ----- --<br>----- ----- ---------- --- --- ------ ------ ---- -- ------<br>------- --- ------ ----- --- ---- ------- an ---- --- --<br>------- ------,235249.10000002384,235248.10000002384,234653.934,234657.80000007153,234670.608,235253.914,,50,an
screen,html.Screen,2_1_1_1_51,2022-05-13T09:20:03.134Z,,,,,,,,,,,,,,,,,54,,,,,,,,,,,,,,653.5860000000102,,response,,,,100,,,,,,,Space,keypress(Space),,,,,,,,-- --- ---- --- ------ ----- ------- ---- -- --- ------- --<br>------- ---------- ------ -- ----- -- ----- -- ---- ------<br>--- ----- --- --- ------ -------- ----- --- ------ ----- --<br>----- ----- ---------- --- --- ------ ------ ---- -- ------<br>------- --- ------ ----- --- ---- ------- -- easy --- --<br>------- ------,235908.60000002384,235907.5,235237.268,235249.40000009537,235253.914,235920.525,,51,easy
screen,html.Screen,2_1_1_1_52,2022-05-13T09:20:03.633Z,,,,,,,,,,,,,,,,,54,,,,,,,,,,,,,,485.9750000000058,,response,,,,100,,,,,,,Space,keypress(Space),,,,,,,,-- --- ---- --- ------ ----- ------- ---- -- --- ------- --<br>------- ---------- ------ -- ----- -- ----- -- ---- ------<br>--- ----- --- --- ------ -------- ----- --- ------ ----- --<br>----- ----- ---------- --- --- ------ ------ ---- -- ------<br>------- --- ------ ----- --- ---- ------- -- ---- way --<br>------- ------,236407.30000007153,236406.5,235903.819,235908.80000007153,235920.525,236420.451,,52,way
screen,html.Screen,2_1_1_1_53,2022-05-13T09:20:04.124Z,,,,,,,,,,,,,,,,,54,,,,,,,,,,,,,,477.04899999999907,,response,,,,100,,,,,,,Space,keypress(Space),,,,,,,,-- --- ---- --- ------ ----- ------- ---- -- --- ------- --<br>------- ---------- ------ -- ----- -- ----- -- ---- ------<br>--- ----- --- --- ------ -------- ----- --- ------ ----- --<br>----- ----- ---------- --- --- ------ ------ ---- -- ------<br>------- --- ------ ----- --- ---- ------- -- ---- --- of<br>------- ------,236897.90000009537,236897.5,236403.774,236407.40000009537,236420.451,236903.604,,53,of
screen,html.Screen,2_1_1_1_54,2022-05-13T09:20:04.683Z,,,,,,,,,,,,,,,,,54,,,,,,,,,,,,,,552.4960000238498,,response,,,,100,,,,,,,Space,keypress(Space),,,,,,,,-- --- ---- --- ------ ----- ------- ---- -- --- ------- --<br>------- ---------- ------ -- ----- -- ----- -- ---- ------<br>--- ----- --- --- ------ -------- ----- --- ------ ----- --<br>----- ----- ---------- --- --- ------ ------ ---- -- ------<br>------- --- ------ ----- --- ---- ------- -- ---- --- --<br>raising ------,237457,237456.10000002384,236886.979,236897.90000009537,236903.604,237470.399,,54,raising
screen,html.Screen,2_1_1_1_55,2022-05-13T09:20:06.590Z,,,,,,,,,,,,,,,,,54,,,,,,,,,,,,,,1892.201000023837,,response,,,,100,,,,,,,Space,keypress(Space),,,,,,,,-- --- ---- --- ------ ----- ------- ---- -- --- ------- --<br>------- ---------- ------ -- ----- -- ----- -- ---- ------<br>--- ----- --- --- ------ -------- ----- --- ------ ----- --<br>----- ----- ---------- --- --- ------ ------ ---- -- ------<br>------- --- ------ ----- --- ---- ------- -- ---- --- --<br>------- money.,239363.80000007153,239362.60000002384,237453.615,237457.30000007153,237470.399,239370.036,,55,money.
Item 100,flow.Loop,2_1_1_1,2022-05-13T09:20:06.590Z,,,,,,,,,,,,,,,,,,,,,,,,,,,,,,,31505.06200002384,,completion,,,,,G,,,,,,,,,,,silence,,,,,239364.30000007153,239362.60000002384,207840.855,207843.40000009537,207857.538,239370.036,,,
Question 1,html.Screen,2_1_1_2,2022-05-13T09:20:12.133Z,,,,,,,,,,,,,,,,,,,,,,,,,,,,true,TRUE,,5536.164000047691,,response,,,,100,G,,,,,,TRUE,click #choice-1,,,,silence,,,,,244906.90000009537,244906.20000004768,239353.339,239364.40000009537,239370.036,244919.239,,,
Question 2,html.Screen,2_1_1_3,2022-05-13T09:20:17.091Z,,,,,,,,,,,,,,,,,,,,,,,,,,,,true,FALSE,,4944.161000095366,,response,,,,100,G,,,,,,FALSE,click #choice-2,,,,silence,,,,,249864.90000009537,249863.40000009537,244902.582,244907,244919.239,249868.63,,,
Item 100,flow.Sequence,2_1_1,2022-05-13T09:20:17.091Z,,,,,,,,,,,,,,,,,,,,,,,,,,,,,,,52004.585000095365,,completion,,,,,,,,,,,,,,,,,,,,,249865.20000004768,249863.40000009537,197825.561,197825.90000009537,197858.815,249868.63,,,
End of Practice,html.Page,2_1_2,2022-05-13T09:20:37.078Z,,,,,,,,,,,,,,,,,,,,,,,,,,,,,,,19997.429999999993,,timeout,,,,,,,,,,,,,,,,,,,,,269851.2000000477,269849.377,249851.99,249865.40000009537,249868.63,269866.06,,,
Practice,flow.Sequence,2_1,2022-05-13T09:20:37.078Z,,,,,,,,,,,,,,,,,,,,,,,,,,,,,,,123167.19399999999,,completion,,,,,,,,,,,,,,,,,,,,,269851.5,269849.377,146665.543,146678.5,146682.183,269866.06,,,
Trap_instruction,html.Page,2_2_0,2022-05-13T09:20:57.074Z,,,,,,,,,,,,,,,,,,,,,,,,,,,,,,,19997.243000000017,,timeout,,,,,,,,,,,,,,,,,,,,,289847.10000002384,289846.653,269849.377,269851.8000000715,269866.06,289863.303,,,
trap_trial,html.Screen,2_2_1,2022-05-13T09:21:02.635Z,,,,,,,,,,,,,,,,,,,,,,,,,,,,true,1,,5544.397000047669,,response,,,,,,,,,,,1,click #choice-1,,,,,,,,,295408.3000000715,295407.7000000477,289846.653,289847.2000000477,289863.303,295412.569,,,
end of trap trial,html.Page,2_2_2,2022-05-13T09:21:06.432Z,,,,,,,,,,,,,,,,,,,,,,,,,,,,,,,3792.4309999999823,,form submission,,,,,,,,,,,,,,,,,,,,,299205.5,299205,295395.979,295408.40000009537,295412.569,299212.206,,,
Trap 1,flow.Sequence,2_2,2022-05-13T09:21:06.432Z,,,,,,,,,,,,,,,,,,,,,,,,,,,,,,,29338.940000000002,,completion,,,,,,,,,,,,,,,,,,,,,299205.8000000715,299205,269849.377,269851.60000002384,269866.06,299212.206,,,
Standby,html.Page,2_3_0,2022-05-13T09:21:14.421Z,,,,,,,,,,,,,,,,,,,,,,,,,,,,,,,7998.842000000004,,timeout,,,,,,,,,,,,,,,,,,,,,307194.90000009537,307194.403,299195.506,299206,299212.206,307211.048,,,
Holding screen,html.Screen,2_3_1_0_0,2022-05-13T09:21:21.422Z,,,,,,,,,,,,,,,,,,,,,,,,,,,,,,,6999.1479999999865,,timeout,,,,,,,,,,,,,,,,,,,,,314195,314193.554,307194.403,307195,307211.048,314210.196,,,
screen,html.Screen,2_3_1_0_1_0,2022-05-13T09:21:23.926Z,,,,,,,,,,,,,,,,,19,,,,,,,,,,,,,,2487.8040000000037,,response,,,,17,G,,,,,,Space,keypress(Space),,,,instrumental,,,,"Interestingly, --- -------- -------- ---------- ---- -------<br>-- ---------- -- --- ----- ------ ----- ---- --------- ----<br>------- ------ -------- -- ------ ---------- ------ ---<br>------ -- -- ---- -- ---------- -------- ------ ---- -------<br>---- --- --------- ------- ----- --------- ---- ----- --<br>------ -------- -- ------ -- ---- ------------",316698.5,316698,314193.554,314195.3000000715,314210.196,316709.94,,0,"Interestingly,"
screen,html.Screen,2_3_1_0_1_1,2022-05-13T09:21:24.369Z,,,,,,,,,,,,,,,,,19,,,,,,,,,,,,,,430.2600000476814,,response,,,,17,G,,,,,,Space,keypress(Space),,,,instrumental,,,,-------------- the -------- -------- ---------- ---- -------<br>-- ---------- -- --- ----- ------ ----- ---- --------- ----<br>------- ------ -------- -- ------ ---------- ------ ---<br>------ -- -- ---- -- ---------- -------- ------ ---- -------<br>---- --- --------- ------- ----- --------- ---- ----- --<br>------ -------- -- ------ -- ---- ------------,317141.3000000715,317140.2000000477,316693.114,316698.60000002384,316709.94,317143.143,,1,the
screen,html.Screen,2_3_1_0_1_2,2022-05-13T09:21:24.808Z,,,,,,,,,,,,,,,,,19,,,,,,,,,,,,,,435.95700002386,,response,,,,17,G,,,,,,Space,keypress(Space),,,,instrumental,,,,-------------- --- heaviest -------- ---------- ---- -------<br>-- ---------- -- --- ----- ------ ----- ---- --------- ----<br>------- ------ -------- -- ------ ---------- ------ ---<br>------ -- -- ---- -- ---------- -------- ------ ---- -------<br>---- --- --------- ------- ----- --------- ---- ----- --<br>------ -------- -- ------ -- ---- ------------,317580.10000002384,317579.10000002384,317126.528,317141.5,317143.143,317593.12,,2,heaviest
screen,html.Screen,2_3_1_0_1_3,2022-05-13T09:21:25.203Z,,,,,,,,,,,,,,,,,19,,,,,,,,,,,,,,381.5800000476884,,response,,,,17,G,,,,,,Space,keypress(Space),,,,instrumental,,,,-------------- --- -------- isotopes ---------- ---- -------<br>-- ---------- -- --- ----- ------ ----- ---- --------- ----<br>------- ------ -------- -- ------ ---------- ------ ---<br>------ -- -- ---- -- ---------- -------- ------ ---- -------<br>---- --- --------- ------- ----- --------- ---- ----- --<br>------ -------- -- ------ -- ---- ------------,317975.7000000477,317974.7000000477,317576.457,317580.3000000715,317593.12,317992.918,,3,isotopes
screen,html.Screen,2_3_1_0_1_4,2022-05-13T09:21:26.040Z,,,,,,,,,,,,,,,,,19,,,,,,,,,,,,,,818.9820000953623,,response,,,,17,G,,,,,,Space,keypress(Space),,,,instrumental,,,,-------------- --- -------- -------- physicists ---- -------<br>-- ---------- -- --- ----- ------ ----- ---- --------- ----<br>------- ------ -------- -- ------ ---------- ------ ---<br>------ -- -- ---- -- ---------- -------- ------ ---- -------<br>---- --- --------- ------- ----- --------- ---- ----- --<br>------ -------- -- ------ -- ---- ------------,318812.2000000477,318811.90000009537,317976.345,317976,317992.918,318826.208,,4,physicists
screen,html.Screen,2_3_1_0_1_5,2022-05-13T09:21:26.447Z,,,,,,,,,,,,,,,,,19,,,,,,,,,,,,,,392.19200009538326,,response,,,,17,G,,,,,,Space,keypress(Space),,,,instrumental,,,,-------------- --- -------- -------- ---------- have -------<br>-- ---------- -- --- ----- ------ ----- ---- --------- ----<br>------- ------ -------- -- ------ ---------- ------ ---<br>------ -- -- ---- -- ---------- -------- ------ ---- -------<br>---- --- --------- ------- ----- --------- ---- ----- --<br>------ -------- -- ------ -- ---- ------------,319219.60000002384,319218.40000009537,318809.508,318812.40000009537,318826.208,319242.913,,5,have
screen,html.Screen,2_3_1_0_1_6,2022-05-13T09:21:27.031Z,,,,,,,,,,,,,,,,,19,,,,,,,,,,,,,,559.3870000715251,,response,,,,17,G,,,,,,Space,keypress(Space),,,,instrumental,,,,-------------- --- -------- -------- ---------- ---- managed<br>-- ---------- -- --- ----- ------ ----- ---- --------- ----<br>------- ------ -------- -- ------ ---------- ------ ---<br>------ -- -- ---- -- ---------- -------- ------ ---- -------<br>---- --- --------- ------- ----- --------- ---- ----- --<br>------ -------- -- ------ -- ---- ------------,319803.2000000477,319802.3000000715,319209.58,319219.90000009537,319242.913,319809.385,,6,managed
screen,html.Screen,2_3_1_0_1_7,2022-05-13T09:21:27.486Z,,,,,,,,,,,,,,,,,19,,,,,,,,,,,,,,448.41500007151626,,response,,,,17,G,,,,,,Space,keypress(Space),,,,instrumental,,,,-------------- --- -------- -------- ---------- ---- -------<br>to ---------- -- --- ----- ------ ----- ---- --------- ----<br>------- ------ -------- -- ------ ---------- ------ ---<br>------ -- -- ---- -- ---------- -------- ------ ---- -------<br>---- --- --------- ------- ----- --------- ---- ----- --<br>------ -------- -- ------ -- ---- ------------,320258.2000000477,320257.8000000715,319792.78,319803.40000009537,319809.385,320259.307,,7,to
screen,html.Screen,2_3_1_0_1_8,2022-05-13T09:21:28.094Z,,,,,,,,,,,,,,,,,19,,,,,,,,,,,,,,606.3930000477121,,response,,,,17,G,,,,,,Space,keypress(Space),,,,instrumental,,,,-------------- --- -------- -------- ---------- ---- -------<br>-- synthesize -- --- ----- ------ ----- ---- --------- ----<br>------- ------ -------- -- ------ ---------- ------ ---<br>------ -- -- ---- -- ---------- -------- ------ ---- -------<br>---- --- --------- ------- ----- --------- ---- ----- --<br>------ -------- -- ------ -- ---- ------------,320866.3000000715,320865.7000000477,320242.688,320258.3000000715,320259.307,320876.044,,8,synthesize
screen,html.Screen,2_3_1_0_1_9,2022-05-13T09:21:28.503Z,,,,,,,,,,,,,,,,,19,,,,,,,,,,,,,,399.05600002384745,,response,,,,17,G,,,,,,Space,keypress(Space),,,,instrumental,,,,-------------- --- -------- -------- ---------- ---- -------<br>-- ---------- so --- ----- ------ ----- ---- --------- ----<br>------- ------ -------- -- ------ ---------- ------ ---<br>------ -- -- ---- -- ---------- -------- ------ ---- -------<br>---- --- --------- ------- ----- --------- ---- ----- --<br>------ -------- -- ------ -- ---- ------------,321275.5,321275.10000002384,320859.386,320866.40000009537,320876.044,321292.815,,9,so
screen,html.Screen,2_3_1_0_1_10,2022-05-13T09:21:28.946Z,,,,,,,,,,,,,,,,,19,,,,,,,,,,,,,,425.6849999999977,,response,,,,17,G,,,,,,Space,keypress(Space),,,,instrumental,,,,-------------- --- -------- -------- ---------- ---- -------<br>-- ---------- -- far ----- ------ ----- ---- --------- ----<br>------- ------ -------- -- ------ ---------- ------ ---<br>------ -- -- ---- -- ---------- -------- ------ ---- -------<br>---- --- --------- ------- ----- --------- ---- ----- --<br>------ -------- -- ------ -- ---- ------------,321718.90000009537,321718.5,321275.935,321275.60000002384,321292.815,321725.767,,10,far
screen,html.Screen,2_3_1_0_1_11,2022-05-13T09:21:29.286Z,,,,,,,,,,,,,,,,,19,,,,,,,,,,,,,,332.033000071533,,response,,,,17,G,,,,,,Space,keypress(Space),,,,instrumental,,,,-------------- --- -------- -------- ---------- ---- -------<br>-- ---------- -- --- don't ------ ----- ---- --------- ----<br>------- ------ -------- -- ------ ---------- ------ ---<br>------ -- -- ---- -- ---------- -------- ------ ---- -------<br>---- --- --------- ------- ----- --------- ---- ----- --<br>------ -------- -- ------ -- ---- ------------,322058.8000000715,322057.8000000715,321709.217,321719,321725.767,322075.821,,11,don't
screen,html.Screen,2_3_1_0_1_12,2022-05-13T09:21:29.709Z,,,,,,,,,,,,,,,,,19,,,,,,,,,,,,,,404.1790000000037,,response,,,,17,G,,,,,,Space,keypress(Space),,,,instrumental,,,,-------------- --- -------- -------- ---------- ---- -------<br>-- ---------- -- --- ----- behave ----- ---- --------- ----<br>------- ------ -------- -- ------ ---------- ------ ---<br>------ -- -- ---- -- ---------- -------- ------ ---- -------<br>---- --- --------- ------- ----- --------- ---- ----- --<br>------ -------- -- ------ -- ---- ------------,322481.10000002384,322480,322059.15,322059.10000002384,322075.821,322492.438,,12,behave
screen,html.Screen,2_3_1_0_1_13,2022-05-13T09:21:30.057Z,,,,,,,,,,,,,,,,,19,,,,,,,,,,,,,,336.06199999997625,,response,,,,17,G,,,,,,Space,keypress(Space),,,,instrumental,,,,-------------- --- -------- -------- ---------- ---- -------<br>-- ---------- -- --- ----- ------ quite ---- --------- ----<br>------- ------ -------- -- ------ ---------- ------ ---<br>------ -- -- ---- -- ---------- -------- ------ ---- -------<br>---- --- --------- ------- ----- --------- ---- ----- --<br>------ -------- -- ------ -- ---- ------------,322829.60000002384,322828.5,322475.884,322481.3000000715,322492.438,322842.452,,13,quite
screen,html.Screen,2_3_1_0_1_14,2022-05-13T09:21:30.357Z,,,,,,,,,,,,,,,,,19,,,,,,,,,,,,,,287.14800002385164,,response,,,,17,G,,,,,,Space,keypress(Space),,,,instrumental,,,,-------------- --- -------- -------- ---------- ---- -------<br>-- ---------- -- --- ----- ------ ----- like --------- ----<br>------- ------ -------- -- ------ ---------- ------ ---<br>------ -- -- ---- -- ---------- -------- ------ ---- -------<br>---- --- --------- ------- ----- --------- ---- ----- --<br>------ -------- -- ------ -- ---- ------------,323130.10000002384,323129.60000002384,322825.833,322830,322842.452,323142.334,,14,like
screen,html.Screen,2_3_1_0_1_15,2022-05-13T09:21:30.696Z,,,,,,,,,,,,,,,,,19,,,,,,,,,,,,,,324.86600004771026,,response,,,,17,G,,,,,,Space,keypress(Space),,,,instrumental,,,,-------------- --- -------- -------- ---------- ---- -------<br>-- ---------- -- --- ----- ------ ----- ---- science's ----<br>------- ------ -------- -- ------ ---------- ------ ---<br>------ -- -- ---- -- ---------- -------- ------ ---- -------<br>---- --- --------- ------- ----- --------- ---- ----- --<br>------ -------- -- ------ -- ---- ------------,323468.2000000477,323467.2000000477,323125.608,323130.10000002384,323142.334,323475.683,,15,science's
screen,html.Screen,2_3_1_0_1_16,2022-05-13T09:21:31.119Z,,,,,,,,,,,,,,,,,19,,,,,,,,,,,,,,416.0170000476646,,response,,,,17,G,,,,,,Space,keypress(Space),,,,instrumental,,,,-------------- --- -------- -------- ---------- ---- -------<br>-- ---------- -- --- ----- ------ ----- ---- --------- best<br>------- ------ -------- -- ------ ---------- ------ ---<br>------ -- -- ---- -- ---------- -------- ------ ---- -------<br>---- --- --------- ------- ----- --------- ---- ----- --<br>------ -------- -- ------ -- ---- ------------,323892,323891.7000000477,323459.021,323468.40000009537,323475.683,323908.807,,16,best
screen,html.Screen,2_3_1_0_1_17,2022-05-13T09:21:32.012Z,,,,,,,,,,,,,,,,,19,,,,,,,,,,,,,,875.6930000000284,,response,,,,17,G,,,,,,Space,keypress(Space),,,,instrumental,,,,-------------- --- -------- -------- ---------- ---- -------<br>-- ---------- -- --- ----- ------ ----- ---- --------- ----<br>current ------ -------- -- ------ ---------- ------ ---<br>------ -- -- ---- -- ---------- -------- ------ ---- -------<br>---- --- --------- ------- ----- --------- ---- ----- --<br>------ -------- -- ------ -- ---- ------------,324784.90000009537,324784.5,323892.185,323892.2000000477,323908.807,324792.152,,17,current
screen,html.Screen,2_3_1_0_1_18,2022-05-13T09:21:32.561Z,,,,,,,,,,,,,,,,,19,,,,,,,,,,,,,,540.3479999999981,,response,,,,17,G,,,,,,Space,keypress(Space),,,,instrumental,,,,-------------- --- -------- -------- ---------- ---- -------<br>-- ---------- -- --- ----- ------ ----- ---- --------- ----<br>------- models -------- -- ------ ---------- ------ ---<br>------ -- -- ---- -- ---------- -------- ------ ---- -------<br>---- --- --------- ------- ----- --------- ---- ----- --<br>------ -------- -- ------ -- ---- ------------,325333.40000009537,325332.5,324775.407,324784.90000009537,324792.152,325342.153,,18,models
screen,html.Screen,2_3_1_0_1_19,2022-05-13T09:21:33.468Z,,,,,,,,,,,,,,,,,19,,,,,,,,,,,,,,898.0470000476926,,response,,,,17,G,,,,,,Space,keypress(Space),,,,instrumental,,,,"-------------- --- -------- -------- ---------- ---- -------<br>-- ---------- -- --- ----- ------ ----- ---- --------- ----<br>------- ------ predict, -- ------ ---------- ------ ---<br>------ -- -- ---- -- ---------- -------- ------ ---- -------<br>---- --- --------- ------- ----- --------- ---- ----- --<br>------ -------- -- ------ -- ---- ------------",326240.60000002384,326240.2000000477,325325.402,325333.7000000477,325342.153,326241.876,,19,"predict,"
screen,html.Screen,2_3_1_0_1_20,2022-05-13T09:21:33.888Z,,,,,,,,,,,,,,,,,19,,,,,,,,,,,,,,417.9240000715363,,response,,,,17,G,,,,,,Space,keypress(Space),,,,instrumental,,,,-------------- --- -------- -------- ---------- ---- -------<br>-- ---------- -- --- ----- ------ ----- ---- --------- ----<br>------- ------ -------- so ------ ---------- ------ ---<br>------ -- -- ---- -- ---------- -------- ------ ---- -------<br>---- --- --------- ------- ----- --------- ---- ----- --<br>------ -------- -- ------ -- ---- ------------,326660.40000009537,326659.8000000715,326225.236,326240.60000002384,326241.876,326675.206,,20,so
screen,html.Screen,2_3_1_0_1_21,2022-05-13T09:21:34.466Z,,,,,,,,,,,,,,,,,19,,,,,,,,,,,,,,562.2939999999944,,response,,,,17,G,,,,,,Space,keypress(Space),,,,instrumental,,,,-------------- --- -------- -------- ---------- ---- -------<br>-- ---------- -- --- ----- ------ ----- ---- --------- ----<br>------- ------ -------- -- stable ---------- ------ ---<br>------ -- -- ---- -- ---------- -------- ------ ---- -------<br>---- --- --------- ------- ----- --------- ---- ----- --<br>------ -------- -- ------ -- ---- ------------,327238.5,327237.5,326658.512,326660.60000002384,326675.206,327241.834,,21,stable
screen,html.Screen,2_3_1_0_1_22,2022-05-13T09:21:35.072Z,,,,,,,,,,,,,,,,,19,,,,,,,,,,,,,,601.7660000238684,,response,,,,17,G,,,,,,Space,keypress(Space),,,,instrumental,,,,-------------- --- -------- -------- ---------- ---- -------<br>-- ---------- -- --- ----- ------ ----- ---- --------- ----<br>------- ------ -------- -- ------ superheavy ------ ---<br>------ -- -- ---- -- ---------- -------- ------ ---- -------<br>---- --- --------- ------- ----- --------- ---- ----- --<br>------ -------- -- ------ -- ---- ------------,327844.3000000715,327843.60000002384,327225.224,327238.8000000715,327241.834,327858.344,,22,superheavy
screen,html.Screen,2_3_1_0_1_23,2022-05-13T09:21:35.739Z,,,,,,,,,,,,,,,,,19,,,,,,,,,,,,,,652.5560000953847,,response,,,,17,G,,,,,,Space,keypress(Space),,,,instrumental,,,,-------------- --- -------- -------- ---------- ---- -------<br>-- ---------- -- --- ----- ------ ----- ---- --------- ----<br>------- ------ -------- -- ------ ---------- nuclei ---<br>------ -- -- ---- -- ---------- -------- ------ ---- -------<br>---- --- --------- ------- ----- --------- ---- ----- --<br>------ -------- -- ------ -- ---- ------------,328511.40000009537,328510.90000009537,327841.704,327844.5,327858.344,328524.992,,23,nuclei
screen,html.Screen,2_3_1_0_1_24,2022-05-13T09:21:36.143Z,,,,,,,,,,,,,,,,,19,,,,,,,,,,,,,,389.3080000714981,,response,,,,17,G,,,,,,Space,keypress(Space),,,,instrumental,,,,-------------- --- -------- -------- ---------- ---- -------<br>-- ---------- -- --- ----- ------ ----- ---- --------- ----<br>------- ------ -------- -- ------ ---------- ------ are<br>------ -- -- ---- -- ---------- -------- ------ ---- -------<br>---- --- --------- ------- ----- --------- ---- ----- --<br>------ -------- -- ------ -- ---- ------------,328915.2000000477,328914.3000000715,328508.339,328511.40000009537,328524.992,328924.971,,24,are
screen,html.Screen,2_3_1_0_1_25,2022-05-13T09:21:36.590Z,,,,,,,,,,,,,,,,,19,,,,,,,,,,,,,,436.72900004766416,,response,,,,17,G,,,,,,Space,keypress(Space),,,,instrumental,,,,-------------- --- -------- -------- ---------- ---- -------<br>-- ---------- -- --- ----- ------ ----- ---- --------- ----<br>------- ------ -------- -- ------ ---------- ------ ---<br>likely -- -- ---- -- ---------- -------- ------ ---- -------<br>---- --- --------- ------- ----- --------- ---- ----- --<br>------ -------- -- ------ -- ---- ------------,329362.3000000715,329361.7000000477,328908.357,328915.7000000477,328924.971,329374.998,,25,likely
screen,html.Screen,2_3_1_0_1_26,2022-05-13T09:21:37.014Z,,,,,,,,,,,,,,,,,19,,,,,,,,,,,,,,410.7020000476623,,response,,,,17,G,,,,,,Space,keypress(Space),,,,instrumental,,,,-------------- --- -------- -------- ---------- ---- -------<br>-- ---------- -- --- ----- ------ ----- ---- --------- ----<br>------- ------ -------- -- ------ ---------- ------ ---<br>------ to -- ---- -- ---------- -------- ------ ---- -------<br>---- --- --------- ------- ----- --------- ---- ----- --<br>------ -------- -- ------ -- ---- ------------,329786.8000000715,329785.7000000477,329358.227,329362.40000009537,329374.998,329808.142,,26,to
screen,html.Screen,2_3_1_0_1_27,2022-05-13T09:21:37.373Z,,,,,,,,,,,,,,,,,19,,,,,,,,,,,,,,336.55800004769117,,response,,,,17,G,,,,,,Space,keypress(Space),,,,instrumental,,,,-------------- --- -------- -------- ---------- ---- -------<br>-- ---------- -- --- ----- ------ ----- ---- --------- ----<br>------- ------ -------- -- ------ ---------- ------ ---<br>------ -- be ---- -- ---------- -------- ------ ---- -------<br>---- --- --------- ------- ----- --------- ---- ----- --<br>------ -------- -- ------ -- ---- ------------,330145.7000000477,330144.7000000477,329774.834,329787,329808.142,330158.213,,27,be
screen,html.Screen,2_3_1_0_1_28,2022-05-13T09:21:37.837Z,,,,,,,,,,,,,,,,,19,,,,,,,,,,,,,,451.1870000953786,,response,,,,17,G,,,,,,Space,keypress(Space),,,,instrumental,,,,-------------- --- -------- -------- ---------- ---- -------<br>-- ---------- -- --- ----- ------ ----- ---- --------- ----<br>------- ------ -------- -- ------ ---------- ------ ---<br>------ -- -- full -- ---------- -------- ------ ---- -------<br>---- --- --------- ------- ----- --------- ---- ----- --<br>------ -------- -- ------ -- ---- ------------,330609.90000009537,330609.40000009537,330141.439,330145.90000009537,330158.213,330624.75,,28,full
screen,html.Screen,2_3_1_0_1_29,2022-05-13T09:21:38.755Z,,,,,,,,,,,,,,,,,19,,,,,,,,,,,,,,902.25,,response,,,,17,G,,,,,,Space,keypress(Space),,,,instrumental,,,,-------------- --- -------- -------- ---------- ---- -------<br>-- ---------- -- --- ----- ------ ----- ---- --------- ----<br>------- ------ -------- -- ------ ---------- ------ ---<br>------ -- -- ---- of ---------- -------- ------ ---- -------<br>---- --- --------- ------- ----- --------- ---- ----- --<br>------ -------- -- ------ -- ---- ------------,331527.3000000715,331527,330608.034,330609.90000009537,330624.75,331541.206,,29,of
screen,html.Screen,2_3_1_0_1_30,2022-05-13T09:21:39.396Z,,,,,,,,,,,,,,,,,19,,,,,,,,,,,,,,626.59400007152,,response,,,,17,G,,,,,,Space,keypress(Space),,,,instrumental,,,,-------------- --- -------- -------- ---------- ---- -------<br>-- ---------- -- --- ----- ------ ----- ---- --------- ----<br>------- ------ -------- -- ------ ---------- ------ ---<br>------ -- -- ---- -- surprises. -------- ------ ---- -------<br>---- --- --------- ------- ----- --------- ---- ----- --<br>------ -------- -- ------ -- ---- ------------,332168.40000009537,332167.8000000715,331524.542,331527.3000000715,331541.206,332174.59,,30,surprises.
screen,html.Screen,2_3_1_0_1_31,2022-05-13T09:21:39.893Z,,,,,,,,,,,,,,,,,19,,,,,,,,,,,,,,490.51000002381625,,response,,,,17,G,,,,,,Space,keypress(Space),,,,instrumental,,,,-------------- --- -------- -------- ---------- ---- -------<br>-- ---------- -- --- ----- ------ ----- ---- --------- ----<br>------- ------ -------- -- ------ ---------- ------ ---<br>------ -- -- ---- -- ---------- Chemists ------ ---- -------<br>---- --- --------- ------- ----- --------- ---- ----- --<br>------ -------- -- ------ -- ---- ------------,332665.40000009537,332665.10000002384,332157.86,332168.60000002384,332174.59,332674.387,,31,Chemists
screen,html.Screen,2_3_1_0_1_32,2022-05-13T09:21:40.518Z,,,,,,,,,,,,,,,,,19,,,,,,,,,,,,,,615.4130000715377,,response,,,,17,G,,,,,,Space,keypress(Space),,,,instrumental,,,,-------------- --- -------- -------- ---------- ---- -------<br>-- ---------- -- --- ----- ------ ----- ---- --------- ----<br>------- ------ -------- -- ------ ---------- ------ ---<br>------ -- -- ---- -- ---------- -------- cannot ---- -------<br>---- --- --------- ------- ----- --------- ---- ----- --<br>------ -------- -- ------ -- ---- ------------,333290.90000009537,333289.8000000715,332657.721,332665.40000009537,332674.387,333307.734,,32,cannot
screen,html.Screen,2_3_1_0_1_33,2022-05-13T09:21:40.934Z,,,,,,,,,,,,,,,,,19,,,,,,,,,,,,,,398.3660000238451,,response,,,,17,G,,,,,,Space,keypress(Space),,,,instrumental,,,,-------------- --- -------- -------- ---------- ---- -------<br>-- ---------- -- --- ----- ------ ----- ---- --------- ----<br>------- ------ -------- -- ------ ---------- ------ ---<br>------ -- -- ---- -- ---------- -------- ------ even -------<br>---- --- --------- ------- ----- --------- ---- ----- --<br>------ -------- -- ------ -- ---- ------------,333706.5,333706.10000002384,333291.03,333291.10000002384,333307.734,333707.585,,33,even
screen,html.Screen,2_3_1_0_1_34,2022-05-13T09:21:41.439Z,,,,,,,,,,,,,,,,,19,,,,,,,,,,,,,,503.11500004766276,,response,,,,17,G,,,,,,Space,keypress(Space),,,,instrumental,,,,-------------- --- -------- -------- ---------- ---- -------<br>-- ---------- -- --- ----- ------ ----- ---- --------- ----<br>------- ------ -------- -- ------ ---------- ------ ---<br>------ -- -- ---- -- ---------- -------- ------ ---- predict<br>---- --- --------- ------- ----- --------- ---- ----- --<br>------ -------- -- ------ -- ---- ------------,334211.60000002384,334210.7000000477,333707.564,333706.5,333707.585,334224.39,,34,predict
screen,html.Screen,2_3_1_0_1_35,2022-05-13T09:21:41.945Z,,,,,,,,,,,,,,,,,19,,,,,,,,,,,,,,491.9100000715116,,response,,,,17,G,,,,,,Space,keypress(Space),,,,instrumental,,,,-------------- --- -------- -------- ---------- ---- -------<br>-- ---------- -- --- ----- ------ ----- ---- --------- ----<br>------- ------ -------- -- ------ ---------- ------ ---<br>------ -- -- ---- -- ---------- -------- ------ ---- -------<br>with --- --------- ------- ----- --------- ---- ----- --<br>------ -------- -- ------ -- ---- ------------,334717.60000002384,334716.3000000715,334207.586,334211.90000009537,334224.39,334724.189,,35,with
screen,html.Screen,2_3_1_0_1_36,2022-05-13T09:21:42.491Z,,,,,,,,,,,,,,,,,19,,,,,,,,,,,,,,538.2110000953544,,response,,,,17,G,,,,,,Space,keypress(Space),,,,instrumental,,,,-------------- --- -------- -------- ---------- ---- -------<br>-- ---------- -- --- ----- ------ ----- ---- --------- ----<br>------- ------ -------- -- ------ ---------- ------ ---<br>------ -- -- ---- -- ---------- -------- ------ ---- -------<br>---- any --------- ------- ----- --------- ---- ----- --<br>------ -------- -- ------ -- ---- ------------,335263.2000000477,335262.40000009537,334707.532,334717.90000009537,334724.189,335274.059,,36,any
screen,html.Screen,2_3_1_0_1_37,2022-05-13T09:21:42.864Z,,,,,,,,,,,,,,,,,19,,,,,,,,,,,,,,361.5410000238335,,response,,,,17,G,,,,,,Space,keypress(Space),,,,instrumental,,,,-------------- --- -------- -------- ---------- ---- -------<br>-- ---------- -- --- ----- ------ ----- ---- --------- ----<br>------- ------ -------- -- ------ ---------- ------ ---<br>------ -- -- ---- -- ---------- -------- ------ ---- -------<br>---- --- certainty ------- ----- --------- ---- ----- --<br>------ -------- -- ------ -- ---- ------------,335636.60000002384,335635.60000002384,335257.449,335263.40000009537,335274.059,335640.696,,37,certainty
screen,html.Screen,2_3_1_0_1_38,2022-05-13T09:21:43.222Z,,,,,,,,,,,,,,,,,19,,,,,,,,,,,,,,352.50400004768744,,response,,,,17,G,,,,,,Space,keypress(Space),,,,instrumental,,,,-------------- --- -------- -------- ---------- ---- -------<br>-- ---------- -- --- ----- ------ ----- ---- --------- ----<br>------- ------ -------- -- ------ ---------- ------ ---<br>------ -- -- ---- -- ---------- -------- ------ ---- -------<br>---- --- --------- whether ----- --------- ---- ----- --<br>------ -------- -- ------ -- ---- ------------,335994.10000002384,335993.2000000477,335624.075,335636.8000000715,335640.696,336007.365,,38,whether
