sender,sender_type,sender_id,timestamp,meta,,Blues,Classical,Country,Dance,Electronic,Folk,Gospel,Hip-Hop,Jazz,Latin,Musical/Film,New-age,Pop,Prolific_id,Provo_ID,R&B,Rap,Reggae,Religious,Rock,Soul,Swing,Traditional,age,artist_name,correct,correctResponse,distraction,duration,education,ended_on,familiarity,gender,headphone_check_performance,item,list,music_frequency,offensiveness,pleasantness,position_correct,preference,response,response_action,snippet_file,song_name,song_rating,sound,stimulus_1,stimulus_2,stimulus_3,text,time_commit,time_end,time_render,time_run,time_show,time_switch,url,word,word_ID
Prolific ID,html.Form,0,2022-05-09T17:40:58.809Z,"{""labjs_version"":""20.2.2"",""labjs_build"":{""flavor"":""production"",""commit"":""a25486e0c714a0ae2ce03ff94b7bb6896854dcfa""},""location"":""https://run.pavlovia.org/mvasilev/prolific3_music_g/"",""userAgent"":""Mozilla/5.0 (Windows NT 10.0; Win64; x64) AppleWebKit/537.36 (KHTML, like Gecko) Chrome/101.0.4951.54 Safari/537.36"",""platform"":""Win32"",""language"":""en-GB"",""locale"":""en-GB"",""timeZone"":""Europe/London"",""timezoneOffset"":-60,""screen_width"":1920,""screen_height"":1080,""scroll_width"":1920,""scroll_height"":881,""window_innerWidth"":1920,""window_innerHeight"":929,""devicePixelRatio"":1}",,,,,,,,,,,,,,,596e1edd39e9d00001b7bb98,,,,,,,,,,,,,,,3247.419,,form submission,,,,,,,,,,,,,,,,,,,,,9020.90000000596,9020.5,5756.455,5759,5773.081,9023.058,{},,
Introduction,html.Screen,1_0,2022-05-09T17:41:04.506Z,,,,,,,,,,,,,,,,,,,,,,,,,,,,,,,5693.34200000596,,response,,,,,,,,,,,continue,click button,,,,,,,,,14717.5,14716.40000000596,9006.57,9021,9023.058,14723.252,,,
Volume calibration,html.Screen,1_1,2022-05-09T17:41:33.481Z,,,,,,,,,,,,,,,,,,,,,,,,,,,,,,,28967.84800000894,,response,,,,,,,,,,,continue,click button,,,,,,,,,43692.60000000894,43691.10000000894,14706.441,14717.60000000894,14723.252,43706.86,,,
Task instructions,html.Screen,1_2,2022-05-09T17:41:39.899Z,,,,,,,,,,,,,,,,,,,,,,,,,,,,,,,6403.24000000894,,response,,,,,,,,,,,continue,click button,,,,,,,,,50110.40000000596,50110.10000000894,43690.285,43692.70000000298,43706.86,50123.577,,,
Sounds,html.Screen,1_3_0_0,2022-05-09T17:41:44.147Z,,,,,,,,,,,,,,,,,,,,,,,,,,,,,,,4250.175000000003,,timeout,,,,,,,,,2,,,,,,,,I,S,O,,54358,54357.063,50107.045,50110.5,50123.577,54373.752,,,
Judgement,html.Screen,1_3_0_1,2022-05-09T17:41:45.002Z,,,,,,,,,,,,,,,,,,,,,,,,,,,,true,2,,838.5480000119205,,response,,,,,,,,,2,,2,click #choice-2,,,,,I,S,O,,55212.70000000298,55212.30000001192,54357.063,54358,54373.752,55223.631,,,
Trial,flow.Sequence,1_3_0,2022-05-09T17:41:45.002Z,,,,,,,,,,,,,,,,,,,,,,,,,,,,,,,5088.723000011923,,completion,,,,,,,,,2,,,,,,,,I,S,O,,55212.80000001192,55212.30000001192,50107.045,50110.5,50123.577,55223.631,,,
Sounds,html.Screen,1_3_1_0,2022-05-09T17:41:49.246Z,,,,,,,,,,,,,,,,,,,,,,,,,,,,,,,4250.106,,timeout,,,,,,,,,3,,,,,,,,I,O,S,,59457.40000000596,59457.122,55207.072,55213,55223.631,59473.737,,,
Judgement,html.Screen,1_3_1_1,2022-05-09T17:41:49.857Z,,,,,,,,,,,,,,,,,,,,,,,,,,,,true,3,,593.5630000119199,,response,,,,,,,,,3,,3,click #choice-3,,,,,I,O,S,,60067.70000000298,60067.30000001192,59457.122,59457.40000000596,59473.737,60073.657,,,
Trial,flow.Sequence,1_3_1,2022-05-09T17:41:49.857Z,,,,,,,,,,,,,,,,,,,,,,,,,,,,,,,4843.66900001192,,completion,,,,,,,,,3,,,,,,,,I,O,S,,60067.80000001192,60067.30000001192,55207.072,55212.90000000596,55223.631,60073.657,,,
Sounds,html.Screen,1_3_2_0,2022-05-09T17:41:54.096Z,,,,,,,,,,,,,,,,,,,,,,,,,,,,,,,4250.027000000002,,timeout,,,,,,,,,1,,,,,,,,S,I,O,,64307.20000000298,64307.025,60057.035,60067.80000001192,60073.657,64323.684,,,
Judgement,html.Screen,1_3_2_1,2022-05-09T17:41:54.595Z,,,,,,,,,,,,,,,,,,,,,,,,,,,,true,1,,482.5160000029791,,response,,,,,,,,,1,,1,click #choice-1,,,,,S,I,O,,64806.60000000894,64806.20000000298,64307.025,64307.30000001192,64323.684,64838.044,,,
Trial,flow.Sequence,1_3_2,2022-05-09T17:41:54.596Z,,,,,,,,,,,,,,,,,,,,,,,,,,,,,,,4732.543000002981,,completion,,,,,,,,,1,,,,,,,,S,I,O,,64806.80000001192,64806.20000000298,60057.035,60067.80000001192,60073.657,64838.044,,,
Sounds,html.Screen,1_3_3_0,2022-05-09T17:41:58.863Z,,,,,,,,,,,,,,,,,,,,,,,,,,,,,,,4252.488000000005,,timeout,,,,,,,,,2,,,,,,,,O,S,I,,69074.20000000298,69073.912,64790.518,64806.80000001192,64838.044,69090.532,,,
Judgement,html.Screen,1_3_3_1,2022-05-09T17:41:59.296Z,,,,,,,,,,,,,,,,,,,,,,,,,,,,true,2,,415.7680000119144,,response,,,,,,,,,2,,2,click #choice-2,,,,,O,S,I,,69506.70000000298,69506.30000001192,69073.912,69074.20000000298,69090.532,69530.339,,,
Trial,flow.Sequence,1_3_3,2022-05-09T17:41:59.296Z,,,,,,,,,,,,,,,,,,,,,,,,,,,,,,,4668.256000011919,,completion,,,,,,,,,2,,,,,,,,O,S,I,,69506.80000001192,69506.30000001192,64790.518,64806.80000001192,64838.044,69530.339,,,
Sounds,html.Screen,1_3_4_0,2022-05-09T17:42:03.546Z,,,,,,,,,,,,,,,,,,,,,,,,,,,,,,,4243.561999999991,,timeout,,,,,,,,,3,,,,,,,,O,I,S,,73757.70000000298,73757.296,69490.583,69506.90000000596,69530.339,73773.901,,,
Judgement,html.Screen,1_3_4_1,2022-05-09T17:42:04.080Z,,,,,,,,,,,,,,,,,,,,,,,,,,,,true,3,,516.7990000029822,,response,,,,,,,,,3,,3,click #choice-3,,,,,O,I,S,,74291.10000000894,74290.70000000298,73757.296,73757.70000000298,73773.901,74307.282,,,
Trial,flow.Sequence,1_3_4,2022-05-09T17:42:04.080Z,,,,,,,,,,,,,,,,,,,,,,,,,,,,,,,4760.361000002973,,completion,,,,,,,,,3,,,,,,,,O,I,S,,74291.20000000298,74290.70000000298,69490.583,69506.90000000596,69530.339,74307.282,,,
Sounds,html.Screen,1_3_5_0,2022-05-09T17:42:08.330Z,,,,,,,,,,,,,,,,,,,,,,,,,,,,,,,4250.009999999995,,timeout,,,,,,,,,1,,,,,,,,S,O,I,,78541.60000000894,78540.523,74290.652,74291.20000000298,74307.282,78557.292,,,
Judgement,html.Screen,1_3_5_1,2022-05-09T17:42:08.838Z,,,,,,,,,,,,,,,,,,,,,,,,,,,,true,1,,491.90800000297895,,response,,,,,,,,,1,,1,click #choice-1,,,,,S,O,I,,79049.70000000298,79049.20000000298,78540.523,78541.70000000298,78557.292,79073.894,,,
Trial,flow.Sequence,1_3_5,2022-05-09T17:42:08.839Z,,,,,,,,,,,,,,,,,,,,,,,,,,,,,,,4741.918000002974,,completion,,,,,,,,,1,,,,,,,,S,O,I,,79049.70000000298,79049.20000000298,74290.652,74291.20000000298,74307.282,79073.894,,,
Task,flow.Loop,1_3,2022-05-09T17:42:08.841Z,,,,,,,,,,,,,,,,,,,,,,,,,,,,,,,28925.623000002983,,completion,,,1,,,,,,,,,,,,,,,,,,79051.80000001192,79049.20000000298,50107.045,50110.5,50123.577,79073.894,,,
Trap,html.Screen,1_4,2022-05-09T17:42:08.841Z,,,,,,,,,,,,,,,,,,,,,,,,,,,,,,,NaN,,skipped,,,,,,,,,,,,,,,,,,,,,79052.20000000298,79049.20000000298,,79052.20000000298,,79073.894,,,
Thanks,html.Screen,1_5,2022-05-09T17:42:12.351Z,,,,,,,,,,,,,,,,,,,,,,,,,,,,,,,3487.4060000119207,,response,,,,,,,,,,,continue,click button,,,,,,,,,82561.80000001192,82561.30000001192,79057.371,79052.20000000298,79073.894,86007.328,,,
Headphone screening,flow.Sequence,1,2022-05-09T17:42:12.351Z,,,,,,,,,,,,,,,,,,,,,,,,,,,,,,,73538.24200001192,,completion,,,,,,,,,,,,,,,,,,,,,82561.80000001192,82561.30000001192,9006.57,9020.90000000596,9023.058,86007.328,,,
Instructions,html.Page,2_0,2022-05-09T17:42:33.790Z,,,,,,,,,,,,,,,,,,,,,,,,,,,,,,,17993.572000005966,,form submission,,,,,,,,,,,,,,,,,,,,,104001,104000.90000000596,85990.67,86006.60000000894,86007.328,104024.218,,,
Holding screen,html.Screen,2_1_0_0,2022-05-09T17:42:43.797Z,,,,,,,,,,,,,,,,,,,,,,,,,,,,,,,10000.213000000003,,timeout,,,,,,,,,,,,,,,,,,,,,114008.10000000894,114007.699,104007.538,104001.10000000894,104024.218,114024.431,,,
screen,html.Screen,2_1_0_1_0,2022-05-09T17:42:44.790Z,,,,,,,,,,,,,,,,,53,,,,,,,,,,,,,,976.1690000089438,,response,,,,99,,,,,,,Space,keypress(Space),,,,,,,,When -- ----- -- ------ - ------- --- ----------<br>------------- ------ ------ ---- ---- ------- ----- -- ----<br>-------- ------- -- ---------- --- - --- ----- ----- ----<br>---- --- --- ----- --- ---- ---- ------- ----- ---- -------<br>--- --- -- ----- -- --- ---- -- --- ---- -- ------ ------<br>--- ----- -- ----,115001.60000000894,115000.60000000894,114007.699,114008.30000001192,114024.431,115007.715,,0,When
screen,html.Screen,2_1_0_1_1,2022-05-09T17:42:45.206Z,,,,,,,,,,,,,,,,,53,,,,,,,,,,,,,,409.4850000029837,,response,,,,99,,,,,,,Space,keypress(Space),,,,,,,,---- it ----- -- ------ - ------- --- ----------<br>------------- ------ ------ ---- ---- ------- ----- -- ----<br>-------- ------- -- ---------- --- - --- ----- ----- ----<br>---- --- --- ----- --- ---- ---- ------- ----- ---- -------<br>--- --- -- ----- -- --- ---- -- --- ---- -- ------ ------<br>--- ----- -- ----,115417.60000000894,115417.20000000298,114991.028,115001.70000000298,115007.715,115424.325,,1,it
screen,html.Screen,2_1_0_1_2,2022-05-09T17:42:45.597Z,,,,,,,,,,,,,,,,,53,,,,,,,,,,,,,,383.7750000089436,,response,,,,99,,,,,,,Space,keypress(Space),,,,,,,,---- -- comes -- ------ - ------- --- ----------<br>------------- ------ ------ ---- ---- ------- ----- -- ----<br>-------- ------- -- ---------- --- - --- ----- ----- ----<br>---- --- --- ----- --- ---- ---- ------- ----- ---- -------<br>--- --- -- ----- -- --- ---- -- --- ---- -- ------ ------<br>--- ----- -- ----,115808.5,115808.10000000894,115407.779,115417.60000000894,115424.325,115824.479,,2,comes
screen,html.Screen,2_1_0_1_3,2022-05-09T17:42:45.918Z,,,,,,,,,,,,,,,,,53,,,,,,,,,,,,,,304.52099999999336,,response,,,,99,,,,,,,Space,keypress(Space),,,,,,,,---- -- ----- to ------ - ------- --- ----------<br>------------- ------ ------ ---- ---- ------- ----- -- ----<br>-------- ------- -- ---------- --- - --- ----- ----- ----<br>---- --- --- ----- --- ---- ---- ------- ----- ---- -------<br>--- --- -- ----- -- --- ---- -- --- ---- -- ------ ------<br>--- ----- -- ----,116129.30000001192,116129,115807.789,115808.5,115824.479,116141.149,,3,to
screen,html.Screen,2_1_0_1_4,2022-05-09T17:42:46.277Z,,,,,,,,,,,,,,,,,53,,,,,,,,,,,,,,346.8509999999951,,response,,,,99,,,,,,,Space,keypress(Space),,,,,,,,---- -- ----- -- having - ------- --- ----------<br>------------- ------ ------ ---- ---- ------- ----- -- ----<br>-------- ------- -- ---------- --- - --- ----- ----- ----<br>---- --- --- ----- --- ---- ---- ------- ----- ---- -------<br>--- --- -- ----- -- --- ---- -- --- ---- -- ------ ------<br>--- ----- -- ----,116488.20000000298,116488,116124.475,116129.40000000596,116141.149,116491.014,,4,having
screen,html.Screen,2_1_0_1_5,2022-05-09T17:42:46.614Z,,,,,,,,,,,,,,,,,53,,,,,,,,,,,,,,333.28600001192535,,response,,,,99,,,,,,,Space,keypress(Space),,,,,,,,---- -- ----- -- ------ a ------- --- ----------<br>------------- ------ ------ ---- ---- ------- ----- -- ----<br>-------- ------- -- ---------- --- - --- ----- ----- ----<br>---- --- --- ----- --- ---- ---- ------- ----- ---- -------<br>--- --- -- ----- -- --- ---- -- --- ---- -- ------ ------<br>--- ----- -- ----,116824.70000000298,116824.30000001192,116474.335,116488.30000001192,116491.014,116841.097,,5,a
screen,html.Screen,2_1_0_1_6,2022-05-09T17:42:46.997Z,,,,,,,,,,,,,,,,,53,,,,,,,,,,,,,,367.10300000298594,,response,,,,99,,,,,,,Space,keypress(Space),,,,,,,,---- -- ----- -- ------ - lasting --- ----------<br>------------- ------ ------ ---- ---- ------- ----- -- ----<br>-------- ------- -- ---------- --- - --- ----- ----- ----<br>---- --- --- ----- --- ---- ---- ------- ----- ---- -------<br>--- --- -- ----- -- --- ---- -- --- ---- -- ------ ------<br>--- ----- -- ----,117208.5,117208.20000000298,116824.469,116824.70000000298,116841.097,117224.491,,6,lasting
screen,html.Screen,2_1_0_1_7,2022-05-09T17:42:47.358Z,,,,,,,,,,,,,,,,,53,,,,,,,,,,,,,,344.10900000894617,,response,,,,99,,,,,,,Space,keypress(Space),,,,,,,,---- -- ----- -- ------ - ------- and ----------<br>------------- ------ ------ ---- ---- ------- ----- -- ----<br>-------- ------- -- ---------- --- - --- ----- ----- ----<br>---- --- --- ----- --- ---- ---- ------- ----- ---- -------<br>--- --- -- ----- -- --- ---- -- --- ---- -- ------ ------<br>--- ----- -- ----,117568.90000000596,117568.60000000894,117207.802,117208.5,117224.491,117574.499,,7,and
screen,html.Screen,2_1_0_1_8,2022-05-09T17:42:47.750Z,,,,,,,,,,,,,,,,,53,,,,,,,,,,,,,,386.00100000000384,,response,,,,99,,,,,,,Space,keypress(Space),,,,,,,,---- -- ----- -- ------ - ------- --- fulfilling<br>------------- ------ ------ ---- ---- ------- ----- -- ----<br>-------- ------- -- ---------- --- - --- ----- ----- ----<br>---- --- --- ----- --- ---- ---- ------- ----- ---- -------<br>--- --- -- ----- -- --- ---- -- --- ---- -- ------ ------<br>--- ----- -- ----,117960.70000000298,117960.5,117557.824,117568.90000000596,117574.499,117974.51,,8,fulfilling
screen,html.Screen,2_1_0_1_9,2022-05-09T17:42:48.150Z,,,,,,,,,,,,,,,,,53,,,,,,,,,,,,,,386.3900000059657,,response,,,,99,,,,,,,Space,keypress(Space),,,,,,,,"---- -- ----- -- ------ - ------- --- ----------<br>relationship, ------ ------ ---- ---- ------- ----- -- ----<br>-------- ------- -- ---------- --- - --- ----- ----- ----<br>---- --- --- ----- --- ---- ---- ------- ----- ---- -------<br>--- --- -- ----- -- --- ---- -- --- ---- -- ------ ------<br>--- ----- -- ----",118361.20000000298,118360.90000000596,117957.784,117960.90000000596,117974.51,118374.449,,9,"relationship,"
screen,html.Screen,2_1_0_1_10,2022-05-09T17:42:48.613Z,,,,,,,,,,,,,,,,,53,,,,,,,,,,,,,,449.3510000119277,,response,,,,99,,,,,,,Space,keypress(Space),,,,,,,,---- -- ----- -- ------ - ------- --- ----------<br>------------- common ------ ---- ---- ------- ----- -- ----<br>-------- ------- -- ---------- --- - --- ----- ----- ----<br>---- --- --- ----- --- ---- ---- ------- ----- ---- -------<br>--- --- -- ----- -- --- ---- -- --- ---- -- ------ ------<br>--- ----- -- ----,118824.10000000894,118823.80000001192,118357.717,118361.20000000298,118374.449,118841.104,,10,common
screen,html.Screen,2_1_0_1_11,2022-05-09T17:42:48.918Z,,,,,,,,,,,,,,,,,53,,,,,,,,,,,,,,287.49600000893406,,response,,,,99,,,,,,,Space,keypress(Space),,,,,,,,---- -- ----- -- ------ - ------- --- ----------<br>------------- ------ wisdom ---- ---- ------- ----- -- ----<br>-------- ------- -- ---------- --- - --- ----- ----- ----<br>---- --- --- ----- --- ---- ---- ------- ----- ---- -------<br>--- --- -- ----- -- --- ---- -- --- ---- -- ------ ------<br>--- ----- -- ----,119128.80000001192,119128.60000000894,118824.46,118824.20000000298,118841.104,119141.149,,11,wisdom
screen,html.Screen,2_1_0_1_12,2022-05-09T17:42:49.245Z,,,,,,,,,,,,,,,,,53,,,,,,,,,,,,,,315.15100001191604,,response,,,,99,,,,,,,Space,keypress(Space),,,,,,,,---- -- ----- -- ------ - ------- --- ----------<br>------------- ------ ------ says ---- ------- ----- -- ----<br>-------- ------- -- ---------- --- - --- ----- ----- ----<br>---- --- --- ----- --- ---- ---- ------- ----- ---- -------<br>--- --- -- ----- -- --- ---- -- --- ---- -- ------ ------<br>--- ----- -- ----,119456.60000000894,119456.30000001192,119124.508,119128.90000000596,119141.149,119476.301,,12,says
screen,html.Screen,2_1_0_1_13,2022-05-09T17:42:49.525Z,,,,,,,,,,,,,,,,,53,,,,,,,,,,,,,,259.3990000029735,,response,,,,99,,,,,,,Space,keypress(Space),,,,,,,,---- -- ----- -- ------ - ------- --- ----------<br>------------- ------ ------ ---- that ------- ----- -- ----<br>-------- ------- -- ---------- --- - --- ----- ----- ----<br>---- --- --- ----- --- ---- ---- ------- ----- ---- -------<br>--- --- -- ----- -- --- ---- -- --- ---- -- ------ ------<br>--- ----- -- ----,119736,119735.70000000298,119441.05,119456.60000000894,119476.301,119741.115,,13,that
screen,html.Screen,2_1_0_1_14,2022-05-09T17:42:49.885Z,,,,,,,,,,,,,,,,,53,,,,,,,,,,,,,,354.585000002975,,response,,,,99,,,,,,,Space,keypress(Space),,,,,,,,---- -- ----- -- ------ - ------- --- ----------<br>------------- ------ ------ ---- ---- feeling ----- -- ----<br>-------- ------- -- ---------- --- - --- ----- ----- ----<br>---- --- --- ----- --- ---- ---- ------- ----- ---- -------<br>--- --- -- ----- -- --- ---- -- --- ---- -- ------ ------<br>--- ----- -- ----,120096,120095.70000000298,119724.377,119736.10000000894,119741.115,120107.863,,14,feeling
screen,html.Screen,2_1_0_1_15,2022-05-09T17:42:50.254Z,,,,,,,,,,,,,,,,,53,,,,,,,,,,,,,,356.5370000059629,,response,,,,99,,,,,,,Space,keypress(Space),,,,,,,,---- -- ----- -- ------ - ------- --- ----------<br>------------- ------ ------ ---- ---- ------- close -- ----<br>-------- ------- -- ---------- --- - --- ----- ----- ----<br>---- --- --- ----- --- ---- ---- ------- ----- ---- -------<br>--- --- -- ----- -- --- ---- -- --- ---- -- ------ ------<br>--- ----- -- ----,120464.80000001192,120464.40000000596,120091.17,120096,120107.863,120474.46,,15,close
screen,html.Screen,2_1_0_1_16,2022-05-09T17:42:50.621Z,,,,,,,,,,,,,,,,,53,,,,,,,,,,,,,,357.3400000119145,,response,,,,99,,,,,,,Space,keypress(Space),,,,,,,,---- -- ----- -- ------ - ------- --- ----------<br>------------- ------ ------ ---- ---- ------- ----- to ----<br>-------- ------- -- ---------- --- - --- ----- ----- ----<br>---- --- --- ----- --- ---- ---- ------- ----- ---- -------<br>--- --- -- ----- -- --- ---- -- --- ---- -- ------ ------<br>--- ----- -- ----,120832.10000000894,120831.80000001192,120457.85,120464.80000001192,120474.46,120841.116,,16,to
screen,html.Screen,2_1_0_1_17,2022-05-09T17:42:51.126Z,,,,,,,,,,,,,,,,,53,,,,,,,,,,,,,,495.98400000894617,,response,,,,99,,,,,,,Space,keypress(Space),,,,,,,,---- -- ----- -- ------ - ------- --- ----------<br>------------- ------ ------ ---- ---- ------- ----- -- your<br>-------- ------- -- ---------- --- - --- ----- ----- ----<br>---- --- --- ----- --- ---- ---- ------- ----- ---- -------<br>--- --- -- ----- -- --- ---- -- --- ---- -- ------ ------<br>--- ----- -- ----,121337.5,121337.10000000894,120824.519,120832.10000000894,120841.116,121341.155,,17,your
screen,html.Screen,2_1_0_1_18,2022-05-09T17:42:51.694Z,,,,,,,,,,,,,,,,,53,,,,,,,,,,,,,,563.5450000029814,,response,,,,99,,,,,,,Space,keypress(Space),,,,,,,,---- -- ----- -- ------ - ------- --- ----------<br>------------- ------ ------ ---- ---- ------- ----- -- ----<br>romantic ------- -- ---------- --- - --- ----- ----- ----<br>---- --- --- ----- --- ---- ---- ------- ----- ---- -------<br>--- --- -- ----- -- --- ---- -- --- ---- -- ------ ------<br>--- ----- -- ----,121904.90000000596,121904.70000000298,121324.488,121337.5,121341.155,121907.951,,18,romantic
screen,html.Screen,2_1_0_1_19,2022-05-09T17:42:52.046Z,,,,,,,,,,,,,,,,,53,,,,,,,,,,,,,,348.94900000595953,,response,,,,99,,,,,,,Space,keypress(Space),,,,,,,,---- -- ----- -- ------ - ------- --- ----------<br>------------- ------ ------ ---- ---- ------- ----- -- ----<br>-------- partner -- ---------- --- - --- ----- ----- ----<br>---- --- --- ----- --- ---- ---- ------- ----- ---- -------<br>--- --- -- ----- -- --- ---- -- --- ---- -- ------ ------<br>--- ----- -- ----,122257.20000000298,122256.90000000596,121891.069,121905,121907.951,122290.083,,19,partner
screen,html.Screen,2_1_0_1_20,2022-05-09T17:42:52.421Z,,,,,,,,,,,,,,,,,53,,,,,,,,,,,,,,341.9170000000013,,response,,,,99,,,,,,,Space,keypress(Space),,,,,,,,---- -- ----- -- ------ - ------- --- ----------<br>------------- ------ ------ ---- ---- ------- ----- -- ----<br>-------- ------- is ---------- --- - --- ----- ----- ----<br>---- --- --- ----- --- ---- ---- ------- ----- ---- -------<br>--- --- -- ----- -- --- ---- -- --- ---- -- ------ ------<br>--- ----- -- ----,122632.30000001192,122632,122241.212,122257.30000001192,122290.083,122641.228,,20,is
screen,html.Screen,2_1_0_1_21,2022-05-09T17:42:52.854Z,,,,,,,,,,,,,,,,,53,,,,,,,,,,,,,,423.47200000297744,,response,,,,99,,,,,,,Space,keypress(Space),,,,,,,,---- -- ----- -- ------ - ------- --- ----------<br>------------- ------ ------ ---- ---- ------- ----- -- ----<br>-------- ------- -- paramount. --- - --- ----- ----- ----<br>---- --- --- ----- --- ---- ---- ------- ----- ---- -------<br>--- --- -- ----- -- --- ---- -- --- ---- -- ------ ------<br>--- ----- -- ----,123065,123064.70000000298,122624.561,122632.40000000596,122641.228,123074.571,,21,paramount.
screen,html.Screen,2_1_0_1_22,2022-05-09T17:42:53.301Z,,,,,,,,,,,,,,,,,53,,,,,,,,,,,,,,437.22900001192465,,response,,,,99,,,,,,,Space,keypress(Space),,,,,,,,---- -- ----- -- ------ - ------- --- ----------<br>------------- ------ ------ ---- ---- ------- ----- -- ----<br>-------- ------- -- ---------- But - --- ----- ----- ----<br>---- --- --- ----- --- ---- ---- ------- ----- ---- -------<br>--- --- -- ----- -- --- ---- -- --- ---- -- ------ ------<br>--- ----- -- ----,123512.10000000894,123511.80000001192,123057.775,123065,123074.571,123524.575,,22,But
screen,html.Screen,2_1_0_1_23,2022-05-09T17:42:53.790Z,,,,,,,,,,,,,,,,,53,,,,,,,,,,,,,,476.12500000298314,,response,,,,99,,,,,,,Space,keypress(Space),,,,,,,,---- -- ----- -- ------ - ------- --- ----------<br>------------- ------ ------ ---- ---- ------- ----- -- ----<br>-------- ------- -- ---------- --- a --- ----- ----- ----<br>---- --- --- ----- --- ---- ---- ------- ----- ---- -------<br>--- --- -- ----- -- --- ---- -- --- ---- -- ------ ------<br>--- ----- -- ----,124001,124000.70000000298,123507.882,123512.10000000894,123524.575,124007.764,,23,a
screen,html.Screen,2_1_0_1_24,2022-05-09T17:42:54.206Z,,,,,,,,,,,,,,,,,53,,,,,,,,,,,,,,408.8360000089451,,response,,,,99,,,,,,,Space,keypress(Space),,,,,,,,---- -- ----- -- ------ - ------- --- ----------<br>------------- ------ ------ ---- ---- ------- ----- -- ----<br>-------- ------- -- ---------- --- - new ----- ----- ----<br>---- --- --- ----- --- ---- ---- ------- ----- ---- -------<br>--- --- -- ----- -- --- ---- -- --- ---- -- ------ ------<br>--- ----- -- ----,124416.80000001192,124416.60000000894,123991.212,124001.10000000894,124007.764,124424.438,,24,new
screen,html.Screen,2_1_0_1_25,2022-05-09T17:42:54.678Z,,,,,,,,,,,,,,,,,53,,,,,,,,,,,,,,464.3620000119263,,response,,,,99,,,,,,,Space,keypress(Space),,,,,,,,---- -- ----- -- ------ - ------- --- ----------<br>------------- ------ ------ ---- ---- ------- ----- -- ----<br>-------- ------- -- ---------- --- - --- study ----- ----<br>---- --- --- ----- --- ---- ---- ------- ----- ---- -------<br>--- --- -- ----- -- --- ---- -- --- ---- -- ------ ------<br>--- ----- -- ----,124889.10000000894,124888.80000001192,124407.889,124416.80000001192,124424.438,124891.21,,25,study
screen,html.Screen,2_1_0_1_26,2022-05-09T17:42:55.053Z,,,,,,,,,,,,,,,,,53,,,,,,,,,,,,,,372.7899999999936,,response,,,,99,,,,,,,Space,keypress(Space),,,,,,,,---- -- ----- -- ------ - ------- --- ----------<br>------------- ------ ------ ---- ---- ------- ----- -- ----<br>-------- ------- -- ---------- --- - --- ----- finds ----<br>---- --- --- ----- --- ---- ---- ------- ----- ---- -------<br>--- --- -- ----- -- --- ---- -- --- ---- -- ------ ------<br>--- ----- -- ----,125264.30000001192,125264,124874.558,124889.10000000894,124891.21,125274.596,,26,finds
screen,html.Screen,2_1_0_1_27,2022-05-09T17:42:55.453Z,,,,,,,,,,,,,,,,,53,,,,,,,,,,,,,,389.30400000595546,,response,,,,99,,,,,,,Space,keypress(Space),,,,,,,,---- -- ----- -- ------ - ------- --- ----------<br>------------- ------ ------ ---- ---- ------- ----- -- ----<br>-------- ------- -- ---------- --- - --- ----- ----- that<br>---- --- --- ----- --- ---- ---- ------- ----- ---- -------<br>--- --- -- ----- -- --- ---- -- --- ---- -- ------ ------<br>--- ----- -- ----,125664.30000001192,125663.90000000596,125257.906,125264.30000001192,125274.596,125674.524,,27,that
screen,html.Screen,2_1_0_1_28,2022-05-09T17:42:56.142Z,,,,,,,,,,,,,,,,,53,,,,,,,,,,,,,,677.9759999999951,,response,,,,99,,,,,,,Space,keypress(Space),,,,,,,,---- -- ----- -- ------ - ------- --- ----------<br>------------- ------ ------ ---- ---- ------- ----- -- ----<br>-------- ------- -- ---------- --- - --- ----- ----- ----<br>it's --- --- ----- --- ---- ---- ------- ----- ---- -------<br>--- --- -- ----- -- --- ---- -- --- ---- -- ------ ------<br>--- ----- -- ----,126352.70000000298,126352.5,125657.823,125664.30000001192,125674.524,126357.858,,28,it's
screen,html.Screen,2_1_0_1_29,2022-05-09T17:42:56.518Z,,,,,,,,,,,,,,,,,53,,,,,,,,,,,,,,370.84200000298733,,response,,,,99,,,,,,,Space,keypress(Space),,,,,,,,---- -- ----- -- ------ - ------- --- ----------<br>------------- ------ ------ ---- ---- ------- ----- -- ----<br>-------- ------- -- ---------- --- - --- ----- ----- ----<br>---- not --- ----- --- ---- ---- ------- ----- ---- -------<br>--- --- -- ----- -- --- ---- -- --- ---- -- ------ ------<br>--- ----- -- ----,126729,126728.70000000298,126341.075,126352.90000000596,126357.858,126741.285,,29,not
screen,html.Screen,2_1_0_1_30,2022-05-09T17:42:56.870Z,,,,,,,,,,,,,,,,,53,,,,,,,,,,,,,,339.3150000089372,,response,,,,99,,,,,,,Space,keypress(Space),,,,,,,,---- -- ----- -- ------ - ------- --- ----------<br>------------- ------ ------ ---- ---- ------- ----- -- ----<br>-------- ------- -- ---------- --- - --- ----- ----- ----<br>---- --- how ----- --- ---- ---- ------- ----- ---- -------<br>--- --- -- ----- -- --- ---- -- --- ---- -- ------ ------<br>--- ----- -- ----,127080.90000000596,127080.60000000894,126724.587,126729.10000000894,126741.285,127091.21,,30,how
screen,html.Screen,2_1_0_1_31,2022-05-09T17:42:57.197Z,,,,,,,,,,,,,,,,,53,,,,,,,,,,,,,,316.99000000297383,,response,,,,99,,,,,,,Space,keypress(Space),,,,,,,,---- -- ----- -- ------ - ------- --- ----------<br>------------- ------ ------ ---- ---- ------- ----- -- ----<br>-------- ------- -- ---------- --- - --- ----- ----- ----<br>---- --- --- close --- ---- ---- ------- ----- ---- -------<br>--- --- -- ----- -- --- ---- -- --- ---- -- ------ ------<br>--- ----- -- ----,127408.40000000596,127408.20000000298,127074.5,127080.90000000596,127091.21,127424.567,,31,close
screen,html.Screen,2_1_0_1_32,2022-05-09T17:42:57.398Z,,,,,,,,,,,,,,,,,53,,,,,,,,,,,,,,183.93300000000454,,response,,,,99,,,,,,,Space,keypress(Space),,,,,,,,---- -- ----- -- ------ - ------- --- ----------<br>------------- ------ ------ ---- ---- ------- ----- -- ----<br>-------- ------- -- ---------- --- - --- ----- ----- ----<br>---- --- --- ----- you ---- ---- ------- ----- ---- -------<br>--- --- -- ----- -- --- ---- -- --- ---- -- ------ ------<br>--- ----- -- ----,127608.80000001192,127608.5,127407.936,127408.5,127424.567,127624.603,,32,you
screen,html.Screen,2_1_0_1_33,2022-05-09T17:42:57.622Z,,,,,,,,,,,,,,,,,53,,,,,,,,,,,,,,207.8969999999972,,response,,,,99,,,,,,,Space,keypress(Space),,,,,,,,---- -- ----- -- ------ - ------- --- ----------<br>------------- ------ ------ ---- ---- ------- ----- -- ----<br>-------- ------- -- ---------- --- - --- ----- ----- ----<br>---- --- --- ----- --- feel ---- ------- ----- ---- -------<br>--- --- -- ----- -- --- ---- -- --- ---- -- ------ ------<br>--- ----- -- ----,127832.70000000298,127832.5,127607.953,127608.90000000596,127624.603,127841.147,,33,feel
screen,html.Screen,2_1_0_1_34,2022-05-09T17:42:58.102Z,,,,,,,,,,,,,,,,,53,,,,,,,,,,,,,,471.6530000119237,,response,,,,99,,,,,,,Space,keypress(Space),,,,,,,,---- -- ----- -- ------ - ------- --- ----------<br>------------- ------ ------ ---- ---- ------- ----- -- ----<br>-------- ------- -- ---------- --- - --- ----- ----- ----<br>---- --- --- ----- --- ---- that ------- ----- ---- -------<br>--- --- -- ----- -- --- ---- -- --- ---- -- ------ ------<br>--- ----- -- ----,128313,128312.80000001192,127824.621,127832.80000001192,127841.147,128324.64,,34,that
screen,html.Screen,2_1_0_1_35,2022-05-09T17:42:58.470Z,,,,,,,,,,,,,,,,,53,,,,,,,,,,,,,,356.26000000596105,,response,,,,99,,,,,,,Space,keypress(Space),,,,,,,,---- -- ----- -- ------ - ------- --- ----------<br>------------- ------ ------ ---- ---- ------- ----- -- ----<br>-------- ------- -- ---------- --- - --- ----- ----- ----<br>---- --- --- ----- --- ---- ---- matters ----- ---- -------<br>--- --- -- ----- -- --- ---- -- --- ---- -- ------ ------<br>--- ----- -- ----,128681.20000000298,128680.90000000596,128307.933,128313.10000000894,128324.64,128691.219,,35,matters
screen,html.Screen,2_1_0_1_36,2022-05-09T17:42:58.886Z,,,,,,,,,,,,,,,,,53,,,,,,,,,,,,,,405.3810000089434,,response,,,,99,,,,,,,Space,keypress(Space),,,,,,,,"---- -- ----- -- ------ - ------- --- ----------<br>------------- ------ ------ ---- ---- ------- ----- -- ----<br>-------- ------- -- ---------- --- - --- ----- ----- ----<br>---- --- --- ----- --- ---- ---- ------- most, ---- -------<br>--- --- -- ----- -- --- ---- -- --- ---- -- ------ ------<br>--- ----- -- ----",129096.90000000596,129096.60000000894,128674.616,128681.20000000298,128691.219,129107.975,,36,"most,"
screen,html.Screen,2_1_0_1_37,2022-05-09T17:42:59.366Z,,,,,,,,,,,,,,,,,53,,,,,,,,,,,,,,468.5249999999942,,response,,,,99,,,,,,,Space,keypress(Space),,,,,,,,---- -- ----- -- ------ - ------- --- ----------<br>------------- ------ ------ ---- ---- ------- ----- -- ----<br>-------- ------- -- ---------- --- - --- ----- ----- ----<br>---- --- --- ----- --- ---- ---- ------- ----- it's -------<br>--- --- -- ----- -- --- ---- -- --- ---- -- ------ ------<br>--- ----- -- ----,129576.90000000596,129576.5,129091.186,129097,129107.975,129591.183,,37,it's
screen,html.Screen,2_1_0_1_38,2022-05-09T17:42:59.797Z,,,,,,,,,,,,,,,,,53,,,,,,,,,,,,,,417.2170000059559,,response,,,,99,,,,,,,Space,keypress(Space),,,,,,,,---- -- ----- -- ------ - ------- --- ----------<br>------------- ------ ------ ---- ---- ------- ----- -- ----<br>-------- ------- -- ---------- --- - --- ----- ----- ----<br>---- --- --- ----- --- ---- ---- ------- ----- ---- whether<br>--- --- -- ----- -- --- ---- -- --- ---- -- ------ ------<br>--- ----- -- ----,130008.60000000894,130008.40000000596,129574.613,129576.90000000596,129591.183,130024.655,,38,whether
screen,html.Screen,2_1_0_1_39,2022-05-09T17:43:00.198Z,,,,,,,,,,,,,,,,,53,,,,,,,,,,,,,,383.84500000000116,,response,,,,99,,,,,,,Space,keypress(Space),,,,,,,,---- -- ----- -- ------ - ------- --- ----------<br>------------- ------ ------ ---- ---- ------- ----- -- ----<br>-------- ------- -- ---------- --- - --- ----- ----- ----<br>---- --- --- ----- --- ---- ---- ------- ----- ---- -------<br>you --- -- ----- -- --- ---- -- --- ---- -- ------ ------<br>--- ----- -- ----,130408.70000000298,130408.5,130007.958,130008.70000000298,130024.655,130424.519,,39,you
screen,html.Screen,2_1_0_1_40,2022-05-09T17:43:00.605Z,,,,,,,,,,,,,,,,,53,,,,,,,,,,,,,,391.38100000596023,,response,,,,99,,,,,,,Space,keypress(Space),,,,,,,,---- -- ----- -- ------ - ------- --- ----------<br>------------- ------ ------ ---- ---- ------- ----- -- ----<br>-------- ------- -- ---------- --- - --- ----- ----- ----<br>---- --- --- ----- --- ---- ---- ------- ----- ---- -------<br>--- are -- ----- -- --- ---- -- --- ---- -- ------ ------<br>--- ----- -- ----,130816.30000001192,130815.90000000596,130407.914,130408.80000001192,130424.519,130824.674,,40,are
screen,html.Screen,2_1_0_1_41,2022-05-09T17:43:01.078Z,,,,,,,,,,,,,,,,,53,,,,,,,,,,,,,,463.9260000089416,,response,,,,99,,,,,,,Space,keypress(Space),,,,,,,,---- -- ----- -- ------ - ------- --- ----------<br>------------- ------ ------ ---- ---- ------- ----- -- ----<br>-------- ------- -- ---------- --- - --- ----- ----- ----<br>---- --- --- ----- --- ---- ---- ------- ----- ---- -------<br>--- --- as ----- -- --- ---- -- --- ---- -- ------ ------<br>--- ----- -- ----,131288.80000001192,131288.60000000894,130807.98,130816.30000001192,130824.674,131291.206,,41,as
screen,html.Screen,2_1_0_1_42,2022-05-09T17:43:01.557Z,,,,,,,,,,,,,,,,,53,,,,,,,,,,,,,,476.99400000297464,,response,,,,99,,,,,,,Space,keypress(Space),,,,,,,,---- -- ----- -- ------ - ------- --- ----------<br>------------- ------ ------ ---- ---- ------- ----- -- ----<br>-------- ------- -- ---------- --- - --- ----- ----- ----<br>---- --- --- ----- --- ---- ---- ------- ----- ---- -------<br>--- --- -- close -- --- ---- -- --- ---- -- ------ ------<br>--- ----- -- ----,131768.40000000596,131768.20000000298,131274.622,131288.90000000596,131291.206,131774.676,,42,close
screen,html.Screen,2_1_0_1_43,2022-05-09T17:43:01.958Z,,,,,,,,,,,,,,,,,53,,,,,,,,,,,,,,393.7240000059537,,response,,,,99,,,,,,,Space,keypress(Space),,,,,,,,---- -- ----- -- ------ - ------- --- ----------<br>------------- ------ ------ ---- ---- ------- ----- -- ----<br>-------- ------- -- ---------- --- - --- ----- ----- ----<br>---- --- --- ----- --- ---- ---- ------- ----- ---- -------<br>--- --- -- ----- as --- ---- -- --- ---- -- ------ ------<br>--- ----- -- ----,132168.80000001192,132168.40000000596,131757.977,131768.5,131774.676,132174.581,,43,as
screen,html.Screen,2_1_0_1_44,2022-05-09T17:43:02.359Z,,,,,,,,,,,,,,,,,53,,,,,,,,,,,,,,394.8190000059549,,response,,,,99,,,,,,,Space,keypress(Space),,,,,,,,---- -- ----- -- ------ - ------- --- ----------<br>------------- ------ ------ ---- ---- ------- ----- -- ----<br>-------- ------- -- ---------- --- - --- ----- ----- ----<br>---- --- --- ----- --- ---- ---- ------- ----- ---- -------<br>--- --- -- ----- -- you ---- -- --- ---- -- ------ ------<br>--- ----- -- ----,132569.70000000298,132569.40000000596,132157.912,132168.80000001192,132174.581,132574.683,,44,you
screen,html.Screen,2_1_0_1_45,2022-05-09T17:43:02.759Z,,,,,,,,,,,,,,,,,53,,,,,,,,,,,,,,394.81700000001,,response,,,,99,,,,,,,Space,keypress(Space),,,,,,,,---- -- ----- -- ------ - ------- --- ----------<br>------------- ------ ------ ---- ---- ------- ----- -- ----<br>-------- ------- -- ---------- --- - --- ----- ----- ----<br>---- --- --- ----- --- ---- ---- ------- ----- ---- -------<br>--- --- -- ----- -- --- want -- --- ---- -- ------ ------<br>--- ----- -- ----,132969.70000000298,132969.5,132557.998,132569.70000000298,132574.683,132974.62,,45,want
screen,html.Screen,2_1_0_1_46,2022-05-09T17:43:03.053Z,,,,,,,,,,,,,,,,,53,,,,,,,,,,,,,,289.6800000119256,,response,,,,99,,,,,,,Space,keypress(Space),,,,,,,,---- -- ----- -- ------ - ------- --- ----------<br>------------- ------ ------ ---- ---- ------- ----- -- ----<br>-------- ------- -- ---------- --- - --- ----- ----- ----<br>---- --- --- ----- --- ---- ---- ------- ----- ---- -------<br>--- --- -- ----- -- --- ---- to --- ---- -- ------ ------<br>--- ----- -- ----,133264.5,133264.30000001192,132957.998,132969.80000001192,132974.62,133274.712,,46,to
screen,html.Screen,2_1_0_1_47,2022-05-09T17:43:03.477Z,,,,,,,,,,,,,,,,,53,,,,,,,,,,,,,,413.28800000000047,,response,,,,99,,,,,,,Space,keypress(Space),,,,,,,,"---- -- ----- -- ------ - ------- --- ----------<br>------------- ------ ------ ---- ---- ------- ----- -- ----<br>-------- ------- -- ---------- --- - --- ----- ----- ----<br>---- --- --- ----- --- ---- ---- ------- ----- ---- -------<br>--- --- -- ----- -- --- ---- -- be, ---- -- ------ ------<br>--- ----- -- ----",133688.20000000298,133688,133258.019,133264.70000000298,133274.712,133691.425,,47,"be,"
screen,html.Screen,2_1_0_1_48,2022-05-09T17:43:03.957Z,,,,,,,,,,,,,,,,,53,,,,,,,,,,,,,,476.4750000059721,,response,,,,99,,,,,,,Space,keypress(Space),,,,,,,,---- -- ----- -- ------ - ------- --- ----------<br>------------- ------ ------ ---- ---- ------- ----- -- ----<br>-------- ------- -- ---------- --- - --- ----- ----- ----<br>---- --- --- ----- --- ---- ---- ------- ----- ---- -------<br>--- --- -- ----- -- --- ---- -- --- even -- ------ ------<br>--- ----- -- ----,134168.30000001192,134167.90000000596,133674.677,133688.30000001192,133691.425,134174.706,,48,even
screen,html.Screen,2_1_0_1_49,2022-05-09T17:43:04.221Z,,,,,,,,,,,,,,,,,53,,,,,,,,,,,,,,256.99400000297464,,response,,,,99,,,,,,,Space,keypress(Space),,,,,,,,---- -- ----- -- ------ - ------- --- ----------<br>------------- ------ ------ ---- ---- ------- ----- -- ----<br>-------- ------- -- ---------- --- - --- ----- ----- ----<br>---- --- --- ----- --- ---- ---- ------- ----- ---- -------<br>--- --- -- ----- -- --- ---- -- --- ---- if ------ ------<br>--- ----- -- ----,134432,134431.70000000298,134158.003,134168.30000001192,134174.706,134441.371,,49,if
screen,html.Screen,2_1_0_1_50,2022-05-09T17:43:04.598Z,,,,,,,,,,,,,,,,,53,,,,,,,,,,,,,,367.5290000059467,,response,,,,99,,,,,,,Space,keypress(Space),,,,,,,,---- -- ----- -- ------ - ------- --- ----------<br>------------- ------ ------ ---- ---- ------- ----- -- ----<br>-------- ------- -- ---------- --- - --- ----- ----- ----<br>---- --- --- ----- --- ---- ---- ------- ----- ---- -------<br>--- --- -- ----- -- --- ---- -- --- ---- -- that's ------<br>--- ----- -- ----,134809.30000001192,134808.90000000596,134424.7,134432.10000000894,134441.371,134824.715,,50,that's
screen,html.Screen,2_1_0_1_51,2022-05-09T17:43:04.981Z,,,,,,,,,,,,,,,,,53,,,,,,,,,,,,,,367.5850000119244,,response,,,,99,,,,,,,Space,keypress(Space),,,,,,,,---- -- ----- -- ------ - ------- --- ----------<br>------------- ------ ------ ---- ---- ------- ----- -- ----<br>-------- ------- -- ---------- --- - --- ----- ----- ----<br>---- --- --- ----- --- ---- ---- ------- ----- ---- -------<br>--- --- -- ----- -- --- ---- -- --- ---- -- ------ really<br>--- ----- -- ----,135192.60000000894,135192.30000001192,134807.91,134809.30000001192,134824.715,135208.054,,51,really
screen,html.Screen,2_1_0_1_52,2022-05-09T17:43:05.365Z,,,,,,,,,,,,,,,,,53,,,,,,,,,,,,,,367.9459999999963,,response,,,,99,,,,,,,Space,keypress(Space),,,,,,,,---- -- ----- -- ------ - ------- --- ----------<br>------------- ------ ------ ---- ---- ------- ----- -- ----<br>-------- ------- -- ---------- --- - --- ----- ----- ----<br>---- --- --- ----- --- ---- ---- ------- ----- ---- -------<br>--- --- -- ----- -- --- ---- -- --- ---- -- ------ ------<br>not ----- -- ----,135576.30000001192,135576,135191.358,135192.60000000894,135208.054,135591.388,,52,not
screen,html.Screen,2_1_0_1_53,2022-05-09T17:43:05.790Z,,,,,,,,,,,,,,,,,53,,,,,,,,,,,,,,409.5120000059542,,response,,,,99,,,,,,,Space,keypress(Space),,,,,,,,---- -- ----- -- ------ - ------- --- ----------<br>------------- ------ ------ ---- ---- ------- ----- -- ----<br>-------- ------- -- ---------- --- - --- ----- ----- ----<br>---- --- --- ----- --- ---- ---- ------- ----- ---- -------<br>--- --- -- ----- -- --- ---- -- --- ---- -- ------ ------<br>--- close -- ----,136001.30000001192,136000.90000000596,135574.607,135576.30000001192,135591.388,136007.963,,53,close
screen,html.Screen,2_1_0_1_54,2022-05-09T17:43:06.085Z,,,,,,,,,,,,,,,,,53,,,,,,,,,,,,,,288.0370000000112,,response,,,,99,,,,,,,Space,keypress(Space),,,,,,,,---- -- ----- -- ------ - ------- --- ----------<br>------------- ------ ------ ---- ---- ------- ----- -- ----<br>-------- ------- -- ---------- --- - --- ----- ----- ----<br>---- --- --- ----- --- ---- ---- ------- ----- ---- -------<br>--- --- -- ----- -- --- ---- -- --- ---- -- ------ ------<br>--- ----- at ----,136296.20000000298,136296,135991.251,136001.30000001192,136007.963,136308.066,,54,at
screen,html.Screen,2_1_0_1_55,2022-05-09T17:43:06.599Z,,,,,,,,,,,,,,,,,53,,,,,,,,,,,,,,501.4340000000084,,response,,,,99,,,,,,,Space,keypress(Space),,,,,,,,---- -- ----- -- ------ - ------- --- ----------<br>------------- ------ ------ ---- ---- ------- ----- -- ----<br>-------- ------- -- ---------- --- - --- ----- ----- ----<br>---- --- --- ----- --- ---- ---- ------- ----- ---- -------<br>--- --- -- ----- -- --- ---- -- --- ---- -- ------ ------<br>--- ----- -- all.,136809.80000001192,136809.5,136291.332,136296.30000001192,136308.066,136824.654,,55,all.
Item 99,flow.Loop,2_1_0_1,2022-05-09T17:43:06.599Z,,,,,,,,,,,,,,,,,,,,,,,,,,,,,,,22785.069000000003,,completion,,,,,G,,,,,,,,,,,silence,,,,,136810,136809.5,114007.699,114008.20000000298,114024.431,136824.654,,,
Question 1,html.Screen,2_1_0_2,2022-05-09T17:43:11.479Z,,,,,,,,,,,,,,,,,,,,,,,,,,,,true,FALSE,,4864.646000011911,,response,,,,99,G,,,,,,FALSE,click #choice-2,,,,silence,,,,,141689.70000000298,141689.30000001192,136808.04,136810,136824.654,141691.405,,,
Question 2,html.Screen,2_1_0_3,2022-05-09T17:43:19.403Z,,,,,,,,,,,,,,,,,,,,,,,,,,,,true,TRUE,,7922.595000000001,,response,,,,99,G,,,,,,TRUE,click #choice-1,,,,silence,,,,,149614.40000000596,149614,141674.806,141689.80000001192,141691.405,149624.842,,,
Item 99,flow.Sequence,2_1_0,2022-05-09T17:43:19.403Z,,,,,,,,,,,,,,,,,,,,,,,,,,,,,,,45589.78200000001,,completion,,,,,,,,,,,,,,,,,,,,,149614.5,149614,104007.538,104001.10000000894,104024.218,149624.842,,,
Holding screen,html.Screen,2_1_1_0,2022-05-09T17:43:29.397Z,,,,,,,,,,,,,,,,,,,,,,,,,,,,,,,10000.184000000008,,timeout,,,,,,,,,,,,,,,,,,,,,159608.60000000894,159608.37,149608.254,149614.5,149624.842,159625.026,,,
screen,html.Screen,2_1_1_1_0,2022-05-09T17:43:30.325Z,,,,,,,,,,,,,,,,,54,,,,,,,,,,,,,,911.1740000029677,,response,,,,100,,,,,,,Space,keypress(Space),,,,,,,,At --- ---- --- ------ ----- ------- ---- -- --- ------- --<br>------- ---------- ------ -- ----- -- ----- -- ---- ------<br>--- ----- --- --- ------ -------- ----- --- ------ ----- --<br>----- ----- ---------- --- --- ------ ------ ---- -- ------<br>------- --- ------ ----- --- ---- ------- -- ---- --- --<br>------- ------,160536.5,160536.20000000298,159608.37,159608.70000000298,159625.026,160541.609,,0,At
screen,html.Screen,2_1_1_1_1,2022-05-09T17:43:30.629Z,,,,,,,,,,,,,,,,,54,,,,,,,,,,,,,,298.7910000059637,,response,,,,100,,,,,,,Space,keypress(Space),,,,,,,,-- the ---- --- ------ ----- ------- ---- -- --- ------- --<br>------- ---------- ------ -- ----- -- ----- -- ---- ------<br>--- ----- --- --- ------ -------- ----- --- ------ ----- --<br>----- ----- ---------- --- --- ------ ------ ---- -- ------<br>------- --- ------ ----- --- ---- ------- -- ---- --- --<br>------- ------,160840.60000000894,160840.40000000596,160524.937,160536.5,160541.609,160870.791,,1,the
screen,html.Screen,2_1_1_1_2,2022-05-09T17:43:30.901Z,,,,,,,,,,,,,,,,,54,,,,,,,,,,,,,,241.10900000596303,,response,,,,100,,,,,,,Space,keypress(Space),,,,,,,,-- --- time --- ------ ----- ------- ---- -- --- ------- --<br>------- ---------- ------ -- ----- -- ----- -- ---- ------<br>--- ----- --- --- ------ -------- ----- --- ------ ----- --<br>----- ----- ---------- --- --- ------ ------ ---- -- ------<br>------- --- ------ ----- --- ---- ------- -- ---- --- --<br>------- ------,161112.10000000894,161111.90000000596,160825.03,160840.70000000298,160870.791,161125.042,,2,time
screen,html.Screen,2_1_1_1_3,2022-05-09T17:43:31.206Z,,,,,,,,,,,,,,,,,54,,,,,,,,,,,,,,292.2580000119342,,response,,,,100,,,,,,,Space,keypress(Space),,,,,,,,-- --- ---- the ------ ----- ------- ---- -- --- ------- --<br>------- ---------- ------ -- ----- -- ----- -- ---- ------<br>--- ----- --- --- ------ -------- ----- --- ------ ----- --<br>----- ----- ---------- --- --- ------ ------ ---- -- ------<br>------- --- ------ ----- --- ---- ------- -- ---- --- --<br>------- ------,161417.5,161417.30000001192,161108.345,161112.20000000298,161125.042,161425.03,,3,the
screen,html.Screen,2_1_1_1_4,2022-05-09T17:43:31.453Z,,,,,,,,,,,,,,,,,54,,,,,,,,,,,,,,239.57000000894186,,response,,,,100,,,,,,,Space,keypress(Space),,,,,,,,-- --- ---- --- French ----- ------- ---- -- --- ------- --<br>------- ---------- ------ -- ----- -- ----- -- ---- ------<br>--- ----- --- --- ------ -------- ----- --- ------ ----- --<br>----- ----- ---------- --- --- ------ ------ ---- -- ------<br>------- --- ------ ----- --- ---- ------- -- ---- --- --<br>------- ------,161664.90000000596,161664.60000000894,161408.361,161417.5,161425.03,161675.047,,4,French
screen,html.Screen,2_1_1_1_5,2022-05-09T17:43:31.757Z,,,,,,,,,,,,,,,,,54,,,,,,,,,,,,,,293.4530000000086,,response,,,,100,,,,,,,Space,keypress(Space),,,,,,,,-- --- ---- --- ------ crown ------- ---- -- --- ------- --<br>------- ---------- ------ -- ----- -- ----- -- ---- ------<br>--- ----- --- --- ------ -------- ----- --- ------ ----- --<br>----- ----- ---------- --- --- ------ ------ ---- -- ------<br>------- --- ------ ----- --- ---- ------- -- ---- --- --<br>------- ------,161968.80000001192,161968.5,161658.261,161664.90000000596,161675.047,161975.086,,5,crown
screen,html.Screen,2_1_1_1_6,2022-05-09T17:43:32.015Z,,,,,,,,,,,,,,,,,54,,,,,,,,,,,,,,250.71400001191068,,response,,,,100,,,,,,,Space,keypress(Space),,,,,,,,-- --- ---- --- ------ ----- secured ---- -- --- ------- --<br>------- ---------- ------ -- ----- -- ----- -- ---- ------<br>--- ----- --- --- ------ -------- ----- --- ------ ----- --<br>----- ----- ---------- --- --- ------ ------ ---- -- ------<br>------- --- ------ ----- --- ---- ------- -- ---- --- --<br>------- ------,162226.5,162225.80000001192,161958.377,161968.80000001192,161975.086,162241.626,,6,secured
screen,html.Screen,2_1_1_1_7,2022-05-09T17:43:32.301Z,,,,,,,,,,,,,,,,,54,,,,,,,,,,,,,,270.8740000000107,,response,,,,100,,,,,,,Space,keypress(Space),,,,,,,,-- --- ---- --- ------ ----- ------- much -- --- ------- --<br>------- ---------- ------ -- ----- -- ----- -- ---- ------<br>--- ----- --- --- ------ -------- ----- --- ------ ----- --<br>----- ----- ---------- --- --- ------ ------ ---- -- ------<br>------- --- ------ ----- --- ---- ------- -- ---- --- --<br>------- ------,162512.80000001192,162512.5,162224.93,162226.5,162241.626,162525.067,,7,much
screen,html.Screen,2_1_1_1_8,2022-05-09T17:43:32.541Z,,,,,,,,,,,,,,,,,54,,,,,,,,,,,,,,227.33300000595045,,response,,,,100,,,,,,,Space,keypress(Space),,,,,,,,-- --- ---- --- ------ ----- ------- ---- of --- ------- --<br>------- ---------- ------ -- ----- -- ----- -- ---- ------<br>--- ----- --- --- ------ -------- ----- --- ------ ----- --<br>----- ----- ---------- --- --- ------ ------ ---- -- ------<br>------- --- ------ ----- --- ---- ------- -- ---- --- --<br>------- ------,162752.80000001192,162752.40000000596,162508.291,162512.90000000596,162525.067,162758.335,,8,of
screen,html.Screen,2_1_1_1_9,2022-05-09T17:43:32.765Z,,,,,,,,,,,,,,,,,54,,,,,,,,,,,,,,218.0650000059686,,response,,,,100,,,,,,,Space,keypress(Space),,,,,,,,-- --- ---- --- ------ ----- ------- ---- -- its ------- --<br>------- ---------- ------ -- ----- -- ----- -- ---- ------<br>--- ----- --- --- ------ -------- ----- --- ------ ----- --<br>----- ----- ---------- --- --- ------ ------ ---- -- ------<br>------- --- ------ ----- --- ---- ------- -- ---- --- --<br>------- ------,162976.80000001192,162976.40000000596,162741.72,162752.80000001192,162758.335,162991.58,,9,its
screen,html.Screen,2_1_1_1_10,2022-05-09T17:43:32.982Z,,,,,,,,,,,,,,,,,54,,,,,,,,,,,,,,201.82000000597327,,response,,,,100,,,,,,,Space,keypress(Space),,,,,,,,-- --- ---- --- ------ ----- ------- ---- -- --- revenue --<br>------- ---------- ------ -- ----- -- ----- -- ---- ------<br>--- ----- --- --- ------ -------- ----- --- ------ ----- --<br>----- ----- ---------- --- --- ------ ------ ---- -- ------<br>------- --- ------ ----- --- ---- ------- -- ---- --- --<br>------- ------,163193.70000000298,163193.40000000596,162974.956,162976.80000001192,162991.58,163208.295,,10,revenue
screen,html.Screen,2_1_1_1_11,2022-05-09T17:43:33.526Z,,,,,,,,,,,,,,,,,54,,,,,,,,,,,,,,528.5050000119081,,response,,,,100,,,,,,,Space,keypress(Space),,,,,,,,-- --- ---- --- ------ ----- ------- ---- -- --- ------- by<br>------- ---------- ------ -- ----- -- ----- -- ---- ------<br>--- ----- --- --- ------ -------- ----- --- ------ ----- --<br>----- ----- ---------- --- --- ------ ------ ---- -- ------<br>------- --- ------ ----- --- ---- ------- -- ---- --- --<br>------- ------,163737.10000000894,163736.80000001192,163191.749,163193.80000001192,163208.295,163741.743,,11,by
screen,html.Screen,2_1_1_1_12,2022-05-09T17:43:34.021Z,,,,,,,,,,,,,,,,,54,,,,,,,,,,,,,,490.75700000001234,,response,,,,100,,,,,,,Space,keypress(Space),,,,,,,,-- --- ---- --- ------ ----- ------- ---- -- --- ------- --<br>issuing ---------- ------ -- ----- -- ----- -- ---- ------<br>--- ----- --- --- ------ -------- ----- --- ------ ----- --<br>----- ----- ---------- --- --- ------ ------ ---- -- ------<br>------- --- ------ ----- --- ---- ------- -- ---- --- --<br>------- ------,164232.80000001192,164232.5,163725.041,163737.20000000298,163741.743,164241.745,,12,issuing
screen,html.Screen,2_1_1_1_13,2022-05-09T17:43:34.470Z,,,,,,,,,,,,,,,,,54,,,,,,,,,,,,,,439.0550000119256,,response,,,,100,,,,,,,Space,keypress(Space),,,,,,,,-- --- ---- --- ------ ----- ------- ---- -- --- ------- --<br>------- government ------ -- ----- -- ----- -- ---- ------<br>--- ----- --- --- ------ -------- ----- --- ------ ----- --<br>----- ----- ---------- --- --- ------ ------ ---- -- ------<br>------- --- ------ ----- --- ---- ------- -- ---- --- --<br>------- ------,164681,164680.80000001192,164224.948,164232.80000001192,164241.745,164691.706,,13,government
screen,html.Screen,2_1_1_1_14,2022-05-09T17:43:34.853Z,,,,,,,,,,,,,,,,,54,,,,,,,,,,,,,,372.8940000089351,,response,,,,100,,,,,,,Space,keypress(Space),,,,,,,,-- --- ---- --- ------ ----- ------- ---- -- --- ------- --<br>------- ---------- bonds. -- ----- -- ----- -- ---- ------<br>--- ----- --- --- ------ -------- ----- --- ------ ----- --<br>----- ----- ---------- --- --- ------ ------ ---- -- ------<br>------- --- ------ ----- --- ---- ------- -- ---- --- --<br>------- ------,165064.80000001192,165064.60000000894,164674.948,164681,164691.706,165075.103,,14,bonds.
screen,html.Screen,2_1_1_1_15,2022-05-09T17:43:35.437Z,,,,,,,,,,,,,,,,,54,,,,,,,,,,,,,,573.1970000119181,,response,,,,100,,,,,,,Space,keypress(Space),,,,,,,,-- --- ---- --- ------ ----- ------- ---- -- --- ------- --<br>------- ---------- ------ In ----- -- ----- -- ---- ------<br>--- ----- --- --- ------ -------- ----- --- ------ ----- --<br>----- ----- ---------- --- --- ------ ------ ---- -- ------<br>------- --- ------ ----- --- ---- ------- -- ---- --- --<br>------- ------,165648.60000000894,165648.30000001192,165058.401,165064.90000000596,165075.103,165658.368,,15,In
screen,html.Screen,2_1_1_1_16,2022-05-09T17:43:36.877Z,,,,,,,,,,,,,,,,,54,,,,,,,,,,,,,,1429.5320000059728,,response,,,,100,,,,,,,Space,keypress(Space),,,,,,,,"-- --- ---- --- ------ ----- ------- ---- -- --- ------- --<br>------- ---------- ------ -- 1727, -- ----- -- ---- ------<br>--- ----- --- --- ------ -------- ----- --- ------ ----- --<br>----- ----- ---------- --- --- ------ ------ ---- -- ------<br>------- --- ------ ----- --- ---- ------- -- ---- --- --<br>------- ------",167088.20000000298,167087.90000000596,165641.642,165648.60000000894,165658.368,167091.63,,16,"1727,"
screen,html.Screen,2_1_1_1_17,2022-05-09T17:43:37.189Z,,,,,,,,,,,,,,,,,54,,,,,,,,,,,,,,308.1700000119163,,response,,,,100,,,,,,,Space,keypress(Space),,,,,,,,-- --- ---- --- ------ ----- ------- ---- -- --- ------- --<br>------- ---------- ------ -- ----- in ----- -- ---- ------<br>--- ----- --- --- ------ -------- ----- --- ------ ----- --<br>----- ----- ---------- --- --- ------ ------ ---- -- ------<br>------- --- ------ ----- --- ---- ------- -- ---- --- --<br>------- ------,167400,167399.80000001192,167074.975,167088.20000000298,167091.63,167408.518,,17,in
screen,html.Screen,2_1_1_1_18,2022-05-09T17:43:37.453Z,,,,,,,,,,,,,,,,,54,,,,,,,,,,,,,,255.48199999998906,,response,,,,100,,,,,,,Space,keypress(Space),,,,,,,,-- --- ---- --- ------ ----- ------- ---- -- --- ------- --<br>------- ---------- ------ -- ----- -- order -- ---- ------<br>--- ----- --- --- ------ -------- ----- --- ------ ----- --<br>----- ----- ---------- --- --- ------ ------ ---- -- ------<br>------- --- ------ ----- --- ---- ------- -- ---- --- --<br>------- ------,167664.40000000596,167664,167391.777,167400.10000000894,167408.518,167675.121,,18,order
screen,html.Screen,2_1_1_1_19,2022-05-09T17:43:37.685Z,,,,,,,,,,,,,,,,,54,,,,,,,,,,,,,,221.37899999998626,,response,,,,100,,,,,,,Space,keypress(Space),,,,,,,,-- --- ---- --- ------ ----- ------- ---- -- --- ------- --<br>------- ---------- ------ -- ----- -- ----- to ---- ------<br>--- ----- --- --- ------ -------- ----- --- ------ ----- --<br>----- ----- ---------- --- --- ------ ------ ---- -- ------<br>------- --- ------ ----- --- ---- ------- -- ---- --- --<br>------- ------,167896.70000000298,167896.5,167658.379,167664.40000000596,167675.121,167908.459,,19,to
screen,html.Screen,2_1_1_1_20,2022-05-09T17:43:37.893Z,,,,,,,,,,,,,,,,,54,,,,,,,,,,,,,,195.4410000059579,,response,,,,100,,,,,,,Space,keypress(Space),,,,,,,,-- --- ---- --- ------ ----- ------- ---- -- --- ------- --<br>------- ---------- ------ -- ----- -- ----- -- save ------<br>--- ----- --- --- ------ -------- ----- --- ------ ----- --<br>----- ----- ---------- --- --- ------ ------ ---- -- ------<br>------- --- ------ ----- --- ---- ------- -- ---- --- --<br>------- ------,168104.20000000298,168103.90000000596,167891.783,167896.80000001192,167908.459,168108.389,,20,save
screen,html.Screen,2_1_1_1_21,2022-05-09T17:43:38.229Z,,,,,,,,,,,,,,,,,54,,,,,,,,,,,,,,331.41100001192535,,response,,,,100,,,,,,,Space,keypress(Space),,,,,,,,"-- --- ---- --- ------ ----- ------- ---- -- --- ------- --<br>------- ---------- ------ -- ----- -- ----- -- ---- money,<br>--- ----- --- --- ------ -------- ----- --- ------ ----- --<br>----- ----- ---------- --- --- ------ ------ ---- -- ------<br>------- --- ------ ----- --- ---- ------- -- ---- --- --<br>------- ------",168440.10000000894,168439.80000001192,168091.79,168104.30000001192,168108.389,168441.658,,21,"money,"
screen,html.Screen,2_1_1_1_22,2022-05-09T17:43:38.701Z,,,,,,,,,,,,,,,,,54,,,,,,,,,,,,,,470.74200000596466,,response,,,,100,,,,,,,Space,keypress(Space),,,,,,,,-- --- ---- --- ------ ----- ------- ---- -- --- ------- --<br>------- ---------- ------ -- ----- -- ----- -- ---- ------<br>the ----- --- --- ------ -------- ----- --- ------ ----- --<br>----- ----- ---------- --- --- ------ ------ ---- -- ------<br>------- --- ------ ----- --- ---- ------- -- ---- --- --<br>------- ------,168912.70000000298,168912.40000000596,168425.113,168440.10000000894,168441.658,168925.112,,22,the
screen,html.Screen,2_1_1_1_23,2022-05-09T17:43:39.021Z,,,,,,,,,,,,,,,,,54,,,,,,,,,,,,,,306.8880000000063,,response,,,,100,,,,,,,Space,keypress(Space),,,,,,,,-- --- ---- --- ------ ----- ------- ---- -- --- ------- --<br>------- ---------- ------ -- ----- -- ----- -- ---- ------<br>--- state --- --- ------ -------- ----- --- ------ ----- --<br>----- ----- ---------- --- --- ------ ------ ---- -- ------<br>------- --- ------ ----- --- ---- ------- -- ---- --- --<br>------- ------,169232.30000001192,169232,168908.304,168912.80000001192,168925.112,169241.825,,23,state
screen,html.Screen,2_1_1_1_24,2022-05-09T17:43:39.381Z,,,,,,,,,,,,,,,,,54,,,,,,,,,,,,,,350.27500000892906,,response,,,,100,,,,,,,Space,keypress(Space),,,,,,,,-- --- ---- --- ------ ----- ------- ---- -- --- ------- --<br>------- ---------- ------ -- ----- -- ----- -- ---- ------<br>--- ----- cut --- ------ -------- ----- --- ------ ----- --<br>----- ----- ---------- --- --- ------ ------ ---- -- ------<br>------- --- ------ ----- --- ---- ------- -- ---- --- --<br>------- ------,169592.30000001192,169592.10000000894,169225.125,169232.30000001192,169241.825,169608.485,,24,cut
screen,html.Screen,2_1_1_1_25,2022-05-09T17:43:39.654Z,,,,,,,,,,,,,,,,,54,,,,,,,,,,,,,,256.51500000001397,,response,,,,100,,,,,,,Space,keypress(Space),,,,,,,,-- --- ---- --- ------ ----- ------- ---- -- --- ------- --<br>------- ---------- ------ -- ----- -- ----- -- ---- ------<br>--- ----- --- the ------ -------- ----- --- ------ ----- --<br>----- ----- ---------- --- --- ------ ------ ---- -- ------<br>------- --- ------ ----- --- ---- ------- -- ---- --- --<br>------- ------,169865.30000001192,169865,169591.68,169592.30000001192,169608.485,169875.029,,25,the
screen,html.Screen,2_1_1_1_26,2022-05-09T17:43:40.022Z,,,,,,,,,,,,,,,,,54,,,,,,,,,,,,,,357.8710000059509,,response,,,,100,,,,,,,Space,keypress(Space),,,,,,,,-- --- ---- --- ------ ----- ------- ---- -- --- ------- --<br>------- ---------- ------ -- ----- -- ----- -- ---- ------<br>--- ----- --- --- bonds' -------- ----- --- ------ ----- --<br>----- ----- ---------- --- --- ------ ------ ---- -- ------<br>------- --- ------ ----- --- ---- ------- -- ---- --- --<br>------- ------,170233.20000000298,170232.90000000596,169858.449,169865.30000001192,169875.029,170241.825,,26,bonds'
screen,html.Screen,2_1_1_1_27,2022-05-09T17:43:40.405Z,,,,,,,,,,,,,,,,,54,,,,,,,,,,,,,,374.5750000059488,,response,,,,100,,,,,,,Space,keypress(Space),,,,,,,,-- --- ---- --- ------ ----- ------- ---- -- --- ------- --<br>------- ---------- ------ -- ----- -- ----- -- ---- ------<br>--- ----- --- --- ------ interest ----- --- ------ ----- --<br>----- ----- ---------- --- --- ------ ------ ---- -- ------<br>------- --- ------ ----- --- ---- ------- -- ---- --- --<br>------- ------,170616.70000000298,170616.40000000596,170225.132,170233.20000000298,170241.825,170625.179,,27,interest
screen,html.Screen,2_1_1_1_28,2022-05-09T17:43:40.782Z,,,,,,,,,,,,,,,,,54,,,,,,,,,,,,,,367.8209999999963,,response,,,,100,,,,,,,Space,keypress(Space),,,,,,,,-- --- ---- --- ------ ----- ------- ---- -- --- ------- --<br>------- ---------- ------ -- ----- -- ----- -- ---- ------<br>--- ----- --- --- ------ -------- rate. --- ------ ----- --<br>----- ----- ---------- --- --- ------ ------ ---- -- ------<br>------- --- ------ ----- --- ---- ------- -- ---- --- --<br>------- ------,170993.20000000298,170993,170608.467,170616.70000000298,170625.179,171008.498,,28,rate.
screen,html.Screen,2_1_1_1_29,2022-05-09T17:43:41.390Z,,,,,,,,,,,,,,,,,54,,,,,,,,,,,,,,592.3020000119286,,response,,,,100,,,,,,,Space,keypress(Space),,,,,,,,-- --- ---- --- ------ ----- ------- ---- -- --- ------- --<br>------- ---------- ------ -- ----- -- ----- -- ---- ------<br>--- ----- --- --- ------ -------- ----- The ------ ----- --<br>----- ----- ---------- --- --- ------ ------ ---- -- ------<br>------- --- ------ ----- --- ---- ------- -- ---- --- --<br>------- ------,171601.10000000894,171600.80000001192,170991.806,170993.30000001192,171008.498,171608.355,,29,The
screen,html.Screen,2_1_1_1_30,2022-05-09T17:43:41.749Z,,,,,,,,,,,,,,,,,54,,,,,,,,,,,,,,351.54500000595,,response,,,,100,,,,,,,Space,keypress(Space),,,,,,,,-- --- ---- --- ------ ----- ------- ---- -- --- ------- --<br>------- ---------- ------ -- ----- -- ----- -- ---- ------<br>--- ----- --- --- ------ -------- ----- --- market ----- --<br>----- ----- ---------- --- --- ------ ------ ---- -- ------<br>------- --- ------ ----- --- ---- ------- -- ---- --- --<br>------- ------,171960.20000000298,171959.90000000596,171591.787,171601.10000000894,171608.355,171975.223,,30,market
screen,html.Screen,2_1_1_1_31,2022-05-09T17:43:42.045Z,,,,,,,,,,,,,,,,,54,,,,,,,,,,,,,,281.1770000059623,,response,,,,100,,,,,,,Space,keypress(Space),,,,,,,,-- --- ---- --- ------ ----- ------- ---- -- --- ------- --<br>------- ---------- ------ -- ----- -- ----- -- ---- ------<br>--- ----- --- --- ------ -------- ----- --- ------ value --<br>----- ----- ---------- --- --- ------ ------ ---- -- ------<br>------- --- ------ ----- --- ---- ------- -- ---- --- --<br>------- ------,172256.80000001192,172256.40000000596,171958.492,171960.20000000298,171975.223,172258.406,,31,value
screen,html.Screen,2_1_1_1_32,2022-05-09T17:43:42.469Z,,,,,,,,,,,,,,,,,54,,,,,,,,,,,,,,421.7940000029921,,response,,,,100,,,,,,,Space,keypress(Space),,,,,,,,-- --- ---- --- ------ ----- ------- ---- -- --- ------- --<br>------- ---------- ------ -- ----- -- ----- -- ---- ------<br>--- ----- --- --- ------ -------- ----- --- ------ ----- of<br>----- ----- ---------- --- --- ------ ------ ---- -- ------<br>------- --- ------ ----- --- ---- ------- -- ---- --- --<br>------- ------,172680.40000000596,172680.20000000298,172241.84,172256.80000001192,172258.406,172691.746,,32,of
screen,html.Screen,2_1_1_1_33,2022-05-09T17:43:42.830Z,,,,,,,,,,,,,,,,,54,,,,,,,,,,,,,,349.25399999998626,,response,,,,100,,,,,,,Space,keypress(Space),,,,,,,,-- --- ---- --- ------ ----- ------- ---- -- --- ------- --<br>------- ---------- ------ -- ----- -- ----- -- ---- ------<br>--- ----- --- --- ------ -------- ----- --- ------ ----- --<br>these ----- ---------- --- --- ------ ------ ---- -- ------<br>------- --- ------ ----- --- ---- ------- -- ---- --- --<br>------- ------,173041.20000000298,173041,172675.154,172680.5,172691.746,173058.551,,33,these
screen,html.Screen,2_1_1_1_34,2022-05-09T17:43:43.207Z,,,,,,,,,,,,,,,,,54,,,,,,,,,,,,,,359.44899999999325,,response,,,,100,,,,,,,Space,keypress(Space),,,,,,,,-- --- ---- --- ------ ----- ------- ---- -- --- ------- --<br>------- ---------- ------ -- ----- -- ----- -- ---- ------<br>--- ----- --- --- ------ -------- ----- --- ------ ----- --<br>----- bonds ---------- --- --- ------ ------ ---- -- ------<br>------- --- ------ ----- --- ---- ------- -- ---- --- --<br>------- ------,173418.30000001192,173418,173025.124,173041.30000001192,173058.551,173425.045,,34,bonds
screen,html.Screen,2_1_1_1_35,2022-05-09T17:43:43.565Z,,,,,,,,,,,,,,,,,54,,,,,,,,,,,,,,351.1550000029674,,response,,,,100,,,,,,,Space,keypress(Space),,,,,,,,"-- --- ---- --- ------ ----- ------- ---- -- --- ------- --<br>------- ---------- ------ -- ----- -- ----- -- ---- ------<br>--- ----- --- --- ------ -------- ----- --- ------ ----- --<br>----- ----- plummeted, --- --- ------ ------ ---- -- ------<br>------- --- ------ ----- --- ---- ------- -- ---- --- --<br>------- ------",173776.5,173776.20000000298,173408.516,173418.40000000596,173425.045,173791.793,,35,"plummeted,"
screen,html.Screen,2_1_1_1_36,2022-05-09T17:43:43.965Z,,,,,,,,,,,,,,,,,54,,,,,,,,,,,,,,384.8070000089356,,response,,,,100,,,,,,,Space,keypress(Space),,,,,,,,-- --- ---- --- ------ ----- ------- ---- -- --- ------- --<br>------- ---------- ------ -- ----- -- ----- -- ---- ------<br>--- ----- --- --- ------ -------- ----- --- ------ ----- --<br>----- ----- ---------- and --- ------ ------ ---- -- ------<br>------- --- ------ ----- --- ---- ------- -- ---- --- --<br>------- ------,174177,174176.60000000894,173775.09,173776.60000000894,173791.793,174191.76,,36,and
screen,html.Screen,2_1_1_1_37,2022-05-09T17:43:44.206Z,,,,,,,,,,,,,,,,,54,,,,,,,,,,,,,,225.94000000297092,,response,,,,100,,,,,,,Space,keypress(Space),,,,,,,,-- --- ---- --- ------ ----- ------- ---- -- --- ------- --<br>------- ---------- ------ -- ----- -- ----- -- ---- ------<br>--- ----- --- --- ------ -------- ----- --- ------ ----- --<br>----- ----- ---------- --- the ------ ------ ---- -- ------<br>------- --- ------ ----- --- ---- ------- -- ---- --- --<br>------- ------,174417.90000000596,174417.70000000298,174175.179,174177,174191.76,174425.149,,37,the
screen,html.Screen,2_1_1_1_38,2022-05-09T17:43:44.413Z,,,,,,,,,,,,,,,,,54,,,,,,,,,,,,,,198.55100000297534,,response,,,,100,,,,,,,Space,keypress(Space),,,,,,,,-- --- ---- --- ------ ----- ------- ---- -- --- ------- --<br>------- ---------- ------ -- ----- -- ----- -- ---- ------<br>--- ----- --- --- ------ -------- ----- --- ------ ----- --<br>----- ----- ---------- --- --- market ------ ---- -- ------<br>------- --- ------ ----- --- ---- ------- -- ---- --- --<br>------- ------,174624,174623.70000000298,174408.532,174417.90000000596,174425.149,174646.898,,38,market
screen,html.Screen,2_1_1_1_39,2022-05-09T17:43:44.781Z,,,,,,,,,,,,,,,,,54,,,,,,,,,,,,,,345.30200000299374,,response,,,,100,,,,,,,Space,keypress(Space),,,,,,,,-- --- ---- --- ------ ----- ------- ---- -- --- ------- --<br>------- ---------- ------ -- ----- -- ----- -- ---- ------<br>--- ----- --- --- ------ -------- ----- --- ------ ----- --<br>----- ----- ---------- --- --- ------ became ---- -- ------<br>------- --- ------ ----- --- ---- ------- -- ---- --- --<br>------- ------,174992.60000000894,174992.20000000298,174608.547,174624.10000000894,174646.898,175008.546,,39,became
screen,html.Screen,2_1_1_1_40,2022-05-09T17:43:45.101Z,,,,,,,,,,,,,,,,,54,,,,,,,,,,,,,,303.4539999999979,,response,,,,100,,,,,,,Space,keypress(Space),,,,,,,,-- --- ---- --- ------ ----- ------- ---- -- --- ------- --<br>------- ---------- ------ -- ----- -- ----- -- ---- ------<br>--- ----- --- --- ------ -------- ----- --- ------ ----- --<br>----- ----- ---------- --- --- ------ ------ wary -- ------<br>------- --- ------ ----- --- ---- ------- -- ---- --- --<br>------- ------,175312.20000000298,175312,174991.858,174992.70000000298,175008.546,175325.123,,40,wary
screen,html.Screen,2_1_1_1_41,2022-05-09T17:43:45.462Z,,,,,,,,,,,,,,,,,54,,,,,,,,,,,,,,347.6770000119286,,response,,,,100,,,,,,,Space,keypress(Space),,,,,,,,-- --- ---- --- ------ ----- ------- ---- -- --- ------- --<br>------- ---------- ------ -- ----- -- ----- -- ---- ------<br>--- ----- --- --- ------ -------- ----- --- ------ ----- --<br>----- ----- ---------- --- --- ------ ------ ---- of ------<br>------- --- ------ ----- --- ---- ------- -- ---- --- --<br>------- ------,175673.20000000298,175672.80000001192,175308.438,175312.30000001192,175325.123,175675.103,,41,of
screen,html.Screen,2_1_1_1_42,2022-05-09T17:43:45.861Z,,,,,,,,,,,,,,,,,54,,,,,,,,,,,,,,397.3969999999972,,response,,,,100,,,,,,,Space,keypress(Space),,,,,,,,-- --- ---- --- ------ ----- ------- ---- -- --- ------- --<br>------- ---------- ------ -- ----- -- ----- -- ---- ------<br>--- ----- --- --- ------ -------- ----- --- ------ ----- --<br>----- ----- ---------- --- --- ------ ------ ---- -- French<br>------- --- ------ ----- --- ---- ------- -- ---- --- --<br>------- ------,176072.80000001192,176072.5,175658.533,175673.20000000298,175675.103,176075.122,,42,French
screen,html.Screen,2_1_1_1_43,2022-05-09T17:43:46.261Z,,,,,,,,,,,,,,,,,54,,,,,,,,,,,,,,396.6780000119179,,response,,,,100,,,,,,,Space,keypress(Space),,,,,,,,-- --- ---- --- ------ ----- ------- ---- -- --- ------- --<br>------- ---------- ------ -- ----- -- ----- -- ---- ------<br>--- ----- --- --- ------ -------- ----- --- ------ ----- --<br>----- ----- ---------- --- --- ------ ------ ---- -- ------<br>credit. --- ------ ----- --- ---- ------- -- ---- --- --<br>------- ------,176472.10000000894,176471.80000001192,176058.534,176072.90000000596,176075.122,176475.163,,43,credit.
screen,html.Screen,2_1_1_1_44,2022-05-09T17:43:46.957Z,,,,,,,,,,,,,,,,,54,,,,,,,,,,,,,,693.3369999999995,,response,,,,100,,,,,,,Space,keypress(Space),,,,,,,,-- --- ---- --- ------ ----- ------- ---- -- --- ------- --<br>------- ---------- ------ -- ----- -- ----- -- ---- ------<br>--- ----- --- --- ------ -------- ----- --- ------ ----- --<br>----- ----- ---------- --- --- ------ ------ ---- -- ------<br>------- The ------ ----- --- ---- ------- -- ---- --- --<br>------- ------,177168.90000000596,177168.5,176458.431,176472.10000000894,176475.163,177175.097,,44,The
screen,html.Screen,2_1_1_1_45,2022-05-09T17:43:47.325Z,,,,,,,,,,,,,,,,,54,,,,,,,,,,,,,,360.7030000119121,,response,,,,100,,,,,,,Space,keypress(Space),,,,,,,,-- --- ---- --- ------ ----- ------- ---- -- --- ------- --<br>------- ---------- ------ -- ----- -- ----- -- ---- ------<br>--- ----- --- --- ------ -------- ----- --- ------ ----- --<br>----- ----- ---------- --- --- ------ ------ ---- -- ------<br>------- --- French ----- --- ---- ------- -- ---- --- --<br>------- ------,177536,177535.80000001192,177158.467,177168.90000000596,177175.097,177541.804,,45,French
screen,html.Screen,2_1_1_1_46,2022-05-09T17:43:47.645Z,,,,,,,,,,,,,,,,,54,,,,,,,,,,,,,,314.59600000595674,,response,,,,100,,,,,,,Space,keypress(Space),,,,,,,,-- --- ---- --- ------ ----- ------- ---- -- --- ------- --<br>------- ---------- ------ -- ----- -- ----- -- ---- ------<br>--- ----- --- --- ------ -------- ----- --- ------ ----- --<br>----- ----- ---------- --- --- ------ ------ ---- -- ------<br>------- --- ------ state --- ---- ------- -- ---- --- --<br>------- ------,177856.80000001192,177856.40000000596,177525.227,177536.10000000894,177541.804,177858.468,,46,state
screen,html.Screen,2_1_1_1_47,2022-05-09T17:43:47.981Z,,,,,,,,,,,,,,,,,54,,,,,,,,,,,,,,333.932000005967,,response,,,,100,,,,,,,Space,keypress(Space),,,,,,,,-- --- ---- --- ------ ----- ------- ---- -- --- ------- --<br>------- ---------- ------ -- ----- -- ----- -- ---- ------<br>--- ----- --- --- ------ -------- ----- --- ------ ----- --<br>----- ----- ---------- --- --- ------ ------ ---- -- ------<br>------- --- ------ ----- was ---- ------- -- ---- --- --<br>------- ------,178192.80000001192,178192.40000000596,177841.793,177856.80000001192,177858.468,178208.566,,47,was
screen,html.Screen,2_1_1_1_48,2022-05-09T17:43:48.365Z,,,,,,,,,,,,,,,,,54,,,,,,,,,,,,,,367.6340000029886,,response,,,,100,,,,,,,Space,keypress(Space),,,,,,,,-- --- ---- --- ------ ----- ------- ---- -- --- ------- --<br>------- ---------- ------ -- ----- -- ----- -- ---- ------<br>--- ----- --- --- ------ -------- ----- --- ------ ----- --<br>----- ----- ---------- --- --- ------ ------ ---- -- ------<br>------- --- ------ ----- --- left ------- -- ---- --- --<br>------- ------,178576.5,178576.20000000298,178191.902,178192.80000001192,178208.566,178591.827,,48,left
screen,html.Screen,2_1_1_1_49,2022-05-09T17:43:48.733Z,,,,,,,,,,,,,,,,,54,,,,,,,,,,,,,,352.1730000000098,,response,,,,100,,,,,,,Space,keypress(Space),,,,,,,,-- --- ---- --- ------ ----- ------- ---- -- --- ------- --<br>------- ---------- ------ -- ----- -- ----- -- ---- ------<br>--- ----- --- --- ------ -------- ----- --- ------ ----- --<br>----- ----- ---------- --- --- ------ ------ ---- -- ------<br>------- --- ------ ----- --- ---- without -- ---- --- --<br>------- ------,178944.30000001192,178944,178575.131,178576.60000000894,178591.827,178958.592,,49,without
screen,html.Screen,2_1_1_1_50,2022-05-09T17:43:49.094Z,,,,,,,,,,,,,,,,,54,,,,,,,,,,,,,,346.3080000059563,,response,,,,100,,,,,,,Space,keypress(Space),,,,,,,,-- --- ---- --- ------ ----- ------- ---- -- --- ------- --<br>------- ---------- ------ -- ----- -- ----- -- ---- ------<br>--- ----- --- --- ------ -------- ----- --- ------ ----- --<br>----- ----- ---------- --- --- ------ ------ ---- -- ------<br>------- --- ------ ----- --- ---- ------- an ---- --- --<br>------- ------,179305.20000000298,179304.90000000596,178941.905,178944.40000000596,178958.592,179308.517,,50,an
screen,html.Screen,2_1_1_1_51,2022-05-09T17:43:49.453Z,,,,,,,,,,,,,,,,,54,,,,,,,,,,,,,,355.48300000000745,,response,,,,100,,,,,,,Space,keypress(Space),,,,,,,,-- --- ---- --- ------ ----- ------- ---- -- --- ------- --<br>------- ---------- ------ -- ----- -- ----- -- ---- ------<br>--- ----- --- --- ------ -------- ----- --- ------ ----- --<br>----- ----- ---------- --- --- ------ ------ ---- -- ------<br>------- --- ------ ----- --- ---- ------- -- easy --- --<br>------- ------,179664.30000001192,179664,179291.855,179305.30000001192,179308.517,179675.27,,51,easy
screen,html.Screen,2_1_1_1_52,2022-05-09T17:43:49.765Z,,,,,,,,,,,,,,,,,54,,,,,,,,,,,,,,301.2300000000105,,response,,,,100,,,,,,,Space,keypress(Space),,,,,,,,-- --- ---- --- ------ ----- ------- ---- -- --- ------- --<br>------- ---------- ------ -- ----- -- ----- -- ---- ------<br>--- ----- --- --- ------ -------- ----- --- ------ ----- --<br>----- ----- ---------- --- --- ------ ------ ---- -- ------<br>------- --- ------ ----- --- ---- ------- -- ---- way --<br>------- ------,179976.70000000298,179976.5,179658.444,179664.30000001192,179675.27,179991.943,,52,way
screen,html.Screen,2_1_1_1_53,2022-05-09T17:43:50.149Z,,,,,,,,,,,,,,,,,54,,,,,,,,,,,,,,367.75700000298093,,response,,,,100,,,,,,,Space,keypress(Space),,,,,,,,-- --- ---- --- ------ ----- ------- ---- -- --- ------- --<br>------- ---------- ------ -- ----- -- ----- -- ---- ------<br>--- ----- --- --- ------ -------- ----- --- ------ ----- --<br>----- ----- ---------- --- --- ------ ------ ---- -- ------<br>------- --- ------ ----- --- ---- ------- -- ---- --- of<br>------- ------,180360,180359.70000000298,179975.13,179976.80000001192,179991.943,180375.258,,53,of
screen,html.Screen,2_1_1_1_54,2022-05-09T17:43:50.542Z,,,,,,,,,,,,,,,,,54,,,,,,,,,,,,,,377.64200000595883,,response,,,,100,,,,,,,Space,keypress(Space),,,,,,,,-- --- ---- --- ------ ----- ------- ---- -- --- ------- --<br>------- ---------- ------ -- ----- -- ----- -- ---- ------<br>--- ----- --- --- ------ -------- ----- --- ------ ----- --<br>----- ----- ---------- --- --- ------ ------ ---- -- ------<br>------- --- ------ ----- --- ---- ------- -- ---- --- --<br>raising ------,180753.10000000894,180752.90000000596,180358.769,180360.10000000894,180375.258,180758.477,,54,raising
screen,html.Screen,2_1_1_1_55,2022-05-09T17:43:51.141Z,,,,,,,,,,,,,,,,,54,,,,,,,,,,,,,,594.0229999999865,,response,,,,100,,,,,,,Space,keypress(Space),,,,,,,,-- --- ---- --- ------ ----- ------- ---- -- --- ------- --<br>------- ---------- ------ -- ----- -- ----- -- ---- ------<br>--- ----- --- --- ------ -------- ----- --- ------ ----- --<br>----- ----- ---------- --- --- ------ ------ ---- -- ------<br>------- --- ------ ----- --- ---- ------- -- ---- --- --<br>------- money.,181352.80000001192,181352.5,180741.926,180753.20000000298,180758.477,181358.639,,55,money.
Item 100,flow.Loop,2_1_1_1,2022-05-09T17:43:51.141Z,,,,,,,,,,,,,,,,,,,,,,,,,,,,,,,21727.473999999987,,completion,,,,,G,,,,,,,,,,,silence,,,,,181352.80000001192,181352.5,159608.37,159608.60000000894,159625.026,181358.639,,,
Question 1,html.Screen,2_1_1_2,2022-05-09T17:44:04.633Z,,,,,,,,,,,,,,,,,,,,,,,,,,,,true,TRUE,,13485.761000005965,,response,,,,100,G,,,,,,TRUE,click #choice-1,,,,silence,,,,,194844.80000001192,194844.40000000596,181341.8,181352.90000000596,181358.639,194858.745,,,
Question 2,html.Screen,2_1_1_3,2022-05-09T17:44:06.602Z,,,,,,,,,,,,,,,,,,,,,,,,,,,,true,FALSE,,1954.6550000059651,,response,,,,100,G,,,,,,FALSE,click #choice-2,,,,silence,,,,,196813.70000000298,196813.40000000596,194842.171,194844.80000001192,194858.745,196825.486,,,
Item 100,flow.Sequence,2_1_1,2022-05-09T17:44:06.602Z,,,,,,,,,,,,,,,,,,,,,,,,,,,,,,,47188.558000005956,,completion,,,,,,,,,,,,,,,,,,,,,196813.80000001192,196813.40000000596,149608.254,149614.5,149624.842,196825.486,,,
End of Practice,html.Page,2_1_2,2022-05-09T17:44:11.422Z,,,,,,,,,,,,,,,,,,,,,,,,,,,,,,,4807.914000005956,,form submission,,,,,,,,,,,,,,,,,,,,,201633.5,201633.40000000596,196808.82,196813.90000000596,196825.486,201658.951,,,
Practice,flow.Sequence,2_1,2022-05-09T17:44:11.422Z,,,,,,,,,,,,,,,,,,,,,,,,,,,,,,,97609.18200000597,,completion,,,,,,,,,,,,,,,,,,,,,201633.60000000894,201633.40000000596,104007.538,104001.10000000894,104024.218,201658.951,,,
Trap_instruction,html.Page,2_2_0,2022-05-09T17:44:14.571Z,,,,,,,,,,,,,,,,,,,,,,,,,,,,,,,3122.9490000059595,,form submission,,,,,,,,,,,,,,,,,,,,,204782,204781.90000000596,201642.173,201633.60000000894,201658.951,204808.787,,,
trap_trial,html.Screen,2_2_1,2022-05-09T17:44:16.832Z,,,,,,,,,,,,,,,,,,,,,,,,,,,,true,1,,2234.3130000089295,,response,,,,,,,,,,,1,click #choice-1,,,,,,,,,207043.5,207043.10000000894,204792.272,204782,204808.787,207058.947,,,
end of trap trial,html.Page,2_2_2,2022-05-09T17:44:18.335Z,,,,,,,,,,,,,,,,,,,,,,,,,,,,,,,1487.953000005975,,form submission,,,,,,,,,,,,,,,,,,,,,208547,208546.90000000596,207042.289,207043.60000000894,207058.947,208558.996,,,
Trap 1,flow.Sequence,2_2,2022-05-09T17:44:18.336Z,,,,,,,,,,,,,,,,,,,,,,,,,,,,,,,6887.9490000059595,,completion,,,,,,,,,,,,,,,,,,,,,208547,208546.90000000596,201642.173,201633.60000000894,201658.951,208558.996,,,
Standby,html.Page,2_3_0,2022-05-09T17:44:26.331Z,,,,,,,,,,,,,,,,,,,,,,,,,,,,,,,7999.957999999984,,timeout,,,,,,,,,,,,,,,,,,,,,216542.60000000894,216542.391,208542.216,208547.10000000894,208558.996,216558.954,,,
Holding screen,html.Screen,2_3_1_0_0,2022-05-09T17:44:33.331Z,,,,,,,,,,,,,,,,,,,,,,,,,,,,,,,7000.091000000015,,timeout,,,,,,,,,,,,,,,,,,,,,223542.60000000894,223542.381,216542.391,216542.80000001192,216558.954,223559.045,,,
screen,html.Screen,2_3_1_0_1_0,2022-05-09T17:44:34.126Z,,,,,,,,,,,,,,,,,19,,,,,,,,,,,,,,777.9549999999872,,response,,,,17,G,,,,,,Space,keypress(Space),,,,instrumental,,,,"Interestingly, --- -------- -------- ---------- ---- -------<br>-- ---------- -- --- ----- ------ ----- ---- --------- ----<br>------- ------ -------- -- ------ ---------- ------ ---<br>------ -- -- ---- -- ---------- -------- ------ ---- -------<br>---- --- --------- ------- ----- --------- ---- ----- --<br>------ -------- -- ------ -- ---- ------------",224337.40000000596,224337,223542.381,223542.70000000298,223559.045,224342.517,,0,"Interestingly,"
screen,html.Screen,2_3_1_0_1_1,2022-05-09T17:44:34.469Z,,,,,,,,,,,,,,,,,19,,,,,,,,,,,,,,337.48300000000745,,response,,,,17,G,,,,,,Space,keypress(Space),,,,instrumental,,,,-------------- the -------- -------- ---------- ---- -------<br>-- ---------- -- --- ----- ------ ----- ---- --------- ----<br>------- ------ -------- -- ------ ---------- ------ ---<br>------ -- -- ---- -- ---------- -------- ------ ---- -------<br>---- --- --------- ------- ----- --------- ---- ----- --<br>------ -------- -- ------ -- ---- ------------,224680.30000001192,224680,224325.765,224337.40000000596,224342.517,224692.414,,1,the
screen,html.Screen,2_3_1_0_1_2,2022-05-09T17:44:34.765Z,,,,,,,,,,,,,,,,,19,,,,,,,,,,,,,,283.7860000029905,,response,,,,17,G,,,,,,Space,keypress(Space),,,,instrumental,,,,-------------- --- heaviest -------- ---------- ---- -------<br>-- ---------- -- --- ----- ------ ----- ---- --------- ----<br>------- ------ -------- -- ------ ---------- ------ ---<br>------ -- -- ---- -- ---------- -------- ------ ---- -------<br>---- --- --------- ------- ----- --------- ---- ----- --<br>------ -------- -- ------ -- ---- ------------,224976.60000000894,224976.20000000298,224675.677,224680.30000001192,224692.414,224992.501,,2,heaviest
screen,html.Screen,2_3_1_0_1_3,2022-05-09T17:44:35.062Z,,,,,,,,,,,,,,,,,19,,,,,,,,,,,,,,280.3990000059712,,response,,,,17,G,,,,,,Space,keypress(Space),,,,instrumental,,,,-------------- --- -------- isotopes ---------- ---- -------<br>-- ---------- -- --- ----- ------ ----- ---- --------- ----<br>------- ------ -------- -- ------ ---------- ------ ---<br>------ -- -- ---- -- ---------- -------- ------ ---- -------<br>---- --- --------- ------- ----- --------- ---- ----- --<br>------ -------- -- ------ -- ---- ------------,225273.10000000894,225272.90000000596,224975.828,224976.60000000894,224992.501,225275.968,,3,isotopes
screen,html.Screen,2_3_1_0_1_4,2022-05-09T17:44:35.502Z,,,,,,,,,,,,,,,,,19,,,,,,,,,,,,,,436.73200000298675,,response,,,,17,G,,,,,,Space,keypress(Space),,,,instrumental,,,,-------------- --- -------- -------- physicists ---- -------<br>-- ---------- -- --- ----- ------ ----- ---- --------- ----<br>------- ------ -------- -- ------ ---------- ------ ---<br>------ -- -- ---- -- ---------- -------- ------ ---- -------<br>---- --- --------- ------- ----- --------- ---- ----- --<br>------ -------- -- ------ -- ---- ------------,225712.90000000596,225712.70000000298,225259.161,225273.10000000894,225275.968,225725.79,,4,physicists
screen,html.Screen,2_3_1_0_1_5,2022-05-09T17:44:35.861Z,,,,,,,,,,,,,,,,,19,,,,,,,,,,,,,,346.5100000119128,,response,,,,17,G,,,,,,Space,keypress(Space),,,,instrumental,,,,-------------- --- -------- -------- ---------- have -------<br>-- ---------- -- --- ----- ------ ----- ---- --------- ----<br>------- ------ -------- -- ------ ---------- ------ ---<br>------ -- -- ---- -- ---------- -------- ------ ---- -------<br>---- --- --------- ------- ----- --------- ---- ----- --<br>------ -------- -- ------ -- ---- ------------,226072.60000000894,226072.30000001192,225709.147,225713,225725.79,226075.735,,5,have
screen,html.Screen,2_3_1_0_1_6,2022-05-09T17:44:36.253Z,,,,,,,,,,,,,,,,,19,,,,,,,,,,,,,,388.0650000119349,,response,,,,17,G,,,,,,Space,keypress(Space),,,,instrumental,,,,-------------- --- -------- -------- ---------- ---- managed<br>-- ---------- -- --- ----- ------ ----- ---- --------- ----<br>------- ------ -------- -- ------ ---------- ------ ---<br>------ -- -- ---- -- ---------- -------- ------ ---- -------<br>---- --- --------- ------- ----- --------- ---- ----- --<br>------ -------- -- ------ -- ---- ------------,226464,226463.80000001192,226059.165,226072.70000000298,226075.735,226475.851,,6,managed
screen,html.Screen,2_3_1_0_1_7,2022-05-09T17:44:36.590Z,,,,,,,,,,,,,,,,,19,,,,,,,,,,,,,,325.04900000596535,,response,,,,17,G,,,,,,Space,keypress(Space),,,,instrumental,,,,-------------- --- -------- -------- ---------- ---- -------<br>to ---------- -- --- ----- ------ ----- ---- --------- ----<br>------- ------ -------- -- ------ ---------- ------ ---<br>------ -- -- ---- -- ---------- -------- ------ ---- -------<br>---- --- --------- ------- ----- --------- ---- ----- --<br>------ -------- -- ------ -- ---- ------------,226801.20000000298,226800.90000000596,226459.16,226464,226475.851,226809.225,,7,to
screen,html.Screen,2_3_1_0_1_8,2022-05-09T17:44:37.037Z,,,,,,,,,,,,,,,,,19,,,,,,,,,,,,,,438.8750000089349,,response,,,,17,G,,,,,,Space,keypress(Space),,,,instrumental,,,,-------------- --- -------- -------- ---------- ---- -------<br>-- synthesize -- --- ----- ------ ----- ---- --------- ----<br>------- ------ -------- -- ------ ---------- ------ ---<br>------ -- -- ---- -- ---------- -------- ------ ---- -------<br>---- --- --------- ------- ----- --------- ---- ----- --<br>------ -------- -- ------ -- ---- ------------,227248.30000001192,227248.10000000894,226792.424,226801.30000001192,226809.225,227259.196,,8,synthesize
screen,html.Screen,2_3_1_0_1_9,2022-05-09T17:44:37.357Z,,,,,,,,,,,,,,,,,19,,,,,,,,,,,,,,308.9040000089444,,response,,,,17,G,,,,,,Space,keypress(Space),,,,instrumental,,,,-------------- --- -------- -------- ---------- ---- -------<br>-- ---------- so --- ----- ------ ----- ---- --------- ----<br>------- ------ -------- -- ------ ---------- ------ ---<br>------ -- -- ---- -- ---------- -------- ------ ---- -------<br>---- --- --------- ------- ----- --------- ---- ----- --<br>------ -------- -- ------ -- ---- ------------,227568.30000001192,227568.10000000894,227242.503,227248.40000000596,227259.196,227575.749,,9,so
screen,html.Screen,2_3_1_0_1_10,2022-05-09T17:44:37.677Z,,,,,,,,,,,,,,,,,19,,,,,,,,,,,,,,312.65100000594975,,response,,,,17,G,,,,,,Space,keypress(Space),,,,instrumental,,,,-------------- --- -------- -------- ---------- ---- -------<br>-- ---------- -- far ----- ------ ----- ---- --------- ----<br>------- ------ -------- -- ------ ---------- ------ ---<br>------ -- -- ---- -- ---------- -------- ------ ---- -------<br>---- --- --------- ------- ----- --------- ---- ----- --<br>------ -------- -- ------ -- ---- ------------,227888.70000000298,227888.40000000596,227559.041,227568.40000000596,227575.749,227892.589,,10,far
screen,html.Screen,2_3_1_0_1_11,2022-05-09T17:44:37.981Z,,,,,,,,,,,,,,,,,19,,,,,,,,,,,,,,299.9109999999928,,response,,,,17,G,,,,,,Space,keypress(Space),,,,instrumental,,,,-------------- --- -------- -------- ---------- ---- -------<br>-- ---------- -- --- don't ------ ----- ---- --------- ----<br>------- ------ -------- -- ------ ---------- ------ ---<br>------ -- -- ---- -- ---------- -------- ------ ---- -------<br>---- --- --------- ------- ----- --------- ---- ----- --<br>------ -------- -- ------ -- ---- ------------,228192.80000001192,228192.5,227875.86,227888.80000001192,227892.589,228209.12,,11,don't
screen,html.Screen,2_3_1_0_1_12,2022-05-09T17:44:38.357Z,,,,,,,,,,,,,,,,,19,,,,,,,,,,,,,,359.1800000119256,,response,,,,17,G,,,,,,Space,keypress(Space),,,,instrumental,,,,-------------- --- -------- -------- ---------- ---- -------<br>-- ---------- -- --- ----- behave ----- ---- --------- ----<br>------- ------ -------- -- ------ ---------- ------ ---<br>------ -- -- ---- -- ---------- -------- ------ ---- -------<br>---- --- --------- ------- ----- --------- ---- ----- --<br>------ -------- -- ------ -- ---- ------------,228568.60000000894,228568.30000001192,228192.406,228192.80000001192,228209.12,228575.76,,12,behave
screen,html.Screen,2_3_1_0_1_13,2022-05-09T17:44:38.702Z,,,,,,,,,,,,,,,,,19,,,,,,,,,,,,,,337.2399999999907,,response,,,,17,G,,,,,,Space,keypress(Space),,,,instrumental,,,,-------------- --- -------- -------- ---------- ---- -------<br>-- ---------- -- --- ----- ------ quite ---- --------- ----<br>------- ------ -------- -- ------ ---------- ------ ---<br>------ -- -- ---- -- ---------- -------- ------ ---- -------<br>---- --- --------- ------- ----- --------- ---- ----- --<br>------ -------- -- ------ -- ---- ------------,228913.20000000298,228913,228559.194,228568.60000000894,228575.76,228925.773,,13,quite
screen,html.Screen,2_3_1_0_1_14,2022-05-09T17:44:39.077Z,,,,,,,,,,,,,,,,,19,,,,,,,,,,,,,,362.02700001193443,,response,,,,17,G,,,,,,Space,keypress(Space),,,,instrumental,,,,-------------- --- -------- -------- ---------- ---- -------<br>-- ---------- -- --- ----- ------ ----- like --------- ----<br>------- ------ -------- -- ------ ---------- ------ ---<br>------ -- -- ---- -- ---------- -------- ------ ---- -------<br>---- --- --------- ------- ----- --------- ---- ----- --<br>------ -------- -- ------ -- ---- ------------,229288.20000000298,229287.80000001192,228909.112,228913.30000001192,228925.773,229292.556,,14,like
screen,html.Screen,2_3_1_0_1_15,2022-05-09T17:44:39.461Z,,,,,,,,,,,,,,,,,19,,,,,,,,,,,,,,379.9439999999886,,response,,,,17,G,,,,,,Space,keypress(Space),,,,instrumental,,,,-------------- --- -------- -------- ---------- ---- -------<br>-- ---------- -- --- ----- ------ ----- ---- science's ----<br>------- ------ -------- -- ------ ---------- ------ ---<br>------ -- -- ---- -- ---------- -------- ------ ---- -------<br>---- --- --------- ------- ----- --------- ---- ----- --<br>------ -------- -- ------ -- ---- ------------,229672.80000001192,229672.5,229275.887,229288.20000000298,229292.556,229675.916,,15,science's
screen,html.Screen,2_3_1_0_1_16,2022-05-09T17:44:39.853Z,,,,,,,,,,,,,,,,,19,,,,,,,,,,,,,,387.7840000029828,,response,,,,17,G,,,,,,Space,keypress(Space),,,,instrumental,,,,-------------- --- -------- -------- ---------- ---- -------<br>-- ---------- -- --- ----- ------ ----- ---- --------- best<br>------- ------ -------- -- ------ ---------- ------ ---<br>------ -- -- ---- -- ---------- -------- ------ ---- -------<br>---- --- --------- ------- ----- --------- ---- ----- --<br>------ -------- -- ------ -- ---- ------------,230064.10000000894,230063.70000000298,229659.201,229672.80000001192,229675.916,230075.9,,16,best
screen,html.Screen,2_3_1_0_1_17,2022-05-09T17:44:40.221Z,,,,,,,,,,,,,,,,,19,,,,,,,,,,,,,,355.90000001192675,,response,,,,17,G,,,,,,Space,keypress(Space),,,,instrumental,,,,-------------- --- -------- -------- ---------- ---- -------<br>-- ---------- -- --- ----- ------ ----- ---- --------- ----<br>current ------ -------- -- ------ ---------- ------ ---<br>------ -- -- ---- -- ---------- -------- ------ ---- -------<br>---- --- --------- ------- ----- --------- ---- ----- --<br>------ -------- -- ------ -- ---- ------------,230432,230431.80000001192,230059.207,230064.10000000894,230075.9,230442.506,,17,current
screen,html.Screen,2_3_1_0_1_18,2022-05-09T17:44:40.549Z,,,,,,,,,,,,,,,,,19,,,,,,,,,,,,,,317.8940000059665,,response,,,,17,G,,,,,,Space,keypress(Space),,,,instrumental,,,,-------------- --- -------- -------- ---------- ---- -------<br>-- ---------- -- --- ----- ------ ----- ---- --------- ----<br>------- models -------- -- ------ ---------- ------ ---<br>------ -- -- ---- -- ---------- -------- ------ ---- -------<br>---- --- --------- ------- ----- --------- ---- ----- --<br>------ -------- -- ------ -- ---- ------------,230760.70000000298,230760.40000000596,230425.754,230432.10000000894,230442.506,230775.903,,18,models
screen,html.Screen,2_3_1_0_1_19,2022-05-09T17:44:40.909Z,,,,,,,,,,,,,,,,,19,,,,,,,,,,,,,,343.9970000059693,,response,,,,17,G,,,,,,Space,keypress(Space),,,,instrumental,,,,"-------------- --- -------- -------- ---------- ---- -------<br>-- ---------- -- --- ----- ------ ----- ---- --------- ----<br>------- ------ predict, -- ------ ---------- ------ ---<br>------ -- -- ---- -- ---------- -------- ------ ---- -------<br>---- --- --------- ------- ----- --------- ---- ----- --<br>------ -------- -- ------ -- ---- ------------",231120.30000001192,231119.90000000596,230759.172,230760.70000000298,230775.903,231125.918,,19,"predict,"
screen,html.Screen,2_3_1_0_1_20,2022-05-09T17:44:41.269Z,,,,,,,,,,,,,,,,,19,,,,,,,,,,,,,,353.7820000029751,,response,,,,17,G,,,,,,Space,keypress(Space),,,,instrumental,,,,-------------- --- -------- -------- ---------- ---- -------<br>-- ---------- -- --- ----- ------ ----- ---- --------- ----<br>------- ------ -------- so ------ ---------- ------ ---<br>------ -- -- ---- -- ---------- -------- ------ ---- -------<br>---- --- --------- ------- ----- --------- ---- ----- --<br>------ -------- -- ------ -- ---- ------------,231480.10000000894,231479.70000000298,231109.22,231120.30000001192,231125.918,231492.452,,20,so
screen,html.Screen,2_3_1_0_1_21,2022-05-09T17:44:41.437Z,,,,,,,,,,,,,,,,,19,,,,,,,,,,,,,,155.44800000597024,,response,,,,17,G,,,,,,Space,keypress(Space),,,,instrumental,,,,-------------- --- -------- -------- ---------- ---- -------<br>-- ---------- -- --- ----- ------ ----- ---- --------- ----<br>------- ------ -------- -- stable ---------- ------ ---<br>------ -- -- ---- -- ---------- -------- ------ ---- -------<br>---- --- --------- ------- ----- --------- ---- ----- --<br>------ -------- -- ------ -- ---- ------------,231648.10000000894,231647.90000000596,231475.793,231480.10000000894,231492.452,231659.248,,21,stable
screen,html.Screen,2_3_1_0_1_22,2022-05-09T17:44:41.965Z,,,,,,,,,,,,,,,,,19,,,,,,,,,,,,,,516.8520000089484,,response,,,,17,G,,,,,,Space,keypress(Space),,,,instrumental,,,,-------------- --- -------- -------- ---------- ---- -------<br>-- ---------- -- --- ----- ------ ----- ---- --------- ----<br>------- ------ -------- -- ------ superheavy ------ ---<br>------ -- -- ---- -- ---------- -------- ------ ---- -------<br>---- --- --------- ------- ----- --------- ---- ----- --<br>------ -------- -- ------ -- ---- ------------,232176.5,232176.10000000894,231642.465,231648.20000000298,231659.248,232192.593,,22,superheavy
screen,html.Screen,2_3_1_0_1_23,2022-05-09T17:44:42.349Z,,,,,,,,,,,,,,,,,19,,,,,,,,,,,,,,367.5070000089472,,response,,,,17,G,,,,,,Space,keypress(Space),,,,instrumental,,,,-------------- --- -------- -------- ---------- ---- -------<br>-- ---------- -- --- ----- ------ ----- ---- --------- ----<br>------- ------ -------- -- ------ ---------- nuclei ---<br>------ -- -- ---- -- ---------- -------- ------ ---- -------<br>---- --- --------- ------- ----- --------- ---- ----- --<br>------ -------- -- ------ -- ---- ------------,232560.5,232560.10000000894,232175.887,232176.5,232192.593,232575.9,,23,nuclei
screen,html.Screen,2_3_1_0_1_24,2022-05-09T17:44:42.765Z,,,,,,,,,,,,,,,,,19,,,,,,,,,,,,,,400.7000000089465,,response,,,,17,G,,,,,,Space,keypress(Space),,,,instrumental,,,,-------------- --- -------- -------- ---------- ---- -------<br>-- ---------- -- --- ----- ------ ----- ---- --------- ----<br>------- ------ -------- -- ------ ---------- ------ are<br>------ -- -- ---- -- ---------- -------- ------ ---- -------<br>---- --- --------- ------- ----- --------- ---- ----- --<br>------ -------- -- ------ -- ---- ------------,232976.90000000596,232976.60000000894,232559.185,232560.5,232575.9,232992.603,,24,are
screen,html.Screen,2_3_1_0_1_25,2022-05-09T17:44:43.165Z,,,,,,,,,,,,,,,,,19,,,,,,,,,,,,,,383.29700000595767,,response,,,,17,G,,,,,,Space,keypress(Space),,,,instrumental,,,,-------------- --- -------- -------- ---------- ---- -------<br>-- ---------- -- --- ----- ------ ----- ---- --------- ----<br>------- ------ -------- -- ------ ---------- ------ ---<br>likely -- -- ---- -- ---------- -------- ------ ---- -------<br>---- --- --------- ------- ----- --------- ---- ----- --<br>------ -------- -- ------ -- ---- ------------,233376.20000000298,233375.90000000596,232975.902,232976.90000000596,232992.603,233392.647,,25,likely
screen,html.Screen,2_3_1_0_1_26,2022-05-09T17:44:43.534Z,,,,,,,,,,,,,,,,,19,,,,,,,,,,,,,,352.553000002983,,response,,,,17,G,,,,,,Space,keypress(Space),,,,instrumental,,,,-------------- --- -------- -------- ---------- ---- -------<br>-- ---------- -- --- ----- ------ ----- ---- --------- ----<br>------- ------ -------- -- ------ ---------- ------ ---<br>------ to -- ---- -- ---------- -------- ------ ---- -------<br>---- --- --------- ------- ----- --------- ---- ----- --<br>------ -------- -- ------ -- ---- ------------,233745.60000000894,233745.20000000298,233375.916,233376.30000001192,233392.647,233759.278,,26,to
screen,html.Screen,2_3_1_0_1_27,2022-05-09T17:44:43.910Z,,,,,,,,,,,,,,,,,19,,,,,,,,,,,,,,361.5220000119298,,response,,,,17,G,,,,,,Space,keypress(Space),,,,instrumental,,,,-------------- --- -------- -------- ---------- ---- -------<br>-- ---------- -- --- ----- ------ ----- ---- --------- ----<br>------- ------ -------- -- ------ ---------- ------ ---<br>------ -- be ---- -- ---------- -------- ------ ---- -------<br>---- --- --------- ------- ----- --------- ---- ----- --<br>------ -------- -- ------ -- ---- ------------,234121.20000000298,234120.80000001192,233742.447,233745.70000000298,233759.278,234125.949,,27,be
screen,html.Screen,2_3_1_0_1_28,2022-05-09T17:44:44.318Z,,,,,,,,,,,,,,,,,19,,,,,,,,,,,,,,403.15100000894745,,response,,,,17,G,,,,,,Space,keypress(Space),,,,instrumental,,,,-------------- --- -------- -------- ---------- ---- -------<br>-- ---------- -- --- ----- ------ ----- ---- --------- ----<br>------- ------ -------- -- ------ ---------- ------ ---<br>------ -- -- full -- ---------- -------- ------ ---- -------<br>---- --- --------- ------- ----- --------- ---- ----- --<br>------ -------- -- ------ -- ---- ------------,234529.5,234529.10000000894,234109.268,234121.20000000298,234125.949,234542.624,,28,full
screen,html.Screen,2_3_1_0_1_29,2022-05-09T17:44:44.686Z,,,,,,,,,,,,,,,,,19,,,,,,,,,,,,,,354.1760000119102,,response,,,,17,G,,,,,,Space,keypress(Space),,,,instrumental,,,,-------------- --- -------- -------- ---------- ---- -------<br>-- ---------- -- --- ----- ------ ----- ---- --------- ----<br>------- ------ -------- -- ------ ---------- ------ ---<br>------ -- -- ---- of ---------- -------- ------ ---- -------<br>---- --- --------- ------- ----- --------- ---- ----- --<br>------ -------- -- ------ -- ---- ------------,234897,234896.80000001192,234525.887,234529.5,234542.624,234909.296,,29,of
screen,html.Screen,2_3_1_0_1_30,2022-05-09T17:44:45.582Z,,,,,,,,,,,,,,,,,19,,,,,,,,,,,,,,883.5040000119188,,response,,,,17,G,,,,,,Space,keypress(Space),,,,instrumental,,,,-------------- --- -------- -------- ---------- ---- -------<br>-- ---------- -- --- ----- ------ ----- ---- --------- ----<br>------- ------ -------- -- ------ ---------- ------ ---<br>------ -- -- ---- -- surprises. -------- ------ ---- -------<br>---- --- --------- ------- ----- --------- ---- ----- --<br>------ -------- -- ------ -- ---- ------------,235793.10000000894,235792.80000001192,234892.493,234897.10000000894,234909.296,235809.319,,30,surprises.
screen,html.Screen,2_3_1_0_1_31,2022-05-09T17:44:46.046Z,,,,,,,,,,,,,,,,,19,,,,,,,,,,,,,,447.48100001193234,,response,,,,17,G,,,,,,Space,keypress(Space),,,,instrumental,,,,-------------- --- -------- -------- ---------- ---- -------<br>-- ---------- -- --- ----- ------ ----- ---- --------- ----<br>------- ------ -------- -- ------ ---------- ------ ---<br>------ -- -- ---- -- ---------- Chemists ------ ---- -------<br>---- --- --------- ------- ----- --------- ---- ----- --<br>------ -------- -- ------ -- ---- ------------,236257,236256.80000001192,235792.563,235793.20000000298,235809.319,236259.201,,31,Chemists
screen,html.Screen,2_3_1_0_1_32,2022-05-09T17:44:46.341Z,,,,,,,,,,,,,,,,,19,,,,,,,,,,,,,,293.29899999999907,,response,,,,17,G,,,,,,Space,keypress(Space),,,,instrumental,,,,-------------- --- -------- -------- ---------- ---- -------<br>-- ---------- -- --- ----- ------ ----- ---- --------- ----<br>------- ------ -------- -- ------ ---------- ------ ---<br>------ -- -- ---- -- ---------- -------- cannot ---- -------<br>---- --- --------- ------- ----- --------- ---- ----- --<br>------ -------- -- ------ -- ---- ------------,236552.80000001192,236552.5,236242.615,236257.10000000894,236259.201,236559.172,,32,cannot
screen,html.Screen,2_3_1_0_1_33,2022-05-09T17:44:46.550Z,,,,,,,,,,,,,,,,,19,,,,,,,,,,,,,,201.52800000298885,,response,,,,17,G,,,,,,Space,keypress(Space),,,,instrumental,,,,-------------- --- -------- -------- ---------- ---- -------<br>-- ---------- -- --- ----- ------ ----- ---- --------- ----<br>------- ------ -------- -- ------ ---------- ------ ---<br>------ -- -- ---- -- ---------- -------- ------ even -------<br>---- --- --------- ------- ----- --------- ---- ----- --<br>------ -------- -- ------ -- ---- ------------,236761.10000000894,236760.70000000298,236542.634,236552.80000001192,236559.172,236776.022,,33,even
screen,html.Screen,2_3_1_0_1_34,2022-05-09T17:44:46.910Z,,,,,,,,,,,,,,,,,19,,,,,,,,,,,,,,344.678000002983,,response,,,,17,G,,,,,,Space,keypress(Space),,,,instrumental,,,,-------------- --- -------- -------- ---------- ---- -------<br>-- ---------- -- --- ----- ------ ----- ---- --------- ----<br>------- ------ -------- -- ------ ---------- ------ ---<br>------ -- -- ---- -- ---------- -------- ------ ---- predict<br>---- --- --------- ------- ----- --------- ---- ----- --<br>------ -------- -- ------ -- ---- ------------,237121,237120.70000000298,236759.315,236761.10000000894,236776.022,237125.984,,34,predict
screen,html.Screen,2_3_1_0_1_35,2022-05-09T17:44:47.286Z,,,,,,,,,,,,,,,,,19,,,,,,,,,,,,,,370.51600000000326,,response,,,,17,G,,,,,,Space,keypress(Space),,,,instrumental,,,,-------------- --- -------- -------- ---------- ---- -------<br>-- ---------- -- --- ----- ------ ----- ---- --------- ----<br>------- ------ -------- -- ------ ---------- ------ ---<br>------ -- -- ---- -- ---------- -------- ------ ---- -------<br>with --- --------- ------- ----- --------- ---- ----- --<br>------ -------- -- ------ -- ---- ------------,237497,237496.5,237109.3,237121.10000000894,237125.984,237509.306,,35,with
screen,html.Screen,2_3_1_0_1_36,2022-05-09T17:44:47.653Z,,,,,,,,,,,,,,,,,19,,,,,,,,,,,,,,354.59400000594906,,response,,,,17,G,,,,,,Space,keypress(Space),,,,instrumental,,,,-------------- --- -------- -------- ---------- ---- -------<br>-- ---------- -- --- ----- ------ ----- ---- --------- ----<br>------- ------ -------- -- ------ ---------- ------ ---<br>------ -- -- ---- -- ---------- -------- ------ ---- -------<br>---- any --------- ------- ----- --------- ---- ----- --<br>------ -------- -- ------ -- ---- ------------,237864.10000000894,237863.90000000596,237492.505,237497,237509.306,237876.082,,36,any
screen,html.Screen,2_3_1_0_1_37,2022-05-09T17:44:48.005Z,,,,,,,,,,,,,,,,,19,,,,,,,,,,,,,,339.8180000059656,,response,,,,17,G,,,,,,Space,keypress(Space),,,,instrumental,,,,-------------- --- -------- -------- ---------- ---- -------<br>-- ---------- -- --- ----- ------ ----- ---- --------- ----<br>------- ------ -------- -- ------ ---------- ------ ---<br>------ -- -- ---- -- ---------- -------- ------ ---- -------<br>---- --- certainty ------- ----- --------- ---- ----- --<br>------ -------- -- ------ -- ---- ------------,238216.20000000298,238215.90000000596,237859.292,237864.20000000298,237876.082,238225.939,,37,certainty
screen,html.Screen,2_3_1_0_1_38,2022-05-09T17:44:48.406Z,,,,,,,,,,,,,,,,,19,,,,,,,,,,,,,,390.8610000119079,,response,,,,17,G,,,,,,Space,keypress(Space),,,,instrumental,,,,-------------- --- -------- -------- ---------- ---- -------<br>-- ---------- -- --- ----- ------ ----- ---- --------- ----<br>------- ------ -------- -- ------ ---------- ------ ---<br>------ -- -- ---- -- ---------- -------- ------ ---- -------<br>---- --- --------- whether ----- --------- ---- ----- --<br>------ -------- -- ------ -- ---- ------------,238617.20000000298,238616.80000001192,238209.314,238216.30000001192,238225.939,238626.008,,38,whether
