sender,sender_type,sender_id,timestamp,meta,,Blues,Classical,Country,Dance,Electronic,Folk,Gospel,Hip-Hop,Jazz,Latin,Musical/Film,New-age,Pop,Prolific_id,Provo_ID,R&B,Rap,Reggae,Religious,Rock,Soul,Swing,Traditional,age,artist_name,correct,correctResponse,distraction,duration,education,ended_on,familiarity,gender,headphone_check_performance,item,list,music_frequency,offensiveness,pleasantness,position_correct,preference,response,response_action,snippet_file,song_name,song_rating,sound,stimulus_1,stimulus_2,stimulus_3,text,time_commit,time_end,time_render,time_run,time_show,time_switch,url,word,word_ID
Prolific ID,html.Form,0,2022-05-02T11:24:05.907Z,"{""labjs_version"":""20.2.2"",""labjs_build"":{""flavor"":""production"",""commit"":""a25486e0c714a0ae2ce03ff94b7bb6896854dcfa""},""location"":""https://run.pavlovia.org/mvasilev/prolific3_music_f/"",""userAgent"":""Mozilla/5.0 (Windows NT 10.0; Win64; x64) AppleWebKit/537.36 (KHTML, like Gecko) Chrome/100.0.4896.127 Safari/537.36"",""platform"":""Win32"",""language"":""en-GB"",""locale"":""en-GB"",""timeZone"":""Europe/London"",""timezoneOffset"":-60,""screen_width"":1536,""screen_height"":864,""scroll_width"":1536,""scroll_height"":706,""window_innerWidth"":1536,""window_innerHeight"":754,""devicePixelRatio"":1.25}",,,,,,,,,,,,,,,5d4b03ce99e63300153a42d6,,,,,,,,,,,,,,,7875.130000000093,,form submission,,,,,,,,,,,,,,,,,,,,,12479.800000000047,12479.600000000093,4587.669,4591.899999999907,4604.47,12487.285,{},,
Introduction,html.Screen,1_0,2022-05-02T11:24:08.983Z,,,,,,,,,,,,,,,,,,,,,,,,,,,,,,,3066.3150000000933,,response,,,,,,,,,,,continue,click button,,,,,,,,,15555.399999999907,15553.600000000093,12470.623,12480,12487.285,15570.553,,,
Volume calibration,html.Screen,1_1,2022-05-02T11:24:27.793Z,,,,,,,,,,,,,,,,,,,,,,,,,,,,,,,18792.447,,response,,,,,,,,,,,continue,click button,,,,,,,,,34364.89999999991,34363,15553.852,15555.600000000093,15570.553,34369.663,,,
Task instructions,html.Screen,1_2,2022-05-02T11:24:32.661Z,,,,,,,,,,,,,,,,,,,,,,,,,,,,,,,4862.736999999906,,response,,,,,,,,,,,continue,click button,,,,,,,,,39233.19999999995,39232.39999999991,34353.056,34365,34369.663,39236.117,,,
Sounds,html.Screen,1_3_0_0,2022-05-02T11:24:36.898Z,,,,,,,,,,,,,,,,,,,,,,,,,,,,,,,4249.900999999998,,timeout,,,,,,,,,2,,,,,,,,I,S,O,,43470.80000000005,43469.368,39219.482,39233.30000000005,39236.117,43486.018,,,
Judgement,html.Screen,1_3_0_1,2022-05-02T11:24:38.865Z,,,,,,,,,,,,,,,,,,,,,,,,,,,,true,2,,1950.8819999999105,,response,,,,,,,,,2,,2,click #choice-2,,,,,I,S,O,,45437.60000000009,45436.89999999991,43469.368,43470.80000000005,43486.018,45452.543,,,
Trial,flow.Sequence,1_3_0,2022-05-02T11:24:38.865Z,,,,,,,,,,,,,,,,,,,,,,,,,,,,,,,6200.7829999999085,,completion,,,,,,,,,2,,,,,,,,I,S,O,,45437.69999999995,45436.89999999991,39219.482,39233.30000000005,39236.117,45452.543,,,
Sounds,html.Screen,1_3_1_0,2022-05-02T11:24:43.114Z,,,,,,,,,,,,,,,,,,,,,,,,,,,,,,,4249.815000000002,,timeout,,,,,,,,,2,,,,,,,,O,S,I,,49686.60000000009,49685.779,45435.911,45437.89999999991,45452.543,49702.358,,,
Judgement,html.Screen,1_3_1_1,2022-05-02T11:24:43.941Z,,,,,,,,,,,,,,,,,,,,,,,,,,,,true,2,,810.6419999999998,,response,,,,,,,,,2,,2,click #choice-2,,,,,O,S,I,,50513.80000000005,50513,49685.779,49686.69999999995,49702.358,50518.981,,,
Trial,flow.Sequence,1_3_1,2022-05-02T11:24:43.941Z,,,,,,,,,,,,,,,,,,,,,,,,,,,,,,,5060.457000000002,,completion,,,,,,,,,2,,,,,,,,O,S,I,,50513.89999999991,50513,45435.911,45437.80000000005,45452.543,50518.981,,,
Sounds,html.Screen,1_3_2_0,2022-05-02T11:24:48.181Z,,,,,,,,,,,,,,,,,,,,,,,,,,,,,,,4249.817999999999,,timeout,,,,,,,,,1,,,,,,,,S,I,O,,54753.69999999995,54752.187,50502.294,50513.89999999991,50518.981,54768.799,,,
Judgement,html.Screen,1_3_2_1,2022-05-02T11:24:48.959Z,,,,,,,,,,,,,,,,,,,,,,,,,,,,true,1,,761.6009999999078,,response,,,,,,,,,1,,1,click #choice-1,,,,,S,I,O,,55531,55530.39999999991,54752.187,54753.80000000005,54768.799,55535.408,,,
Trial,flow.Sequence,1_3_2,2022-05-02T11:24:48.959Z,,,,,,,,,,,,,,,,,,,,,,,,,,,,,,,5011.418999999907,,completion,,,,,,,,,1,,,,,,,,S,I,O,,55531.19999999995,55530.39999999991,50502.294,50513.89999999991,50518.981,55535.408,,,
Sounds,html.Screen,1_3_3_0,2022-05-02T11:24:53.197Z,,,,,,,,,,,,,,,,,,,,,,,,,,,,,,,4249.914999999994,,timeout,,,,,,,,,3,,,,,,,,O,I,S,,59769.10000000009,59768.56,55518.822,55531.19999999995,55535.408,59785.323,,,
Judgement,html.Screen,1_3_3_1,2022-05-02T11:24:53.937Z,,,,,,,,,,,,,,,,,,,,,,,,,,,,true,3,,723.2770000000965,,response,,,,,,,,,3,,3,click #choice-3,,,,,O,I,S,,60509.5,60508.60000000009,59768.56,59769.10000000009,59785.323,60518.607,,,
Trial,flow.Sequence,1_3_3,2022-05-02T11:24:53.937Z,,,,,,,,,,,,,,,,,,,,,,,,,,,,,,,4973.19200000009,,completion,,,,,,,,,3,,,,,,,,O,I,S,,60509.60000000009,60508.60000000009,55518.822,55531.19999999995,55535.408,60518.607,,,
Sounds,html.Screen,1_3_4_0,2022-05-02T11:24:58.180Z,,,,,,,,,,,,,,,,,,,,,,,,,,,,,,,4249.773999999998,,timeout,,,,,,,,,1,,,,,,,,S,O,I,,64752.89999999991,64751.684,60502.14,60509.60000000009,60518.607,64768.381,,,
Judgement,html.Screen,1_3_4_1,2022-05-02T11:24:58.949Z,,,,,,,,,,,,,,,,,,,,,,,,,,,,true,1,,752.4190000000453,,response,,,,,,,,,1,,1,click #choice-1,,,,,S,O,I,,65521.60000000009,65520.80000000005,64751.684,64752.89999999991,64768.381,65535.122,,,
Trial,flow.Sequence,1_3_4,2022-05-02T11:24:58.949Z,,,,,,,,,,,,,,,,,,,,,,,,,,,,,,,5002.193000000043,,completion,,,,,,,,,1,,,,,,,,S,O,I,,65521.80000000005,65520.80000000005,60502.14,60509.60000000009,60518.607,65535.122,,,
Sounds,html.Screen,1_3_5_0,2022-05-02T11:25:03.197Z,,,,,,,,,,,,,,,,,,,,,,,,,,,,,,,4249.7179999999935,,timeout,,,,,,,,,3,,,,,,,,I,O,S,,69768.8999999999,69768.163,65518.383,65521.89999999991,65535.122,69784.84,,,
Judgement,html.Screen,1_3_5_1,2022-05-02T11:25:03.823Z,,,,,,,,,,,,,,,,,,,,,,,,,,,,true,3,,610.3599999999569,,response,,,,,,,,,3,,3,click #choice-3,,,,,I,O,S,,70395.8999999999,70395.19999999995,69768.163,69769.1000000001,69784.84,70401.439,,,
Trial,flow.Sequence,1_3_5,2022-05-02T11:25:03.824Z,,,,,,,,,,,,,,,,,,,,,,,,,,,,,,,4860.07799999995,,completion,,,,,,,,,3,,,,,,,,I,O,S,,70395.8999999999,70395.19999999995,65518.383,65521.89999999991,65535.122,70401.439,,,
Task,flow.Loop,1_3,2022-05-02T11:25:03.826Z,,,,,,,,,,,,,,,,,,,,,,,,,,,,,,,31159.082999999955,,completion,,,1,,,,,,,,,,,,,,,,,,70398.30000000005,70395.19999999995,39219.482,39233.30000000005,39236.117,70401.439,,,
Trap,html.Screen,1_4,2022-05-02T11:25:03.826Z,,,,,,,,,,,,,,,,,,,,,,,,,,,,,,,NaN,,skipped,,,,,,,,,,,,,,,,,,,,,70398.80000000005,70395.19999999995,,70398.80000000005,,70401.439,,,
Thanks,html.Screen,1_5,2022-05-02T11:25:06.675Z,,,,,,,,,,,,,,,,,,,,,,,,,,,,,,,2845.760999999955,,response,,,,,,,,,,,continue,click button,,,,,,,,,73247.69999999995,73247.19999999995,70384.846,70398.80000000005,70401.439,75501.209,,,
Headphone screening,flow.Sequence,1,2022-05-02T11:25:06.675Z,,,,,,,,,,,,,,,,,,,,,,,,,,,,,,,60759.91499999995,,completion,,,,,,,,,,,,,,,,,,,,,73247.80000000005,73247.19999999995,12470.623,12480,12487.285,75501.209,,,
Instructions,html.Page,2_0,2022-05-02T11:25:25.155Z,,,,,,,,,,,,,,,,,,,,,,,,,,,,,,,16225.99099999995,,form submission,,,,,,,,,,,,,,,,,,,,,91727.30000000005,91727.19999999995,75484.513,75496.80000000005,75501.209,91733.881,,,
Holding screen,html.Screen,2_1_0_0,2022-05-02T11:25:35.145Z,,,,,,,,,,,,,,,,,,,,,,,,,,,,,,,9999.524000000005,,timeout,,,,,,,,,,,,,,,,,,,,,101717.19999999995,101716.758,91717.261,91727.3999999999,91733.881,101733.405,,,
screen,html.Screen,2_1_0_1_0,2022-05-02T11:25:35.758Z,,,,,,,,,,,,,,,,,53,,,,,,,,,,,,,,595.7949999999546,,response,,,,99,,,,,,,Space,keypress(Space),,,,,,,,When -- ----- -- ------ - ------- --- ----------<br>------------- ------ ------ ---- ---- ------- ----- -- ----<br>-------- ------- -- ---------- --- - --- ----- ----- ----<br>---- --- --- ----- --- ---- ---- ------- ----- ---- -------<br>--- --- -- ----- -- --- ---- -- --- ---- -- ------ ------<br>--- ----- -- ----,102330.30000000005,102329.19999999995,101716.758,101717.19999999995,101733.405,102333.37,,0,When
screen,html.Screen,2_1_0_1_1,2022-05-02T11:25:36.203Z,,,,,,,,,,,,,,,,,53,,,,,,,,,,,,,,441.13000000000466,,response,,,,99,,,,,,,Space,keypress(Space),,,,,,,,---- it ----- -- ------ - ------- --- ----------<br>------------- ------ ------ ---- ---- ------- ----- -- ----<br>-------- ------- -- ---------- --- - --- ----- ----- ----<br>---- --- --- ----- --- ---- ---- ------- ----- ---- -------<br>--- --- -- ----- -- --- ---- -- --- ---- -- ------ ------<br>--- ----- -- ----,102775.1000000001,102774.5,102317.059,102330.3999999999,102333.37,102783.44,,1,it
screen,html.Screen,2_1_0_1_2,2022-05-02T11:25:36.580Z,,,,,,,,,,,,,,,,,53,,,,,,,,,,,,,,368.36000000004424,,response,,,,99,,,,,,,Space,keypress(Space),,,,,,,,---- -- comes -- ------ - ------- --- ----------<br>------------- ------ ------ ---- ---- ------- ----- -- ----<br>-------- ------- -- ---------- --- - --- ----- ----- ----<br>---- --- --- ----- --- ---- ---- ------- ----- ---- -------<br>--- --- -- ----- -- --- ---- -- --- ---- -- ------ ------<br>--- ----- -- ----,103152.19999999995,103151.80000000005,102766.83,102775.19999999995,102783.44,103166.76,,2,comes
screen,html.Screen,2_1_0_1_3,2022-05-02T11:25:36.868Z,,,,,,,,,,,,,,,,,53,,,,,,,,,,,,,,273.1399999999121,,response,,,,99,,,,,,,Space,keypress(Space),,,,,,,,---- -- ----- to ------ - ------- --- ----------<br>------------- ------ ------ ---- ---- ------- ----- -- ----<br>-------- ------- -- ---------- --- - --- ----- ----- ----<br>---- --- --- ----- --- ---- ---- ------- ----- ---- -------<br>--- --- -- ----- -- --- ---- -- --- ---- -- ------ ------<br>--- ----- -- ----,103440.5,103439.8999999999,103150.053,103152.6000000001,103166.76,103450.383,,3,to
screen,html.Screen,2_1_0_1_4,2022-05-02T11:25:37.275Z,,,,,,,,,,,,,,,,,53,,,,,,,,,,,,,,397.2170000000915,,response,,,,99,,,,,,,Space,keypress(Space),,,,,,,,---- -- ----- -- having - ------- --- ----------<br>------------- ------ ------ ---- ---- ------- ----- -- ----<br>-------- ------- -- ---------- --- - --- ----- ----- ----<br>---- --- --- ----- --- ---- ---- ------- ----- ---- -------<br>--- --- -- ----- -- --- ---- -- --- ---- -- ------ ------<br>--- ----- -- ----,103848.1000000001,103847.6000000001,103433.48,103440.6000000001,103450.383,103850.03,,4,having
screen,html.Screen,2_1_0_1_5,2022-05-02T11:25:37.593Z,,,,,,,,,,,,,,,,,53,,,,,,,,,,,,,,315.0700000000943,,response,,,,99,,,,,,,Space,keypress(Space),,,,,,,,---- -- ----- -- ------ a ------- --- ----------<br>------------- ------ ------ ---- ---- ------- ----- -- ----<br>-------- ------- -- ---------- --- - --- ----- ----- ----<br>---- --- --- ----- --- ---- ---- ------- ----- ---- -------<br>--- --- -- ----- -- --- ---- -- --- ---- -- ------ ------<br>--- ----- -- ----,104165.6000000001,104165.1000000001,103833.655,103848.19999999995,103850.03,104190.529,,5,a
screen,html.Screen,2_1_0_1_6,2022-05-02T11:25:37.806Z,,,,,,,,,,,,,,,,,53,,,,,,,,,,,,,,187.57100000009814,,response,,,,99,,,,,,,Space,keypress(Space),,,,,,,,---- -- ----- -- ------ - lasting --- ----------<br>------------- ------ ------ ---- ---- ------- ----- -- ----<br>-------- ------- -- ---------- --- - --- ----- ----- ----<br>---- --- --- ----- --- ---- ---- ------- ----- ---- -------<br>--- --- -- ----- -- --- ---- -- --- ---- -- ------ ------<br>--- ----- -- ----,104378.5,104378.1000000001,104150.357,104165.69999999995,104190.529,104383.486,,6,lasting
screen,html.Screen,2_1_0_1_7,2022-05-02T11:25:38.258Z,,,,,,,,,,,,,,,,,53,,,,,,,,,,,,,,447.1140000000887,,response,,,,99,,,,,,,Space,keypress(Space),,,,,,,,---- -- ----- -- ------ - ------- and ----------<br>------------- ------ ------ ---- ---- ------- ----- -- ----<br>-------- ------- -- ---------- --- - --- ----- ----- ----<br>---- --- --- ----- --- ---- ---- ------- ----- ---- -------<br>--- --- -- ----- -- --- ---- -- --- ---- -- ------ ------<br>--- ----- -- ----,104831.1000000001,104830.6000000001,104366.98,104378.69999999995,104383.486,104833.274,,7,and
screen,html.Screen,2_1_0_1_8,2022-05-02T11:25:38.611Z,,,,,,,,,,,,,,,,,53,,,,,,,,,,,,,,349.5260000000417,,response,,,,99,,,,,,,Space,keypress(Space),,,,,,,,---- -- ----- -- ------ - ------- --- fulfilling<br>------------- ------ ------ ---- ---- ------- ----- -- ----<br>-------- ------- -- ---------- --- - --- ----- ----- ----<br>---- --- --- ----- --- ---- ---- ------- ----- ---- -------<br>--- --- -- ----- -- --- ---- -- --- ---- -- ------ ------<br>--- ----- -- ----,105183.30000000005,105182.80000000005,104816.61,104831.19999999995,104833.274,105199.95,,8,fulfilling
screen,html.Screen,2_1_0_1_9,2022-05-02T11:25:39.000Z,,,,,,,,,,,,,,,,,53,,,,,,,,,,,,,,372.24999999995634,,response,,,,99,,,,,,,Space,keypress(Space),,,,,,,,"---- -- ----- -- ------ - ------- --- ----------<br>relationship, ------ ------ ---- ---- ------- ----- -- ----<br>-------- ------- -- ---------- --- - --- ----- ----- ----<br>---- --- --- ----- --- ---- ---- ------- ----- ---- -------<br>--- --- -- ----- -- --- ---- -- --- ---- -- ------ ------<br>--- ----- -- ----",105572.5,105572.19999999995,105183.724,105183.5,105199.95,105583.261,,9,"relationship,"
screen,html.Screen,2_1_0_1_10,2022-05-02T11:25:39.380Z,,,,,,,,,,,,,,,,,53,,,,,,,,,,,,,,369.03900000004796,,response,,,,99,,,,,,,Space,keypress(Space),,,,,,,,---- -- ----- -- ------ - ------- --- ----------<br>------------- common ------ ---- ---- ------- ----- -- ----<br>-------- ------- -- ---------- --- - --- ----- ----- ----<br>---- --- --- ----- --- ---- ---- ------- ----- ---- -------<br>--- --- -- ----- -- --- ---- -- --- ---- -- ------ ------<br>--- ----- -- ----,105952.80000000005,105952.30000000005,105566.649,105572.5,105583.261,105966.675,,10,common
screen,html.Screen,2_1_0_1_11,2022-05-02T11:25:39.811Z,,,,,,,,,,,,,,,,,53,,,,,,,,,,,,,,416.9250000000902,,response,,,,99,,,,,,,Space,keypress(Space),,,,,,,,---- -- ----- -- ------ - ------- --- ----------<br>------------- ------ wisdom ---- ---- ------- ----- -- ----<br>-------- ------- -- ---------- --- - --- ----- ----- ----<br>---- --- --- ----- --- ---- ---- ------- ----- ---- -------<br>--- --- -- ----- -- --- ---- -- --- ---- -- ------ ------<br>--- ----- -- ----,106384.1000000001,106383.6000000001,105950.155,105952.8999999999,105966.675,106399.959,,11,wisdom
screen,html.Screen,2_1_0_1_12,2022-05-02T11:25:40.193Z,,,,,,,,,,,,,,,,,53,,,,,,,,,,,,,,365.341000000044,,response,,,,99,,,,,,,Space,keypress(Space),,,,,,,,---- -- ----- -- ------ - ------- --- ----------<br>------------- ------ ------ says ---- ------- ----- -- ----<br>-------- ------- -- ---------- --- - --- ----- ----- ----<br>---- --- --- ----- --- ---- ---- ------- ----- ---- -------<br>--- --- -- ----- -- --- ---- -- --- ---- -- ------ ------<br>--- ----- -- ----,106765.8999999999,106765.30000000005,106383.346,106384.1000000001,106399.959,106783.301,,12,says
screen,html.Screen,2_1_0_1_13,2022-05-02T11:25:40.615Z,,,,,,,,,,,,,,,,,53,,,,,,,,,,,,,,404.2990000000864,,response,,,,99,,,,,,,Space,keypress(Space),,,,,,,,---- -- ----- -- ------ - ------- --- ----------<br>------------- ------ ------ ---- that ------- ----- -- ----<br>-------- ------- -- ---------- --- - --- ----- ----- ----<br>---- --- --- ----- --- ---- ---- ------- ----- ---- -------<br>--- --- -- ----- -- --- ---- -- --- ---- -- ------ ------<br>--- ----- -- ----,107188,107187.6000000001,106750.274,106766,106783.301,107200.218,,13,that
screen,html.Screen,2_1_0_1_14,2022-05-02T11:25:40.954Z,,,,,,,,,,,,,,,,,53,,,,,,,,,,,,,,325.88200000009965,,response,,,,99,,,,,,,Space,keypress(Space),,,,,,,,---- -- ----- -- ------ - ------- --- ----------<br>------------- ------ ------ ---- ---- feeling ----- -- ----<br>-------- ------- -- ---------- --- - --- ----- ----- ----<br>---- --- --- ----- --- ---- ---- ------- ----- ---- -------<br>--- --- -- ----- -- --- ---- -- --- ---- -- ------ ------<br>--- ----- -- ----,107526.5,107526.1000000001,107183.193,107188.1000000001,107200.218,107533.165,,14,feeling
screen,html.Screen,2_1_0_1_15,2022-05-02T11:25:41.304Z,,,,,,,,,,,,,,,,,53,,,,,,,,,,,,,,343.53499999995984,,response,,,,99,,,,,,,Space,keypress(Space),,,,,,,,---- -- ----- -- ------ - ------- --- ----------<br>------------- ------ ------ ---- ---- ------- close -- ----<br>-------- ------- -- ---------- --- - --- ----- ----- ----<br>---- --- --- ----- --- ---- ---- ------- ----- ---- -------<br>--- --- -- ----- -- --- ---- -- --- ---- -- ------ ------<br>--- ----- -- ----,107877.19999999995,107876.69999999995,107516.51,107526.6000000001,107533.165,107883.11,,15,close
screen,html.Screen,2_1_0_1_16,2022-05-02T11:25:41.614Z,,,,,,,,,,,,,,,,,53,,,,,,,,,,,,,,302.7899999999063,,response,,,,99,,,,,,,Space,keypress(Space),,,,,,,,---- -- ----- -- ------ - ------- --- ----------<br>------------- ------ ------ ---- ---- ------- ----- to ----<br>-------- ------- -- ---------- --- - --- ----- ----- ----<br>---- --- --- ----- --- ---- ---- ------- ----- ---- -------<br>--- --- -- ----- -- --- ---- -- --- ---- -- ------ ------<br>--- ----- -- ----,108186.3999999999,108185.8999999999,107866.931,107877.30000000005,107883.11,108199.8,,16,to
screen,html.Screen,2_1_0_1_17,2022-05-02T11:25:41.966Z,,,,,,,,,,,,,,,,,53,,,,,,,,,,,,,,338.00000000004366,,response,,,,99,,,,,,,Space,keypress(Space),,,,,,,,---- -- ----- -- ------ - ------- --- ----------<br>------------- ------ ------ ---- ---- ------- ----- -- your<br>-------- ------- -- ---------- --- - --- ----- ----- ----<br>---- --- --- ----- --- ---- ---- ------- ----- ---- -------<br>--- --- -- ----- -- --- ---- -- --- ---- -- ------ ------<br>--- ----- -- ----,108538.30000000005,108537.80000000005,108183.543,108186.6000000001,108199.8,108549.81,,17,your
screen,html.Screen,2_1_0_1_18,2022-05-02T11:25:42.358Z,,,,,,,,,,,,,,,,,53,,,,,,,,,,,,,,380.1900000000023,,response,,,,99,,,,,,,Space,keypress(Space),,,,,,,,---- -- ----- -- ------ - ------- --- ----------<br>------------- ------ ------ ---- ---- ------- ----- -- ----<br>romantic ------- -- ---------- --- - --- ----- ----- ----<br>---- --- --- ----- --- ---- ---- ------- ----- ---- -------<br>--- --- -- ----- -- --- ---- -- --- ---- -- ------ ------<br>--- ----- -- ----,108930.3999999999,108930,108533.533,108538.3999999999,108549.81,108933.083,,18,romantic
screen,html.Screen,2_1_0_1_19,2022-05-02T11:25:42.786Z,,,,,,,,,,,,,,,,,53,,,,,,,,,,,,,,424.71700000004785,,response,,,,99,,,,,,,Space,keypress(Space),,,,,,,,---- -- ----- -- ------ - ------- --- ----------<br>------------- ------ ------ ---- ---- ------- ----- -- ----<br>-------- partner -- ---------- --- - --- ----- ----- ----<br>---- --- --- ----- --- ---- ---- ------- ----- ---- -------<br>--- --- -- ----- -- --- ---- -- --- ---- -- ------ ------<br>--- ----- -- ----,109358.5,109357.80000000005,108916.861,108930.3999999999,108933.083,109367.072,,19,partner
screen,html.Screen,2_1_0_1_20,2022-05-02T11:25:43.147Z,,,,,,,,,,,,,,,,,53,,,,,,,,,,,,,,352.32799999990675,,response,,,,99,,,,,,,Space,keypress(Space),,,,,,,,---- -- ----- -- ------ - ------- --- ----------<br>------------- ------ ------ ---- ---- ------- ----- -- ----<br>-------- ------- is ---------- --- - --- ----- ----- ----<br>---- --- --- ----- --- ---- ---- ------- ----- ---- -------<br>--- --- -- ----- -- --- ---- -- --- ---- -- ------ ------<br>--- ----- -- ----,109720,109719.3999999999,109349.882,109358.69999999995,109367.072,109733.698,,20,is
screen,html.Screen,2_1_0_1_21,2022-05-02T11:25:43.512Z,,,,,,,,,,,,,,,,,53,,,,,,,,,,,,,,350.5019999999495,,response,,,,99,,,,,,,Space,keypress(Space),,,,,,,,---- -- ----- -- ------ - ------- --- ----------<br>------------- ------ ------ ---- ---- ------- ----- -- ----<br>-------- ------- -- paramount. --- - --- ----- ----- ----<br>---- --- --- ----- --- ---- ---- ------- ----- ---- -------<br>--- --- -- ----- -- --- ---- -- --- ---- -- ------ ------<br>--- ----- -- ----,110084.5,110084.19999999995,109716.804,109720.1000000001,109733.698,110099.834,,21,paramount.
screen,html.Screen,2_1_0_1_22,2022-05-02T11:25:43.978Z,,,,,,,,,,,,,,,,,53,,,,,,,,,,,,,,450.466000000044,,response,,,,99,,,,,,,Space,keypress(Space),,,,,,,,---- -- ----- -- ------ - ------- --- ----------<br>------------- ------ ------ ---- ---- ------- ----- -- ----<br>-------- ------- -- ---------- But - --- ----- ----- ----<br>---- --- --- ----- --- ---- ---- ------- ----- ---- -------<br>--- --- -- ----- -- --- ---- -- --- ---- -- ------ ------<br>--- ----- -- ----,110551,110550.30000000005,110083.18,110084.69999999995,110099.834,110566.421,,22,But
screen,html.Screen,2_1_0_1_23,2022-05-02T11:25:44.344Z,,,,,,,,,,,,,,,,,53,,,,,,,,,,,,,,349.9789999999048,,response,,,,99,,,,,,,Space,keypress(Space),,,,,,,,---- -- ----- -- ------ - ------- --- ----------<br>------------- ------ ------ ---- ---- ------- ----- -- ----<br>-------- ------- -- ---------- --- a --- ----- ----- ----<br>---- --- --- ----- --- ---- ---- ------- ----- ---- -------<br>--- --- -- ----- -- --- ---- -- --- ---- -- ------ ------<br>--- ----- -- ----,110916.8999999999,110916.3999999999,110550.108,110551,110566.421,110933.085,,23,a
screen,html.Screen,2_1_0_1_24,2022-05-02T11:25:44.569Z,,,,,,,,,,,,,,,,,53,,,,,,,,,,,,,,208.11499999994703,,response,,,,99,,,,,,,Space,keypress(Space),,,,,,,,---- -- ----- -- ------ - ------- --- ----------<br>------------- ------ ------ ---- ---- ------- ----- -- ----<br>-------- ------- -- ---------- --- - new ----- ----- ----<br>---- --- --- ----- --- ---- ---- ------- ----- ---- -------<br>--- --- -- ----- -- --- ---- -- --- ---- -- ------ ------<br>--- ----- -- ----,111141.6000000001,111141.19999999995,110916.957,110917,110933.085,111150.057,,24,new
screen,html.Screen,2_1_0_1_25,2022-05-02T11:25:44.920Z,,,,,,,,,,,,,,,,,53,,,,,,,,,,,,,,342.14299999995274,,response,,,,99,,,,,,,Space,keypress(Space),,,,,,,,---- -- ----- -- ------ - ------- --- ----------<br>------------- ------ ------ ---- ---- ------- ----- -- ----<br>-------- ------- -- ---------- --- - --- study ----- ----<br>---- --- --- ----- --- ---- ---- ------- ----- ---- -------<br>--- --- -- ----- -- --- ---- -- --- ---- -- ------ ------<br>--- ----- -- ----,111492.69999999995,111492.19999999995,111133.145,111141.69999999995,111150.057,111499.952,,25,study
screen,html.Screen,2_1_0_1_26,2022-05-02T11:25:45.240Z,,,,,,,,,,,,,,,,,53,,,,,,,,,,,,,,312.4479999999021,,response,,,,99,,,,,,,Space,keypress(Space),,,,,,,,---- -- ----- -- ------ - ------- --- ----------<br>------------- ------ ------ ---- ---- ------- ----- -- ----<br>-------- ------- -- ---------- --- - --- ----- finds ----<br>---- --- --- ----- --- ---- ---- ------- ----- ---- -------<br>--- --- -- ----- -- --- ---- -- --- ---- -- ------ ------<br>--- ----- -- ----,111812.80000000005,111812.3999999999,111483.148,111492.80000000005,111499.952,111816.289,,26,finds
screen,html.Screen,2_1_0_1_27,2022-05-02T11:25:45.579Z,,,,,,,,,,,,,,,,,53,,,,,,,,,,,,,,334.61099999990256,,response,,,,99,,,,,,,Space,keypress(Space),,,,,,,,---- -- ----- -- ------ - ------- --- ----------<br>------------- ------ ------ ---- ---- ------- ----- -- ----<br>-------- ------- -- ---------- --- - --- ----- ----- that<br>---- --- --- ----- --- ---- ---- ------- ----- ---- -------<br>--- --- -- ----- -- --- ---- -- --- ---- -- ------ ------<br>--- ----- -- ----,112151.5,112150.8999999999,111799.984,111812.8999999999,111816.289,112166.329,,27,that
screen,html.Screen,2_1_0_1_28,2022-05-02T11:25:45.910Z,,,,,,,,,,,,,,,,,53,,,,,,,,,,,,,,316.07099999990896,,response,,,,99,,,,,,,Space,keypress(Space),,,,,,,,---- -- ----- -- ------ - ------- --- ----------<br>------------- ------ ------ ---- ---- ------- ----- -- ----<br>-------- ------- -- ---------- --- - --- ----- ----- ----<br>it's --- --- ----- --- ---- ---- ------- ----- ---- -------<br>--- --- -- ----- -- --- ---- -- --- ---- -- ------ ------<br>--- ----- -- ----,112482.80000000005,112482.3999999999,112150.004,112151.5,112166.329,112499.659,,28,it's
screen,html.Screen,2_1_0_1_29,2022-05-02T11:25:46.260Z,,,,,,,,,,,,,,,,,53,,,,,,,,,,,,,,332.7409999999072,,response,,,,99,,,,,,,Space,keypress(Space),,,,,,,,---- -- ----- -- ------ - ------- --- ----------<br>------------- ------ ------ ---- ---- ------- ----- -- ----<br>-------- ------- -- ---------- --- - --- ----- ----- ----<br>---- not --- ----- --- ---- ---- ------- ----- ---- -------<br>--- --- -- ----- -- --- ---- -- --- ---- -- ------ ------<br>--- ----- -- ----,112832.8999999999,112832.3999999999,112483.262,112482.8999999999,112499.659,112849.726,,29,not
screen,html.Screen,2_1_0_1_30,2022-05-02T11:25:46.551Z,,,,,,,,,,,,,,,,,53,,,,,,,,,,,,,,273.57400000005146,,response,,,,99,,,,,,,Space,keypress(Space),,,,,,,,---- -- ----- -- ------ - ------- --- ----------<br>------------- ------ ------ ---- ---- ------- ----- -- ----<br>-------- ------- -- ---------- --- - --- ----- ----- ----<br>---- --- how ----- --- ---- ---- ------- ----- ---- -------<br>--- --- -- ----- -- --- ---- -- --- ---- -- ------ ------<br>--- ----- -- ----,113123.80000000005,113123.30000000005,112832.989,112833,112849.726,113132.959,,30,how
screen,html.Screen,2_1_0_1_31,2022-05-02T11:25:46.777Z,,,,,,,,,,,,,,,,,53,,,,,,,,,,,,,,216.341000000044,,response,,,,99,,,,,,,Space,keypress(Space),,,,,,,,---- -- ----- -- ------ - ------- --- ----------<br>------------- ------ ------ ---- ---- ------- ----- -- ----<br>-------- ------- -- ---------- --- - --- ----- ----- ----<br>---- --- --- close --- ---- ---- ------- ----- ---- -------<br>--- --- -- ----- -- --- ---- -- --- ---- -- ------ ------<br>--- ----- -- ----,113349.6000000001,113349.30000000005,113116.651,113123.80000000005,113132.959,113366.369,,31,close
screen,html.Screen,2_1_0_1_32,2022-05-02T11:25:47.037Z,,,,,,,,,,,,,,,,,53,,,,,,,,,,,,,,242.9310000000405,,response,,,,99,,,,,,,Space,keypress(Space),,,,,,,,---- -- ----- -- ------ - ------- --- ----------<br>------------- ------ ------ ---- ---- ------- ----- -- ----<br>-------- ------- -- ---------- --- - --- ----- ----- ----<br>---- --- --- ----- you ---- ---- ------- ----- ---- -------<br>--- --- -- ----- -- --- ---- -- --- ---- -- ------ ------<br>--- ----- -- ----,113609.80000000005,113609.30000000005,113349.651,113349.69999999995,113366.369,113616.397,,32,you
screen,html.Screen,2_1_0_1_33,2022-05-02T11:25:47.352Z,,,,,,,,,,,,,,,,,53,,,,,,,,,,,,,,307.90300000004936,,response,,,,99,,,,,,,Space,keypress(Space),,,,,,,,---- -- ----- -- ------ - ------- --- ----------<br>------------- ------ ------ ---- ---- ------- ----- -- ----<br>-------- ------- -- ---------- --- - --- ----- ----- ----<br>---- --- --- ----- --- feel ---- ------- ----- ---- -------<br>--- --- -- ----- -- --- ---- -- --- ---- -- ------ ------<br>--- ----- -- ----,113924.69999999995,113924.30000000005,113599.957,113609.80000000005,113616.397,113933.266,,33,feel
screen,html.Screen,2_1_0_1_34,2022-05-02T11:25:47.646Z,,,,,,,,,,,,,,,,,53,,,,,,,,,,,,,,284.73399999999674,,response,,,,99,,,,,,,Space,keypress(Space),,,,,,,,---- -- ----- -- ------ - ------- --- ----------<br>------------- ------ ------ ---- ---- ------- ----- -- ----<br>-------- ------- -- ---------- --- - --- ----- ----- ----<br>---- --- --- ----- --- ---- that ------- ----- ---- -------<br>--- --- -- ----- -- --- ---- -- --- ---- -- ------ ------<br>--- ----- -- ----,114218.5,114218,113916.268,113924.80000000005,113933.266,114232.942,,34,that
screen,html.Screen,2_1_0_1_35,2022-05-02T11:25:47.975Z,,,,,,,,,,,,,,,,,53,,,,,,,,,,,,,,314.6580000000977,,response,,,,99,,,,,,,Space,keypress(Space),,,,,,,,---- -- ----- -- ------ - ------- --- ----------<br>------------- ------ ------ ---- ---- ------- ----- -- ----<br>-------- ------- -- ---------- --- - --- ----- ----- ----<br>---- --- --- ----- --- ---- ---- matters ----- ---- -------<br>--- --- -- ----- -- --- ---- -- --- ---- -- ------ ------<br>--- ----- -- ----,114548.1000000001,114547.6000000001,114216.633,114218.6000000001,114232.942,114580.436,,35,matters
screen,html.Screen,2_1_0_1_36,2022-05-02T11:25:48.233Z,,,,,,,,,,,,,,,,,53,,,,,,,,,,,,,,224.96399999990535,,response,,,,99,,,,,,,Space,keypress(Space),,,,,,,,"---- -- ----- -- ------ - ------- --- ----------<br>------------- ------ ------ ---- ---- ------- ----- -- ----<br>-------- ------- -- ---------- --- - --- ----- ----- ----<br>---- --- --- ----- --- ---- ---- ------- most, ---- -------<br>--- --- -- ----- -- --- ---- -- --- ---- -- ------ ------<br>--- ----- -- ----",114805.8999999999,114805.3999999999,114533.21,114548.1000000001,114580.436,114816.221,,36,"most,"
screen,html.Screen,2_1_0_1_37,2022-05-02T11:25:48.600Z,,,,,,,,,,,,,,,,,53,,,,,,,,,,,,,,356.278999999995,,response,,,,99,,,,,,,Space,keypress(Space),,,,,,,,---- -- ----- -- ------ - ------- --- ----------<br>------------- ------ ------ ---- ---- ------- ----- -- ----<br>-------- ------- -- ---------- --- - --- ----- ----- ----<br>---- --- --- ----- --- ---- ---- ------- ----- it's -------<br>--- --- -- ----- -- --- ---- -- --- ---- -- ------ ------<br>--- ----- -- ----,115173,115172.5,114799.965,114806,114816.221,115183.513,,37,it's
screen,html.Screen,2_1_0_1_38,2022-05-02T11:25:48.982Z,,,,,,,,,,,,,,,,,53,,,,,,,,,,,,,,370.4869999999937,,response,,,,99,,,,,,,Space,keypress(Space),,,,,,,,---- -- ----- -- ------ - ------- --- ----------<br>------------- ------ ------ ---- ---- ------- ----- -- ----<br>-------- ------- -- ---------- --- - --- ----- ----- ----<br>---- --- --- ----- --- ---- ---- ------- ----- ---- whether<br>--- --- -- ----- -- --- ---- -- --- ---- -- ------ ------<br>--- ----- -- ----,115554.6000000001,115554,115166.191,115173.1000000001,115183.513,115566.519,,38,whether
screen,html.Screen,2_1_0_1_39,2022-05-02T11:25:49.309Z,,,,,,,,,,,,,,,,,53,,,,,,,,,,,,,,314.6809999999532,,response,,,,99,,,,,,,Space,keypress(Space),,,,,,,,---- -- ----- -- ------ - ------- --- ----------<br>------------- ------ ------ ---- ---- ------- ----- -- ----<br>-------- ------- -- ---------- --- - --- ----- ----- ----<br>---- --- --- ----- --- ---- ---- ------- ----- ---- -------<br>you --- -- ----- -- --- ---- -- --- ---- -- ------ ------<br>--- ----- -- ----,115881.80000000005,115881.19999999995,115549.545,115554.69999999995,115566.519,115901.699,,39,you
screen,html.Screen,2_1_0_1_40,2022-05-02T11:25:49.551Z,,,,,,,,,,,,,,,,,53,,,,,,,,,,,,,,221.60100000005332,,response,,,,99,,,,,,,Space,keypress(Space),,,,,,,,---- -- ----- -- ------ - ------- --- ----------<br>------------- ------ ------ ---- ---- ------- ----- -- ----<br>-------- ------- -- ---------- --- - --- ----- ----- ----<br>---- --- --- ----- --- ---- ---- ------- ----- ---- -------<br>--- are -- ----- -- --- ---- -- --- ---- -- ------ ------<br>--- ----- -- ----,116123.69999999995,116123.30000000005,115866.273,115881.80000000005,115901.699,116132.855,,40,are
screen,html.Screen,2_1_0_1_41,2022-05-02T11:25:49.755Z,,,,,,,,,,,,,,,,,53,,,,,,,,,,,,,,194.14500000000407,,response,,,,99,,,,,,,Space,keypress(Space),,,,,,,,---- -- ----- -- ------ - ------- --- ----------<br>------------- ------ ------ ---- ---- ------- ----- -- ----<br>-------- ------- -- ---------- --- - --- ----- ----- ----<br>---- --- --- ----- --- ---- ---- ------- ----- ---- -------<br>--- --- as ----- -- --- ---- -- --- ---- -- ------ ------<br>--- ----- -- ----,116327.5,116327,116116.232,116123.80000000005,116132.855,116332.792,,41,as
screen,html.Screen,2_1_0_1_42,2022-05-02T11:25:49.994Z,,,,,,,,,,,,,,,,,53,,,,,,,,,,,,,,233.50800000004529,,response,,,,99,,,,,,,Space,keypress(Space),,,,,,,,---- -- ----- -- ------ - ------- --- ----------<br>------------- ------ ------ ---- ---- ------- ----- -- ----<br>-------- ------- -- ---------- --- - --- ----- ----- ----<br>---- --- --- ----- --- ---- ---- ------- ----- ---- -------<br>--- --- -- close -- --- ---- -- --- ---- -- ------ ------<br>--- ----- -- ----,116566.8999999999,116566.30000000005,116316.548,116327.69999999995,116332.792,116582.792,,42,close
screen,html.Screen,2_1_0_1_43,2022-05-02T11:25:50.389Z,,,,,,,,,,,,,,,,,53,,,,,,,,,,,,,,378.80800000009185,,response,,,,99,,,,,,,Space,keypress(Space),,,,,,,,---- -- ----- -- ------ - ------- --- ----------<br>------------- ------ ------ ---- ---- ------- ----- -- ----<br>-------- ------- -- ---------- --- - --- ----- ----- ----<br>---- --- --- ----- --- ---- ---- ------- ----- ---- -------<br>--- --- -- ----- as --- ---- -- --- ---- -- ------ ------<br>--- ----- -- ----,116962.19999999995,116961.6000000001,116566.135,116566.8999999999,116582.792,116966.071,,43,as
screen,html.Screen,2_1_0_1_44,2022-05-02T11:25:50.636Z,,,,,,,,,,,,,,,,,53,,,,,,,,,,,,,,242.2290000000503,,response,,,,99,,,,,,,Space,keypress(Space),,,,,,,,---- -- ----- -- ------ - ------- --- ----------<br>------------- ------ ------ ---- ---- ------- ----- -- ----<br>-------- ------- -- ---------- --- - --- ----- ----- ----<br>---- --- --- ----- --- ---- ---- ------- ----- ---- -------<br>--- --- -- ----- -- you ---- -- --- ---- -- ------ ------<br>--- ----- -- ----,117208.8999999999,117208.30000000005,116949.836,116962.30000000005,116966.071,117216.317,,44,you
screen,html.Screen,2_1_0_1_45,2022-05-02T11:25:50.846Z,,,,,,,,,,,,,,,,,53,,,,,,,,,,,,,,201.88299999995797,,response,,,,99,,,,,,,Space,keypress(Space),,,,,,,,---- -- ----- -- ------ - ------- --- ----------<br>------------- ------ ------ ---- ---- ------- ----- -- ----<br>-------- ------- -- ---------- --- - --- ----- ----- ----<br>---- --- --- ----- --- ---- ---- ------- ----- ---- -------<br>--- --- -- ----- -- --- want -- --- ---- -- ------ ------<br>--- ----- -- ----,117418.6000000001,117418.19999999995,117199.844,117209,117216.317,117432.802,,45,want
screen,html.Screen,2_1_0_1_46,2022-05-02T11:25:51.095Z,,,,,,,,,,,,,,,,,53,,,,,,,,,,,,,,233.99800000005052,,response,,,,99,,,,,,,Space,keypress(Space),,,,,,,,---- -- ----- -- ------ - ------- --- ----------<br>------------- ------ ------ ---- ---- ------- ----- -- ----<br>-------- ------- -- ---------- --- - --- ----- ----- ----<br>---- --- --- ----- --- ---- ---- ------- ----- ---- -------<br>--- --- -- ----- -- --- ---- to --- ---- -- ------ ------<br>--- ----- -- ----,117667.6000000001,117666.80000000005,117416.097,117418.69999999995,117432.802,117682.8,,46,to
screen,html.Screen,2_1_0_1_47,2022-05-02T11:25:51.423Z,,,,,,,,,,,,,,,,,53,,,,,,,,,,,,,,312.1999999999971,,response,,,,99,,,,,,,Space,keypress(Space),,,,,,,,"---- -- ----- -- ------ - ------- --- ----------<br>------------- ------ ------ ---- ---- ------- ----- -- ----<br>-------- ------- -- ---------- --- - --- ----- ----- ----<br>---- --- --- ----- --- ---- ---- ------- ----- ---- -------<br>--- --- -- ----- -- --- ---- -- be, ---- -- ------ ------<br>--- ----- -- ----",117995.5,117995,117666.088,117667.69999999995,117682.8,117999.331,,47,"be,"
screen,html.Screen,2_1_0_1_48,2022-05-02T11:25:51.837Z,,,,,,,,,,,,,,,,,53,,,,,,,,,,,,,,410.1689999999944,,response,,,,99,,,,,,,Space,keypress(Space),,,,,,,,---- -- ----- -- ------ - ------- --- ----------<br>------------- ------ ------ ---- ---- ------- ----- -- ----<br>-------- ------- -- ---------- --- - --- ----- ----- ----<br>---- --- --- ----- --- ---- ---- ------- ----- ---- -------<br>--- --- -- ----- -- --- ---- -- --- even -- ------ ------<br>--- ----- -- ----,118410,118409.5,117982.767,117995.5,117999.331,118416.02,,48,even
screen,html.Screen,2_1_0_1_49,2022-05-02T11:25:52.107Z,,,,,,,,,,,,,,,,,53,,,,,,,,,,,,,,263.17999999994936,,response,,,,99,,,,,,,Space,keypress(Space),,,,,,,,---- -- ----- -- ------ - ------- --- ----------<br>------------- ------ ------ ---- ---- ------- ----- -- ----<br>-------- ------- -- ---------- --- - --- ----- ----- ----<br>---- --- --- ----- --- ---- ---- ------- ----- ---- -------<br>--- --- -- ----- -- --- ---- -- --- ---- if ------ ------<br>--- ----- -- ----,118679.69999999995,118679.19999999995,118399.398,118410.1000000001,118416.02,118682.66,,49,if
screen,html.Screen,2_1_0_1_50,2022-05-02T11:25:52.350Z,,,,,,,,,,,,,,,,,53,,,,,,,,,,,,,,239.44000000008964,,response,,,,99,,,,,,,Space,keypress(Space),,,,,,,,---- -- ----- -- ------ - ------- --- ----------<br>------------- ------ ------ ---- ---- ------- ----- -- ----<br>-------- ------- -- ---------- --- - --- ----- ----- ----<br>---- --- --- ----- --- ---- ---- ------- ----- ---- -------<br>--- --- -- ----- -- --- ---- -- --- ---- -- that's ------<br>--- ----- -- ----,118922.6000000001,118922.1000000001,118666.076,118679.69999999995,118682.66,118933.207,,50,that's
screen,html.Screen,2_1_0_1_51,2022-05-02T11:25:52.785Z,,,,,,,,,,,,,,,,,53,,,,,,,,,,,,,,424.2930000000051,,response,,,,99,,,,,,,Space,keypress(Space),,,,,,,,---- -- ----- -- ------ - ------- --- ----------<br>------------- ------ ------ ---- ---- ------- ----- -- ----<br>-------- ------- -- ---------- --- - --- ----- ----- ----<br>---- --- --- ----- --- ---- ---- ------- ----- ---- -------<br>--- --- -- ----- -- --- ---- -- --- ---- -- ------ really<br>--- ----- -- ----,119358,119357.5,118916.336,118922.69999999995,118933.207,119365.959,,51,really
screen,html.Screen,2_1_0_1_52,2022-05-02T11:25:53.177Z,,,,,,,,,,,,,,,,,53,,,,,,,,,,,,,,383.341000000044,,response,,,,99,,,,,,,Space,keypress(Space),,,,,,,,---- -- ----- -- ------ - ------- --- ----------<br>------------- ------ ------ ---- ---- ------- ----- -- ----<br>-------- ------- -- ---------- --- - --- ----- ----- ----<br>---- --- --- ----- --- ---- ---- ------- ----- ---- -------<br>--- --- -- ----- -- --- ---- -- --- ---- -- ------ ------<br>not ----- -- ----,119749.6000000001,119749.30000000005,119349.679,119358,119365.959,119765.947,,52,not
screen,html.Screen,2_1_0_1_53,2022-05-02T11:25:53.548Z,,,,,,,,,,,,,,,,,53,,,,,,,,,,,,,,354.5529999999999,,response,,,,99,,,,,,,Space,keypress(Space),,,,,,,,---- -- ----- -- ------ - ------- --- ----------<br>------------- ------ ------ ---- ---- ------- ----- -- ----<br>-------- ------- -- ---------- --- - --- ----- ----- ----<br>---- --- --- ----- --- ---- ---- ------- ----- ---- -------<br>--- --- -- ----- -- --- ---- -- --- ---- -- ------ ------<br>--- close -- ----,120120.8999999999,120120.5,119749.292,119749.6000000001,119765.947,120132.605,,53,close
screen,html.Screen,2_1_0_1_54,2022-05-02T11:25:53.959Z,,,,,,,,,,,,,,,,,53,,,,,,,,,,,,,,398.9950000000972,,response,,,,99,,,,,,,Space,keypress(Space),,,,,,,,---- -- ----- -- ------ - ------- --- ----------<br>------------- ------ ------ ---- ---- ------- ----- -- ----<br>-------- ------- -- ---------- --- - --- ----- ----- ----<br>---- --- --- ----- --- ---- ---- ------- ----- ---- -------<br>--- --- -- ----- -- --- ---- -- --- ---- -- ------ ------<br>--- ----- at ----,120532,120531.6000000001,120115.961,120120.8999999999,120132.605,120561.588,,54,at
screen,html.Screen,2_1_0_1_55,2022-05-02T11:25:54.415Z,,,,,,,,,,,,,,,,,53,,,,,,,,,,,,,,426.3119999999035,,response,,,,99,,,,,,,Space,keypress(Space),,,,,,,,---- -- ----- -- ------ - ------- --- ----------<br>------------- ------ ------ ---- ---- ------- ----- -- ----<br>-------- ------- -- ---------- --- - --- ----- ----- ----<br>---- --- --- ----- --- ---- ---- ------- ----- ---- -------<br>--- --- -- ----- -- --- ---- -- --- ---- -- ------ ------<br>--- ----- -- all.,120988.19999999995,120987.8999999999,120515.965,120532.19999999995,120561.588,120999.199,,55,all.
Item 99,flow.Loop,2_1_0_1,2022-05-02T11:25:54.416Z,,,,,,,,,,,,,,,,,,,,,,,,,,,,,,,19254.494999999908,,completion,,,,,F,,,,,,,,,,,silence,,,,,120988.30000000005,120987.8999999999,101716.758,101717.19999999995,101733.405,120999.199,,,
Question 1,html.Screen,2_1_0_2,2022-05-02T11:25:57.529Z,,,,,,,,,,,,,,,,,,,,,,,,,,,,false,FALSE,,3101.6010000000533,,response,,,,99,F,,,,,,TRUE,click #choice-1,,,,silence,,,,,124101.6000000001,124100.80000000005,120982.651,120988.30000000005,120999.199,124116.183,,,
Question 2,html.Screen,2_1_0_3,2022-05-02T11:26:01.386Z,,,,,,,,,,,,,,,,,,,,,,,,,,,,true,TRUE,,3841.4170000000886,,response,,,,99,F,,,,,,TRUE,click #choice-1,,,,silence,,,,,127958.30000000005,127957.6000000001,124099.298,124101.69999999995,124116.183,127965.892,,,
Item 99,flow.Sequence,2_1_0,2022-05-02T11:26:01.386Z,,,,,,,,,,,,,,,,,,,,,,,,,,,,,,,36223.7190000001,,completion,,,,,,,,,,,,,,,,,,,,,127958.3999999999,127957.6000000001,91717.261,91727.3999999999,91733.881,127965.892,,,
Holding screen,html.Screen,2_1_1_0,2022-05-02T11:26:11.376Z,,,,,,,,,,,,,,,,,,,,,,,,,,,,,,,9999.349999999991,,timeout,,,,,,,,,,,,,,,,,,,,,137949.1000000001,137948.494,127948.997,127958.5,127965.892,137965.242,,,
screen,html.Screen,2_1_1_1_0,2022-05-02T11:26:12.189Z,,,,,,,,,,,,,,,,,54,,,,,,,,,,,,,,796.4579999999551,,response,,,,100,,,,,,,Space,keypress(Space),,,,,,,,At --- ---- --- ------ ----- ------- ---- -- --- ------- --<br>------- ---------- ------ -- ----- -- ----- -- ---- ------<br>--- ----- --- --- ------ -------- ----- --- ------ ----- --<br>----- ----- ---------- --- --- ------ ------ ---- -- ------<br>------- --- ------ ----- --- ---- ------- -- ---- --- --<br>------- ------,138762.1000000001,138761.69999999995,137948.494,137949.19999999995,137965.242,138765.108,,0,At
screen,html.Screen,2_1_1_1_1,2022-05-02T11:26:12.581Z,,,,,,,,,,,,,,,,,54,,,,,,,,,,,,,,388.2919999998994,,response,,,,100,,,,,,,Space,keypress(Space),,,,,,,,-- the ---- --- ------ ----- ------- ---- -- --- ------- --<br>------- ---------- ------ -- ----- -- ----- -- ---- ------<br>--- ----- --- --- ------ -------- ----- --- ------ ----- --<br>----- ----- ---------- --- --- ------ ------ ---- -- ------<br>------- --- ------ ----- --- ---- ------- -- ---- --- --<br>------- ------,139153.80000000005,139153.3999999999,138748.467,138762.19999999995,138765.108,139165.174,,1,the
screen,html.Screen,2_1_1_1_2,2022-05-02T11:26:12.956Z,,,,,,,,,,,,,,,,,54,,,,,,,,,,,,,,363.6260000000475,,response,,,,100,,,,,,,Space,keypress(Space),,,,,,,,-- --- time --- ------ ----- ------- ---- -- --- ------- --<br>------- ---------- ------ -- ----- -- ----- -- ---- ------<br>--- ----- --- --- ------ -------- ----- --- ------ ----- --<br>----- ----- ---------- --- --- ------ ------ ---- -- ------<br>------- --- ------ ----- --- ---- ------- -- ---- --- --<br>------- ------,139529.1000000001,139528.80000000005,139148.434,139153.80000000005,139165.174,139531.762,,2,time
screen,html.Screen,2_1_1_1_3,2022-05-02T11:26:13.288Z,,,,,,,,,,,,,,,,,54,,,,,,,,,,,,,,328.83800000010524,,response,,,,100,,,,,,,Space,keypress(Space),,,,,,,,-- --- ---- the ------ ----- ------- ---- -- --- ------- --<br>------- ---------- ------ -- ----- -- ----- -- ---- ------<br>--- ----- --- --- ------ -------- ----- --- ------ ----- --<br>----- ----- ---------- --- --- ------ ------ ---- -- ------<br>------- --- ------ ----- --- ---- ------- -- ---- --- --<br>------- ------,139861.1000000001,139860.6000000001,139515.15,139529.19999999995,139531.762,139865.383,,3,the
screen,html.Screen,2_1_1_1_4,2022-05-02T11:26:13.624Z,,,,,,,,,,,,,,,,,54,,,,,,,,,,,,,,330.61699999999837,,response,,,,100,,,,,,,Space,keypress(Space),,,,,,,,-- --- ---- --- French ----- ------- ---- -- --- ------- --<br>------- ---------- ------ -- ----- -- ----- -- ---- ------<br>--- ----- --- --- ------ -------- ----- --- ------ ----- --<br>----- ----- ---------- --- --- ------ ------ ---- -- ------<br>------- --- ------ ----- --- ---- ------- -- ---- --- --<br>------- ------,140196.6000000001,140196,139848.409,139861.19999999995,139865.383,140198.395,,4,French
screen,html.Screen,2_1_1_1_5,2022-05-02T11:26:13.998Z,,,,,,,,,,,,,,,,,54,,,,,,,,,,,,,,371.90500000005704,,response,,,,100,,,,,,,Space,keypress(Space),,,,,,,,-- --- ---- --- ------ crown ------- ---- -- --- ------- --<br>------- ---------- ------ -- ----- -- ----- -- ---- ------<br>--- ----- --- --- ------ -------- ----- --- ------ ----- --<br>----- ----- ---------- --- --- ------ ------ ---- -- ------<br>------- --- ------ ----- --- ---- ------- -- ---- --- --<br>------- ------,140570.80000000005,140570.30000000005,140181.745,140196.69999999995,140198.395,140581.74,,5,crown
screen,html.Screen,2_1_1_1_6,2022-05-02T11:26:14.394Z,,,,,,,,,,,,,,,,,54,,,,,,,,,,,,,,384.36000000010245,,response,,,,100,,,,,,,Space,keypress(Space),,,,,,,,-- --- ---- --- ------ ----- secured ---- -- --- ------- --<br>------- ---------- ------ -- ----- -- ----- -- ---- ------<br>--- ----- --- --- ------ -------- ----- --- ------ ----- --<br>----- ----- ---------- --- --- ------ ------ ---- -- ------<br>------- --- ------ ----- --- ---- ------- -- ---- --- --<br>------- ------,140966.6000000001,140966.1000000001,140565.112,140570.80000000005,140581.74,140981.744,,6,secured
screen,html.Screen,2_1_1_1_7,2022-05-02T11:26:14.778Z,,,,,,,,,,,,,,,,,54,,,,,,,,,,,,,,368.4559999999474,,response,,,,100,,,,,,,Space,keypress(Space),,,,,,,,-- --- ---- --- ------ ----- ------- much -- --- ------- --<br>------- ---------- ------ -- ----- -- ----- -- ---- ------<br>--- ----- --- --- ------ -------- ----- --- ------ ----- --<br>----- ----- ---------- --- --- ------ ------ ---- -- ------<br>------- --- ------ ----- --- ---- ------- -- ---- --- --<br>------- ------,141350.69999999995,141350.19999999995,140965.151,140966.69999999995,140981.744,141365.1,,7,much
screen,html.Screen,2_1_1_1_8,2022-05-02T11:26:15.124Z,,,,,,,,,,,,,,,,,54,,,,,,,,,,,,,,331.5000000000873,,response,,,,100,,,,,,,Space,keypress(Space),,,,,,,,-- --- ---- --- ------ ----- ------- ---- of --- ------- --<br>------- ---------- ------ -- ----- -- ----- -- ---- ------<br>--- ----- --- --- ------ -------- ----- --- ------ ----- --<br>----- ----- ---------- --- --- ------ ------ ---- -- ------<br>------- --- ------ ----- --- ---- ------- -- ---- --- --<br>------- ------,141697.1000000001,141696.6000000001,141348.39,141350.80000000005,141365.1,141719.793,,8,of
screen,html.Screen,2_1_1_1_9,2022-05-02T11:26:15.351Z,,,,,,,,,,,,,,,,,54,,,,,,,,,,,,,,203.4069999999483,,response,,,,100,,,,,,,Space,keypress(Space),,,,,,,,-- --- ---- --- ------ ----- ------- ---- -- its ------- --<br>------- ---------- ------ -- ----- -- ----- -- ---- ------<br>--- ----- --- --- ------ -------- ----- --- ------ ----- --<br>----- ----- ---------- --- --- ------ ------ ---- -- ------<br>------- --- ------ ----- --- ---- ------- -- ---- --- --<br>------- ------,141923.80000000005,141923.19999999995,141681.737,141697.19999999995,141719.793,141932.164,,9,its
screen,html.Screen,2_1_1_1_10,2022-05-02T11:26:15.689Z,,,,,,,,,,,,,,,,,54,,,,,,,,,,,,,,329.5359999999637,,response,,,,100,,,,,,,Space,keypress(Space),,,,,,,,-- --- ---- --- ------ ----- ------- ---- -- --- revenue --<br>------- ---------- ------ -- ----- -- ----- -- ---- ------<br>--- ----- --- --- ------ -------- ----- --- ------ ----- --<br>----- ----- ---------- --- --- ------ ------ ---- -- ------<br>------- --- ------ ----- --- ---- ------- -- ---- --- --<br>------- ------,142262,142261.69999999995,141915.061,141923.80000000005,141932.164,142265.257,,10,revenue
screen,html.Screen,2_1_1_1_11,2022-05-02T11:26:16.171Z,,,,,,,,,,,,,,,,,54,,,,,,,,,,,,,,478.4429999999411,,response,,,,100,,,,,,,Space,keypress(Space),,,,,,,,-- --- ---- --- ------ ----- ------- ---- -- --- ------- by<br>------- ---------- ------ -- ----- -- ----- -- ---- ------<br>--- ----- --- --- ------ -------- ----- --- ------ ----- --<br>----- ----- ---------- --- --- ------ ------ ---- -- ------<br>------- --- ------ ----- --- ---- ------- -- ---- --- --<br>------- ------,142744.19999999995,142743.69999999995,142248.347,142262.1000000001,142265.257,142749.038,,11,by
screen,html.Screen,2_1_1_1_12,2022-05-02T11:26:16.554Z,,,,,,,,,,,,,,,,,54,,,,,,,,,,,,,,376.96199999999953,,response,,,,100,,,,,,,Space,keypress(Space),,,,,,,,-- --- ---- --- ------ ----- ------- ---- -- --- ------- --<br>issuing ---------- ------ -- ----- -- ----- -- ---- ------<br>--- ----- --- --- ------ -------- ----- --- ------ ----- --<br>----- ----- ---------- --- --- ------ ------ ---- -- ------<br>------- --- ------ ----- --- ---- ------- -- ---- --- --<br>------- ------,143126.5,143126,142732.079,142744.30000000005,142749.038,143131.9,,12,issuing
screen,html.Screen,2_1_1_1_13,2022-05-02T11:26:16.881Z,,,,,,,,,,,,,,,,,54,,,,,,,,,,,,,,321.6000000000058,,response,,,,100,,,,,,,Space,keypress(Space),,,,,,,,-- --- ---- --- ------ ----- ------- ---- -- --- ------- --<br>------- government ------ -- ----- -- ----- -- ---- ------<br>--- ----- --- --- ------ -------- ----- --- ------ ----- --<br>----- ----- ---------- --- --- ------ ------ ---- -- ------<br>------- --- ------ ----- --- ---- ------- -- ---- --- --<br>------- ------,143454.1000000001,143453.5,143115.385,143126.5,143131.9,143465.223,,13,government
screen,html.Screen,2_1_1_1_14,2022-05-02T11:26:17.239Z,,,,,,,,,,,,,,,,,54,,,,,,,,,,,,,,346.17699999990873,,response,,,,100,,,,,,,Space,keypress(Space),,,,,,,,-- --- ---- --- ------ ----- ------- ---- -- --- ------- --<br>------- ---------- bonds. -- ----- -- ----- -- ---- ------<br>--- ----- --- --- ------ -------- ----- --- ------ ----- --<br>----- ----- ---------- --- --- ------ ------ ---- -- ------<br>------- --- ------ ----- --- ---- ------- -- ---- --- --<br>------- ------,143812,143811.3999999999,143448.253,143454.19999999995,143465.223,143814.888,,14,bonds.
screen,html.Screen,2_1_1_1_15,2022-05-02T11:26:17.634Z,,,,,,,,,,,,,,,,,54,,,,,,,,,,,,,,391.21200000008685,,response,,,,100,,,,,,,Space,keypress(Space),,,,,,,,-- --- ---- --- ------ ----- ------- ---- -- --- ------- --<br>------- ---------- ------ In ----- -- ----- -- ---- ------<br>--- ----- --- --- ------ -------- ----- --- ------ ----- --<br>----- ----- ---------- --- --- ------ ------ ---- -- ------<br>------- --- ------ ----- --- ---- ------- -- ---- --- --<br>------- ------,144206.6000000001,144206.1000000001,143798.271,143812.1000000001,143814.888,144215.02,,15,In
screen,html.Screen,2_1_1_1_16,2022-05-02T11:26:18.133Z,,,,,,,,,,,,,,,,,54,,,,,,,,,,,,,,490.28000000005704,,response,,,,100,,,,,,,Space,keypress(Space),,,,,,,,"-- --- ---- --- ------ ----- ------- ---- -- --- ------- --<br>------- ---------- ------ -- 1727, -- ----- -- ---- ------<br>--- ----- --- --- ------ -------- ----- --- ------ ----- --<br>----- ----- ---------- --- --- ------ ------ ---- -- ------<br>------- --- ------ ----- --- ---- ------- -- ---- --- --<br>------- ------",144705.69999999995,144705.30000000005,144198.272,144206.69999999995,144215.02,144714.914,,16,"1727,"
screen,html.Screen,2_1_1_1_17,2022-05-02T11:26:18.440Z,,,,,,,,,,,,,,,,,54,,,,,,,,,,,,,,297.08600000001024,,response,,,,100,,,,,,,Space,keypress(Space),,,,,,,,-- --- ---- --- ------ ----- ------- ---- -- --- ------- --<br>------- ---------- ------ -- ----- in ----- -- ---- ------<br>--- ----- --- --- ------ -------- ----- --- ------ ----- --<br>----- ----- ---------- --- --- ------ ------ ---- -- ------<br>------- --- ------ ----- --- ---- ------- -- ---- --- --<br>------- ------,145012.30000000005,145012,144698.27,144705.69999999995,144714.914,145014.84,,17,in
screen,html.Screen,2_1_1_1_18,2022-05-02T11:26:18.775Z,,,,,,,,,,,,,,,,,54,,,,,,,,,,,,,,332.1600000000035,,response,,,,100,,,,,,,Space,keypress(Space),,,,,,,,-- --- ---- --- ------ ----- ------- ---- -- --- ------- --<br>------- ---------- ------ -- ----- -- order -- ---- ------<br>--- ----- --- --- ------ -------- ----- --- ------ ----- --<br>----- ----- ---------- --- --- ------ ------ ---- -- ------<br>------- --- ------ ----- --- ---- ------- -- ---- --- --<br>------- ------,145347.30000000005,145347,144998.223,145012.3999999999,145014.84,145377.173,,18,order
screen,html.Screen,2_1_1_1_19,2022-05-02T11:26:19.051Z,,,,,,,,,,,,,,,,,54,,,,,,,,,,,,,,246.42700000008335,,response,,,,100,,,,,,,Space,keypress(Space),,,,,,,,-- --- ---- --- ------ ----- ------- ---- -- --- ------- --<br>------- ---------- ------ -- ----- -- ----- to ---- ------<br>--- ----- --- --- ------ -------- ----- --- ------ ----- --<br>----- ----- ---------- --- --- ------ ------ ---- -- ------<br>------- --- ------ ----- --- ---- ------- -- ---- --- --<br>------- ------,145624.19999999995,145623.6000000001,145331.941,145347.5,145377.173,145631.57,,19,to
screen,html.Screen,2_1_1_1_20,2022-05-02T11:26:19.297Z,,,,,,,,,,,,,,,,,54,,,,,,,,,,,,,,237.92999999999302,,response,,,,100,,,,,,,Space,keypress(Space),,,,,,,,-- --- ---- --- ------ ----- ------- ---- -- --- ------- --<br>------- ---------- ------ -- ----- -- ----- -- save ------<br>--- ----- --- --- ------ -------- ----- --- ------ ----- --<br>----- ----- ---------- --- --- ------ ------ ---- -- ------<br>------- --- ------ ----- --- ---- ------- -- ---- --- --<br>------- ------,145870,145869.5,145615.172,145624.30000000005,145631.57,145881.608,,20,save
screen,html.Screen,2_1_1_1_21,2022-05-02T11:26:19.644Z,,,,,,,,,,,,,,,,,54,,,,,,,,,,,,,,334.89199999999255,,response,,,,100,,,,,,,Space,keypress(Space),,,,,,,,"-- --- ---- --- ------ ----- ------- ---- -- --- ------- --<br>------- ---------- ------ -- ----- -- ----- -- ---- money,<br>--- ----- --- --- ------ -------- ----- --- ------ ----- --<br>----- ----- ---------- --- --- ------ ------ ---- -- ------<br>------- --- ------ ----- --- ---- ------- -- ---- --- --<br>------- ------",146217.1000000001,146216.5,145864.963,145870.19999999995,145881.608,146231.996,,21,"money,"
screen,html.Screen,2_1_1_1_22,2022-05-02T11:26:20.020Z,,,,,,,,,,,,,,,,,54,,,,,,,,,,,,,,360.2039999999397,,response,,,,100,,,,,,,Space,keypress(Space),,,,,,,,-- --- ---- --- ------ ----- ------- ---- -- --- ------- --<br>------- ---------- ------ -- ----- -- ----- -- ---- ------<br>the ----- --- --- ------ -------- ----- --- ------ ----- --<br>----- ----- ---------- --- --- ------ ------ ---- -- ------<br>------- --- ------ ----- --- ---- ------- -- ---- --- --<br>------- ------,146592.69999999995,146592.19999999995,146215.216,146217.19999999995,146231.996,146598.117,,22,the
screen,html.Screen,2_1_1_1_23,2022-05-02T11:26:20.412Z,,,,,,,,,,,,,,,,,54,,,,,,,,,,,,,,385.98300000009476,,response,,,,100,,,,,,,Space,keypress(Space),,,,,,,,-- --- ---- --- ------ ----- ------- ---- -- --- ------- --<br>------- ---------- ------ -- ----- -- ----- -- ---- ------<br>--- state --- --- ------ -------- ----- --- ------ ----- --<br>----- ----- ---------- --- --- ------ ------ ---- -- ------<br>------- --- ------ ----- --- ---- ------- -- ---- --- --<br>------- ------,146984.6000000001,146984.1000000001,146581.83,146592.80000000005,146598.117,146998.378,,23,state
screen,html.Screen,2_1_1_1_24,2022-05-02T11:26:20.723Z,,,,,,,,,,,,,,,,,54,,,,,,,,,,,,,,297.0219999999099,,response,,,,100,,,,,,,Space,keypress(Space),,,,,,,,-- --- ---- --- ------ ----- ------- ---- -- --- ------- --<br>------- ---------- ------ -- ----- -- ----- -- ---- ------<br>--- ----- cut --- ------ -------- ----- --- ------ ----- --<br>----- ----- ---------- --- --- ------ ------ ---- -- ------<br>------- --- ------ ----- --- ---- ------- -- ---- --- --<br>------- ------,147295.80000000005,147295.3999999999,146981.758,146984.69999999995,146998.378,147298.092,,24,cut
screen,html.Screen,2_1_1_1_25,2022-05-02T11:26:20.956Z,,,,,,,,,,,,,,,,,54,,,,,,,,,,,,,,230.10799999994924,,response,,,,100,,,,,,,Space,keypress(Space),,,,,,,,-- --- ---- --- ------ ----- ------- ---- -- --- ------- --<br>------- ---------- ------ -- ----- -- ----- -- ---- ------<br>--- ----- --- the ------ -------- ----- --- ------ ----- --<br>----- ----- ---------- --- --- ------ ------ ---- -- ------<br>------- --- ------ ----- --- ---- ------- -- ---- --- --<br>------- ------,147528.6000000001,147528.19999999995,147281.494,147295.8999999999,147298.092,147531.406,,25,the
screen,html.Screen,2_1_1_1_26,2022-05-02T11:26:21.219Z,,,,,,,,,,,,,,,,,54,,,,,,,,,,,,,,260.2939999999653,,response,,,,100,,,,,,,Space,keypress(Space),,,,,,,,-- --- ---- --- ------ ----- ------- ---- -- --- ------- --<br>------- ---------- ------ -- ----- -- ----- -- ---- ------<br>--- ----- --- --- bonds' -------- ----- --- ------ ----- --<br>----- ----- ---------- --- --- ------ ------ ---- -- ------<br>------- --- ------ ----- --- ---- ------- -- ---- --- --<br>------- ------,147792.19999999995,147791.69999999995,147514.732,147528.69999999995,147531.406,147798.131,,26,bonds'
screen,html.Screen,2_1_1_1_27,2022-05-02T11:26:21.535Z,,,,,,,,,,,,,,,,,54,,,,,,,,,,,,,,309.5689999999595,,response,,,,100,,,,,,,Space,keypress(Space),,,,,,,,-- --- ---- --- ------ ----- ------- ---- -- --- ------- --<br>------- ---------- ------ -- ----- -- ----- -- ---- ------<br>--- ----- --- --- ------ interest ----- --- ------ ----- --<br>----- ----- ---------- --- --- ------ ------ ---- -- ------<br>------- --- ------ ----- --- ---- ------- -- ---- --- --<br>------- ------,148108,148107.69999999995,147781.452,147792.19999999995,147798.131,148115.065,,27,interest
screen,html.Screen,2_1_1_1_28,2022-05-02T11:26:21.865Z,,,,,,,,,,,,,,,,,54,,,,,,,,,,,,,,322.73500000004424,,response,,,,100,,,,,,,Space,keypress(Space),,,,,,,,-- --- ---- --- ------ ----- ------- ---- -- --- ------- --<br>------- ---------- ------ -- ----- -- ----- -- ---- ------<br>--- ----- --- --- ------ -------- rate. --- ------ ----- --<br>----- ----- ---------- --- --- ------ ------ ---- -- ------<br>------- --- ------ ----- --- ---- ------- -- ---- --- --<br>------- ------,148438.30000000005,148437.80000000005,148098.485,148108.1000000001,148115.065,148448.095,,28,rate.
screen,html.Screen,2_1_1_1_29,2022-05-02T11:26:22.206Z,,,,,,,,,,,,,,,,,54,,,,,,,,,,,,,,329.90499999999884,,response,,,,100,,,,,,,Space,keypress(Space),,,,,,,,-- --- ---- --- ------ ----- ------- ---- -- --- ------- --<br>------- ---------- ------ -- ----- -- ----- -- ---- ------<br>--- ----- --- --- ------ -------- ----- The ------ ----- --<br>----- ----- ---------- --- --- ------ ------ ---- -- ------<br>------- --- ------ ----- --- ---- ------- -- ---- --- --<br>------- ------,148778.30000000005,148778,148431.366,148438.30000000005,148448.095,148781.337,,29,The
screen,html.Screen,2_1_1_1_30,2022-05-02T11:26:22.443Z,,,,,,,,,,,,,,,,,54,,,,,,,,,,,,,,234.2630000000936,,response,,,,100,,,,,,,Space,keypress(Space),,,,,,,,-- --- ---- --- ------ ----- ------- ---- -- --- ------- --<br>------- ---------- ------ -- ----- -- ----- -- ---- ------<br>--- ----- --- --- ------ -------- ----- --- market ----- --<br>----- ----- ---------- --- --- ------ ------ ---- -- ------<br>------- --- ------ ----- --- ---- ------- -- ---- --- --<br>------- ------,149015.8999999999,149015.6000000001,148765.124,148778.3999999999,148781.337,149031.968,,30,market
screen,html.Screen,2_1_1_1_31,2022-05-02T11:26:22.723Z,,,,,,,,,,,,,,,,,54,,,,,,,,,,,,,,262.8320000000531,,response,,,,100,,,,,,,Space,keypress(Space),,,,,,,,-- --- ---- --- ------ ----- ------- ---- -- --- ------- --<br>------- ---------- ------ -- ----- -- ----- -- ---- ------<br>--- ----- --- --- ------ -------- ----- --- ------ value --<br>----- ----- ---------- --- --- ------ ------ ---- -- ------<br>------- --- ------ ----- --- ---- ------- -- ---- --- --<br>------- ------,149295.30000000005,149294.80000000005,149015.109,149016,149031.968,149297.984,,31,value
screen,html.Screen,2_1_1_1_32,2022-05-02T11:26:22.969Z,,,,,,,,,,,,,,,,,54,,,,,,,,,,,,,,243.2159999999567,,response,,,,100,,,,,,,Space,keypress(Space),,,,,,,,-- --- ---- --- ------ ----- ------- ---- -- --- ------- --<br>------- ---------- ------ -- ----- -- ----- -- ---- ------<br>--- ----- --- --- ------ -------- ----- --- ------ ----- of<br>----- ----- ---------- --- --- ------ ------ ---- -- ------<br>------- --- ------ ----- --- ---- ------- -- ---- --- --<br>------- ------,149541.69999999995,149541.19999999995,149281.372,149295.3999999999,149297.984,149547.987,,32,of
screen,html.Screen,2_1_1_1_33,2022-05-02T11:26:23.254Z,,,,,,,,,,,,,,,,,54,,,,,,,,,,,,,,278.7129999999597,,response,,,,100,,,,,,,Space,keypress(Space),,,,,,,,-- --- ---- --- ------ ----- ------- ---- -- --- ------- --<br>------- ---------- ------ -- ----- -- ----- -- ---- ------<br>--- ----- --- --- ------ -------- ----- --- ------ ----- --<br>these ----- ---------- --- --- ------ ------ ---- -- ------<br>------- --- ------ ----- --- ---- ------- -- ---- --- --<br>------- ------,149827.30000000005,149826.69999999995,149531.751,149541.80000000005,149547.987,149831.307,,33,these
screen,html.Screen,2_1_1_1_34,2022-05-02T11:26:23.568Z,,,,,,,,,,,,,,,,,54,,,,,,,,,,,,,,308.29300000009243,,response,,,,100,,,,,,,Space,keypress(Space),,,,,,,,-- --- ---- --- ------ ----- ------- ---- -- --- ------- --<br>------- ---------- ------ -- ----- -- ----- -- ---- ------<br>--- ----- --- --- ------ -------- ----- --- ------ ----- --<br>----- bonds ---------- --- --- ------ ------ ---- -- ------<br>------- --- ------ ----- --- ---- ------- -- ---- --- --<br>------- ------,150140.5,150139.6000000001,149814.742,149827.30000000005,149831.307,150148.04,,34,bonds
screen,html.Screen,2_1_1_1_35,2022-05-02T11:26:24.003Z,,,,,,,,,,,,,,,,,54,,,,,,,,,,,,,,427.7600000000384,,response,,,,100,,,,,,,Space,keypress(Space),,,,,,,,"-- --- ---- --- ------ ----- ------- ---- -- --- ------- --<br>------- ---------- ------ -- ----- -- ----- -- ---- ------<br>--- ----- --- --- ------ -------- ----- --- ------ ----- --<br>----- ----- plummeted, --- --- ------ ------ ---- -- ------<br>------- --- ------ ----- --- ---- ------- -- ---- --- --<br>------- ------",150576.19999999995,150575.80000000005,150131.299,150140.6000000001,150148.04,150581.267,,35,"plummeted,"
screen,html.Screen,2_1_1_1_36,2022-05-02T11:26:24.444Z,,,,,,,,,,,,,,,,,54,,,,,,,,,,,,,,435.033000000054,,response,,,,100,,,,,,,Space,keypress(Space),,,,,,,,-- --- ---- --- ------ ----- ------- ---- -- --- ------- --<br>------- ---------- ------ -- ----- -- ----- -- ---- ------<br>--- ----- --- --- ------ -------- ----- --- ------ ----- --<br>----- ----- ---------- and --- ------ ------ ---- -- ------<br>------- --- ------ ----- --- ---- ------- -- ---- --- --<br>------- ------,151016.8999999999,151016.30000000005,150564.671,150576.3999999999,150581.267,151031.284,,36,and
screen,html.Screen,2_1_1_1_37,2022-05-02T11:26:24.724Z,,,,,,,,,,,,,,,,,54,,,,,,,,,,,,,,264.81600000007893,,response,,,,100,,,,,,,Space,keypress(Space),,,,,,,,-- --- ---- --- ------ ----- ------- ---- -- --- ------- --<br>------- ---------- ------ -- ----- -- ----- -- ---- ------<br>--- ----- --- --- ------ -------- ----- --- ------ ----- --<br>----- ----- ---------- --- the ------ ------ ---- -- ------<br>------- --- ------ ----- --- ---- ------- -- ---- --- --<br>------- ------,151296.5,151296.1000000001,151014.68,151017,151031.284,151297.918,,37,the
screen,html.Screen,2_1_1_1_38,2022-05-02T11:26:24.928Z,,,,,,,,,,,,,,,,,54,,,,,,,,,,,,,,202.2819999999483,,response,,,,100,,,,,,,Space,keypress(Space),,,,,,,,-- --- ---- --- ------ ----- ------- ---- -- --- ------- --<br>------- ---------- ------ -- ----- -- ----- -- ---- ------<br>--- ----- --- --- ------ -------- ----- --- ------ ----- --<br>----- ----- ---------- --- --- market ------ ---- -- ------<br>------- --- ------ ----- --- ---- ------- -- ---- --- --<br>------- ------,151500.6000000001,151500.19999999995,151281.264,151296.6000000001,151297.918,151514.774,,38,market
screen,html.Screen,2_1_1_1_39,2022-05-02T11:26:25.362Z,,,,,,,,,,,,,,,,,54,,,,,,,,,,,,,,419.7259999999951,,response,,,,100,,,,,,,Space,keypress(Space),,,,,,,,-- --- ---- --- ------ ----- ------- ---- -- --- ------- --<br>------- ---------- ------ -- ----- -- ----- -- ---- ------<br>--- ----- --- --- ------ -------- ----- --- ------ ----- --<br>----- ----- ---------- --- --- ------ became ---- -- ------<br>------- --- ------ ----- --- ---- ------- -- ---- --- --<br>------- ------,151935,151934.5,151497.968,151500.69999999995,151514.774,151947.96,,39,became
screen,html.Screen,2_1_1_1_40,2022-05-02T11:26:25.678Z,,,,,,,,,,,,,,,,,54,,,,,,,,,,,,,,301.8400000000547,,response,,,,100,,,,,,,Space,keypress(Space),,,,,,,,-- --- ---- --- ------ ----- ------- ---- -- --- ------- --<br>------- ---------- ------ -- ----- -- ----- -- ---- ------<br>--- ----- --- --- ------ -------- ----- --- ------ ----- --<br>----- ----- ---------- --- --- ------ ------ wary -- ------<br>------- --- ------ ----- --- ---- ------- -- ---- --- --<br>------- ------,152250.30000000005,152249.80000000005,151931.277,151935.1000000001,151947.96,152264.529,,40,wary
screen,html.Screen,2_1_1_1_41,2022-05-02T11:26:26.004Z,,,,,,,,,,,,,,,,,54,,,,,,,,,,,,,,311.97099999999045,,response,,,,100,,,,,,,Space,keypress(Space),,,,,,,,-- --- ---- --- ------ ----- ------- ---- -- --- ------- --<br>------- ---------- ------ -- ----- -- ----- -- ---- ------<br>--- ----- --- --- ------ -------- ----- --- ------ ----- --<br>----- ----- ---------- --- --- ------ ------ ---- of ------<br>------- --- ------ ----- --- ---- ------- -- ---- --- --<br>------- ------,152577,152576.5,152247.927,152250.3999999999,152264.529,152581.175,,41,of
screen,html.Screen,2_1_1_1_42,2022-05-02T11:26:26.371Z,,,,,,,,,,,,,,,,,54,,,,,,,,,,,,,,362.4250000001048,,response,,,,100,,,,,,,Space,keypress(Space),,,,,,,,-- --- ---- --- ------ ----- ------- ---- -- --- ------- --<br>------- ---------- ------ -- ----- -- ----- -- ---- ------<br>--- ----- --- --- ------ -------- ----- --- ------ ----- --<br>----- ----- ---------- --- --- ------ ------ ---- -- French<br>------- --- ------ ----- --- ---- ------- -- ---- --- --<br>------- ------,152944,152943.6000000001,152564.597,152577.1000000001,152581.175,152947.812,,42,French
screen,html.Screen,2_1_1_1_43,2022-05-02T11:26:26.736Z,,,,,,,,,,,,,,,,,54,,,,,,,,,,,,,,360.68799999999464,,response,,,,100,,,,,,,Space,keypress(Space),,,,,,,,-- --- ---- --- ------ ----- ------- ---- -- --- ------- --<br>------- ---------- ------ -- ----- -- ----- -- ---- ------<br>--- ----- --- --- ------ -------- ----- --- ------ ----- --<br>----- ----- ---------- --- --- ------ ------ ---- -- ------<br>credit. --- ------ ----- --- ---- ------- -- ---- --- --<br>------- ------,153309,153308.5,152931.621,152944,152947.812,153314.553,,43,credit.
screen,html.Screen,2_1_1_1_44,2022-05-02T11:26:27.117Z,,,,,,,,,,,,,,,,,54,,,,,,,,,,,,,,374.84699999989243,,response,,,,100,,,,,,,Space,keypress(Space),,,,,,,,-- --- ---- --- ------ ----- ------- ---- -- --- ------- --<br>------- ---------- ------ -- ----- -- ----- -- ---- ------<br>--- ----- --- --- ------ -------- ----- --- ------ ----- --<br>----- ----- ---------- --- --- ------ ------ ---- -- ------<br>------- The ------ ----- --- ---- ------- -- ---- --- --<br>------- ------,153689.8999999999,153689.3999999999,153297.879,153309,153314.553,153698.262,,44,The
screen,html.Screen,2_1_1_1_45,2022-05-02T11:26:27.338Z,,,,,,,,,,,,,,,,,54,,,,,,,,,,,,,,211.63799999991897,,response,,,,100,,,,,,,Space,keypress(Space),,,,,,,,-- --- ---- --- ------ ----- ------- ---- -- --- ------- --<br>------- ---------- ------ -- ----- -- ----- -- ---- ------<br>--- ----- --- --- ------ -------- ----- --- ------ ----- --<br>----- ----- ---------- --- --- ------ ------ ---- -- ------<br>------- --- French ----- --- ---- ------- -- ---- --- --<br>------- ------,153910.3999999999,153909.8999999999,153681.19,153690,153698.262,153914.679,,45,French
screen,html.Screen,2_1_1_1_46,2022-05-02T11:26:27.563Z,,,,,,,,,,,,,,,,,54,,,,,,,,,,,,,,220.62100000004284,,response,,,,100,,,,,,,Space,keypress(Space),,,,,,,,-- --- ---- --- ------ ----- ------- ---- -- --- ------- --<br>------- ---------- ------ -- ----- -- ----- -- ---- ------<br>--- ----- --- --- ------ -------- ----- --- ------ ----- --<br>----- ----- ---------- --- --- ------ ------ ---- -- ------<br>------- --- ------ state --- ---- ------- -- ---- --- --<br>------- ------,154135.69999999995,154135.30000000005,153898.236,153910.5,153914.679,154147.857,,46,state
screen,html.Screen,2_1_1_1_47,2022-05-02T11:26:27.819Z,,,,,,,,,,,,,,,,,54,,,,,,,,,,,,,,244.0429999999178,,response,,,,100,,,,,,,Space,keypress(Space),,,,,,,,-- --- ---- --- ------ ----- ------- ---- -- --- ------- --<br>------- ---------- ------ -- ----- -- ----- -- ---- ------<br>--- ----- --- --- ------ -------- ----- --- ------ ----- --<br>----- ----- ---------- --- --- ------ ------ ---- -- ------<br>------- --- ------ ----- was ---- ------- -- ---- --- --<br>------- ------,154392.19999999995,154391.8999999999,154131.186,154135.80000000005,154147.857,154398.083,,47,was
screen,html.Screen,2_1_1_1_48,2022-05-02T11:26:28.063Z,,,,,,,,,,,,,,,,,54,,,,,,,,,,,,,,236.8169999998936,,response,,,,100,,,,,,,Space,keypress(Space),,,,,,,,-- --- ---- --- ------ ----- ------- ---- -- --- ------- --<br>------- ---------- ------ -- ----- -- ----- -- ---- ------<br>--- ----- --- --- ------ -------- ----- --- ------ ----- --<br>----- ----- ---------- --- --- ------ ------ ---- -- ------<br>------- --- ------ ----- --- left ------- -- ---- --- --<br>------- ------,154635.3999999999,154634.8999999999,154381.162,154392.19999999995,154398.083,154647.815,,48,left
screen,html.Screen,2_1_1_1_49,2022-05-02T11:26:28.311Z,,,,,,,,,,,,,,,,,54,,,,,,,,,,,,,,235.8849999999511,,response,,,,100,,,,,,,Space,keypress(Space),,,,,,,,-- --- ---- --- ------ ----- ------- ---- -- --- ------- --<br>------- ---------- ------ -- ----- -- ----- -- ---- ------<br>--- ----- --- --- ------ -------- ----- --- ------ ----- --<br>----- ----- ---------- --- --- ------ ------ ---- -- ------<br>------- --- ------ ----- --- ---- without -- ---- --- --<br>------- ------,154884.19999999995,154883.69999999995,154631.349,154635.5,154647.815,154897.891,,49,without
screen,html.Screen,2_1_1_1_50,2022-05-02T11:26:28.569Z,,,,,,,,,,,,,,,,,54,,,,,,,,,,,,,,243.60899999999674,,response,,,,100,,,,,,,Space,keypress(Space),,,,,,,,-- --- ---- --- ------ ----- ------- ---- -- --- ------- --<br>------- ---------- ------ -- ----- -- ----- -- ---- ------<br>--- ----- --- --- ------ -------- ----- --- ------ ----- --<br>----- ----- ---------- --- --- ------ ------ ---- -- ------<br>------- --- ------ ----- --- ---- ------- an ---- --- --<br>------- ------,155142,155141.5,154881.254,154884.30000000005,154897.891,155147.948,,50,an
screen,html.Screen,2_1_1_1_51,2022-05-02T11:26:28.797Z,,,,,,,,,,,,,,,,,54,,,,,,,,,,,,,,221.3520000000426,,response,,,,100,,,,,,,Space,keypress(Space),,,,,,,,-- --- ---- --- ------ ----- ------- ---- -- --- ------- --<br>------- ---------- ------ -- ----- -- ----- -- ---- ------<br>--- ----- --- --- ------ -------- ----- --- ------ ----- --<br>----- ----- ---------- --- --- ------ ------ ---- -- ------<br>------- --- ------ ----- --- ---- ------- -- easy --- --<br>------- ------,155369.6000000001,155369.30000000005,155131.471,155142.1000000001,155147.948,155381.208,,51,easy
screen,html.Screen,2_1_1_1_52,2022-05-02T11:26:29.042Z,,,,,,,,,,,,,,,,,54,,,,,,,,,,,,,,232.79199999998673,,response,,,,100,,,,,,,Space,keypress(Space),,,,,,,,-- --- ---- --- ------ ----- ------- ---- -- --- ------- --<br>------- ---------- ------ -- ----- -- ----- -- ---- ------<br>--- ----- --- --- ------ -------- ----- --- ------ ----- --<br>----- ----- ---------- --- --- ------ ------ ---- -- ------<br>------- --- ------ ----- --- ---- ------- -- ---- way --<br>------- ------,155614.3999999999,155614,155364.683,155369.69999999995,155381.208,155631.153,,52,way
screen,html.Screen,2_1_1_1_53,2022-05-02T11:26:29.308Z,,,,,,,,,,,,,,,,,54,,,,,,,,,,,,,,249.54699999996228,,response,,,,100,,,,,,,Space,keypress(Space),,,,,,,,-- --- ---- --- ------ ----- ------- ---- -- --- ------- --<br>------- ---------- ------ -- ----- -- ----- -- ---- ------<br>--- ----- --- --- ------ -------- ----- --- ------ ----- --<br>----- ----- ---------- --- --- ------ ------ ---- -- ------<br>------- --- ------ ----- --- ---- ------- -- ---- --- of<br>------- ------,155881.19999999995,155880.69999999995,155614.651,155614.5,155631.153,155897.844,,53,of
screen,html.Screen,2_1_1_1_54,2022-05-02T11:26:29.642Z,,,,,,,,,,,,,,,,,54,,,,,,,,,,,,,,316.555999999895,,response,,,,100,,,,,,,Space,keypress(Space),,,,,,,,-- --- ---- --- ------ ----- ------- ---- -- --- ------- --<br>------- ---------- ------ -- ----- -- ----- -- ---- ------<br>--- ----- --- --- ------ -------- ----- --- ------ ----- --<br>----- ----- ---------- --- --- ------ ------ ---- -- ------<br>------- --- ------ ----- --- ---- ------- -- ---- --- --<br>raising ------,156215,156214.3999999999,155881.461,155881.30000000005,155897.844,156231.045,,54,raising
screen,html.Screen,2_1_1_1_55,2022-05-02T11:26:29.946Z,,,,,,,,,,,,,,,,,54,,,,,,,,,,,,,,287.4549999999872,,response,,,,100,,,,,,,Space,keypress(Space),,,,,,,,-- --- ---- --- ------ ----- ------- ---- -- --- ------- --<br>------- ---------- ------ -- ----- -- ----- -- ---- ------<br>--- ----- --- --- ------ -------- ----- --- ------ ----- --<br>----- ----- ---------- --- --- ------ ------ ---- -- ------<br>------- --- ------ ----- --- ---- ------- -- ---- --- --<br>------- money.,156518.8999999999,156518.5,156214.621,156215,156231.045,156531.087,,55,money.
Item 100,flow.Loop,2_1_1_1,2022-05-02T11:26:29.946Z,,,,,,,,,,,,,,,,,,,,,,,,,,,,,,,18553.258,,completion,,,,,F,,,,,,,,,,,silence,,,,,156519,156518.5,137948.494,137949.19999999995,137965.242,156531.087,,,
Question 1,html.Screen,2_1_1_2,2022-05-02T11:26:31.951Z,,,,,,,,,,,,,,,,,,,,,,,,,,,,true,TRUE,,1991.612999999954,,response,,,,100,F,,,,,,TRUE,click #choice-1,,,,silence,,,,,158523.3999999999,158522.69999999995,156514.396,156519,156531.087,158531.097,,,
Question 2,html.Screen,2_1_1_3,2022-05-02T11:26:33.788Z,,,,,,,,,,,,,,,,,,,,,,,,,,,,true,FALSE,,1829.2030000000377,,response,,,,100,F,,,,,,FALSE,click #choice-2,,,,silence,,,,,160361.19999999995,160360.30000000005,158514.296,158523.5,158531.097,160364.346,,,
Item 100,flow.Sequence,2_1_1,2022-05-02T11:26:33.788Z,,,,,,,,,,,,,,,,,,,,,,,,,,,,,,,32394.40800000004,,completion,,,,,,,,,,,,,,,,,,,,,160361.19999999995,160360.30000000005,127948.997,127958.5,127965.892,160364.346,,,
End of Practice,html.Page,2_1_2,2022-05-02T11:26:36.712Z,,,,,,,,,,,,,,,,,,,,,,,,,,,,,,,2920.5539999999164,,form submission,,,,,,,,,,,,,,,,,,,,,163285.1000000001,163284.8999999999,160347.566,160361.30000000005,160364.346,163297.507,,,
Practice,flow.Sequence,2_1,2022-05-02T11:26:36.712Z,,,,,,,,,,,,,,,,,,,,,,,,,,,,,,,71551.01899999991,,completion,,,,,,,,,,,,,,,,,,,,,163285.19999999995,163284.8999999999,91717.261,91727.3999999999,91733.881,163297.507,,,
Trap_instruction,html.Page,2_2_0,2022-05-02T11:26:39.390Z,,,,,,,,,,,,,,,,,,,,,,,,,,,,,,,2665.192999999941,,form submission,,,,,,,,,,,,,,,,,,,,,165962.8999999999,165962.69999999995,163280.771,163285.19999999995,163297.507,165963.979,,,
trap_trial,html.Screen,2_2_1,2022-05-02T11:26:42.671Z,,,,,,,,,,,,,,,,,,,,,,,,,,,,true,1,,3278.7209999999614,,response,,,,,,,,,,,1,click #choice-1,,,,,,,,,169243.5,169242.69999999995,165947.401,165962.8999999999,165963.979,169247.159,,,
end of trap trial,html.Page,2_2_2,2022-05-02T11:26:44.411Z,,,,,,,,,,,,,,,,,,,,,,,,,,,,,,,1736.941000000079,,form submission,,,,,,,,,,,,,,,,,,,,,170984.19999999995,170984.1000000001,169230.524,169243.6000000001,169247.159,170997.126,,,
Trap 1,flow.Sequence,2_2,2022-05-02T11:26:44.412Z,,,,,,,,,,,,,,,,,,,,,,,,,,,,,,,7686.593000000081,,completion,,,,,,,,,,,,,,,,,,,,,170984.30000000005,170984.1000000001,163280.771,163285.19999999995,163297.507,170997.126,,,
Standby,html.Page,2_3_0,2022-05-02T11:26:52.408Z,,,,,,,,,,,,,,,,,,,,,,,,,,,,,,,7999.6050000000105,,timeout,,,,,,,,,,,,,,,,,,,,,178981.19999999995,178980.044,170980.397,170984.30000000005,170997.126,178996.731,,,
Holding screen,html.Screen,2_3_1_0_0,2022-05-02T11:26:59.408Z,,,,,,,,,,,,,,,,,,,,,,,,,,,,,,,7000.08600000001,,timeout,,,,,,,,,,,,,,,,,,,,,185980.80000000005,185980.106,178980.044,178981.30000000005,178996.731,185996.817,,,
screen,html.Screen,2_3_1_0_1_0,2022-05-02T11:27:00.583Z,,,,,,,,,,,,,,,,,51,,,,,,,,,,,,,,1158.8829999999434,,response,,,,13,F,,,,,,Space,keypress(Space),,,,lyrical,,,,American -------- --- --- ---- --- --- ------ -- --------<br>---- --------- --- ------- ------------ ---------- ---------<br>--- ---------- ------- ---------- ------- -- -------- ----<br>---- --- ------ ----- ------ -- ---- --- ----- -- - -------<br>-------- -- --- --- -- ----- ----------- ----- -----------<br>---- --- ---------- --- ---- --- -- ----------,187156.19999999995,187155.69999999995,185980.106,185981.1000000001,185996.817,187163.073,,0,American
screen,html.Screen,2_3_1_0_1_1,2022-05-02T11:27:01.023Z,,,,,,,,,,,,,,,,,51,,,,,,,,,,,,,,432.2270000000426,,response,,,,13,F,,,,,,Space,keypress(Space),,,,lyrical,,,,-------- industry --- --- ---- --- --- ------ -- --------<br>---- --------- --- ------- ------------ ---------- ---------<br>--- ---------- ------- ---------- ------- -- -------- ----<br>---- --- ------ ----- ------ -- ---- --- ----- -- - -------<br>-------- -- --- --- -- ----- ----------- ----- -----------<br>---- --- ---------- --- ---- --- -- ----------,187595.80000000005,187595.30000000005,187146.435,187156.30000000005,187163.073,187613.059,,1,industry
screen,html.Screen,2_3_1_0_1_2,2022-05-02T11:27:01.431Z,,,,,,,,,,,,,,,,,51,,,,,,,,,,,,,,389.54100000008475,,response,,,,13,F,,,,,,Space,keypress(Space),,,,lyrical,,,,-------- -------- may --- ---- --- --- ------ -- --------<br>---- --------- --- ------- ------------ ---------- ---------<br>--- ---------- ------- ---------- ------- -- -------- ----<br>---- --- ------ ----- ------ -- ---- --- ----- -- - -------<br>-------- -- --- --- -- ----- ----------- ----- -----------<br>---- --- ---------- --- ---- --- -- ----------,188003.30000000005,188002.6000000001,187580.117,187596.3999999999,187613.059,188013.435,,2,may
screen,html.Screen,2_3_1_0_1_3,2022-05-02T11:27:01.834Z,,,,,,,,,,,,,,,,,51,,,,,,,,,,,,,,393.3650000000489,,response,,,,13,F,,,,,,Space,keypress(Space),,,,lyrical,,,,-------- -------- --- not ---- --- --- ------ -- --------<br>---- --------- --- ------- ------------ ---------- ---------<br>--- ---------- ------- ---------- ------- -- -------- ----<br>---- --- ------ ----- ------ -- ---- --- ----- -- - -------<br>-------- -- --- --- -- ----- ----------- ----- -----------<br>---- --- ---------- --- ---- --- -- ----------,188407.19999999995,188406.80000000005,187996.371,188003.30000000005,188013.435,188413.011,,3,not
screen,html.Screen,2_3_1_0_1_4,2022-05-02T11:27:02.200Z,,,,,,,,,,,,,,,,,51,,,,,,,,,,,,,,359.78900000004796,,response,,,,13,F,,,,,,Space,keypress(Space),,,,lyrical,,,,-------- -------- --- --- know --- --- ------ -- --------<br>---- --------- --- ------- ------------ ---------- ---------<br>--- ---------- ------- ---------- ------- -- -------- ----<br>---- --- ------ ----- ------ -- ---- --- ----- -- - -------<br>-------- -- --- --- -- ----- ----------- ----- -----------<br>---- --- ---------- --- ---- --- -- ----------,188773.1000000001,188772.80000000005,188396.361,188407.30000000005,188413.011,188779.689,,4,know
screen,html.Screen,2_3_1_0_1_5,2022-05-02T11:27:02.615Z,,,,,,,,,,,,,,,,,51,,,,,,,,,,,,,,407.81099999998696,,response,,,,13,F,,,,,,Space,keypress(Space),,,,lyrical,,,,"-------- -------- --- --- ---- it, --- ------ -- --------<br>---- --------- --- ------- ------------ ---------- ---------<br>--- ---------- ------- ---------- ------- -- -------- ----<br>---- --- ------ ----- ------ -- ---- --- ----- -- - -------<br>-------- -- --- --- -- ----- ----------- ----- -----------<br>---- --- ---------- --- ---- --- -- ----------",189188,189187.5,188762.993,188773.19999999995,188779.689,189196.329,,5,"it,"
screen,html.Screen,2_3_1_0_1_6,2022-05-02T11:27:03.217Z,,,,,,,,,,,,,,,,,51,,,,,,,,,,,,,,592.6710000000021,,response,,,,13,F,,,,,,Space,keypress(Space),,,,lyrical,,,,-------- -------- --- --- ---- --- but ------ -- --------<br>---- --------- --- ------- ------------ ---------- ---------<br>--- ---------- ------- ---------- ------- -- -------- ----<br>---- --- ------ ----- ------ -- ---- --- ----- -- - -------<br>-------- -- --- --- -- ----- ----------- ----- -----------<br>---- --- ---------- --- ---- --- -- ----------,189789.5,189789,189179.644,189188.1000000001,189196.329,189796.285,,6,but
screen,html.Screen,2_3_1_0_1_7,2022-05-02T11:27:03.524Z,,,,,,,,,,,,,,,,,51,,,,,,,,,,,,,,299.91499999994994,,response,,,,13,F,,,,,,Space,keypress(Space),,,,lyrical,,,,-------- -------- --- --- ---- --- --- debate -- --------<br>---- --------- --- ------- ------------ ---------- ---------<br>--- ---------- ------- ---------- ------- -- -------- ----<br>---- --- ------ ----- ------ -- ---- --- ----- -- - -------<br>-------- -- --- --- -- ----- ----------- ----- -----------<br>---- --- ---------- --- ---- --- -- ----------,190096.80000000005,190096.19999999995,189779.581,189789.6000000001,189796.285,190113.013,,7,debate
screen,html.Screen,2_3_1_0_1_8,2022-05-02T11:27:03.855Z,,,,,,,,,,,,,,,,,51,,,,,,,,,,,,,,314.08700000008685,,response,,,,13,F,,,,,,Space,keypress(Space),,,,lyrical,,,,-------- -------- --- --- ---- --- --- ------ in --------<br>---- --------- --- ------- ------------ ---------- ---------<br>--- ---------- ------- ---------- ------- -- -------- ----<br>---- --- ------ ----- ------ -- ---- --- ----- -- - -------<br>-------- -- --- --- -- ----- ----------- ----- -----------<br>---- --- ---------- --- ---- --- -- ----------,190427.5,190427.1000000001,190096.277,190096.8999999999,190113.013,190429.589,,8,in
screen,html.Screen,2_3_1_0_1_9,2022-05-02T11:27:04.226Z,,,,,,,,,,,,,,,,,51,,,,,,,,,,,,,,368.81099999989965,,response,,,,13,F,,,,,,Space,keypress(Space),,,,lyrical,,,,-------- -------- --- --- ---- --- --- ------ -- Congress<br>---- --------- --- ------- ------------ ---------- ---------<br>--- ---------- ------- ---------- ------- -- -------- ----<br>---- --- ------ ----- ------ -- ---- --- ----- -- - -------<br>-------- -- --- --- -- ----- ----------- ----- -----------<br>---- --- ---------- --- ---- --- -- ----------,190798.8999999999,190798.3999999999,190412.972,190427.69999999995,190429.589,190812.934,,9,Congress
screen,html.Screen,2_3_1_0_1_10,2022-05-02T11:27:04.666Z,,,,,,,,,,,,,,,,,51,,,,,,,,,,,,,,425.16600000008475,,response,,,,13,F,,,,,,Space,keypress(Space),,,,lyrical,,,,-------- -------- --- --- ---- --- --- ------ -- --------<br>over --------- --- ------- ------------ ---------- ---------<br>--- ---------- ------- ---------- ------- -- -------- ----<br>---- --- ------ ----- ------ -- ---- --- ----- -- - -------<br>-------- -- --- --- -- ----- ----------- ----- -----------<br>---- --- ---------- --- ---- --- -- ----------,191238.6000000001,191238.1000000001,190796.183,190798.8999999999,190812.934,191246.569,,10,over
screen,html.Screen,2_3_1_0_1_11,2022-05-02T11:27:05.162Z,,,,,,,,,,,,,,,,,51,,,,,,,,,,,,,,487.8309999999183,,response,,,,13,F,,,,,,Space,keypress(Space),,,,lyrical,,,,-------- -------- --- --- ---- --- --- ------ -- --------<br>---- reforming --- ------- ------------ ---------- ---------<br>--- ---------- ------- ---------- ------- -- -------- ----<br>---- --- ------ ----- ------ -- ---- --- ----- -- - -------<br>-------- -- --- --- -- ----- ----------- ----- -----------<br>---- --- ---------- --- ---- --- -- ----------,191735,191734.3999999999,191229.583,191238.6000000001,191246.569,191746.224,,11,reforming
screen,html.Screen,2_3_1_0_1_12,2022-05-02T11:27:05.597Z,,,,,,,,,,,,,,,,,51,,,,,,,,,,,,,,422.975999999966,,response,,,,13,F,,,,,,Space,keypress(Space),,,,lyrical,,,,-------- -------- --- --- ---- --- --- ------ -- --------<br>---- --------- the ------- ------------ ---------- ---------<br>--- ---------- ------- ---------- ------- -- -------- ----<br>---- --- ------ ----- ------ -- ---- --- ----- -- - -------<br>-------- -- --- --- -- ----- ----------- ----- -----------<br>---- --- ---------- --- ---- --- -- ----------,192169.6000000001,192169.19999999995,191729.542,191735.19999999995,191746.224,192179.446,,12,the
screen,html.Screen,2_3_1_0_1_13,2022-05-02T11:27:06.040Z,,,,,,,,,,,,,,,,,51,,,,,,,,,,,,,,432.65400000009686,,response,,,,13,F,,,,,,Space,keypress(Space),,,,lyrical,,,,-------- -------- --- --- ---- --- --- ------ -- --------<br>---- --------- --- federal ------------ ---------- ---------<br>--- ---------- ------- ---------- ------- -- -------- ----<br>---- --- ------ ----- ------ -- ---- --- ----- -- - -------<br>-------- -- --- --- -- ----- ----------- ----- -----------<br>---- --- ---------- --- ---- --- -- ----------,192612.8999999999,192612.1000000001,192162.802,192169.6000000001,192179.446,192646.146,,13,federal
screen,html.Screen,2_3_1_0_1_14,2022-05-02T11:27:06.654Z,,,,,,,,,,,,,,,,,51,,,,,,,,,,,,,,580.0539999999455,,response,,,,13,F,,,,,,Space,keypress(Space),,,,lyrical,,,,-------- -------- --- --- ---- --- --- ------ -- --------<br>---- --------- --- ------- government's ---------- ---------<br>--- ---------- ------- ---------- ------- -- -------- ----<br>---- --- ------ ----- ------ -- ---- --- ----- -- - -------<br>-------- -- --- --- -- ----- ----------- ----- -----------<br>---- --- ---------- --- ---- --- -- ----------,193226.5,193226.19999999995,192629.448,192613,192646.146,193229.43,,14,government's
screen,html.Screen,2_3_1_0_1_15,2022-05-02T11:27:07.461Z,,,,,,,,,,,,,,,,,51,,,,,,,,,,,,,,803.6700000001001,,response,,,,13,F,,,,,,Space,keypress(Space),,,,lyrical,,,,-------- -------- --- --- ---- --- --- ------ -- --------<br>---- --------- --- ------- ------------ regulatory ---------<br>--- ---------- ------- ---------- ------- -- -------- ----<br>---- --- ------ ----- ------ -- ---- --- ----- -- - -------<br>-------- -- --- --- -- ----- ----------- ----- -----------<br>---- --- ---------- --- ---- --- -- ----------,194033.5,194033.1000000001,193212.85,193226.6000000001,193229.43,194046.107,,15,regulatory
screen,html.Screen,2_3_1_0_1_16,2022-05-02T11:27:08.742Z,,,,,,,,,,,,,,,,,51,,,,,,,,,,,,,,1267.893000000011,,response,,,,13,F,,,,,,Space,keypress(Space),,,,lyrical,,,,-------- -------- --- --- ---- --- --- ------ -- --------<br>---- --------- --- ------- ------------ ---------- apparatus<br>--- ---------- ------- ---------- ------- -- -------- ----<br>---- --- ------ ----- ------ -- ---- --- ----- -- - -------<br>-------- -- --- --- -- ----- ----------- ----- -----------<br>---- --- ---------- --- ---- --- -- ----------,195314.5,195314,194029.452,194033.5,194046.107,195329.565,,16,apparatus
screen,html.Screen,2_3_1_0_1_17,2022-05-02T11:27:09.213Z,,,,,,,,,,,,,,,,,51,,,,,,,,,,,,,,455.9349999999977,,response,,,,13,F,,,,,,Space,keypress(Space),,,,lyrical,,,,-------- -------- --- --- ---- --- --- ------ -- --------<br>---- --------- --- ------- ------------ ---------- ---------<br>may ---------- ------- ---------- ------- -- -------- ----<br>---- --- ------ ----- ------ -- ---- --- ----- -- - -------<br>-------- -- --- --- -- ----- ----------- ----- -----------<br>---- --- ---------- --- ---- --- -- ----------,195786,195785.5,195312.703,195314.69999999995,195329.565,195796.346,,17,may
screen,html.Screen,2_3_1_0_1_18,2022-05-02T11:27:09.541Z,,,,,,,,,,,,,,,,,51,,,,,,,,,,,,,,316.353999999963,,response,,,,13,F,,,,,,Space,keypress(Space),,,,lyrical,,,,-------- -------- --- --- ---- --- --- ------ -- --------<br>---- --------- --- ------- ------------ ---------- ---------<br>--- profoundly ------- ---------- ------- -- -------- ----<br>---- --- ------ ----- ------ -- ---- --- ----- -- - -------<br>-------- -- --- --- -- ----- ----------- ----- -----------<br>---- --- ---------- --- ---- --- -- ----------,196113.3999999999,196112.69999999995,195779.399,195786,195796.346,196129.33,,18,profoundly
screen,html.Screen,2_3_1_0_1_19,2022-05-02T11:27:10.024Z,,,,,,,,,,,,,,,,,51,,,,,,,,,,,,,,467.27000000010594,,response,,,,13,F,,,,,,Space,keypress(Space),,,,lyrical,,,,-------- -------- --- --- ---- --- --- ------ -- --------<br>---- --------- --- ------- ------------ ---------- ---------<br>--- ---------- improve ---------- ------- -- -------- ----<br>---- --- ------ ----- ------ -- ---- --- ----- -- - -------<br>-------- -- --- --- -- ----- ----------- ----- -----------<br>---- --- ---------- --- ---- --- -- ----------,196596.80000000005,196596.6000000001,196112.651,196113.5,196129.33,196612.671,,19,improve
screen,html.Screen,2_3_1_0_1_20,2022-05-02T11:27:10.393Z,,,,,,,,,,,,,,,,,51,,,,,,,,,,,,,,353.12900000004447,,response,,,,13,F,,,,,,Space,keypress(Space),,,,lyrical,,,,-------- -------- --- --- ---- --- --- ------ -- --------<br>---- --------- --- ------- ------------ ---------- ---------<br>--- ---------- ------- companies' ------- -- -------- ----<br>---- --- ------ ----- ------ -- ---- --- ----- -- - -------<br>-------- -- --- --- -- ----- ----------- ----- -----------<br>---- --- ---------- --- ---- --- -- ----------,196966.1000000001,196965.80000000005,196595.998,196597,196612.671,196979.313,,20,companies'
screen,html.Screen,2_3_1_0_1_21,2022-05-02T11:27:10.820Z,,,,,,,,,,,,,,,,,51,,,,,,,,,,,,,,412.4870000000519,,response,,,,13,F,,,,,,Space,keypress(Space),,,,lyrical,,,,-------- -------- --- --- ---- --- --- ------ -- --------<br>---- --------- --- ------- ------------ ---------- ---------<br>--- ---------- ------- ---------- ability -- -------- ----<br>---- --- ------ ----- ------ -- ---- --- ----- -- - -------<br>-------- -- --- --- -- ----- ----------- ----- -----------<br>---- --- ---------- --- ---- --- -- ----------,197392.3999999999,197391.80000000005,196962.664,196966.19999999995,196979.313,197395.891,,21,ability
screen,html.Screen,2_3_1_0_1_22,2022-05-02T11:27:11.198Z,,,,,,,,,,,,,,,,,51,,,,,,,,,,,,,,374.60899999999674,,response,,,,13,F,,,,,,Space,keypress(Space),,,,lyrical,,,,-------- -------- --- --- ---- --- --- ------ -- --------<br>---- --------- --- ------- ------------ ---------- ---------<br>--- ---------- ------- ---------- ------- to -------- ----<br>---- --- ------ ----- ------ -- ---- --- ----- -- - -------<br>-------- -- --- --- -- ----- ----------- ----- -----------<br>---- --- ---------- --- ---- --- -- ----------,197770.8999999999,197770.5,197379.32,197392.5,197395.891,197779.411,,22,to
screen,html.Screen,2_3_1_0_1_23,2022-05-02T11:27:11.401Z,,,,,,,,,,,,,,,,,51,,,,,,,,,,,,,,193.98899999991409,,response,,,,13,F,,,,,,Space,keypress(Space),,,,lyrical,,,,-------- -------- --- --- ---- --- --- ------ -- --------<br>---- --------- --- ------- ------------ ---------- ---------<br>--- ---------- ------- ---------- ------- -- survive. ----<br>---- --- ------ ----- ------ -- ---- --- ----- -- - -------<br>-------- -- --- --- -- ----- ----------- ----- -----------<br>---- --- ---------- --- ---- --- -- ----------,197974,197973.3999999999,197762.622,197770.8999999999,197779.411,197979.282,,23,survive.
screen,html.Screen,2_3_1_0_1_24,2022-05-02T11:27:12.039Z,,,,,,,,,,,,,,,,,51,,,,,,,,,,,,,,631.9179999999469,,response,,,,13,F,,,,,,Space,keypress(Space),,,,lyrical,,,,-------- -------- --- --- ---- --- --- ------ -- --------<br>---- --------- --- ------- ------------ ---------- ---------<br>--- ---------- ------- ---------- ------- -- -------- This<br>---- --- ------ ----- ------ -- ---- --- ----- -- - -------<br>-------- -- --- --- -- ----- ----------- ----- -----------<br>---- --- ---------- --- ---- --- -- ----------,198611.69999999995,198611.19999999995,197962.6,197974.1000000001,197979.282,198637.674,,24,This
screen,html.Screen,2_3_1_0_1_25,2022-05-02T11:27:12.446Z,,,,,,,,,,,,,,,,,51,,,,,,,,,,,,,,380.92600000009406,,response,,,,13,F,,,,,,Space,keypress(Space),,,,lyrical,,,,-------- -------- --- --- ---- --- --- ------ -- --------<br>---- --------- --- ------- ------------ ---------- ---------<br>--- ---------- ------- ---------- ------- -- -------- ----<br>week --- ------ ----- ------ -- ---- --- ----- -- - -------<br>-------- -- --- --- -- ----- ----------- ----- -----------<br>---- --- ---------- --- ---- --- -- ----------,199019.19999999995,199018.6000000001,198595.944,198611.80000000005,198637.674,199029.149,,25,week
screen,html.Screen,2_3_1_0_1_26,2022-05-02T11:27:12.620Z,,,,,,,,,,,,,,,,,51,,,,,,,,,,,,,,163.25099999990198,,response,,,,13,F,,,,,,Space,keypress(Space),,,,lyrical,,,,-------- -------- --- --- ---- --- --- ------ -- --------<br>---- --------- --- ------- ------------ ---------- ---------<br>--- ---------- ------- ---------- ------- -- -------- ----<br>---- the ------ ----- ------ -- ---- --- ----- -- - -------<br>-------- -- --- --- -- ----- ----------- ----- -----------<br>---- --- ---------- --- ---- --- -- ----------,199192.69999999995,199192.3999999999,199012.58,199019.19999999995,199029.149,199195.82,,26,the
screen,html.Screen,2_3_1_0_1_27,2022-05-02T11:27:13.018Z,,,,,,,,,,,,,,,,,51,,,,,,,,,,,,,,394.5799999998999,,response,,,,13,F,,,,,,Space,keypress(Space),,,,lyrical,,,,-------- -------- --- --- ---- --- --- ------ -- --------<br>---- --------- --- ------- ------------ ---------- ---------<br>--- ---------- ------- ---------- ------- -- -------- ----<br>---- --- Senate ----- ------ -- ---- --- ----- -- - -------<br>-------- -- --- --- -- ----- ----------- ----- -----------<br>---- --- ---------- --- ---- --- -- ----------,199591,199590.3999999999,199179.6,199192.80000000005,199195.82,199595.788,,27,Senate
screen,html.Screen,2_3_1_0_1_28,2022-05-02T11:27:13.451Z,,,,,,,,,,,,,,,,,51,,,,,,,,,,,,,,427.41199999995297,,response,,,,13,F,,,,,,Space,keypress(Space),,,,lyrical,,,,-------- -------- --- --- ---- --- --- ------ -- --------<br>---- --------- --- ------- ------------ ---------- ---------<br>--- ---------- ------- ---------- ------- -- -------- ----<br>---- --- ------ seems ------ -- ---- --- ----- -- - -------<br>-------- -- --- --- -- ----- ----------- ----- -----------<br>---- --- ---------- --- ---- --- -- ----------,200023.6000000001,200023.19999999995,199579.205,199591.19999999995,199595.788,200029.142,,28,seems
screen,html.Screen,2_3_1_0_1_29,2022-05-02T11:27:13.818Z,,,,,,,,,,,,,,,,,51,,,,,,,,,,,,,,361.158000000054,,response,,,,13,F,,,,,,Space,keypress(Space),,,,lyrical,,,,-------- -------- --- --- ---- --- --- ------ -- --------<br>---- --------- --- ------- ------------ ---------- ---------<br>--- ---------- ------- ---------- ------- -- -------- ----<br>---- --- ------ ----- poised -- ---- --- ----- -- - -------<br>-------- -- --- --- -- ----- ----------- ----- -----------<br>---- --- ---------- --- ---- --- -- ----------,200391,200390.30000000005,200012.47,200023.6000000001,200029.142,200395.766,,29,poised
screen,html.Screen,2_3_1_0_1_30,2022-05-02T11:27:14.039Z,,,,,,,,,,,,,,,,,51,,,,,,,,,,,,,,215.73399999999674,,response,,,,13,F,,,,,,Space,keypress(Space),,,,lyrical,,,,-------- -------- --- --- ---- --- --- ------ -- --------<br>---- --------- --- ------- ------------ ---------- ---------<br>--- ---------- ------- ---------- ------- -- -------- ----<br>---- --- ------ ----- ------ to ---- --- ----- -- - -------<br>-------- -- --- --- -- ----- ----------- ----- -----------<br>---- --- ---------- --- ---- --- -- ----------,200612,200611.5,200379.187,200391,200395.766,200629.11,,30,to
screen,html.Screen,2_3_1_0_1_31,2022-05-02T11:27:14.258Z,,,,,,,,,,,,,,,,,51,,,,,,,,,,,,,,200.5899999999674,,response,,,,13,F,,,,,,Space,keypress(Space),,,,lyrical,,,,-------- -------- --- --- ---- --- --- ------ -- --------<br>---- --------- --- ------- ------------ ---------- ---------<br>--- ---------- ------- ---------- ------- -- -------- ----<br>---- --- ------ ----- ------ -- join --- ----- -- - -------<br>-------- -- --- --- -- ----- ----------- ----- -----------<br>---- --- ---------- --- ---- --- -- ----------,200830.30000000005,200829.69999999995,200595.791,200612.1000000001,200629.11,200846.032,,31,join
screen,html.Screen,2_3_1_0_1_32,2022-05-02T11:27:14.614Z,,,,,,,,,,,,,,,,,51,,,,,,,,,,,,,,340.5680000000866,,response,,,,13,F,,,,,,Space,keypress(Space),,,,lyrical,,,,-------- -------- --- --- ---- --- --- ------ -- --------<br>---- --------- --- ------- ------------ ---------- ---------<br>--- ---------- ------- ---------- ------- -- -------- ----<br>---- --- ------ ----- ------ -- ---- the ----- -- - -------<br>-------- -- --- --- -- ----- ----------- ----- -----------<br>---- --- ---------- --- ---- --- -- ----------,201187.19999999995,201186.6000000001,200829.138,200830.5,200846.032,201196.111,,32,the
screen,html.Screen,2_3_1_0_1_33,2022-05-02T11:27:15.012Z,,,,,,,,,,,,,,,,,51,,,,,,,,,,,,,,388.3889999999956,,response,,,,13,F,,,,,,Space,keypress(Space),,,,lyrical,,,,-------- -------- --- --- ---- --- --- ------ -- --------<br>---- --------- --- ------- ------------ ---------- ---------<br>--- ---------- ------- ---------- ------- -- -------- ----<br>---- --- ------ ----- ------ -- ---- --- House -- - -------<br>-------- -- --- --- -- ----- ----------- ----- -----------<br>---- --- ---------- --- ---- --- -- ----------,201584.8999999999,201584.5,201179.178,201187.30000000005,201196.111,201595.767,,33,House
screen,html.Screen,2_3_1_0_1_34,2022-05-02T11:27:15.331Z,,,,,,,,,,,,,,,,,51,,,,,,,,,,,,,,307.6329999999143,,response,,,,13,F,,,,,,Space,keypress(Space),,,,lyrical,,,,-------- -------- --- --- ---- --- --- ------ -- --------<br>---- --------- --- ------- ------------ ---------- ---------<br>--- ---------- ------- ---------- ------- -- -------- ----<br>---- --- ------ ----- ------ -- ---- --- ----- in - -------<br>-------- -- --- --- -- ----- ----------- ----- -----------<br>---- --- ---------- --- ---- --- -- ----------,201903.80000000005,201903.3999999999,201579.089,201585,201595.767,201912.397,,34,in
screen,html.Screen,2_3_1_0_1_35,2022-05-02T11:27:15.556Z,,,,,,,,,,,,,,,,,51,,,,,,,,,,,,,,215.30299999995623,,response,,,,13,F,,,,,,Space,keypress(Space),,,,lyrical,,,,-------- -------- --- --- ---- --- --- ------ -- --------<br>---- --------- --- ------- ------------ ---------- ---------<br>--- ---------- ------- ---------- ------- -- -------- ----<br>---- --- ------ ----- ------ -- ---- --- ----- -- a -------<br>-------- -- --- --- -- ----- ----------- ----- -----------<br>---- --- ---------- --- ---- --- -- ----------,202128.30000000005,202127.69999999995,201895.723,201903.8999999999,201912.397,202155.045,,35,a
screen,html.Screen,2_3_1_0_1_36,2022-05-02T11:27:16.153Z,,,,,,,,,,,,,,,,,51,,,,,,,,,,,,,,569.9549999999872,,response,,,,13,F,,,,,,Space,keypress(Space),,,,lyrical,,,,-------- -------- --- --- ---- --- --- ------ -- --------<br>---- --------- --- ------- ------------ ---------- ---------<br>--- ---------- ------- ---------- ------- -- -------- ----<br>---- --- ------ ----- ------ -- ---- --- ----- -- - massive<br>-------- -- --- --- -- ----- ----------- ----- -----------<br>---- --- ---------- --- ---- --- -- ----------,202725.3999999999,202725,202112.434,202128.5,202155.045,202728.982,,36,massive
screen,html.Screen,2_3_1_0_1_37,2022-05-02T11:27:16.574Z,,,,,,,,,,,,,,,,,51,,,,,,,,,,,,,,417.1180000001041,,response,,,,13,F,,,,,,Space,keypress(Space),,,,lyrical,,,,-------- -------- --- --- ---- --- --- ------ -- --------<br>---- --------- --- ------- ------------ ---------- ---------<br>--- ---------- ------- ---------- ------- -- -------- ----<br>---- --- ------ ----- ------ -- ---- --- ----- -- - -------<br>overhaul -- --- --- -- ----- ----------- ----- -----------<br>---- --- ---------- --- ---- --- -- ----------,203146.6000000001,203146.1000000001,202712.367,202725.6000000001,202728.982,203162.424,,37,overhaul
screen,html.Screen,2_3_1_0_1_38,2022-05-02T11:27:16.782Z,,,,,,,,,,,,,,,,,51,,,,,,,,,,,,,,191.3760000000475,,response,,,,13,F,,,,,,Space,keypress(Space),,,,lyrical,,,,-------- -------- --- --- ---- --- --- ------ -- --------<br>---- --------- --- ------- ------------ ---------- ---------<br>--- ---------- ------- ---------- ------- -- -------- ----<br>---- --- ------ ----- ------ -- ---- --- ----- -- - -------<br>-------- of --- --- -- ----- ----------- ----- -----------<br>---- --- ---------- --- ---- --- -- ----------,203354.3999999999,203353.80000000005,203145.72,203146.69999999995,203162.424,203362.399,,38,of
screen,html.Screen,2_3_1_0_1_39,2022-05-02T11:27:16.972Z,,,,,,,,,,,,,,,,,51,,,,,,,,,,,,,,182.00099999990198,,response,,,,13,F,,,,,,Space,keypress(Space),,,,lyrical,,,,-------- -------- --- --- ---- --- --- ------ -- --------<br>---- --------- --- ------- ------------ ---------- ---------<br>--- ---------- ------- ---------- ------- -- -------- ----<br>---- --- ------ ----- ------ -- ---- --- ----- -- - -------<br>-------- -- the --- -- ----- ----------- ----- -----------<br>---- --- ---------- --- ---- --- -- ----------,203545.1000000001,203544.3999999999,203345.926,203354.3999999999,203362.399,203562.415,,39,the
