sender,sender_type,sender_id,timestamp,meta,,Blues,Classical,Country,Dance,Electronic,Folk,Gospel,Hip-Hop,Jazz,Latin,Musical/Film,New-age,Pop,Prolific_id,Provo_ID,R&B,Rap,Reggae,Religious,Rock,Soul,Swing,Traditional,age,artist_name,correct,correctResponse,distraction,duration,education,ended_on,familiarity,gender,headphone_check_performance,item,list,music_frequency,offensiveness,pleasantness,position_correct,preference,response,response_action,snippet_file,song_name,song_rating,sound,stimulus_1,stimulus_2,stimulus_3,text,time_commit,time_end,time_render,time_run,time_show,time_switch,url,word,word_ID
Prolific ID,html.Form,0,2022-05-09T11:13:22.961Z,"{""labjs_version"":""20.2.2"",""labjs_build"":{""flavor"":""production"",""commit"":""a25486e0c714a0ae2ce03ff94b7bb6896854dcfa""},""location"":""https://run.pavlovia.org/mvasilev/prolific3_music_c/"",""userAgent"":""Mozilla/5.0 (Windows NT 10.0; Win64; x64; rv:100.0) Gecko/20100101 Firefox/100.0"",""platform"":""Win32"",""language"":""en-GB"",""locale"":""en-GB"",""timeZone"":""Europe/London"",""timezoneOffset"":-60,""screen_width"":1920,""screen_height"":1080,""scroll_width"":1920,""scroll_height"":907,""window_innerWidth"":1920,""window_innerHeight"":955,""devicePixelRatio"":1}",,,,,,,,,,,,,,,58fc6017ee99a700012ce5d8,,,,,,,,,,,,,,,6987,,form submission,,,,,,,,,,,,,,,,,,,,,31040,31040,24039.68,24039,24053,31040.96,{},,
Introduction,html.Screen,1_0,2022-05-09T11:13:25.399Z,,,,,,,,,,,,,,,,,,,,,,,,,,,,,,,2432.040000000001,,response,,,,,,,,,,,continue,click button,,,,,,,,,33478,33473,31037.02,31040,31040.96,33481.42,,,
Volume calibration,html.Screen,1_1,2022-05-09T11:13:39.935Z,,,,,,,,,,,,,,,,,,,,,,,,,,,,,,,14523.580000000002,,response,,,,,,,,,,,continue,click button,,,,,,,,,48014,48005,33477.36,33478,33481.42,48019.2,,,
Task instructions,html.Screen,1_2,2022-05-09T11:13:50.504Z,,,,,,,,,,,,,,,,,,,,,,,,,,,,,,,10547.800000000003,,response,,,,,,,,,,,continue,click button,,,,,,,,,58582,58567,48013.36,48014,48019.2,58594.5,,,
Sounds,html.Screen,1_3_0_0,2022-05-09T11:13:54.760Z,,,,,,,,,,,,,,,,,,,,,,,,,,,,,,,4254.139999999999,,timeout,,,,,,,,,3,,,,,,,,O,I,S,,62838,62835.3,58581.42,58582,58594.5,62848.64,,,
Judgement,html.Screen,1_3_0_1,2022-05-09T11:13:55.359Z,,,,,,,,,,,,,,,,,,,,,,,,,,,,true,3,,578.3600000000006,,response,,,,,,,,,3,,3,click #choice-3,,,,,O,I,S,,63438,63427,62835.3,62839,62848.64,63448.74,,,
Trial,flow.Sequence,1_3_0,2022-05-09T11:13:55.360Z,,,,,,,,,,,,,,,,,,,,,,,,,,,,,,,4832.5,,completion,,,,,,,,,3,,,,,,,,O,I,S,,63438,63427,58581.42,58582,58594.5,63448.74,,,
Sounds,html.Screen,1_3_1_0,2022-05-09T11:13:59.614Z,,,,,,,,,,,,,,,,,,,,,,,,,,,,,,,4254.140000000007,,timeout,,,,,,,,,1,,,,,,,,S,O,I,,67693,67689.54,63437.34,63439,63448.74,67702.88,,,
Judgement,html.Screen,1_3_1_1,2022-05-09T11:14:00.080Z,,,,,,,,,,,,,,,,,,,,,,,,,,,,true,1,,442.11999999999534,,response,,,,,,,,,1,,1,click #choice-1,,,,,S,O,I,,68158,68145,67689.54,67694,67702.88,68169.62,,,
Trial,flow.Sequence,1_3_1,2022-05-09T11:14:00.080Z,,,,,,,,,,,,,,,,,,,,,,,,,,,,,,,4696.260000000002,,completion,,,,,,,,,1,,,,,,,,S,O,I,,68158,68145,63437.34,63439,63448.74,68169.62,,,
Sounds,html.Screen,1_3_2_0,2022-05-09T11:14:04.336Z,,,,,,,,,,,,,,,,,,,,,,,,,,,,,,,4254.139999999999,,timeout,,,,,,,,,2,,,,,,,,I,S,O,,72414,72410.42,68157.56,68158,68169.62,72423.76,,,
Judgement,html.Screen,1_3_2_1,2022-05-09T11:14:04.832Z,,,,,,,,,,,,,,,,,,,,,,,,,,,,true,2,,472.24000000000524,,response,,,,,,,,,2,,2,click #choice-2,,,,,I,S,O,,72910,72896,72410.42,72415,72423.76,72917.18,,,
Trial,flow.Sequence,1_3_2,2022-05-09T11:14:04.832Z,,,,,,,,,,,,,,,,,,,,,,,,,,,,,,,4726.380000000005,,completion,,,,,,,,,2,,,,,,,,I,S,O,,72910,72896,68157.56,68158,68169.62,72917.18,,,
Sounds,html.Screen,1_3_3_0,2022-05-09T11:14:09.086Z,,,,,,,,,,,,,,,,,,,,,,,,,,,,,,,4255.820000000007,,timeout,,,,,,,,,3,,,,,,,,I,O,S,,77166,77159.66,72909.36,72910,72917.18,77173,,,
Judgement,html.Screen,1_3_3_1,2022-05-09T11:14:09.520Z,,,,,,,,,,,,,,,,,,,,,,,,,,,,true,3,,409,,response,,,,,,,,,3,,3,click #choice-3,,,,,I,O,S,,77598,77582,77159.66,77167,77173,77599.74,,,
Trial,flow.Sequence,1_3_3,2022-05-09T11:14:09.520Z,,,,,,,,,,,,,,,,,,,,,,,,,,,,,,,4664.820000000007,,completion,,,,,,,,,3,,,,,,,,I,O,S,,77599,77582,72909.36,72910,72917.18,77599.74,,,
Sounds,html.Screen,1_3_4_0,2022-05-09T11:14:13.764Z,,,,,,,,,,,,,,,,,,,,,,,,,,,,,,,4254.139999999999,,timeout,,,,,,,,,1,,,,,,,,S,I,O,,81842,81840.54,77597.32,77599,77599.74,81853.88,,,
Judgement,html.Screen,1_3_4_1,2022-05-09T11:14:14.143Z,,,,,,,,,,,,,,,,,,,,,,,,,,,,true,1,,354.11999999999534,,response,,,,,,,,,1,,1,click #choice-1,,,,,S,I,O,,82222,82208,81840.54,81843,81853.88,82227.28,,,
Trial,flow.Sequence,1_3_4,2022-05-09T11:14:14.144Z,,,,,,,,,,,,,,,,,,,,,,,,,,,,,,,4608.259999999995,,completion,,,,,,,,,1,,,,,,,,S,I,O,,82222,82208,77597.32,77599,77599.74,82227.28,,,
Sounds,html.Screen,1_3_5_0,2022-05-09T11:14:18.392Z,,,,,,,,,,,,,,,,,,,,,,,,,,,,,,,4254.119999999995,,timeout,,,,,,,,,2,,,,,,,,O,S,I,,86470,86468.06,82221.42,82222,82227.28,86481.4,,,
Judgement,html.Screen,1_3_5_1,2022-05-09T11:14:18.767Z,,,,,,,,,,,,,,,,,,,,,,,,,,,,true,2,,351.6000000000058,,response,,,,,,,,,2,,2,click #choice-2,,,,,O,S,I,,86846,86833,86468.06,86471,86481.4,86854.8,,,
Trial,flow.Sequence,1_3_5,2022-05-09T11:14:18.767Z,,,,,,,,,,,,,,,,,,,,,,,,,,,,,,,4605.720000000001,,completion,,,,,,,,,2,,,,,,,,O,S,I,,86846,86833,82221.42,82222,82227.28,86854.8,,,
Task,flow.Loop,1_3,2022-05-09T11:14:18.768Z,,,,,,,,,,,,,,,,,,,,,,,,,,,,,,,28238.5,,completion,,,1,,,,,,,,,,,,,,,,,,86847,86833,58581.42,58582,58594.5,86854.8,,,
Trap,html.Screen,1_4,2022-05-09T11:14:18.770Z,,,,,,,,,,,,,,,,,,,,,,,,,,,,,,,NaN,,skipped,,,,,,,,,,,,,,,,,,,,,86849,86833,,86849,,86854.8,,,
Thanks,html.Screen,1_5,2022-05-09T11:14:21.928Z,,,,,,,,,,,,,,,,,,,,,,,,,,,,,,,3133.199999999997,,response,,,,,,,,,,,continue,click button,,,,,,,,,90006,89988,86845.36,86849,86854.8,99297.12,,,
Headphone screening,flow.Sequence,1,2022-05-09T11:14:21.928Z,,,,,,,,,,,,,,,,,,,,,,,,,,,,,,,58947.04,,completion,,,,,,,,,,,,,,,,,,,,,90006,89988,31037.02,31040,31040.96,99297.12,,,
Instructions,html.Page,2_0,2022-05-09T11:14:59.473Z,,,,,,,,,,,,,,,,,,,,,,,,,,,,,,,28254.880000000005,,form submission,,,,,,,,,,,,,,,,,,,,,127552,127552,99283.8,99282,99297.12,127557.6,,,
Holding screen,html.Screen,2_1_0_0,2022-05-09T11:15:09.470Z,,,,,,,,,,,,,,,,,,,,,,,,,,,,,,,10001.880000000005,,timeout,,,,,,,,,,,,,,,,,,,,,137548,137546.14,127549.4,127552,127557.6,137559.48,,,
screen,html.Screen,2_1_0_1_0,2022-05-09T11:15:10.408Z,,,,,,,,,,,,,,,,,53,,,,,,,,,,,,,,913.5199999999895,,response,,,,99,,,,,,,Space,keypress(Space),,,,,,,,When -- ----- -- ------ - ------- --- ----------<br>------------- ------ ------ ---- ---- ------- ----- -- ----<br>-------- ------- -- ---------- --- - --- ----- ----- ----<br>---- --- --- ----- --- ---- ---- ------- ----- ---- -------<br>--- --- -- ----- -- --- ---- -- --- ---- -- ------ ------<br>--- ----- -- ----,138487,138473,137546.14,137548,137559.48,138492.98,,0,When
screen,html.Screen,2_1_0_1_1,2022-05-09T11:15:10.843Z,,,,,,,,,,,,,,,,,53,,,,,,,,,,,,,,417.0199999999895,,response,,,,99,,,,,,,Space,keypress(Space),,,,,,,,---- it ----- -- ------ - ------- --- ----------<br>------------- ------ ------ ---- ---- ------- ----- -- ----<br>-------- ------- -- ---------- --- - --- ----- ----- ----<br>---- --- --- ----- --- ---- ---- ------- ----- ---- -------<br>--- --- -- ----- -- --- ---- -- --- ---- -- ------ ------<br>--- ----- -- ----,138921,138910,138488.2,138488,138492.98,138933.06,,1,it
screen,html.Screen,2_1_0_1_2,2022-05-09T11:15:11.238Z,,,,,,,,,,,,,,,,,53,,,,,,,,,,,,,,367.9400000000023,,response,,,,99,,,,,,,Space,keypress(Space),,,,,,,,---- -- comes -- ------ - ------- --- ----------<br>------------- ------ ------ ---- ---- ------- ----- -- ----<br>-------- ------- -- ---------- --- - --- ----- ----- ----<br>---- --- --- ----- --- ---- ---- ------- ----- ---- -------<br>--- --- -- ----- -- --- ---- -- --- ---- -- ------ ------<br>--- ----- -- ----,139316,139301,138922.5,138922,138933.06,139319.8,,2,comes
screen,html.Screen,2_1_0_1_3,2022-05-09T11:15:11.639Z,,,,,,,,,,,,,,,,,53,,,,,,,,,,,,,,388.20000000001164,,response,,,,99,,,,,,,Space,keypress(Space),,,,,,,,---- -- ----- to ------ - ------- --- ----------<br>------------- ------ ------ ---- ---- ------- ----- -- ----<br>-------- ------- -- ---------- --- - --- ----- ----- ----<br>---- --- --- ----- --- ---- ---- ------- ----- ---- -------<br>--- --- -- ----- -- --- ---- -- --- ---- -- ------ ------<br>--- ----- -- ----,139718,139708,139317.54,139317,139319.8,139719.88,,3,to
screen,html.Screen,2_1_0_1_4,2022-05-09T11:15:11.998Z,,,,,,,,,,,,,,,,,53,,,,,,,,,,,,,,347.11999999999534,,response,,,,99,,,,,,,Space,keypress(Space),,,,,,,,---- -- ----- -- having - ------- --- ----------<br>------------- ------ ------ ---- ---- ------- ----- -- ----<br>-------- ------- -- ---------- --- - --- ----- ----- ----<br>---- --- --- ----- --- ---- ---- ------- ----- ---- -------<br>--- --- -- ----- -- --- ---- -- --- ---- -- ------ ------<br>--- ----- -- ----,140076,140067,139719.24,139719,139719.88,140079.94,,4,having
screen,html.Screen,2_1_0_1_5,2022-05-09T11:15:12.354Z,,,,,,,,,,,,,,,,,53,,,,,,,,,,,,,,346.0599999999977,,response,,,,99,,,,,,,Space,keypress(Space),,,,,,,,---- -- ----- -- ------ a ------- --- ----------<br>------------- ------ ------ ---- ---- ------- ----- -- ----<br>-------- ------- -- ---------- --- - --- ----- ----- ----<br>---- --- --- ----- --- ---- ---- ------- ----- ---- -------<br>--- --- -- ----- -- --- ---- -- --- ---- -- ------ ------<br>--- ----- -- ----,140432,140426,140077.38,140077,140079.94,140440.02,,5,a
screen,html.Screen,2_1_0_1_6,2022-05-09T11:15:12.689Z,,,,,,,,,,,,,,,,,53,,,,,,,,,,,,,,313.9800000000105,,response,,,,99,,,,,,,Space,keypress(Space),,,,,,,,---- -- ----- -- ------ - lasting --- ----------<br>------------- ------ ------ ---- ---- ------- ----- -- ----<br>-------- ------- -- ---------- --- - --- ----- ----- ----<br>---- --- --- ----- --- ---- ---- ------- ----- ---- -------<br>--- --- -- ----- -- --- ---- -- --- ---- -- ------ ------<br>--- ----- -- ----,140768,140754,140433.28,140433,140440.02,140773.4,,6,lasting
screen,html.Screen,2_1_0_1_7,2022-05-09T11:15:12.994Z,,,,,,,,,,,,,,,,,53,,,,,,,,,,,,,,294.6000000000058,,response,,,,99,,,,,,,Space,keypress(Space),,,,,,,,---- -- ----- -- ------ - ------- and ----------<br>------------- ------ ------ ---- ---- ------- ----- -- ----<br>-------- ------- -- ---------- --- - --- ----- ----- ----<br>---- --- --- ----- --- ---- ---- ------- ----- ---- -------<br>--- --- -- ----- -- --- ---- -- --- ---- -- ------ ------<br>--- ----- -- ----,141073,141068,140768.26,140768,140773.4,141080.14,,7,and
screen,html.Screen,2_1_0_1_8,2022-05-09T11:15:13.334Z,,,,,,,,,,,,,,,,,53,,,,,,,,,,,,,,315.85999999998603,,response,,,,99,,,,,,,Space,keypress(Space),,,,,,,,---- -- ----- -- ------ - ------- --- fulfilling<br>------------- ------ ------ ---- ---- ------- ----- -- ----<br>-------- ------- -- ---------- --- - --- ----- ----- ----<br>---- --- --- ----- --- ---- ---- ------- ----- ---- -------<br>--- --- -- ----- -- --- ---- -- --- ---- -- ------ ------<br>--- ----- -- ----,141413,141396,141072.9,141073,141080.14,141426.86,,8,fulfilling
screen,html.Screen,2_1_0_1_9,2022-05-09T11:15:14.206Z,,,,,,,,,,,,,,,,,53,,,,,,,,,,,,,,843.140000000014,,response,,,,99,,,,,,,Space,keypress(Space),,,,,,,,"---- -- ----- -- ------ - ------- --- ----------<br>relationship, ------ ------ ---- ---- ------- ----- -- ----<br>-------- ------- -- ---------- --- - --- ----- ----- ----<br>---- --- --- ----- --- ---- ---- ------- ----- ---- -------<br>--- --- -- ----- -- --- ---- -- --- ---- -- ------ ------<br>--- ----- -- ----",142284,142270,141414.62,141415,141426.86,142293.7,,9,"relationship,"
screen,html.Screen,2_1_0_1_10,2022-05-09T11:15:14.596Z,,,,,,,,,,,,,,,,,53,,,,,,,,,,,,,,367.29999999998836,,response,,,,99,,,,,,,Space,keypress(Space),,,,,,,,---- -- ----- -- ------ - ------- --- ----------<br>------------- common ------ ---- ---- ------- ----- -- ----<br>-------- ------- -- ---------- --- - --- ----- ----- ----<br>---- --- --- ----- --- ---- ---- ------- ----- ---- -------<br>--- --- -- ----- -- --- ---- -- --- ---- -- ------ ------<br>--- ----- -- ----,142676,142661,142285.1,142285,142293.7,142680.44,,10,common
screen,html.Screen,2_1_0_1_11,2022-05-09T11:15:15.047Z,,,,,,,,,,,,,,,,,53,,,,,,,,,,,,,,433.5599999999977,,response,,,,99,,,,,,,Space,keypress(Space),,,,,,,,---- -- ----- -- ------ - ------- --- ----------<br>------------- ------ wisdom ---- ---- ------- ----- -- ----<br>-------- ------- -- ---------- --- - --- ----- ----- ----<br>---- --- --- ----- --- ---- ---- ------- ----- ---- -------<br>--- --- -- ----- -- --- ---- -- --- ---- -- ------ ------<br>--- ----- -- ----,143126,143114,142675.58,142676,142680.44,143133.84,,11,wisdom
screen,html.Screen,2_1_0_1_12,2022-05-09T11:15:15.248Z,,,,,,,,,,,,,,,,,53,,,,,,,,,,,,,,183.1600000000035,,response,,,,99,,,,,,,Space,keypress(Space),,,,,,,,---- -- ----- -- ------ - ------- --- ----------<br>------------- ------ ------ says ---- ------- ----- -- ----<br>-------- ------- -- ---------- --- - --- ----- ----- ----<br>---- --- --- ----- --- ---- ---- ------- ----- ---- -------<br>--- --- -- ----- -- --- ---- -- --- ---- -- ------ ------<br>--- ----- -- ----,143327,143317,143126.44,143127,143133.84,143333.88,,12,says
screen,html.Screen,2_1_0_1_13,2022-05-09T11:15:15.615Z,,,,,,,,,,,,,,,,,53,,,,,,,,,,,,,,342.11999999999534,,response,,,,99,,,,,,,Space,keypress(Space),,,,,,,,---- -- ----- -- ------ - ------- --- ----------<br>------------- ------ ------ ---- that ------- ----- -- ----<br>-------- ------- -- ---------- --- - --- ----- ----- ----<br>---- --- --- ----- --- ---- ---- ------- ----- ---- -------<br>--- --- -- ----- -- --- ---- -- --- ---- -- ------ ------<br>--- ----- -- ----,143693,143676,143326.74,143327,143333.88,143707.28,,13,that
screen,html.Screen,2_1_0_1_14,2022-05-09T11:15:15.997Z,,,,,,,,,,,,,,,,,53,,,,,,,,,,,,,,359.72000000000116,,response,,,,99,,,,,,,Space,keypress(Space),,,,,,,,---- -- ----- -- ------ - ------- --- ----------<br>------------- ------ ------ ---- ---- feeling ----- -- ----<br>-------- ------- -- ---------- --- - --- ----- ----- ----<br>---- --- --- ----- --- ---- ---- ------- ----- ---- -------<br>--- --- -- ----- -- --- ---- -- --- ---- -- ------ ------<br>--- ----- -- ----,144075,144067,143694.02,143694,143707.28,144080.7,,14,feeling
screen,html.Screen,2_1_0_1_15,2022-05-09T11:15:16.352Z,,,,,,,,,,,,,,,,,53,,,,,,,,,,,,,,345.29999999998836,,response,,,,99,,,,,,,Space,keypress(Space),,,,,,,,---- -- ----- -- ------ - ------- --- ----------<br>------------- ------ ------ ---- ---- ------- close -- ----<br>-------- ------- -- ---------- --- - --- ----- ----- ----<br>---- --- --- ----- --- ---- ---- ------- ----- ---- -------<br>--- --- -- ----- -- --- ---- -- --- ---- -- ------ ------<br>--- ----- -- ----,144430,144426,144075.3,144076,144080.7,144440.76,,15,close
screen,html.Screen,2_1_0_1_16,2022-05-09T11:15:16.638Z,,,,,,,,,,,,,,,,,53,,,,,,,,,,,,,,266.2399999999907,,response,,,,99,,,,,,,Space,keypress(Space),,,,,,,,---- -- ----- -- ------ - ------- --- ----------<br>------------- ------ ------ ---- ---- ------- ----- to ----<br>-------- ------- -- ---------- --- - --- ----- ----- ----<br>---- --- --- ----- --- ---- ---- ------- ----- ---- -------<br>--- --- -- ----- -- --- ---- -- --- ---- -- ------ ------<br>--- ----- -- ----,144717,144707,144430.82,144430,144440.76,144720.82,,16,to
screen,html.Screen,2_1_0_1_17,2022-05-09T11:15:16.962Z,,,,,,,,,,,,,,,,,53,,,,,,,,,,,,,,314.179999999993,,response,,,,99,,,,,,,Space,keypress(Space),,,,,,,,---- -- ----- -- ------ - ------- --- ----------<br>------------- ------ ------ ---- ---- ------- ----- -- your<br>-------- ------- -- ---------- --- - --- ----- ----- ----<br>---- --- --- ----- --- ---- ---- ------- ----- ---- -------<br>--- --- -- ----- -- --- ---- -- --- ---- -- ------ ------<br>--- ----- -- ----,145041,145035,144716.54,144717,144720.82,145054.2,,17,your
screen,html.Screen,2_1_0_1_18,2022-05-09T11:15:17.260Z,,,,,,,,,,,,,,,,,53,,,,,,,,,,,,,,277.79999999998836,,response,,,,99,,,,,,,Space,keypress(Space),,,,,,,,---- -- ----- -- ------ - ------- --- ----------<br>------------- ------ ------ ---- ---- ------- ----- -- ----<br>romantic ------- -- ---------- --- - --- ----- ----- ----<br>---- --- --- ----- --- ---- ---- ------- ----- ---- -------<br>--- --- -- ----- -- --- ---- -- --- ---- -- ------ ------<br>--- ----- -- ----,145339,145332,145041.44,145042,145054.2,145347.6,,18,romantic
screen,html.Screen,2_1_0_1_19,2022-05-09T11:15:17.488Z,,,,,,,,,,,,,,,,,53,,,,,,,,,,,,,,203.39999999999418,,response,,,,99,,,,,,,Space,keypress(Space),,,,,,,,---- -- ----- -- ------ - ------- --- ----------<br>------------- ------ ------ ---- ---- ------- ----- -- ----<br>-------- partner -- ---------- --- - --- ----- ----- ----<br>---- --- --- ----- --- ---- ---- ------- ----- ---- -------<br>--- --- -- ----- -- --- ---- -- --- ---- -- ------ ------<br>--- ----- -- ----,145567,145551,145339.06,145339,145347.6,145574.3,,19,partner
screen,html.Screen,2_1_0_1_20,2022-05-09T11:15:17.718Z,,,,,,,,,,,,,,,,,53,,,,,,,,,,,,,,210.70000000001164,,response,,,,99,,,,,,,Space,keypress(Space),,,,,,,,---- -- ----- -- ------ - ------- --- ----------<br>------------- ------ ------ ---- ---- ------- ----- -- ----<br>-------- ------- is ---------- --- - --- ----- ----- ----<br>---- --- --- ----- --- ---- ---- ------- ----- ---- -------<br>--- --- -- ----- -- --- ---- -- --- ---- -- ------ ------<br>--- ----- -- ----,145797,145785,145567.4,145568,145574.3,145801.02,,20,is
screen,html.Screen,2_1_0_1_21,2022-05-09T11:15:17.982Z,,,,,,,,,,,,,,,,,53,,,,,,,,,,,,,,249.98000000001048,,response,,,,99,,,,,,,Space,keypress(Space),,,,,,,,---- -- ----- -- ------ - ------- --- ----------<br>------------- ------ ------ ---- ---- ------- ----- -- ----<br>-------- ------- -- paramount. --- - --- ----- ----- ----<br>---- --- --- ----- --- ---- ---- ------- ----- ---- -------<br>--- --- -- ----- -- --- ---- -- --- ---- -- ------ ------<br>--- ----- -- ----,146059,146051,145797.02,145797,145801.02,146067.72,,21,paramount.
screen,html.Screen,2_1_0_1_22,2022-05-09T11:15:18.451Z,,,,,,,,,,,,,,,,,53,,,,,,,,,,,,,,452.27999999999884,,response,,,,99,,,,,,,Space,keypress(Space),,,,,,,,---- -- ----- -- ------ - ------- --- ----------<br>------------- ------ ------ ---- ---- ------- ----- -- ----<br>-------- ------- -- ---------- But - --- ----- ----- ----<br>---- --- --- ----- --- ---- ---- ------- ----- ---- -------<br>--- --- -- ----- -- --- ---- -- --- ---- -- ------ ------<br>--- ----- -- ----,146530,146520,146059.9,146059,146067.72,146534.48,,22,But
screen,html.Screen,2_1_0_1_23,2022-05-09T11:15:18.742Z,,,,,,,,,,,,,,,,,53,,,,,,,,,,,,,,267.5199999999895,,response,,,,99,,,,,,,Space,keypress(Space),,,,,,,,---- -- ----- -- ------ - ------- --- ----------<br>------------- ------ ------ ---- ---- ------- ----- -- ----<br>-------- ------- -- ---------- --- a --- ----- ----- ----<br>---- --- --- ----- --- ---- ---- ------- ----- ---- -------<br>--- --- -- ----- -- --- ---- -- --- ---- -- ------ ------<br>--- ----- -- ----,146821,146802,146530.22,146530,146534.48,146827.88,,23,a
screen,html.Screen,2_1_0_1_24,2022-05-09T11:15:19.022Z,,,,,,,,,,,,,,,,,53,,,,,,,,,,,,,,255.11999999999534,,response,,,,99,,,,,,,Space,keypress(Space),,,,,,,,---- -- ----- -- ------ - ------- --- ----------<br>------------- ------ ------ ---- ---- ------- ----- -- ----<br>-------- ------- -- ---------- --- - new ----- ----- ----<br>---- --- --- ----- --- ---- ---- ------- ----- ---- -------<br>--- --- -- ----- -- --- ---- -- --- ---- -- ------ ------<br>--- ----- -- ----,147100,147083,146821.44,146822,146827.88,147107.92,,24,new
screen,html.Screen,2_1_0_1_25,2022-05-09T11:15:19.244Z,,,,,,,,,,,,,,,,,53,,,,,,,,,,,,,,209.0799999999872,,response,,,,99,,,,,,,Space,keypress(Space),,,,,,,,---- -- ----- -- ------ - ------- --- ----------<br>------------- ------ ------ ---- ---- ------- ----- -- ----<br>-------- ------- -- ---------- --- - --- study ----- ----<br>---- --- --- ----- --- ---- ---- ------- ----- ---- -------<br>--- --- -- ----- -- --- ---- -- --- ---- -- ------ ------<br>--- ----- -- ----,147322,147317,147100.54,147101,147107.92,147334.64,,25,study
screen,html.Screen,2_1_0_1_26,2022-05-09T11:15:19.484Z,,,,,,,,,,,,,,,,,53,,,,,,,,,,,,,,216.35999999998603,,response,,,,99,,,,,,,Space,keypress(Space),,,,,,,,---- -- ----- -- ------ - ------- --- ----------<br>------------- ------ ------ ---- ---- ------- ----- -- ----<br>-------- ------- -- ---------- --- - --- ----- finds ----<br>---- --- --- ----- --- ---- ---- ------- ----- ---- -------<br>--- --- -- ----- -- --- ---- -- --- ---- -- ------ ------<br>--- ----- -- ----,147563,147551,147322.7,147322,147334.64,147574.68,,26,finds
screen,html.Screen,2_1_0_1_27,2022-05-09T11:15:19.741Z,,,,,,,,,,,,,,,,,53,,,,,,,,,,,,,,227.32000000000698,,response,,,,99,,,,,,,Space,keypress(Space),,,,,,,,---- -- ----- -- ------ - ------- --- ----------<br>------------- ------ ------ ---- ---- ------- ----- -- ----<br>-------- ------- -- ---------- --- - --- ----- ----- that<br>---- --- --- ----- --- ---- ---- ------- ----- ---- -------<br>--- --- -- ----- -- --- ---- -- --- ---- -- ------ ------<br>--- ----- -- ----,147820,147802,147563.72,147563,147574.68,147828.06,,27,that
screen,html.Screen,2_1_0_1_28,2022-05-09T11:15:20.062Z,,,,,,,,,,,,,,,,,53,,,,,,,,,,,,,,301.9400000000023,,response,,,,99,,,,,,,Space,keypress(Space),,,,,,,,---- -- ----- -- ------ - ------- --- ----------<br>------------- ------ ------ ---- ---- ------- ----- -- ----<br>-------- ------- -- ---------- --- - --- ----- ----- ----<br>it's --- --- ----- --- ---- ---- ------- ----- ---- -------<br>--- --- -- ----- -- --- ---- -- --- ---- -- ------ ------<br>--- ----- -- ----,148141,148130,147820.12,147820,147828.06,148148.12,,28,it's
screen,html.Screen,2_1_0_1_29,2022-05-09T11:15:20.381Z,,,,,,,,,,,,,,,,,53,,,,,,,,,,,,,,294.88000000000466,,response,,,,99,,,,,,,Space,keypress(Space),,,,,,,,---- -- ----- -- ------ - ------- --- ----------<br>------------- ------ ------ ---- ---- ------- ----- -- ----<br>-------- ------- -- ---------- --- - --- ----- ----- ----<br>---- not --- ----- --- ---- ---- ------- ----- ---- -------<br>--- --- -- ----- -- --- ---- -- --- ---- -- ------ ------<br>--- ----- -- ----,148459,148443,148140.72,148141,148148.12,148468.18,,29,not
screen,html.Screen,2_1_0_1_30,2022-05-09T11:15:20.572Z,,,,,,,,,,,,,,,,,53,,,,,,,,,,,,,,176.82000000000698,,response,,,,99,,,,,,,Space,keypress(Space),,,,,,,,---- -- ----- -- ------ - ------- --- ----------<br>------------- ------ ------ ---- ---- ------- ----- -- ----<br>-------- ------- -- ---------- --- - --- ----- ----- ----<br>---- --- how ----- --- ---- ---- ------- ----- ---- -------<br>--- --- -- ----- -- --- ---- -- --- ---- -- ------ ------<br>--- ----- -- ----,148650,148645,148459.72,148460,148468.18,148654.88,,30,how
screen,html.Screen,2_1_0_1_31,2022-05-09T11:15:20.841Z,,,,,,,,,,,,,,,,,53,,,,,,,,,,,,,,256.11999999999534,,response,,,,99,,,,,,,Space,keypress(Space),,,,,,,,---- -- ----- -- ------ - ------- --- ----------<br>------------- ------ ------ ---- ---- ------- ----- -- ----<br>-------- ------- -- ---------- --- - --- ----- ----- ----<br>---- --- --- close --- ---- ---- ------- ----- ---- -------<br>--- --- -- ----- -- --- ---- -- --- ---- -- ------ ------<br>--- ----- -- ----,148920,148911,148650.92,148651,148654.88,148921.6,,31,close
screen,html.Screen,2_1_0_1_32,2022-05-09T11:15:21.093Z,,,,,,,,,,,,,,,,,53,,,,,,,,,,,,,,239.39999999999418,,response,,,,99,,,,,,,Space,keypress(Space),,,,,,,,---- -- ----- -- ------ - ------- --- ----------<br>------------- ------ ------ ---- ---- ------- ----- -- ----<br>-------- ------- -- ---------- --- - --- ----- ----- ----<br>---- --- --- ----- you ---- ---- ------- ----- ---- -------<br>--- --- -- ----- -- --- ---- -- --- ---- -- ------ ------<br>--- ----- -- ----,149171,149161,148919.94,148920,148921.6,149174.98,,32,you
screen,html.Screen,2_1_0_1_33,2022-05-09T11:15:21.364Z,,,,,,,,,,,,,,,,,53,,,,,,,,,,,,,,252.01999999998952,,response,,,,99,,,,,,,Space,keypress(Space),,,,,,,,---- -- ----- -- ------ - ------- --- ----------<br>------------- ------ ------ ---- ---- ------- ----- -- ----<br>-------- ------- -- ---------- --- - --- ----- ----- ----<br>---- --- --- ----- --- feel ---- ------- ----- ---- -------<br>--- --- -- ----- -- --- ---- -- --- ---- -- ------ ------<br>--- ----- -- ----,149443,149427,149171.58,149172,149174.98,149455.02,,33,feel
screen,html.Screen,2_1_0_1_34,2022-05-09T11:15:21.643Z,,,,,,,,,,,,,,,,,53,,,,,,,,,,,,,,252.98000000001048,,response,,,,99,,,,,,,Space,keypress(Space),,,,,,,,---- -- ----- -- ------ - ------- --- ----------<br>------------- ------ ------ ---- ---- ------- ----- -- ----<br>-------- ------- -- ---------- --- - --- ----- ----- ----<br>---- --- --- ----- --- ---- that ------- ----- ---- -------<br>--- --- -- ----- -- --- ---- -- --- ---- -- ------ ------<br>--- ----- -- ----,149722,149708,149443.04,149443,149455.02,149735.08,,34,that
screen,html.Screen,2_1_0_1_35,2022-05-09T11:15:21.880Z,,,,,,,,,,,,,,,,,53,,,,,,,,,,,,,,207.9200000000128,,response,,,,99,,,,,,,Space,keypress(Space),,,,,,,,---- -- ----- -- ------ - ------- --- ----------<br>------------- ------ ------ ---- ---- ------- ----- -- ----<br>-------- ------- -- ---------- --- - --- ----- ----- ----<br>---- --- --- ----- --- ---- ---- matters ----- ---- -------<br>--- --- -- ----- -- --- ---- -- --- ---- -- ------ ------<br>--- ----- -- ----,149959,149943,149721.88,149722,149735.08,149961.8,,35,matters
screen,html.Screen,2_1_0_1_36,2022-05-09T11:15:22.127Z,,,,,,,,,,,,,,,,,53,,,,,,,,,,,,,,231.20000000001164,,response,,,,99,,,,,,,Space,keypress(Space),,,,,,,,"---- -- ----- -- ------ - ------- --- ----------<br>------------- ------ ------ ---- ---- ------- ----- -- ----<br>-------- ------- -- ---------- --- - --- ----- ----- ----<br>---- --- --- ----- --- ---- ---- ------- most, ---- -------<br>--- --- -- ----- -- --- ---- -- --- ---- -- ------ ------<br>--- ----- -- ----",150206,150193,149959.02,149959,149961.8,150215.18,,36,"most,"
screen,html.Screen,2_1_0_1_37,2022-05-09T11:15:22.405Z,,,,,,,,,,,,,,,,,53,,,,,,,,,,,,,,257.820000000007,,response,,,,99,,,,,,,Space,keypress(Space),,,,,,,,---- -- ----- -- ------ - ------- --- ----------<br>------------- ------ ------ ---- ---- ------- ----- -- ----<br>-------- ------- -- ---------- --- - --- ----- ----- ----<br>---- --- --- ----- --- ---- ---- ------- ----- it's -------<br>--- --- -- ----- -- --- ---- -- --- ---- -- ------ ------<br>--- ----- -- ----,150483,150473,150205.54,150206,150215.18,150495.22,,37,it's
screen,html.Screen,2_1_0_1_38,2022-05-09T11:15:22.781Z,,,,,,,,,,,,,,,,,53,,,,,,,,,,,,,,352.77999999999884,,response,,,,99,,,,,,,Space,keypress(Space),,,,,,,,---- -- ----- -- ------ - ------- --- ----------<br>------------- ------ ------ ---- ---- ------- ----- -- ----<br>-------- ------- -- ---------- --- - --- ----- ----- ----<br>---- --- --- ----- --- ---- ---- ------- ----- ---- whether<br>--- --- -- ----- -- --- ---- -- --- ---- -- ------ ------<br>--- ----- -- ----,150860,150848,150484.04,150484,150495.22,150868.62,,38,whether
screen,html.Screen,2_1_0_1_39,2022-05-09T11:15:23.117Z,,,,,,,,,,,,,,,,,53,,,,,,,,,,,,,,323.38000000000466,,response,,,,99,,,,,,,Space,keypress(Space),,,,,,,,---- -- ----- -- ------ - ------- --- ----------<br>------------- ------ ------ ---- ---- ------- ----- -- ----<br>-------- ------- -- ---------- --- - --- ----- ----- ----<br>---- --- --- ----- --- ---- ---- ------- ----- ---- -------<br>you --- -- ----- -- --- ---- -- --- ---- -- ------ ------<br>--- ----- -- ----,151196,151192,150860.26,150860,150868.62,151202.02,,39,you
screen,html.Screen,2_1_0_1_40,2022-05-09T11:15:23.423Z,,,,,,,,,,,,,,,,,53,,,,,,,,,,,,,,285.9800000000105,,response,,,,99,,,,,,,Space,keypress(Space),,,,,,,,---- -- ----- -- ------ - ------- --- ----------<br>------------- ------ ------ ---- ---- ------- ----- -- ----<br>-------- ------- -- ---------- --- - --- ----- ----- ----<br>---- --- --- ----- --- ---- ---- ------- ----- ---- -------<br>--- are -- ----- -- --- ---- -- --- ---- -- ------ ------<br>--- ----- -- ----,151501,151488,151195.8,151196,151202.02,151508.74,,40,are
screen,html.Screen,2_1_0_1_41,2022-05-09T11:15:23.617Z,,,,,,,,,,,,,,,,,53,,,,,,,,,,,,,,167.2600000000093,,response,,,,99,,,,,,,Space,keypress(Space),,,,,,,,---- -- ----- -- ------ - ------- --- ----------<br>------------- ------ ------ ---- ---- ------- ----- -- ----<br>-------- ------- -- ---------- --- - --- ----- ----- ----<br>---- --- --- ----- --- ---- ---- ------- ----- ---- -------<br>--- --- as ----- -- --- ---- -- --- ---- -- ------ ------<br>--- ----- -- ----,151695,151676,151502.06,151502,151508.74,151695.44,,41,as
screen,html.Screen,2_1_0_1_42,2022-05-09T11:15:23.924Z,,,,,,,,,,,,,,,,,53,,,,,,,,,,,,,,293.5599999999977,,response,,,,99,,,,,,,Space,keypress(Space),,,,,,,,---- -- ----- -- ------ - ------- --- ----------<br>------------- ------ ------ ---- ---- ------- ----- -- ----<br>-------- ------- -- ---------- --- - --- ----- ----- ----<br>---- --- --- ----- --- ---- ---- ------- ----- ---- -------<br>--- --- -- close -- --- ---- -- --- ---- -- ------ ------<br>--- ----- -- ----,152002,151989,151695.42,151695,151695.44,152015.5,,42,close
screen,html.Screen,2_1_0_1_43,2022-05-09T11:15:24.253Z,,,,,,,,,,,,,,,,,53,,,,,,,,,,,,,,301.5,,response,,,,99,,,,,,,Space,keypress(Space),,,,,,,,---- -- ----- -- ------ - ------- --- ----------<br>------------- ------ ------ ---- ---- ------- ----- -- ----<br>-------- ------- -- ---------- --- - --- ----- ----- ----<br>---- --- --- ----- --- ---- ---- ------- ----- ---- -------<br>--- --- -- ----- as --- ---- -- --- ---- -- ------ ------<br>--- ----- -- ----,152331,152317,152002.62,152003,152015.5,152335.56,,43,as
screen,html.Screen,2_1_0_1_44,2022-05-09T11:15:24.572Z,,,,,,,,,,,,,,,,,53,,,,,,,,,,,,,,309.4400000000023,,response,,,,99,,,,,,,Space,keypress(Space),,,,,,,,---- -- ----- -- ------ - ------- --- ----------<br>------------- ------ ------ ---- ---- ------- ----- -- ----<br>-------- ------- -- ---------- --- - --- ----- ----- ----<br>---- --- --- ----- --- ---- ---- ------- ----- ---- -------<br>--- --- -- ----- -- you ---- -- --- ---- -- ------ ------<br>--- ----- -- ----,152651,152645,152331.74,152331,152335.56,152655.62,,44,you
screen,html.Screen,2_1_0_1_45,2022-05-09T11:15:24.871Z,,,,,,,,,,,,,,,,,53,,,,,,,,,,,,,,287.38000000000466,,response,,,,99,,,,,,,Space,keypress(Space),,,,,,,,---- -- ----- -- ------ - ------- --- ----------<br>------------- ------ ------ ---- ---- ------- ----- -- ----<br>-------- ------- -- ---------- --- - --- ----- ----- ----<br>---- --- --- ----- --- ---- ---- ------- ----- ---- -------<br>--- --- -- ----- -- --- want -- --- ---- -- ------ ------<br>--- ----- -- ----,152949,152943,152651.7,152651,152655.62,152962.36,,45,want
screen,html.Screen,2_1_0_1_46,2022-05-09T11:15:25.180Z,,,,,,,,,,,,,,,,,53,,,,,,,,,,,,,,291.64000000001397,,response,,,,99,,,,,,,Space,keypress(Space),,,,,,,,---- -- ----- -- ------ - ------- --- ----------<br>------------- ------ ------ ---- ---- ------- ----- -- ----<br>-------- ------- -- ---------- --- - --- ----- ----- ----<br>---- --- --- ----- --- ---- ---- ------- ----- ---- -------<br>--- --- -- ----- -- --- ---- to --- ---- -- ------ ------<br>--- ----- -- ----,153259,153254,152949.78,152950,152962.36,153269.08,,46,to
screen,html.Screen,2_1_0_1_47,2022-05-09T11:15:25.491Z,,,,,,,,,,,,,,,,,53,,,,,,,,,,,,,,282.9200000000128,,response,,,,99,,,,,,,Space,keypress(Space),,,,,,,,"---- -- ----- -- ------ - ------- --- ----------<br>------------- ------ ------ ---- ---- ------- ----- -- ----<br>-------- ------- -- ---------- --- - --- ----- ----- ----<br>---- --- --- ----- --- ---- ---- ------- ----- ---- -------<br>--- --- -- ----- -- --- ---- -- be, ---- -- ------ ------<br>--- ----- -- ----",153570,153552,153259.5,153260,153269.08,153575.8,,47,"be,"
screen,html.Screen,2_1_0_1_48,2022-05-09T11:15:25.751Z,,,,,,,,,,,,,,,,,53,,,,,,,,,,,,,,242.20000000001164,,response,,,,99,,,,,,,Space,keypress(Space),,,,,,,,---- -- ----- -- ------ - ------- --- ----------<br>------------- ------ ------ ---- ---- ------- ----- -- ----<br>-------- ------- -- ---------- --- - --- ----- ----- ----<br>---- --- --- ----- --- ---- ---- ------- ----- ---- -------<br>--- --- -- ----- -- --- ---- -- --- even -- ------ ------<br>--- ----- -- ----,153829,153818,153569.82,153570,153575.8,153842.52,,48,even
screen,html.Screen,2_1_0_1_49,2022-05-09T11:15:26.115Z,,,,,,,,,,,,,,,,,53,,,,,,,,,,,,,,334.4800000000105,,response,,,,99,,,,,,,Space,keypress(Space),,,,,,,,---- -- ----- -- ------ - ------- --- ----------<br>------------- ------ ------ ---- ---- ------- ----- -- ----<br>-------- ------- -- ---------- --- - --- ----- ----- ----<br>---- --- --- ----- --- ---- ---- ------- ----- ---- -------<br>--- --- -- ----- -- --- ---- -- --- ---- if ------ ------<br>--- ----- -- ----,154194,154177,153829.88,153830,153842.52,154202.58,,49,if
screen,html.Screen,2_1_0_1_50,2022-05-09T11:15:26.365Z,,,,,,,,,,,,,,,,,53,,,,,,,,,,,,,,224.4200000000128,,response,,,,99,,,,,,,Space,keypress(Space),,,,,,,,---- -- ----- -- ------ - ------- --- ----------<br>------------- ------ ------ ---- ---- ------- ----- -- ----<br>-------- ------- -- ---------- --- - --- ----- ----- ----<br>---- --- --- ----- --- ---- ---- ------- ----- ---- -------<br>--- --- -- ----- -- --- ---- -- --- ---- -- that's ------<br>--- ----- -- ----,154444,154427,154194.12,154194,154202.58,154455.96,,50,that's
screen,html.Screen,2_1_0_1_51,2022-05-09T11:15:26.596Z,,,,,,,,,,,,,,,,,53,,,,,,,,,,,,,,205.04000000000815,,response,,,,99,,,,,,,Space,keypress(Space),,,,,,,,---- -- ----- -- ------ - ------- --- ----------<br>------------- ------ ------ ---- ---- ------- ----- -- ----<br>-------- ------- -- ---------- --- - --- ----- ----- ----<br>---- --- --- ----- --- ---- ---- ------- ----- ---- -------<br>--- --- -- ----- -- --- ---- -- --- ---- -- ------ really<br>--- ----- -- ----,154675,154661,154444.12,154444,154455.96,154682.68,,51,really
screen,html.Screen,2_1_0_1_52,2022-05-09T11:15:26.938Z,,,,,,,,,,,,,,,,,53,,,,,,,,,,,,,,321.320000000007,,response,,,,99,,,,,,,Space,keypress(Space),,,,,,,,---- -- ----- -- ------ - ------- --- ----------<br>------------- ------ ------ ---- ---- ------- ----- -- ----<br>-------- ------- -- ---------- --- - --- ----- ----- ----<br>---- --- --- ----- --- ---- ---- ------- ----- ---- -------<br>--- --- -- ----- -- --- ---- -- --- ---- -- ------ ------<br>not ----- -- ----,155017,155004,154675.2,154675,154682.68,155018.06,,52,not
screen,html.Screen,2_1_0_1_53,2022-05-09T11:15:27.258Z,,,,,,,,,,,,,,,,,53,,,,,,,,,,,,,,298.9400000000023,,response,,,,99,,,,,,,Space,keypress(Space),,,,,,,,---- -- ----- -- ------ - ------- --- ----------<br>------------- ------ ------ ---- ---- ------- ----- -- ----<br>-------- ------- -- ---------- --- - --- ----- ----- ----<br>---- --- --- ----- --- ---- ---- ------- ----- ---- -------<br>--- --- -- ----- -- --- ---- -- --- ---- -- ------ ------<br>--- close -- ----,155337,155317,155017.02,155017,155018.06,155338.04,,53,close
screen,html.Screen,2_1_0_1_54,2022-05-09T11:15:27.555Z,,,,,,,,,,,,,,,,,53,,,,,,,,,,,,,,291.95999999999185,,response,,,,99,,,,,,,Space,keypress(Space),,,,,,,,---- -- ----- -- ------ - ------- --- ----------<br>------------- ------ ------ ---- ---- ------- ----- -- ----<br>-------- ------- -- ---------- --- - --- ----- ----- ----<br>---- --- --- ----- --- ---- ---- ------- ----- ---- -------<br>--- --- -- ----- -- --- ---- -- --- ---- -- ------ ------<br>--- ----- at ----,155633,155630,155336.76,155337,155338.04,155644.78,,54,at
screen,html.Screen,2_1_0_1_55,2022-05-09T11:15:28.161Z,,,,,,,,,,,,,,,,,53,,,,,,,,,,,,,,578.2200000000012,,response,,,,99,,,,,,,Space,keypress(Space),,,,,,,,---- -- ----- -- ------ - ------- --- ----------<br>------------- ------ ------ ---- ---- ------- ----- -- ----<br>-------- ------- -- ---------- --- - --- ----- ----- ----<br>---- --- --- ----- --- ---- ---- ------- ----- ---- -------<br>--- --- -- ----- -- --- ---- -- --- ---- -- ------ ------<br>--- ----- -- all.,156239,156223,155634.24,155634,155644.78,156244.88,,55,all.
Item 99,flow.Loop,2_1_0_1,2022-05-09T11:15:28.162Z,,,,,,,,,,,,,,,,,,,,,,,,,,,,,,,18663.51999999999,,completion,,,,,C,,,,,,,,,,,silence,,,,,156240,156223,137546.14,137548,137559.48,156244.88,,,
Question 1,html.Screen,2_1_0_2,2022-05-09T11:15:32.448Z,,,,,,,,,,,,,,,,,,,,,,,,,,,,true,FALSE,,4276.119999999995,,response,,,,99,C,,,,,,FALSE,click #choice-2,,,,silence,,,,,160526,160521,156241.4,156241,156244.88,160525.68,,,
Question 2,html.Screen,2_1_0_3,2022-05-09T11:15:37.919Z,,,,,,,,,,,,,,,,,,,,,,,,,,,,true,TRUE,,5462.320000000007,,response,,,,99,C,,,,,,TRUE,click #choice-1,,,,silence,,,,,165998,165988,160525.38,160526,160525.68,166006.7,,,
Item 99,flow.Sequence,2_1_0,2022-05-09T11:15:37.919Z,,,,,,,,,,,,,,,,,,,,,,,,,,,,,,,38430.399999999994,,completion,,,,,,,,,,,,,,,,,,,,,165998,165988,127549.4,127552,127557.6,166006.7,,,
Holding screen,html.Screen,2_1_1_0,2022-05-09T11:15:47.918Z,,,,,,,,,,,,,,,,,,,,,,,,,,,,,,,10001.879999999976,,timeout,,,,,,,,,,,,,,,,,,,,,175996,175995.24,165997.42,165998,166006.7,176008.58,,,
screen,html.Screen,2_1_1_1_0,2022-05-09T11:15:50.772Z,,,,,,,,,,,,,,,,,54,,,,,,,,,,,,,,2823.420000000013,,response,,,,100,,,,,,,Space,keypress(Space),,,,,,,,At --- ---- --- ------ ----- ------- ---- -- --- ------- --<br>------- ---------- ------ -- ----- -- ----- -- ---- ------<br>--- ----- --- --- ------ -------- ----- --- ------ ----- --<br>----- ----- ---------- --- --- ------ ------ ---- -- ------<br>------- --- ------ ----- --- ---- ------- -- ---- --- --<br>------- ------,178850,178832,175995.24,175997,176008.58,178862.44,,0,At
screen,html.Screen,2_1_1_1_1,2022-05-09T11:15:51.664Z,,,,,,,,,,,,,,,,,54,,,,,,,,,,,,,,860.5599999999977,,response,,,,100,,,,,,,Space,keypress(Space),,,,,,,,-- the ---- --- ------ ----- ------- ---- -- --- ------- --<br>------- ---------- ------ -- ----- -- ----- -- ---- ------<br>--- ----- --- --- ------ -------- ----- --- ------ ----- --<br>----- ----- ---------- --- --- ------ ------ ---- -- ------<br>------- --- ------ ----- --- ---- ------- -- ---- --- --<br>------- ------,179742,179723,178851.32,178851,178862.44,179755.94,,1,the
screen,html.Screen,2_1_1_1_2,2022-05-09T11:15:52.031Z,,,,,,,,,,,,,,,,,54,,,,,,,,,,,,,,342.0599999999977,,response,,,,100,,,,,,,Space,keypress(Space),,,,,,,,-- --- time --- ------ ----- ------- ---- -- --- ------- --<br>------- ---------- ------ -- ----- -- ----- -- ---- ------<br>--- ----- --- --- ------ -------- ----- --- ------ ----- --<br>----- ----- ---------- --- --- ------ ------ ---- -- ------<br>------- --- ------ ----- --- ---- ------- -- ---- --- --<br>------- ------,180109,180098,179743.06,179742,179755.94,180116,,2,time
screen,html.Screen,2_1_1_1_3,2022-05-09T11:15:52.362Z,,,,,,,,,,,,,,,,,54,,,,,,,,,,,,,,310,,response,,,,100,,,,,,,Space,keypress(Space),,,,,,,,-- --- ---- the ------ ----- ------- ---- -- --- ------- --<br>------- ---------- ------ -- ----- -- ----- -- ---- ------<br>--- ----- --- --- ------ -------- ----- --- ------ ----- --<br>----- ----- ---------- --- --- ------ ------ ---- -- ------<br>------- --- ------ ----- --- ---- ------- -- ---- --- --<br>------- ------,180441,180426,180109.64,180109,180116,180449.4,,3,the
screen,html.Screen,2_1_1_1_4,2022-05-09T11:15:52.943Z,,,,,,,,,,,,,,,,,54,,,,,,,,,,,,,,555.6000000000058,,response,,,,100,,,,,,,Space,keypress(Space),,,,,,,,-- --- ---- --- French ----- ------- ---- -- --- ------- --<br>------- ---------- ------ -- ----- -- ----- -- ---- ------<br>--- ----- --- --- ------ -------- ----- --- ------ ----- --<br>----- ----- ---------- --- --- ------ ------ ---- -- ------<br>------- --- ------ ----- --- ---- ------- -- ---- --- --<br>------- ------,181022,181005,180441.54,180441,180449.4,181022.84,,4,French
screen,html.Screen,2_1_1_1_5,2022-05-09T11:15:53.244Z,,,,,,,,,,,,,,,,,54,,,,,,,,,,,,,,294.1600000000035,,response,,,,100,,,,,,,Space,keypress(Space),,,,,,,,-- --- ---- --- ------ crown ------- ---- -- --- ------- --<br>------- ---------- ------ -- ----- -- ----- -- ---- ------<br>--- ----- --- --- ------ -------- ----- --- ------ ----- --<br>----- ----- ---------- --- --- ------ ------ ---- -- ------<br>------- --- ------ ----- --- ---- ------- -- ---- --- --<br>------- ------,181323,181317,181022.14,181022,181022.84,181329.56,,5,crown
screen,html.Screen,2_1_1_1_6,2022-05-09T11:15:53.570Z,,,,,,,,,,,,,,,,,54,,,,,,,,,,,,,,299.4400000000023,,response,,,,100,,,,,,,Space,keypress(Space),,,,,,,,-- --- ---- --- ------ ----- secured ---- -- --- ------- --<br>------- ---------- ------ -- ----- -- ----- -- ---- ------<br>--- ----- --- --- ------ -------- ----- --- ------ ----- --<br>----- ----- ---------- --- --- ------ ------ ---- -- ------<br>------- --- ------ ----- --- ---- ------- -- ---- --- --<br>------- ------,181648,181629,181322.84,181323,181329.56,181649.62,,6,secured
screen,html.Screen,2_1_1_1_7,2022-05-09T11:15:53.982Z,,,,,,,,,,,,,,,,,54,,,,,,,,,,,,,,401.38000000000466,,response,,,,100,,,,,,,Space,keypress(Space),,,,,,,,-- --- ---- --- ------ ----- ------- much -- --- ------- --<br>------- ---------- ------ -- ----- -- ----- -- ---- ------<br>--- ----- --- --- ------ -------- ----- --- ------ ----- --<br>----- ----- ---------- --- --- ------ ------ ---- -- ------<br>------- --- ------ ----- --- ---- ------- -- ---- --- --<br>------- ------,182060,182051,181648.68,181649,181649.62,182063.04,,7,much
screen,html.Screen,2_1_1_1_8,2022-05-09T11:15:54.353Z,,,,,,,,,,,,,,,,,54,,,,,,,,,,,,,,363.95999999999185,,response,,,,100,,,,,,,Space,keypress(Space),,,,,,,,-- --- ---- --- ------ ----- ------- ---- of --- ------- --<br>------- ---------- ------ -- ----- -- ----- -- ---- ------<br>--- ----- --- --- ------ -------- ----- --- ------ ----- --<br>----- ----- ---------- --- --- ------ ------ ---- -- ------<br>------- --- ------ ----- --- ---- ------- -- ---- --- --<br>------- ------,182432,182427,182060.56,182061,182063.04,182436.44,,8,of
screen,html.Screen,2_1_1_1_9,2022-05-09T11:15:54.664Z,,,,,,,,,,,,,,,,,54,,,,,,,,,,,,,,286.5599999999977,,response,,,,100,,,,,,,Space,keypress(Space),,,,,,,,-- --- ---- --- ------ ----- ------- ---- -- its ------- --<br>------- ---------- ------ -- ----- -- ----- -- ---- ------<br>--- ----- --- --- ------ -------- ----- --- ------ ----- --<br>----- ----- ---------- --- --- ------ ------ ---- -- ------<br>------- --- ------ ----- --- ---- ------- -- ---- --- --<br>------- ------,182742,182723,182432.68,182432,182436.44,182743.16,,9,its
screen,html.Screen,2_1_1_1_10,2022-05-09T11:15:55.044Z,,,,,,,,,,,,,,,,,54,,,,,,,,,,,,,,370.8399999999965,,response,,,,100,,,,,,,Space,keypress(Space),,,,,,,,-- --- ---- --- ------ ----- ------- ---- -- --- revenue --<br>------- ---------- ------ -- ----- -- ----- -- ---- ------<br>--- ----- --- --- ------ -------- ----- --- ------ ----- --<br>----- ----- ---------- --- --- ------ ------ ---- -- ------<br>------- --- ------ ----- --- ---- ------- -- ---- --- --<br>------- ------,183122,183114,182742.96,182743,182743.16,183129.9,,10,revenue
screen,html.Screen,2_1_1_1_11,2022-05-09T11:15:55.388Z,,,,,,,,,,,,,,,,,54,,,,,,,,,,,,,,328.1000000000058,,response,,,,100,,,,,,,Space,keypress(Space),,,,,,,,-- --- ---- --- ------ ----- ------- ---- -- --- ------- by<br>------- ---------- ------ -- ----- -- ----- -- ---- ------<br>--- ----- --- --- ------ -------- ----- --- ------ ----- --<br>----- ----- ---------- --- --- ------ ------ ---- -- ------<br>------- --- ------ ----- --- ---- ------- -- ---- --- --<br>------- ------,183467,183458,183122.6,183123,183129.9,183476.64,,11,by
screen,html.Screen,2_1_1_1_12,2022-05-09T11:15:56.064Z,,,,,,,,,,,,,,,,,54,,,,,,,,,,,,,,653.359999999986,,response,,,,100,,,,,,,Space,keypress(Space),,,,,,,,-- --- ---- --- ------ ----- ------- ---- -- --- ------- --<br>issuing ---------- ------ -- ----- -- ----- -- ---- ------<br>--- ----- --- --- ------ -------- ----- --- ------ ----- --<br>----- ----- ---------- --- --- ------ ------ ---- -- ------<br>------- --- ------ ----- --- ---- ------- -- ---- --- --<br>------- ------,184142,184130,183467.04,183467,183476.64,184143.42,,12,issuing
screen,html.Screen,2_1_1_1_13,2022-05-09T11:15:56.345Z,,,,,,,,,,,,,,,,,54,,,,,,,,,,,,,,267.5799999999872,,response,,,,100,,,,,,,Space,keypress(Space),,,,,,,,-- --- ---- --- ------ ----- ------- ---- -- --- ------- --<br>------- government ------ -- ----- -- ----- -- ---- ------<br>--- ----- --- --- ------ -------- ----- --- ------ ----- --<br>----- ----- ---------- --- --- ------ ------ ---- -- ------<br>------- --- ------ ----- --- ---- ------- -- ---- --- --<br>------- ------,184423,184411,184143.06,184143,184143.42,184436.82,,13,government
screen,html.Screen,2_1_1_1_14,2022-05-09T11:15:56.612Z,,,,,,,,,,,,,,,,,54,,,,,,,,,,,,,,240.17999999999302,,response,,,,100,,,,,,,Space,keypress(Space),,,,,,,,-- --- ---- --- ------ ----- ------- ---- -- --- ------- --<br>------- ---------- bonds. -- ----- -- ----- -- ---- ------<br>--- ----- --- --- ------ -------- ----- --- ------ ----- --<br>----- ----- ---------- --- --- ------ ------ ---- -- ------<br>------- --- ------ ----- --- ---- ------- -- ---- --- --<br>------- ------,184691,184677,184424,184424,184436.82,184703.52,,14,bonds.
screen,html.Screen,2_1_1_1_15,2022-05-09T11:15:57.057Z,,,,,,,,,,,,,,,,,54,,,,,,,,,,,,,,425.4800000000105,,response,,,,100,,,,,,,Space,keypress(Space),,,,,,,,-- --- ---- --- ------ ----- ------- ---- -- --- ------- --<br>------- ---------- ------ In ----- -- ----- -- ---- ------<br>--- ----- --- --- ------ -------- ----- --- ------ ----- --<br>----- ----- ---------- --- --- ------ ------ ---- -- ------<br>------- --- ------ ----- --- ---- ------- -- ---- --- --<br>------- ------,185136,185129,184690.68,184691,184703.52,185143.62,,15,In
screen,html.Screen,2_1_1_1_16,2022-05-09T11:15:58.090Z,,,,,,,,,,,,,,,,,54,,,,,,,,,,,,,,1016.3800000000047,,response,,,,100,,,,,,,Space,keypress(Space),,,,,,,,"-- --- ---- --- ------ ----- ------- ---- -- --- ------- --<br>------- ---------- ------ -- 1727, -- ----- -- ---- ------<br>--- ----- --- --- ------ -------- ----- --- ------ ----- --<br>----- ----- ---------- --- --- ------ ------ ---- -- ------<br>------- --- ------ ----- --- ---- ------- -- ---- --- --<br>------- ------",186168,186160,185135.86,185136,185143.62,186170.48,,16,"1727,"
screen,html.Screen,2_1_1_1_17,2022-05-09T11:15:58.481Z,,,,,,,,,,,,,,,,,54,,,,,,,,,,,,,,381.5199999999895,,response,,,,100,,,,,,,Space,keypress(Space),,,,,,,,-- --- ---- --- ------ ----- ------- ---- -- --- ------- --<br>------- ---------- ------ -- ----- in ----- -- ---- ------<br>--- ----- --- --- ------ -------- ----- --- ------ ----- --<br>----- ----- ---------- --- --- ------ ------ ---- -- ------<br>------- --- ------ ----- --- ---- ------- -- ---- --- --<br>------- ------,186558,186552,186169.04,186168,186170.48,186570.54,,17,in
screen,html.Screen,2_1_1_1_18,2022-05-09T11:15:58.799Z,,,,,,,,,,,,,,,,,54,,,,,,,,,,,,,,293.45999999999185,,response,,,,100,,,,,,,Space,keypress(Space),,,,,,,,-- --- ---- --- ------ ----- ------- ---- -- --- ------- --<br>------- ---------- ------ -- ----- -- order -- ---- ------<br>--- ----- --- --- ------ -------- ----- --- ------ ----- --<br>----- ----- ---------- --- --- ------ ------ ---- -- ------<br>------- --- ------ ----- --- ---- ------- -- ---- --- --<br>------- ------,186877,186864,186558.94,186558,186570.54,186890.6,,18,order
screen,html.Screen,2_1_1_1_19,2022-05-09T11:15:59.181Z,,,,,,,,,,,,,,,,,54,,,,,,,,,,,,,,363.3999999999942,,response,,,,100,,,,,,,Space,keypress(Space),,,,,,,,-- --- ---- --- ------ ----- ------- ---- -- --- ------- --<br>------- ---------- ------ -- ----- -- ----- to ---- ------<br>--- ----- --- --- ------ -------- ----- --- ------ ----- --<br>----- ----- ---------- --- --- ------ ------ ---- -- ------<br>------- --- ------ ----- --- ---- ------- -- ---- --- --<br>------- ------,187259,187254,186877.6,186877,186890.6,187264,,19,to
screen,html.Screen,2_1_1_1_20,2022-05-09T11:15:59.497Z,,,,,,,,,,,,,,,,,54,,,,,,,,,,,,,,304,,response,,,,100,,,,,,,Space,keypress(Space),,,,,,,,-- --- ---- --- ------ ----- ------- ---- -- --- ------- --<br>------- ---------- ------ -- ----- -- ----- -- save ------<br>--- ----- --- --- ------ -------- ----- --- ------ ----- --<br>----- ----- ---------- --- --- ------ ------ ---- -- ------<br>------- --- ------ ----- --- ---- ------- -- ---- --- --<br>------- ------,187576,187568,187259.82,187260,187264,187584.06,,20,save
screen,html.Screen,2_1_1_1_21,2022-05-09T11:15:59.801Z,,,,,,,,,,,,,,,,,54,,,,,,,,,,,,,,279.9400000000023,,response,,,,100,,,,,,,Space,keypress(Space),,,,,,,,"-- --- ---- --- ------ ----- ------- ---- -- --- ------- --<br>------- ---------- ------ -- ----- -- ----- -- ---- money,<br>--- ----- --- --- ------ -------- ----- --- ------ ----- --<br>----- ----- ---------- --- --- ------ ------ ---- -- ------<br>------- --- ------ ----- --- ---- ------- -- ---- --- --<br>------- ------",187880,187864,187576.4,187576,187584.06,187890.8,,21,"money,"
screen,html.Screen,2_1_1_1_22,2022-05-09T11:16:00.034Z,,,,,,,,,,,,,,,,,54,,,,,,,,,,,,,,207.20000000001164,,response,,,,100,,,,,,,Space,keypress(Space),,,,,,,,-- --- ---- --- ------ ----- ------- ---- -- --- ------- --<br>------- ---------- ------ -- ----- -- ----- -- ---- ------<br>the ----- --- --- ------ -------- ----- --- ------ ----- --<br>----- ----- ---------- --- --- ------ ------ ---- -- ------<br>------- --- ------ ----- --- ---- ------- -- ---- --- --<br>------- ------,188113,188098,187880.16,187880,187890.8,188117.5,,22,the
screen,html.Screen,2_1_1_1_23,2022-05-09T11:16:00.309Z,,,,,,,,,,,,,,,,,54,,,,,,,,,,,,,,261.5,,response,,,,100,,,,,,,Space,keypress(Space),,,,,,,,-- --- ---- --- ------ ----- ------- ---- -- --- ------- --<br>------- ---------- ------ -- ----- -- ----- -- ---- ------<br>--- state --- --- ------ -------- ----- --- ------ ----- --<br>----- ----- ---------- --- --- ------ ------ ---- -- ------<br>------- --- ------ ----- --- ---- ------- -- ---- --- --<br>------- ------,188388,188379,188112.98,188113,188117.5,188397.56,,23,state
screen,html.Screen,2_1_1_1_24,2022-05-09T11:16:00.597Z,,,,,,,,,,,,,,,,,54,,,,,,,,,,,,,,262.4400000000023,,response,,,,100,,,,,,,Space,keypress(Space),,,,,,,,-- --- ---- --- ------ ----- ------- ---- -- --- ------- --<br>------- ---------- ------ -- ----- -- ----- -- ---- ------<br>--- ----- cut --- ------ -------- ----- --- ------ ----- --<br>----- ----- ---------- --- --- ------ ------ ---- -- ------<br>------- --- ------ ----- --- ---- ------- -- ---- --- --<br>------- ------,188675,188660,188387.62,188388,188397.56,188677.6,,24,cut
screen,html.Screen,2_1_1_1_25,2022-05-09T11:16:00.780Z,,,,,,,,,,,,,,,,,54,,,,,,,,,,,,,,171.39999999999418,,response,,,,100,,,,,,,Space,keypress(Space),,,,,,,,-- --- ---- --- ------ ----- ------- ---- -- --- ------- --<br>------- ---------- ------ -- ----- -- ----- -- ---- ------<br>--- ----- --- the ------ -------- ----- --- ------ ----- --<br>----- ----- ---------- --- --- ------ ------ ---- -- ------<br>------- --- ------ ----- --- ---- ------- -- ---- --- --<br>------- ------,188859,188849,188676.02,188676,188677.6,188864.3,,25,the
screen,html.Screen,2_1_1_1_26,2022-05-09T11:16:01.035Z,,,,,,,,,,,,,,,,,54,,,,,,,,,,,,,,233.70000000001164,,response,,,,100,,,,,,,Space,keypress(Space),,,,,,,,-- --- ---- --- ------ ----- ------- ---- -- --- ------- --<br>------- ---------- ------ -- ----- -- ----- -- ---- ------<br>--- ----- --- --- bonds' -------- ----- --- ------ ----- --<br>----- ----- ---------- --- --- ------ ------ ---- -- ------<br>------- --- ------ ----- --- ---- ------- -- ---- --- --<br>------- ------,189114,189098,188858.84,188859,188864.3,189117.68,,26,bonds'
screen,html.Screen,2_1_1_1_27,2022-05-09T11:16:01.377Z,,,,,,,,,,,,,,,,,54,,,,,,,,,,,,,,325.320000000007,,response,,,,100,,,,,,,Space,keypress(Space),,,,,,,,-- --- ---- --- ------ ----- ------- ---- -- --- ------- --<br>------- ---------- ------ -- ----- -- ----- -- ---- ------<br>--- ----- --- --- ------ interest ----- --- ------ ----- --<br>----- ----- ---------- --- --- ------ ------ ---- -- ------<br>------- --- ------ ----- --- ---- ------- -- ---- --- --<br>------- ------,189455,189443,189114.28,189114,189117.68,189464.42,,27,interest
screen,html.Screen,2_1_1_1_28,2022-05-09T11:16:01.675Z,,,,,,,,,,,,,,,,,54,,,,,,,,,,,,,,274.5799999999872,,response,,,,100,,,,,,,Space,keypress(Space),,,,,,,,-- --- ---- --- ------ ----- ------- ---- -- --- ------- --<br>------- ---------- ------ -- ----- -- ----- -- ---- ------<br>--- ----- --- --- ------ -------- rate. --- ------ ----- --<br>----- ----- ---------- --- --- ------ ------ ---- -- ------<br>------- --- ------ ----- --- ---- ------- -- ---- --- --<br>------- ------,189753,189739,189455.92,189455,189464.42,189757.8,,28,rate.
screen,html.Screen,2_1_1_1_29,2022-05-09T11:16:02.045Z,,,,,,,,,,,,,,,,,54,,,,,,,,,,,,,,356.20000000001164,,response,,,,100,,,,,,,Space,keypress(Space),,,,,,,,-- --- ---- --- ------ ----- ------- ---- -- --- ------- --<br>------- ---------- ------ -- ----- -- ----- -- ---- ------<br>--- ----- --- --- ------ -------- ----- The ------ ----- --<br>----- ----- ---------- --- --- ------ ------ ---- -- ------<br>------- --- ------ ----- --- ---- ------- -- ---- --- --<br>------- ------,190124,190114,189753.7,189754,189757.8,190131.2,,29,The
screen,html.Screen,2_1_1_1_30,2022-05-09T11:16:02.399Z,,,,,,,,,,,,,,,,,54,,,,,,,,,,,,,,342.79999999998836,,response,,,,100,,,,,,,Space,keypress(Space),,,,,,,,-- --- ---- --- ------ ----- ------- ---- -- --- ------- --<br>------- ---------- ------ -- ----- -- ----- -- ---- ------<br>--- ----- --- --- ------ -------- ----- --- market ----- --<br>----- ----- ---------- --- --- ------ ------ ---- -- ------<br>------- --- ------ ----- --- ---- ------- -- ---- --- --<br>------- ------,190478,190474,190123.78,190124,190131.2,190491.28,,30,market
screen,html.Screen,2_1_1_1_31,2022-05-09T11:16:02.740Z,,,,,,,,,,,,,,,,,54,,,,,,,,,,,,,,310.72000000000116,,response,,,,100,,,,,,,Space,keypress(Space),,,,,,,,-- --- ---- --- ------ ----- ------- ---- -- --- ------- --<br>------- ---------- ------ -- ----- -- ----- -- ---- ------<br>--- ----- --- --- ------ -------- ----- --- ------ value --<br>----- ----- ---------- --- --- ------ ------ ---- -- ------<br>------- --- ------ ----- --- ---- ------- -- ---- --- --<br>------- ------,190818,190802,190478.2,190478,190491.28,190824.68,,31,value
screen,html.Screen,2_1_1_1_32,2022-05-09T11:16:03.046Z,,,,,,,,,,,,,,,,,54,,,,,,,,,,,,,,289.320000000007,,response,,,,100,,,,,,,Space,keypress(Space),,,,,,,,-- --- ---- --- ------ ----- ------- ---- -- --- ------- --<br>------- ---------- ------ -- ----- -- ----- -- ---- ------<br>--- ----- --- --- ------ -------- ----- --- ------ ----- of<br>----- ----- ---------- --- --- ------ ------ ---- -- ------<br>------- --- ------ ----- --- ---- ------- -- ---- --- --<br>------- ------,191123,191114,190818.06,190818,190824.68,191131.4,,32,of
screen,html.Screen,2_1_1_1_33,2022-05-09T11:16:03.346Z,,,,,,,,,,,,,,,,,54,,,,,,,,,,,,,,279.6000000000058,,response,,,,100,,,,,,,Space,keypress(Space),,,,,,,,-- --- ---- --- ------ ----- ------- ---- -- --- ------- --<br>------- ---------- ------ -- ----- -- ----- -- ---- ------<br>--- ----- --- --- ------ -------- ----- --- ------ ----- --<br>these ----- ---------- --- --- ------ ------ ---- -- ------<br>------- --- ------ ----- --- ---- ------- -- ---- --- --<br>------- ------,191425,191411,191124.1,191124,191131.4,191438.12,,33,these
screen,html.Screen,2_1_1_1_34,2022-05-09T11:16:03.601Z,,,,,,,,,,,,,,,,,54,,,,,,,,,,,,,,238.88000000000466,,response,,,,100,,,,,,,Space,keypress(Space),,,,,,,,-- --- ---- --- ------ ----- ------- ---- -- --- ------- --<br>------- ---------- ------ -- ----- -- ----- -- ---- ------<br>--- ----- --- --- ------ -------- ----- --- ------ ----- --<br>----- bonds ---------- --- --- ------ ------ ---- -- ------<br>------- --- ------ ----- --- ---- ------- -- ---- --- --<br>------- ------,191679,191677,191425.16,191425,191438.12,191691.5,,34,bonds
screen,html.Screen,2_1_1_1_35,2022-05-09T11:16:03.823Z,,,,,,,,,,,,,,,,,54,,,,,,,,,,,,,,203.5,,response,,,,100,,,,,,,Space,keypress(Space),,,,,,,,"-- --- ---- --- ------ ----- ------- ---- -- --- ------- --<br>------- ---------- ------ -- ----- -- ----- -- ---- ------<br>--- ----- --- --- ------ -------- ----- --- ------ ----- --<br>----- ----- plummeted, --- --- ------ ------ ---- -- ------<br>------- --- ------ ----- --- ---- ------- -- ---- --- --<br>------- ------",191901,191895,191679.56,191679,191691.5,191904.88,,35,"plummeted,"
screen,html.Screen,2_1_1_1_36,2022-05-09T11:16:04.192Z,,,,,,,,,,,,,,,,,54,,,,,,,,,,,,,,349.11999999999534,,response,,,,100,,,,,,,Space,keypress(Space),,,,,,,,-- --- ---- --- ------ ----- ------- ---- -- --- ------- --<br>------- ---------- ------ -- ----- -- ----- -- ---- ------<br>--- ----- --- --- ------ -------- ----- --- ------ ----- --<br>----- ----- ---------- and --- ------ ------ ---- -- ------<br>------- --- ------ ----- --- ---- ------- -- ---- --- --<br>------- ------,192270,192254,191901.76,191901,191904.88,192278.28,,36,and
screen,html.Screen,2_1_1_1_37,2022-05-09T11:16:04.491Z,,,,,,,,,,,,,,,,,54,,,,,,,,,,,,,,272.72000000000116,,response,,,,100,,,,,,,Space,keypress(Space),,,,,,,,-- --- ---- --- ------ ----- ------- ---- -- --- ------- --<br>------- ---------- ------ -- ----- -- ----- -- ---- ------<br>--- ----- --- --- ------ -------- ----- --- ------ ----- --<br>----- ----- ---------- --- the ------ ------ ---- -- ------<br>------- --- ------ ----- --- ---- ------- -- ---- --- --<br>------- ------,192569,192551,192271.52,192271,192278.28,192571.66,,37,the
screen,html.Screen,2_1_1_1_38,2022-05-09T11:16:04.822Z,,,,,,,,,,,,,,,,,54,,,,,,,,,,,,,,323.3399999999965,,response,,,,100,,,,,,,Space,keypress(Space),,,,,,,,-- --- ---- --- ------ ----- ------- ---- -- --- ------- --<br>------- ---------- ------ -- ----- -- ----- -- ---- ------<br>--- ----- --- --- ------ -------- ----- --- ------ ----- --<br>----- ----- ---------- --- --- market ------ ---- -- ------<br>------- --- ------ ----- --- ---- ------- -- ---- --- --<br>------- ------,192900,192895,192570.72,192570,192571.66,192905.06,,38,market
screen,html.Screen,2_1_1_1_39,2022-05-09T11:16:05.104Z,,,,,,,,,,,,,,,,,54,,,,,,,,,,,,,,270.9400000000023,,response,,,,100,,,,,,,Space,keypress(Space),,,,,,,,-- --- ---- --- ------ ----- ------- ---- -- --- ------- --<br>------- ---------- ------ -- ----- -- ----- -- ---- ------<br>--- ----- --- --- ------ -------- ----- --- ------ ----- --<br>----- ----- ---------- --- --- ------ became ---- -- ------<br>------- --- ------ ----- --- ---- ------- -- ---- --- --<br>------- ------,193182,193176,192900.86,192900,192905.06,193185.12,,39,became
screen,html.Screen,2_1_1_1_40,2022-05-09T11:16:05.417Z,,,,,,,,,,,,,,,,,54,,,,,,,,,,,,,,302.88000000000466,,response,,,,100,,,,,,,Space,keypress(Space),,,,,,,,-- --- ---- --- ------ ----- ------- ---- -- --- ------- --<br>------- ---------- ------ -- ----- -- ----- -- ---- ------<br>--- ----- --- --- ------ -------- ----- --- ------ ----- --<br>----- ----- ---------- --- --- ------ ------ wary -- ------<br>------- --- ------ ----- --- ---- ------- -- ---- --- --<br>------- ------,193496,193488,193182.24,193182,193185.12,193505.18,,40,wary
screen,html.Screen,2_1_1_1_41,2022-05-09T11:16:05.753Z,,,,,,,,,,,,,,,,,54,,,,,,,,,,,,,,311.820000000007,,response,,,,100,,,,,,,Space,keypress(Space),,,,,,,,-- --- ---- --- ------ ----- ------- ---- -- --- ------- --<br>------- ---------- ------ -- ----- -- ----- -- ---- ------<br>--- ----- --- --- ------ -------- ----- --- ------ ----- --<br>----- ----- ---------- --- --- ------ ------ ---- of ------<br>------- --- ------ ----- --- ---- ------- -- ---- --- --<br>------- ------,193832,193817,193496.38,193496,193505.18,193838.56,,41,of
screen,html.Screen,2_1_1_1_42,2022-05-09T11:16:06.057Z,,,,,,,,,,,,,,,,,54,,,,,,,,,,,,,,290.4400000000023,,response,,,,100,,,,,,,Space,keypress(Space),,,,,,,,-- --- ---- --- ------ ----- ------- ---- -- --- ------- --<br>------- ---------- ------ -- ----- -- ----- -- ---- ------<br>--- ----- --- --- ------ -------- ----- --- ------ ----- --<br>----- ----- ---------- --- --- ------ ------ ---- -- French<br>------- --- ------ ----- --- ---- ------- -- ---- --- --<br>------- ------,194136,194129,193832.16,193833,193838.56,194145.3,,42,French
screen,html.Screen,2_1_1_1_43,2022-05-09T11:16:06.417Z,,,,,,,,,,,,,,,,,54,,,,,,,,,,,,,,342.70000000001164,,response,,,,100,,,,,,,Space,keypress(Space),,,,,,,,-- --- ---- --- ------ ----- ------- ---- -- --- ------- --<br>------- ---------- ------ -- ----- -- ----- -- ---- ------<br>--- ----- --- --- ------ -------- ----- --- ------ ----- --<br>----- ----- ---------- --- --- ------ ------ ---- -- ------<br>credit. --- ------ ----- --- ---- ------- -- ---- --- --<br>------- ------,194497,194488,194136.14,194136,194145.3,194505.36,,43,credit.
screen,html.Screen,2_1_1_1_44,2022-05-09T11:16:06.844Z,,,,,,,,,,,,,,,,,54,,,,,,,,,,,,,,405.64000000001397,,response,,,,100,,,,,,,Space,keypress(Space),,,,,,,,-- --- ---- --- ------ ----- ------- ---- -- --- ------- --<br>------- ---------- ------ -- ----- -- ----- -- ---- ------<br>--- ----- --- --- ------ -------- ----- --- ------ ----- --<br>----- ----- ---------- --- --- ------ ------ ---- -- ------<br>------- The ------ ----- --- ---- ------- -- ---- --- --<br>------- ------,194923,194911,194496.78,194497,194505.36,194932.1,,44,The
screen,html.Screen,2_1_1_1_45,2022-05-09T11:16:07.280Z,,,,,,,,,,,,,,,,,54,,,,,,,,,,,,,,416.8999999999942,,response,,,,100,,,,,,,Space,keypress(Space),,,,,,,,-- --- ---- --- ------ ----- ------- ---- -- --- ------- --<br>------- ---------- ------ -- ----- -- ----- -- ---- ------<br>--- ----- --- --- ------ -------- ----- --- ------ ----- --<br>----- ----- ---------- --- --- ------ ------ ---- -- ------<br>------- --- French ----- --- ---- ------- -- ---- --- --<br>------- ------,195359,195349,194923.3,194923,194932.1,195372.18,,45,French
screen,html.Screen,2_1_1_1_46,2022-05-09T11:16:07.528Z,,,,,,,,,,,,,,,,,54,,,,,,,,,,,,,,226.82000000000698,,response,,,,100,,,,,,,Space,keypress(Space),,,,,,,,-- --- ---- --- ------ ----- ------- ---- -- --- ------- --<br>------- ---------- ------ -- ----- -- ----- -- ---- ------<br>--- ----- --- --- ------ -------- ----- --- ------ ----- --<br>----- ----- ---------- --- --- ------ ------ ---- -- ------<br>------- --- ------ state --- ---- ------- -- ---- --- --<br>------- ------,195606,195599,195359.12,195359,195372.18,195614.12,,46,state
screen,html.Screen,2_1_1_1_47,2022-05-09T11:16:07.810Z,,,,,,,,,,,,,,,,,54,,,,,,,,,,,,,,264.88000000000466,,response,,,,100,,,,,,,Space,keypress(Space),,,,,,,,-- --- ---- --- ------ ----- ------- ---- -- --- ------- --<br>------- ---------- ------ -- ----- -- ----- -- ---- ------<br>--- ----- --- --- ------ -------- ----- --- ------ ----- --<br>----- ----- ---------- --- --- ------ ------ ---- -- ------<br>------- --- ------ ----- was ---- ------- -- ---- --- --<br>------- ------,195889,195879,195606.68,195606,195614.12,195894.16,,47,was
screen,html.Screen,2_1_1_1_48,2022-05-09T11:16:08.140Z,,,,,,,,,,,,,,,,,54,,,,,,,,,,,,,,312.8399999999965,,response,,,,100,,,,,,,Space,keypress(Space),,,,,,,,-- --- ---- --- ------ ----- ------- ---- -- --- ------- --<br>------- ---------- ------ -- ----- -- ----- -- ---- ------<br>--- ----- --- --- ------ -------- ----- --- ------ ----- --<br>----- ----- ---------- --- --- ------ ------ ---- -- ------<br>------- --- ------ ----- --- left ------- -- ---- --- --<br>------- ------,196219,196207,195889.14,195889,195894.16,196227.56,,48,left
screen,html.Screen,2_1_1_1_49,2022-05-09T11:16:08.861Z,,,,,,,,,,,,,,,,,54,,,,,,,,,,,,,,699.4400000000023,,response,,,,100,,,,,,,Space,keypress(Space),,,,,,,,-- --- ---- --- ------ ----- ------- ---- -- --- ------- --<br>------- ---------- ------ -- ----- -- ----- -- ---- ------<br>--- ----- --- --- ------ -------- ----- --- ------ ----- --<br>----- ----- ---------- --- --- ------ ------ ---- -- ------<br>------- --- ------ ----- --- ---- without -- ---- --- --<br>------- ------,196940,196927,196219.16,196220,196227.56,196947.7,,49,without
screen,html.Screen,2_1_1_1_50,2022-05-09T11:16:09.138Z,,,,,,,,,,,,,,,,,54,,,,,,,,,,,,,,260.29999999998836,,response,,,,100,,,,,,,Space,keypress(Space),,,,,,,,-- --- ---- --- ------ ----- ------- ---- -- --- ------- --<br>------- ---------- ------ -- ----- -- ----- -- ---- ------<br>--- ----- --- --- ------ -------- ----- --- ------ ----- --<br>----- ----- ---------- --- --- ------ ------ ---- -- ------<br>------- --- ------ ----- --- ---- ------- an ---- --- --<br>------- ------,197217,197208,196939.82,196940,196947.7,197227.74,,50,an
screen,html.Screen,2_1_1_1_51,2022-05-09T11:16:09.430Z,,,,,,,,,,,,,,,,,54,,,,,,,,,,,,,,277.2600000000093,,response,,,,100,,,,,,,Space,keypress(Space),,,,,,,,-- --- ---- --- ------ ----- ------- ---- -- --- ------- --<br>------- ---------- ------ -- ----- -- ----- -- ---- ------<br>--- ----- --- --- ------ -------- ----- --- ------ ----- --<br>----- ----- ---------- --- --- ------ ------ ---- -- ------<br>------- --- ------ ----- --- ---- ------- -- easy --- --<br>------- ------,197509,197505,197216.4,197217,197227.74,197521.14,,51,easy
screen,html.Screen,2_1_1_1_52,2022-05-09T11:16:09.757Z,,,,,,,,,,,,,,,,,54,,,,,,,,,,,,,,296.85999999998603,,response,,,,100,,,,,,,Space,keypress(Space),,,,,,,,-- --- ---- --- ------ ----- ------- ---- -- --- ------- --<br>------- ---------- ------ -- ----- -- ----- -- ---- ------<br>--- ----- --- --- ------ -------- ----- --- ------ ----- --<br>----- ----- ---------- --- --- ------ ------ ---- -- ------<br>------- --- ------ ----- --- ---- ------- -- ---- way --<br>------- ------,197836,197818,197508.7,197509,197521.14,197841.2,,52,way
screen,html.Screen,2_1_1_1_53,2022-05-09T11:16:10.113Z,,,,,,,,,,,,,,,,,54,,,,,,,,,,,,,,335.79999999998836,,response,,,,100,,,,,,,Space,keypress(Space),,,,,,,,-- --- ---- --- ------ ----- ------- ---- -- --- ------- --<br>------- ---------- ------ -- ----- -- ----- -- ---- ------<br>--- ----- --- --- ------ -------- ----- --- ------ ----- --<br>----- ----- ---------- --- --- ------ ------ ---- -- ------<br>------- --- ------ ----- --- ---- ------- -- ---- --- of<br>------- ------,198193,198177,197836.4,197837,197841.2,198201.26,,53,of
screen,html.Screen,2_1_1_1_54,2022-05-09T11:16:10.523Z,,,,,,,,,,,,,,,,,54,,,,,,,,,,,,,,380.7399999999907,,response,,,,100,,,,,,,Space,keypress(Space),,,,,,,,-- --- ---- --- ------ ----- ------- ---- -- --- ------- --<br>------- ---------- ------ -- ----- -- ----- -- ---- ------<br>--- ----- --- --- ------ -------- ----- --- ------ ----- --<br>----- ----- ---------- --- --- ------ ------ ---- -- ------<br>------- --- ------ ----- --- ---- ------- -- ---- --- --<br>raising ------,198601,198582,198192.18,198193,198201.26,198614.68,,54,raising
screen,html.Screen,2_1_1_1_55,2022-05-09T11:16:10.959Z,,,,,,,,,,,,,,,,,54,,,,,,,,,,,,,,405.320000000007,,response,,,,100,,,,,,,Space,keypress(Space),,,,,,,,-- --- ---- --- ------ ----- ------- ---- -- --- ------- --<br>------- ---------- ------ -- ----- -- ----- -- ---- ------<br>--- ----- --- --- ------ -------- ----- --- ------ ----- --<br>----- ----- ---------- --- --- ------ ------ ---- -- ------<br>------- --- ------ ----- --- ---- ------- -- ---- --- --<br>------- money.,199037,199020,198601.78,198601,198614.68,199041.42,,55,money.
Item 100,flow.Loop,2_1_1_1,2022-05-09T11:16:10.959Z,,,,,,,,,,,,,,,,,,,,,,,,,,,,,,,23011.420000000013,,completion,,,,,C,,,,,,,,,,,silence,,,,,199037,199020,175995.24,175996,176008.58,199041.42,,,
Question 1,html.Screen,2_1_1_2,2022-05-09T11:16:13.632Z,,,,,,,,,,,,,,,,,,,,,,,,,,,,true,TRUE,,2650.579999999987,,response,,,,100,C,,,,,,TRUE,click #choice-1,,,,silence,,,,,201710,201692,199038.08,199038,199041.42,201721.92,,,
Question 2,html.Screen,2_1_1_3,2022-05-09T11:16:15.727Z,,,,,,,,,,,,,,,,,,,,,,,,,,,,true,FALSE,,2080.079999999987,,response,,,,100,C,,,,,,FALSE,click #choice-2,,,,silence,,,,,203806,203802,201709.9,201710,201721.92,203815.64,,,
Item 100,flow.Sequence,2_1_1,2022-05-09T11:16:15.728Z,,,,,,,,,,,,,,,,,,,,,,,,,,,,,,,37795.29999999999,,completion,,,,,,,,,,,,,,,,,,,,,203806,203802,165997.42,165998,166006.7,203815.64,,,
End of Practice,html.Page,2_1_2,2022-05-09T11:16:18.497Z,,,,,,,,,,,,,,,,,,,,,,,,,,,,,,,2759.359999999986,,form submission,,,,,,,,,,,,,,,,,,,,,206575,206575,203805.44,203806,203815.64,206576.16,,,
Practice,flow.Sequence,2_1,2022-05-09T11:16:18.498Z,,,,,,,,,,,,,,,,,,,,,,,,,,,,,,,79017.4,,completion,,,,,,,,,,,,,,,,,,,,,206575,206575,127549.4,127552,127557.6,206576.16,,,
Trap_instruction,html.Page,2_2_0,2022-05-09T11:16:22.688Z,,,,,,,,,,,,,,,,,,,,,,,,,,,,,,,4190.8399999999965,,form submission,,,,,,,,,,,,,,,,,,,,,210767,210767,206573.3,206576,206576.16,210776.94,,,
trap_trial,html.Screen,2_2_1,2022-05-09T11:16:26.735Z,,,,,,,,,,,,,,,,,,,,,,,,,,,,true,1,,4024.0599999999977,,response,,,,,,,,,,,1,click #choice-1,,,,,,,,,214814,214801,210765.46,210768,210776.94,214817.7,,,
end of trap trial,html.Page,2_2_2,2022-05-09T11:16:29.305Z,,,,,,,,,,,,,,,,,,,,,,,,,,,,,,,2565.2999999999884,,form submission,,,,,,,,,,,,,,,,,,,,,217383,217383,214813.32,214814,214817.7,217391.52,,,
Trap 1,flow.Sequence,2_2,2022-05-09T11:16:29.305Z,,,,,,,,,,,,,,,,,,,,,,,,,,,,,,,10806.839999999997,,completion,,,,,,,,,,,,,,,,,,,,,217383,217383,206573.3,206575,206576.16,217391.52,,,
Standby,html.Page,2_3_0,2022-05-09T11:16:37.303Z,,,,,,,,,,,,,,,,,,,,,,,,,,,,,,,8001.4800000000105,,timeout,,,,,,,,,,,,,,,,,,,,,225382,225379.66,217381.42,217383,217391.52,225393,,,
Holding screen,html.Screen,2_3_1_0_0,2022-05-09T11:16:44.306Z,,,,,,,,,,,,,,,,,,,,,,,,,,,,,,,7001.320000000007,,timeout,,,,,,,,,,,,,,,,,,,,,232384,232380.98,225379.66,225382,225393,232394.32,,,
screen,html.Screen,2_3_1_0_1_0,2022-05-09T11:16:46.609Z,,,,,,,,,,,,,,,,,12,,,,,,,,,,,,,,2281.679999999993,,response,,,,5,C,,,,,,Space,keypress(Space),,,,instrumental,,,,Some ------ ------ ------- ------ --- ------- -----------<br>-- ----- --- ---- -- --- ------ ---- - ---- -- ----------<br>-- ------ ---- --- ---- --- --- --- ----- -- -------- ---<br>------ ------- -------- --- ---- -- ------- ------------ --<br>------ -- ---- -- --- ---- -- -------- -- --- ------ ------,234687,234676,232380.98,232385,232394.32,234688.08,,0,Some
screen,html.Screen,2_3_1_0_1_1,2022-05-09T11:16:46.963Z,,,,,,,,,,,,,,,,,12,,,,,,,,,,,,,,346.9200000000128,,response,,,,5,C,,,,,,Space,keypress(Space),,,,instrumental,,,,---- months ------ ------- ------ --- ------- -----------<br>-- ----- --- ---- -- --- ------ ---- - ---- -- ----------<br>-- ------ ---- --- ---- --- --- --- ----- -- -------- ---<br>------ ------- -------- --- ---- -- ------- ------------ --<br>------ -- ---- -- --- ---- -- -------- -- --- ------ ------,235041,235035,234687.64,234687,234688.08,235048.14,,1,months
screen,html.Screen,2_3_1_0_1_2,2022-05-09T11:16:47.323Z,,,,,,,,,,,,,,,,,12,,,,,,,,,,,,,,346.85999999998603,,response,,,,5,C,,,,,,Space,keypress(Space),,,,instrumental,,,,"---- ------ later, ------- ------ --- ------- -----------<br>-- ----- --- ---- -- --- ------ ---- - ---- -- ----------<br>-- ------ ---- --- ---- --- --- --- ----- -- -------- ---<br>------ ------- -------- --- ---- -- ------- ------------ --<br>------ -- ---- -- --- ---- -- -------- -- --- ------ ------",235401,235395,235041.56,235041,235048.14,235408.2,,2,"later,"
screen,html.Screen,2_3_1_0_1_3,2022-05-09T11:16:47.624Z,,,,,,,,,,,,,,,,,12,,,,,,,,,,,,,,283.79999999998836,,response,,,,5,C,,,,,,Space,keypress(Space),,,,instrumental,,,,---- ------ ------ Michael ------ --- ------- -----------<br>-- ----- --- ---- -- --- ------ ---- - ---- -- ----------<br>-- ------ ---- --- ---- --- --- --- ----- -- -------- ---<br>------ ------- -------- --- ---- -- ------- ------------ --<br>------ -- ---- -- --- ---- -- -------- -- --- ------ ------,235702,235692,235402.08,235402,235408.2,235716.94,,3,Michael
screen,html.Screen,2_3_1_0_1_4,2022-05-09T11:16:48.214Z,,,,,,,,,,,,,,,,,12,,,,,,,,,,,,,,568.0599999999977,,response,,,,5,C,,,,,,Space,keypress(Space),,,,instrumental,,,,---- ------ ------ ------- Larson --- ------- -----------<br>-- ----- --- ---- -- --- ------ ---- - ---- -- ----------<br>-- ------ ---- --- ---- --- --- --- ----- -- -------- ---<br>------ ------- -------- --- ---- -- ------- ------------ --<br>------ -- ---- -- --- ---- -- -------- -- --- ------ ------,236293,236285,235702.64,235702,235716.94,236303.62,,4,Larson
screen,html.Screen,2_3_1_0_1_5,2022-05-09T11:16:48.392Z,,,,,,,,,,,,,,,,,12,,,,,,,,,,,,,,154.38000000000466,,response,,,,5,C,,,,,,Space,keypress(Space),,,,instrumental,,,,---- ------ ------ ------- ------ saw ------- -----------<br>-- ----- --- ---- -- --- ------ ---- - ---- -- ----------<br>-- ------ ---- --- ---- --- --- --- ----- -- -------- ---<br>------ ------- -------- --- ---- -- ------- ------------ --<br>------ -- ---- -- --- ---- -- -------- -- --- ------ ------,236470,236458,236293.02,236293,236303.62,236476.98,,5,saw
screen,html.Screen,2_3_1_0_1_6,2022-05-09T11:16:48.705Z,,,,,,,,,,,,,,,,,12,,,,,,,,,,,,,,293.0199999999895,,response,,,,5,C,,,,,,Space,keypress(Space),,,,instrumental,,,,---- ------ ------ ------- ------ --- another -----------<br>-- ----- --- ---- -- --- ------ ---- - ---- -- ----------<br>-- ------ ---- --- ---- --- --- --- ----- -- -------- ---<br>------ ------- -------- --- ---- -- ------- ------------ --<br>------ -- ---- -- --- ---- -- -------- -- --- ------ ------,236784,236770,236471.08,236471,236476.98,236797.04,,6,another
screen,html.Screen,2_3_1_0_1_7,2022-05-09T11:16:49.000Z,,,,,,,,,,,,,,,,,12,,,,,,,,,,,,,,270.95999999999185,,response,,,,5,C,,,,,,Space,keypress(Space),,,,instrumental,,,,---- ------ ------ ------- ------ --- ------- opportunity<br>-- ----- --- ---- -- --- ------ ---- - ---- -- ----------<br>-- ------ ---- --- ---- --- --- --- ----- -- -------- ---<br>------ ------- -------- --- ---- -- ------- ------------ --<br>------ -- ---- -- --- ---- -- -------- -- --- ------ ------,237078,237068,236784.22,236784,236797.04,237090.42,,7,opportunity
screen,html.Screen,2_3_1_0_1_8,2022-05-09T11:16:49.303Z,,,,,,,,,,,,,,,,,12,,,,,,,,,,,,,,273.5799999999872,,response,,,,5,C,,,,,,Space,keypress(Space),,,,instrumental,,,,---- ------ ------ ------- ------ --- ------- -----------<br>to ----- --- ---- -- --- ------ ---- - ---- -- ----------<br>-- ------ ---- --- ---- --- --- --- ----- -- -------- ---<br>------ ------- -------- --- ---- -- ------- ------------ --<br>------ -- ---- -- --- ---- -- -------- -- --- ------ ------,237382,237364,237078.22,237078,237090.42,237383.82,,8,to
screen,html.Screen,2_3_1_0_1_9,2022-05-09T11:16:49.598Z,,,,,,,,,,,,,,,,,12,,,,,,,,,,,,,,276.179999999993,,response,,,,5,C,,,,,,Space,keypress(Space),,,,instrumental,,,,---- ------ ------ ------- ------ --- ------- -----------<br>-- stack --- ---- -- --- ------ ---- - ---- -- ----------<br>-- ------ ---- --- ---- --- --- --- ----- -- -------- ---<br>------ ------- -------- --- ---- -- ------- ------------ --<br>------ -- ---- -- --- ---- -- -------- -- --- ------ ------,237676,237660,237382.56,237382,237383.82,237690.54,,9,stack
screen,html.Screen,2_3_1_0_1_10,2022-05-09T11:16:49.824Z,,,,,,,,,,,,,,,,,12,,,,,,,,,,,,,,204.45999999999185,,response,,,,5,C,,,,,,Space,keypress(Space),,,,instrumental,,,,---- ------ ------ ------- ------ --- ------- -----------<br>-- ----- the ---- -- --- ------ ---- - ---- -- ----------<br>-- ------ ---- --- ---- --- --- --- ----- -- -------- ---<br>------ ------- -------- --- ---- -- ------- ------------ --<br>------ -- ---- -- --- ---- -- -------- -- --- ------ ------,237903,237895,237676.96,237677,237690.54,237903.92,,10,the
screen,html.Screen,2_3_1_0_1_11,2022-05-09T11:16:50.020Z,,,,,,,,,,,,,,,,,12,,,,,,,,,,,,,,179.0799999999872,,response,,,,5,C,,,,,,Space,keypress(Space),,,,instrumental,,,,---- ------ ------ ------- ------ --- ------- -----------<br>-- ----- --- odds -- --- ------ ---- - ---- -- ----------<br>-- ------ ---- --- ---- --- --- --- ----- -- -------- ---<br>------ ------- -------- --- ---- -- ------- ------------ --<br>------ -- ---- -- --- ---- -- -------- -- --- ------ ------,238099,238083,237902.74,237903,237903.92,238103.94,,11,odds
screen,html.Screen,2_3_1_0_1_12,2022-05-09T11:16:50.192Z,,,,,,,,,,,,,,,,,12,,,,,,,,,,,,,,150.05999999999767,,response,,,,5,C,,,,,,Space,keypress(Space),,,,instrumental,,,,---- ------ ------ ------- ------ --- ------- -----------<br>-- ----- --- ---- in --- ------ ---- - ---- -- ----------<br>-- ------ ---- --- ---- --- --- --- ----- -- -------- ---<br>------ ------- -------- --- ---- -- ------- ------------ --<br>------ -- ---- -- --- ---- -- -------- -- --- ------ ------,238271,238254,238099.54,238100,238103.94,238277.32,,12,in
screen,html.Screen,2_3_1_0_1_13,2022-05-09T11:16:50.431Z,,,,,,,,,,,,,,,,,12,,,,,,,,,,,,,,226.67999999999302,,response,,,,5,C,,,,,,Space,keypress(Space),,,,instrumental,,,,---- ------ ------ ------- ------ --- ------- -----------<br>-- ----- --- ---- -- his ------ ---- - ---- -- ----------<br>-- ------ ---- --- ---- --- --- --- ----- -- -------- ---<br>------ ------- -------- --- ---- -- ------- ------------ --<br>------ -- ---- -- --- ---- -- -------- -- --- ------ ------,238509,238504,238271.46,238272,238277.32,238517.36,,13,his
screen,html.Screen,2_3_1_0_1_14,2022-05-09T11:16:50.656Z,,,,,,,,,,,,,,,,,12,,,,,,,,,,,,,,206.64000000001397,,response,,,,5,C,,,,,,Space,keypress(Space),,,,instrumental,,,,---- ------ ------ ------- ------ --- ------- -----------<br>-- ----- --- ---- -- --- favour ---- - ---- -- ----------<br>-- ------ ---- --- ---- --- --- --- ----- -- -------- ---<br>------ ------- -------- --- ---- -- ------- ------------ --<br>------ -- ---- -- --- ---- -- -------- -- --- ------ ------,238735,238724,238509.44,238509,238517.36,238744.06,,14,favour
screen,html.Screen,2_3_1_0_1_15,2022-05-09T11:16:50.863Z,,,,,,,,,,,,,,,,,12,,,,,,,,,,,,,,181.94000000000233,,response,,,,5,C,,,,,,Space,keypress(Space),,,,instrumental,,,,---- ------ ------ ------- ------ --- ------- -----------<br>-- ----- --- ---- -- --- ------ with - ---- -- ----------<br>-- ------ ---- --- ---- --- --- --- ----- -- -------- ---<br>------ ------- -------- --- ---- -- ------- ------------ --<br>------ -- ---- -- --- ---- -- -------- -- --- ------ ------,238941,238926,238734.66,238735,238744.06,238944.1,,15,with
screen,html.Screen,2_3_1_0_1_16,2022-05-09T11:16:51.158Z,,,,,,,,,,,,,,,,,12,,,,,,,,,,,,,,278.8999999999942,,response,,,,5,C,,,,,,Space,keypress(Space),,,,instrumental,,,,---- ------ ------ ------- ------ --- ------- -----------<br>-- ----- --- ---- -- --- ------ ---- a ---- -- ----------<br>-- ------ ---- --- ---- --- --- --- ----- -- -------- ---<br>------ ------- -------- --- ---- -- ------- ------------ --<br>------ -- ---- -- --- ---- -- -------- -- --- ------ ------,239237,239223,238941.58,238941,238944.1,239237.5,,16,a
screen,html.Screen,2_3_1_0_1_17,2022-05-09T11:16:51.442Z,,,,,,,,,,,,,,,,,12,,,,,,,,,,,,,,266.5,,response,,,,5,C,,,,,,Space,keypress(Space),,,,instrumental,,,,---- ------ ------ ------- ------ --- ------- -----------<br>-- ----- --- ---- -- --- ------ ---- - dash -- ----------<br>-- ------ ---- --- ---- --- --- --- ----- -- -------- ---<br>------ ------- -------- --- ---- -- ------- ------------ --<br>------ -- ---- -- --- ---- -- -------- -- --- ------ ------,239520,239504,239237.2,239237,239237.5,239530.88,,17,dash
screen,html.Screen,2_3_1_0_1_18,2022-05-09T11:16:51.737Z,,,,,,,,,,,,,,,,,12,,,,,,,,,,,,,,270.11999999999534,,response,,,,5,C,,,,,,Space,keypress(Space),,,,instrumental,,,,---- ------ ------ ------- ------ --- ------- -----------<br>-- ----- --- ---- -- --- ------ ---- - ---- of ----------<br>-- ------ ---- --- ---- --- --- --- ----- -- -------- ---<br>------ ------- -------- --- ---- -- ------- ------------ --<br>------ -- ---- -- --- ---- -- -------- -- --- ------ ------,239815,239801,239521.04,239521,239530.88,239824.26,,18,of
screen,html.Screen,2_3_1_0_1_19,2022-05-09T11:16:51.971Z,,,,,,,,,,,,,,,,,12,,,,,,,,,,,,,,211.7399999999907,,response,,,,5,C,,,,,,Space,keypress(Space),,,,instrumental,,,,---- ------ ------ ------- ------ --- ------- -----------<br>-- ----- --- ---- -- --- ------ ---- - ---- -- ingenuity.<br>-- ------ ---- --- ---- --- --- --- ----- -- -------- ---<br>------ ------- -------- --- ---- -- ------- ------------ --<br>------ -- ---- -- --- ---- -- -------- -- --- ------ ------,240049,240036,239815.78,239815,239824.26,240050.98,,19,ingenuity.
screen,html.Screen,2_3_1_0_1_20,2022-05-09T11:16:53.384Z,,,,,,,,,,,,,,,,,12,,,,,,,,,,,,,,1406.0199999999895,,response,,,,5,C,,,,,,Space,keypress(Space),,,,instrumental,,,,---- ------ ------ ------- ------ --- ------- -----------<br>-- ----- --- ---- -- --- ------ ---- - ---- -- ----------<br>He ------ ---- --- ---- --- --- --- ----- -- -------- ---<br>------ ------- -------- --- ---- -- ------- ------------ --<br>------ -- ---- -- --- ---- -- -------- -- --- ------ ------,241463,241457,240050.18,240050,240050.98,241464.58,,20,He
screen,html.Screen,2_3_1_0_1_21,2022-05-09T11:16:53.712Z,,,,,,,,,,,,,,,,,12,,,,,,,,,,,,,,320.4200000000128,,response,,,,5,C,,,,,,Space,keypress(Space),,,,instrumental,,,,---- ------ ------ ------- ------ --- ------- -----------<br>-- ----- --- ---- -- --- ------ ---- - ---- -- ----------<br>-- walked ---- --- ---- --- --- --- ----- -- -------- ---<br>------ ------- -------- --- ---- -- ------- ------------ --<br>------ -- ---- -- --- ---- -- -------- -- --- ------ ------,241790,241785,241462.28,241463,241464.58,241797.98,,21,walked
screen,html.Screen,2_3_1_0_1_22,2022-05-09T11:16:53.987Z,,,,,,,,,,,,,,,,,12,,,,,,,,,,,,,,254.01999999998952,,response,,,,5,C,,,,,,Space,keypress(Space),,,,instrumental,,,,---- ------ ------ ------- ------ --- ------- -----------<br>-- ----- --- ---- -- --- ------ ---- - ---- -- ----------<br>-- ------ into --- ---- --- --- --- ----- -- -------- ---<br>------ ------- -------- --- ---- -- ------- ------------ --<br>------ -- ---- -- --- ---- -- -------- -- --- ------ ------,242065,242052,241790.12,241790,241797.98,242078.02,,22,into
screen,html.Screen,2_3_1_0_1_23,2022-05-09T11:16:54.269Z,,,,,,,,,,,,,,,,,12,,,,,,,,,,,,,,254.98000000001048,,response,,,,5,C,,,,,,Space,keypress(Space),,,,instrumental,,,,---- ------ ------ ------- ------ --- ------- -----------<br>-- ----- --- ---- -- --- ------ ---- - ---- -- ----------<br>-- ------ ---- his ---- --- --- --- ----- -- -------- ---<br>------ ------- -------- --- ---- -- ------- ------------ --<br>------ -- ---- -- --- ---- -- -------- -- --- ------ ------,242347,242333,242065.88,242066,242078.02,242358.08,,23,his
screen,html.Screen,2_3_1_0_1_24,2022-05-09T11:16:54.491Z,,,,,,,,,,,,,,,,,12,,,,,,,,,,,,,,192.9200000000128,,response,,,,5,C,,,,,,Space,keypress(Space),,,,instrumental,,,,---- ------ ------ ------- ------ --- ------- -----------<br>-- ----- --- ---- -- --- ------ ---- - ---- -- ----------<br>-- ------ ---- --- bank --- --- --- ----- -- -------- ---<br>------ ------- -------- --- ---- -- ------- ------------ --<br>------ -- ---- -- --- ---- -- -------- -- --- ------ ------,242569,242551,242347.56,242347,242358.08,242571.44,,24,bank
screen,html.Screen,2_3_1_0_1_25,2022-05-09T11:16:54.823Z,,,,,,,,,,,,,,,,,12,,,,,,,,,,,,,,324.5599999999977,,response,,,,5,C,,,,,,Space,keypress(Space),,,,instrumental,,,,---- ------ ------ ------- ------ --- ------- -----------<br>-- ----- --- ---- -- --- ------ ---- - ---- -- ----------<br>-- ------ ---- --- ---- one --- --- ----- -- -------- ---<br>------ ------- -------- --- ---- -- ------- ------------ --<br>------ -- ---- -- --- ---- -- -------- -- --- ------ ------,242901,242896,242569.88,242570,242571.44,242904.84,,25,one
screen,html.Screen,2_3_1_0_1_26,2022-05-09T11:16:55.099Z,,,,,,,,,,,,,,,,,12,,,,,,,,,,,,,,256.1600000000035,,response,,,,5,C,,,,,,Space,keypress(Space),,,,instrumental,,,,---- ------ ------ ------- ------ --- ------- -----------<br>-- ----- --- ---- -- --- ------ ---- - ---- -- ----------<br>-- ------ ---- --- ---- --- day --- ----- -- -------- ---<br>------ ------- -------- --- ---- -- ------- ------------ --<br>------ -- ---- -- --- ---- -- -------- -- --- ------ ------,243177,243161,242902.04,242902,242904.84,243184.9,,26,day
screen,html.Screen,2_3_1_0_1_27,2022-05-09T11:16:55.340Z,,,,,,,,,,,,,,,,,12,,,,,,,,,,,,,,225.10000000000582,,response,,,,5,C,,,,,,Space,keypress(Space),,,,instrumental,,,,---- ------ ------ ------- ------ --- ------- -----------<br>-- ----- --- ---- -- --- ------ ---- - ---- -- ----------<br>-- ------ ---- --- ---- --- --- and ----- -- -------- ---<br>------ ------- -------- --- ---- -- ------- ------------ --<br>------ -- ---- -- --- ---- -- -------- -- --- ------ ------,243419,243410,243177.74,243178,243184.9,243424.94,,27,and
screen,html.Screen,2_3_1_0_1_28,2022-05-09T11:16:55.631Z,,,,,,,,,,,,,,,,,12,,,,,,,,,,,,,,267.0599999999977,,response,,,,5,C,,,,,,Space,keypress(Space),,,,instrumental,,,,---- ------ ------ ------- ------ --- ------- -----------<br>-- ----- --- ---- -- --- ------ ---- - ---- -- ----------<br>-- ------ ---- --- ---- --- --- --- asked -- -------- ---<br>------ ------- -------- --- ---- -- ------- ------------ --<br>------ -- ---- -- --- ---- -- -------- -- --- ------ ------,243710,243692,243418.84,243419,243424.94,243718.32,,28,asked
screen,html.Screen,2_3_1_0_1_29,2022-05-09T11:16:55.929Z,,,,,,,,,,,,,,,,,12,,,,,,,,,,,,,,269.679999999993,,response,,,,5,C,,,,,,Space,keypress(Space),,,,instrumental,,,,---- ------ ------ ------- ------ --- ------- -----------<br>-- ----- --- ---- -- --- ------ ---- - ---- -- ----------<br>-- ------ ---- --- ---- --- --- --- ----- to -------- ---<br>------ ------- -------- --- ---- -- ------- ------------ --<br>------ -- ---- -- --- ---- -- -------- -- --- ------ ------,244008,243988,243710.1,243710,243718.32,244011.72,,29,to
screen,html.Screen,2_3_1_0_1_30,2022-05-09T11:16:56.214Z,,,,,,,,,,,,,,,,,12,,,,,,,,,,,,,,273.27999999999884,,response,,,,5,C,,,,,,Space,keypress(Space),,,,instrumental,,,,---- ------ ------ ------- ------ --- ------- -----------<br>-- ----- --- ---- -- --- ------ ---- - ---- -- ----------<br>-- ------ ---- --- ---- --- --- --- ----- -- withdraw ---<br>------ ------- -------- --- ---- -- ------- ------------ --<br>------ -- ---- -- --- ---- -- -------- -- --- ------ ------,244293,244285,244007.96,244008,244011.72,244305.1,,30,withdraw
screen,html.Screen,2_3_1_0_1_31,2022-05-09T11:16:56.578Z,,,,,,,,,,,,,,,,,12,,,,,,,,,,,,,,339.8999999999942,,response,,,,5,C,,,,,,Space,keypress(Space),,,,instrumental,,,,---- ------ ------ ------- ------ --- ------- -----------<br>-- ----- --- ---- -- --- ------ ---- - ---- -- ----------<br>-- ------ ---- --- ---- --- --- --- ----- -- -------- his<br>------ ------- -------- --- ---- -- ------- ------------ --<br>------ -- ---- -- --- ---- -- -------- -- --- ------ ------,244656,244645,244293.28,244293,244305.1,244665.18,,31,his
screen,html.Screen,2_3_1_0_1_32,2022-05-09T11:16:56.896Z,,,,,,,,,,,,,,,,,12,,,,,,,,,,,,,,291.820000000007,,response,,,,5,C,,,,,,Space,keypress(Space),,,,instrumental,,,,---- ------ ------ ------- ------ --- ------- -----------<br>-- ----- --- ---- -- --- ------ ---- - ---- -- ----------<br>-- ------ ---- --- ---- --- --- --- ----- -- -------- ---<br>entire ------- -------- --- ---- -- ------- ------------ --<br>------ -- ---- -- --- ---- -- -------- -- --- ------ ------,244975,244957,244656.8,244657,244665.18,244985.24,,32,entire
screen,html.Screen,2_3_1_0_1_33,2022-05-09T11:16:57.153Z,,,,,,,,,,,,,,,,,12,,,,,,,,,,,,,,238.7600000000093,,response,,,,5,C,,,,,,Space,keypress(Space),,,,instrumental,,,,---- ------ ------ ------- ------ --- ------- -----------<br>-- ----- --- ---- -- --- ------ ---- - ---- -- ----------<br>-- ------ ---- --- ---- --- --- --- ----- -- -------- ---<br>------ account -------- --- ---- -- ------- ------------ --<br>------ -- ---- -- --- ---- -- -------- -- --- ------ ------,245231,245224,244974.32,244975,244985.24,245238.62,,33,account
screen,html.Screen,2_3_1_0_1_34,2022-05-09T11:16:57.363Z,,,,,,,,,,,,,,,,,12,,,,,,,,,,,,,,187.38000000000466,,response,,,,5,C,,,,,,Space,keypress(Space),,,,instrumental,,,,"---- ------ ------ ------- ------ --- ------- -----------<br>-- ----- --- ---- -- --- ------ ---- - ---- -- ----------<br>-- ------ ---- --- ---- --- --- --- ----- -- -------- ---<br>------ ------- balance, --- ---- -- ------- ------------ --<br>------ -- ---- -- --- ---- -- -------- -- --- ------ ------",245442,245426,245231.14,245231,245238.62,245451.98,,34,"balance,"
screen,html.Screen,2_3_1_0_1_35,2022-05-09T11:16:57.684Z,,,,,,,,,,,,,,,,,12,,,,,,,,,,,,,,302.0199999999895,,response,,,,5,C,,,,,,Space,keypress(Space),,,,instrumental,,,,---- ------ ------ ------- ------ --- ------- -----------<br>-- ----- --- ---- -- --- ------ ---- - ---- -- ----------<br>-- ------ ---- --- ---- --- --- --- ----- -- -------- ---<br>------ ------- -------- but ---- -- ------- ------------ --<br>------ -- ---- -- --- ---- -- -------- -- --- ------ ------,245762,245754,245442.8,245443,245451.98,245772.04,,35,but
screen,html.Screen,2_3_1_0_1_36,2022-05-09T11:16:58.001Z,,,,,,,,,,,,,,,,,12,,,,,,,,,,,,,,295.95999999999185,,response,,,,5,C,,,,,,Space,keypress(Space),,,,instrumental,,,,---- ------ ------ ------- ------ --- ------- -----------<br>-- ----- --- ---- -- --- ------ ---- - ---- -- ----------<br>-- ------ ---- --- ---- --- --- --- ----- -- -------- ---<br>------ ------- -------- --- with -- ------- ------------ --<br>------ -- ---- -- --- ---- -- -------- -- --- ------ ------,246079,246068,245762.66,245762,245772.04,246092.1,,36,with
screen,html.Screen,2_3_1_0_1_37,2022-05-09T11:16:58.295Z,,,,,,,,,,,,,,,,,12,,,,,,,,,,,,,,270.8999999999942,,response,,,,5,C,,,,,,Space,keypress(Space),,,,instrumental,,,,---- ------ ------ ------- ------ --- ------- -----------<br>-- ----- --- ---- -- --- ------ ---- - ---- -- ----------<br>-- ------ ---- --- ---- --- --- --- ----- -- -------- ---<br>------ ------- -------- --- ---- an ------- ------------ --<br>------ -- ---- -- --- ---- -- -------- -- --- ------ ------,246373,246363,246079.64,246079,246092.1,246385.5,,37,an
screen,html.Screen,2_3_1_0_1_38,2022-05-09T11:16:58.599Z,,,,,,,,,,,,,,,,,12,,,,,,,,,,,,,,275.5,,response,,,,5,C,,,,,,Space,keypress(Space),,,,instrumental,,,,---- ------ ------ ------- ------ --- ------- -----------<br>-- ----- --- ---- -- --- ------ ---- - ---- -- ----------<br>-- ------ ---- --- ---- --- --- --- ----- -- -------- ---<br>------ ------- -------- --- ---- -- unusual ------------ --<br>------ -- ---- -- --- ---- -- -------- -- --- ------ ------,246678,246661,246373.86,246373,246385.5,246678.88,,38,unusual
screen,html.Screen,2_3_1_0_1_39,2022-05-09T11:16:58.972Z,,,,,,,,,,,,,,,,,12,,,,,,,,,,,,,,356.11999999999534,,response,,,,5,C,,,,,,Space,keypress(Space),,,,instrumental,,,,---- ------ ------ ------- ------ --- ------- -----------<br>-- ----- --- ---- -- --- ------ ---- - ---- -- ----------<br>-- ------ ---- --- ---- --- --- --- ----- -- -------- ---<br>------ ------- -------- --- ---- -- ------- stipulation: --<br>------ -- ---- -- --- ---- -- -------- -- --- ------ ------,247051,247035,246677.76,246678,246678.88,247052.28,,39,stipulation:
screen,html.Screen,2_3_1_0_1_40,2022-05-09T11:16:59.355Z,,,,,,,,,,,,,,,,,12,,,,,,,,,,,,,,374.72000000000116,,response,,,,5,C,,,,,,Space,keypress(Space),,,,instrumental,,,,---- ------ ------ ------- ------ --- ------- -----------<br>-- ----- --- ---- -- --- ------ ---- - ---- -- ----------<br>-- ------ ---- --- ---- --- --- --- ----- -- -------- ---<br>------ ------- -------- --- ---- -- ------- ------------ He<br>------ -- ---- -- --- ---- -- -------- -- --- ------ ------,247433,247427,247051.18,247051,247052.28,247439.02,,40,He
screen,html.Screen,2_3_1_0_1_41,2022-05-09T11:16:59.706Z,,,,,,,,,,,,,,,,,12,,,,,,,,,,,,,,331.9800000000105,,response,,,,5,C,,,,,,Space,keypress(Space),,,,instrumental,,,,---- ------ ------ ------- ------ --- ------- -----------<br>-- ----- --- ---- -- --- ------ ---- - ---- -- ----------<br>-- ------ ---- --- ---- --- --- --- ----- -- -------- ---<br>------ ------- -------- --- ---- -- ------- ------------ --<br>wanted -- ---- -- --- ---- -- -------- -- --- ------ ------,247785,247771,247433.4,247433,247439.02,247785.76,,41,wanted
screen,html.Screen,2_3_1_0_1_42,2022-05-09T11:16:59.985Z,,,,,,,,,,,,,,,,,12,,,,,,,,,,,,,,266.2399999999907,,response,,,,5,C,,,,,,Space,keypress(Space),,,,instrumental,,,,---- ------ ------ ------- ------ --- ------- -----------<br>-- ----- --- ---- -- --- ------ ---- - ---- -- ----------<br>-- ------ ---- --- ---- --- --- --- ----- -- -------- ---<br>------ ------- -------- --- ---- -- ------- ------------ --<br>------ as ---- -- --- ---- -- -------- -- --- ------ ------,248064,248052,247784.58,247785,247785.76,248065.8,,42,as
screen,html.Screen,2_3_1_0_1_43,2022-05-09T11:17:00.174Z,,,,,,,,,,,,,,,,,12,,,,,,,,,,,,,,172.20000000001164,,response,,,,5,C,,,,,,Space,keypress(Space),,,,instrumental,,,,---- ------ ------ ------- ------ --- ------- -----------<br>-- ----- --- ---- -- --- ------ ---- - ---- -- ----------<br>-- ------ ---- --- ---- --- --- --- ----- -- -------- ---<br>------ ------- -------- --- ---- -- ------- ------------ --<br>------ -- much -- --- ---- -- -------- -- --- ------ ------,248252,248238,248063.64,248064,248065.8,248252.5,,43,much
screen,html.Screen,2_3_1_0_1_44,2022-05-09T11:17:00.388Z,,,,,,,,,,,,,,,,,12,,,,,,,,,,,,,,205.5,,response,,,,5,C,,,,,,Space,keypress(Space),,,,instrumental,,,,---- ------ ------ ------- ------ --- ------- -----------<br>-- ----- --- ---- -- --- ------ ---- - ---- -- ----------<br>-- ------ ---- --- ---- --- --- --- ----- -- -------- ---<br>------ ------- -------- --- ---- -- ------- ------------ --<br>------ -- ---- of --- ---- -- -------- -- --- ------ ------,248467,248458,248252.5,248252,248252.5,248479.22,,44,of
screen,html.Screen,2_3_1_0_1_45,2022-05-09T11:17:00.582Z,,,,,,,,,,,,,,,,,12,,,,,,,,,,,,,,165.77999999999884,,response,,,,5,C,,,,,,Space,keypress(Space),,,,instrumental,,,,---- ------ ------ ------- ------ --- ------- -----------<br>-- ----- --- ---- -- --- ------ ---- - ---- -- ----------<br>-- ------ ---- --- ---- --- --- --- ----- -- -------- ---<br>------ ------- -------- --- ---- -- ------- ------------ --<br>------ -- ---- -- the ---- -- -------- -- --- ------ ------,248660,248645,248467.34,248467,248479.22,248665.92,,45,the
screen,html.Screen,2_3_1_0_1_46,2022-05-09T11:17:00.811Z,,,,,,,,,,,,,,,,,12,,,,,,,,,,,,,,213.0799999999872,,response,,,,5,C,,,,,,Space,keypress(Space),,,,instrumental,,,,---- ------ ------ ------- ------ --- ------- -----------<br>-- ----- --- ---- -- --- ------ ---- - ---- -- ----------<br>-- ------ ---- --- ---- --- --- --- ----- -- -------- ---<br>------ ------- -------- --- ---- -- ------- ------------ --<br>------ -- ---- -- --- cash -- -------- -- --- ------ ------,248890,248879,248660.88,248661,248665.92,248892.62,,46,cash
screen,html.Screen,2_3_1_0_1_47,2022-05-09T11:17:01.105Z,,,,,,,,,,,,,,,,,12,,,,,,,,,,,,,,284.38000000000466,,response,,,,5,C,,,,,,Space,keypress(Space),,,,instrumental,,,,---- ------ ------ ------- ------ --- ------- -----------<br>-- ----- --- ---- -- --- ------ ---- - ---- -- ----------<br>-- ------ ---- --- ---- --- --- --- ----- -- -------- ---<br>------ ------- -------- --- ---- -- ------- ------------ --<br>------ -- ---- -- --- ---- as -------- -- --- ------ ------,249184,249177,248889.58,248890,248892.62,249186.02,,47,as
screen,html.Screen,2_3_1_0_1_48,2022-05-09T11:17:01.466Z,,,,,,,,,,,,,,,,,12,,,,,,,,,,,,,,348.9800000000105,,response,,,,5,C,,,,,,Space,keypress(Space),,,,instrumental,,,,---- ------ ------ ------- ------ --- ------- -----------<br>-- ----- --- ---- -- --- ------ ---- - ---- -- ----------<br>-- ------ ---- --- ---- --- --- --- ----- -- -------- ---<br>------ ------- -------- --- ---- -- ------- ------------ --<br>------ -- ---- -- --- ---- -- possible -- --- ------ ------,249545,249535,249184.34,249184,249186.02,249546.08,,48,possible
screen,html.Screen,2_3_1_0_1_49,2022-05-09T11:17:01.764Z,,,,,,,,,,,,,,,,,12,,,,,,,,,,,,,,285.9200000000128,,response,,,,5,C,,,,,,Space,keypress(Space),,,,instrumental,,,,---- ------ ------ ------- ------ --- ------- -----------<br>-- ----- --- ---- -- --- ------ ---- - ---- -- ----------<br>-- ------ ---- --- ---- --- --- --- ----- -- -------- ---<br>------ ------- -------- --- ---- -- ------- ------------ --<br>------ -- ---- -- --- ---- -- -------- in --- ------ ------,249842,249832,249545.3,249545,249546.08,249852.8,,49,in
screen,html.Screen,2_3_1_0_1_50,2022-05-09T11:17:02.106Z,,,,,,,,,,,,,,,,,12,,,,,,,,,,,,,,323.20000000001164,,response,,,,5,C,,,,,,Space,keypress(Space),,,,instrumental,,,,---- ------ ------ ------- ------ --- ------- -----------<br>-- ----- --- ---- -- --- ------ ---- - ---- -- ----------<br>-- ------ ---- --- ---- --- --- --- ----- -- -------- ---<br>------ ------- -------- --- ---- -- ------- ------------ --<br>------ -- ---- -- --- ---- -- -------- -- one ------ ------,250184,250176,249842.7,249843,249852.8,250186.2,,50,one
screen,html.Screen,2_3_1_0_1_51,2022-05-09T11:17:02.475Z,,,,,,,,,,,,,,,,,12,,,,,,,,,,,,,,349.79999999998836,,response,,,,5,C,,,,,,Space,keypress(Space),,,,instrumental,,,,---- ------ ------ ------- ------ --- ------- -----------<br>-- ----- --- ---- -- --- ------ ---- - ---- -- ----------<br>-- ------ ---- --- ---- --- --- --- ----- -- -------- ---<br>------ ------- -------- --- ---- -- ------- ------------ --<br>------ -- ---- -- --- ---- -- -------- -- --- dollar ------,250554,250536,250184.84,250185,250186.2,250559.6,,51,dollar
screen,html.Screen,2_3_1_0_1_52,2022-05-09T11:17:02.896Z,,,,,,,,,,,,,,,,,12,,,,,,,,,,,,,,398.3999999999942,,response,,,,5,C,,,,,,Space,keypress(Space),,,,instrumental,,,,---- ------ ------ ------- ------ --- ------- -----------<br>-- ----- --- ---- -- --- ------ ---- - ---- -- ----------<br>-- ------ ---- --- ---- --- --- --- ----- -- -------- ---<br>------ ------- -------- --- ---- -- ------- ------------ --<br>------ -- ---- -- --- ---- -- -------- -- --- ------ notes.,250974,250958,250554.5,250554,250559.6,250986.36,,52,notes.
Item 5,flow.Loop,2_3_1_0_1,2022-05-09T11:17:02.897Z,,,,,,,,,,,,,,,,,,,,,,,,,,,,,,,18563.679999999993,,completion,,,,,,,,,,,,,,,,,,,,,250975,250958,232380.98,232384,232394.32,250986.36,,,
Question 1,html.Screen,2_3_1_0_2,2022-05-09T11:17:04.855Z,,,,,,,,,,,,,,,,,,,,,,,,,,,,true,TRUE,,1939.640000000014,,response,,,,5,C,,,,,,TRUE,click #choice-1,,,,instrumental,,,,,252934,252926,250975.44,250975,250986.36,252933.38,,,
Question 2,html.Screen,2_3_1_0_3,2022-05-09T11:17:07.791Z,,,,,,,,,,,,,,,,,,,,,,,,,,,,true,TRUE,,2929.6199999999953,,response,,,,5,C,,,,,,TRUE,click #choice-1,,,,instrumental,,,,,255870,255863,252933.24,252934,252933.38,255880.6,,,
Item 5,flow.Sequence,2_3_1_0,2022-05-09T11:17:07.792Z,,,,,,,,,,,,,,,,,,,,,,,,,,,,,,,30470,,completion,,,,,,,,,,,,,,,,,,,,,255870,255863,225379.66,225382,225393,255880.6,,,
Holding screen,html.Screen,2_3_1_1_0,2022-05-09T11:17:14.792Z,,,,,,,,,,,,,,,,,,,,,,,,,,,,,,,7001.3000000000175,,timeout,,,,,,,,,,,,,,,,,,,,,262870,262868.58,255869.3,255870,255880.6,262881.9,,,
