sender,sender_type,sender_id,timestamp,meta,,Blues,Classical,Country,Dance,Electronic,Folk,Gospel,Hip-Hop,Jazz,Latin,Musical/Film,New-age,Pop,Prolific_id,Provo_ID,R&B,Rap,Reggae,Religious,Rock,Soul,Swing,Traditional,age,artist_name,correct,correctResponse,distraction,duration,education,ended_on,familiarity,gender,headphone_check_performance,item,list,music_frequency,offensiveness,pleasantness,position_correct,preference,response,response_action,snippet_file,song_name,song_rating,sound,stimulus_1,stimulus_2,stimulus_3,text,time_commit,time_end,time_render,time_run,time_show,time_switch,url,word,word_ID
Prolific ID,html.Form,0,2022-04-25T13:59:32.659Z,"{""labjs_version"":""20.2.2"",""labjs_build"":{""flavor"":""production"",""commit"":""a25486e0c714a0ae2ce03ff94b7bb6896854dcfa""},""location"":""https://run.pavlovia.org/mvasilev/prolific3_music_a/"",""userAgent"":""Mozilla/5.0 (Macintosh; Intel Mac OS X 10_15_6) AppleWebKit/537.36 (KHTML, like Gecko) Chrome/98.0.4758.80 Safari/537.36"",""platform"":""MacIntel"",""language"":""en-US"",""locale"":""en-GB"",""timeZone"":""Europe/London"",""timezoneOffset"":-60,""screen_width"":1440,""screen_height"":900,""scroll_width"":1440,""scroll_height"":741,""window_innerWidth"":1440,""window_innerHeight"":789,""devicePixelRatio"":2}",,,,,,,,,,,,,,,6050835a7dbf1e0d8bef47d0,,,,,,,,,,,,,,,6226.586000095367,,form submission,,,,,,,,,,,,,,,,,,,,,16640.600000023842,16639.900000095367,10363.154,10371.100000023842,10413.314,16666.993,{},,
Introduction,html.Screen,1_0,2022-04-25T13:59:36.873Z,,,,,,,,,,,,,,,,,,,,,,,,,,,,,,,4183.407000095369,,response,,,,,,,,,,,continue,click button,,,,,,,,,20854.800000071526,20850.400000095367,16650.273,16640.900000095367,16666.993,20880.433,,,
Volume calibration,html.Screen,1_1,2022-04-25T13:59:54.750Z,,,,,,,,,,,,,,,,,,,,,,,,,,,,,,,17846.367000071525,,response,,,,,,,,,,,continue,click button,,,,,,,,,38731.60000002384,38726.800000071526,20863.713,20855.100000023842,20880.433,38755.202,,,
Task instructions,html.Screen,1_2,2022-04-25T14:00:07.118Z,,,,,,,,,,,,,,,,,,,,,,,,,,,,,,,12341.498000047686,,response,,,,,,,,,,,continue,click button,,,,,,,,,51098.60000002384,51096.700000047684,38738.482,38731.700000047684,38755.202,51111.773,,,
Sounds,html.Screen,1_3_0_0,2022-04-25T14:00:11.365Z,,,,,,,,,,,,,,,,,,,,,,,,,,,,,,,4247.286,,timeout,,,,,,,,,2,,,,,,,,I,S,O,,55345.5,55342.339,51095.053,51098.800000071526,51111.773,55359.059,,,
Judgement,html.Screen,1_3_0_1,2022-04-25T14:00:12.255Z,,,,,,,,,,,,,,,,,,,,,,,,,,,,true,2,,874.5410000238408,,response,,,,,,,,,2,,2,click #choice-2,,,,,I,S,O,,56236,56233.60000002384,55342.339,55345.800000071526,55359.059,56261.939,,,
Trial,flow.Sequence,1_3_0,2022-04-25T14:00:12.256Z,,,,,,,,,,,,,,,,,,,,,,,,,,,,,,,5121.827000023841,,completion,,,,,,,,,2,,,,,,,,I,S,O,,56236.40000009537,56233.60000002384,51095.053,51098.800000071526,51111.773,56261.939,,,
Sounds,html.Screen,1_3_1_0,2022-04-25T14:00:16.514Z,,,,,,,,,,,,,,,,,,,,,,,,,,,,,,,4246.880000000005,,timeout,,,,,,,,,1,,,,,,,,S,I,O,,60494,60492.099,56245.219,56236.5,56261.939,60508.819,,,
Judgement,html.Screen,1_3_1_1,2022-04-25T14:00:17.182Z,,,,,,,,,,,,,,,,,,,,,,,,,,,,true,1,,651.4810000715224,,response,,,,,,,,,1,,1,click #choice-1,,,,,S,I,O,,61162.700000047684,61160.300000071526,60492.099,60494.10000002384,60508.819,61177.619,,,
Trial,flow.Sequence,1_3_1,2022-04-25T14:00:17.183Z,,,,,,,,,,,,,,,,,,,,,,,,,,,,,,,4898.361000071527,,completion,,,,,,,,,1,,,,,,,,S,I,O,,61163.10000002384,61160.300000071526,56245.219,56236.5,56261.939,61177.619,,,
Sounds,html.Screen,1_3_2_0,2022-04-25T14:00:21.429Z,,,,,,,,,,,,,,,,,,,,,,,,,,,,,,,4246.880000000005,,timeout,,,,,,,,,2,,,,,,,,O,S,I,,65409.800000071526,65407.779,61160.899,61163.300000071526,61177.619,65424.499,,,
Judgement,html.Screen,1_3_2_1,2022-04-25T14:00:22.028Z,,,,,,,,,,,,,,,,,,,,,,,,,,,,true,2,,581.8010000715221,,response,,,,,,,,,2,,2,click #choice-2,,,,,O,S,I,,66008.60000002384,66006.30000007153,65407.779,65409.90000009537,65424.499,66027,,,
Trial,flow.Sequence,1_3_2,2022-04-25T14:00:22.028Z,,,,,,,,,,,,,,,,,,,,,,,,,,,,,,,4828.681000071527,,completion,,,,,,,,,2,,,,,,,,O,S,I,,66008.90000009537,66006.30000007153,61160.899,61163.300000071526,61177.619,66027,,,
Sounds,html.Screen,1_3_3_0,2022-04-25T14:00:26.279Z,,,,,,,,,,,,,,,,,,,,,,,,,,,,,,,4246.880000000005,,timeout,,,,,,,,,3,,,,,,,,I,O,S,,70259.5,70257.16,66010.28,66009.10000002384,66027,70273.88,,,
Judgement,html.Screen,1_3_3_1,2022-04-25T14:00:26.733Z,,,,,,,,,,,,,,,,,,,,,,,,,,,,true,3,,436.9200000715209,,response,,,,,,,,,3,,3,click #choice-3,,,,,I,O,S,,70713.30000007153,70710.80000007153,70257.16,70259.60000002384,70273.88,70725.32,,,
Trial,flow.Sequence,1_3_3,2022-04-25T14:00:26.733Z,,,,,,,,,,,,,,,,,,,,,,,,,,,,,,,4683.800000071526,,completion,,,,,,,,,3,,,,,,,,I,O,S,,70713.5,70710.80000007153,66010.28,66009,66027,70725.32,,,
Sounds,html.Screen,1_3_4_0,2022-04-25T14:00:30.977Z,,,,,,,,,,,,,,,,,,,,,,,,,,,,,,,4246.87999999999,,timeout,,,,,,,,,3,,,,,,,,O,I,S,,74957.60000002384,74955.48,70708.6,70713.70000004768,70725.32,74972.2,,,
Judgement,html.Screen,1_3_4_1,2022-04-25T14:00:31.483Z,,,,,,,,,,,,,,,,,,,,,,,,,,,,true,3,,490.20000009537034,,response,,,,,,,,,3,,3,click #choice-3,,,,,O,I,S,,75463.90000009537,75462.40000009537,74955.48,74957.70000004768,74972.2,75491.232,,,
Trial,flow.Sequence,1_3_4,2022-04-25T14:00:31.484Z,,,,,,,,,,,,,,,,,,,,,,,,,,,,,,,4737.08000009536,,completion,,,,,,,,,3,,,,,,,,O,I,S,,75464,75462.40000009537,70708.6,70713.70000004768,70725.32,75491.232,,,
Sounds,html.Screen,1_3_5_0,2022-04-25T14:00:35.743Z,,,,,,,,,,,,,,,,,,,,,,,,,,,,,,,4246.87999999999,,timeout,,,,,,,,,1,,,,,,,,S,O,I,,79723.90000009537,79721.392,75474.512,75464.10000002384,75491.232,79738.112,,,
Judgement,html.Screen,1_3_5_1,2022-04-25T14:00:36.363Z,,,,,,,,,,,,,,,,,,,,,,,,,,,,true,1,,603.8880000000063,,response,,,,,,,,,1,,1,click #choice-1,,,,,S,O,I,,80344,80342,79721.392,79724,79738.112,80356.752,,,
Trial,flow.Sequence,1_3_5,2022-04-25T14:00:36.364Z,,,,,,,,,,,,,,,,,,,,,,,,,,,,,,,4850.767999999996,,completion,,,,,,,,,1,,,,,,,,S,O,I,,80344.20000004768,80342,75474.512,75464.10000002384,75491.232,80356.752,,,
Task,flow.Loop,1_3,2022-04-25T14:00:36.370Z,,,,,,,,,,,,,,,,,,,,,,,,,,,,,,,29230.227,,completion,,,1,,,,,,,,,,,,,,,,,,80350.5,80342,51095.053,51098.800000071526,51111.773,80356.752,,,
Trap,html.Screen,1_4,2022-04-25T14:00:36.371Z,,,,,,,,,,,,,,,,,,,,,,,,,,,,,,,NaN,,skipped,,,,,,,,,,,,,,,,,,,,,80351.90000009537,80342,,80351.80000007153,,80356.752,,,
Thanks,html.Screen,1_5,2022-04-25T14:00:38.626Z,,,,,,,,,,,,,,,,,,,,,,,,,,,,,,,2247.248000000007,,response,,,,,,,,,,,continue,click button,,,,,,,,,82606.60000002384,82604,80340.032,80352,80356.752,84637.072,,,
Headphone screening,flow.Sequence,1,2022-04-25T14:00:38.626Z,,,,,,,,,,,,,,,,,,,,,,,,,,,,,,,65937.007,,completion,,,,,,,,,,,,,,,,,,,,,82606.80000007153,82604,16650.273,16640.800000071526,16666.993,84637.072,,,
Instructions,html.Page,2_0,2022-04-25T14:00:49.633Z,,,,,,,,,,,,,,,,,,,,,,,,,,,,,,,8976.128000047684,,form submission,,,,,,,,,,,,,,,,,,,,,93613.70000004768,93613.20000004768,84620.352,84636.5,84637.072,93615.712,,,
Holding screen,html.Screen,2_1_0_0,2022-04-25T14:00:59.619Z,,,,,,,,,,,,,,,,,,,,,,,,,,,,,,,9999.232000000004,,timeout,,,,,,,,,,,,,,,,,,,,,103599.40000009537,103598.224,93598.992,93614,93615.712,103614.944,,,
screen,html.Screen,2_1_0_1_0,2022-04-25T14:01:00.497Z,,,,,,,,,,,,,,,,,53,,,,,,,,,,,,,,856.1560000238387,,response,,,,99,,,,,,,Space,keypress(Space),,,,,,,,When -- ----- -- ------ - ------- --- ----------<br>------------- ------ ------ ---- ---- ------- ----- -- ----<br>-------- ------- -- ---------- --- - --- ----- ----- ----<br>---- --- --- ----- --- ---- ---- ------- ----- ---- -------<br>--- --- -- ----- -- --- ---- -- --- ---- -- ------ ------<br>--- ----- -- ----,104477.60000002384,104471.10000002384,103598.224,103599.90000009537,103614.944,104484.384,,0,When
screen,html.Screen,2_1_0_1_1,2022-04-25T14:01:00.909Z,,,,,,,,,,,,,,,,,53,,,,,,,,,,,,,,402.9160000715201,,response,,,,99,,,,,,,Space,keypress(Space),,,,,,,,---- it ----- -- ------ - ------- --- ----------<br>------------- ------ ------ ---- ---- ------- ----- -- ----<br>-------- ------- -- ---------- --- - --- ----- ----- ----<br>---- --- --- ----- --- ---- ---- ------- ----- ---- -------<br>--- --- -- ----- -- --- ---- -- --- ---- -- ------ ------<br>--- ----- -- ----,104890.20000004768,104887.30000007153,104467.664,104477.60000002384,104484.384,104903.177,,1,it
screen,html.Screen,2_1_0_1_2,2022-04-25T14:01:01.320Z,,,,,,,,,,,,,,,,,53,,,,,,,,,,,,,,392.0230000476877,,response,,,,99,,,,,,,Space,keypress(Space),,,,,,,,---- -- comes -- ------ - ------- --- ----------<br>------------- ------ ------ ---- ---- ------- ----- -- ----<br>-------- ------- -- ---------- --- - --- ----- ----- ----<br>---- --- --- ----- --- ---- ---- ------- ----- ---- -------<br>--- --- -- ----- -- --- ---- -- --- ---- -- ------ ------<br>--- ----- -- ----,105300.5,105295.20000004768,104886.457,104890.30000007153,104903.177,105304.457,,2,comes
screen,html.Screen,2_1_0_1_3,2022-04-25T14:01:01.701Z,,,,,,,,,,,,,,,,,53,,,,,,,,,,,,,,374.643000023847,,response,,,,99,,,,,,,Space,keypress(Space),,,,,,,,---- -- ----- to ------ - ------- --- ----------<br>------------- ------ ------ ---- ---- ------- ----- -- ----<br>-------- ------- -- ---------- --- - --- ----- ----- ----<br>---- --- --- ----- --- ---- ---- ------- ----- ---- -------<br>--- --- -- ----- -- --- ---- -- --- ---- -- ------ ------<br>--- ----- -- ----,105682,105679.10000002384,105287.737,105300.70000004768,105304.457,105689.017,,3,to
screen,html.Screen,2_1_0_1_4,2022-04-25T14:01:02.120Z,,,,,,,,,,,,,,,,,53,,,,,,,,,,,,,,406.1830000476766,,response,,,,99,,,,,,,Space,keypress(Space),,,,,,,,---- -- ----- -- having - ------- --- ----------<br>------------- ------ ------ ---- ---- ------- ----- -- ----<br>-------- ------- -- ---------- --- - --- ----- ----- ----<br>---- --- --- ----- --- ---- ---- ------- ----- ---- -------<br>--- --- -- ----- -- --- ---- -- --- ---- -- ------ ------<br>--- ----- -- ----,106100.60000002384,106095.20000004768,105672.297,105682.10000002384,105689.017,106107.017,,4,having
screen,html.Screen,2_1_0_1_5,2022-04-25T14:01:02.509Z,,,,,,,,,,,,,,,,,53,,,,,,,,,,,,,,380.1830000476766,,response,,,,99,,,,,,,Space,keypress(Space),,,,,,,,---- -- ----- -- ------ a ------- --- ----------<br>------------- ------ ------ ---- ---- ------- ----- -- ----<br>-------- ------- -- ---------- --- - --- ----- ----- ----<br>---- --- --- ----- --- ---- ---- ------- ----- ---- -------<br>--- --- -- ----- -- --- ---- -- --- ---- -- ------ ------<br>--- ----- -- ----,106490.20000004768,106487.20000004768,106090.297,106100.80000007153,106107.017,106491.577,,5,a
screen,html.Screen,2_1_0_1_6,2022-04-25T14:01:02.888Z,,,,,,,,,,,,,,,,,53,,,,,,,,,,,,,,371.62300004767894,,response,,,,99,,,,,,,Space,keypress(Space),,,,,,,,---- -- ----- -- ------ - lasting --- ----------<br>------------- ------ ------ ---- ---- ------- ----- -- ----<br>-------- ------- -- ---------- --- - --- ----- ----- ----<br>---- --- --- ----- --- ---- ---- ------- ----- ---- -------<br>--- --- -- ----- -- --- ---- -- --- ---- -- ------ ------<br>--- ----- -- ----,106868.60000002384,106863.20000004768,106474.857,106490.30000007153,106491.577,106876.137,,6,lasting
screen,html.Screen,2_1_0_1_7,2022-04-25T14:01:03.277Z,,,,,,,,,,,,,,,,,53,,,,,,,,,,,,,,379.06300004768127,,response,,,,99,,,,,,,Space,keypress(Space),,,,,,,,---- -- ----- -- ------ - ------- and ----------<br>------------- ------ ------ ---- ---- ------- ----- -- ----<br>-------- ------- -- ---------- --- - --- ----- ----- ----<br>---- --- --- ----- --- ---- ---- ------- ----- ---- -------<br>--- --- -- ----- -- --- ---- -- --- ---- -- ------ ------<br>--- ----- -- ----,107258.20000004768,107255.20000004768,106859.417,106868.70000004768,106876.137,107260.697,,7,and
screen,html.Screen,2_1_0_1_8,2022-04-25T14:01:03.736Z,,,,,,,,,,,,,,,,,53,,,,,,,,,,,,,,450.5030000476836,,response,,,,99,,,,,,,Space,keypress(Space),,,,,,,,---- -- ----- -- ------ - ------- --- fulfilling<br>------------- ------ ------ ---- ---- ------- ----- -- ----<br>-------- ------- -- ---------- --- - --- ----- ----- ----<br>---- --- --- ----- --- ---- ---- ------- ----- ---- -------<br>--- --- -- ----- -- --- ---- -- --- ---- -- ------ ------<br>--- ----- -- ----,107716.5,107711.20000004768,107243.977,107258.20000004768,107260.697,107728.857,,8,fulfilling
screen,html.Screen,2_1_0_1_9,2022-04-25T14:01:04.149Z,,,,,,,,,,,,,,,,,53,,,,,,,,,,,,,,398.3430000476801,,response,,,,99,,,,,,,Space,keypress(Space),,,,,,,,"---- -- ----- -- ------ - ------- --- ----------<br>relationship, ------ ------ ---- ---- ------- ----- -- ----<br>-------- ------- -- ---------- --- - --- ----- ----- ----<br>---- --- --- ----- --- ---- ---- ------- ----- ---- -------<br>--- --- -- ----- -- --- ---- -- --- ---- -- ------ ------<br>--- ----- -- ----",108130.10000002384,108127.20000004768,107712.137,107716.70000004768,107728.857,108146.857,,9,"relationship,"
screen,html.Screen,2_1_0_1_10,2022-04-25T14:01:04.528Z,,,,,,,,,,,,,,,,,53,,,,,,,,,,,,,,356.3430000476801,,response,,,,99,,,,,,,Space,keypress(Space),,,,,,,,---- -- ----- -- ------ - ------- --- ----------<br>------------- common ------ ---- ---- ------- ----- -- ----<br>-------- ------- -- ---------- --- - --- ----- ----- ----<br>---- --- --- ----- --- ---- ---- ------- ----- ---- -------<br>--- --- -- ----- -- --- ---- -- --- ---- -- ------ ------<br>--- ----- -- ----,108508.80000007153,108503.20000004768,108130.137,108130.20000004768,108146.857,108514.697,,10,common
screen,html.Screen,2_1_0_1_11,2022-04-25T14:01:04.885Z,,,,,,,,,,,,,,,,,53,,,,,,,,,,,,,,348.60300007152546,,response,,,,99,,,,,,,Space,keypress(Space),,,,,,,,---- -- ----- -- ------ - ------- --- ----------<br>------------- ------ wisdom ---- ---- ------- ----- -- ----<br>-------- ------- -- ---------- --- - --- ----- ----- ----<br>---- --- --- ----- --- ---- ---- ------- ----- ---- -------<br>--- --- -- ----- -- --- ---- -- --- ---- -- ------ ------<br>--- ----- -- ----,108866.10000002384,108863.30000007153,108497.977,108508.90000009537,108514.697,108882.537,,11,wisdom
screen,html.Screen,2_1_0_1_12,2022-04-25T14:01:05.200Z,,,,,,,,,,,,,,,,,53,,,,,,,,,,,,,,292.76300007152895,,response,,,,99,,,,,,,Space,keypress(Space),,,,,,,,---- -- ----- -- ------ - ------- --- ----------<br>------------- ------ ------ says ---- ------- ----- -- ----<br>-------- ------- -- ---------- --- - --- ----- ----- ----<br>---- --- --- ----- --- ---- ---- ------- ----- ---- -------<br>--- --- -- ----- -- --- ---- -- --- ---- -- ------ ------<br>--- ----- -- ----,109180.90000009537,109175.30000007153,108865.817,108866.20000004768,108882.537,109183.497,,12,says
screen,html.Screen,2_1_0_1_13,2022-04-25T14:01:05.509Z,,,,,,,,,,,,,,,,,53,,,,,,,,,,,,,,303.7030000476807,,response,,,,99,,,,,,,Space,keypress(Space),,,,,,,,---- -- ----- -- ------ - ------- --- ----------<br>------------- ------ ------ ---- that ------- ----- -- ----<br>-------- ------- -- ---------- --- - --- ----- ----- ----<br>---- --- --- ----- --- ---- ---- ------- ----- ---- -------<br>--- --- -- ----- -- --- ---- -- --- ---- -- ------ ------<br>--- ----- -- ----,109490.20000004768,109487.20000004768,109166.777,109181,109183.497,109501.177,,13,that
screen,html.Screen,2_1_0_1_14,2022-04-25T14:01:06.248Z,,,,,,,,,,,,,,,,,53,,,,,,,,,,,,,,377.82300000000396,,response,,,,99,,,,,,,Space,keypress(Space),,,,,,,,---- -- ----- -- ------ - ------- --- ----------<br>------------- ------ ------ ---- ---- feeling ----- -- ----<br>-------- ------- -- ---------- --- - --- ----- ----- ----<br>---- --- --- ----- --- ---- ---- ------- ----- ---- -------<br>--- --- -- ----- -- --- ---- -- --- ---- -- ------ ------<br>--- ----- -- ----,110228.5,109879,109484.457,109490.40000009537,109501.177,110236.857,,14,feeling
screen,html.Screen,2_1_0_1_15,2022-04-25T14:01:06.869Z,,,,,,,,,,,,,,,,,53,,,,,,,,,,,,,,610.3430000476801,,response,,,,99,,,,,,,Space,keypress(Space),,,,,,,,---- -- ----- -- ------ - ------- --- ----------<br>------------- ------ ------ ---- ---- ------- close -- ----<br>-------- ------- -- ---------- --- - --- ----- ----- ----<br>---- --- --- ----- --- ---- ---- ------- ----- ---- -------<br>--- --- -- ----- -- --- ---- -- --- ---- -- ------ ------<br>--- ----- -- ----,110849.70000004768,110847.20000004768,110220.137,110228.70000004768,110236.857,110855.497,,15,close
screen,html.Screen,2_1_0_1_16,2022-04-25T14:01:07.215Z,,,,,,,,,,,,,,,,,53,,,,,,,,,,,,,,335.60300002383883,,response,,,,99,,,,,,,Space,keypress(Space),,,,,,,,---- -- ----- -- ------ - ------- --- ----------<br>------------- ------ ------ ---- ---- ------- ----- to ----<br>-------- ------- -- ---------- --- - --- ----- ----- ----<br>---- --- --- ----- --- ---- ---- ------- ----- ---- -------<br>--- --- -- ----- -- --- ---- -- --- ---- -- ------ ------<br>--- ----- -- ----,111196,111191.10000002384,110838.777,110849.90000009537,110855.497,111206.617,,16,to
screen,html.Screen,2_1_0_1_17,2022-04-25T14:01:07.821Z,,,,,,,,,,,,,,,,,53,,,,,,,,,,,,,,592.5830000476853,,response,,,,99,,,,,,,Space,keypress(Space),,,,,,,,---- -- ----- -- ------ - ------- --- ----------<br>------------- ------ ------ ---- ---- ------- ----- -- your<br>-------- ------- -- ---------- --- - --- ----- ----- ----<br>---- --- --- ----- --- ---- ---- ------- ----- ---- -------<br>--- --- -- ----- -- --- ---- -- --- ---- -- ------ ------<br>--- ----- -- ----,111802.10000002384,111799.20000004768,111189.897,111196.10000002384,111206.617,111808.537,,17,your
screen,html.Screen,2_1_0_1_18,2022-04-25T14:01:08.208Z,,,,,,,,,,,,,,,,,53,,,,,,,,,,,,,,374.56300002384523,,response,,,,99,,,,,,,Space,keypress(Space),,,,,,,,---- -- ----- -- ------ - ------- --- ----------<br>------------- ------ ------ ---- ---- ------- ----- -- ----<br>romantic ------- -- ---------- --- - --- ----- ----- ----<br>---- --- --- ----- --- ---- ---- ------- ----- ---- -------<br>--- --- -- ----- -- --- ---- -- --- ---- -- ------ ------<br>--- ----- -- ----,112188.60000002384,112183.10000002384,111791.817,111802.30000007153,111808.537,112193.097,,18,romantic
screen,html.Screen,2_1_0_1_19,2022-04-25T14:01:08.580Z,,,,,,,,,,,,,,,,,53,,,,,,,,,,,,,,366.00300002384756,,response,,,,99,,,,,,,Space,keypress(Space),,,,,,,,---- -- ----- -- ------ - ------- --- ----------<br>------------- ------ ------ ---- ---- ------- ----- -- ----<br>-------- partner -- ---------- --- - --- ----- ----- ----<br>---- --- --- ----- --- ---- ---- ------- ----- ---- -------<br>--- --- -- ----- -- --- ---- -- --- ---- -- ------ ------<br>--- ----- -- ----,112561.10000002384,112559.10000002384,112176.377,112188.80000007153,112193.097,112577.657,,19,partner
screen,html.Screen,2_1_0_1_20,2022-04-25T14:01:08.966Z,,,,,,,,,,,,,,,,,53,,,,,,,,,,,,,,365.44300002383534,,response,,,,99,,,,,,,Space,keypress(Space),,,,,,,,---- -- ----- -- ------ - ------- --- ----------<br>------------- ------ ------ ---- ---- ------- ----- -- ----<br>-------- ------- is ---------- --- - --- ----- ----- ----<br>---- --- --- ----- --- ---- ---- ------- ----- ---- -------<br>--- --- -- ----- -- --- ---- -- --- ---- -- ------ ------<br>--- ----- -- ----,112947.30000007153,112943.10000002384,112560.937,112561.20000004768,112577.657,112962.217,,20,is
screen,html.Screen,2_1_0_1_21,2022-04-25T14:01:09.367Z,,,,,,,,,,,,,,,,,53,,,,,,,,,,,,,,380.7829999999958,,response,,,,99,,,,,,,Space,keypress(Space),,,,,,,,---- -- ----- -- ------ - ------- --- ----------<br>------------- ------ ------ ---- ---- ------- ----- -- ----<br>-------- ------- -- paramount. --- - --- ----- ----- ----<br>---- --- --- ----- --- ---- ---- ------- ----- ---- -------<br>--- --- -- ----- -- --- ---- -- --- ---- -- ------ ------<br>--- ----- -- ----,113347.60000002384,113343,112945.497,112947.40000009537,112962.217,113363.497,,21,paramount.
screen,html.Screen,2_1_0_1_22,2022-04-25T14:01:09.734Z,,,,,,,,,,,,,,,,,53,,,,,,,,,,,,,,347.502999999997,,response,,,,99,,,,,,,Space,keypress(Space),,,,,,,,---- -- ----- -- ------ - ------- --- ----------<br>------------- ------ ------ ---- ---- ------- ----- -- ----<br>-------- ------- -- ---------- But - --- ----- ----- ----<br>---- --- --- ----- --- ---- ---- ------- ----- ---- -------<br>--- --- -- ----- -- --- ---- -- --- ---- -- ------ ------<br>--- ----- -- ----,113715,113711,113346.777,113347.70000004768,113363.497,113731.337,,22,But
screen,html.Screen,2_1_0_1_23,2022-04-25T14:01:10.116Z,,,,,,,,,,,,,,,,,53,,,,,,,,,,,,,,363.66300000000047,,response,,,,99,,,,,,,Space,keypress(Space),,,,,,,,---- -- ----- -- ------ - ------- --- ----------<br>------------- ------ ------ ---- ---- ------- ----- -- ----<br>-------- ------- -- ---------- --- a --- ----- ----- ----<br>---- --- --- ----- --- ---- ---- ------- ----- ---- -------<br>--- --- -- ----- -- --- ---- -- --- ---- -- ------ ------<br>--- ----- -- ----,114097.20000004768,114095,113714.617,113715.10000002384,113731.337,114099.177,,23,a
screen,html.Screen,2_1_0_1_24,2022-04-25T14:01:10.496Z,,,,,,,,,,,,,,,,,53,,,,,,,,,,,,,,372.0230000476877,,response,,,,99,,,,,,,Space,keypress(Space),,,,,,,,---- -- ----- -- ------ - ------- --- ----------<br>------------- ------ ------ ---- ---- ------- ----- -- ----<br>-------- ------- -- ---------- --- - new ----- ----- ----<br>---- --- --- ----- --- ---- ---- ------- ----- ---- -------<br>--- --- -- ----- -- --- ---- -- --- ---- -- ------ ------<br>--- ----- -- ----,114476.60000002384,114471.20000004768,114082.457,114097.30000007153,114099.177,114484.142,,24,new
screen,html.Screen,2_1_0_1_25,2022-04-25T14:01:10.886Z,,,,,,,,,,,,,,,,,53,,,,,,,,,,,,,,379.0580000476766,,response,,,,99,,,,,,,Space,keypress(Space),,,,,,,,---- -- ----- -- ------ - ------- --- ----------<br>------------- ------ ------ ---- ---- ------- ----- -- ----<br>-------- ------- -- ---------- --- - --- study ----- ----<br>---- --- --- ----- --- ---- ---- ------- ----- ---- -------<br>--- --- -- ----- -- --- ---- -- --- ---- -- ------ ------<br>--- ----- -- ----,114867,114863.20000004768,114467.422,114476.70000004768,114484.142,114868.702,,25,study
screen,html.Screen,2_1_0_1_26,2022-04-25T14:01:11.232Z,,,,,,,,,,,,,,,,,53,,,,,,,,,,,,,,338.49800004767894,,response,,,,99,,,,,,,Space,keypress(Space),,,,,,,,---- -- ----- -- ------ - ------- --- ----------<br>------------- ------ ------ ---- ---- ------- ----- -- ----<br>-------- ------- -- ---------- --- - --- ----- finds ----<br>---- --- --- ----- --- ---- ---- ------- ----- ---- -------<br>--- --- -- ----- -- --- ---- -- --- ---- -- ------ ------<br>--- ----- -- ----,115212.40000009537,115207.20000004768,114851.982,114867.10000002384,114868.702,115219.822,,26,finds
screen,html.Screen,2_1_0_1_27,2022-04-25T14:01:11.548Z,,,,,,,,,,,,,,,,,53,,,,,,,,,,,,,,307.27800002384174,,response,,,,99,,,,,,,Space,keypress(Space),,,,,,,,---- -- ----- -- ------ - ------- --- ----------<br>------------- ------ ------ ---- ---- ------- ----- -- ----<br>-------- ------- -- ---------- --- - --- ----- ----- that<br>---- --- --- ----- --- ---- ---- ------- ----- ---- -------<br>--- --- -- ----- -- --- ---- -- --- ---- -- ------ ------<br>--- ----- -- ----,115529.20000004768,115527.10000002384,115203.102,115212.60000002384,115219.822,115537.502,,27,that
screen,html.Screen,2_1_0_1_28,2022-04-25T14:01:11.911Z,,,,,,,,,,,,,,,,,53,,,,,,,,,,,,,,349.6980000476906,,response,,,,99,,,,,,,Space,keypress(Space),,,,,,,,---- -- ----- -- ------ - ------- --- ----------<br>------------- ------ ------ ---- ---- ------- ----- -- ----<br>-------- ------- -- ---------- --- - --- ----- ----- ----<br>it's --- --- ----- --- ---- ---- ------- ----- ---- -------<br>--- --- -- ----- -- --- ---- -- --- ---- -- ------ ------<br>--- ----- -- ----,115892.40000009537,115887.20000004768,115520.782,115529.40000009537,115537.502,115905.342,,28,it's
screen,html.Screen,2_1_0_1_29,2022-04-25T14:01:12.221Z,,,,,,,,,,,,,,,,,53,,,,,,,,,,,,,,293.8580000476795,,response,,,,99,,,,,,,Space,keypress(Space),,,,,,,,---- -- ----- -- ------ - ------- --- ----------<br>------------- ------ ------ ---- ---- ------- ----- -- ----<br>-------- ------- -- ---------- --- - --- ----- ----- ----<br>---- not --- ----- --- ---- ---- ------- ----- ---- -------<br>--- --- -- ----- -- --- ---- -- --- ---- -- ------ ------<br>--- ----- -- ----,116202.20000004768,116199.20000004768,115888.622,115892.5,115905.342,116206.302,,29,not
screen,html.Screen,2_1_0_1_30,2022-04-25T14:01:12.552Z,,,,,,,,,,,,,,,,,53,,,,,,,,,,,,,,320.8980000476877,,response,,,,99,,,,,,,Space,keypress(Space),,,,,,,,---- -- ----- -- ------ - ------- --- ----------<br>------------- ------ ------ ---- ---- ------- ----- -- ----<br>-------- ------- -- ---------- --- - --- ----- ----- ----<br>---- --- how ----- --- ---- ---- ------- ----- ---- -------<br>--- --- -- ----- -- --- ---- -- --- ---- -- ------ ------<br>--- ----- -- ----,116532.40000009537,116527.20000004768,116189.582,116202.30000007153,116206.302,116540.702,,30,how
screen,html.Screen,2_1_0_1_31,2022-04-25T14:01:12.885Z,,,,,,,,,,,,,,,,,53,,,,,,,,,,,,,,322.49800004767894,,response,,,,99,,,,,,,Space,keypress(Space),,,,,,,,---- -- ----- -- ------ - ------- --- ----------<br>------------- ------ ------ ---- ---- ------- ----- -- ----<br>-------- ------- -- ---------- --- - --- ----- ----- ----<br>---- --- --- close --- ---- ---- ------- ----- ---- -------<br>--- --- -- ----- -- --- ---- -- --- ---- -- ------ ------<br>--- ----- -- ----,116866.30000007153,116863.20000004768,116523.982,116532.60000002384,116540.702,116875.102,,31,close
screen,html.Screen,2_1_0_1_32,2022-04-25T14:01:13.200Z,,,,,,,,,,,,,,,,,53,,,,,,,,,,,,,,299.9980000238429,,response,,,,99,,,,,,,Space,keypress(Space),,,,,,,,---- -- ----- -- ------ - ------- --- ----------<br>------------- ------ ------ ---- ---- ------- ----- -- ----<br>-------- ------- -- ---------- --- - --- ----- ----- ----<br>---- --- --- ----- you ---- ---- ------- ----- ---- -------<br>--- --- -- ----- -- --- ---- -- --- ---- -- ------ ------<br>--- ----- -- ----,117180.60000002384,117175.10000002384,116858.382,116866.40000009537,116875.102,117192.782,,32,you
screen,html.Screen,2_1_0_1_33,2022-04-25T14:01:13.541Z,,,,,,,,,,,,,,,,,53,,,,,,,,,,,,,,326.31800002383534,,response,,,,99,,,,,,,Space,keypress(Space),,,,,,,,---- -- ----- -- ------ - ------- --- ----------<br>------------- ------ ------ ---- ---- ------- ----- -- ----<br>-------- ------- -- ---------- --- - --- ----- ----- ----<br>---- --- --- ----- --- feel ---- ------- ----- ---- -------<br>--- --- -- ----- -- --- ---- -- --- ---- -- ------ ------<br>--- ----- -- ----,117521.80000007153,117519.10000002384,117176.062,117180.70000004768,117192.782,117527.182,,33,feel
screen,html.Screen,2_1_0_1_34,2022-04-25T14:01:13.840Z,,,,,,,,,,,,,,,,,53,,,,,,,,,,,,,,288.018000047683,,response,,,,99,,,,,,,Space,keypress(Space),,,,,,,,---- -- ----- -- ------ - ------- --- ----------<br>------------- ------ ------ ---- ---- ------- ----- -- ----<br>-------- ------- -- ---------- --- - --- ----- ----- ----<br>---- --- --- ----- --- ---- that ------- ----- ---- -------<br>--- --- -- ----- -- --- ---- -- --- ---- -- ------ ------<br>--- ----- -- ----,117820.5,117815.20000004768,117510.462,117521.90000009537,117527.182,117828.142,,34,that
screen,html.Screen,2_1_0_1_35,2022-04-25T14:01:14.158Z,,,,,,,,,,,,,,,,,53,,,,,,,,,,,,,,307.0580000476766,,response,,,,99,,,,,,,Space,keypress(Space),,,,,,,,---- -- ----- -- ------ - ------- --- ----------<br>------------- ------ ------ ---- ---- ------- ----- -- ----<br>-------- ------- -- ---------- --- - --- ----- ----- ----<br>---- --- --- ----- --- ---- ---- matters ----- ---- -------<br>--- --- -- ----- -- --- ---- -- --- ---- -- ------ ------<br>--- ----- -- ----,118139.20000004768,118135.20000004768,117811.422,117820.70000004768,117828.142,118145.822,,35,matters
screen,html.Screen,2_1_0_1_36,2022-04-25T14:01:14.480Z,,,,,,,,,,,,,,,,,53,,,,,,,,,,,,,,309.3780000476836,,response,,,,99,,,,,,,Space,keypress(Space),,,,,,,,"---- -- ----- -- ------ - ------- --- ----------<br>------------- ------ ------ ---- ---- ------- ----- -- ----<br>-------- ------- -- ---------- --- - --- ----- ----- ----<br>---- --- --- ----- --- ---- ---- ------- most, ---- -------<br>--- --- -- ----- -- --- ---- -- --- ---- -- ------ ------<br>--- ----- -- ----",118460.70000004768,118455.20000004768,118129.102,118139.40000009537,118145.822,118463.502,,36,"most,"
screen,html.Screen,2_1_0_1_37,2022-04-25T14:01:14.797Z,,,,,,,,,,,,,,,,,53,,,,,,,,,,,,,,311.6980000476906,,response,,,,99,,,,,,,Space,keypress(Space),,,,,,,,---- -- ----- -- ------ - ------- --- ----------<br>------------- ------ ------ ---- ---- ------- ----- -- ----<br>-------- ------- -- ---------- --- - --- ----- ----- ----<br>---- --- --- ----- --- ---- ---- ------- ----- it's -------<br>--- --- -- ----- -- --- ---- -- --- ---- -- ------ ------<br>--- ----- -- ----,118778.30000007153,118775.20000004768,118446.782,118460.70000004768,118463.502,118781.182,,37,it's
screen,html.Screen,2_1_0_1_38,2022-04-25T14:01:15.120Z,,,,,,,,,,,,,,,,,53,,,,,,,,,,,,,,314.1180000715249,,response,,,,99,,,,,,,Space,keypress(Space),,,,,,,,---- -- ----- -- ------ - ------- --- ----------<br>------------- ------ ------ ---- ---- ------- ----- -- ----<br>-------- ------- -- ---------- --- - --- ----- ----- ----<br>---- --- --- ----- --- ---- ---- ------- ----- ---- whether<br>--- --- -- ----- -- --- ---- -- --- ---- -- ------ ------<br>--- ----- -- ----,119100.70000004768,119095.30000007153,118764.462,118778.40000009537,118781.182,119115.582,,38,whether
screen,html.Screen,2_1_0_1_39,2022-04-25T14:01:15.477Z,,,,,,,,,,,,,,,,,53,,,,,,,,,,,,,,339.518000023847,,response,,,,99,,,,,,,Space,keypress(Space),,,,,,,,---- -- ----- -- ------ - ------- --- ----------<br>------------- ------ ------ ---- ---- ------- ----- -- ----<br>-------- ------- -- ---------- --- - --- ----- ----- ----<br>---- --- --- ----- --- ---- ---- ------- ----- ---- -------<br>you --- -- ----- -- --- ---- -- --- ---- -- ------ ------<br>--- ----- -- ----,119458.10000002384,119455.10000002384,119098.862,119100.70000004768,119115.582,119466.702,,39,you
screen,html.Screen,2_1_0_1_40,2022-04-25T14:01:15.864Z,,,,,,,,,,,,,,,,,53,,,,,,,,,,,,,,372.49800004767894,,response,,,,99,,,,,,,Space,keypress(Space),,,,,,,,---- -- ----- -- ------ - ------- --- ----------<br>------------- ------ ------ ---- ---- ------- ----- -- ----<br>-------- ------- -- ---------- --- - --- ----- ----- ----<br>---- --- --- ----- --- ---- ---- ------- ----- ---- -------<br>--- are -- ----- -- --- ---- -- --- ---- -- ------ ------<br>--- ----- -- ----,119844.60000002384,119839.20000004768,119449.982,119458.30000007153,119466.702,119851.262,,40,are
screen,html.Screen,2_1_0_1_41,2022-04-25T14:01:16.205Z,,,,,,,,,,,,,,,,,53,,,,,,,,,,,,,,331.8380000238394,,response,,,,99,,,,,,,Space,keypress(Space),,,,,,,,---- -- ----- -- ------ - ------- --- ----------<br>------------- ------ ------ ---- ---- ------- ----- -- ----<br>-------- ------- -- ---------- --- - --- ----- ----- ----<br>---- --- --- ----- --- ---- ---- ------- ----- ---- -------<br>--- --- as ----- -- --- ---- -- --- ---- -- ------ ------<br>--- ----- -- ----,120186,120183.10000002384,119834.542,119844.80000007153,119851.262,120202.382,,41,as
screen,html.Screen,2_1_0_1_42,2022-04-25T14:01:16.544Z,,,,,,,,,,,,,,,,,53,,,,,,,,,,,,,,316.8180000476859,,response,,,,99,,,,,,,Space,keypress(Space),,,,,,,,---- -- ----- -- ------ - ------- --- ----------<br>------------- ------ ------ ---- ---- ------- ----- -- ----<br>-------- ------- -- ---------- --- - --- ----- ----- ----<br>---- --- --- ----- --- ---- ---- ------- ----- ---- -------<br>--- --- -- close -- --- ---- -- --- ---- -- ------ ------<br>--- ----- -- ----,120524.5,120519.20000004768,120185.662,120186.20000004768,120202.382,120536.782,,42,close
screen,html.Screen,2_1_0_1_43,2022-04-25T14:01:16.885Z,,,,,,,,,,,,,,,,,53,,,,,,,,,,,,,,326.4180000476772,,response,,,,99,,,,,,,Space,keypress(Space),,,,,,,,---- -- ----- -- ------ - ------- --- ----------<br>------------- ------ ------ ---- ---- ------- ----- -- ----<br>-------- ------- -- ---------- --- - --- ----- ----- ----<br>---- --- --- ----- --- ---- ---- ------- ----- ---- -------<br>--- --- -- ----- as --- ---- -- --- ---- -- ------ ------<br>--- ----- -- ----,120866.40000009537,120863.20000004768,120520.062,120524.70000004768,120536.782,120871.182,,43,as
screen,html.Screen,2_1_0_1_44,2022-04-25T14:01:17.263Z,,,,,,,,,,,,,,,,,53,,,,,,,,,,,,,,368.1180000715249,,response,,,,99,,,,,,,Space,keypress(Space),,,,,,,,---- -- ----- -- ------ - ------- --- ----------<br>------------- ------ ------ ---- ---- ------- ----- -- ----<br>-------- ------- -- ---------- --- - --- ----- ----- ----<br>---- --- --- ----- --- ---- ---- ------- ----- ---- -------<br>--- --- -- ----- -- you ---- -- --- ---- -- ------ ------<br>--- ----- -- ----,121244.30000007153,121239.30000007153,120854.462,120866.5,120871.182,121255.742,,44,you
screen,html.Screen,2_1_0_1_45,2022-04-25T14:01:17.613Z,,,,,,,,,,,,,,,,,53,,,,,,,,,,,,,,335.45800004768535,,response,,,,99,,,,,,,Space,keypress(Space),,,,,,,,---- -- ----- -- ------ - ------- --- ----------<br>------------- ------ ------ ---- ---- ------- ----- -- ----<br>-------- ------- -- ---------- --- - --- ----- ----- ----<br>---- --- --- ----- --- ---- ---- ------- ----- ---- -------<br>--- --- -- ----- -- --- want -- --- ---- -- ------ ------<br>--- ----- -- ----,121594.20000004768,121591.20000004768,121239.022,121244.40000009537,121255.742,121606.862,,45,want
screen,html.Screen,2_1_0_1_46,2022-04-25T14:01:17.991Z,,,,,,,,,,,,,,,,,53,,,,,,,,,,,,,,360.23800002384814,,response,,,,99,,,,,,,Space,keypress(Space),,,,,,,,---- -- ----- -- ------ - ------- --- ----------<br>------------- ------ ------ ---- ---- ------- ----- -- ----<br>-------- ------- -- ---------- --- - --- ----- ----- ----<br>---- --- --- ----- --- ---- ---- ------- ----- ---- -------<br>--- --- -- ----- -- --- ---- to --- ---- -- ------ ------<br>--- ----- -- ----,121972.40000009537,121967.10000002384,121590.142,121594.20000004768,121606.862,121974.702,,46,to
screen,html.Screen,2_1_0_1_47,2022-04-25T14:01:18.392Z,,,,,,,,,,,,,,,,,53,,,,,,,,,,,,,,392.49800004767894,,response,,,,99,,,,,,,Space,keypress(Space),,,,,,,,"---- -- ----- -- ------ - ------- --- ----------<br>------------- ------ ------ ---- ---- ------- ----- -- ----<br>-------- ------- -- ---------- --- - --- ----- ----- ----<br>---- --- --- ----- --- ---- ---- ------- ----- ---- -------<br>--- --- -- ----- -- --- ---- -- be, ---- -- ------ ------<br>--- ----- -- ----",122373.30000007153,122367.20000004768,121957.982,121972.5,121974.702,122375.982,,47,"be,"
screen,html.Screen,2_1_0_1_48,2022-04-25T14:01:18.767Z,,,,,,,,,,,,,,,,,53,,,,,,,,,,,,,,367.0179999999964,,response,,,,99,,,,,,,Space,keypress(Space),,,,,,,,---- -- ----- -- ------ - ------- --- ----------<br>------------- ------ ------ ---- ---- ------- ----- -- ----<br>-------- ------- -- ---------- --- - --- ----- ----- ----<br>---- --- --- ----- --- ---- ---- ------- ----- ---- -------<br>--- --- -- ----- -- --- ---- -- --- even -- ------ ------<br>--- ----- -- ----,122748.20000004768,122743,122359.262,122373.40000009537,122375.982,122760.542,,48,even
screen,html.Screen,2_1_0_1_49,2022-04-25T14:01:19.117Z,,,,,,,,,,,,,,,,,53,,,,,,,,,,,,,,334.7580000715243,,response,,,,99,,,,,,,Space,keypress(Space),,,,,,,,---- -- ----- -- ------ - ------- --- ----------<br>------------- ------ ------ ---- ---- ------- ----- -- ----<br>-------- ------- -- ---------- --- - --- ----- ----- ----<br>---- --- --- ----- --- ---- ---- ------- ----- ---- -------<br>--- --- -- ----- -- --- ---- -- --- ---- if ------ ------<br>--- ----- -- ----,123098.20000004768,123095.30000007153,122743.822,122748.40000009537,122760.542,123111.662,,49,if
screen,html.Screen,2_1_0_1_50,2022-04-25T14:01:19.480Z,,,,,,,,,,,,,,,,,53,,,,,,,,,,,,,,343.5380000476871,,response,,,,99,,,,,,,Space,keypress(Space),,,,,,,,---- -- ----- -- ------ - ------- --- ----------<br>------------- ------ ------ ---- ---- ------- ----- -- ----<br>-------- ------- -- ---------- --- - --- ----- ----- ----<br>---- --- --- ----- --- ---- ---- ------- ----- ---- -------<br>--- --- -- ----- -- --- ---- -- --- ---- -- that's ------<br>--- ----- -- ----,123460.60000002384,123455.20000004768,123094.942,123098.30000007153,123111.662,123462.782,,50,that's
screen,html.Screen,2_1_0_1_51,2022-04-25T14:01:19.856Z,,,,,,,,,,,,,,,,,53,,,,,,,,,,,,,,368.4180000476772,,response,,,,99,,,,,,,Space,keypress(Space),,,,,,,,---- -- ----- -- ------ - ------- --- ----------<br>------------- ------ ------ ---- ---- ------- ----- -- ----<br>-------- ------- -- ---------- --- - --- ----- ----- ----<br>---- --- --- ----- --- ---- ---- ------- ----- ---- -------<br>--- --- -- ----- -- --- ---- -- --- ---- -- ------ really<br>--- ----- -- ----,123836.90000009537,123831.20000004768,123446.062,123460.70000004768,123462.782,123847.342,,51,really
screen,html.Screen,2_1_0_1_52,2022-04-25T14:01:20.192Z,,,,,,,,,,,,,,,,,53,,,,,,,,,,,,,,319.8580000476795,,response,,,,99,,,,,,,Space,keypress(Space),,,,,,,,---- -- ----- -- ------ - ------- --- ----------<br>------------- ------ ------ ---- ---- ------- ----- -- ----<br>-------- ------- -- ---------- --- - --- ----- ----- ----<br>---- --- --- ----- --- ---- ---- ------- ----- ---- -------<br>--- --- -- ----- -- --- ---- -- --- ---- -- ------ ------<br>not ----- -- ----,124172.60000002384,124167.20000004768,123830.622,123837,123847.342,124181.742,,52,not
screen,html.Screen,2_1_0_1_53,2022-04-25T14:01:20.565Z,,,,,,,,,,,,,,,,,53,,,,,,,,,,,,,,361.45800004768535,,response,,,,99,,,,,,,Space,keypress(Space),,,,,,,,---- -- ----- -- ------ - ------- --- ----------<br>------------- ------ ------ ---- ---- ------- ----- -- ----<br>-------- ------- -- ---------- --- - --- ----- ----- ----<br>---- --- --- ----- --- ---- ---- ------- ----- ---- -------<br>--- --- -- ----- -- --- ---- -- --- ---- -- ------ ------<br>--- close -- ----,124546.20000004768,124543.20000004768,124165.022,124172.80000007153,124181.742,124550.067,,53,close
screen,html.Screen,2_1_0_1_54,2022-04-25T14:01:21.011Z,,,,,,,,,,,,,,,,,53,,,,,,,,,,,,,,433.0330000238464,,response,,,,99,,,,,,,Space,keypress(Space),,,,,,,,---- -- ----- -- ------ - ------- --- ----------<br>------------- ------ ------ ---- ---- ------- ----- -- ----<br>-------- ------- -- ---------- --- - --- ----- ----- ----<br>---- --- --- ----- --- ---- ---- ------- ----- ---- -------<br>--- --- -- ----- -- --- ---- -- --- ---- -- ------ ------<br>--- ----- at ----,124991.60000002384,124983.10000002384,124533.347,124546.30000007153,124550.067,125001.507,,54,at
screen,html.Screen,2_1_0_1_55,2022-04-25T14:01:21.501Z,,,,,,,,,,,,,,,,,53,,,,,,,,,,,,,,477.6930000476859,,response,,,,99,,,,,,,Space,keypress(Space),,,,,,,,---- -- ----- -- ------ - ------- --- ----------<br>------------- ------ ------ ---- ---- ------- ----- -- ----<br>-------- ------- -- ---------- --- - --- ----- ----- ----<br>---- --- --- ----- --- ---- ---- ------- ----- ---- -------<br>--- --- -- ----- -- --- ---- -- --- ---- -- ------ ------<br>--- ----- -- all.,125482,125479.20000004768,124984.787,124991.70000004768,125001.507,125486.387,,55,all.
Item 99,flow.Loop,2_1_0_1,2022-04-25T14:01:21.501Z,,,,,,,,,,,,,,,,,,,,,,,,,,,,,,,21864.25600004768,,completion,,,,,A,,,,,,,,,,,silence,,,,,125482.40000009537,125479.20000004768,103598.224,103599.70000004768,103614.944,125486.387,,,
Question 1,html.Screen,2_1_0_2,2022-04-25T14:01:26.110Z,,,,,,,,,,,,,,,,,,,,,,,,,,,,true,FALSE,,4602.612999999998,,response,,,,99,A,,,,,,FALSE,click #choice-2,,,,silence,,,,,130090.90000009537,130089,125469.667,125482.5,125486.387,130117.827,,,
Question 2,html.Screen,2_1_0_3,2022-04-25T14:01:29.653Z,,,,,,,,,,,,,,,,,,,,,,,,,,,,true,TRUE,,3514.873000047679,,response,,,,99,A,,,,,,TRUE,click #choice-1,,,,silence,,,,,133634.40000009537,133632.70000004768,130101.107,130090.90000009537,130117.827,133662.467,,,
Item 99,flow.Sequence,2_1_0,2022-04-25T14:01:29.653Z,,,,,,,,,,,,,,,,,,,,,,,,,,,,,,,40016.988000047684,,completion,,,,,,,,,,,,,,,,,,,,,133634.60000002384,133632.70000004768,93598.992,93613.90000009537,93615.712,133662.467,,,
Holding screen,html.Screen,2_1_1_0,2022-04-25T14:01:39.665Z,,,,,,,,,,,,,,,,,,,,,,,,,,,,,,,9999.060999999987,,timeout,,,,,,,,,,,,,,,,,,,,,143646.80000007153,143644.808,133645.747,133634.70000004768,133662.467,143661.528,,,
screen,html.Screen,2_1_1_1_0,2022-04-25T14:01:40.268Z,,,,,,,,,,,,,,,,,54,,,,,,,,,,,,,,581.1720000476926,,response,,,,100,,,,,,,Space,keypress(Space),,,,,,,,At --- ---- --- ------ ----- ------- ---- -- --- ------- --<br>------- ---------- ------ -- ----- -- ----- -- ---- ------<br>--- ----- --- --- ------ -------- ----- --- ------ ----- --<br>----- ----- ---------- --- --- ------ ------ ---- -- ------<br>------- --- ------ ----- --- ---- ------- -- ---- --- --<br>------- ------,144249.20000004768,144242.70000004768,143644.808,143647,143661.528,144263.448,,0,At
screen,html.Screen,2_1_1_1_1,2022-04-25T14:01:40.545Z,,,,,,,,,,,,,,,,,54,,,,,,,,,,,,,,259.25200004767976,,response,,,,100,,,,,,,Space,keypress(Space),,,,,,,,-- the ---- --- ------ ----- ------- ---- -- --- ------- --<br>------- ---------- ------ -- ----- -- ----- -- ---- ------<br>--- ----- --- --- ------ -------- ----- --- ------ ----- --<br>----- ----- ---------- --- --- ------ ------ ---- -- ------<br>------- --- ------ ----- --- ---- ------- -- ---- --- --<br>------- ------,144525.90000009537,144522.70000004768,144246.728,144249.30000007153,144263.448,144530.968,,1,the
screen,html.Screen,2_1_1_1_2,2022-04-25T14:01:40.819Z,,,,,,,,,,,,,,,,,54,,,,,,,,,,,,,,263.73200004769024,,response,,,,100,,,,,,,Space,keypress(Space),,,,,,,,-- --- time --- ------ ----- ------- ---- -- --- ------- --<br>------- ---------- ------ -- ----- -- ----- -- ---- ------<br>--- ----- --- --- ------ -------- ----- --- ------ ----- --<br>----- ----- ---------- --- --- ------ ------ ---- -- ------<br>------- --- ------ ----- --- ---- ------- -- ---- --- --<br>------- ------,144800.30000007153,144794.70000004768,144514.248,144526,144530.968,144815.208,,2,time
screen,html.Screen,2_1_1_1_3,2022-04-25T14:01:41.112Z,,,,,,,,,,,,,,,,,54,,,,,,,,,,,,,,275.5920000715123,,response,,,,100,,,,,,,Space,keypress(Space),,,,,,,,-- --- ---- the ------ ----- ------- ---- -- --- ------- --<br>------- ---------- ------ -- ----- -- ----- -- ---- ------<br>--- ----- --- --- ------ -------- ----- --- ------ ----- --<br>----- ----- ---------- --- --- ------ ------ ---- -- ------<br>------- --- ------ ----- --- ---- ------- -- ---- --- --<br>------- ------,145093.80000007153,145090.80000007153,144798.488,144800.5,144815.208,145099.448,,3,the
screen,html.Screen,2_1_1_1_4,2022-04-25T14:01:41.427Z,,,,,,,,,,,,,,,,,54,,,,,,,,,,,,,,303.25200004767976,,response,,,,100,,,,,,,Space,keypress(Space),,,,,,,,-- --- ---- --- French ----- ------- ---- -- --- ------- --<br>------- ---------- ------ -- ----- -- ----- -- ---- ------<br>--- ----- --- --- ------ -------- ----- --- ------ ----- --<br>----- ----- ---------- --- --- ------ ------ ---- -- ------<br>------- --- ------ ----- --- ---- ------- -- ---- --- --<br>------- ------,145408,145402.70000004768,145082.728,145093.90000009537,145099.448,145417.707,,4,French
screen,html.Screen,2_1_1_1_5,2022-04-25T14:01:41.728Z,,,,,,,,,,,,,,,,,54,,,,,,,,,,,,,,288.893000023847,,response,,,,100,,,,,,,Space,keypress(Space),,,,,,,,-- --- ---- --- ------ crown ------- ---- -- --- ------- --<br>------- ---------- ------ -- ----- -- ----- -- ---- ------<br>--- ----- --- --- ------ -------- ----- --- ------ ----- --<br>----- ----- ---------- --- --- ------ ------ ---- -- ------<br>------- --- ------ ----- --- ---- ------- -- ---- --- --<br>------- ------,145709.40000009537,145706.60000002384,145400.987,145408.10000002384,145417.707,145718.667,,5,crown
screen,html.Screen,2_1_1_1_6,2022-04-25T14:01:42.043Z,,,,,,,,,,,,,,,,,54,,,,,,,,,,,,,,300.033000047697,,response,,,,100,,,,,,,Space,keypress(Space),,,,,,,,-- --- ---- --- ------ ----- secured ---- -- --- ------- --<br>------- ---------- ------ -- ----- -- ----- -- ---- ------<br>--- ----- --- --- ------ -------- ----- --- ------ ----- --<br>----- ----- ---------- --- --- ------ ------ ---- -- ------<br>------- --- ------ ----- --- ---- ------- -- ---- --- --<br>------- ------,146023.90000009537,146018.70000004768,145701.947,145709.5,145718.667,146036.347,,6,secured
screen,html.Screen,2_1_1_1_7,2022-04-25T14:01:42.344Z,,,,,,,,,,,,,,,,,54,,,,,,,,,,,,,,286.35300004767487,,response,,,,100,,,,,,,Space,keypress(Space),,,,,,,,-- --- ---- --- ------ ----- ------- much -- --- ------- --<br>------- ---------- ------ -- ----- -- ----- -- ---- ------<br>--- ----- --- --- ------ -------- ----- --- ------ ----- --<br>----- ----- ---------- --- --- ------ ------ ---- -- ------<br>------- --- ------ ----- --- ---- ------- -- ---- --- --<br>------- ------,146325.70000004768,146322.70000004768,146019.627,146024,146036.347,146337.307,,7,much
screen,html.Screen,2_1_1_1_8,2022-04-25T14:01:42.651Z,,,,,,,,,,,,,,,,,54,,,,,,,,,,,,,,289.4930000715249,,response,,,,100,,,,,,,Space,keypress(Space),,,,,,,,-- --- ---- --- ------ ----- ------- ---- of --- ------- --<br>------- ---------- ------ -- ----- -- ----- -- ---- ------<br>--- ----- --- --- ------ -------- ----- --- ------ ----- --<br>----- ----- ---------- --- --- ------ ------ ---- -- ------<br>------- --- ------ ----- --- ---- ------- -- ---- --- --<br>------- ------,146632.20000004768,146626.80000007153,146320.587,146326,146337.307,146638.267,,8,of
screen,html.Screen,2_1_1_1_9,2022-04-25T14:01:42.976Z,,,,,,,,,,,,,,,,,54,,,,,,,,,,,,,,316.533000071533,,response,,,,100,,,,,,,Space,keypress(Space),,,,,,,,-- --- ---- --- ------ ----- ------- ---- -- its ------- --<br>------- ---------- ------ -- ----- -- ----- -- ---- ------<br>--- ----- --- --- ------ -------- ----- --- ------ ----- --<br>----- ----- ---------- --- --- ------ ------ ---- -- ------<br>------- --- ------ ----- --- ---- ------- -- ---- --- --<br>------- ------,146957.80000007153,146954.80000007153,146621.547,146632.30000007153,146638.267,146972.667,,9,its
screen,html.Screen,2_1_1_1_10,2022-04-25T14:01:43.291Z,,,,,,,,,,,,,,,,,54,,,,,,,,,,,,,,294.13300007153885,,response,,,,100,,,,,,,Space,keypress(Space),,,,,,,,-- --- ---- --- ------ ----- ------- ---- -- --- revenue --<br>------- ---------- ------ -- ----- -- ----- -- ---- ------<br>--- ----- --- --- ------ -------- ----- --- ------ ----- --<br>----- ----- ---------- --- --- ------ ------ ---- -- ------<br>------- --- ------ ----- --- ---- ------- -- ---- --- --<br>------- ------,147272.20000004768,147266.80000007153,146955.947,146958,146972.667,147273.627,,10,revenue
screen,html.Screen,2_1_1_1_11,2022-04-25T14:01:43.696Z,,,,,,,,,,,,,,,,,54,,,,,,,,,,,,,,401.07300004767603,,response,,,,100,,,,,,,Space,keypress(Space),,,,,,,,-- --- ---- --- ------ ----- ------- ---- -- --- ------- by<br>------- ---------- ------ -- ----- -- ----- -- ---- ------<br>--- ----- --- --- ------ -------- ----- --- ------ ----- --<br>----- ----- ---------- --- --- ------ ------ ---- -- ------<br>------- --- ------ ----- --- ---- ------- -- ---- --- --<br>------- ------,147677,147674.70000004768,147256.907,147272.30000007153,147273.627,147691.627,,11,by
screen,html.Screen,2_1_1_1_12,2022-04-25T14:01:44.003Z,,,,,,,,,,,,,,,,,54,,,,,,,,,,,,,,286.9730000238342,,response,,,,100,,,,,,,Space,keypress(Space),,,,,,,,-- --- ---- --- ------ ----- ------- ---- -- --- ------- --<br>issuing ---------- ------ -- ----- -- ----- -- ---- ------<br>--- ----- --- --- ------ -------- ----- --- ------ ----- --<br>----- ----- ---------- --- --- ------ ------ ---- -- ------<br>------- --- ------ ----- --- ---- ------- -- ---- --- --<br>------- ------,147983.90000009537,147978.60000002384,147674.907,147677,147691.627,147992.587,,12,issuing
screen,html.Screen,2_1_1_1_13,2022-04-25T14:01:44.312Z,,,,,,,,,,,,,,,,,54,,,,,,,,,,,,,,298.1130000476842,,response,,,,100,,,,,,,Space,keypress(Space),,,,,,,,-- --- ---- --- ------ ----- ------- ---- -- --- ------- --<br>------- government ------ -- ----- -- ----- -- ---- ------<br>--- ----- --- --- ------ -------- ----- --- ------ ----- --<br>----- ----- ---------- --- --- ------ ------ ---- -- ------<br>------- --- ------ ----- --- ---- ------- -- ---- --- --<br>------- ------,148293.60000002384,148290.70000004768,147975.867,147984.10000002384,147992.587,148310.267,,13,government
screen,html.Screen,2_1_1_1_14,2022-04-25T14:01:44.635Z,,,,,,,,,,,,,,,,,54,,,,,,,,,,,,,,300.43300004769117,,response,,,,100,,,,,,,Space,keypress(Space),,,,,,,,-- --- ---- --- ------ ----- ------- ---- -- --- ------- --<br>------- ---------- bonds. -- ----- -- ----- -- ---- ------<br>--- ----- --- --- ------ -------- ----- --- ------ ----- --<br>----- ----- ---------- --- --- ------ ------ ---- -- ------<br>------- --- ------ ----- --- ---- ------- -- ---- --- --<br>------- ------,148616,148610.70000004768,148293.547,148293.80000007153,148310.267,148627.947,,14,bonds.
screen,html.Screen,2_1_1_1_15,2022-04-25T14:01:44.952Z,,,,,,,,,,,,,,,,,54,,,,,,,,,,,,,,302.6530000238563,,response,,,,100,,,,,,,Space,keypress(Space),,,,,,,,-- --- ---- --- ------ ----- ------- ---- -- --- ------- --<br>------- ---------- ------ In ----- -- ----- -- ---- ------<br>--- ----- --- --- ------ -------- ----- --- ------ ----- --<br>----- ----- ---------- --- --- ------ ------ ---- -- ------<br>------- --- ------ ----- --- ---- ------- -- ---- --- --<br>------- ------,148933.60000002384,148930.60000002384,148611.227,148616.10000002384,148627.947,148945.627,,15,In
screen,html.Screen,2_1_1_1_16,2022-04-25T14:01:45.233Z,,,,,,,,,,,,,,,,,54,,,,,,,,,,,,,,264.9730000238342,,response,,,,100,,,,,,,Space,keypress(Space),,,,,,,,"-- --- ---- --- ------ ----- ------- ---- -- --- ------- --<br>------- ---------- ------ -- 1727, -- ----- -- ---- ------<br>--- ----- --- --- ------ -------- ----- --- ------ ----- --<br>----- ----- ---------- --- --- ------ ------ ---- -- ------<br>------- --- ------ ----- --- ---- ------- -- ---- --- --<br>------- ------",149214.5,149210.60000002384,148928.907,148933.80000007153,148945.627,149229.867,,16,"1727,"
screen,html.Screen,2_1_1_1_17,2022-04-25T14:01:45.783Z,,,,,,,,,,,,,,,,,54,,,,,,,,,,,,,,532.7330000238435,,response,,,,100,,,,,,,Space,keypress(Space),,,,,,,,-- --- ---- --- ------ ----- ------- ---- -- --- ------- --<br>------- ---------- ------ -- ----- in ----- -- ---- ------<br>--- ----- --- --- ------ -------- ----- --- ------ ----- --<br>----- ----- ---------- --- --- ------ ------ ---- -- ------<br>------- --- ------ ----- --- ---- ------- -- ---- --- --<br>------- ------,149764.90000009537,149762.60000002384,149213.147,149214.60000002384,149229.867,149781.627,,17,in
screen,html.Screen,2_1_1_1_18,2022-04-25T14:01:46.091Z,,,,,,,,,,,,,,,,,54,,,,,,,,,,,,,,285.07300004767603,,response,,,,100,,,,,,,Space,keypress(Space),,,,,,,,-- --- ---- --- ------ ----- ------- ---- -- --- ------- --<br>------- ---------- ------ -- ----- -- order -- ---- ------<br>--- ----- --- --- ------ -------- ----- --- ------ ----- --<br>----- ----- ---------- --- --- ------ ------ ---- -- ------<br>------- --- ------ ----- --- ---- ------- -- ---- --- --<br>------- ------,150072,150066.70000004768,149764.907,149764.90000009537,149781.627,150082.587,,18,order
screen,html.Screen,2_1_1_1_19,2022-04-25T14:01:46.386Z,,,,,,,,,,,,,,,,,54,,,,,,,,,,,,,,280.1130000476842,,response,,,,100,,,,,,,Space,keypress(Space),,,,,,,,-- --- ---- --- ------ ----- ------- ---- -- --- ------- --<br>------- ---------- ------ -- ----- -- ----- to ---- ------<br>--- ----- --- --- ------ -------- ----- --- ------ ----- --<br>----- ----- ---------- --- --- ------ ------ ---- -- ------<br>------- --- ------ ----- --- ---- ------- -- ---- --- --<br>------- ------,150367,150362.70000004768,150065.867,150072.20000004768,150082.587,150383.547,,19,to
screen,html.Screen,2_1_1_1_20,2022-04-25T14:01:46.703Z,,,,,,,,,,,,,,,,,54,,,,,,,,,,,,,,291.2530000715342,,response,,,,100,,,,,,,Space,keypress(Space),,,,,,,,-- --- ---- --- ------ ----- ------- ---- -- --- ------- --<br>------- ---------- ------ -- ----- -- ----- -- save ------<br>--- ----- --- --- ------ -------- ----- --- ------ ----- --<br>----- ----- ---------- --- --- ------ ------ ---- -- ------<br>------- --- ------ ----- --- ---- ------- -- ---- --- --<br>------- ------,150684.60000002384,150674.80000007153,150366.827,150367.10000002384,150383.547,150701.227,,20,save
screen,html.Screen,2_1_1_1_21,2022-04-25T14:01:47.000Z,,,,,,,,,,,,,,,,,54,,,,,,,,,,,,,,277.4730000476702,,response,,,,100,,,,,,,Space,keypress(Space),,,,,,,,"-- --- ---- --- ------ ----- ------- ---- -- --- ------- --<br>------- ---------- ------ -- ----- -- ----- -- ---- money,<br>--- ----- --- --- ------ -------- ----- --- ------ ----- --<br>----- ----- ---------- --- --- ------ ------ ---- -- ------<br>------- --- ------ ----- --- ---- ------- -- ---- --- --<br>------- ------",150981.40000009537,150978.70000004768,150684.507,150684.80000007153,150701.227,150985.467,,21,"money,"
screen,html.Screen,2_1_1_1_22,2022-04-25T14:01:47.347Z,,,,,,,,,,,,,,,,,54,,,,,,,,,,,,,,337.2330000476795,,response,,,,100,,,,,,,Space,keypress(Space),,,,,,,,-- --- ---- --- ------ ----- ------- ---- -- --- ------- --<br>------- ---------- ------ -- ----- -- ----- -- ---- ------<br>the ----- --- --- ------ -------- ----- --- ------ ----- --<br>----- ----- ---------- --- --- ------ ------ ---- -- ------<br>------- --- ------ ----- --- ---- ------- -- ---- --- --<br>------- ------,151328.10000002384,151322.70000004768,150968.747,150981.5,150985.467,151336.587,,22,the
screen,html.Screen,2_1_1_1_23,2022-04-25T14:01:47.640Z,,,,,,,,,,,,,,,,,54,,,,,,,,,,,,,,282.1130000476842,,response,,,,100,,,,,,,Space,keypress(Space),,,,,,,,-- --- ---- --- ------ ----- ------- ---- -- --- ------- --<br>------- ---------- ------ -- ----- -- ----- -- ---- ------<br>--- state --- --- ------ -------- ----- --- ------ ----- --<br>----- ----- ---------- --- --- ------ ------ ---- -- ------<br>------- --- ------ ----- --- ---- ------- -- ---- --- --<br>------- ------,151621.40000009537,151618.70000004768,151319.867,151328.20000004768,151336.587,151637.547,,23,state
screen,html.Screen,2_1_1_1_24,2022-04-25T14:01:47.947Z,,,,,,,,,,,,,,,,,54,,,,,,,,,,,,,,285.2530000715342,,response,,,,100,,,,,,,Space,keypress(Space),,,,,,,,-- --- ---- --- ------ ----- ------- ---- -- --- ------- --<br>------- ---------- ------ -- ----- -- ----- -- ---- ------<br>--- ----- cut --- ------ -------- ----- --- ------ ----- --<br>----- ----- ---------- --- --- ------ ------ ---- -- ------<br>------- --- ------ ----- --- ---- ------- -- ---- --- --<br>------- ------,151928.30000007153,151922.80000007153,151620.827,151621.60000002384,151637.547,151938.507,,24,cut
screen,html.Screen,2_1_1_1_25,2022-04-25T14:01:48.256Z,,,,,,,,,,,,,,,,,54,,,,,,,,,,,,,,296.29300007151323,,response,,,,100,,,,,,,Space,keypress(Space),,,,,,,,-- --- ---- --- ------ ----- ------- ---- -- --- ------- --<br>------- ---------- ------ -- ----- -- ----- -- ---- ------<br>--- ----- --- the ------ -------- ----- --- ------ ----- --<br>----- ----- ---------- --- --- ------ ------ ---- -- ------<br>------- --- ------ ----- --- ---- ------- -- ---- --- --<br>------- ------,152237.70000004768,152234.80000007153,151921.787,151928.40000009537,151938.507,152239.467,,25,the
screen,html.Screen,2_1_1_1_26,2022-04-25T14:01:48.579Z,,,,,,,,,,,,,,,,,54,,,,,,,,,,,,,,315.3330000715214,,response,,,,100,,,,,,,Space,keypress(Space),,,,,,,,-- --- ---- --- ------ ----- ------- ---- -- --- ------- --<br>------- ---------- ------ -- ----- -- ----- -- ---- ------<br>--- ----- --- --- bonds' -------- ----- --- ------ ----- --<br>----- ----- ---------- --- --- ------ ------ ---- -- ------<br>------- --- ------ ----- --- ---- ------- -- ---- --- --<br>------- ------,152560.20000004768,152554.80000007153,152222.747,152237.90000009537,152239.467,152573.867,,26,bonds'
screen,html.Screen,2_1_1_1_27,2022-04-25T14:01:48.888Z,,,,,,,,,,,,,,,,,54,,,,,,,,,,,,,,292.9330000715272,,response,,,,100,,,,,,,Space,keypress(Space),,,,,,,,-- --- ---- --- ------ ----- ------- ---- -- --- ------- --<br>------- ---------- ------ -- ----- -- ----- -- ---- ------<br>--- ----- --- --- ------ interest ----- --- ------ ----- --<br>----- ----- ---------- --- --- ------ ------ ---- -- ------<br>------- --- ------ ----- --- ---- ------- -- ---- --- --<br>------- ------,152869.80000007153,152866.80000007153,152557.147,152560.40000009537,152573.867,152874.827,,27,interest
screen,html.Screen,2_1_1_1_28,2022-04-25T14:01:49.233Z,,,,,,,,,,,,,,,,,54,,,,,,,,,,,,,,335.77300002385164,,response,,,,100,,,,,,,Space,keypress(Space),,,,,,,,-- --- ---- --- ------ ----- ------- ---- -- --- ------- --<br>------- ---------- ------ -- ----- -- ----- -- ---- ------<br>--- ----- --- --- ------ -------- rate. --- ------ ----- --<br>----- ----- ---------- --- --- ------ ------ ---- -- ------<br>------- --- ------ ----- --- ---- ------- -- ---- --- --<br>------- ------,153214.60000002384,153210.60000002384,152858.107,152870,152874.827,153225.947,,28,rate.
screen,html.Screen,2_1_1_1_29,2022-04-25T14:01:49.520Z,,,,,,,,,,,,,,,,,54,,,,,,,,,,,,,,272.85300007154,,response,,,,100,,,,,,,Space,keypress(Space),,,,,,,,-- --- ---- --- ------ ----- ------- ---- -- --- ------- --<br>------- ---------- ------ -- ----- -- ----- -- ---- ------<br>--- ----- --- --- ------ -------- ----- The ------ ----- --<br>----- ----- ---------- --- --- ------ ------ ---- -- ------<br>------- --- ------ ----- --- ---- ------- -- ---- --- --<br>------- ------,153501.70000004768,153498.80000007153,153209.227,153214.70000004768,153225.947,153510.187,,29,The
screen,html.Screen,2_1_1_1_30,2022-04-25T14:01:49.803Z,,,,,,,,,,,,,,,,,54,,,,,,,,,,,,,,268.51300004767836,,response,,,,100,,,,,,,Space,keypress(Space),,,,,,,,-- --- ---- --- ------ ----- ------- ---- -- --- ------- --<br>------- ---------- ------ -- ----- -- ----- -- ---- ------<br>--- ----- --- --- ------ -------- ----- --- market ----- --<br>----- ----- ---------- --- --- ------ ------ ---- -- ------<br>------- --- ------ ----- --- ---- ------- -- ---- --- --<br>------- ------,153784.40000009537,153778.70000004768,153493.467,153501.90000009537,153510.187,153794.427,,30,market
screen,html.Screen,2_1_1_1_31,2022-04-25T14:01:50.161Z,,,,,,,,,,,,,,,,,54,,,,,,,,,,,,,,344.2730000476877,,response,,,,100,,,,,,,Space,keypress(Space),,,,,,,,-- --- ---- --- ------ ----- ------- ---- -- --- ------- --<br>------- ---------- ------ -- ----- -- ----- -- ---- ------<br>--- ----- --- --- ------ -------- ----- --- ------ value --<br>----- ----- ---------- --- --- ------ ------ ---- -- ------<br>------- --- ------ ----- --- ---- ------- -- ---- --- --<br>------- ------,154142.60000002384,154138.70000004768,153777.707,153784.5,153794.427,154145.547,,31,value
screen,html.Screen,2_1_1_1_32,2022-04-25T14:01:50.467Z,,,,,,,,,,,,,,,,,54,,,,,,,,,,,,,,297.0530000238505,,response,,,,100,,,,,,,Space,keypress(Space),,,,,,,,-- --- ---- --- ------ ----- ------- ---- -- --- ------- --<br>------- ---------- ------ -- ----- -- ----- -- ---- ------<br>--- ----- --- --- ------ -------- ----- --- ------ ----- of<br>----- ----- ---------- --- --- ------ ------ ---- -- ------<br>------- --- ------ ----- --- ---- ------- -- ---- --- --<br>------- ------,154448.40000009537,154442.60000002384,154128.827,154142.70000004768,154145.547,154463.227,,32,of
screen,html.Screen,2_1_1_1_33,2022-04-25T14:01:50.786Z,,,,,,,,,,,,,,,,,54,,,,,,,,,,,,,,299.57300007151207,,response,,,,100,,,,,,,Space,keypress(Space),,,,,,,,-- --- ---- --- ------ ----- ------- ---- -- --- ------- --<br>------- ---------- ------ -- ----- -- ----- -- ---- ------<br>--- ----- --- --- ------ -------- ----- --- ------ ----- --<br>these ----- ---------- --- --- ------ ------ ---- -- ------<br>------- --- ------ ----- --- ---- ------- -- ---- --- --<br>------- ------,154767.80000007153,154762.80000007153,154446.507,154448.5,154463.227,154780.907,,33,these
screen,html.Screen,2_1_1_1_34,2022-04-25T14:01:51.083Z,,,,,,,,,,,,,,,,,54,,,,,,,,,,,,,,277.89300007151905,,response,,,,100,,,,,,,Space,keypress(Space),,,,,,,,-- --- ---- --- ------ ----- ------- ---- -- --- ------- --<br>------- ---------- ------ -- ----- -- ----- -- ---- ------<br>--- ----- --- --- ------ -------- ----- --- ------ ----- --<br>----- bonds ---------- --- --- ------ ------ ---- -- ------<br>------- --- ------ ----- --- ---- ------- -- ---- --- --<br>------- ------,155064.80000007153,155058.80000007153,154764.187,154767.90000009537,154780.907,155081.867,,34,bonds
screen,html.Screen,2_1_1_1_35,2022-04-25T14:01:51.368Z,,,,,,,,,,,,,,,,,54,,,,,,,,,,,,,,264.9330000715272,,response,,,,100,,,,,,,Space,keypress(Space),,,,,,,,"-- --- ---- --- ------ ----- ------- ---- -- --- ------- --<br>------- ---------- ------ -- ----- -- ----- -- ---- ------<br>--- ----- --- --- ------ -------- ----- --- ------ ----- --<br>----- ----- plummeted, --- --- ------ ------ ---- -- ------<br>------- --- ------ ----- --- ---- ------- -- ---- --- --<br>------- ------",155349.70000004768,155346.80000007153,155065.147,155065.80000007153,155081.867,155366.107,,35,"plummeted,"
screen,html.Screen,2_1_1_1_36,2022-04-25T14:01:51.659Z,,,,,,,,,,,,,,,,,54,,,,,,,,,,,,,,268.6930000715365,,response,,,,100,,,,,,,Space,keypress(Space),,,,,,,,-- --- ---- --- ------ ----- ------- ---- -- --- ------- --<br>------- ---------- ------ -- ----- -- ----- -- ---- ------<br>--- ----- --- --- ------ -------- ----- --- ------ ----- --<br>----- ----- ---------- and --- ------ ------ ---- -- ------<br>------- --- ------ ----- --- ---- ------- -- ---- --- --<br>------- ------,155640,155634.80000007153,155349.387,155349.80000007153,155366.107,155650.84,,36,and
screen,html.Screen,2_1_1_1_37,2022-04-25T14:01:51.936Z,,,,,,,,,,,,,,,,,54,,,,,,,,,,,,,,263.96000007152907,,response,,,,100,,,,,,,Space,keypress(Space),,,,,,,,-- --- ---- --- ------ ----- ------- ---- -- --- ------- --<br>------- ---------- ------ -- ----- -- ----- -- ---- ------<br>--- ----- --- --- ------ -------- ----- --- ------ ----- --<br>----- ----- ---------- --- the ------ ------ ---- -- ------<br>------- --- ------ ----- --- ---- ------- -- ---- --- --<br>------- ------,155917.70000004768,155914.80000007153,155634.12,155640.20000004768,155650.84,155935.08,,37,the
screen,html.Screen,2_1_1_1_38,2022-04-25T14:01:52.211Z,,,,,,,,,,,,,,,,,54,,,,,,,,,,,,,,251.72000007153838,,response,,,,100,,,,,,,Space,keypress(Space),,,,,,,,-- --- ---- --- ------ ----- ------- ---- -- --- ------- --<br>------- ---------- ------ -- ----- -- ----- -- ---- ------<br>--- ----- --- --- ------ -------- ----- --- ------ ----- --<br>----- ----- ---------- --- --- market ------ ---- -- ------<br>------- --- ------ ----- --- ---- ------- -- ---- --- --<br>------- ------,156192,156186.80000007153,155918.36,155917.80000007153,155935.08,156202.6,,38,market
screen,html.Screen,2_1_1_1_39,2022-04-25T14:01:52.504Z,,,,,,,,,,,,,,,,,54,,,,,,,,,,,,,,280.1000000476779,,response,,,,100,,,,,,,Space,keypress(Space),,,,,,,,-- --- ---- --- ------ ----- ------- ---- -- --- ------- --<br>------- ---------- ------ -- ----- -- ----- -- ---- ------<br>--- ----- --- --- ------ -------- ----- --- ------ ----- --<br>----- ----- ---------- --- --- ------ became ---- -- ------<br>------- --- ------ ----- --- ---- ------- -- ---- --- --<br>------- ------,156485.60000002384,156482.70000004768,156185.88,156192.20000004768,156202.6,156486.84,,39,became
screen,html.Screen,2_1_1_1_40,2022-04-25T14:01:52.803Z,,,,,,,,,,,,,,,,,54,,,,,,,,,,,,,,291.8600000476872,,response,,,,100,,,,,,,Space,keypress(Space),,,,,,,,-- --- ---- --- ------ ----- ------- ---- -- --- ------- --<br>------- ---------- ------ -- ----- -- ----- -- ---- ------<br>--- ----- --- --- ------ -------- ----- --- ------ ----- --<br>----- ----- ---------- --- --- ------ ------ wary -- ------<br>------- --- ------ ----- --- ---- ------- -- ---- --- --<br>------- ------,156784.30000007153,156778.70000004768,156470.12,156485.80000007153,156486.84,156787.8,,40,wary
screen,html.Screen,2_1_1_1_41,2022-04-25T14:01:53.096Z,,,,,,,,,,,,,,,,,54,,,,,,,,,,,,,,286.90000004769536,,response,,,,100,,,,,,,Space,keypress(Space),,,,,,,,-- --- ---- --- ------ ----- ------- ---- -- --- ------- --<br>------- ---------- ------ -- ----- -- ----- -- ---- ------<br>--- ----- --- --- ------ -------- ----- --- ------ ----- --<br>----- ----- ---------- --- --- ------ ------ ---- of ------<br>------- --- ------ ----- --- ---- ------- -- ---- --- --<br>------- ------,157077.5,157074.70000004768,156771.08,156784.5,156787.8,157088.76,,41,of
screen,html.Screen,2_1_1_1_42,2022-04-25T14:01:53.419Z,,,,,,,,,,,,,,,,,54,,,,,,,,,,,,,,305.9400000476744,,response,,,,100,,,,,,,Space,keypress(Space),,,,,,,,-- --- ---- --- ------ ----- ------- ---- -- --- ------- --<br>------- ---------- ------ -- ----- -- ----- -- ---- ------<br>--- ----- --- --- ------ -------- ----- --- ------ ----- --<br>----- ----- ---------- --- --- ------ ------ ---- -- French<br>------- --- ------ ----- --- ---- ------- -- ---- --- --<br>------- ------,157400.10000002384,157394.70000004768,157072.04,157077.60000002384,157088.76,157406.44,,42,French
screen,html.Screen,2_1_1_1_43,2022-04-25T14:01:53.728Z,,,,,,,,,,,,,,,,,54,,,,,,,,,,,,,,300.16000002383953,,response,,,,100,,,,,,,Space,keypress(Space),,,,,,,,-- --- ---- --- ------ ----- ------- ---- -- --- ------- --<br>------- ---------- ------ -- ----- -- ----- -- ---- ------<br>--- ----- --- --- ------ -------- ----- --- ------ ----- --<br>----- ----- ---------- --- --- ------ ------ ---- -- ------<br>credit. --- ------ ----- --- ---- ------- -- ---- --- --<br>------- ------,157709.20000004768,157706.60000002384,157389.72,157400.20000004768,157406.44,157724.12,,43,credit.
screen,html.Screen,2_1_1_1_44,2022-04-25T14:01:54.027Z,,,,,,,,,,,,,,,,,54,,,,,,,,,,,,,,278.4800000238465,,response,,,,100,,,,,,,Space,keypress(Space),,,,,,,,-- --- ---- --- ------ ----- ------- ---- -- --- ------- --<br>------- ---------- ------ -- ----- -- ----- -- ---- ------<br>--- ----- --- --- ------ -------- ----- --- ------ ----- --<br>----- ----- ---------- --- --- ------ ------ ---- -- ------<br>------- The ------ ----- --- ---- ------- -- ---- --- --<br>------- ------,158008.40000009537,158002.60000002384,157707.4,157709.30000007153,157724.12,158025.08,,44,The
screen,html.Screen,2_1_1_1_45,2022-04-25T14:01:54.320Z,,,,,,,,,,,,,,,,,54,,,,,,,,,,,,,,273.52000002385466,,response,,,,100,,,,,,,Space,keypress(Space),,,,,,,,-- --- ---- --- ------ ----- ------- ---- -- --- ------- --<br>------- ---------- ------ -- ----- -- ----- -- ---- ------<br>--- ----- --- --- ------ -------- ----- --- ------ ----- --<br>----- ----- ---------- --- --- ------ ------ ---- -- ------<br>------- --- French ----- --- ---- ------- -- ---- --- --<br>------- ------,158301.5,158298.60000002384,158008.36,158008.5,158025.08,158309.32,,45,French
screen,html.Screen,2_1_1_1_46,2022-04-25T14:01:54.642Z,,,,,,,,,,,,,,,,,54,,,,,,,,,,,,,,309.38000004767673,,response,,,,100,,,,,,,Space,keypress(Space),,,,,,,,-- --- ---- --- ------ ----- ------- ---- -- --- ------- --<br>------- ---------- ------ -- ----- -- ----- -- ---- ------<br>--- ----- --- --- ------ -------- ----- --- ------ ----- --<br>----- ----- ---------- --- --- ------ ------ ---- -- ------<br>------- --- ------ state --- ---- ------- -- ---- --- --<br>------- ------,158624,158618.70000004768,158292.6,158301.60000002384,158309.32,158627,,46,state
screen,html.Screen,2_1_1_1_47,2022-04-25T14:01:54.944Z,,,,,,,,,,,,,,,,,54,,,,,,,,,,,,,,295.8000000715256,,response,,,,100,,,,,,,Space,keypress(Space),,,,,,,,-- --- ---- --- ------ ----- ------- ---- -- --- ------- --<br>------- ---------- ------ -- ----- -- ----- -- ---- ------<br>--- ----- --- --- ------ -------- ----- --- ------ ----- --<br>----- ----- ---------- --- --- ------ ------ ---- -- ------<br>------- --- ------ ----- was ---- ------- -- ---- --- --<br>------- ------,158925.70000004768,158922.80000007153,158610.28,158624.20000004768,158627,158927.96,,47,was
screen,html.Screen,2_1_1_1_48,2022-04-25T14:01:55.257Z,,,,,,,,,,,,,,,,,54,,,,,,,,,,,,,,306.74000004769186,,response,,,,100,,,,,,,Space,keypress(Space),,,,,,,,-- --- ---- --- ------ ----- ------- ---- -- --- ------- --<br>------- ---------- ------ -- ----- -- ----- -- ---- ------<br>--- ----- --- --- ------ -------- ----- --- ------ ----- --<br>----- ----- ---------- --- --- ------ ------ ---- -- ------<br>------- --- ------ ----- --- left ------- -- ---- --- --<br>------- ------,159239,159234.70000004768,158911.24,158925.90000009537,158927.96,159245.64,,48,left
screen,html.Screen,2_1_1_1_49,2022-04-25T14:01:55.592Z,,,,,,,,,,,,,,,,,54,,,,,,,,,,,,,,325.06000004766975,,response,,,,100,,,,,,,Space,keypress(Space),,,,,,,,-- --- ---- --- ------ ----- ------- ---- -- --- ------- --<br>------- ---------- ------ -- ----- -- ----- -- ---- ------<br>--- ----- --- --- ------ -------- ----- --- ------ ----- --<br>----- ----- ---------- --- --- ------ ------ ---- -- ------<br>------- --- ------ ----- --- ---- without -- ---- --- --<br>------- ------,159573.5,159570.70000004768,159228.92,159239,159245.64,159580.04,,49,without
screen,html.Screen,2_1_1_1_50,2022-04-25T14:01:55.939Z,,,,,,,,,,,,,,,,,54,,,,,,,,,,,,,,334.66000004767557,,response,,,,100,,,,,,,Space,keypress(Space),,,,,,,,-- --- ---- --- ------ ----- ------- ---- -- --- ------- --<br>------- ---------- ------ -- ----- -- ----- -- ---- ------<br>--- ----- --- --- ------ -------- ----- --- ------ ----- --<br>----- ----- ---------- --- --- ------ ------ ---- -- ------<br>------- --- ------ ----- --- ---- ------- an ---- --- --<br>------- ------,159920.20000004768,159914.70000004768,159563.32,159573.60000002384,159580.04,159931.16,,50,an
screen,html.Screen,2_1_1_1_51,2022-04-25T14:01:56.272Z,,,,,,,,,,,,,,,,,54,,,,,,,,,,,,,,319.44000002383837,,response,,,,100,,,,,,,Space,keypress(Space),,,,,,,,-- --- ---- --- ------ ----- ------- ---- -- --- ------- --<br>------- ---------- ------ -- ----- -- ----- -- ---- ------<br>--- ----- --- --- ------ -------- ----- --- ------ ----- --<br>----- ----- ---------- --- --- ------ ------ ---- -- ------<br>------- --- ------ ----- --- ---- ------- -- easy --- --<br>------- ------,160253.60000002384,160250.60000002384,159914.44,159920.20000004768,159931.16,160265.56,,51,easy
screen,html.Screen,2_1_1_1_52,2022-04-25T14:01:56.602Z,,,,,,,,,,,,,,,,,54,,,,,,,,,,,,,,313.2400000715279,,response,,,,100,,,,,,,Space,keypress(Space),,,,,,,,-- --- ---- --- ------ ----- ------- ---- -- --- ------- --<br>------- ---------- ------ -- ----- -- ----- -- ---- ------<br>--- ----- --- --- ------ -------- ----- --- ------ ----- --<br>----- ----- ---------- --- --- ------ ------ ---- -- ------<br>------- --- ------ ----- --- ---- ------- -- ---- way --<br>------- ------,160583.80000007153,160578.80000007153,160248.84,160253.70000004768,160265.56,160599.96,,52,way
screen,html.Screen,2_1_1_1_53,2022-04-25T14:01:56.984Z,,,,,,,,,,,,,,,,,54,,,,,,,,,,,,,,362.8400000715337,,response,,,,100,,,,,,,Space,keypress(Space),,,,,,,,-- --- ---- --- ------ ----- ------- ---- -- --- ------- --<br>------- ---------- ------ -- ----- -- ----- -- ---- ------<br>--- ----- --- --- ------ -------- ----- --- ------ ----- --<br>----- ----- ---------- --- --- ------ ------ ---- -- ------<br>------- --- ------ ----- --- ---- ------- -- ---- --- of<br>------- ------,160965.60000002384,160962.80000007153,160583.24,160584,160599.96,160967.8,,53,of
screen,html.Screen,2_1_1_1_54,2022-04-25T14:01:57.635Z,,,,,,,,,,,,,,,,,54,,,,,,,,,,,,,,643.0000000715372,,response,,,,100,,,,,,,Space,keypress(Space),,,,,,,,-- --- ---- --- ------ ----- ------- ---- -- --- ------- --<br>------- ---------- ------ -- ----- -- ----- -- ---- ------<br>--- ----- --- --- ------ -------- ----- --- ------ ----- --<br>----- ----- ---------- --- --- ------ ------ ---- -- ------<br>------- --- ------ ----- --- ---- ------- -- ---- --- --<br>raising ------,161616.20000004768,161610.80000007153,160951.08,160965.80000007153,160967.8,161619.88,,54,raising
screen,html.Screen,2_1_1_1_55,2022-04-25T14:01:58.024Z,,,,,,,,,,,,,,,,,54,,,,,,,,,,,,,,382.82000004767906,,response,,,,100,,,,,,,Space,keypress(Space),,,,,,,,-- --- ---- --- ------ ----- ------- ---- -- --- ------- --<br>------- ---------- ------ -- ----- -- ----- -- ---- ------<br>--- ----- --- --- ------ -------- ----- --- ------ ----- --<br>----- ----- ---------- --- --- ------ ------ ---- -- ------<br>------- --- ------ ----- --- ---- ------- -- ---- --- --<br>------- money.,162005.70000004768,162002.70000004768,161603.16,161616.30000007153,161619.88,162021.16,,55,money.
Item 100,flow.Loop,2_1_1_1,2022-04-25T14:01:58.024Z,,,,,,,,,,,,,,,,,,,,,,,,,,,,,,,18341.172000047693,,completion,,,,,A,,,,,,,,,,,silence,,,,,162006,162002.70000004768,143644.808,143647,143661.528,162021.16,,,
Question 1,html.Screen,2_1_1_2,2022-04-25T14:01:59.668Z,,,,,,,,,,,,,,,,,,,,,,,,,,,,true,TRUE,,1625.5400000476802,,response,,,,100,A,,,,,,TRUE,click #choice-1,,,,silence,,,,,163649.20000004768,163646.70000004768,162004.44,162006,162021.16,163659.72,,,
Question 2,html.Screen,2_1_1_3,2022-04-25T14:02:01.533Z,,,,,,,,,,,,,,,,,,,,,,,,,,,,true,FALSE,,1853.0800000715244,,response,,,,100,A,,,,,,FALSE,click #choice-2,,,,silence,,,,,165514.80000007153,165512.80000007153,163643,163649.30000007153,163659.72,165532.36,,,
Item 100,flow.Sequence,2_1_1,2022-04-25T14:02:01.533Z,,,,,,,,,,,,,,,,,,,,,,,,,,,,,,,31850.33300007152,,completion,,,,,,,,,,,,,,,,,,,,,165515,165512.80000007153,133645.747,133634.70000004768,133662.467,165532.36,,,
End of Practice,html.Page,2_1_2,2022-04-25T14:02:03.696Z,,,,,,,,,,,,,,,,,,,,,,,,,,,,,,,2144.5400000953814,,form submission,,,,,,,,,,,,,,,,,,,,,167677.30000007153,167676.90000009537,165515.64,165515.10000002384,165532.36,167689.658,,,
Practice,flow.Sequence,2_1,2022-04-25T14:02:03.696Z,,,,,,,,,,,,,,,,,,,,,,,,,,,,,,,74061.18800009537,,completion,,,,,,,,,,,,,,,,,,,,,167677.5,167676.90000009537,93598.992,93613.90000009537,93615.712,167689.658,,,
Trap_instruction,html.Page,2_2_0,2022-04-25T14:02:07.203Z,,,,,,,,,,,,,,,,,,,,,,,,,,,,,,,3495.042000047688,,form submission,,,,,,,,,,,,,,,,,,,,,171185.10000002384,171184.70000004768,167672.938,167677.60000002384,167689.658,171200.858,,,
trap_trial,html.Screen,2_2_1,2022-04-25T14:02:10.526Z,,,,,,,,,,,,,,,,,,,,,,,,,,,,true,1,,3305.1419999999925,,response,,,,,,,,,,,1,click #choice-1,,,,,,,,,174508.20000004768,174506,171184.138,171185.20000004768,171200.858,174528.138,,,
end of trap trial,html.Page,2_2_2,2022-04-25T14:02:11.905Z,,,,,,,,,,,,,,,,,,,,,,,,,,,,,,,1358.3619999999937,,form submission,,,,,,,,,,,,,,,,,,,,,175886.90000009537,175886.5,174511.418,174508.40000009537,174528.138,175899.178,,,
Trap 1,flow.Sequence,2_2,2022-04-25T14:02:11.905Z,,,,,,,,,,,,,,,,,,,,,,,,,,,,,,,8196.842000000004,,completion,,,,,,,,,,,,,,,,,,,,,175887.10000002384,175886.5,167672.938,167677.60000002384,167689.658,175899.178,,,
Standby,html.Page,2_3_0,2022-04-25T14:02:19.894Z,,,,,,,,,,,,,,,,,,,,,,,,,,,,,,,7992.159999999974,,timeout,,,,,,,,,,,,,,,,,,,,,183876.10000002384,183874.618,175882.458,175887.30000007153,175899.178,183891.338,,,
Holding screen,html.Screen,2_3_1_0_0,2022-04-25T14:02:26.905Z,,,,,,,,,,,,,,,,,,,,,,,,,,,,,,,7006.640000000014,,timeout,,,,,,,,,,,,,,,,,,,,,190887.10000002384,190881.258,183874.618,183876.40000009537,183891.338,190897.978,,,
screen,html.Screen,2_3_1_0_1_0,2022-04-25T14:02:27.620Z,,,,,,,,,,,,,,,,,12,,,,,,,,,,,,,,698.4220000953646,,response,,,,5,A,,,,,,Space,keypress(Space),,,,silence,,,,Some ------ ------ ------- ------ --- ------- -----------<br>-- ----- --- ---- -- --- ------ ---- - ---- -- ----------<br>-- ------ ---- --- ---- --- --- --- ----- -- -------- ---<br>------ ------- -------- --- ---- -- ------- ------------ --<br>------ -- ---- -- --- ---- -- -------- -- --- ------ ------,191601.70000004768,191596.40000009537,190881.258,190888.40000009537,190897.978,191616.938,,0,Some
screen,html.Screen,2_3_1_0_1_1,2022-04-25T14:02:27.945Z,,,,,,,,,,,,,,,,,12,,,,,,,,,,,,,,307.4620000953728,,response,,,,5,A,,,,,,Space,keypress(Space),,,,silence,,,,---- months ------ ------- ------ --- ------- -----------<br>-- ----- --- ---- -- --- ------ ---- - ---- -- ----------<br>-- ------ ---- --- ---- --- --- --- ----- -- -------- ---<br>------ ------- -------- --- ---- -- ------- ------------ --<br>------ -- ---- -- --- ---- -- -------- -- --- ------ ------,191927.40000009537,191924.40000009537,191600.218,191601.90000009537,191616.938,191934.618,,1,months
screen,html.Screen,2_3_1_0_1_2,2022-04-25T14:02:28.188Z,,,,,,,,,,,,,,,,,12,,,,,,,,,,,,,,229.9820000238542,,response,,,,5,A,,,,,,Space,keypress(Space),,,,silence,,,,"---- ------ later, ------- ------ --- ------- -----------<br>-- ----- --- ---- -- --- ------ ---- - ---- -- ----------<br>-- ------ ---- --- ---- --- --- --- ----- -- -------- ---<br>------ ------- -------- --- ---- -- ------- ------------ --<br>------ -- ---- -- --- ---- -- -------- -- --- ------ ------",192170,192164.60000002384,191917.898,191927.60000002384,191934.618,192185.418,,2,"later,"
screen,html.Screen,2_3_1_0_1_3,2022-04-25T14:02:28.362Z,,,,,,,,,,,,,,,,,12,,,,,,,,,,,,,,155.18200002383674,,response,,,,5,A,,,,,,Space,keypress(Space),,,,silence,,,,---- ------ ------ Michael ------ --- ------- -----------<br>-- ----- --- ---- -- --- ------ ---- - ---- -- ----------<br>-- ------ ---- --- ---- --- --- --- ----- -- -------- ---<br>------ ------- -------- --- ---- -- ------- ------------ --<br>------ -- ---- -- --- ---- -- -------- -- --- ------ ------,192343.60000002384,192340.60000002384,192168.698,192170.10000002384,192185.418,192352.618,,3,Michael
screen,html.Screen,2_3_1_0_1_4,2022-04-25T14:02:28.932Z,,,,,,,,,,,,,,,,,12,,,,,,,,,,,,,,555.8820000000123,,response,,,,5,A,,,,,,Space,keypress(Space),,,,silence,,,,---- ------ ------ ------- Larson --- ------- -----------<br>-- ----- --- ---- -- --- ------ ---- - ---- -- ----------<br>-- ------ ---- --- ---- --- --- --- ----- -- -------- ---<br>------ ------- -------- --- ---- -- ------- ------------ --<br>------ -- ---- -- --- ---- -- -------- -- --- ------ ------,192913.70000004768,192908.5,192335.898,192343.70000004768,192352.618,192921.098,,4,Larson
screen,html.Screen,2_3_1_0_1_5,2022-04-25T14:02:29.265Z,,,,,,,,,,,,,,,,,12,,,,,,,,,,,,,,323.5020000238437,,response,,,,5,A,,,,,,Space,keypress(Space),,,,silence,,,,---- ------ ------ ------- ------ saw ------- -----------<br>-- ----- --- ---- -- --- ------ ---- - ---- -- ----------<br>-- ------ ---- --- ---- --- --- --- ----- -- -------- ---<br>------ ------- -------- --- ---- -- ------- ------------ --<br>------ -- ---- -- --- ---- -- -------- -- --- ------ ------,193247.40000009537,193244.60000002384,192904.378,192913.80000007153,192921.098,193255.498,,5,saw
screen,html.Screen,2_3_1_0_1_6,2022-04-25T14:02:29.622Z,,,,,,,,,,,,,,,,,12,,,,,,,,,,,,,,340.9020000953751,,response,,,,5,A,,,,,,Space,keypress(Space),,,,silence,,,,---- ------ ------ ------- ------ --- another -----------<br>-- ----- --- ---- -- --- ------ ---- - ---- -- ----------<br>-- ------ ---- --- ---- --- --- --- ----- -- -------- ---<br>------ ------- -------- --- ---- -- ------- ------------ --<br>------ -- ---- -- --- ---- -- -------- -- --- ------ ------,193604.20000004768,193596.40000009537,193238.778,193247.60000002384,193255.498,193606.618,,6,another
screen,html.Screen,2_3_1_0_1_7,2022-04-25T14:02:29.985Z,,,,,,,,,,,,,,,,,12,,,,,,,,,,,,,,357.88200000001234,,response,,,,5,A,,,,,,Space,keypress(Space),,,,silence,,,,---- ------ ------ ------- ------ --- ------- opportunity<br>-- ----- --- ---- -- --- ------ ---- - ---- -- ----------<br>-- ------ ---- --- ---- --- --- --- ----- -- -------- ---<br>------ ------- -------- --- ---- -- ------- ------------ --<br>------ -- ---- -- --- ---- -- -------- -- --- ------ ------,193967.40000009537,193964.5,193589.898,193604.40000009537,193606.618,193974.458,,7,opportunity
screen,html.Screen,2_3_1_0_1_8,2022-04-25T14:02:30.324Z,,,,,,,,,,,,,,,,,12,,,,,,,,,,,,,,326.1420000238286,,response,,,,5,A,,,,,,Space,keypress(Space),,,,silence,,,,---- ------ ------ ------- ------ --- ------- -----------<br>to ----- --- ---- -- --- ------ ---- - ---- -- ----------<br>-- ------ ---- --- ---- --- --- --- ----- -- -------- ---<br>------ ------- -------- --- ---- -- ------- ------------ --<br>------ -- ---- -- --- ---- -- -------- -- --- ------ ------,194305.80000007153,194300.60000002384,193957.738,193967.5,193974.458,194308.858,,8,to
screen,html.Screen,2_3_1_0_1_9,2022-04-25T14:02:30.625Z,,,,,,,,,,,,,,,,,12,,,,,,,,,,,,,,295.7420000238344,,response,,,,5,A,,,,,,Space,keypress(Space),,,,silence,,,,---- ------ ------ ------- ------ --- ------- -----------<br>-- stack --- ---- -- --- ------ ---- - ---- -- ----------<br>-- ------ ---- --- ---- --- --- --- ----- -- -------- ---<br>------ ------- -------- --- ---- -- ------- ------------ --<br>------ -- ---- -- --- ---- -- -------- -- --- ------ ------,194607.60000002384,194604.60000002384,194292.138,194306,194308.858,194609.818,,9,stack
screen,html.Screen,2_3_1_0_1_10,2022-04-25T14:02:30.939Z,,,,,,,,,,,,,,,,,12,,,,,,,,,,,,,,306.6820000000007,,response,,,,5,A,,,,,,Space,keypress(Space),,,,silence,,,,---- ------ ------ ------- ------ --- ------- -----------<br>-- ----- the ---- -- --- ------ ---- - ---- -- ----------<br>-- ------ ---- --- ---- --- --- --- ----- -- -------- ---<br>------ ------- -------- --- ---- -- ------- ------------ --<br>------ -- ---- -- --- ---- -- -------- -- --- ------ ------,194921.5,194916.5,194593.098,194607.80000007153,194609.818,194927.498,,10,the
screen,html.Screen,2_3_1_0_1_11,2022-04-25T14:02:31.378Z,,,,,,,,,,,,,,,,,12,,,,,,,,,,,,,,429.10200002384954,,response,,,,5,A,,,,,,Space,keypress(Space),,,,silence,,,,---- ------ ------ ------- ------ --- ------- -----------<br>-- ----- --- odds -- --- ------ ---- - ---- -- ----------<br>-- ------ ---- --- ---- --- --- --- ----- -- -------- ---<br>------ ------- -------- --- ---- -- ------- ------------ --<br>------ -- ---- -- --- ---- -- -------- -- --- ------ ------,195359.80000007153,195356.60000002384,194910.778,194921.60000002384,194927.498,195362.218,,11,odds
screen,html.Screen,2_3_1_0_1_12,2022-04-25T14:02:31.700Z,,,,,,,,,,,,,,,,,12,,,,,,,,,,,,,,314.3820000238484,,response,,,,5,A,,,,,,Space,keypress(Space),,,,silence,,,,---- ------ ------ ------- ------ --- ------- -----------<br>-- ----- --- ---- in --- ------ ---- - ---- -- ----------<br>-- ------ ---- --- ---- --- --- --- ----- -- -------- ---<br>------ ------- -------- --- ---- -- ------- ------------ --<br>------ -- ---- -- --- ---- -- -------- -- --- ------ ------,195682.10000002384,195676.60000002384,195345.498,195359.90000009537,195362.218,195696.618,,12,in
screen,html.Screen,2_3_1_0_1_13,2022-04-25T14:02:32.026Z,,,,,,,,,,,,,,,,,12,,,,,,,,,,,,,,307.9820000238542,,response,,,,5,A,,,,,,Space,keypress(Space),,,,silence,,,,---- ------ ------ ------- ------ --- ------- -----------<br>-- ----- --- ---- -- his ------ ---- - ---- -- ----------<br>-- ------ ---- --- ---- --- --- --- ----- -- -------- ---<br>------ ------- -------- --- ---- -- ------- ------------ --<br>------ -- ---- -- --- ---- -- -------- -- --- ------ ------,196007.70000004768,196004.60000002384,195679.898,195682.30000007153,195696.618,196014.298,,13,his
screen,html.Screen,2_3_1_0_1_14,2022-04-25T14:02:32.388Z,,,,,,,,,,,,,,,,,12,,,,,,,,,,,,,,350.10200009535765,,response,,,,5,A,,,,,,Space,keypress(Space),,,,silence,,,,---- ------ ------ ------- ------ --- ------- -----------<br>-- ----- --- ---- -- --- favour ---- - ---- -- ----------<br>-- ------ ---- --- ---- --- --- --- ----- -- -------- ---<br>------ ------- -------- --- ---- -- ------- ------------ --<br>------ -- ---- -- --- ---- -- -------- -- --- ------ ------,196369.60000002384,196364.40000009537,195997.578,196007.90000009537,196014.298,196382.138,,14,favour
screen,html.Screen,2_3_1_0_1_15,2022-04-25T14:02:32.729Z,,,,,,,,,,,,,,,,,12,,,,,,,,,,,,,,326.46200002383557,,response,,,,5,A,,,,,,Space,keypress(Space),,,,silence,,,,---- ------ ------ ------- ------ --- ------- -----------<br>-- ----- --- ---- -- --- ------ with - ---- -- ----------<br>-- ------ ---- --- ---- --- --- --- ----- -- -------- ---<br>------ ------- -------- --- ---- -- ------- ------------ --<br>------ -- ---- -- --- ---- -- -------- -- --- ------ ------,196711.70000004768,196708.60000002384,196365.418,196369.80000007153,196382.138,196716.538,,15,with
screen,html.Screen,2_3_1_0_1_16,2022-04-25T14:02:33.130Z,,,,,,,,,,,,,,,,,12,,,,,,,,,,,,,,391.86200009536697,,response,,,,5,A,,,,,,Space,keypress(Space),,,,silence,,,,---- ------ ------ ------- ------ --- ------- -----------<br>-- ----- --- ---- -- --- ------ ---- a ---- -- ----------<br>-- ------ ---- --- ---- --- --- --- ----- -- -------- ---<br>------ ------- -------- --- ---- -- ------- ------------ --<br>------ -- ---- -- --- ---- -- -------- -- --- ------ ------,197112.40000009537,197108.40000009537,196699.818,196711.70000004768,196716.538,197117.818,,16,a
screen,html.Screen,2_3_1_0_1_17,2022-04-25T14:02:33.496Z,,,,,,,,,,,,,,,,,12,,,,,,,,,,,,,,358.6820000000007,,response,,,,5,A,,,,,,Space,keypress(Space),,,,silence,,,,---- ------ ------ ------- ------ --- ------- -----------<br>-- ----- --- ---- -- --- ------ ---- - dash -- ----------<br>-- ------ ---- --- ---- --- --- --- ----- -- -------- ---<br>------ ------- -------- --- ---- -- ------- ------------ --<br>------ -- ---- -- --- ---- -- -------- -- --- ------ ------,197478.60000002384,197476.5,197101.098,197112.60000002384,197117.818,197485.658,,17,dash
screen,html.Screen,2_3_1_0_1_18,2022-04-25T14:02:33.820Z,,,,,,,,,,,,,,,,,12,,,,,,,,,,,,,,310.8420000000042,,response,,,,5,A,,,,,,Space,keypress(Space),,,,silence,,,,---- ------ ------ ------- ------ --- ------- -----------<br>-- ----- --- ---- -- --- ------ ---- - ---- of ----------<br>-- ------ ---- --- ---- --- --- --- ----- -- -------- ---<br>------ ------- -------- --- ---- -- ------- ------------ --<br>------ -- ---- -- --- ---- -- -------- -- --- ------ ------,197802,197796.5,197468.938,197478.70000004768,197485.658,197803.938,,18,of
screen,html.Screen,2_3_1_0_1_19,2022-04-25T14:02:34.273Z,,,,,,,,,,,,,,,,,12,,,,,,,,,,,,,,448.4620000953728,,response,,,,5,A,,,,,,Space,keypress(Space),,,,silence,,,,---- ------ ------ ------- ------ --- ------- -----------<br>-- ----- --- ---- -- --- ------ ---- - ---- -- ingenuity.<br>-- ------ ---- --- ---- --- --- --- ----- -- -------- ---<br>------ ------- -------- --- ---- -- ------- ------------ --<br>------ -- ---- -- --- ---- -- -------- -- --- ------ ------,198255,198252.40000009537,197787.218,197802.20000004768,197803.938,198272.098,,19,ingenuity.
screen,html.Screen,2_3_1_0_1_20,2022-04-25T14:02:34.668Z,,,,,,,,,,,,,,,,,12,,,,,,,,,,,,,,372.5020000238437,,response,,,,5,A,,,,,,Space,keypress(Space),,,,silence,,,,---- ------ ------ ------- ------ --- ------- -----------<br>-- ----- --- ---- -- --- ------ ---- - ---- -- ----------<br>He ------ ---- --- ---- --- --- --- ----- -- -------- ---<br>------ ------- -------- --- ---- -- ------- ------------ --<br>------ -- ---- -- --- ---- -- -------- -- --- ------ ------,198650.10000002384,198644.60000002384,198255.378,198255.20000004768,198272.098,198656.658,,20,He
screen,html.Screen,2_3_1_0_1_21,2022-04-25T14:02:35.017Z,,,,,,,,,,,,,,,,,12,,,,,,,,,,,,,,339.94200002384605,,response,,,,5,A,,,,,,Space,keypress(Space),,,,silence,,,,---- ------ ------ ------- ------ --- ------- -----------<br>-- ----- --- ---- -- --- ------ ---- - ---- -- ----------<br>-- walked ---- --- ---- --- --- --- ----- -- -------- ---<br>------ ------- -------- --- ---- -- ------- ------------ --<br>------ -- ---- -- --- ---- -- -------- -- --- ------ ------,198999.60000002384,198996.60000002384,198639.938,198650.20000004768,198656.658,199007.778,,21,walked
screen,html.Screen,2_3_1_0_1_22,2022-04-25T14:02:35.324Z,,,,,,,,,,,,,,,,,12,,,,,,,,,,,,,,292.8220000238507,,response,,,,5,A,,,,,,Space,keypress(Space),,,,silence,,,,---- ------ ------ ------- ------ --- ------- -----------<br>-- ----- --- ---- -- --- ------ ---- - ---- -- ----------<br>-- ------ into --- ---- --- --- --- ----- -- -------- ---<br>------ ------- -------- --- ---- -- ------- ------------ --<br>------ -- ---- -- --- ---- -- -------- -- --- ------ ------,199306.10000002384,199300.60000002384,198991.058,198999.70000004768,199007.778,199308.738,,22,into
screen,html.Screen,2_3_1_0_1_23,2022-04-25T14:02:35.649Z,,,,,,,,,,,,,,,,,12,,,,,,,,,,,,,,319.7619999999879,,response,,,,5,A,,,,,,Space,keypress(Space),,,,silence,,,,---- ------ ------ ------- ------ --- ------- -----------<br>-- ----- --- ---- -- --- ------ ---- - ---- -- ----------<br>-- ------ ---- his ---- --- --- --- ----- -- -------- ---<br>------ ------- -------- --- ---- -- ------- ------------ --<br>------ -- ---- -- --- ---- -- -------- -- --- ------ ------,199631.60000002384,199628.5,199292.018,199306.30000007153,199308.738,199643.138,,23,his
screen,html.Screen,2_3_1_0_1_24,2022-04-25T14:02:35.988Z,,,,,,,,,,,,,,,,,12,,,,,,,,,,,,,,321.46200002383557,,response,,,,5,A,,,,,,Space,keypress(Space),,,,silence,,,,---- ------ ------ ------- ------ --- ------- -----------<br>-- ----- --- ---- -- --- ------ ---- - ---- -- ----------<br>-- ------ ---- --- bank --- --- --- ----- -- -------- ---<br>------ ------- -------- --- ---- -- ------- ------------ --<br>------ -- ---- -- --- ---- -- -------- -- --- ------ ------,199970.10000002384,199964.60000002384,199626.418,199631.80000007153,199643.138,199977.538,,24,bank
screen,html.Screen,2_3_1_0_1_25,2022-04-25T14:02:36.313Z,,,,,,,,,,,,,,,,,12,,,,,,,,,,,,,,315.0620000238414,,response,,,,5,A,,,,,,Space,keypress(Space),,,,silence,,,,---- ------ ------ ------- ------ --- ------- -----------<br>-- ----- --- ---- -- --- ------ ---- - ---- -- ----------<br>-- ------ ---- --- ---- one --- --- ----- -- -------- ---<br>------ ------- -------- --- ---- -- ------- ------------ --<br>------ -- ---- -- --- ---- -- -------- -- --- ------ ------,200295.60000002384,200292.60000002384,199960.818,199970.20000004768,199977.538,200311.938,,25,one
screen,html.Screen,2_3_1_0_1_26,2022-04-25T14:02:36.660Z,,,,,,,,,,,,,,,,,12,,,,,,,,,,,,,,324.56200000000536,,response,,,,5,A,,,,,,Space,keypress(Space),,,,silence,,,,---- ------ ------ ------- ------ --- ------- -----------<br>-- ----- --- ---- -- --- ------ ---- - ---- -- ----------<br>-- ------ ---- --- ---- --- day --- ----- -- -------- ---<br>------ ------- -------- --- ---- -- ------- ------------ --<br>------ -- ---- -- --- ---- -- -------- -- --- ------ ------,200641.70000004768,200636.5,200295.218,200295.70000004768,200311.938,200646.338,,26,day
screen,html.Screen,2_3_1_0_1_27,2022-04-25T14:02:37.001Z,,,,,,,,,,,,,,,,,12,,,,,,,,,,,,,,334.1620000000112,,response,,,,5,A,,,,,,Space,keypress(Space),,,,silence,,,,---- ------ ------ ------- ------ --- ------- -----------<br>-- ----- --- ---- -- --- ------ ---- - ---- -- ----------<br>-- ------ ---- --- ---- --- --- and ----- -- -------- ---<br>------ ------- -------- --- ---- -- ------- ------------ --<br>------ -- ---- -- --- ---- -- -------- -- --- ------ ------,200983.70000004768,200980.5,200629.618,200641.80000007153,200646.338,200997.458,,27,and
screen,html.Screen,2_3_1_0_1_28,2022-04-25T14:02:37.364Z,,,,,,,,,,,,,,,,,12,,,,,,,,,,,,,,343.04199999998673,,response,,,,5,A,,,,,,Space,keypress(Space),,,,silence,,,,---- ------ ------ ------- ------ --- ------- -----------<br>-- ----- --- ---- -- --- ------ ---- - ---- -- ----------<br>-- ------ ---- --- ---- --- --- --- asked -- -------- ---<br>------ ------- -------- --- ---- -- ------- ------------ --<br>------ -- ---- -- --- ---- -- -------- -- --- ------ ------,201346.20000004768,201340.5,200980.738,200983.80000007153,200997.458,201348.578,,28,asked
screen,html.Screen,2_3_1_0_1_29,2022-04-25T14:02:37.722Z,,,,,,,,,,,,,,,,,12,,,,,,,,,,,,,,351.8220000953588,,response,,,,5,A,,,,,,Space,keypress(Space),,,,silence,,,,---- ------ ------ ------- ------ --- ------- -----------<br>-- ----- --- ---- -- --- ------ ---- - ---- -- ----------<br>-- ------ ---- --- ---- --- --- --- ----- to -------- ---<br>------ ------- -------- --- ---- -- ------- ------------ --<br>------ -- ---- -- --- ---- -- -------- -- --- ------ ------,201704,201700.40000009537,201331.858,201346.30000007153,201348.578,201716.418,,29,to
screen,html.Screen,2_3_1_0_1_30,2022-04-25T14:02:38.100Z,,,,,,,,,,,,,,,,,12,,,,,,,,,,,,,,360.18200002383674,,response,,,,5,A,,,,,,Space,keypress(Space),,,,silence,,,,---- ------ ------ ------- ------ --- ------- -----------<br>-- ----- --- ---- -- --- ------ ---- - ---- -- ----------<br>-- ------ ---- --- ---- --- --- --- ----- -- withdraw ---<br>------ ------- -------- --- ---- -- ------- ------------ --<br>------ -- ---- -- --- ---- -- -------- -- --- ------ ------,202082.40000009537,202076.60000002384,201699.698,201704.20000004768,201716.418,202084.258,,30,withdraw
screen,html.Screen,2_3_1_0_1_31,2022-04-25T14:02:38.481Z,,,,,,,,,,,,,,,,,12,,,,,,,,,,,,,,376.3420000238402,,response,,,,5,A,,,,,,Space,keypress(Space),,,,silence,,,,---- ------ ------ ------- ------ --- ------- -----------<br>-- ----- --- ---- -- --- ------ ---- - ---- -- ----------<br>-- ------ ---- --- ---- --- --- --- ----- -- -------- his<br>------ ------- -------- --- ---- -- ------- ------------ --<br>------ -- ---- -- --- ---- -- -------- -- --- ------ ------,202463.40000009537,202460.60000002384,202067.538,202082.5,202084.258,202468.818,,31,his
screen,html.Screen,2_3_1_0_1_32,2022-04-25T14:02:38.836Z,,,,,,,,,,,,,,,,,12,,,,,,,,,,,,,,343.78200002384256,,response,,,,5,A,,,,,,Space,keypress(Space),,,,silence,,,,---- ------ ------ ------- ------ --- ------- -----------<br>-- ----- --- ---- -- --- ------ ---- - ---- -- ----------<br>-- ------ ---- --- ---- --- --- --- ----- -- -------- ---<br>entire ------- -------- --- ---- -- ------- ------------ --<br>------ -- ---- -- --- ---- -- -------- -- --- ------ ------,202818.10000002384,202812.60000002384,202452.098,202463.60000002384,202468.818,202819.938,,32,entire
screen,html.Screen,2_3_1_0_1_33,2022-04-25T14:02:39.177Z,,,,,,,,,,,,,,,,,12,,,,,,,,,,,,,,336.6620000238472,,response,,,,5,A,,,,,,Space,keypress(Space),,,,silence,,,,---- ------ ------ ------- ------ --- ------- -----------<br>-- ----- --- ---- -- --- ------ ---- - ---- -- ----------<br>-- ------ ---- --- ---- --- --- --- ----- -- -------- ---<br>------ account -------- --- ---- -- ------- ------------ --<br>------ -- ---- -- --- ---- -- -------- -- --- ------ ------,203159.70000004768,203156.60000002384,202803.218,202818.20000004768,202819.938,203171.058,,33,account
screen,html.Screen,2_3_1_0_1_34,2022-04-25T14:02:39.516Z,,,,,,,,,,,,,,,,,12,,,,,,,,,,,,,,321.54200002385187,,response,,,,5,A,,,,,,Space,keypress(Space),,,,silence,,,,"---- ------ ------ ------- ------ --- ------- -----------<br>-- ----- --- ---- -- --- ------ ---- - ---- -- ----------<br>-- ------ ---- --- ---- --- --- --- ----- -- -------- ---<br>------ ------- balance, --- ---- -- ------- ------------ --<br>------ -- ---- -- --- ---- -- -------- -- --- ------ ------",203498.20000004768,203492.60000002384,203154.338,203159.80000007153,203171.058,203505.458,,34,"balance,"
screen,html.Screen,2_3_1_0_1_35,2022-04-25T14:02:39.849Z,,,,,,,,,,,,,,,,,12,,,,,,,,,,,,,,323.04199999998673,,response,,,,5,A,,,,,,Space,keypress(Space),,,,silence,,,,---- ------ ------ ------- ------ --- ------- -----------<br>-- ----- --- ---- -- --- ------ ---- - ---- -- ----------<br>-- ------ ---- --- ---- --- --- --- ----- -- -------- ---<br>------ ------- -------- but ---- -- ------- ------------ --<br>------ -- ---- -- --- ---- -- -------- -- --- ------ ------,203831.5,203828.5,203488.738,203498.30000007153,203505.458,203839.858,,35,but
screen,html.Screen,2_3_1_0_1_36,2022-04-25T14:02:40.180Z,,,,,,,,,,,,,,,,,12,,,,,,,,,,,,,,316.7420000238344,,response,,,,5,A,,,,,,Space,keypress(Space),,,,silence,,,,---- ------ ------ ------- ------ --- ------- -----------<br>-- ----- --- ---- -- --- ------ ---- - ---- -- ----------<br>-- ------ ---- --- ---- --- --- --- ----- -- -------- ---<br>------ ------- -------- --- with -- ------- ------------ --<br>------ -- ---- -- --- ---- -- -------- -- --- ------ ------,204162,204156.60000002384,203823.138,203831.70000004768,203839.858,204174.258,,36,with
screen,html.Screen,2_3_1_0_1_37,2022-04-25T14:02:40.521Z,,,,,,,,,,,,,,,,,12,,,,,,,,,,,,,,326.3420000238402,,response,,,,5,A,,,,,,Space,keypress(Space),,,,silence,,,,---- ------ ------ ------- ------ --- ------- -----------<br>-- ----- --- ---- -- --- ------ ---- - ---- -- ----------<br>-- ------ ---- --- ---- --- --- --- ----- -- -------- ---<br>------ ------- -------- --- ---- an ------- ------------ --<br>------ -- ---- -- --- ---- -- -------- -- --- ------ ------,204503.60000002384,204500.60000002384,204157.538,204162.10000002384,204174.258,204508.658,,37,an
screen,html.Screen,2_3_1_0_1_38,2022-04-25T14:02:40.856Z,,,,,,,,,,,,,,,,,12,,,,,,,,,,,,,,319.94200002384605,,response,,,,5,A,,,,,,Space,keypress(Space),,,,silence,,,,---- ------ ------ ------- ------ --- ------- -----------<br>-- ----- --- ---- -- --- ------ ---- - ---- -- ----------<br>-- ------ ---- --- ---- --- --- --- ----- -- -------- ---<br>------ ------- -------- --- ---- -- unusual ------------ --<br>------ -- ---- -- --- ---- -- -------- -- --- ------ ------,204838.40000009537,204828.60000002384,204491.938,204503.70000004768,204508.658,204843.058,,38,unusual
screen,html.Screen,2_3_1_0_1_39,2022-04-25T14:02:41.217Z,,,,,,,,,,,,,,,,,12,,,,,,,,,,,,,,353.54200002385187,,response,,,,5,A,,,,,,Space,keypress(Space),,,,silence,,,,---- ------ ------ ------- ------ --- ------- -----------<br>-- ----- --- ---- -- --- ------ ---- - ---- -- ----------<br>-- ------ ---- --- ---- --- --- --- ----- -- -------- ---<br>------ ------- -------- --- ---- -- ------- stipulation: --<br>------ -- ---- -- --- ---- -- -------- -- --- ------ ------,205199.70000004768,205196.60000002384,204826.338,204838.5,204843.058,205210.898,,39,stipulation:
screen,html.Screen,2_3_1_0_1_40,2022-04-25T14:02:41.591Z,,,,,,,,,,,,,,,,,12,,,,,,,,,,,,,,353.70200002385536,,response,,,,5,A,,,,,,Space,keypress(Space),,,,silence,,,,---- ------ ------ ------- ------ --- ------- -----------<br>-- ----- --- ---- -- --- ------ ---- - ---- -- ----------<br>-- ------ ---- --- ---- --- --- --- ----- -- -------- ---<br>------ ------- -------- --- ---- -- ------- ------------ He<br>------ -- ---- -- --- ---- -- -------- -- --- ------ ------,205573.20000004768,205564.60000002384,205194.178,205199.80000007153,205210.898,205578.738,,40,He
screen,html.Screen,2_3_1_0_1_41,2022-04-25T14:02:41.937Z,,,,,,,,,,,,,,,,,12,,,,,,,,,,,,,,337.6620000953553,,response,,,,5,A,,,,,,Space,keypress(Space),,,,silence,,,,---- ------ ------ ------- ------ --- ------- -----------<br>-- ----- --- ---- -- --- ------ ---- - ---- -- ----------<br>-- ------ ---- --- ---- --- --- --- ----- -- -------- ---<br>------ ------- -------- --- ---- -- ------- ------------ --<br>wanted -- ---- -- --- ---- -- -------- -- --- ------ ------,205919.30000007153,205916.40000009537,205562.018,205573.30000007153,205578.738,205929.858,,41,wanted
screen,html.Screen,2_3_1_0_1_42,2022-04-25T14:02:42.292Z,,,,,,,,,,,,,,,,,12,,,,,,,,,,,,,,338.7420000238344,,response,,,,5,A,,,,,,Space,keypress(Space),,,,silence,,,,---- ------ ------ ------- ------ --- ------- -----------<br>-- ----- --- ---- -- --- ------ ---- - ---- -- ----------<br>-- ------ ---- --- ---- --- --- --- ----- -- -------- ---<br>------ ------- -------- --- ---- -- ------- ------------ --<br>------ as ---- -- --- ---- -- -------- -- --- ------ ------,206274.20000004768,206268.60000002384,205913.138,205919.5,205929.858,206280.978,,42,as
