sender,sender_type,sender_id,timestamp,meta,,Blues,Classical,Country,Dance,Electronic,Folk,Gospel,Hip-Hop,Jazz,Latin,Musical/Film,New-age,Pop,Prolific_id,Provo_ID,R&B,Rap,Reggae,Religious,Rock,Soul,Swing,Traditional,age,artist_name,correct,correctResponse,distraction,duration,education,ended_on,familiarity,gender,headphone_check_performance,item,list,music_frequency,offensiveness,pleasantness,position_correct,preference,response,response_action,snippet_file,song_name,song_rating,sound,stimulus_1,stimulus_2,stimulus_3,text,time_commit,time_end,time_render,time_run,time_show,time_switch,url,word,word_ID
Prolific ID,html.Form,0,2022-05-03T11:56:12.206Z,"{""labjs_version"":""20.2.2"",""labjs_build"":{""flavor"":""production"",""commit"":""a25486e0c714a0ae2ce03ff94b7bb6896854dcfa""},""location"":""https://run.pavlovia.org/mvasilev/prolific3_music_h/"",""userAgent"":""Mozilla/5.0 (Windows NT 10.0; Win64; x64) AppleWebKit/537.36 (KHTML, like Gecko) Chrome/100.0.4896.127 Safari/537.36"",""platform"":""Win32"",""language"":""en-US"",""locale"":""en-GB"",""timeZone"":""Europe/London"",""timezoneOffset"":-60,""screen_width"":1536,""screen_height"":864,""scroll_width"":1536,""scroll_height"":674,""window_innerWidth"":1536,""window_innerHeight"":722,""devicePixelRatio"":1.25}",,,,,,,,,,,,,,,5e99c8efae829502a02f6fc8,,,,,,,,,,,,,,,4834.6679999642365,,form submission,,,,,,,,,,,,,,,,,,,,,39144.299999952316,39143.09999996424,34244.601,34251.299999952316,34308.432,39161.934,{},,
Introduction,html.Screen,1_0,2022-05-03T11:56:19.790Z,,,,,,,,,,,,,,,,,,,,,,,,,,,,,,,7563.965999976157,,response,,,,,,,,,,,continue,click button,,,,,,,,,46727.89999997616,46725.89999997616,39129.164,39144.799999952316,39161.934,46741.783,,,
Volume calibration,html.Screen,1_1,2022-05-03T11:57:01.116Z,,,,,,,,,,,,,,,,,,,,,,,,,,,,,,,41308.01699995231,,response,,,,,,,,,,,continue,click button,,,,,,,,,88054.19999998808,88049.79999995232,46724.773,46728,46741.783,88062.256,,,
Task instructions,html.Screen,1_2,2022-05-03T11:58:04.206Z,,,,,,,,,,,,,,,,,,,,,,,,,,,,,,,63079.443999988085,,response,,,,,,,,,,,continue,click button,,,,,,,,,151143.39999997616,151141.69999998808,88045.398,88054.29999995232,88062.256,151156.579,,,
Sounds,html.Screen,1_3_0_0,2022-05-03T11:58:08.460Z,,,,,,,,,,,,,,,,,,,,,,,,,,,,,,,4254.315999999992,,timeout,,,,,,,,,3,,,,,,,,I,O,S,,155397.19999998808,155394.27,151139.723,151143.59999996424,151156.579,155410.895,,,
Judgement,html.Screen,1_3_0_1,2022-05-03T11:58:10.674Z,,,,,,,,,,,,,,,,,,,,,,,,,,,,true,3,,2198.8049999880895,,response,,,,,,,,,3,,3,click #choice-3,,,,,I,O,S,,157611.59999996424,157609.69999998808,155394.27,155397.5,155410.895,157621.761,,,
Trial,flow.Sequence,1_3_0,2022-05-03T11:58:10.674Z,,,,,,,,,,,,,,,,,,,,,,,,,,,,,,,6453.120999988081,,completion,,,,,,,,,3,,,,,,,,I,O,S,,157611.89999997616,157609.69999998808,151139.723,151143.59999996424,151156.579,157621.761,,,
Sounds,html.Screen,1_3_1_0,2022-05-03T11:58:14.923Z,,,,,,,,,,,,,,,,,,,,,,,,,,,,,,,4254.872999999992,,timeout,,,,,,,,,2,,,,,,,,O,S,I,,161861.09999996424,161860.092,157604.867,157612.09999996424,157621.761,161876.634,,,
Judgement,html.Screen,1_3_1_1,2022-05-03T11:58:15.906Z,,,,,,,,,,,,,,,,,,,,,,,,,,,,true,2,,965.2659999761672,,response,,,,,,,,,2,,2,click #choice-2,,,,,O,S,I,,162843.39999997616,162841.89999997616,161860.092,161861.29999995232,161876.634,162857.32,,,
Trial,flow.Sequence,1_3_1,2022-05-03T11:58:15.906Z,,,,,,,,,,,,,,,,,,,,,,,,,,,,,,,5220.1389999761595,,completion,,,,,,,,,2,,,,,,,,O,S,I,,162843.69999998808,162841.89999997616,157604.867,157612,157621.761,162857.32,,,
Sounds,html.Screen,1_3_2_0,2022-05-03T11:58:20.159Z,,,,,,,,,,,,,,,,,,,,,,,,,,,,,,,4254.9649999999965,,timeout,,,,,,,,,1,,,,,,,,S,I,O,,167096.5,167095.598,162841.132,162843.89999997616,162857.32,167112.285,,,
Judgement,html.Screen,1_3_2_1,2022-05-03T11:58:21.998Z,,,,,,,,,,,,,,,,,,,,,,,,,,,,true,1,,1821.5149999523128,,response,,,,,,,,,1,,1,click #choice-1,,,,,S,I,O,,168935.59999996424,168933.79999995232,167095.598,167096.59999996424,167112.285,168941.225,,,
Trial,flow.Sequence,1_3_2,2022-05-03T11:58:21.998Z,,,,,,,,,,,,,,,,,,,,,,,,,,,,,,,6076.479999952309,,completion,,,,,,,,,1,,,,,,,,S,I,O,,168935.89999997616,168933.79999995232,162841.132,162843.89999997616,162857.32,168941.225,,,
Sounds,html.Screen,1_3_3_0,2022-05-03T11:58:26.247Z,,,,,,,,,,,,,,,,,,,,,,,,,,,,,,,4255.434999999998,,timeout,,,,,,,,,3,,,,,,,,O,I,S,,173184.5,173179.371,168924.308,168936,168941.225,173196.66,,,
Judgement,html.Screen,1_3_3_1,2022-05-03T11:58:27.013Z,,,,,,,,,,,,,,,,,,,,,,,,,,,,true,3,,752.7399999761546,,response,,,,,,,,,3,,3,click #choice-3,,,,,O,I,S,,173951.19999998808,173949.39999997616,173179.371,173184.69999998808,173196.66,173960.209,,,
Trial,flow.Sequence,1_3_3,2022-05-03T11:58:27.014Z,,,,,,,,,,,,,,,,,,,,,,,,,,,,,,,5008.174999976152,,completion,,,,,,,,,3,,,,,,,,O,I,S,,173951.39999997616,173949.39999997616,168924.308,168936,168941.225,173960.209,,,
Sounds,html.Screen,1_3_4_0,2022-05-03T11:58:31.265Z,,,,,,,,,,,,,,,,,,,,,,,,,,,,,,,4255.747999999992,,timeout,,,,,,,,,2,,,,,,,,I,S,O,,178202.29999995232,178199.584,173943.988,173951.59999996424,173960.209,178215.957,,,
Judgement,html.Screen,1_3_4_1,2022-05-03T11:58:31.823Z,,,,,,,,,,,,,,,,,,,,,,,,,,,,true,2,,542.8429999523214,,response,,,,,,,,,2,,2,click #choice-2,,,,,I,S,O,,178760.59999996424,178758.79999995232,178199.584,178202.5,178215.957,178763.81,,,
Trial,flow.Sequence,1_3_4,2022-05-03T11:58:31.823Z,,,,,,,,,,,,,,,,,,,,,,,,,,,,,,,4798.590999952314,,completion,,,,,,,,,2,,,,,,,,I,S,O,,178760.79999995232,178758.79999995232,173943.988,173951.5,173960.209,178763.81,,,
Sounds,html.Screen,1_3_5_0,2022-05-03T11:58:36.066Z,,,,,,,,,,,,,,,,,,,,,,,,,,,,,,,4255.100000000006,,timeout,,,,,,,,,1,,,,,,,,S,O,I,,183003.59999996424,183002.378,178747.328,178761,178763.81,183018.91,,,
Judgement,html.Screen,1_3_5_1,2022-05-03T11:58:36.746Z,,,,,,,,,,,,,,,,,,,,,,,,,,,,true,1,,662.6899999642337,,response,,,,,,,,,1,,1,click #choice-1,,,,,S,O,I,,183683.59999996424,183681.59999996424,183002.378,183003.79999995232,183018.91,183683.704,,,
Trial,flow.Sequence,1_3_5,2022-05-03T11:58:36.747Z,,,,,,,,,,,,,,,,,,,,,,,,,,,,,,,4917.7899999642395,,completion,,,,,,,,,1,,,,,,,,S,O,I,,183685.19999998808,183681.59999996424,178747.328,178760.89999997616,178763.81,183683.704,,,
Task,flow.Loop,1_3,2022-05-03T11:58:36.753Z,,,,,,,,,,,,,,,,,,,,,,,,,,,,,,,32525.02099996424,,completion,,,1,,,,,,,,,,,,,,,,,,183690.39999997616,183681.59999996424,151139.723,151143.5,151156.579,183683.704,,,
Trap,html.Screen,1_4,2022-05-03T11:58:36.754Z,,,,,,,,,,,,,,,,,,,,,,,,,,,,,,,NaN,,skipped,,,,,,,,,,,,,,,,,,,,,183692,183681.59999996424,,183691.69999998808,,183683.704,,,
Thanks,html.Screen,1_5,2022-05-03T11:58:41.802Z,,,,,,,,,,,,,,,,,,,,,,,,,,,,,,,5054.19599997616,,response,,,,,,,,,,,continue,click button,,,,,,,,,188739.5,188737.89999997616,183667.384,183692,183683.704,193108.722,,,
Headphone screening,flow.Sequence,1,2022-05-03T11:58:41.802Z,,,,,,,,,,,,,,,,,,,,,,,,,,,,,,,149575.96599997615,,completion,,,,,,,,,,,,,,,,,,,,,188739.69999998808,188737.89999997616,39129.164,39144.799999952316,39161.934,193108.722,,,
Instructions,html.Page,2_0,2022-05-03T11:59:14.639Z,,,,,,,,,,,,,,,,,,,,,,,,,,,,,,,28467.077999952307,,form submission,,,,,,,,,,,,,,,,,,,,,221576.39999997616,221575.79999995232,193042.89,193064,193108.722,221580.142,,,
Holding screen,html.Screen,2_1_0_0,2022-05-03T11:59:24.635Z,,,,,,,,,,,,,,,,,,,,,,,,,,,,,,,10022.714999999997,,timeout,,,,,,,,,,,,,,,,,,,,,231572.29999995232,231569.683,221563.881,221576.59999996424,221580.142,231602.857,,,
screen,html.Screen,2_1_0_1_0,2022-05-03T11:59:26.920Z,,,,,,,,,,,,,,,,,53,,,,,,,,,,,,,,2249.84299998809,,response,,,,99,,,,,,,Space,keypress(Space),,,,,,,,When -- ----- -- ------ - ------- --- ----------<br>------------- ------ ------ ---- ---- ------- ----- -- ----<br>-------- ------- -- ---------- --- - --- ----- ----- ----<br>---- --- --- ----- --- ---- ---- ------- ----- ---- -------<br>--- --- -- ----- -- --- ---- -- --- ---- -- ------ ------<br>--- ----- -- ----,233858,233852.69999998808,231569.683,231573.09999996424,231602.857,233863.216,,0,When
screen,html.Screen,2_1_0_1_1,2022-05-03T11:59:27.678Z,,,,,,,,,,,,,,,,,53,,,,,,,,,,,,,,750.1839999761723,,response,,,,99,,,,,,,Space,keypress(Space),,,,,,,,---- it ----- -- ------ - ------- --- ----------<br>------------- ------ ------ ---- ---- ------- ----- -- ----<br>-------- ------- -- ---------- --- - --- ----- ----- ----<br>---- --- --- ----- --- ---- ---- ------- ----- ---- -------<br>--- --- -- ----- -- --- ---- -- --- ---- -- ------ ------<br>--- ----- -- ----,234615.39999997616,234613.39999997616,233850.071,233858.19999998808,233863.216,234627.909,,1,it
screen,html.Screen,2_1_0_1_2,2022-05-03T11:59:28.189Z,,,,,,,,,,,,,,,,,53,,,,,,,,,,,,,,496.99099997614394,,response,,,,99,,,,,,,Space,keypress(Space),,,,,,,,---- -- comes -- ------ - ------- --- ----------<br>------------- ------ ------ ---- ---- ------- ----- -- ----<br>-------- ------- -- ---------- --- - --- ----- ----- ----<br>---- --- --- ----- --- ---- ---- ------- ----- ---- -------<br>--- --- -- ----- -- --- ---- -- --- ---- -- ------ ------<br>--- ----- -- ----,235126.89999997616,235124.89999997616,234613.212,234615.5,234627.909,235143.316,,2,comes
screen,html.Screen,2_1_0_1_3,2022-05-03T11:59:28.723Z,,,,,,,,,,,,,,,,,53,,,,,,,,,,,,,,514.7839999642456,,response,,,,99,,,,,,,Space,keypress(Space),,,,,,,,---- -- ----- to ------ - ------- --- ----------<br>------------- ------ ------ ---- ---- ------- ----- -- ----<br>-------- ------- -- ---------- --- - --- ----- ----- ----<br>---- --- --- ----- --- ---- ---- ------- ----- ---- -------<br>--- --- -- ----- -- --- ---- -- --- ---- -- ------ ------<br>--- ----- -- ----,235660.79999995232,235658.09999996424,235127.792,235127.19999998808,235143.316,235674.891,,3,to
screen,html.Screen,2_1_0_1_4,2022-05-03T11:59:29.304Z,,,,,,,,,,,,,,,,,53,,,,,,,,,,,,,,564.1089999999967,,response,,,,99,,,,,,,Space,keypress(Space),,,,,,,,---- -- ----- -- having - ------- --- ----------<br>------------- ------ ------ ---- ---- ------- ----- -- ----<br>-------- ------- -- ---------- --- - --- ----- ----- ----<br>---- --- --- ----- --- ---- ---- ------- ----- ---- -------<br>--- --- -- ----- -- --- ---- -- --- ---- -- ------ ------<br>--- ----- -- ----,236241.69999998808,236239,235659.805,235661.29999995232,235674.891,236256.97,,4,having
screen,html.Screen,2_1_0_1_5,2022-05-03T11:59:29.806Z,,,,,,,,,,,,,,,,,53,,,,,,,,,,,,,,484.929999976157,,response,,,,99,,,,,,,Space,keypress(Space),,,,,,,,---- -- ----- -- ------ a ------- --- ----------<br>------------- ------ ------ ---- ---- ------- ----- -- ----<br>-------- ------- -- ---------- --- - --- ----- ----- ----<br>---- --- --- ----- --- ---- ---- ------- ----- ---- -------<br>--- --- -- ----- -- --- ---- -- --- ---- -- ------ ------<br>--- ----- -- ----,236743.59999996424,236741.89999997616,236241.672,236242,236256.97,236755.572,,5,a
screen,html.Screen,2_1_0_1_6,2022-05-03T11:59:30.318Z,,,,,,,,,,,,,,,,,53,,,,,,,,,,,,,,498.42800000001444,,response,,,,99,,,,,,,Space,keypress(Space),,,,,,,,---- -- ----- -- ------ - lasting --- ----------<br>------------- ------ ------ ---- ---- ------- ----- -- ----<br>-------- ------- -- ---------- --- - --- ----- ----- ----<br>---- --- --- ----- --- ---- ---- ------- ----- ---- -------<br>--- --- -- ----- -- --- ---- -- --- ---- -- ------ ------<br>--- ----- -- ----,237256.19999998808,237254,236739.224,236743.89999997616,236755.572,237270.914,,6,lasting
screen,html.Screen,2_1_0_1_7,2022-05-03T11:59:30.729Z,,,,,,,,,,,,,,,,,53,,,,,,,,,,,,,,393.4859999761684,,response,,,,99,,,,,,,Space,keypress(Space),,,,,,,,---- -- ----- -- ------ - ------- and ----------<br>------------- ------ ------ ---- ---- ------- ----- -- ----<br>-------- ------- -- ---------- --- - --- ----- ----- ----<br>---- --- --- ----- --- ---- ---- ------- ----- ---- -------<br>--- --- -- ----- -- --- ---- -- --- ---- -- ------ ------<br>--- ----- -- ----,237666.29999995232,237664.39999997616,237255.29,237256.39999997616,237270.914,237669.522,,7,and
screen,html.Screen,2_1_0_1_8,2022-05-03T11:59:31.512Z,,,,,,,,,,,,,,,,,53,,,,,,,,,,,,,,778.4780000000028,,response,,,,99,,,,,,,Space,keypress(Space),,,,,,,,---- -- ----- -- ------ - ------- --- fulfilling<br>------------- ------ ------ ---- ---- ------- ----- -- ----<br>-------- ------- -- ---------- --- - --- ----- ----- ----<br>---- --- --- ----- --- ---- ---- ------- ----- ---- -------<br>--- --- -- ----- -- --- ---- -- --- ---- -- ------ ------<br>--- ----- -- ----,238450,238448,237653.792,237666.59999996424,237669.522,238467.519,,8,fulfilling
screen,html.Screen,2_1_0_1_9,2022-05-03T11:59:32.569Z,,,,,,,,,,,,,,,,,53,,,,,,,,,,,,,,1037.280999952316,,response,,,,99,,,,,,,Space,keypress(Space),,,,,,,,"---- -- ----- -- ------ - ------- --- ----------<br>relationship, ------ ------ ---- ---- ------- ----- -- ----<br>-------- ------- -- ---------- --- - --- ----- ----- ----<br>---- --- --- ----- --- ---- ---- ------- ----- ---- -------<br>--- --- -- ----- -- --- ---- -- --- ---- -- ------ ------<br>--- ----- -- ----",239506.79999995232,239504.79999995232,238436.24,238450.29999995232,238467.519,239514.573,,9,"relationship,"
screen,html.Screen,2_1_0_1_10,2022-05-03T11:59:33.410Z,,,,,,,,,,,,,,,,,53,,,,,,,,,,,,,,830.0269999642333,,response,,,,99,,,,,,,Space,keypress(Space),,,,,,,,---- -- ----- -- ------ - ------- --- ----------<br>------------- common ------ ---- ---- ------- ----- -- ----<br>-------- ------- -- ---------- --- - --- ----- ----- ----<br>---- --- --- ----- --- ---- ---- ------- ----- ---- -------<br>--- --- -- ----- -- --- ---- -- --- ---- -- ------ ------<br>--- ----- -- ----,240347.79999995232,240344.59999996424,239500.677,239507,239514.573,240362.395,,10,common
screen,html.Screen,2_1_0_1_11,2022-05-03T11:59:33.958Z,,,,,,,,,,,,,,,,,53,,,,,,,,,,,,,,530.8049999880895,,response,,,,99,,,,,,,Space,keypress(Space),,,,,,,,---- -- ----- -- ------ - ------- --- ----------<br>------------- ------ wisdom ---- ---- ------- ----- -- ----<br>-------- ------- -- ---------- --- - --- ----- ----- ----<br>---- --- --- ----- --- ---- ---- ------- ----- ---- -------<br>--- --- -- ----- -- --- ---- -- --- ---- -- ------ ------<br>--- ----- -- ----,240896,240893.19999998808,240347.731,240348,240362.395,240910.783,,11,wisdom
screen,html.Screen,2_1_0_1_12,2022-05-03T11:59:34.426Z,,,,,,,,,,,,,,,,,53,,,,,,,,,,,,,,451.11699997616233,,response,,,,99,,,,,,,Space,keypress(Space),,,,,,,,---- -- ----- -- ------ - ------- --- ----------<br>------------- ------ ------ says ---- ------- ----- -- ----<br>-------- ------- -- ---------- --- - --- ----- ----- ----<br>---- --- --- ----- --- ---- ---- ------- ----- ---- -------<br>--- --- -- ----- -- --- ---- -- --- ---- -- ------ ------<br>--- ----- -- ----,241363.59999996424,241361.89999997616,240895.341,240896.29999995232,240910.783,241376.351,,12,says
screen,html.Screen,2_1_0_1_13,2022-05-03T11:59:35.002Z,,,,,,,,,,,,,,,,,53,,,,,,,,,,,,,,562.048999976163,,response,,,,99,,,,,,,Space,keypress(Space),,,,,,,,---- -- ----- -- ------ - ------- --- ----------<br>------------- ------ ------ ---- that ------- ----- -- ----<br>-------- ------- -- ---------- --- - --- ----- ----- ----<br>---- --- --- ----- --- ---- ---- ------- ----- ---- -------<br>--- --- -- ----- -- --- ---- -- --- ---- -- ------ ------<br>--- ----- -- ----,241939.29999995232,241938.39999997616,241360.492,241363.89999997616,241376.351,241941.084,,13,that
screen,html.Screen,2_1_0_1_14,2022-05-03T11:59:35.710Z,,,,,,,,,,,,,,,,,53,,,,,,,,,,,,,,706.0159999642347,,response,,,,99,,,,,,,Space,keypress(Space),,,,,,,,---- -- ----- -- ------ - ------- --- ----------<br>------------- ------ ------ ---- ---- feeling ----- -- ----<br>-------- ------- -- ---------- --- - --- ----- ----- ----<br>---- --- --- ----- --- ---- ---- ------- ----- ---- -------<br>--- --- -- ----- -- --- ---- -- --- ---- -- ------ ------<br>--- ----- -- ----,242648.19999998808,242647.09999996424,241925.86,241939.29999995232,241941.084,242655.888,,14,feeling
screen,html.Screen,2_1_0_1_15,2022-05-03T11:59:36.238Z,,,,,,,,,,,,,,,,,53,,,,,,,,,,,,,,517.7119999642309,,response,,,,99,,,,,,,Space,keypress(Space),,,,,,,,---- -- ----- -- ------ - ------- --- ----------<br>------------- ------ ------ ---- ---- ------- close -- ----<br>-------- ------- -- ---------- --- - --- ----- ----- ----<br>---- --- --- ----- --- ---- ---- ------- ----- ---- -------<br>--- --- -- ----- -- --- ---- -- --- ---- -- ------ ------<br>--- ----- -- ----,243175.29999995232,243173.59999996424,242640.968,242648.39999997616,242655.888,243188.104,,15,close
screen,html.Screen,2_1_0_1_16,2022-05-03T11:59:36.680Z,,,,,,,,,,,,,,,,,53,,,,,,,,,,,,,,428.29599997616606,,response,,,,99,,,,,,,Space,keypress(Space),,,,,,,,---- -- ----- -- ------ - ------- --- ----------<br>------------- ------ ------ ---- ---- ------- ----- to ----<br>-------- ------- -- ---------- --- - --- ----- ----- ----<br>---- --- --- ----- --- ---- ---- ------- ----- ---- -------<br>--- --- -- ----- -- --- ---- -- --- ---- -- ------ ------<br>--- ----- -- ----,243618.19999998808,243616.39999997616,243172.4,243175.5,243188.104,243640.778,,16,to
screen,html.Screen,2_1_0_1_17,2022-05-03T11:59:37.291Z,,,,,,,,,,,,,,,,,53,,,,,,,,,,,,,,586.121999976167,,response,,,,99,,,,,,,Space,keypress(Space),,,,,,,,---- -- ----- -- ------ - ------- --- ----------<br>------------- ------ ------ ---- ---- ------- ----- -- your<br>-------- ------- -- ---------- --- - --- ----- ----- ----<br>---- --- --- ----- --- ---- ---- ------- ----- ---- -------<br>--- --- -- ----- -- --- ---- -- --- ---- -- ------ ------<br>--- ----- -- ----,244228.89999997616,244226.89999997616,243604.348,243618.5,243640.778,244235.082,,17,your
screen,html.Screen,2_1_0_1_18,2022-05-03T11:59:37.935Z,,,,,,,,,,,,,,,,,53,,,,,,,,,,,,,,636.4180000000051,,response,,,,99,,,,,,,Space,keypress(Space),,,,,,,,---- -- ----- -- ------ - ------- --- ----------<br>------------- ------ ------ ---- ---- ------- ----- -- ----<br>romantic ------- -- ---------- --- - --- ----- ----- ----<br>---- --- --- ----- --- ---- ---- ------- ----- ---- -------<br>--- --- -- ----- -- --- ---- -- --- ---- -- ------ ------<br>--- ----- -- ----,244873.19999998808,244871.5,244219.84,244229.09999996424,244235.082,244883.154,,18,romantic
screen,html.Screen,2_1_0_1_19,2022-05-03T11:59:38.483Z,,,,,,,,,,,,,,,,,53,,,,,,,,,,,,,,536.2459999761486,,response,,,,99,,,,,,,Space,keypress(Space),,,,,,,,---- -- ----- -- ------ - ------- --- ----------<br>------------- ------ ------ ---- ---- ------- ----- -- ----<br>-------- partner -- ---------- --- - --- ----- ----- ----<br>---- --- --- ----- --- ---- ---- ------- ----- ---- -------<br>--- --- -- ----- -- --- ---- -- --- ---- -- ------ ------<br>--- ----- -- ----,245420.5,245419.39999997616,244868.192,244873.39999997616,244883.154,245431.64,,19,partner
screen,html.Screen,2_1_0_1_20,2022-05-03T11:59:39.072Z,,,,,,,,,,,,,,,,,53,,,,,,,,,,,,,,576.359999999986,,response,,,,99,,,,,,,Space,keypress(Space),,,,,,,,---- -- ----- -- ------ - ------- --- ----------<br>------------- ------ ------ ---- ---- ------- ----- -- ----<br>-------- ------- is ---------- --- - --- ----- ----- ----<br>---- --- --- ----- --- ---- ---- ------- ----- ---- -------<br>--- --- -- ----- -- --- ---- -- --- ---- -- ------ ------<br>--- ----- -- ----,246010,246008,245416.471,245420.59999996424,245431.64,246013.347,,20,is
screen,html.Screen,2_1_0_1_21,2022-05-03T11:59:40.133Z,,,,,,,,,,,,,,,,,53,,,,,,,,,,,,,,1055.3529999880702,,response,,,,99,,,,,,,Space,keypress(Space),,,,,,,,---- -- ----- -- ------ - ------- --- ----------<br>------------- ------ ------ ---- ---- ------- ----- -- ----<br>-------- ------- -- paramount. --- - --- ----- ----- ----<br>---- --- --- ----- --- ---- ---- ------- ----- ---- -------<br>--- --- -- ----- -- --- ---- -- --- ---- -- ------ ------<br>--- ----- -- ----,247070.29999995232,247068.69999998808,245997.586,246010.29999995232,246013.347,247077.293,,21,paramount.
screen,html.Screen,2_1_0_1_22,2022-05-03T11:59:40.798Z,,,,,,,,,,,,,,,,,53,,,,,,,,,,,,,,656.5069999523112,,response,,,,99,,,,,,,Space,keypress(Space),,,,,,,,---- -- ----- -- ------ - ------- --- ----------<br>------------- ------ ------ ---- ---- ------- ----- -- ----<br>-------- ------- -- ---------- But - --- ----- ----- ----<br>---- --- --- ----- --- ---- ---- ------- ----- ---- -------<br>--- --- -- ----- -- --- ---- -- --- ---- -- ------ ------<br>--- ----- -- ----,247735.69999998808,247733.79999995232,247063.392,247070.59999996424,247077.293,247742.139,,22,But
screen,html.Screen,2_1_0_1_23,2022-05-03T11:59:41.311Z,,,,,,,,,,,,,,,,,53,,,,,,,,,,,,,,504.8610000000044,,response,,,,99,,,,,,,Space,keypress(Space),,,,,,,,---- -- ----- -- ------ - ------- --- ----------<br>------------- ------ ------ ---- ---- ------- ----- -- ----<br>-------- ------- -- ---------- --- a --- ----- ----- ----<br>---- --- --- ----- --- ---- ---- ------- ----- ---- -------<br>--- --- -- ----- -- --- ---- -- --- ---- -- ------ ------<br>--- ----- -- ----,248248.89999997616,248247,247727.211,247735.89999997616,247742.139,248257.253,,23,a
screen,html.Screen,2_1_0_1_24,2022-05-03T11:59:41.834Z,,,,,,,,,,,,,,,,,53,,,,,,,,,,,,,,512.5469999523193,,response,,,,99,,,,,,,Space,keypress(Space),,,,,,,,---- -- ----- -- ------ - ------- --- ----------<br>------------- ------ ------ ---- ---- ------- ----- -- ----<br>-------- ------- -- ---------- --- - new ----- ----- ----<br>---- --- --- ----- --- ---- ---- ------- ----- ---- -------<br>--- --- -- ----- -- --- ---- -- --- ---- -- ------ ------<br>--- ----- -- ----,248771.69999998808,248769.79999995232,248241.999,248249.19999998808,248257.253,248789.168,,24,new
screen,html.Screen,2_1_0_1_25,2022-05-03T11:59:42.259Z,,,,,,,,,,,,,,,,,53,,,,,,,,,,,,,,405.63199995231116,,response,,,,99,,,,,,,Space,keypress(Space),,,,,,,,---- -- ----- -- ------ - ------- --- ----------<br>------------- ------ ------ ---- ---- ------- ----- -- ----<br>-------- ------- -- ---------- --- - --- study ----- ----<br>---- --- --- ----- --- ---- ---- ------- ----- ---- -------<br>--- --- -- ----- -- --- ---- -- --- ---- -- ------ ------<br>--- ----- -- ----,249196.89999997616,249194.79999995232,248757.369,248771.89999997616,248789.168,249204.703,,25,study
screen,html.Screen,2_1_0_1_26,2022-05-03T11:59:42.586Z,,,,,,,,,,,,,,,,,53,,,,,,,,,,,,,,317.2969999999914,,response,,,,99,,,,,,,Space,keypress(Space),,,,,,,,---- -- ----- -- ------ - ------- --- ----------<br>------------- ------ ------ ---- ---- ------- ----- -- ----<br>-------- ------- -- ---------- --- - --- ----- finds ----<br>---- --- --- ----- --- ---- ---- ------- ----- ---- -------<br>--- --- -- ----- -- --- ---- -- --- ---- -- ------ ------<br>--- ----- -- ----,249524,249522,249189.258,249197.09999996424,249204.703,249537.315,,26,finds
screen,html.Screen,2_1_0_1_27,2022-05-03T11:59:43.084Z,,,,,,,,,,,,,,,,,53,,,,,,,,,,,,,,482.7849999642349,,response,,,,99,,,,,,,Space,keypress(Space),,,,,,,,---- -- ----- -- ------ - ------- --- ----------<br>------------- ------ ------ ---- ---- ------- ----- -- ----<br>-------- ------- -- ---------- --- - --- ----- ----- that<br>---- --- --- ----- --- ---- ---- ------- ----- ---- -------<br>--- --- -- ----- -- --- ---- -- --- ---- -- ------ ------<br>--- ----- -- ----,250021.79999995232,250020.09999996424,249521.376,249524.09999996424,249537.315,250035.877,,27,that
screen,html.Screen,2_1_0_1_28,2022-05-03T11:59:43.682Z,,,,,,,,,,,,,,,,,53,,,,,,,,,,,,,,582.4229999523086,,response,,,,99,,,,,,,Space,keypress(Space),,,,,,,,---- -- ----- -- ------ - ------- --- ----------<br>------------- ------ ------ ---- ---- ------- ----- -- ----<br>-------- ------- -- ---------- --- - --- ----- ----- ----<br>it's --- --- ----- --- ---- ---- ------- ----- ---- -------<br>--- --- -- ----- -- --- ---- -- --- ---- -- ------ ------<br>--- ----- -- ----,250619.5,250618.29999995232,250020.511,250022,250035.877,250634.33,,28,it's
screen,html.Screen,2_1_0_1_29,2022-05-03T11:59:44.211Z,,,,,,,,,,,,,,,,,53,,,,,,,,,,,,,,512.9699999523291,,response,,,,99,,,,,,,Space,keypress(Space),,,,,,,,---- -- ----- -- ------ - ------- --- ----------<br>------------- ------ ------ ---- ---- ------- ----- -- ----<br>-------- ------- -- ---------- --- - --- ----- ----- ----<br>---- not --- ----- --- ---- ---- ------- ----- ---- -------<br>--- --- -- ----- -- --- ---- -- --- ---- -- ------ ------<br>--- ----- -- ----,251149.19999998808,251147.29999995232,250619.179,250619.69999998808,250634.33,251166.155,,29,not
screen,html.Screen,2_1_0_1_30,2022-05-03T11:59:44.725Z,,,,,,,,,,,,,,,,,53,,,,,,,,,,,,,,495.2449999761593,,response,,,,99,,,,,,,Space,keypress(Space),,,,,,,,---- -- ----- -- ------ - ------- --- ----------<br>------------- ------ ------ ---- ---- ------- ----- -- ----<br>-------- ------- -- ---------- --- - --- ----- ----- ----<br>---- --- how ----- --- ---- ---- ------- ----- ---- -------<br>--- --- -- ----- -- --- ---- -- --- ---- -- ------ ------<br>--- ----- -- ----,251663.19999998808,251661.39999997616,251134.159,251149.5,251166.155,251681.396,,30,how
screen,html.Screen,2_1_0_1_31,2022-05-03T11:59:45.190Z,,,,,,,,,,,,,,,,,53,,,,,,,,,,,,,,444.80399998807115,,response,,,,99,,,,,,,Space,keypress(Space),,,,,,,,---- -- ----- -- ------ - ------- --- ----------<br>------------- ------ ------ ---- ---- ------- ----- -- ----<br>-------- ------- -- ---------- --- - --- ----- ----- ----<br>---- --- --- close --- ---- ---- ------- ----- ---- -------<br>--- --- -- ----- -- --- ---- -- --- ---- -- ------ ------<br>--- ----- -- ----,252128.09999996424,252126.19999998808,251649.409,251663.39999997616,251681.396,252151.837,,31,close
screen,html.Screen,2_1_0_1_32,2022-05-03T11:59:45.495Z,,,,,,,,,,,,,,,,,53,,,,,,,,,,,,,,279.16300000000047,,response,,,,99,,,,,,,Space,keypress(Space),,,,,,,,---- -- ----- -- ------ - ------- --- ----------<br>------------- ------ ------ ---- ---- ------- ----- -- ----<br>-------- ------- -- ---------- --- - --- ----- ----- ----<br>---- --- --- ----- you ---- ---- ------- ----- ---- -------<br>--- --- -- ----- -- --- ---- -- --- ---- -- ------ ------<br>--- ----- -- ----,252433,252431,252114.47,252128.39999997616,252151.837,252445.979,,32,you
screen,html.Screen,2_1_0_1_33,2022-05-03T11:59:45.777Z,,,,,,,,,,,,,,,,,53,,,,,,,,,,,,,,267.62099996424513,,response,,,,99,,,,,,,Space,keypress(Space),,,,,,,,---- -- ----- -- ------ - ------- --- ----------<br>------------- ------ ------ ---- ---- ------- ----- -- ----<br>-------- ------- -- ---------- --- - --- ----- ----- ----<br>---- --- --- ----- --- feel ---- ------- ----- ---- -------<br>--- --- -- ----- -- --- ---- -- --- ---- -- ------ ------<br>--- ----- -- ----,252715.19999998808,252713.59999996424,252429.952,252433.19999998808,252445.979,252728.635,,33,feel
screen,html.Screen,2_1_0_1_34,2022-05-03T11:59:46.077Z,,,,,,,,,,,,,,,,,53,,,,,,,,,,,,,,284.06499998806976,,response,,,,99,,,,,,,Space,keypress(Space),,,,,,,,---- -- ----- -- ------ - ------- --- ----------<br>------------- ------ ------ ---- ---- ------- ----- -- ----<br>-------- ------- -- ---------- --- - --- ----- ----- ----<br>---- --- --- ----- --- ---- that ------- ----- ---- -------<br>--- --- -- ----- -- --- ---- -- --- ---- -- ------ ------<br>--- ----- -- ----,253014.39999997616,253012.69999998808,252712.372,252715.5,252728.635,253027.737,,34,that
screen,html.Screen,2_1_0_1_35,2022-05-03T11:59:46.666Z,,,,,,,,,,,,,,,,,53,,,,,,,,,,,,,,574.4629999880854,,response,,,,99,,,,,,,Space,keypress(Space),,,,,,,,---- -- ----- -- ------ - ------- --- ----------<br>------------- ------ ------ ---- ---- ------- ----- -- ----<br>-------- ------- -- ---------- --- - --- ----- ----- ----<br>---- --- --- ----- --- ---- ---- matters ----- ---- -------<br>--- --- -- ----- -- --- ---- -- --- ---- -- ------ ------<br>--- ----- -- ----,253603.79999995232,253602.19999998808,253011.589,253014.59999996424,253027.737,253609.389,,35,matters
screen,html.Screen,2_1_0_1_36,2022-05-03T11:59:46.984Z,,,,,,,,,,,,,,,,,53,,,,,,,,,,,,,,310.51099997616257,,response,,,,99,,,,,,,Space,keypress(Space),,,,,,,,"---- -- ----- -- ------ - ------- --- ----------<br>------------- ------ ------ ---- ---- ------- ----- -- ----<br>-------- ------- -- ---------- --- - --- ----- ----- ----<br>---- --- --- ----- --- ---- ---- ------- most, ---- -------<br>--- --- -- ----- -- --- ---- -- --- ---- -- ------ ------<br>--- ----- -- ----",253921.89999997616,253919.89999997616,253594.239,253604,253609.389,253925.065,,36,"most,"
screen,html.Screen,2_1_0_1_37,2022-05-03T11:59:47.574Z,,,,,,,,,,,,,,,,,53,,,,,,,,,,,,,,584.734999952314,,response,,,,99,,,,,,,Space,keypress(Space),,,,,,,,---- -- ----- -- ------ - ------- --- ----------<br>------------- ------ ------ ---- ---- ------- ----- -- ----<br>-------- ------- -- ---------- --- - --- ----- ----- ----<br>---- --- --- ----- --- ---- ---- ------- ----- it's -------<br>--- --- -- ----- -- --- ---- -- --- ---- -- ------ ------<br>--- ----- -- ----,254511.5,254509.79999995232,253909.397,253922.09999996424,253925.065,254523.603,,37,it's
screen,html.Screen,2_1_0_1_38,2022-05-03T11:59:48.083Z,,,,,,,,,,,,,,,,,53,,,,,,,,,,,,,,495.4969999642344,,response,,,,99,,,,,,,Space,keypress(Space),,,,,,,,---- -- ----- -- ------ - ------- --- ----------<br>------------- ------ ------ ---- ---- ------- ----- -- ----<br>-------- ------- -- ---------- --- - --- ----- ----- ----<br>---- --- --- ----- --- ---- ---- ------- ----- ---- whether<br>--- --- -- ----- -- --- ---- -- --- ---- -- ------ ------<br>--- ----- -- ----,255021,255019.09999996424,254508.295,254511.69999998808,254523.603,255038.907,,38,whether
screen,html.Screen,2_1_0_1_39,2022-05-03T11:59:48.571Z,,,,,,,,,,,,,,,,,53,,,,,,,,,,,,,,468.39299995230976,,response,,,,99,,,,,,,Space,keypress(Space),,,,,,,,---- -- ----- -- ------ - ------- --- ----------<br>------------- ------ ------ ---- ---- ------- ----- -- ----<br>-------- ------- -- ---------- --- - --- ----- ----- ----<br>---- --- --- ----- --- ---- ---- ------- ----- ---- -------<br>you --- -- ----- -- --- ---- -- --- ---- -- ------ ------<br>--- ----- -- ----,255508.5,255507.29999995232,255006.882,255021.19999998808,255038.907,255520.781,,39,you
screen,html.Screen,2_1_0_1_40,2022-05-03T11:59:48.978Z,,,,,,,,,,,,,,,,,53,,,,,,,,,,,,,,393.61899997617,,response,,,,99,,,,,,,Space,keypress(Space),,,,,,,,---- -- ----- -- ------ - ------- --- ----------<br>------------- ------ ------ ---- ---- ------- ----- -- ----<br>-------- ------- -- ---------- --- - --- ----- ----- ----<br>---- --- --- ----- --- ---- ---- ------- ----- ---- -------<br>--- are -- ----- -- --- ---- -- --- ---- -- ------ ------<br>--- ----- -- ----,255916.09999996424,255914.39999997616,255505.28,255508.69999998808,255520.781,255919.663,,40,are
screen,html.Screen,2_1_0_1_41,2022-05-03T11:59:49.380Z,,,,,,,,,,,,,,,,,53,,,,,,,,,,,,,,395.93699996423675,,response,,,,99,,,,,,,Space,keypress(Space),,,,,,,,---- -- ----- -- ------ - ------- --- ----------<br>------------- ------ ------ ---- ---- ------- ----- -- ----<br>-------- ------- -- ---------- --- - --- ----- ----- ----<br>---- --- --- ----- --- ---- ---- ------- ----- ---- -------<br>--- --- as ----- -- --- ---- -- --- ---- -- ------ ------<br>--- ----- -- ----,256317.39999997616,256315.59999996424,255904.113,255916.29999995232,255919.663,256335.474,,41,as
screen,html.Screen,2_1_0_1_42,2022-05-03T11:59:49.813Z,,,,,,,,,,,,,,,,,53,,,,,,,,,,,,,,413.6259999642498,,response,,,,99,,,,,,,Space,keypress(Space),,,,,,,,---- -- ----- -- ------ - ------- --- ----------<br>------------- ------ ------ ---- ---- ------- ----- -- ----<br>-------- ------- -- ---------- --- - --- ----- ----- ----<br>---- --- --- ----- --- ---- ---- ------- ----- ---- -------<br>--- --- -- close -- --- ---- -- --- ---- -- ------ ------<br>--- ----- -- ----,256750.89999997616,256749.09999996424,256303.076,256317.59999996424,256335.474,256767.645,,42,close
screen,html.Screen,2_1_0_1_43,2022-05-03T11:59:50.286Z,,,,,,,,,,,,,,,,,53,,,,,,,,,,,,,,454.05499998808955,,response,,,,99,,,,,,,Space,keypress(Space),,,,,,,,---- -- ----- -- ------ - ------- --- ----------<br>------------- ------ ------ ---- ---- ------- ----- -- ----<br>-------- ------- -- ---------- --- - --- ----- ----- ----<br>---- --- --- ----- --- ---- ---- ------- ----- ---- -------<br>--- --- -- ----- as --- ---- -- --- ---- -- ------ ------<br>--- ----- -- ----,257223.59999996424,257221.69999998808,256751.868,256751.09999996424,256767.645,257232.676,,43,as
screen,html.Screen,2_1_0_1_44,2022-05-03T11:59:50.694Z,,,,,,,,,,,,,,,,,53,,,,,,,,,,,,,,397.2239999761514,,response,,,,99,,,,,,,Space,keypress(Space),,,,,,,,---- -- ----- -- ------ - ------- --- ----------<br>------------- ------ ------ ---- ---- ------- ----- -- ----<br>-------- ------- -- ---------- --- - --- ----- ----- ----<br>---- --- --- ----- --- ---- ---- ------- ----- ---- -------<br>--- --- -- ----- -- you ---- -- --- ---- -- ------ ------<br>--- ----- -- ----,257631.89999997616,257629.89999997616,257217.267,257223.69999998808,257232.676,257648.587,,44,you
screen,html.Screen,2_1_0_1_45,2022-05-03T11:59:51.198Z,,,,,,,,,,,,,,,,,53,,,,,,,,,,,,,,485.41300000000047,,response,,,,99,,,,,,,Space,keypress(Space),,,,,,,,---- -- ----- -- ------ - ------- --- ----------<br>------------- ------ ------ ---- ---- ------- ----- -- ----<br>-------- ------- -- ---------- --- - --- ----- ----- ----<br>---- --- --- ----- --- ---- ---- ------- ----- ---- -------<br>--- --- -- ----- -- --- want -- --- ---- -- ------ ------<br>--- ----- -- ----,258135.79999995232,258134,257632.739,257632.09999996424,257648.587,258146.927,,45,want
screen,html.Screen,2_1_0_1_46,2022-05-03T11:59:51.669Z,,,,,,,,,,,,,,,,,53,,,,,,,,,,,,,,458.07300000000396,,response,,,,99,,,,,,,Space,keypress(Space),,,,,,,,---- -- ----- -- ------ - ------- --- ----------<br>------------- ------ ------ ---- ---- ------- ----- -- ----<br>-------- ------- -- ---------- --- - --- ----- ----- ----<br>---- --- --- ----- --- ---- ---- ------- ----- ---- -------<br>--- --- -- ----- -- --- ---- to --- ---- -- ------ ------<br>--- ----- -- ----,258606.59999996424,258605,258131.733,258136,258146.927,258612.246,,46,to
screen,html.Screen,2_1_0_1_47,2022-05-03T11:59:52.253Z,,,,,,,,,,,,,,,,,53,,,,,,,,,,,,,,576.4539999880653,,response,,,,99,,,,,,,Space,keypress(Space),,,,,,,,"---- -- ----- -- ------ - ------- --- ----------<br>------------- ------ ------ ---- ---- ------- ----- -- ----<br>-------- ------- -- ---------- --- - --- ----- ----- ----<br>---- --- --- ----- --- ---- ---- ------- ----- ---- -------<br>--- --- -- ----- -- --- ---- -- be, ---- -- ------ ------<br>--- ----- -- ----",259190.59999996424,259188.69999998808,258596.83,258606.89999997616,258612.246,259193.999,,47,"be,"
screen,html.Screen,2_1_0_1_48,2022-05-03T11:59:53.090Z,,,,,,,,,,,,,,,,,53,,,,,,,,,,,,,,830.8009999523056,,response,,,,99,,,,,,,Space,keypress(Space),,,,,,,,---- -- ----- -- ------ - ------- --- ----------<br>------------- ------ ------ ---- ---- ------- ----- -- ----<br>-------- ------- -- ---------- --- - --- ----- ----- ----<br>---- --- --- ----- --- ---- ---- ------- ----- ---- -------<br>--- --- -- ----- -- --- ---- -- --- even -- ------ ------<br>--- ----- -- ----,260027.29999995232,260024.79999995232,259178.789,259190.79999995232,259193.999,260041.975,,48,even
screen,html.Screen,2_1_0_1_49,2022-05-03T11:59:53.577Z,,,,,,,,,,,,,,,,,53,,,,,,,,,,,,,,471.32499995231046,,response,,,,99,,,,,,,Space,keypress(Space),,,,,,,,---- -- ----- -- ------ - ------- --- ----------<br>------------- ------ ------ ---- ---- ------- ----- -- ----<br>-------- ------- -- ---------- --- - --- ----- ----- ----<br>---- --- --- ----- --- ---- ---- ------- ----- ---- -------<br>--- --- -- ----- -- --- ---- -- --- ---- if ------ ------<br>--- ----- -- ----,260515.19999998808,260513.29999995232,260027.447,260027.5,260041.975,260523.867,,49,if
screen,html.Screen,2_1_0_1_50,2022-05-03T11:59:54.001Z,,,,,,,,,,,,,,,,,53,,,,,,,,,,,,,,412.8329999880807,,response,,,,99,,,,,,,Space,keypress(Space),,,,,,,,---- -- ----- -- ------ - ------- --- ----------<br>------------- ------ ------ ---- ---- ------- ----- -- ----<br>-------- ------- -- ---------- --- - --- ----- ----- ----<br>---- --- --- ----- --- ---- ---- ------- ----- ---- -------<br>--- --- -- ----- -- --- ---- -- --- ---- -- that's ------<br>--- ----- -- ----,260938.5,260936.69999998808,260508.384,260515.39999997616,260523.867,260972.818,,50,that's
screen,html.Screen,2_1_0_1_51,2022-05-03T11:59:54.559Z,,,,,,,,,,,,,,,,,53,,,,,,,,,,,,,,521.5819999761588,,response,,,,99,,,,,,,Space,keypress(Space),,,,,,,,---- -- ----- -- ------ - ------- --- ----------<br>------------- ------ ------ ---- ---- ------- ----- -- ----<br>-------- ------- -- ---------- --- - --- ----- ----- ----<br>---- --- --- ----- --- ---- ---- ------- ----- ---- -------<br>--- --- -- ----- -- --- ---- -- --- ---- -- ------ really<br>--- ----- -- ----,261496.19999998808,261494.39999997616,260955.984,260938.79999995232,260972.818,261504.44,,51,really
screen,html.Screen,2_1_0_1_52,2022-05-03T11:59:55.036Z,,,,,,,,,,,,,,,,,53,,,,,,,,,,,,,,467.4599999761558,,response,,,,99,,,,,,,Space,keypress(Space),,,,,,,,---- -- ----- -- ------ - ------- --- ----------<br>------------- ------ ------ ---- ---- ------- ----- -- ----<br>-------- ------- -- ---------- --- - --- ----- ----- ----<br>---- --- --- ----- --- ---- ---- ------- ----- ---- -------<br>--- --- -- ----- -- --- ---- -- --- ---- -- ------ ------<br>not ----- -- ----,261973.5,261971.89999997616,261489.106,261496.39999997616,261504.44,261986.718,,52,not
screen,html.Screen,2_1_0_1_53,2022-05-03T11:59:55.511Z,,,,,,,,,,,,,,,,,53,,,,,,,,,,,,,,459.7820000000065,,response,,,,99,,,,,,,Space,keypress(Space),,,,,,,,---- -- ----- -- ------ - ------- --- ----------<br>------------- ------ ------ ---- ---- ------- ----- -- ----<br>-------- ------- -- ---------- --- - --- ----- ----- ----<br>---- --- --- ----- --- ---- ---- ------- ----- ---- -------<br>--- --- -- ----- -- --- ---- -- --- ---- -- ------ ------<br>--- close -- ----,262448.2999999523,262446.5,261971.097,261973.79999995232,261986.718,262451.843,,53,close
screen,html.Screen,2_1_0_1_54,2022-05-03T11:59:56.015Z,,,,,,,,,,,,,,,,,53,,,,,,,,,,,,,,498.75699996424373,,response,,,,99,,,,,,,Space,keypress(Space),,,,,,,,---- -- ----- -- ------ - ------- --- ----------<br>------------- ------ ------ ---- ---- ------- ----- -- ----<br>-------- ------- -- ---------- --- - --- ----- ----- ----<br>---- --- --- ----- --- ---- ---- ------- ----- ---- -------<br>--- --- -- ----- -- --- ---- -- --- ---- -- ------ ------<br>--- ----- at ----,262953.09999996424,262950.59999996424,262436.479,262448.5,262451.843,262967.371,,54,at
screen,html.Screen,2_1_0_1_55,2022-05-03T11:59:57.328Z,,,,,,,,,,,,,,,,,53,,,,,,,,,,,,,,1296.1290000000154,,response,,,,99,,,,,,,Space,keypress(Space),,,,,,,,---- -- ----- -- ------ - ------- --- ----------<br>------------- ------ ------ ---- ---- ------- ----- -- ----<br>-------- ------- -- ---------- --- - --- ----- ----- ----<br>---- --- --- ----- --- ---- ---- ------- ----- ---- -------<br>--- --- -- ----- -- --- ---- -- --- ---- -- ------ ------<br>--- ----- -- all.,264265.5,264263.5,262951.833,262953.2999999523,262967.371,264280.172,,55,all.
Item 99,flow.Loop,2_1_0_1,2022-05-03T11:59:57.328Z,,,,,,,,,,,,,,,,,,,,,,,,,,,,,,,32660.64300000001,,completion,,,,,H,,,,,,,,,,,silence,,,,,264265.89999997616,264263.5,231569.683,231572.59999996424,231602.857,264280.172,,,
Question 1,html.Screen,2_1_0_2,2022-05-03T12:00:03.002Z,,,,,,,,,,,,,,,,,,,,,,,,,,,,true,FALSE,,5657.427999964217,,response,,,,99,H,,,,,,FALSE,click #choice-2,,,,silence,,,,,269939.2999999523,269937.59999996424,264266.974,264266.1999999881,264280.172,269948.56,,,
Question 2,html.Screen,2_1_0_3,2022-05-03T12:00:11.278Z,,,,,,,,,,,,,,,,,,,,,,,,,,,,false,TRUE,,8265.139999988081,,response,,,,99,H,,,,,,FALSE,click #choice-2,,,,silence,,,,,278215.39999997616,278213.6999999881,269931.74,269939.59999996424,269948.56,278225.587,,,
Item 99,flow.Sequence,2_1_0,2022-05-03T12:00:11.278Z,,,,,,,,,,,,,,,,,,,,,,,,,,,,,,,56633.55799998809,,completion,,,,,,,,,,,,,,,,,,,,,278215.59999996424,278213.6999999881,221563.881,221576.59999996424,221580.142,278225.587,,,
Holding screen,html.Screen,2_1_1_0,2022-05-03T12:00:21.278Z,,,,,,,,,,,,,,,,,,,,,,,,,,,,,,,10005.869999999995,,timeout,,,,,,,,,,,,,,,,,,,,,288216.09999996424,288214.824,278208.953,278215.6999999881,278225.587,288231.457,,,
screen,html.Screen,2_1_1_1_0,2022-05-03T12:00:21.285Z,,,,,,,,,,,,,,,,,54,,,,,,,,,,,,,,4.975999952293932,,response,,,,100,,,,,,,Space,keypress(Space),,,,,,,,At --- ---- --- ------ ----- ------- ---- -- --- ------- --<br>------- ---------- ------ -- ----- -- ----- -- ---- ------<br>--- ----- --- --- ------ -------- ----- --- ------ ----- --<br>----- ----- ---------- --- --- ------ ------ ---- -- ------<br>------- --- ------ ----- --- ---- ------- -- ---- --- --<br>------- ------,288223,288219.7999999523,288214.824,288216.39999997616,,288248.234,,0,At
screen,html.Screen,2_1_1_1_1,2022-05-03T12:00:22.768Z,,,,,,,,,,,,,,,,,54,,,,,,,,,,,,,,1455.7660000000033,,response,,,,100,,,,,,,Space,keypress(Space),,,,,,,,-- the ---- --- ------ ----- ------- ---- -- --- ------- --<br>------- ---------- ------ -- ----- -- ----- -- ---- ------<br>--- ----- --- --- ------ -------- ----- --- ------ ----- --<br>----- ----- ---------- --- --- ------ ------ ---- -- ------<br>------- --- ------ ----- --- ---- ------- -- ---- --- --<br>------- ------,289706,289704,288231.457,288226.6999999881,288248.234,289710.667,,1,the
screen,html.Screen,2_1_1_1_2,2022-05-03T12:00:23.250Z,,,,,,,,,,,,,,,,,54,,,,,,,,,,,,,,476.13299995230045,,response,,,,100,,,,,,,Space,keypress(Space),,,,,,,,-- --- time --- ------ ----- ------- ---- -- --- ------- --<br>------- ---------- ------ -- ----- -- ----- -- ---- ------<br>--- ----- --- --- ------ -------- ----- --- ------ ----- --<br>----- ----- ---------- --- --- ------ ------ ---- -- ------<br>------- --- ------ ----- --- ---- ------- -- ---- --- --<br>------- ------,290188.39999997616,290186.7999999523,289697.977,289706.1999999881,289710.667,290192.694,,2,time
screen,html.Screen,2_1_1_1_3,2022-05-03T12:00:23.594Z,,,,,,,,,,,,,,,,,54,,,,,,,,,,,,,,337.1059999522986,,response,,,,100,,,,,,,Space,keypress(Space),,,,,,,,-- --- ---- the ------ ----- ------- ---- -- --- ------- --<br>------- ---------- ------ -- ----- -- ----- -- ---- ------<br>--- ----- --- --- ------ -------- ----- --- ------ ----- --<br>----- ----- ---------- --- --- ------ ------ ---- -- ------<br>------- --- ------ ----- --- ---- ------- -- ---- --- --<br>------- ------,290531.7999999523,290529.7999999523,290177.206,290188.7999999523,290192.694,290541.725,,3,the
screen,html.Screen,2_1_1_1_4,2022-05-03T12:00:23.824Z,,,,,,,,,,,,,,,,,54,,,,,,,,,,,,,,218.57499995233957,,response,,,,100,,,,,,,Space,keypress(Space),,,,,,,,-- --- ---- --- French ----- ------- ---- -- --- ------- --<br>------- ---------- ------ -- ----- -- ----- -- ---- ------<br>--- ----- --- --- ------ -------- ----- --- ------ ----- --<br>----- ----- ---------- --- --- ------ ------ ---- -- ------<br>------- --- ------ ----- --- ---- ------- -- ---- --- --<br>------- ------,290762.09999996424,290760.2999999523,290526.164,290531.89999997616,290541.725,290774.678,,4,French
screen,html.Screen,2_1_1_1_5,2022-05-03T12:00:24.277Z,,,,,,,,,,,,,,,,,54,,,,,,,,,,,,,,439.12199995230185,,response,,,,100,,,,,,,Space,keypress(Space),,,,,,,,-- --- ---- --- ------ crown ------- ---- -- --- ------- --<br>------- ---------- ------ -- ----- -- ----- -- ---- ------<br>--- ----- --- --- ------ -------- ----- --- ------ ----- --<br>----- ----- ---------- --- --- ------ ------ ---- -- ------<br>------- --- ------ ----- --- ---- ------- -- ---- --- --<br>------- ------,291215.59999996424,291213.7999999523,290758.436,290762.2999999523,290774.678,291223.239,,5,crown
screen,html.Screen,2_1_1_1_6,2022-05-03T12:00:24.666Z,,,,,,,,,,,,,,,,,54,,,,,,,,,,,,,,379.5609999523149,,response,,,,100,,,,,,,Space,keypress(Space),,,,,,,,-- --- ---- --- ------ ----- secured ---- -- --- ------- --<br>------- ---------- ------ -- ----- -- ----- -- ---- ------<br>--- ----- --- --- ------ -------- ----- --- ------ ----- --<br>----- ----- ---------- --- --- ------ ------ ---- -- ------<br>------- --- ------ ----- --- ---- ------- -- ---- --- --<br>------- ------,291604.59999996424,291602.7999999523,291207.732,291215.7999999523,291223.239,291622.193,,6,secured
screen,html.Screen,2_1_1_1_7,2022-05-03T12:00:25.008Z,,,,,,,,,,,,,,,,,54,,,,,,,,,,,,,,322.4069999642088,,response,,,,100,,,,,,,Space,keypress(Space),,,,,,,,-- --- ---- --- ------ ----- ------- much -- --- ------- --<br>------- ---------- ------ -- ----- -- ----- -- ---- ------<br>--- ----- --- --- ------ -------- ----- --- ------ ----- --<br>----- ----- ---------- --- --- ------ ------ ---- -- ------<br>------- --- ------ ----- --- ---- ------- -- ---- --- --<br>------- ------,291946.2999999523,291944.59999996424,291589.951,291604.89999997616,291622.193,291954.599,,7,much
screen,html.Screen,2_1_1_1_8,2022-05-03T12:00:25.344Z,,,,,,,,,,,,,,,,,54,,,,,,,,,,,,,,326.20099995232886,,response,,,,100,,,,,,,Space,keypress(Space),,,,,,,,-- --- ---- --- ------ ----- ------- ---- of --- ------- --<br>------- ---------- ------ -- ----- -- ----- -- ---- ------<br>--- ----- --- --- ------ -------- ----- --- ------ ----- --<br>----- ----- ---------- --- --- ------ ------ ---- -- ------<br>------- --- ------ ----- --- ---- ------- -- ---- --- --<br>------- ------,292282.59999996424,292280.7999999523,291938.711,291946.5,291954.599,292286.989,,8,of
screen,html.Screen,2_1_1_1_9,2022-05-03T12:00:25.653Z,,,,,,,,,,,,,,,,,54,,,,,,,,,,,,,,302.6109999642358,,response,,,,100,,,,,,,Space,keypress(Space),,,,,,,,-- --- ---- --- ------ ----- ------- ---- -- its ------- --<br>------- ---------- ------ -- ----- -- ----- -- ---- ------<br>--- ----- --- --- ------ -------- ----- --- ------ ----- --<br>----- ----- ---------- --- --- ------ ------ ---- -- ------<br>------- --- ------ ----- --- ---- ------- -- ---- --- --<br>------- ------,292591.2999999523,292589.59999996424,292271.32,292282.6999999881,292286.989,292602.983,,9,its
screen,html.Screen,2_1_1_1_10,2022-05-03T12:00:25.958Z,,,,,,,,,,,,,,,,,54,,,,,,,,,,,,,,291.9169999761507,,response,,,,100,,,,,,,Space,keypress(Space),,,,,,,,-- --- ---- --- ------ ----- ------- ---- -- --- revenue --<br>------- ---------- ------ -- ----- -- ----- -- ---- ------<br>--- ----- --- --- ------ -------- ----- --- ------ ----- --<br>----- ----- ---------- --- --- ------ ------ ---- -- ------<br>------- --- ------ ----- --- ---- ------- -- ---- --- --<br>------- ------,292896.59999996424,292894.89999997616,292587.019,292591.5,292602.983,292902.029,,10,revenue
screen,html.Screen,2_1_1_1_11,2022-05-03T12:00:26.443Z,,,,,,,,,,,,,,,,,54,,,,,,,,,,,,,,477.57099996425677,,response,,,,100,,,,,,,Space,keypress(Space),,,,,,,,-- --- ---- --- ------ ----- ------- ---- -- --- ------- by<br>------- ---------- ------ -- ----- -- ----- -- ---- ------<br>--- ----- --- --- ------ -------- ----- --- ------ ----- --<br>----- ----- ---------- --- --- ------ ------ ---- -- ------<br>------- --- ------ ----- --- ---- ------- -- ---- --- --<br>------- ------,293381.39999997616,293379.59999996424,292886.175,292896.7999999523,292902.029,293383.971,,11,by
screen,html.Screen,2_1_1_1_12,2022-05-03T12:00:26.804Z,,,,,,,,,,,,,,,,,54,,,,,,,,,,,,,,356.62899996421766,,response,,,,100,,,,,,,Space,keypress(Space),,,,,,,,-- --- ---- --- ------ ----- ------- ---- -- --- ------- --<br>issuing ---------- ------ -- ----- -- ----- -- ---- ------<br>--- ----- --- --- ------ -------- ----- --- ------ ----- --<br>----- ----- ---------- --- --- ------ ------ ---- -- ------<br>------- --- ------ ----- --- ---- ------- -- ---- --- --<br>------- ------,293742.2999999523,293740.59999996424,293368.594,293381.59999996424,293383.971,293749.728,,12,issuing
screen,html.Screen,2_1_1_1_13,2022-05-03T12:00:27.098Z,,,,,,,,,,,,,,,,,54,,,,,,,,,,,,,,284.4719999880763,,response,,,,100,,,,,,,Space,keypress(Space),,,,,,,,-- --- ---- --- ------ ----- ------- ---- -- --- ------- --<br>------- government ------ -- ----- -- ----- -- ---- ------<br>--- ----- --- --- ------ -------- ----- --- ------ ----- --<br>----- ----- ---------- --- --- ------ ------ ---- -- ------<br>------- --- ------ ----- --- ---- ------- -- ---- --- --<br>------- ------,294036.1999999881,294034.1999999881,293733.996,293742.5,293749.728,294049.019,,13,government
screen,html.Screen,2_1_1_1_14,2022-05-03T12:00:27.505Z,,,,,,,,,,,,,,,,,54,,,,,,,,,,,,,,392.48100000002887,,response,,,,100,,,,,,,Space,keypress(Space),,,,,,,,-- --- ---- --- ------ ----- ------- ---- -- --- ------- --<br>------- ---------- bonds. -- ----- -- ----- -- ---- ------<br>--- ----- --- --- ------ -------- ----- --- ------ ----- --<br>----- ----- ---------- --- --- ------ ------ ---- -- ------<br>------- --- ------ ----- --- ---- ------- -- ---- --- --<br>------- ------,294443.1999999881,294441.5,294033.057,294036.5,294049.019,294447.733,,14,bonds.
screen,html.Screen,2_1_1_1_15,2022-05-03T12:00:28.038Z,,,,,,,,,,,,,,,,,54,,,,,,,,,,,,,,526.8669999642298,,response,,,,100,,,,,,,Space,keypress(Space),,,,,,,,-- --- ---- --- ------ ----- ------- ---- -- --- ------- --<br>------- ---------- ------ In ----- -- ----- -- ---- ------<br>--- ----- --- --- ------ -------- ----- --- ------ ----- --<br>----- ----- ---------- --- --- ------ ------ ---- -- ------<br>------- --- ------ ----- --- ---- ------- -- ---- --- --<br>------- ------,294976.5,294974.59999996424,294431.967,294443.39999997616,294447.733,294979.55,,15,In
screen,html.Screen,2_1_1_1_16,2022-05-03T12:00:29.205Z,,,,,,,,,,,,,,,,,54,,,,,,,,,,,,,,1161.749999952328,,response,,,,100,,,,,,,Space,keypress(Space),,,,,,,,"-- --- ---- --- ------ ----- ------- ---- -- --- ------- --<br>------- ---------- ------ -- 1727, -- ----- -- ---- ------<br>--- ----- --- --- ------ -------- ----- --- ------ ----- --<br>----- ----- ---------- --- --- ------ ------ ---- -- ------<br>------- --- ------ ----- --- ---- ------- -- ---- --- --<br>------- ------",296143.39999997616,296141.2999999523,294964.521,294976.7999999523,294979.55,296159.735,,16,"1727,"
screen,html.Screen,2_1_1_1_17,2022-05-03T12:00:29.564Z,,,,,,,,,,,,,,,,,54,,,,,,,,,,,,,,340.96499998809304,,response,,,,100,,,,,,,Space,keypress(Space),,,,,,,,-- --- ---- --- ------ ----- ------- ---- -- --- ------- --<br>------- ---------- ------ -- ----- in ----- -- ---- ------<br>--- ----- --- --- ------ -------- ----- --- ------ ----- --<br>----- ----- ---------- --- --- ------ ------ ---- -- ------<br>------- --- ------ ----- --- ---- ------- -- ---- --- --<br>------- ------,296502.39999997616,296500.6999999881,296129.401,296143.59999996424,296159.735,296508.926,,17,in
screen,html.Screen,2_1_1_1_18,2022-05-03T12:00:30.009Z,,,,,,,,,,,,,,,,,54,,,,,,,,,,,,,,436.57400000002235,,response,,,,100,,,,,,,Space,keypress(Space),,,,,,,,-- --- ---- --- ------ ----- ------- ---- -- --- ------- --<br>------- ---------- ------ -- ----- -- order -- ---- ------<br>--- ----- --- --- ------ -------- ----- --- ------ ----- --<br>----- ----- ---------- --- --- ------ ------ ---- -- ------<br>------- --- ------ ----- --- ---- ------- -- ---- --- --<br>------- ------,296946.89999997616,296945.5,296493.023,296502.59999996424,296508.926,296957.65,,18,order
screen,html.Screen,2_1_1_1_19,2022-05-03T12:00:30.345Z,,,,,,,,,,,,,,,,,54,,,,,,,,,,,,,,323.3499999999767,,response,,,,100,,,,,,,Space,keypress(Space),,,,,,,,-- --- ---- --- ------ ----- ------- ---- -- --- ------- --<br>------- ---------- ------ -- ----- -- ----- to ---- ------<br>--- ----- --- --- ------ -------- ----- --- ------ ----- --<br>----- ----- ---------- --- --- ------ ------ ---- -- ------<br>------- --- ------ ----- --- ---- ------- -- ---- --- --<br>------- ------,297283.09999996424,297281,296942.123,296947.09999996424,296957.65,297290.027,,19,to
screen,html.Screen,2_1_1_1_20,2022-05-03T12:00:30.720Z,,,,,,,,,,,,,,,,,54,,,,,,,,,,,,,,366.7729999523144,,response,,,,100,,,,,,,Space,keypress(Space),,,,,,,,-- --- ---- --- ------ ----- ------- ---- -- --- ------- --<br>------- ---------- ------ -- ----- -- ----- -- save ------<br>--- ----- --- --- ------ -------- ----- --- ------ ----- --<br>----- ----- ---------- --- --- ------ ------ ---- -- ------<br>------- --- ------ ----- --- ---- ------- -- ---- --- --<br>------- ------,297658.59999996424,297656.7999999523,297274.314,297283.39999997616,297290.027,297672.311,,20,save
screen,html.Screen,2_1_1_1_21,2022-05-03T12:00:31.190Z,,,,,,,,,,,,,,,,,54,,,,,,,,,,,,,,454.28899996425025,,response,,,,100,,,,,,,Space,keypress(Space),,,,,,,,"-- --- ---- --- ------ ----- ------- ---- -- --- ------- --<br>------- ---------- ------ -- ----- -- ----- -- ---- money,<br>--- ----- --- --- ------ -------- ----- --- ------ ----- --<br>----- ----- ---------- --- --- ------ ------ ---- -- ------<br>------- --- ------ ----- --- ---- ------- -- ---- --- --<br>------- ------",298128.2999999523,298126.59999996424,297656.688,297658.89999997616,297672.311,298137.618,,21,"money,"
screen,html.Screen,2_1_1_1_22,2022-05-03T12:00:31.644Z,,,,,,,,,,,,,,,,,54,,,,,,,,,,,,,,442.48199996422045,,response,,,,100,,,,,,,Space,keypress(Space),,,,,,,,-- --- ---- --- ------ ----- ------- ---- -- --- ------- --<br>------- ---------- ------ -- ----- -- ----- -- ---- ------<br>the ----- --- --- ------ -------- ----- --- ------ ----- --<br>----- ----- ---------- --- --- ------ ------ ---- -- ------<br>------- --- ------ ----- --- ---- ------- -- ---- --- --<br>------- ------,298582,298580.09999996424,298122.22,298128.59999996424,298137.618,298586.458,,22,the
screen,html.Screen,2_1_1_1_23,2022-05-03T12:00:32.020Z,,,,,,,,,,,,,,,,,54,,,,,,,,,,,,,,369.3419999523321,,response,,,,100,,,,,,,Space,keypress(Space),,,,,,,,-- --- ---- --- ------ ----- ------- ---- -- --- ------- --<br>------- ---------- ------ -- ----- -- ----- -- ---- ------<br>--- state --- --- ------ -------- ----- --- ------ ----- --<br>----- ----- ---------- --- --- ------ ------ ---- -- ------<br>------- --- ------ ----- --- ---- ------- -- ---- --- --<br>------- ------,298957.6999999881,298955.7999999523,298570.91,298582.1999999881,298586.458,298968.809,,23,state
screen,html.Screen,2_1_1_1_24,2022-05-03T12:00:32.415Z,,,,,,,,,,,,,,,,,54,,,,,,,,,,,,,,381.1909999999916,,response,,,,100,,,,,,,Space,keypress(Space),,,,,,,,-- --- ---- --- ------ ----- ------- ---- -- --- ------- --<br>------- ---------- ------ -- ----- -- ----- -- ---- ------<br>--- ----- cut --- ------ -------- ----- --- ------ ----- --<br>----- ----- ---------- --- --- ------ ------ ---- -- ------<br>------- --- ------ ----- --- ---- ------- -- ---- --- --<br>------- ------,299352.6999999881,299350,298953.167,298957.89999997616,298968.809,299367.802,,24,cut
screen,html.Screen,2_1_1_1_25,2022-05-03T12:00:32.782Z,,,,,,,,,,,,,,,,,54,,,,,,,,,,,,,,350.99799995229114,,response,,,,100,,,,,,,Space,keypress(Space),,,,,,,,-- --- ---- --- ------ ----- ------- ---- -- --- ------- --<br>------- ---------- ------ -- ----- -- ----- -- ---- ------<br>--- ----- --- the ------ -------- ----- --- ------ ----- --<br>----- ----- ---------- --- --- ------ ------ ---- -- ------<br>------- --- ------ ----- --- ---- ------- -- ---- --- --<br>------- ------,299720.39999997616,299718.7999999523,299352.254,299352.89999997616,299367.802,299733.381,,25,the
screen,html.Screen,2_1_1_1_26,2022-05-03T12:00:33.172Z,,,,,,,,,,,,,,,,,54,,,,,,,,,,,,,,374.91899995232234,,response,,,,100,,,,,,,Space,keypress(Space),,,,,,,,-- --- ---- --- ------ ----- ------- ---- -- --- ------- --<br>------- ---------- ------ -- ----- -- ----- -- ---- ------<br>--- ----- --- --- bonds' -------- ----- --- ------ ----- --<br>----- ----- ---------- --- --- ------ ------ ---- -- ------<br>------- --- ------ ----- --- ---- ------- -- ---- --- --<br>------- ------,300110.09999996424,300108.2999999523,299717.54,299720.59999996424,299733.381,300115.659,,26,bonds'
screen,html.Screen,2_1_1_1_27,2022-05-03T12:00:33.899Z,,,,,,,,,,,,,,,,,54,,,,,,,,,,,,,,719.740999976173,,response,,,,100,,,,,,,Space,keypress(Space),,,,,,,,-- --- ---- --- ------ ----- ------- ---- -- --- ------- --<br>------- ---------- ------ -- ----- -- ----- -- ---- ------<br>--- ----- --- --- ------ interest ----- --- ------ ----- --<br>----- ----- ---------- --- --- ------ ------ ---- -- ------<br>------- --- ------ ----- --- ---- ------- -- ---- --- --<br>------- ------,300837.09999996424,300835.39999997616,300100.041,300110.39999997616,300115.659,300846.943,,27,interest
screen,html.Screen,2_1_1_1_28,2022-05-03T12:00:34.483Z,,,,,,,,,,,,,,,,,54,,,,,,,,,,,,,,573.0569999999716,,response,,,,100,,,,,,,Space,keypress(Space),,,,,,,,-- --- ---- --- ------ ----- ------- ---- -- --- ------- --<br>------- ---------- ------ -- ----- -- ----- -- ---- ------<br>--- ----- --- --- ------ -------- rate. --- ------ ----- --<br>----- ----- ---------- --- --- ------ ------ ---- -- ------<br>------- --- ------ ----- --- ---- ------- -- ---- --- --<br>------- ------,301421.5,301420,300832.288,300837.39999997616,300846.943,301428.73,,28,rate.
screen,html.Screen,2_1_1_1_29,2022-05-03T12:00:34.991Z,,,,,,,,,,,,,,,,,54,,,,,,,,,,,,,,499.0699999523349,,response,,,,100,,,,,,,Space,keypress(Space),,,,,,,,-- --- ---- --- ------ ----- ------- ---- -- --- ------- --<br>------- ---------- ------ -- ----- -- ----- -- ---- ------<br>--- ----- --- --- ------ -------- ----- The ------ ----- --<br>----- ----- ---------- --- --- ------ ------ ---- -- ------<br>------- --- ------ ----- --- ---- ------- -- ---- --- --<br>------- ------,301929.6999999881,301927.7999999523,301413.774,301421.6999999881,301428.73,301943.946,,29,The
screen,html.Screen,2_1_1_1_30,2022-05-03T12:00:35.507Z,,,,,,,,,,,,,,,,,54,,,,,,,,,,,,,,499.5540000000037,,response,,,,100,,,,,,,Space,keypress(Space),,,,,,,,-- --- ---- --- ------ ----- ------- ---- -- --- ------- --<br>------- ---------- ------ -- ----- -- ----- -- ---- ------<br>--- ----- --- --- ------ -------- ----- --- market ----- --<br>----- ----- ---------- --- --- ------ ------ ---- -- ------<br>------- --- ------ ----- --- ---- ------- -- ---- --- --<br>------- ------,302445.2999999523,302443.5,301928.463,301929.89999997616,301943.946,302459.309,,30,market
screen,html.Screen,2_1_1_1_31,2022-05-03T12:00:35.872Z,,,,,,,,,,,,,,,,,54,,,,,,,,,,,,,,347.8909999880707,,response,,,,100,,,,,,,Space,keypress(Space),,,,,,,,-- --- ---- --- ------ ----- ------- ---- -- --- ------- --<br>------- ---------- ------ -- ----- -- ----- -- ---- ------<br>--- ----- --- --- ------ -------- ----- --- ------ value --<br>----- ----- ---------- --- --- ------ ------ ---- -- ------<br>------- --- ------ ----- --- ---- ------- -- ---- --- --<br>------- ------,302810,302807.1999999881,302443.978,302445.5,302459.309,302824.879,,31,value
screen,html.Screen,2_1_1_1_32,2022-05-03T12:00:36.549Z,,,,,,,,,,,,,,,,,54,,,,,,,,,,,,,,660.5209999761428,,response,,,,100,,,,,,,Space,keypress(Space),,,,,,,,-- --- ---- --- ------ ----- ------- ---- -- --- ------- --<br>------- ---------- ------ -- ----- -- ----- -- ---- ------<br>--- ----- --- --- ------ -------- ----- --- ------ ----- of<br>----- ----- ---------- --- --- ------ ------ ---- -- ------<br>------- --- ------ ----- --- ---- ------- -- ---- --- --<br>------- ------,303487.2999999523,303485.39999997616,302809.248,302810.1999999881,302824.879,303489.645,,32,of
screen,html.Screen,2_1_1_1_33,2022-05-03T12:00:37.205Z,,,,,,,,,,,,,,,,,54,,,,,,,,,,,,,,651.7549999761395,,response,,,,100,,,,,,,Space,keypress(Space),,,,,,,,-- --- ---- --- ------ ----- ------- ---- -- --- ------- --<br>------- ---------- ------ -- ----- -- ----- -- ---- ------<br>--- ----- --- --- ------ -------- ----- --- ------ ----- --<br>these ----- ---------- --- --- ------ ------ ---- -- ------<br>------- --- ------ ----- --- ---- ------- -- ---- --- --<br>------- ------,304143.1999999881,304141.39999997616,303474.901,303487.5,303489.645,304154.519,,33,these
screen,html.Screen,2_1_1_1_34,2022-05-03T12:00:37.673Z,,,,,,,,,,,,,,,,,54,,,,,,,,,,,,,,454.880999976187,,response,,,,100,,,,,,,Space,keypress(Space),,,,,,,,-- --- ---- --- ------ ----- ------- ---- -- --- ------- --<br>------- ---------- ------ -- ----- -- ----- -- ---- ------<br>--- ----- --- --- ------ -------- ----- --- ------ ----- --<br>----- bonds ---------- --- --- ------ ------ ---- -- ------<br>------- --- ------ ----- --- ---- ------- -- ---- --- --<br>------- ------,304611.2999999523,304609.39999997616,304139.51,304144.59999996424,304154.519,304619.914,,34,bonds
screen,html.Screen,2_1_1_1_35,2022-05-03T12:00:38.335Z,,,,,,,,,,,,,,,,,54,,,,,,,,,,,,,,651.0860000000102,,response,,,,100,,,,,,,Space,keypress(Space),,,,,,,,"-- --- ---- --- ------ ----- ------- ---- -- --- ------- --<br>------- ---------- ------ -- ----- -- ----- -- ---- ------<br>--- ----- --- --- ------ -------- ----- --- ------ ----- --<br>----- ----- plummeted, --- --- ------ ------ ---- -- ------<br>------- --- ------ ----- --- ---- ------- -- ---- --- --<br>------- ------",305273,305271,304604.521,304611.5,304619.914,305284.931,,35,"plummeted,"
screen,html.Screen,2_1_1_1_36,2022-05-03T12:00:38.849Z,,,,,,,,,,,,,,,,,54,,,,,,,,,,,,,,500.6689999642549,,response,,,,100,,,,,,,Space,keypress(Space),,,,,,,,-- --- ---- --- ------ ----- ------- ---- -- --- ------- --<br>------- ---------- ------ -- ----- -- ----- -- ---- ------<br>--- ----- --- --- ------ -------- ----- --- ------ ----- --<br>----- ----- ---------- and --- ------ ------ ---- -- ------<br>------- --- ------ ----- --- ---- ------- -- ---- --- --<br>------- ------,305787.39999997616,305785.59999996424,305270.001,305273.2999999523,305284.931,305800.162,,36,and
screen,html.Screen,2_1_1_1_37,2022-05-03T12:00:39.526Z,,,,,,,,,,,,,,,,,54,,,,,,,,,,,,,,662.5379999880679,,response,,,,100,,,,,,,Space,keypress(Space),,,,,,,,-- --- ---- --- ------ ----- ------- ---- -- --- ------- --<br>------- ---------- ------ -- ----- -- ----- -- ---- ------<br>--- ----- --- --- ------ -------- ----- --- ------ ----- --<br>----- ----- ---------- --- the ------ ------ ---- -- ------<br>------- --- ------ ----- --- ---- ------- -- ---- --- --<br>------- ------,306464.5,306462.6999999881,305784.651,305787.59999996424,305800.162,306481.721,,37,the
screen,html.Screen,2_1_1_1_38,2022-05-03T12:00:39.984Z,,,,,,,,,,,,,,,,,54,,,,,,,,,,,,,,439.0789999522967,,response,,,,100,,,,,,,Space,keypress(Space),,,,,,,,-- --- ---- --- ------ ----- ------- ---- -- --- ------- --<br>------- ---------- ------ -- ----- -- ----- -- ---- ------<br>--- ----- --- --- ------ -------- ----- --- ------ ----- --<br>----- ----- ---------- --- --- market ------ ---- -- ------<br>------- --- ------ ----- --- ---- ------- -- ---- --- --<br>------- ------,306922.59999996424,306920.7999999523,306449.966,306465.09999996424,306481.721,306930.938,,38,market
screen,html.Screen,2_1_1_1_39,2022-05-03T12:00:40.256Z,,,,,,,,,,,,,,,,,54,,,,,,,,,,,,,,261.9619999761344,,response,,,,100,,,,,,,Space,keypress(Space),,,,,,,,-- --- ---- --- ------ ----- ------- ---- -- --- ------- --<br>------- ---------- ------ -- ----- -- ----- -- ---- ------<br>--- ----- --- --- ------ -------- ----- --- ------ ----- --<br>----- ----- ---------- --- --- ------ became ---- -- ------<br>------- --- ------ ----- --- ---- ------- -- ---- --- --<br>------- ------,307194.59999996424,307192.89999997616,306914.71,306923,306930.938,307226.074,,39,became
screen,html.Screen,2_1_1_1_40,2022-05-03T12:00:40.857Z,,,,,,,,,,,,,,,,,54,,,,,,,,,,,,,,566.7259999522939,,response,,,,100,,,,,,,Space,keypress(Space),,,,,,,,-- --- ---- --- ------ ----- ------- ---- -- --- ------- --<br>------- ---------- ------ -- ----- -- ----- -- ---- ------<br>--- ----- --- --- ------ -------- ----- --- ------ ----- --<br>----- ----- ---------- --- --- ------ ------ wary -- ------<br>------- --- ------ ----- --- ---- ------- -- ---- --- --<br>------- ------,307794.89999997616,307792.7999999523,307180.099,307194.89999997616,307226.074,307828.08,,40,wary
screen,html.Screen,2_1_1_1_41,2022-05-03T12:00:41.408Z,,,,,,,,,,,,,,,,,54,,,,,,,,,,,,,,515.9199999999837,,response,,,,100,,,,,,,Space,keypress(Space),,,,,,,,-- --- ---- --- ------ ----- ------- ---- -- --- ------- --<br>------- ---------- ------ -- ----- -- ----- -- ---- ------<br>--- ----- --- --- ------ -------- ----- --- ------ ----- --<br>----- ----- ---------- --- --- ------ ------ ---- of ------<br>------- --- ------ ----- --- ---- ------- -- ---- --- --<br>------- ------,308345.6999999881,308344,307811.162,307795.1999999881,307828.08,308359.943,,41,of
screen,html.Screen,2_1_1_1_42,2022-05-03T12:00:41.877Z,,,,,,,,,,,,,,,,,54,,,,,,,,,,,,,,453.95699997612974,,response,,,,100,,,,,,,Space,keypress(Space),,,,,,,,-- --- ---- --- ------ ----- ------- ---- -- --- ------- --<br>------- ---------- ------ -- ----- -- ----- -- ---- ------<br>--- ----- --- --- ------ -------- ----- --- ------ ----- --<br>----- ----- ---------- --- --- ------ ------ ---- -- French<br>------- --- ------ ----- --- ---- ------- -- ---- --- --<br>------- ------,308815.59999996424,308813.89999997616,308344.548,308345.89999997616,308359.943,308825.049,,42,French
screen,html.Screen,2_1_1_1_43,2022-05-03T12:00:42.338Z,,,,,,,,,,,,,,,,,54,,,,,,,,,,,,,,448.8509999761591,,response,,,,100,,,,,,,Space,keypress(Space),,,,,,,,-- --- ---- --- ------ ----- ------- ---- -- --- ------- --<br>------- ---------- ------ -- ----- -- ----- -- ---- ------<br>--- ----- --- --- ------ -------- ----- --- ------ ----- --<br>----- ----- ---------- --- --- ------ ------ ---- -- ------<br>credit. --- ------ ----- --- ---- ------- -- ---- --- --<br>------- ------,309275.7999999523,309273.89999997616,308809.788,308815.89999997616,308825.049,309290.608,,43,credit.
screen,html.Screen,2_1_1_1_44,2022-05-03T12:00:43.510Z,,,,,,,,,,,,,,,,,54,,,,,,,,,,,,,,1156.8919999999925,,response,,,,100,,,,,,,Space,keypress(Space),,,,,,,,-- --- ---- --- ------ ----- ------- ---- -- --- ------- --<br>------- ---------- ------ -- ----- -- ----- -- ---- ------<br>--- ----- --- --- ------ -------- ----- --- ------ ----- --<br>----- ----- ---------- --- --- ------ ------ ---- -- ------<br>------- The ------ ----- --- ---- ------- -- ---- --- --<br>------- ------,310448.59999996424,310447.5,309275.113,309276.09999996424,309290.608,310453.952,,44,The
screen,html.Screen,2_1_1_1_45,2022-05-03T12:00:43.995Z,,,,,,,,,,,,,,,,,54,,,,,,,,,,,,,,478.24799998808885,,response,,,,100,,,,,,,Space,keypress(Space),,,,,,,,-- --- ---- --- ------ ----- ------- ---- -- --- ------- --<br>------- ---------- ------ -- ----- -- ----- -- ---- ------<br>--- ----- --- --- ------ -------- ----- --- ------ ----- --<br>----- ----- ---------- --- --- ------ ------ ---- -- ------<br>------- --- French ----- --- ---- ------- -- ---- --- --<br>------- ------,310933.2999999523,310932.1999999881,310440.559,310448.6999999881,310453.952,310935.939,,45,French
screen,html.Screen,2_1_1_1_46,2022-05-03T12:00:44.459Z,,,,,,,,,,,,,,,,,54,,,,,,,,,,,,,,459.76099998806603,,response,,,,100,,,,,,,Space,keypress(Space),,,,,,,,-- --- ---- --- ------ ----- ------- ---- -- --- ------- --<br>------- ---------- ------ -- ----- -- ----- -- ---- ------<br>--- ----- --- --- ------ -------- ----- --- ------ ----- --<br>----- ----- ---------- --- --- ------ ------ ---- -- ------<br>------- --- ------ state --- ---- ------- -- ---- --- --<br>------- ------,311396.6999999881,311395.6999999881,310920.466,310933.5,310935.939,311401.376,,46,state
screen,html.Screen,2_1_1_1_47,2022-05-03T12:00:44.988Z,,,,,,,,,,,,,,,,,54,,,,,,,,,,,,,,523.423999952327,,response,,,,100,,,,,,,Space,keypress(Space),,,,,,,,-- --- ---- --- ------ ----- ------- ---- -- --- ------- --<br>------- ---------- ------ -- ----- -- ----- -- ---- ------<br>--- ----- --- --- ------ -------- ----- --- ------ ----- --<br>----- ----- ---------- --- --- ------ ------ ---- -- ------<br>------- --- ------ ----- was ---- ------- -- ---- --- --<br>------- ------,311925.7999999523,311924.7999999523,311385.804,311396.7999999523,311401.376,311933.19,,47,was
screen,html.Screen,2_1_1_1_48,2022-05-03T12:00:45.442Z,,,,,,,,,,,,,,,,,54,,,,,,,,,,,,,,446.2099999761558,,response,,,,100,,,,,,,Space,keypress(Space),,,,,,,,-- --- ---- --- ------ ----- ------- ---- -- --- ------- --<br>------- ---------- ------ -- ----- -- ----- -- ---- ------<br>--- ----- --- --- ------ -------- ----- --- ------ ----- --<br>----- ----- ---------- --- --- ------ ------ ---- -- ------<br>------- --- ------ ----- --- left ------- -- ---- --- --<br>------- ------,312380.59999996424,312379.39999997616,311917.886,311926,311933.19,312404.724,,48,left
screen,html.Screen,2_1_1_1_49,2022-05-03T12:00:46.001Z,,,,,,,,,,,,,,,,,54,,,,,,,,,,,,,,533.6759999761707,,response,,,,100,,,,,,,Space,keypress(Space),,,,,,,,-- --- ---- --- ------ ----- ------- ---- -- --- ------- --<br>------- ---------- ------ -- ----- -- ----- -- ---- ------<br>--- ----- --- --- ------ -------- ----- --- ------ ----- --<br>----- ----- ---------- --- --- ------ ------ ---- -- ------<br>------- --- ------ ----- --- ---- without -- ---- --- --<br>------- ------,312939.2999999523,312938.39999997616,312366.438,312380.6999999881,312404.724,312947.051,,49,without
screen,html.Screen,2_1_1_1_50,2022-05-03T12:00:46.562Z,,,,,,,,,,,,,,,,,54,,,,,,,,,,,,,,551.8489999761805,,response,,,,100,,,,,,,Space,keypress(Space),,,,,,,,-- --- ---- --- ------ ----- ------- ---- -- --- ------- --<br>------- ---------- ------ -- ----- -- ----- -- ---- ------<br>--- ----- --- --- ------ -------- ----- --- ------ ----- --<br>----- ----- ---------- --- --- ------ ------ ---- -- ------<br>------- --- ------ ----- --- ---- ------- an ---- --- --<br>------- ------,313500,313498.89999997616,312931.821,312939.5,312947.051,313512.229,,50,an
screen,html.Screen,2_1_1_1_51,2022-05-03T12:00:47.283Z,,,,,,,,,,,,,,,,,54,,,,,,,,,,,,,,707.970999988087,,response,,,,100,,,,,,,Space,keypress(Space),,,,,,,,-- --- ---- --- ------ ----- ------- ---- -- --- ------- --<br>------- ---------- ------ -- ----- -- ----- -- ---- ------<br>--- ----- --- --- ------ -------- ----- --- ------ ----- --<br>----- ----- ---------- --- --- ------ ------ ---- -- ------<br>------- --- ------ ----- --- ---- ------- -- easy --- --<br>------- ------,314221.1999999881,314220.1999999881,313496.954,313500.09999996424,313512.229,314226.93,,51,easy
screen,html.Screen,2_1_1_1_52,2022-05-03T12:00:47.773Z,,,,,,,,,,,,,,,,,54,,,,,,,,,,,,,,481.9699999761651,,response,,,,100,,,,,,,Space,keypress(Space),,,,,,,,-- --- ---- --- ------ ----- ------- ---- -- --- ------- --<br>------- ---------- ------ -- ----- -- ----- -- ---- ------<br>--- ----- --- --- ------ -------- ----- --- ------ ----- --<br>----- ----- ---------- --- --- ------ ------ ---- -- ------<br>------- --- ------ ----- --- ---- ------- -- ---- way --<br>------- ------,314711.1999999881,314708.89999997616,314212.067,314221.2999999523,314226.93,314725.8,,52,way
screen,html.Screen,2_1_1_1_53,2022-05-03T12:00:48.311Z,,,,,,,,,,,,,,,,,54,,,,,,,,,,,,,,521.3999999880907,,response,,,,100,,,,,,,Space,keypress(Space),,,,,,,,-- --- ---- --- ------ ----- ------- ---- -- --- ------- --<br>------- ---------- ------ -- ----- -- ----- -- ---- ------<br>--- ----- --- --- ------ -------- ----- --- ------ ----- --<br>----- ----- ---------- --- --- ------ ------ ---- -- ------<br>------- --- ------ ----- --- ---- ------- -- ---- --- of<br>------- ------,315249.1999999881,315247.1999999881,314710.112,314711.5,314725.8,315258.109,,53,of
screen,html.Screen,2_1_1_1_54,2022-05-03T12:00:48.866Z,,,,,,,,,,,,,,,,,54,,,,,,,,,,,,,,543.8910000000033,,response,,,,100,,,,,,,Space,keypress(Space),,,,,,,,-- --- ---- --- ------ ----- ------- ---- -- --- ------- --<br>------- ---------- ------ -- ----- -- ----- -- ---- ------<br>--- ----- --- --- ------ -------- ----- --- ------ ----- --<br>----- ----- ---------- --- --- ------ ------ ---- -- ------<br>------- --- ------ ----- --- ---- ------- -- ---- --- --<br>raising ------,315803.7999999523,315802,315242.182,315249.39999997616,315258.109,315805.993,,54,raising
screen,html.Screen,2_1_1_1_55,2022-05-03T12:00:49.604Z,,,,,,,,,,,,,,,,,54,,,,,,,,,,,,,,734.7069999880623,,response,,,,100,,,,,,,Space,keypress(Space),,,,,,,,-- --- ---- --- ------ ----- ------- ---- -- --- ------- --<br>------- ---------- ------ -- ----- -- ----- -- ---- ------<br>--- ----- --- --- ------ -------- ----- --- ------ ----- --<br>----- ----- ---------- --- --- ------ ------ ---- -- ------<br>------- --- ------ ----- --- ---- ------- -- ---- --- --<br>------- money.,316542.5,316540.6999999881,315790.693,315804,315805.993,316553.931,,55,money.
Item 100,flow.Loop,2_1_1_1,2022-05-03T12:00:49.605Z,,,,,,,,,,,,,,,,,,,,,,,,,,,,,,,28309.242999988084,,completion,,,,,H,,,,,,,,,,,silence,,,,,316542.89999997616,316540.6999999881,288214.824,288216.39999997616,288231.457,316553.931,,,
Question 1,html.Screen,2_1_1_2,2022-05-03T12:00:52.845Z,,,,,,,,,,,,,,,,,,,,,,,,,,,,true,TRUE,,3227.868999952334,,response,,,,100,H,,,,,,TRUE,click #choice-1,,,,silence,,,,,319783.59999996424,319781.7999999523,316539.293,316543.09999996424,316553.931,319795.146,,,
Question 2,html.Screen,2_1_1_3,2022-05-03T12:00:57.961Z,,,,,,,,,,,,,,,,,,,,,,,,,,,,true,FALSE,,5102.75399997615,,response,,,,100,H,,,,,,FALSE,click #choice-2,,,,silence,,,,,324899.6999999881,324897.89999997616,319778.835,319783.6999999881,319795.146,324914.702,,,
Item 100,flow.Sequence,2_1_1,2022-05-03T12:00:57.962Z,,,,,,,,,,,,,,,,,,,,,,,,,,,,,,,46672.31299997616,,completion,,,,,,,,,,,,,,,,,,,,,324899.7999999523,324897.89999997616,278208.953,278215.6999999881,278225.587,324914.702,,,
End of Practice,html.Page,2_1_2,2022-05-03T12:01:09.790Z,,,,,,,,,,,,,,,,,,,,,,,,,,,,,,,11813.197999976168,,form submission,,,,,,,,,,,,,,,,,,,,,336728.2999999523,336727.89999997616,324898.38,324899.89999997616,324914.702,336732.329,,,
Practice,flow.Sequence,2_1,2022-05-03T12:01:09.790Z,,,,,,,,,,,,,,,,,,,,,,,,,,,,,,,115147.75799997617,,completion,,,,,,,,,,,,,,,,,,,,,336728.5,336727.89999997616,221563.881,221576.5,221580.142,336732.329,,,
Trap_instruction,html.Page,2_2_0,2022-05-03T12:01:14.454Z,,,,,,,,,,,,,,,,,,,,,,,,,,,,,,,4659.570999976131,,form submission,,,,,,,,,,,,,,,,,,,,,341392.1999999881,341391.89999997616,336715.783,336728.6999999881,336732.329,341403.208,,,
trap_trial,html.Screen,2_2_1,2022-05-03T12:01:20.801Z,,,,,,,,,,,,,,,,,,,,,,,,,,,,true,1,,6334.292000000016,,response,,,,,,,,,,,1,click #choice-1,,,,,,,,,347739.39999997616,347737.5,341386.483,341392.2999999523,341403.208,347752.179,,,
end of trap trial,html.Page,2_2_2,2022-05-03T12:01:28.846Z,,,,,,,,,,,,,,,,,,,,,,,,,,,,,,,8031.620999952313,,form submission,,,,,,,,,,,,,,,,,,,,,355784.09999996424,355783.7999999523,347735.607,347739.59999996424,347752.179,355796.963,,,
Trap 1,flow.Sequence,2_2,2022-05-03T12:01:28.846Z,,,,,,,,,,,,,,,,,,,,,,,,,,,,,,,19051.47099995229,,completion,,,,,,,,,,,,,,,,,,,,,355784.2999999523,355783.7999999523,336715.783,336728.6999999881,336732.329,355796.963,,,
Standby,html.Page,2_3_0,2022-05-03T12:01:36.839Z,,,,,,,,,,,,,,,,,,,,,,,,,,,,,,,7994.6170000000275,,timeout,,,,,,,,,,,,,,,,,,,,,363777,363775.101,355780.508,355784.39999997616,355796.963,363791.58,,,
Holding screen,html.Screen,2_3_1_0_0,2022-05-03T12:01:43.836Z,,,,,,,,,,,,,,,,,,,,,,,,,,,,,,,6997.680999999982,,timeout,,,,,,,,,,,,,,,,,,,,,370773.7999999523,370772.686,363775.101,363777.39999997616,363791.58,370789.261,,,
screen,html.Screen,2_3_1_0_1_0,2022-05-03T12:01:45.274Z,,,,,,,,,,,,,,,,,2,,,,,,,,,,,,,,1420.5389999523177,,response,,,,1,H,,,,,,Space,keypress(Space),,,,speech,,,,Two ---- ------ --- ------- ---------- ------- ----------<br>--- --------- --- ----------- ------- ----- ------- ---<br>--------- ---- -- --- ---- -- --------- -- ---- -------<br>-- --------- ------ --- ----- ------ ---- --- --------- --<br>------ - ---- -- --- ----------- ------- ---- ----- -----<br>--- -------- - ------ ---- -- ----- ---- --- --- -----------<br>-- -------,372211.7999999523,372209.7999999523,370772.686,370774.1999999881,370789.261,372218.506,,0,Two
screen,html.Screen,2_3_1_0_1_1,2022-05-03T12:01:45.660Z,,,,,,,,,,,,,,,,,2,,,,,,,,,,,,,,376.6939999880851,,response,,,,1,H,,,,,,Space,keypress(Space),,,,speech,,,,--- days ------ --- ------- ---------- ------- ----------<br>--- --------- --- ----------- ------- ----- ------- ---<br>--------- ---- -- --- ---- -- --------- -- ---- -------<br>-- --------- ------ --- ----- ------ ---- --- --------- --<br>------ - ---- -- --- ----------- ------- ---- ----- -----<br>--- -------- - ------ ---- -- ----- ---- --- --- -----------<br>-- -------,372597.59999996424,372595.1999999881,372205.597,372212,372218.506,372600.838,,1,days
screen,html.Screen,2_3_1_0_1_2,2022-05-03T12:01:46.286Z,,,,,,,,,,,,,,,,,2,,,,,,,,,,,,,,621.8619999880902,,response,,,,1,H,,,,,,Space,keypress(Space),,,,speech,,,,"--- ---- later, --- ------- ---------- ------- ----------<br>--- --------- --- ----------- ------- ----- ------- ---<br>--------- ---- -- --- ---- -- --------- -- ---- -------<br>-- --------- ------ --- ----- ------ ---- --- --------- --<br>------ - ---- -- --- ----------- ------- ---- ----- -----<br>--- -------- - ------ ---- -- ----- ---- --- --- -----------<br>-- -------",373224.5,373222.6999999881,372585.451,372597.89999997616,372600.838,373232.539,,2,"later,"
screen,html.Screen,2_3_1_0_1_3,2022-05-03T12:01:47.693Z,,,,,,,,,,,,,,,,,2,,,,,,,,,,,,,,1395.5609999642475,,response,,,,1,H,,,,,,Space,keypress(Space),,,,speech,,,,--- ---- ------ the ------- ---------- ------- ----------<br>--- --------- --- ----------- ------- ----- ------- ---<br>--------- ---- -- --- ---- -- --------- -- ---- -------<br>-- --------- ------ --- ----- ------ ---- --- --------- --<br>------ - ---- -- --- ----------- ------- ---- ----- -----<br>--- -------- - ------ ---- -- ----- ---- --- --- -----------<br>-- -------,374631.09999996424,374628.09999996424,373217.521,373224.59999996424,373232.539,374645.18,,3,the
screen,html.Screen,2_3_1_0_1_4,2022-05-03T12:01:48.175Z,,,,,,,,,,,,,,,,,2,,,,,,,,,,,,,,466.51999998808606,,response,,,,1,H,,,,,,Space,keypress(Space),,,,speech,,,,--- ---- ------ --- British ---------- ------- ----------<br>--- --------- --- ----------- ------- ----- ------- ---<br>--------- ---- -- --- ---- -- --------- -- ---- -------<br>-- --------- ------ --- ----- ------ ---- --- --------- --<br>------ - ---- -- --- ----------- ------- ---- ----- -----<br>--- -------- - ------ ---- -- ----- ---- --- --- -----------<br>-- -------,375113.2999999523,375111.6999999881,374616.03,374631.39999997616,374645.18,375127.364,,4,British
screen,html.Screen,2_3_1_0_1_5,2022-05-03T12:01:48.911Z,,,,,,,,,,,,,,,,,2,,,,,,,,,,,,,,719.9359999523149,,response,,,,1,H,,,,,,Space,keypress(Space),,,,speech,,,,--- ---- ------ --- ------- astronomer ------- ----------<br>--- --------- --- ----------- ------- ----- ------- ---<br>--------- ---- -- --- ---- -- --------- -- ---- -------<br>-- --------- ------ --- ----- ------ ---- --- --------- --<br>------ - ---- -- --- ----------- ------- ---- ----- -----<br>--- -------- - ------ ---- -- ----- ---- --- --- -----------<br>-- -------,375849,375847.2999999523,375111.858,375113.5,375127.364,375858.697,,5,astronomer
screen,html.Screen,2_3_1_0_1_6,2022-05-03T12:01:49.306Z,,,,,,,,,,,,,,,,,2,,,,,,,,,,,,,,383.90299996425165,,response,,,,1,H,,,,,,Space,keypress(Space),,,,speech,,,,--- ---- ------ --- ------- ---------- Richard ----------<br>--- --------- --- ----------- ------- ----- ------- ---<br>--------- ---- -- --- ---- -- --------- -- ---- -------<br>-- --------- ------ --- ----- ------ ---- --- --------- --<br>------ - ---- -- --- ----------- ------- ---- ----- -----<br>--- -------- - ------ ---- -- ----- ---- --- --- -----------<br>-- -------,376244.39999997616,376242.59999996424,375843.798,375849.2999999523,375858.697,376257.771,,6,Richard
screen,html.Screen,2_3_1_0_1_7,2022-05-03T12:01:49.862Z,,,,,,,,,,,,,,,,,2,,,,,,,,,,,,,,540.1289999761502,,response,,,,1,H,,,,,,Space,keypress(Space),,,,speech,,,,--- ---- ------ --- ------- ---------- ------- Carrington<br>--- --------- --- ----------- ------- ----- ------- ---<br>--------- ---- -- --- ---- -- --------- -- ---- -------<br>-- --------- ------ --- ----- ------ ---- --- --------- --<br>------ - ---- -- --- ----------- ------- ---- ----- -----<br>--- -------- - ------ ---- -- ----- ---- --- --- -----------<br>-- -------,376799.7999999523,376797.89999997616,376242.011,376244.59999996424,376257.771,376806.746,,7,Carrington
screen,html.Screen,2_3_1_0_1_8,2022-05-03T12:01:51.002Z,,,,,,,,,,,,,,,,,2,,,,,,,,,,,,,,1131.8539999642526,,response,,,,1,H,,,,,,Space,keypress(Space),,,,speech,,,,--- ---- ------ --- ------- ---------- ------- ----------<br>was --------- --- ----------- ------- ----- ------- ---<br>--------- ---- -- --- ---- -- --------- -- ---- -------<br>-- --------- ------ --- ----- ------ ---- --- --------- --<br>------ - ---- -- --- ----------- ------- ---- ----- -----<br>--- -------- - ------ ---- -- ----- ---- --- --- -----------<br>-- -------,377940.09999996424,377938.59999996424,376790.784,376800,376806.746,377952.819,,8,was
screen,html.Screen,2_3_1_0_1_9,2022-05-03T12:01:51.812Z,,,,,,,,,,,,,,,,,2,,,,,,,,,,,,,,795.9809999522986,,response,,,,1,H,,,,,,Space,keypress(Space),,,,speech,,,,--- ---- ------ --- ------- ---------- ------- ----------<br>--- observing --- ----------- ------- ----- ------- ---<br>--------- ---- -- --- ---- -- --------- -- ---- -------<br>-- --------- ------ --- ----- ------ ---- --- --------- --<br>------ - ---- -- --- ----------- ------- ---- ----- -----<br>--- -------- - ------ ---- -- ----- ---- --- --- -----------<br>-- -------,378750.5,378748.7999999523,377939.496,377940.1999999881,377952.819,378767.314,,9,observing
screen,html.Screen,2_3_1_0_1_10,2022-05-03T12:01:52.446Z,,,,,,,,,,,,,,,,,2,,,,,,,,,,,,,,613.7859999642242,,response,,,,1,H,,,,,,Space,keypress(Space),,,,speech,,,,--- ---- ------ --- ------- ---------- ------- ----------<br>--- --------- the ----------- ------- ----- ------- ---<br>--------- ---- -- --- ---- -- --------- -- ---- -------<br>-- --------- ------ --- ----- ------ ---- --- --------- --<br>------ - ---- -- --- ----------- ------- ---- ----- -----<br>--- -------- - ------ ---- -- ----- ---- --- --- -----------<br>-- -------,379383.6999999881,379381.09999996424,378736.396,378751,378767.314,379399.018,,10,the
screen,html.Screen,2_3_1_0_1_11,2022-05-03T12:01:52.778Z,,,,,,,,,,,,,,,,,2,,,,,,,,,,,,,,314.48200000001816,,response,,,,1,H,,,,,,Space,keypress(Space),,,,speech,,,,--- ---- ------ --- ------- ---------- ------- ----------<br>--- --------- --- interesting ------- ----- ------- ---<br>--------- ---- -- --- ---- -- --------- -- ---- -------<br>-- --------- ------ --- ----- ------ ---- --- --------- --<br>------ - ---- -- --- ----------- ------- ---- ----- -----<br>--- -------- - ------ ---- -- ----- ---- --- --- -----------<br>-- -------,379716.09999996424,379713.5,379383.917,379383.7999999523,379399.018,379731.662,,11,interesting
screen,html.Screen,2_3_1_0_1_12,2022-05-03T12:01:53.213Z,,,,,,,,,,,,,,,,,2,,,,,,,,,,,,,,417.43799996422604,,response,,,,1,H,,,,,,Space,keypress(Space),,,,speech,,,,--- ---- ------ --- ------- ---------- ------- ----------<br>--- --------- --- ----------- sunspot ----- ------- ---<br>--------- ---- -- --- ---- -- --------- -- ---- -------<br>-- --------- ------ --- ----- ------ ---- --- --------- --<br>------ - ---- -- --- ----------- ------- ---- ----- -----<br>--- -------- - ------ ---- -- ----- ---- --- --- -----------<br>-- -------,380150.7999999523,380149.09999996424,379715.618,379717,379731.662,380163.778,,12,sunspot
screen,html.Screen,2_3_1_0_1_13,2022-05-03T12:01:53.663Z,,,,,,,,,,,,,,,,,2,,,,,,,,,,,,,,435.9219999880879,,response,,,,1,H,,,,,,Space,keypress(Space),,,,speech,,,,--- ---- ------ --- ------- ---------- ------- ----------<br>--- --------- --- ----------- ------- group ------- ---<br>--------- ---- -- --- ---- -- --------- -- ---- -------<br>-- --------- ------ --- ----- ------ ---- --- --------- --<br>------ - ---- -- --- ----------- ------- ---- ----- -----<br>--- -------- - ------ ---- -- ----- ---- --- --- -----------<br>-- -------,380601.5,380599.6999999881,380147.903,380151,380163.778,380612.557,,13,group
screen,html.Screen,2_3_1_0_1_14,2022-05-03T12:01:54.229Z,,,,,,,,,,,,,,,,,2,,,,,,,,,,,,,,552.0429999642656,,response,,,,1,H,,,,,,Space,keypress(Space),,,,speech,,,,--- ---- ------ --- ------- ---------- ------- ----------<br>--- --------- --- ----------- ------- ----- through ---<br>--------- ---- -- --- ---- -- --------- -- ---- -------<br>-- --------- ------ --- ----- ------ ---- --- --------- --<br>------ - ---- -- --- ----------- ------- ---- ----- -----<br>--- -------- - ------ ---- -- ----- ---- --- --- -----------<br>-- -------,381167.09999996424,381164.59999996424,380596.816,380601.6999999881,380612.557,381177.353,,14,through
screen,html.Screen,2_3_1_0_1_15,2022-05-03T12:01:54.913Z,,,,,,,,,,,,,,,,,2,,,,,,,,,,,,,,672.3469999880763,,response,,,,1,H,,,,,,Space,keypress(Space),,,,speech,,,,--- ---- ------ --- ------- ---------- ------- ----------<br>--- --------- --- ----------- ------- ----- ------- his<br>--------- ---- -- --- ---- -- --------- -- ---- -------<br>-- --------- ------ --- ----- ------ ---- --- --------- --<br>------ - ---- -- --- ----------- ------- ---- ----- -----<br>--- -------- - ------ ---- -- ----- ---- --- --- -----------<br>-- -------,381851.39999997616,381849.6999999881,381162.115,381167.39999997616,381177.353,381859.258,,15,his
screen,html.Screen,2_3_1_0_1_16,2022-05-03T12:01:55.584Z,,,,,,,,,,,,,,,,,2,,,,,,,,,,,,,,660.6419999761856,,response,,,,1,H,,,,,,Space,keypress(Space),,,,speech,,,,--- ---- ------ --- ------- ---------- ------- ----------<br>--- --------- --- ----------- ------- ----- ------- ---<br>telescope ---- -- --- ---- -- --------- -- ---- -------<br>-- --------- ------ --- ----- ------ ---- --- --------- --<br>------ - ---- -- --- ----------- ------- ---- ----- -----<br>--- -------- - ------ ---- -- ----- ---- --- --- -----------<br>-- -------,382521.89999997616,382519.89999997616,381844.136,381851.59999996424,381859.258,382541.02,,16,telescope
screen,html.Screen,2_3_1_0_1_17,2022-05-03T12:01:55.662Z,,,,,,,,,,,,,,,,,2,,,,,,,,,,,,,,56.679999988060445,,response,,,,1,H,,,,,,Space,keypress(Space),,,,speech,,,,--- ---- ------ --- ------- ---------- ------- ----------<br>--- --------- --- ----------- ------- ----- ------- ---<br>--------- when -- --- ---- -- --------- -- ---- -------<br>-- --------- ------ --- ----- ------ ---- --- --------- --<br>------ - ---- -- --- ----------- ------- ---- ----- -----<br>--- -------- - ------ ---- -- ----- ---- --- --- -----------<br>-- -------,382599.6999999881,382597.6999999881,382508.686,382522.1999999881,382541.02,382607.596,,17,when
screen,html.Screen,2_3_1_0_1_18,2022-05-03T12:01:56.235Z,,,,,,,,,,,,,,,,,2,,,,,,,,,,,,,,563.4039999999804,,response,,,,1,H,,,,,,Space,keypress(Space),,,,speech,,,,--- ---- ------ --- ------- ---------- ------- ----------<br>--- --------- --- ----------- ------- ----- ------- ---<br>--------- ---- he --- ---- -- --------- -- ---- -------<br>-- --------- ------ --- ----- ------ ---- --- --------- --<br>------ - ---- -- --- ----------- ------- ---- ----- -----<br>--- -------- - ------ ---- -- ----- ---- --- --- -----------<br>-- -------,383173.1999999881,383171,382590.404,382599.7999999523,382607.596,383188.69,,18,he
screen,html.Screen,2_3_1_0_1_19,2022-05-03T12:01:56.615Z,,,,,,,,,,,,,,,,,2,,,,,,,,,,,,,,362.2099999761558,,response,,,,1,H,,,,,,Space,keypress(Space),,,,speech,,,,--- ---- ------ --- ------- ---------- ------- ----------<br>--- --------- --- ----------- ------- ----- ------- ---<br>--------- ---- -- saw ---- -- --------- -- ---- -------<br>-- --------- ------ --- ----- ------ ---- --- --------- --<br>------ - ---- -- --- ----------- ------- ---- ----- -----<br>--- -------- - ------ ---- -- ----- ---- --- --- -----------<br>-- -------,383552.6999999881,383550.89999997616,383173.375,383173.59999996424,383188.69,383586.494,,19,saw
screen,html.Screen,2_3_1_0_1_20,2022-05-03T12:01:57.102Z,,,,,,,,,,,,,,,,,2,,,,,,,,,,,,,,451.205999988073,,response,,,,1,H,,,,,,Space,keypress(Space),,,,speech,,,,--- ---- ------ --- ------- ---------- ------- ----------<br>--- --------- --- ----------- ------- ----- ------- ---<br>--------- ---- -- --- what -- --------- -- ---- -------<br>-- --------- ------ --- ----- ------ ---- --- --------- --<br>------ - ---- -- --- ----------- ------- ---- ----- -----<br>--- -------- - ------ ---- -- ----- ---- --- --- -----------<br>-- -------,384040,384037.6999999881,383538.462,383552.89999997616,383586.494,384052.985,,20,what
screen,html.Screen,2_3_1_0_1_21,2022-05-03T12:01:57.556Z,,,,,,,,,,,,,,,,,2,,,,,,,,,,,,,,439.21499998809304,,response,,,,1,H,,,,,,Space,keypress(Space),,,,speech,,,,--- ---- ------ --- ------- ---------- ------- ----------<br>--- --------- --- ----------- ------- ----- ------- ---<br>--------- ---- -- --- ---- he --------- -- ---- -------<br>-- --------- ------ --- ----- ------ ---- --- --------- --<br>------ - ---- -- --- ----------- ------- ---- ----- -----<br>--- -------- - ------ ---- -- ----- ---- --- --- -----------<br>-- -------,384493.89999997616,384492.1999999881,384037.432,384040.09999996424,384052.985,384501.858,,21,he
screen,html.Screen,2_3_1_0_1_22,2022-05-03T12:01:57.995Z,,,,,,,,,,,,,,,,,2,,,,,,,,,,,,,,430.64199999999255,,response,,,,1,H,,,,,,Space,keypress(Space),,,,speech,,,,--- ---- ------ --- ------- ---------- ------- ----------<br>--- --------- --- ----------- ------- ----- ------- ---<br>--------- ---- -- --- ---- -- described -- ---- -------<br>-- --------- ------ --- ----- ------ ---- --- --------- --<br>------ - ---- -- --- ----------- ------- ---- ----- -----<br>--- -------- - ------ ---- -- ----- ---- --- --- -----------<br>-- -------,384933.5,384932.5,384486.363,384494.09999996424,384501.858,384950.425,,22,described
screen,html.Screen,2_3_1_0_1_23,2022-05-03T12:01:58.650Z,,,,,,,,,,,,,,,,,2,,,,,,,,,,,,,,635.2749999880907,,response,,,,1,H,,,,,,Space,keypress(Space),,,,speech,,,,--- ---- ------ --- ------- ---------- ------- ----------<br>--- --------- --- ----------- ------- ----- ------- ---<br>--------- ---- -- --- ---- -- --------- as ---- -------<br>-- --------- ------ --- ----- ------ ---- --- --------- --<br>------ - ---- -- --- ----------- ------- ---- ----- -----<br>--- -------- - ------ ---- -- ----- ---- --- --- -----------<br>-- -------,385588.2999999523,385585.6999999881,384918.264,384933.59999996424,384950.425,385598.619,,23,as
screen,html.Screen,2_3_1_0_1_24,2022-05-03T12:01:59.330Z,,,,,,,,,,,,,,,,,2,,,,,,,,,,,,,,667.080999988073,,response,,,,1,H,,,,,,Space,keypress(Space),,,,speech,,,,"--- ---- ------ --- ------- ---------- ------- ----------<br>--- --------- --- ----------- ------- ----- ------- ---<br>--------- ---- -- --- ---- -- --------- -- ""two -------<br>-- --------- ------ --- ----- ------ ---- --- --------- --<br>------ - ---- -- --- ----------- ------- ---- ----- -----<br>--- -------- - ------ ---- -- ----- ---- --- --- -----------<br>-- -------",386268.39999997616,386265.6999999881,385583.804,385588.5,385598.619,386280.116,,24,"""two"
screen,html.Screen,2_3_1_0_1_25,2022-05-03T12:01:59.986Z,,,,,,,,,,,,,,,,,2,,,,,,,,,,,,,,642.38400000002,,response,,,,1,H,,,,,,Space,keypress(Space),,,,speech,,,,--- ---- ------ --- ------- ---------- ------- ----------<br>--- --------- --- ----------- ------- ----- ------- ---<br>--------- ---- -- --- ---- -- --------- -- ---- patches<br>-- --------- ------ --- ----- ------ ---- --- --------- --<br>------ - ---- -- --- ----------- ------- ---- ----- -----<br>--- -------- - ------ ---- -- ----- ---- --- --- -----------<br>-- -------,386924.1999999881,386922.5,386265.415,386268.6999999881,386280.116,386928.44,,25,patches
screen,html.Screen,2_3_1_0_1_26,2022-05-03T12:02:00.383Z,,,,,,,,,,,,,,,,,2,,,,,,,,,,,,,,391.0599999999977,,response,,,,1,H,,,,,,Space,keypress(Space),,,,speech,,,,--- ---- ------ --- ------- ---------- ------- ----------<br>--- --------- --- ----------- ------- ----- ------- ---<br>--------- ---- -- --- ---- -- --------- -- ---- -------<br>of --------- ------ --- ----- ------ ---- --- --------- --<br>------ - ---- -- --- ----------- ------- ---- ----- -----<br>--- -------- - ------ ---- -- ----- ---- --- --- -----------<br>-- -------,387321.1999999881,387319.5,386913.387,386924.39999997616,386928.44,387327.262,,26,of
screen,html.Screen,2_3_1_0_1_27,2022-05-03T12:02:00.631Z,,,,,,,,,,,,,,,,,2,,,,,,,,,,,,,,239.43799998809118,,response,,,,1,H,,,,,,Space,keypress(Space),,,,speech,,,,--- ---- ------ --- ------- ---------- ------- ----------<br>--- --------- --- ----------- ------- ----- ------- ---<br>--------- ---- -- --- ---- -- --------- -- ---- -------<br>-- intensely ------ --- ----- ------ ---- --- --------- --<br>------ - ---- -- --- ----------- ------- ---- ----- -----<br>--- -------- - ------ ---- -- ----- ---- --- --- -----------<br>-- -------,387568.7999999523,387566.6999999881,387311.515,387321.5,387327.262,387576.821,,27,intensely
screen,html.Screen,2_3_1_0_1_28,2022-05-03T12:02:01.026Z,,,,,,,,,,,,,,,,,2,,,,,,,,,,,,,,385.1790000000037,,response,,,,1,H,,,,,,Space,keypress(Space),,,,speech,,,,--- ---- ------ --- ------- ---------- ------- ----------<br>--- --------- --- ----------- ------- ----- ------- ---<br>--------- ---- -- --- ---- -- --------- -- ---- -------<br>-- --------- bright --- ----- ------ ---- --- --------- --<br>------ - ---- -- --- ----------- ------- ---- ----- -----<br>--- -------- - ------ ---- -- ----- ---- --- --- -----------<br>-- -------,387963.89999997616,387962,387560.515,387569,387576.821,387975.458,,28,bright
screen,html.Screen,2_3_1_0_1_29,2022-05-03T12:02:01.481Z,,,,,,,,,,,,,,,,,2,,,,,,,,,,,,,,442.14199996425305,,response,,,,1,H,,,,,,Space,keypress(Space),,,,speech,,,,--- ---- ------ --- ------- ---------- ------- ----------<br>--- --------- --- ----------- ------- ----- ------- ---<br>--------- ---- -- --- ---- -- --------- -- ---- -------<br>-- --------- ------ and ----- ------ ---- --- --------- --<br>------ - ---- -- --- ----------- ------- ---- ----- -----<br>--- -------- - ------ ---- -- ----- ---- --- --- -----------<br>-- -------,388419.5,388417.59999996424,387960,387964.09999996424,387975.458,388424.293,,29,and
screen,html.Screen,2_3_1_0_1_30,2022-05-03T12:02:01.882Z,,,,,,,,,,,,,,,,,2,,,,,,,,,,,,,,393.8069999642321,,response,,,,1,H,,,,,,Space,keypress(Space),,,,speech,,,,--- ---- ------ --- ------- ---------- ------- ----------<br>--- --------- --- ----------- ------- ----- ------- ---<br>--------- ---- -- --- ---- -- --------- -- ---- -------<br>-- --------- ------ --- white ------ ---- --- --------- --<br>------ - ---- -- --- ----------- ------- ---- ----- -----<br>--- -------- - ------ ---- -- ----- ---- --- --- -----------<br>-- -------,388820.1999999881,388818.09999996424,388408.708,388419.59999996424,388424.293,388823.204,,30,white
screen,html.Screen,2_3_1_0_1_31,2022-05-03T12:02:02.331Z,,,,,,,,,,,,,,,,,2,,,,,,,,,,,,,,444.0959999522893,,response,,,,1,H,,,,,,Space,keypress(Space),,,,speech,,,,"--- ---- ------ --- ------- ---------- ------- ----------<br>--- --------- --- ----------- ------- ----- ------- ---<br>--------- ---- -- --- ---- -- --------- -- ---- -------<br>-- --------- ------ --- ----- light"" ---- --- --------- --<br>------ - ---- -- --- ----------- ------- ---- ----- -----<br>--- -------- - ------ ---- -- ----- ---- --- --- -----------<br>-- -------",389269,389267.2999999523,388807.636,388820.39999997616,388823.204,389271.915,,31,"light"""
screen,html.Screen,2_3_1_0_1_32,2022-05-03T12:02:02.858Z,,,,,,,,,,,,,,,,,2,,,,,,,,,,,,,,521.7849999881,,response,,,,1,H,,,,,,Space,keypress(Space),,,,speech,,,,--- ---- ------ --- ------- ---------- ------- ----------<br>--- --------- --- ----------- ------- ----- ------- ---<br>--------- ---- -- --- ---- -- --------- -- ---- -------<br>-- --------- ------ --- ----- ------ over --- --------- --<br>------ - ---- -- --- ----------- ------- ---- ----- -----<br>--- -------- - ------ ---- -- ----- ---- --- --- -----------<br>-- -------,389795.6999999881,389793.6999999881,389256.944,389269.1999999881,389271.915,389803.9,,32,over
screen,html.Screen,2_3_1_0_1_33,2022-05-03T12:02:03.331Z,,,,,,,,,,,,,,,,,2,,,,,,,,,,,,,,463.399999952293,,response,,,,1,H,,,,,,Space,keypress(Space),,,,speech,,,,--- ---- ------ --- ------- ---------- ------- ----------<br>--- --------- --- ----------- ------- ----- ------- ---<br>--------- ---- -- --- ---- -- --------- -- ---- -------<br>-- --------- ------ --- ----- ------ ---- the --------- --<br>------ - ---- -- --- ----------- ------- ---- ----- -----<br>--- -------- - ------ ---- -- ----- ---- --- --- -----------<br>-- -------,390269,390267.2999999523,389788.689,389796.09999996424,389803.9,390302.778,,33,the
screen,html.Screen,2_3_1_0_1_34,2022-05-03T12:02:03.805Z,,,,,,,,,,,,,,,,,2,,,,,,,,,,,,,,438.72200000000885,,response,,,,1,H,,,,,,Space,keypress(Space),,,,speech,,,,--- ---- ------ --- ------- ---------- ------- ----------<br>--- --------- --- ----------- ------- ----- ------- ---<br>--------- ---- -- --- ---- -- --------- -- ---- -------<br>-- --------- ------ --- ----- ------ ---- --- sunspots. --<br>------ - ---- -- --- ----------- ------- ---- ----- -----<br>--- -------- - ------ ---- -- ----- ---- --- --- -----------<br>-- -------,390743.1999999881,390741.5,390285.835,390269.39999997616,390302.778,390751.361,,34,sunspots.
screen,html.Screen,2_3_1_0_1_35,2022-05-03T12:02:04.541Z,,,,,,,,,,,,,,,,,2,,,,,,,,,,,,,,726.0389999761828,,response,,,,1,H,,,,,,Space,keypress(Space),,,,speech,,,,--- ---- ------ --- ------- ---------- ------- ----------<br>--- --------- --- ----------- ------- ----- ------- ---<br>--------- ---- -- --- ---- -- --------- -- ---- -------<br>-- --------- ------ --- ----- ------ ---- --- --------- He<br>------ - ---- -- --- ----------- ------- ---- ----- -----<br>--- -------- - ------ ---- -- ----- ---- --- --- -----------<br>-- -------,391479.2999999523,391477.39999997616,390736.04,390743.39999997616,390751.361,391482.558,,35,He
screen,html.Screen,2_3_1_0_1_36,2022-05-03T12:02:05.191Z,,,,,,,,,,,,,,,,,2,,,,,,,,,,,,,,644.5419999642181,,response,,,,1,H,,,,,,Space,keypress(Space),,,,speech,,,,--- ---- ------ --- ------- ---------- ------- ----------<br>--- --------- --- ----------- ------- ----- ------- ---<br>--------- ---- -- --- ---- -- --------- -- ---- -------<br>-- --------- ------ --- ----- ------ ---- --- --------- --<br>jotted - ---- -- --- ----------- ------- ---- ----- -----<br>--- -------- - ------ ---- -- ----- ---- --- --- -----------<br>-- -------,392129,392127.09999996424,391467.716,391479.59999996424,391482.558,392158.277,,36,jotted
screen,html.Screen,2_3_1_0_1_37,2022-05-03T12:02:05.737Z,,,,,,,,,,,,,,,,,2,,,,,,,,,,,,,,514.8229999642354,,response,,,,1,H,,,,,,Space,keypress(Space),,,,speech,,,,--- ---- ------ --- ------- ---------- ------- ----------<br>--- --------- --- ----------- ------- ----- ------- ---<br>--------- ---- -- --- ---- -- --------- -- ---- -------<br>-- --------- ------ --- ----- ------ ---- --- --------- --<br>------ a ---- -- --- ----------- ------- ---- ----- -----<br>--- -------- - ------ ---- -- ----- ---- --- --- -----------<br>-- -------,392674.6999999881,392673.09999996424,392115.885,392129.2999999523,392158.277,392679.317,,37,a
screen,html.Screen,2_3_1_0_1_38,2022-05-03T12:02:06.225Z,,,,,,,,,,,,,,,,,2,,,,,,,,,,,,,,481.2829999642563,,response,,,,1,H,,,,,,Space,keypress(Space),,,,speech,,,,--- ---- ------ --- ------- ---------- ------- ----------<br>--- --------- --- ----------- ------- ----- ------- ---<br>--------- ---- -- --- ---- -- --------- -- ---- -------<br>-- --------- ------ --- ----- ------ ---- --- --------- --<br>------ - note -- --- ----------- ------- ---- ----- -----<br>--- -------- - ------ ---- -- ----- ---- --- --- -----------<br>-- -------,393163.1999999881,393160.59999996424,392664.02,392675,392679.317,393178.179,,38,note
