sender,sender_type,sender_id,timestamp,meta,,Blues,Classical,Country,Dance,Electronic,Folk,Gospel,Hip-Hop,Jazz,Latin,Musical/Film,New-age,Pop,Prolific_id,Provo_ID,R&B,Rap,Reggae,Religious,Rock,Soul,Swing,Traditional,age,artist_name,correct,correctResponse,distraction,duration,education,ended_on,familiarity,gender,headphone_check_performance,item,list,music_frequency,offensiveness,pleasantness,position_correct,preference,response,response_action,snippet_file,song_name,song_rating,sound,stimulus_1,stimulus_2,stimulus_3,text,time_commit,time_end,time_render,time_run,time_show,time_switch,url,word,word_ID
Prolific ID,html.Form,0,2022-05-10T16:26:40.225Z,"{""labjs_version"":""20.2.2"",""labjs_build"":{""flavor"":""production"",""commit"":""a25486e0c714a0ae2ce03ff94b7bb6896854dcfa""},""location"":""https://run.pavlovia.org/mvasilev/prolific3_music_b/"",""userAgent"":""Mozilla/5.0 (Windows NT 10.0; Win64; x64) AppleWebKit/537.36 (KHTML, like Gecko) Chrome/101.0.4951.54 Safari/537.36"",""platform"":""Win32"",""language"":""en-GB"",""locale"":""en-GB"",""timeZone"":""Europe/London"",""timezoneOffset"":-60,""screen_width"":1280,""screen_height"":720,""scroll_width"":1280,""scroll_height"":553,""window_innerWidth"":1280,""window_innerHeight"":601,""devicePixelRatio"":1.5}",,,,,,,,,,,,,,,60b0015eb67dca63ffe16ae0,,,,,,,,,,,,,,,2917.1419999970167,,form submission,,,,,,,,,,,,,,,,,,,,,38746.59999999404,38746.29999999702,35812.662,21641.29999999702,35829.158,38760.172,{},,
Introduction,html.Screen,1_0,2022-05-10T16:27:30.214Z,,,,,,,,,,,,,,,,,,,,,,,,,,,,,,,49971.12799999702,,response,,,,,,,,,,,continue,click button,,,,,,,,,88736.5,88731.29999999702,38743.593,38746.79999999702,38760.172,88735.754,,,
Volume calibration,html.Screen,1_1,2022-05-10T16:28:04.694Z,,,,,,,,,,,,,,,,,,,,,,,,,,,,,,,34476.246,,response,,,,,,,,,,,continue,click button,,,,,,,,,123216.29999999702,123212,88719.133,88736.59999999404,88735.754,123224.01,,,
Task instructions,html.Screen,1_2,2022-05-10T16:28:09.369Z,,,,,,,,,,,,,,,,,,,,,,,,,,,,,,,4665.490000000005,,response,,,,,,,,,,,continue,click button,,,,,,,,,127891.20000000298,127889.5,123207.542,123216.29999999702,123224.01,127903.561,,,
Sounds,html.Screen,1_3_0_0,2022-05-10T16:28:13.615Z,,,,,,,,,,,,,,,,,,,,,,,,,,,,,,,4246.651999999987,,timeout,,,,,,,,,1,,,,,,,,S,O,I,,132137.09999999404,132133.429,127887.019,127891.40000000596,127903.561,132150.213,,,
Judgement,html.Screen,1_3_0_1,2022-05-10T16:28:15.736Z,,,,,,,,,,,,,,,,,,,,,,,,,,,,true,1,,2106.3869999940507,,response,,,,,,,,,1,,1,click #choice-1,,,,,S,O,I,,134258.40000000596,134256.59999999404,132133.429,132137.5,132150.213,134264.974,,,
Trial,flow.Sequence,1_3_0,2022-05-10T16:28:15.736Z,,,,,,,,,,,,,,,,,,,,,,,,,,,,,,,6353.038999994038,,completion,,,,,,,,,1,,,,,,,,S,O,I,,134258.59999999404,134256.59999999404,127887.019,127891.29999999702,127903.561,134264.974,,,
Sounds,html.Screen,1_3_1_0,2022-05-10T16:28:19.974Z,,,,,,,,,,,,,,,,,,,,,,,,,,,,,,,4246.534000000014,,timeout,,,,,,,,,2,,,,,,,,I,S,O,,138496,138494.95,134248.501,134258.79999999702,134264.974,138511.508,,,
Judgement,html.Screen,1_3_1_1,2022-05-10T16:28:20.602Z,,,,,,,,,,,,,,,,,,,,,,,,,,,,true,2,,610.9919999999984,,response,,,,,,,,,2,,2,click #choice-2,,,,,I,S,O,,139124.79999999702,139122.5,138494.95,138496.20000000298,138511.508,139127.44,,,
Trial,flow.Sequence,1_3_1,2022-05-10T16:28:20.603Z,,,,,,,,,,,,,,,,,,,,,,,,,,,,,,,4857.526000000013,,completion,,,,,,,,,2,,,,,,,,I,S,O,,139125,139122.5,134248.501,134258.79999999702,134264.974,139127.44,,,
Sounds,html.Screen,1_3_2_0,2022-05-10T16:28:24.837Z,,,,,,,,,,,,,,,,,,,,,,,,,,,,,,,4246.747999999992,,timeout,,,,,,,,,3,,,,,,,,O,I,S,,143359.40000000596,143357.659,139111.116,139125.20000000298,139127.44,143374.188,,,
Judgement,html.Screen,1_3_2_1,2022-05-10T16:28:25.723Z,,,,,,,,,,,,,,,,,,,,,,,,,,,,true,3,,869.8120000000054,,response,,,,,,,,,3,,3,click #choice-3,,,,,O,I,S,,144245.79999999702,144244,143357.659,143359.59999999404,143374.188,144256.818,,,
Trial,flow.Sequence,1_3_2,2022-05-10T16:28:25.724Z,,,,,,,,,,,,,,,,,,,,,,,,,,,,,,,5116.559999999998,,completion,,,,,,,,,3,,,,,,,,O,I,S,,144246.09999999404,144244,139111.116,139125.20000000298,139127.44,144256.818,,,
Sounds,html.Screen,1_3_3_0,2022-05-10T16:28:29.966Z,,,,,,,,,,,,,,,,,,,,,,,,,,,,,,,4246.478000000003,,timeout,,,,,,,,,3,,,,,,,,I,O,S,,148487.70000000298,148486.634,144239.916,144246.20000000298,144256.818,148503.296,,,
Judgement,html.Screen,1_3_3_1,2022-05-10T16:28:30.523Z,,,,,,,,,,,,,,,,,,,,,,,,,,,,true,3,,539.7039999999979,,response,,,,,,,,,3,,3,click #choice-3,,,,,I,O,S,,149044.79999999702,149043,148486.634,148487.90000000596,148503.296,149052.932,,,
Trial,flow.Sequence,1_3_3,2022-05-10T16:28:30.523Z,,,,,,,,,,,,,,,,,,,,,,,,,,,,,,,4786.182000000001,,completion,,,,,,,,,3,,,,,,,,I,O,S,,149045,149043,144239.916,144246.20000000298,144256.818,149052.932,,,
Sounds,html.Screen,1_3_4_0,2022-05-10T16:28:34.762Z,,,,,,,,,,,,,,,,,,,,,,,,,,,,,,,4246.396000000008,,timeout,,,,,,,,,1,,,,,,,,S,I,O,,153284,153282.744,149036.38,149045.20000000298,149052.932,153299.328,,,
Judgement,html.Screen,1_3_4_1,2022-05-10T16:28:36.897Z,,,,,,,,,,,,,,,,,,,,,,,,,,,,true,1,,2117.572000005952,,response,,,,,,,,,1,,1,click #choice-1,,,,,S,I,O,,155418.29999999702,155416.90000000596,153282.744,153284.09999999404,153299.328,155430.876,,,
Trial,flow.Sequence,1_3_4,2022-05-10T16:28:36.897Z,,,,,,,,,,,,,,,,,,,,,,,,,,,,,,,6363.96800000596,,completion,,,,,,,,,1,,,,,,,,S,I,O,,155418.59999999404,155416.90000000596,149036.38,149045.20000000298,149052.932,155430.876,,,
Sounds,html.Screen,1_3_5_0,2022-05-10T16:28:41.140Z,,,,,,,,,,,,,,,,,,,,,,,,,,,,,,,4246.613000000012,,timeout,,,,,,,,,2,,,,,,,,O,S,I,,159661.79999999702,159660.689,155414.432,155418.70000000298,155430.876,159677.489,,,
Judgement,html.Screen,1_3_5_1,2022-05-10T16:28:41.755Z,,,,,,,,,,,,,,,,,,,,,,,,,,,,true,2,,597.6109999940381,,response,,,,,,,,,2,,2,click #choice-2,,,,,O,S,I,,160277.20000000298,160275.09999999404,159660.689,159661.90000000596,159677.489,160305.155,,,
Trial,flow.Sequence,1_3_5,2022-05-10T16:28:41.756Z,,,,,,,,,,,,,,,,,,,,,,,,,,,,,,,4844.22399999405,,completion,,,,,,,,,2,,,,,,,,O,S,I,,160277.5,160275.09999999404,155414.432,155418.70000000298,155430.876,160305.155,,,
Task,flow.Loop,1_3,2022-05-10T16:28:41.760Z,,,,,,,,,,,,,,,,,,,,,,,,,,,,,,,32371.538999994038,,completion,,,1,,,,,,,,,,,,,,,,,,160281.70000000298,160275.09999999404,127887.019,127891.29999999702,127903.561,160305.155,,,
Trap,html.Screen,1_4,2022-05-10T16:28:41.761Z,,,,,,,,,,,,,,,,,,,,,,,,,,,,,,,NaN,,skipped,,,,,,,,,,,,,,,,,,,,,160282.70000000298,160275.09999999404,,160282.59999999404,,160305.155,,,
Thanks,html.Screen,1_5,2022-05-10T16:28:45.203Z,,,,,,,,,,,,,,,,,,,,,,,,,,,,,,,3418.144999997021,,response,,,,,,,,,,,continue,click button,,,,,,,,,163725,163723.29999999702,160260.248,160282.70000000298,160305.155,170201.964,,,
Headphone screening,flow.Sequence,1,2022-05-10T16:28:45.203Z,,,,,,,,,,,,,,,,,,,,,,,,,,,,,,,124963.12799999703,,completion,,,,,,,,,,,,,,,,,,,,,163725.20000000298,163723.29999999702,38743.593,38746.79999999702,38760.172,170201.964,,,
Instructions,html.Page,2_0,2022-05-10T16:28:56.215Z,,,,,,,,,,,,,,,,,,,,,,,,,,,,,,,4534.035999999993,,form submission,,,,,,,,,,,,,,,,,,,,,174736.40000000596,174736,170185.573,170189,170201.964,174748.144,,,
Holding screen,html.Screen,2_1_0_0,2022-05-10T16:29:06.203Z,,,,,,,,,,,,,,,,,,,,,,,,,,,,,,,9991.988000000012,,timeout,,,,,,,,,,,,,,,,,,,,,184724.70000000298,184723.508,174731.478,174736.5,174748.144,184740.132,,,
screen,html.Screen,2_1_0_1_0,2022-05-10T16:29:06.949Z,,,,,,,,,,,,,,,,,53,,,,,,,,,,,,,,726.9679999940272,,response,,,,99,,,,,,,Space,keypress(Space),,,,,,,,When -- ----- -- ------ - ------- --- ----------<br>------------- ------ ------ ---- ---- ------- ----- -- ----<br>-------- ------- -- ---------- --- - --- ----- ----- ----<br>---- --- --- ----- --- ---- ---- ------- ----- ---- -------<br>--- --- -- ----- -- --- ---- -- --- ---- -- ------ ------<br>--- ----- -- ----,185471,185467.09999999404,184723.508,184724.90000000596,184740.132,185504.034,,0,When
screen,html.Screen,2_1_0_1_1,2022-05-10T16:29:07.401Z,,,,,,,,,,,,,,,,,53,,,,,,,,,,,,,,417.16600000296603,,response,,,,99,,,,,,,Space,keypress(Space),,,,,,,,---- it ----- -- ------ - ------- --- ----------<br>------------- ------ ------ ---- ---- ------- ----- -- ----<br>-------- ------- -- ---------- --- - --- ----- ----- ----<br>---- --- --- ----- --- ---- ---- ------- ----- ---- -------<br>--- --- -- ----- -- --- ---- -- --- ---- -- ------ ------<br>--- ----- -- ----,185922.29999999702,185921.20000000298,185456.326,185471.40000000596,185504.034,185939.324,,1,it
screen,html.Screen,2_1_0_1_2,2022-05-10T16:29:07.786Z,,,,,,,,,,,,,,,,,53,,,,,,,,,,,,,,366.9759999970265,,response,,,,99,,,,,,,Space,keypress(Space),,,,,,,,---- -- comes -- ------ - ------- --- ----------<br>------------- ------ ------ ---- ---- ------- ----- -- ----<br>-------- ------- -- ---------- --- - --- ----- ----- ----<br>---- --- --- ----- --- ---- ---- ------- ----- ---- -------<br>--- --- -- ----- -- --- ---- -- --- ---- -- ------ ------<br>--- ----- -- ----,186307.29999999702,186306.29999999702,185922.73,185922.59999999404,185939.324,186322.176,,2,comes
screen,html.Screen,2_1_0_1_3,2022-05-10T16:29:08.078Z,,,,,,,,,,,,,,,,,53,,,,,,,,,,,,,,275.9239999940328,,response,,,,99,,,,,,,Space,keypress(Space),,,,,,,,---- -- ----- to ------ - ------- --- ----------<br>------------- ------ ------ ---- ---- ------- ----- -- ----<br>-------- ------- -- ---------- --- - --- ----- ----- ----<br>---- --- --- ----- --- ---- ---- ------- ----- ---- -------<br>--- --- -- ----- -- --- ---- -- --- ---- -- ------ ------<br>--- ----- -- ----,186599.29999999702,186598.09999999404,186305.729,186307.79999999702,186322.176,186605.149,,3,to
screen,html.Screen,2_1_0_1_4,2022-05-10T16:29:08.311Z,,,,,,,,,,,,,,,,,53,,,,,,,,,,,,,,227.15099999701488,,response,,,,99,,,,,,,Space,keypress(Space),,,,,,,,---- -- ----- -- having - ------- --- ----------<br>------------- ------ ------ ---- ---- ------- ----- -- ----<br>-------- ------- -- ---------- --- - --- ----- ----- ----<br>---- --- --- ----- --- ---- ---- ------- ----- ---- -------<br>--- --- -- ----- -- --- ---- -- --- ---- -- ------ ------<br>--- ----- -- ----,186833.09999999404,186832.29999999702,186588.832,186599.5,186605.149,186838.2,,4,having
screen,html.Screen,2_1_0_1_5,2022-05-10T16:29:08.600Z,,,,,,,,,,,,,,,,,53,,,,,,,,,,,,,,282.29999999998836,,response,,,,99,,,,,,,Space,keypress(Space),,,,,,,,---- -- ----- -- ------ a ------- --- ----------<br>------------- ------ ------ ---- ---- ------- ----- -- ----<br>-------- ------- -- ---------- --- - --- ----- ----- ----<br>---- --- --- ----- --- ---- ---- ------- ----- ---- -------<br>--- --- -- ----- -- --- ---- -- --- ---- -- ------ ------<br>--- ----- -- ----,187121.5,187120.5,186821.865,186833.29999999702,186838.2,187138.326,,5,a
screen,html.Screen,2_1_0_1_6,2022-05-10T16:29:08.925Z,,,,,,,,,,,,,,,,,53,,,,,,,,,,,,,,307.8740000029793,,response,,,,99,,,,,,,Space,keypress(Space),,,,,,,,---- -- ----- -- ------ - lasting --- ----------<br>------------- ------ ------ ---- ---- ------- ----- -- ----<br>-------- ------- -- ---------- --- - --- ----- ----- ----<br>---- --- --- ----- --- ---- ---- ------- ----- ---- -------<br>--- --- -- ----- -- --- ---- -- --- ---- -- ------ ------<br>--- ----- -- ----,187447.09999999404,187446.20000000298,187121.499,187121.70000000298,187138.326,187454.748,,6,lasting
screen,html.Screen,2_1_0_1_7,2022-05-10T16:29:09.251Z,,,,,,,,,,,,,,,,,53,,,,,,,,,,,,,,316.7520000000077,,response,,,,99,,,,,,,Space,keypress(Space),,,,,,,,---- -- ----- -- ------ - ------- and ----------<br>------------- ------ ------ ---- ---- ------- ----- -- ----<br>-------- ------- -- ---------- --- - --- ----- ----- ----<br>---- --- --- ----- --- ---- ---- ------- ----- ---- -------<br>--- --- -- ----- -- --- ---- -- --- ---- -- ------ ------<br>--- ----- -- ----,187772.5,187771.5,187437.897,187447.20000000298,187454.748,187787.807,,7,and
screen,html.Screen,2_1_0_1_8,2022-05-10T16:29:09.547Z,,,,,,,,,,,,,,,,,53,,,,,,,,,,,,,,280.09300000595977,,response,,,,99,,,,,,,Space,keypress(Space),,,,,,,,---- -- ----- -- ------ - ------- --- fulfilling<br>------------- ------ ------ ---- ---- ------- ----- -- ----<br>-------- ------- -- ---------- --- - --- ----- ----- ----<br>---- --- --- ----- --- ---- ---- ------- ----- ---- -------<br>--- --- -- ----- -- --- ---- -- --- ---- -- ------ ------<br>--- ----- -- ----,188068.70000000298,188067.90000000596,187770.907,187772.5,187787.807,188091.275,,8,fulfilling
screen,html.Screen,2_1_0_1_9,2022-05-10T16:29:09.815Z,,,,,,,,,,,,,,,,,53,,,,,,,,,,,,,,243.92500000298605,,response,,,,99,,,,,,,Space,keypress(Space),,,,,,,,"---- -- ----- -- ------ - ------- --- ----------<br>relationship, ------ ------ ---- ---- ------- ----- -- ----<br>-------- ------- -- ---------- --- - --- ----- ----- ----<br>---- --- --- ----- --- ---- ---- ------- ----- ---- -------<br>--- --- -- ----- -- --- ---- -- --- ---- -- ------ ------<br>--- ----- -- ----",188336.5,188335.20000000298,188054.197,188068.79999999702,188091.275,188353.878,,9,"relationship,"
screen,html.Screen,2_1_0_1_10,2022-05-10T16:29:10.182Z,,,,,,,,,,,,,,,,,53,,,,,,,,,,,,,,349.122000000003,,response,,,,99,,,,,,,Space,keypress(Space),,,,,,,,---- -- ----- -- ------ - ------- --- ----------<br>------------- common ------ ---- ---- ------- ----- -- ----<br>-------- ------- -- ---------- --- - --- ----- ----- ----<br>---- --- --- ----- --- ---- ---- ------- ----- ---- -------<br>--- --- -- ----- -- --- ---- -- --- ---- -- ------ ------<br>--- ----- -- ----,188704.20000000298,188703,188337.163,188336.59999999404,188353.878,188720.372,,10,common
screen,html.Screen,2_1_0_1_11,2022-05-10T16:29:10.621Z,,,,,,,,,,,,,,,,,53,,,,,,,,,,,,,,421.8280000029772,,response,,,,99,,,,,,,Space,keypress(Space),,,,,,,,---- -- ----- -- ------ - ------- --- ----------<br>------------- ------ wisdom ---- ---- ------- ----- -- ----<br>-------- ------- -- ---------- --- - --- ----- ----- ----<br>---- --- --- ----- --- ---- ---- ------- ----- ---- -------<br>--- --- -- ----- -- --- ---- -- --- ---- -- ------ ------<br>--- ----- -- ----,189143.09999999404,189142.20000000298,188703.432,188704.40000000596,188720.372,189153.186,,11,wisdom
screen,html.Screen,2_1_0_1_12,2022-05-10T16:29:10.919Z,,,,,,,,,,,,,,,,,53,,,,,,,,,,,,,,286.6139999970328,,response,,,,99,,,,,,,Space,keypress(Space),,,,,,,,---- -- ----- -- ------ - ------- --- ----------<br>------------- ------ ------ says ---- ------- ----- -- ----<br>-------- ------- -- ---------- --- - --- ----- ----- ----<br>---- --- --- ----- --- ---- ---- ------- ----- ---- -------<br>--- --- -- ----- -- --- ---- -- --- ---- -- ------ ------<br>--- ----- -- ----,189440.90000000596,189439.79999999702,189136.573,189143.09999999404,189153.186,189452.869,,12,says
screen,html.Screen,2_1_0_1_13,2022-05-10T16:29:11.301Z,,,,,,,,,,,,,,,,,53,,,,,,,,,,,,,,368.8310000029742,,response,,,,99,,,,,,,Space,keypress(Space),,,,,,,,---- -- ----- -- ------ - ------- --- ----------<br>------------- ------ ------ ---- that ------- ----- -- ----<br>-------- ------- -- ---------- --- - --- ----- ----- ----<br>---- --- --- ----- --- ---- ---- ------- ----- ---- -------<br>--- --- -- ----- -- --- ---- -- --- ---- -- ------ ------<br>--- ----- -- ----,189822.79999999702,189821.70000000298,189436.344,189441.20000000298,189452.869,189835.988,,13,that
screen,html.Screen,2_1_0_1_14,2022-05-10T16:29:11.559Z,,,,,,,,,,,,,,,,,53,,,,,,,,,,,,,,243.81199999700766,,response,,,,99,,,,,,,Space,keypress(Space),,,,,,,,---- -- ----- -- ------ - ------- --- ----------<br>------------- ------ ------ ---- ---- feeling ----- -- ----<br>-------- ------- -- ---------- --- - --- ----- ----- ----<br>---- --- --- ----- --- ---- ---- ------- ----- ---- -------<br>--- --- -- ----- -- --- ---- -- --- ---- -- ------ ------<br>--- ----- -- ----,190081,190079.79999999702,189819.491,189822.90000000596,189835.988,190085.53,,14,feeling
screen,html.Screen,2_1_0_1_15,2022-05-10T16:29:11.857Z,,,,,,,,,,,,,,,,,53,,,,,,,,,,,,,,291.76999999702093,,response,,,,99,,,,,,,Space,keypress(Space),,,,,,,,---- -- ----- -- ------ - ------- --- ----------<br>------------- ------ ------ ---- ---- ------- close -- ----<br>-------- ------- -- ---------- --- - --- ----- ----- ----<br>---- --- --- ----- --- ---- ---- ------- ----- ---- -------<br>--- --- -- ----- -- --- ---- -- --- ---- -- ------ ------<br>--- ----- -- ----,190378.29999999702,190377.29999999702,190069.151,190081.09999999404,190085.53,190385.594,,15,close
screen,html.Screen,2_1_0_1_16,2022-05-10T16:29:12.114Z,,,,,,,,,,,,,,,,,53,,,,,,,,,,,,,,249.40599999998813,,response,,,,99,,,,,,,Space,keypress(Space),,,,,,,,---- -- ----- -- ------ - ------- --- ----------<br>------------- ------ ------ ---- ---- ------- ----- to ----<br>-------- ------- -- ---------- --- - --- ----- ----- ----<br>---- --- --- ----- --- ---- ---- ------- ----- ---- -------<br>--- --- -- ----- -- --- ---- -- --- ---- -- ------ ------<br>--- ----- -- ----,190636.09999999404,190635,190369.065,190378.59999999404,190385.594,190651.826,,16,to
screen,html.Screen,2_1_0_1_17,2022-05-10T16:29:12.545Z,,,,,,,,,,,,,,,,,53,,,,,,,,,,,,,,413.7739999940386,,response,,,,99,,,,,,,Space,keypress(Space),,,,,,,,---- -- ----- -- ------ - ------- --- ----------<br>------------- ------ ------ ---- ---- ------- ----- -- your<br>-------- ------- -- ---------- --- - --- ----- ----- ----<br>---- --- --- ----- --- ---- ---- ------- ----- ---- -------<br>--- --- -- ----- -- --- ---- -- --- ---- -- ------ ------<br>--- ----- -- ----,191067.29999999702,191065.59999999404,190635.361,190636.29999999702,190651.826,191085.066,,17,your
screen,html.Screen,2_1_0_1_18,2022-05-10T16:29:12.883Z,,,,,,,,,,,,,,,,,53,,,,,,,,,,,,,,318.5339999940479,,response,,,,99,,,,,,,Space,keypress(Space),,,,,,,,---- -- ----- -- ------ - ------- --- ----------<br>------------- ------ ------ ---- ---- ------- ----- -- ----<br>romantic ------- -- ---------- --- - --- ----- ----- ----<br>---- --- --- ----- --- ---- ---- ------- ----- ---- -------<br>--- --- -- ----- -- --- ---- -- --- ---- -- ------ ------<br>--- ----- -- ----,191404.5,191403.59999999404,191051.851,191067.40000000596,191085.066,191418.155,,18,romantic
screen,html.Screen,2_1_0_1_19,2022-05-10T16:29:13.475Z,,,,,,,,,,,,,,,,,53,,,,,,,,,,,,,,577.9449999940407,,response,,,,99,,,,,,,Space,keypress(Space),,,,,,,,---- -- ----- -- ------ - ------- --- ----------<br>------------- ------ ------ ---- ---- ------- ----- -- ----<br>-------- partner -- ---------- --- - --- ----- ----- ----<br>---- --- --- ----- --- ---- ---- ------- ----- ---- -------<br>--- --- -- ----- -- --- ---- -- --- ---- -- ------ ------<br>--- ----- -- ----,191997.29999999702,191996.09999999404,191401.549,191404.70000000298,191418.155,192000.702,,19,partner
screen,html.Screen,2_1_0_1_20,2022-05-10T16:29:13.716Z,,,,,,,,,,,,,,,,,53,,,,,,,,,,,,,,235.99800000299,,response,,,,99,,,,,,,Space,keypress(Space),,,,,,,,---- -- ----- -- ------ - ------- --- ----------<br>------------- ------ ------ ---- ---- ------- ----- -- ----<br>-------- ------- is ---------- --- - --- ----- ----- ----<br>---- --- --- ----- --- ---- ---- ------- ----- ---- -------<br>--- --- -- ----- -- --- ---- -- --- ---- -- ------ ------<br>--- ----- -- ----,192237.90000000596,192236.70000000298,191984.302,191997.40000000596,192000.702,192250.798,,20,is
screen,html.Screen,2_1_0_1_21,2022-05-10T16:29:13.937Z,,,,,,,,,,,,,,,,,53,,,,,,,,,,,,,,207.00199999701,,response,,,,99,,,,,,,Space,keypress(Space),,,,,,,,---- -- ----- -- ------ - ------- --- ----------<br>------------- ------ ------ ---- ---- ------- ----- -- ----<br>-------- ------- -- paramount. --- - --- ----- ----- ----<br>---- --- --- ----- --- ---- ---- ------- ----- ---- -------<br>--- --- -- ----- -- --- ---- -- --- ---- -- ------ ------<br>--- ----- -- ----,192459,192457.79999999702,192234.175,192238.09999999404,192250.798,192467.265,,21,paramount.
screen,html.Screen,2_1_0_1_22,2022-05-10T16:29:14.253Z,,,,,,,,,,,,,,,,,53,,,,,,,,,,,,,,306.23499999998603,,response,,,,99,,,,,,,Space,keypress(Space),,,,,,,,---- -- ----- -- ------ - ------- --- ----------<br>------------- ------ ------ ---- ---- ------- ----- -- ----<br>-------- ------- -- ---------- But - --- ----- ----- ----<br>---- --- --- ----- --- ---- ---- ------- ----- ---- -------<br>--- --- -- ----- -- --- ---- -- --- ---- -- ------ ------<br>--- ----- -- ----,192774.70000000298,192773.5,192450.51,192459.09999999404,192467.265,192783.369,,22,But
screen,html.Screen,2_1_0_1_23,2022-05-10T16:29:14.525Z,,,,,,,,,,,,,,,,,53,,,,,,,,,,,,,,262.63099999999395,,response,,,,99,,,,,,,Space,keypress(Space),,,,,,,,---- -- ----- -- ------ - ------- --- ----------<br>------------- ------ ------ ---- ---- ------- ----- -- ----<br>-------- ------- -- ---------- --- a --- ----- ----- ----<br>---- --- --- ----- --- ---- ---- ------- ----- ---- -------<br>--- --- -- ----- -- --- ---- -- --- ---- -- ------ ------<br>--- ----- -- ----,193047.20000000298,193046,192766.989,192774.70000000298,192783.369,193049.901,,23,a
screen,html.Screen,2_1_0_1_24,2022-05-10T16:29:14.738Z,,,,,,,,,,,,,,,,,53,,,,,,,,,,,,,,209.3989999970072,,response,,,,99,,,,,,,Space,keypress(Space),,,,,,,,---- -- ----- -- ------ - ------- --- ----------<br>------------- ------ ------ ---- ---- ------- ----- -- ----<br>-------- ------- -- ---------- --- - new ----- ----- ----<br>---- --- --- ----- --- ---- ---- ------- ----- ---- -------<br>--- --- -- ----- -- --- ---- -- --- ---- -- ------ ------<br>--- ----- -- ----,193260.29999999702,193259.29999999702,193033.383,193047.40000000596,193049.901,193266.219,,24,new
screen,html.Screen,2_1_0_1_25,2022-05-10T16:29:15.082Z,,,,,,,,,,,,,,,,,53,,,,,,,,,,,,,,336.5809999970079,,response,,,,99,,,,,,,Space,keypress(Space),,,,,,,,---- -- ----- -- ------ - ------- --- ----------<br>------------- ------ ------ ---- ---- ------- ----- -- ----<br>-------- ------- -- ---------- --- - --- study ----- ----<br>---- --- --- ----- --- ---- ---- ------- ----- ---- -------<br>--- --- -- ----- -- --- ---- -- --- ---- -- ------ ------<br>--- ----- -- ----,193604,193602.79999999702,193249.972,193261.79999999702,193266.219,193616.365,,25,study
screen,html.Screen,2_1_0_1_26,2022-05-10T16:29:15.289Z,,,,,,,,,,,,,,,,,53,,,,,,,,,,,,,,193.6350000000093,,response,,,,99,,,,,,,Space,keypress(Space),,,,,,,,---- -- ----- -- ------ - ------- --- ----------<br>------------- ------ ------ ---- ---- ------- ----- -- ----<br>-------- ------- -- ---------- --- - --- ----- finds ----<br>---- --- --- ----- --- ---- ---- ------- ----- ---- -------<br>--- --- -- ----- -- --- ---- -- --- ---- -- ------ ------<br>--- ----- -- ----,193811.20000000298,193810,193599.578,193604.09999999404,193616.365,193815.967,,26,finds
screen,html.Screen,2_1_0_1_27,2022-05-10T16:29:15.635Z,,,,,,,,,,,,,,,,,53,,,,,,,,,,,,,,339.23300000297604,,response,,,,99,,,,,,,Space,keypress(Space),,,,,,,,---- -- ----- -- ------ - ------- --- ----------<br>------------- ------ ------ ---- ---- ------- ----- -- ----<br>-------- ------- -- ---------- --- - --- ----- ----- that<br>---- --- --- ----- --- ---- ---- ------- ----- ---- -------<br>--- --- -- ----- -- --- ---- -- --- ---- -- ------ ------<br>--- ----- -- ----,194156.29999999702,194155.20000000298,193799.323,193811.29999999702,193815.967,194165.746,,27,that
screen,html.Screen,2_1_0_1_28,2022-05-10T16:29:15.881Z,,,,,,,,,,,,,,,,,53,,,,,,,,,,,,,,235.8539999940258,,response,,,,99,,,,,,,Space,keypress(Space),,,,,,,,---- -- ----- -- ------ - ------- --- ----------<br>------------- ------ ------ ---- ---- ------- ----- -- ----<br>-------- ------- -- ---------- --- - --- ----- ----- ----<br>it's --- --- ----- --- ---- ---- ------- ----- ---- -------<br>--- --- -- ----- -- --- ---- -- --- ---- -- ------ ------<br>--- ----- -- ----,194402.70000000298,194401.59999999404,194149.088,194156.40000000596,194165.746,194415.593,,28,it's
screen,html.Screen,2_1_0_1_29,2022-05-10T16:29:16.120Z,,,,,,,,,,,,,,,,,53,,,,,,,,,,,,,,225.50699999404605,,response,,,,99,,,,,,,Space,keypress(Space),,,,,,,,---- -- ----- -- ------ - ------- --- ----------<br>------------- ------ ------ ---- ---- ------- ----- -- ----<br>-------- ------- -- ---------- --- - --- ----- ----- ----<br>---- not --- ----- --- ---- ---- ------- ----- ---- -------<br>--- --- -- ----- -- --- ---- -- --- ---- -- ------ ------<br>--- ----- -- ----,194642.20000000298,194641.09999999404,194399.009,194402.79999999702,194415.593,194648.598,,29,not
screen,html.Screen,2_1_0_1_30,2022-05-10T16:29:16.406Z,,,,,,,,,,,,,,,,,53,,,,,,,,,,,,,,277.70199999702163,,response,,,,99,,,,,,,Space,keypress(Space),,,,,,,,---- -- ----- -- ------ - ------- --- ----------<br>------------- ------ ------ ---- ---- ------- ----- -- ----<br>-------- ------- -- ---------- --- - --- ----- ----- ----<br>---- --- how ----- --- ---- ---- ------- ----- ---- -------<br>--- --- -- ----- -- --- ---- -- --- ---- -- ------ ------<br>--- ----- -- ----,194927.5,194926.29999999702,194632.226,194642.40000000596,194648.598,194931.696,,30,how
screen,html.Screen,2_1_0_1_31,2022-05-10T16:29:16.654Z,,,,,,,,,,,,,,,,,53,,,,,,,,,,,,,,243.30400000000373,,response,,,,99,,,,,,,Space,keypress(Space),,,,,,,,---- -- ----- -- ------ - ------- --- ----------<br>------------- ------ ------ ---- ---- ------- ----- -- ----<br>-------- ------- -- ---------- --- - --- ----- ----- ----<br>---- --- --- close --- ---- ---- ------- ----- ---- -------<br>--- --- -- ----- -- --- ---- -- --- ---- -- ------ ------<br>--- ----- -- ----,195175.90000000596,195175,194915.275,194927.59999999404,194931.696,195181.548,,31,close
screen,html.Screen,2_1_0_1_32,2022-05-10T16:29:16.860Z,,,,,,,,,,,,,,,,,53,,,,,,,,,,,,,,199.25199999701,,response,,,,99,,,,,,,Space,keypress(Space),,,,,,,,---- -- ----- -- ------ - ------- --- ----------<br>------------- ------ ------ ---- ---- ------- ----- -- ----<br>-------- ------- -- ---------- --- - --- ----- ----- ----<br>---- --- --- ----- you ---- ---- ------- ----- ---- -------<br>--- --- -- ----- -- --- ---- -- --- ---- -- ------ ------<br>--- ----- -- ----,195382,195380.79999999702,195165.089,195176.09999999404,195181.548,195398.085,,32,you
screen,html.Screen,2_1_0_1_33,2022-05-10T16:29:17.104Z,,,,,,,,,,,,,,,,,53,,,,,,,,,,,,,,226.8150000059686,,response,,,,99,,,,,,,Space,keypress(Space),,,,,,,,---- -- ----- -- ------ - ------- --- ----------<br>------------- ------ ------ ---- ---- ------- ----- -- ----<br>-------- ------- -- ---------- --- - --- ----- ----- ----<br>---- --- --- ----- --- feel ---- ------- ----- ---- -------<br>--- --- -- ----- -- --- ---- -- --- ---- -- ------ ------<br>--- ----- -- ----,195625.70000000298,195624.90000000596,195381.366,195382.09999999404,195398.085,195631.158,,33,feel
screen,html.Screen,2_1_0_1_34,2022-05-10T16:29:17.318Z,,,,,,,,,,,,,,,,,53,,,,,,,,,,,,,,207.74200000596466,,response,,,,99,,,,,,,Space,keypress(Space),,,,,,,,---- -- ----- -- ------ - ------- --- ----------<br>------------- ------ ------ ---- ---- ------- ----- -- ----<br>-------- ------- -- ---------- --- - --- ----- ----- ----<br>---- --- --- ----- --- ---- that ------- ----- ---- -------<br>--- --- -- ----- -- --- ---- -- --- ---- -- ------ ------<br>--- ----- -- ----,195839.90000000596,195838.90000000596,195614.584,195625.79999999702,195631.158,195847.619,,34,that
screen,html.Screen,2_1_0_1_35,2022-05-10T16:29:17.532Z,,,,,,,,,,,,,,,,,53,,,,,,,,,,,,,,205.38099999999395,,response,,,,99,,,,,,,Space,keypress(Space),,,,,,,,---- -- ----- -- ------ - ------- --- ----------<br>------------- ------ ------ ---- ---- ------- ----- -- ----<br>-------- ------- -- ---------- --- - --- ----- ----- ----<br>---- --- --- ----- --- ---- ---- matters ----- ---- -------<br>--- --- -- ----- -- --- ---- -- --- ---- -- ------ ------<br>--- ----- -- ----,196054.09999999404,196053,195830.962,195840,195847.619,196064.243,,35,matters
screen,html.Screen,2_1_0_1_36,2022-05-10T16:29:17.760Z,,,,,,,,,,,,,,,,,53,,,,,,,,,,,,,,216.5569999970321,,response,,,,99,,,,,,,Space,keypress(Space),,,,,,,,"---- -- ----- -- ------ - ------- --- ----------<br>------------- ------ ------ ---- ---- ------- ----- -- ----<br>-------- ------- -- ---------- --- - --- ----- ----- ----<br>---- --- --- ----- --- ---- ---- ------- most, ---- -------<br>--- --- -- ----- -- --- ---- -- --- ---- -- ------ ------<br>--- ----- -- ----",196281.90000000596,196280.79999999702,196047.555,196054.20000000298,196064.243,196297.301,,36,"most,"
screen,html.Screen,2_1_0_1_37,2022-05-10T16:29:18.012Z,,,,,,,,,,,,,,,,,53,,,,,,,,,,,,,,235.49899999701302,,response,,,,99,,,,,,,Space,keypress(Space),,,,,,,,---- -- ----- -- ------ - ------- --- ----------<br>------------- ------ ------ ---- ---- ------- ----- -- ----<br>-------- ------- -- ---------- --- - --- ----- ----- ----<br>---- --- --- ----- --- ---- ---- ------- ----- it's -------<br>--- --- -- ----- -- --- ---- -- --- ---- -- ------ ------<br>--- ----- -- ----,196534,196532.79999999702,196280.7,196282,196297.301,196547.265,,37,it's
screen,html.Screen,2_1_0_1_38,2022-05-10T16:29:18.283Z,,,,,,,,,,,,,,,,,53,,,,,,,,,,,,,,256.33499999402557,,response,,,,99,,,,,,,Space,keypress(Space),,,,,,,,---- -- ----- -- ------ - ------- --- ----------<br>------------- ------ ------ ---- ---- ------- ----- -- ----<br>-------- ------- -- ---------- --- - --- ----- ----- ----<br>---- --- --- ----- --- ---- ---- ------- ----- ---- whether<br>--- --- -- ----- -- --- ---- -- --- ---- -- ------ ------<br>--- ----- -- ----,196804.70000000298,196803.59999999404,196530.495,196534,196547.265,196813.385,,38,whether
screen,html.Screen,2_1_0_1_39,2022-05-10T16:29:18.499Z,,,,,,,,,,,,,,,,,53,,,,,,,,,,,,,,206.31500000297092,,response,,,,99,,,,,,,Space,keypress(Space),,,,,,,,---- -- ----- -- ------ - ------- --- ----------<br>------------- ------ ------ ---- ---- ------- ----- -- ----<br>-------- ------- -- ---------- --- - --- ----- ----- ----<br>---- --- --- ----- --- ---- ---- ------- ----- ---- -------<br>you --- -- ----- -- --- ---- -- --- ---- -- ------ ------<br>--- ----- -- ----,197020.79999999702,197019.70000000298,196797.084,196804.90000000596,196813.385,197029.891,,39,you
screen,html.Screen,2_1_0_1_40,2022-05-10T16:29:18.715Z,,,,,,,,,,,,,,,,,53,,,,,,,,,,,,,,205.9089999970165,,response,,,,99,,,,,,,Space,keypress(Space),,,,,,,,---- -- ----- -- ------ - ------- --- ----------<br>------------- ------ ------ ---- ---- ------- ----- -- ----<br>-------- ------- -- ---------- --- - --- ----- ----- ----<br>---- --- --- ----- --- ---- ---- ------- ----- ---- -------<br>--- are -- ----- -- --- ---- -- --- ---- -- ------ ------<br>--- ----- -- ----,197237.09999999404,197235.79999999702,197013.454,197020.90000000596,197029.891,197246.414,,40,are
screen,html.Screen,2_1_0_1_41,2022-05-10T16:29:18.891Z,,,,,,,,,,,,,,,,,53,,,,,,,,,,,,,,165.38599999703,,response,,,,99,,,,,,,Space,keypress(Space),,,,,,,,---- -- ----- -- ------ - ------- --- ----------<br>------------- ------ ------ ---- ---- ------- ----- -- ----<br>-------- ------- -- ---------- --- - --- ----- ----- ----<br>---- --- --- ----- --- ---- ---- ------- ----- ---- -------<br>--- --- as ----- -- --- ---- -- --- ---- -- ------ ------<br>--- ----- -- ----,197413,197411.79999999702,197229.948,197237.29999999702,197246.414,197429.882,,41,as
screen,html.Screen,2_1_0_1_42,2022-05-10T16:29:19.183Z,,,,,,,,,,,,,,,,,53,,,,,,,,,,,,,,274.0180000059481,,response,,,,99,,,,,,,Space,keypress(Space),,,,,,,,---- -- ----- -- ------ - ------- --- ----------<br>------------- ------ ------ ---- ---- ------- ----- -- ----<br>-------- ------- -- ---------- --- - --- ----- ----- ----<br>---- --- --- ----- --- ---- ---- ------- ----- ---- -------<br>--- --- -- close -- --- ---- -- --- ---- -- ------ ------<br>--- ----- -- ----,197705.09999999404,197703.90000000596,197413.248,197413.20000000298,197429.882,197712.877,,42,close
screen,html.Screen,2_1_0_1_43,2022-05-10T16:29:19.381Z,,,,,,,,,,,,,,,,,53,,,,,,,,,,,,,,188.42299999701208,,response,,,,99,,,,,,,Space,keypress(Space),,,,,,,,---- -- ----- -- ------ - ------- --- ----------<br>------------- ------ ------ ---- ---- ------- ----- -- ----<br>-------- ------- -- ---------- --- - --- ----- ----- ----<br>---- --- --- ----- --- ---- ---- ------- ----- ---- -------<br>--- --- -- ----- as --- ---- -- --- ---- -- ------ ------<br>--- ----- -- ----,197902.40000000596,197901.29999999702,197696.142,197705.29999999702,197712.877,197912.801,,43,as
screen,html.Screen,2_1_0_1_44,2022-05-10T16:29:19.572Z,,,,,,,,,,,,,,,,,53,,,,,,,,,,,,,,179.69899999999325,,response,,,,99,,,,,,,Space,keypress(Space),,,,,,,,---- -- ----- -- ------ - ------- --- ----------<br>------------- ------ ------ ---- ---- ------- ----- -- ----<br>-------- ------- -- ---------- --- - --- ----- ----- ----<br>---- --- --- ----- --- ---- ---- ------- ----- ---- -------<br>--- --- -- ----- -- you ---- -- --- ---- -- ------ ------<br>--- ----- -- ----,198093.70000000298,198092.5,197896.005,197902.5,197912.801,198095.737,,44,you
screen,html.Screen,2_1_0_1_45,2022-05-10T16:29:19.700Z,,,,,,,,,,,,,,,,,53,,,,,,,,,,,,,,124.96300000298652,,response,,,,99,,,,,,,Space,keypress(Space),,,,,,,,---- -- ----- -- ------ - ------- --- ----------<br>------------- ------ ------ ---- ---- ------- ----- -- ----<br>-------- ------- -- ---------- --- - --- ----- ----- ----<br>---- --- --- ----- --- ---- ---- ------- ----- ---- -------<br>--- --- -- ----- -- --- want -- --- ---- -- ------ ------<br>--- ----- -- ----,198221.79999999702,198220.70000000298,198079.365,198093.79999999702,198095.737,198229.142,,45,want
screen,html.Screen,2_1_0_1_46,2022-05-10T16:29:20.068Z,,,,,,,,,,,,,,,,,53,,,,,,,,,,,,,,359.457999994047,,response,,,,99,,,,,,,Space,keypress(Space),,,,,,,,---- -- ----- -- ------ - ------- --- ----------<br>------------- ------ ------ ---- ---- ------- ----- -- ----<br>-------- ------- -- ---------- --- - --- ----- ----- ----<br>---- --- --- ----- --- ---- ---- ------- ----- ---- -------<br>--- --- -- ----- -- --- ---- to --- ---- -- ------ ------<br>--- ----- -- ----,198589.79999999702,198588.59999999404,198212.47,198221.90000000596,198229.142,198595.433,,46,to
screen,html.Screen,2_1_0_1_47,2022-05-10T16:29:20.275Z,,,,,,,,,,,,,,,,,53,,,,,,,,,,,,,,199.76700000299024,,response,,,,99,,,,,,,Space,keypress(Space),,,,,,,,"---- -- ----- -- ------ - ------- --- ----------<br>------------- ------ ------ ---- ---- ------- ----- -- ----<br>-------- ------- -- ---------- --- - --- ----- ----- ----<br>---- --- --- ----- --- ---- ---- ------- ----- ---- -------<br>--- --- -- ----- -- --- ---- -- be, ---- -- ------ ------<br>--- ----- -- ----",198796.20000000298,198795.20000000298,198578.986,198589.90000000596,198595.433,198811.949,,47,"be,"
screen,html.Screen,2_1_0_1_48,2022-05-10T16:29:20.463Z,,,,,,,,,,,,,,,,,53,,,,,,,,,,,,,,172.05100000000675,,response,,,,99,,,,,,,Space,keypress(Space),,,,,,,,---- -- ----- -- ------ - ------- --- ----------<br>------------- ------ ------ ---- ---- ------- ----- -- ----<br>-------- ------- -- ---------- --- - --- ----- ----- ----<br>---- --- --- ----- --- ---- ---- ------- ----- ---- -------<br>--- --- -- ----- -- --- ---- -- --- even -- ------ ------<br>--- ----- -- ----,198985.09999999404,198984,198795.448,198796.40000000596,198811.949,198995.129,,48,even
screen,html.Screen,2_1_0_1_49,2022-05-10T16:29:20.666Z,,,,,,,,,,,,,,,,,53,,,,,,,,,,,,,,191.2710000059742,,response,,,,99,,,,,,,Space,keypress(Space),,,,,,,,---- -- ----- -- ------ - ------- --- ----------<br>------------- ------ ------ ---- ---- ------- ----- -- ----<br>-------- ------- -- ---------- --- - --- ----- ----- ----<br>---- --- --- ----- --- ---- ---- ------- ----- ---- -------<br>--- --- -- ----- -- --- ---- -- --- ---- if ------ ------<br>--- ----- -- ----,199187.29999999702,199186.40000000596,198978.479,198985.20000000298,198995.129,199194.871,,49,if
screen,html.Screen,2_1_0_1_50,2022-05-10T16:29:20.831Z,,,,,,,,,,,,,,,,,53,,,,,,,,,,,,,,157.12899999998626,,response,,,,99,,,,,,,Space,keypress(Space),,,,,,,,---- -- ----- -- ------ - ------- --- ----------<br>------------- ------ ------ ---- ---- ------- ----- -- ----<br>-------- ------- -- ---------- --- - --- ----- ----- ----<br>---- --- --- ----- --- ---- ---- ------- ----- ---- -------<br>--- --- -- ----- -- --- ---- -- --- ---- -- that's ------<br>--- ----- -- ----,199353.09999999404,199352,199178.285,199187.5,199194.871,199361.511,,50,that's
screen,html.Screen,2_1_0_1_51,2022-05-10T16:29:21.184Z,,,,,,,,,,,,,,,,,53,,,,,,,,,,,,,,343.68900000298163,,response,,,,99,,,,,,,Space,keypress(Space),,,,,,,,---- -- ----- -- ------ - ------- --- ----------<br>------------- ------ ------ ---- ---- ------- ----- -- ----<br>-------- ------- -- ---------- --- - --- ----- ----- ----<br>---- --- --- ----- --- ---- ---- ------- ----- ---- -------<br>--- --- -- ----- -- --- ---- -- --- ---- -- ------ really<br>--- ----- -- ----,199706.09999999404,199705.20000000298,199344.793,199353.29999999702,199361.511,199711.07,,51,really
screen,html.Screen,2_1_0_1_52,2022-05-10T16:29:21.436Z,,,,,,,,,,,,,,,,,53,,,,,,,,,,,,,,245.72999999701278,,response,,,,99,,,,,,,Space,keypress(Space),,,,,,,,---- -- ----- -- ------ - ------- --- ----------<br>------------- ------ ------ ---- ---- ------- ----- -- ----<br>-------- ------- -- ---------- --- - --- ----- ----- ----<br>---- --- --- ----- --- ---- ---- ------- ----- ---- -------<br>--- --- -- ----- -- --- ---- -- --- ---- -- ------ ------<br>not ----- -- ----,199957.70000000298,199956.79999999702,199694.585,199706.29999999702,199711.07,199960.87,,52,not
screen,html.Screen,2_1_0_1_53,2022-05-10T16:29:21.686Z,,,,,,,,,,,,,,,,,53,,,,,,,,,,,,,,245.53000000596512,,response,,,,99,,,,,,,Space,keypress(Space),,,,,,,,---- -- ----- -- ------ - ------- --- ----------<br>------------- ------ ------ ---- ---- ------- ----- -- ----<br>-------- ------- -- ---------- --- - --- ----- ----- ----<br>---- --- --- ----- --- ---- ---- ------- ----- ---- -------<br>--- --- -- ----- -- --- ---- -- --- ---- -- ------ ------<br>--- close -- ----,200207.5,200206.40000000596,199944.295,199957.90000000596,199960.87,200210.612,,53,close
screen,html.Screen,2_1_0_1_54,2022-05-10T16:29:21.904Z,,,,,,,,,,,,,,,,,53,,,,,,,,,,,,,,212.78800000596675,,response,,,,99,,,,,,,Space,keypress(Space),,,,,,,,---- -- ----- -- ------ - ------- --- ----------<br>------------- ------ ------ ---- ---- ------- ----- -- ----<br>-------- ------- -- ---------- --- - --- ----- ----- ----<br>---- --- --- ----- --- ---- ---- ------- ----- ---- -------<br>--- --- -- ----- -- --- ---- -- --- ---- -- ------ ------<br>--- ----- at ----,200425.5,200423.40000000596,200194.168,200207.59999999404,200210.612,200456.991,,54,at
screen,html.Screen,2_1_0_1_55,2022-05-10T16:29:22.129Z,,,,,,,,,,,,,,,,,53,,,,,,,,,,,,,,192.60899999403046,,response,,,,99,,,,,,,Space,keypress(Space),,,,,,,,---- -- ----- -- ------ - ------- --- ----------<br>------------- ------ ------ ---- ---- ------- ----- -- ----<br>-------- ------- -- ---------- --- - --- ----- ----- ----<br>---- --- --- ----- --- ---- ---- ------- ----- ---- -------<br>--- --- -- ----- -- --- ---- -- --- ---- -- ------ ------<br>--- ----- -- all.,200650.70000000298,200649.59999999404,200410.793,200425.70000000298,200456.991,200660.292,,55,all.
Item 99,flow.Loop,2_1_0_1,2022-05-10T16:29:22.129Z,,,,,,,,,,,,,,,,,,,,,,,,,,,,,,,15909.467999994027,,completion,,,,,B,,,,,,,,,,,silence,,,,,200650.90000000596,200649.59999999404,184723.508,184724.90000000596,184740.132,200660.292,,,
Question 1,html.Screen,2_1_0_2,2022-05-10T16:29:28.995Z,,,,,,,,,,,,,,,,,,,,,,,,,,,,true,FALSE,,6854.708000000013,,response,,,,99,B,,,,,,FALSE,click #choice-2,,,,silence,,,,,207516.70000000298,207515,200643.774,200651,200660.292,207521.354,,,
Question 2,html.Screen,2_1_0_3,2022-05-10T16:29:31.968Z,,,,,,,,,,,,,,,,,,,,,,,,,,,,true,TRUE,,2973.5460000059684,,response,,,,99,B,,,,,,TRUE,click #choice-1,,,,silence,,,,,210496.79999999702,210494.90000000596,207504.917,207516.90000000596,207521.354,210502.106,,,
Item 99,flow.Sequence,2_1_0,2022-05-10T16:29:31.968Z,,,,,,,,,,,,,,,,,,,,,,,,,,,,,,,35746.75600000596,,completion,,,,,,,,,,,,,,,,,,,,,210496.90000000596,210494.90000000596,174731.478,174736.5,174748.144,210502.106,,,
Holding screen,html.Screen,2_1_1_0,2022-05-10T16:29:41.950Z,,,,,,,,,,,,,,,,,,,,,,,,,,,,,,,9991.858999999997,,timeout,,,,,,,,,,,,,,,,,,,,,220478.59999999404,220477.497,210485.834,210496.90000000596,210502.106,220493.965,,,
screen,html.Screen,2_1_1_1_0,2022-05-10T16:29:42.512Z,,,,,,,,,,,,,,,,,54,,,,,,,,,,,,,,545.935000005964,,response,,,,100,,,,,,,Space,keypress(Space),,,,,,,,At --- ---- --- ------ ----- ------- ---- -- --- ------- --<br>------- ---------- ------ -- ----- -- ----- -- ---- ------<br>--- ----- --- --- ------ -------- ----- --- ------ ----- --<br>----- ----- ---------- --- --- ------ ------ ---- -- ------<br>------- --- ------ ----- --- ---- ------- -- ---- --- --<br>------- ------,221040.79999999702,221039.90000000596,220477.497,220478.70000000298,220493.965,221043.591,,0,At
screen,html.Screen,2_1_1_1_1,2022-05-10T16:29:42.695Z,,,,,,,,,,,,,,,,,54,,,,,,,,,,,,,,179.20899999703397,,response,,,,100,,,,,,,Space,keypress(Space),,,,,,,,-- the ---- --- ------ ----- ------- ---- -- --- ------- --<br>------- ---------- ------ -- ----- -- ----- -- ---- ------<br>--- ----- --- --- ------ -------- ----- --- ------ ----- --<br>----- ----- ---------- --- --- ------ ------ ---- -- ------<br>------- --- ------ ----- --- ---- ------- -- ---- --- --<br>------- ------,221224,221222.79999999702,221027.207,221041,221043.591,221226.763,,1,the
screen,html.Screen,2_1_1_1_2,2022-05-10T16:29:42.899Z,,,,,,,,,,,,,,,,,54,,,,,,,,,,,,,,199.83699999403325,,response,,,,100,,,,,,,Space,keypress(Space),,,,,,,,-- --- time --- ------ ----- ------- ---- -- --- ------- --<br>------- ---------- ------ -- ----- -- ----- -- ---- ------<br>--- ----- --- --- ------ -------- ----- --- ------ ----- --<br>----- ----- ---------- --- --- ------ ------ ---- -- ------<br>------- --- ------ ----- --- ---- ------- -- ---- --- --<br>------- ------,221427.70000000298,221426.59999999404,221210.191,221224.09999999404,221226.763,221443.436,,2,time
screen,html.Screen,2_1_1_1_3,2022-05-10T16:29:43.042Z,,,,,,,,,,,,,,,,,54,,,,,,,,,,,,,,125.9640000059735,,response,,,,100,,,,,,,Space,keypress(Space),,,,,,,,-- --- ---- the ------ ----- ------- ---- -- --- ------- --<br>------- ---------- ------ -- ----- -- ----- -- ---- ------<br>--- ----- --- --- ------ -------- ----- --- ------ ----- --<br>----- ----- ---------- --- --- ------ ------ ---- -- ------<br>------- --- ------ ----- --- ---- ------- -- ---- --- --<br>------- ------,221570.20000000298,221569.40000000596,221426.721,221427.90000000596,221443.436,221576.504,,3,the
screen,html.Screen,2_1_1_1_4,2022-05-10T16:29:43.398Z,,,,,,,,,,,,,,,,,54,,,,,,,,,,,,,,348.69600000299397,,response,,,,100,,,,,,,Space,keypress(Space),,,,,,,,-- --- ---- --- French ----- ------- ---- -- --- ------- --<br>------- ---------- ------ -- ----- -- ----- -- ---- ------<br>--- ----- --- --- ------ -------- ----- --- ------ ----- --<br>----- ----- ---------- --- --- ------ ------ ---- -- ------<br>------- --- ------ ----- --- ---- ------- -- ---- --- --<br>------- ------,221926.29999999702,221925.20000000298,221559.831,221570.5,221576.504,221943.063,,4,French
screen,html.Screen,2_1_1_1_5,2022-05-10T16:29:43.632Z,,,,,,,,,,,,,,,,,54,,,,,,,,,,,,,,216.33700000596582,,response,,,,100,,,,,,,Space,keypress(Space),,,,,,,,-- --- ---- --- ------ crown ------- ---- -- --- ------- --<br>------- ---------- ------ -- ----- -- ----- -- ---- ------<br>--- ----- --- --- ------ -------- ----- --- ------ ----- --<br>----- ----- ---------- --- --- ------ ------ ---- -- ------<br>------- --- ------ ----- --- ---- ------- -- ---- --- --<br>------- ------,222160.70000000298,222159.40000000596,221926.274,221926.5,221943.063,222176.145,,5,crown
screen,html.Screen,2_1_1_1_6,2022-05-10T16:29:43.918Z,,,,,,,,,,,,,,,,,54,,,,,,,,,,,,,,269.65499999703025,,response,,,,100,,,,,,,Space,keypress(Space),,,,,,,,-- --- ---- --- ------ ----- secured ---- -- --- ------- --<br>------- ---------- ------ -- ----- -- ----- -- ---- ------<br>--- ----- --- --- ------ -------- ----- --- ------ ----- --<br>----- ----- ---------- --- --- ------ ------ ---- -- ------<br>------- --- ------ ----- --- ---- ------- -- ---- --- --<br>------- ------,222446.90000000596,222445.79999999702,222159.566,222160.79999999702,222176.145,222459.21,,6,secured
screen,html.Screen,2_1_1_1_7,2022-05-10T16:29:44.567Z,,,,,,,,,,,,,,,,,54,,,,,,,,,,,,,,635.3899999940477,,response,,,,100,,,,,,,Space,keypress(Space),,,,,,,,-- --- ---- --- ------ ----- ------- much -- --- ------- --<br>------- ---------- ------ -- ----- -- ----- -- ---- ------<br>--- ----- --- --- ------ -------- ----- --- ------ ----- --<br>----- ----- ---------- --- --- ------ ------ ---- -- ------<br>------- --- ------ ----- --- ---- ------- -- ---- --- --<br>------- ------,223095.59999999404,223094.59999999404,222442.447,222447.09999999404,222459.21,223108.6,,7,much
screen,html.Screen,2_1_1_1_8,2022-05-10T16:29:44.822Z,,,,,,,,,,,,,,,,,54,,,,,,,,,,,,,,240.99999999403371,,response,,,,100,,,,,,,Space,keypress(Space),,,,,,,,-- --- ---- --- ------ ----- ------- ---- of --- ------- --<br>------- ---------- ------ -- ----- -- ----- -- ---- ------<br>--- ----- --- --- ------ -------- ----- --- ------ ----- --<br>----- ----- ---------- --- --- ------ ------ ---- -- ------<br>------- --- ------ ----- --- ---- ------- -- ---- --- --<br>------- ------,223350.79999999702,223349.59999999404,223092.051,223095.70000000298,223108.6,223358.447,,8,of
screen,html.Screen,2_1_1_1_9,2022-05-10T16:29:45.079Z,,,,,,,,,,,,,,,,,54,,,,,,,,,,,,,,247.9530000059749,,response,,,,100,,,,,,,Space,keypress(Space),,,,,,,,-- --- ---- --- ------ ----- ------- ---- -- its ------- --<br>------- ---------- ------ -- ----- -- ----- -- ---- ------<br>--- ----- --- --- ------ -------- ----- --- ------ ----- --<br>----- ----- ---------- --- --- ------ ------ ---- -- ------<br>------- --- ------ ----- --- ---- ------- -- ---- --- --<br>------- ------,223607.5,223606.40000000596,223341.773,223351,223358.447,223641.62,,9,its
screen,html.Screen,2_1_1_1_10,2022-05-10T16:29:45.474Z,,,,,,,,,,,,,,,,,54,,,,,,,,,,,,,,360.2800000059651,,response,,,,100,,,,,,,Space,keypress(Space),,,,,,,,-- --- ---- --- ------ ----- ------- ---- -- --- revenue --<br>------- ---------- ------ -- ----- -- ----- -- ---- ------<br>--- ----- --- --- ------ -------- ----- --- ------ ----- --<br>----- ----- ---------- --- --- ------ ------ ---- -- ------<br>------- --- ------ ----- --- ---- ------- -- ---- --- --<br>------- ------,224003,224001.90000000596,223624.828,223607.70000000298,223641.62,224007.621,,10,revenue
screen,html.Screen,2_1_1_1_11,2022-05-10T16:29:45.728Z,,,,,,,,,,,,,,,,,54,,,,,,,,,,,,,,248.17899999700603,,response,,,,100,,,,,,,Space,keypress(Space),,,,,,,,-- --- ---- --- ------ ----- ------- ---- -- --- ------- by<br>------- ---------- ------ -- ----- -- ----- -- ---- ------<br>--- ----- --- --- ------ -------- ----- --- ------ ----- --<br>----- ----- ---------- --- --- ------ ------ ---- -- ------<br>------- --- ------ ----- --- ---- ------- -- ---- --- --<br>------- ------,224256.70000000298,224255.79999999702,223991.27,224003.20000000298,224007.621,224291.116,,11,by
screen,html.Screen,2_1_1_1_12,2022-05-10T16:29:45.950Z,,,,,,,,,,,,,,,,,54,,,,,,,,,,,,,,186.78400000595138,,response,,,,100,,,,,,,Space,keypress(Space),,,,,,,,-- --- ---- --- ------ ----- ------- ---- -- --- ------- --<br>issuing ---------- ------ -- ----- -- ----- -- ---- ------<br>--- ----- --- --- ------ -------- ----- --- ------ ----- --<br>----- ----- ---------- --- --- ------ ------ ---- -- ------<br>------- --- ------ ----- --- ---- ------- -- ---- --- --<br>------- ------,224479,224477.90000000596,224274.44,224256.79999999702,224291.116,224490.784,,12,issuing
screen,html.Screen,2_1_1_1_13,2022-05-10T16:29:46.201Z,,,,,,,,,,,,,,,,,54,,,,,,,,,,,,,,237.51599999700557,,response,,,,100,,,,,,,Space,keypress(Space),,,,,,,,-- --- ---- --- ------ ----- ------- ---- -- --- ------- --<br>------- government ------ -- ----- -- ----- -- ---- ------<br>--- ----- --- --- ------ -------- ----- --- ------ ----- --<br>----- ----- ---------- --- --- ------ ------ ---- -- ------<br>------- --- ------ ----- --- ---- ------- -- ---- --- --<br>------- ------,224729.29999999702,224728.29999999702,224474.181,224479.20000000298,224490.784,224740.718,,13,government
screen,html.Screen,2_1_1_1_14,2022-05-10T16:29:46.497Z,,,,,,,,,,,,,,,,,54,,,,,,,,,,,,,,283.88199999404605,,response,,,,100,,,,,,,Space,keypress(Space),,,,,,,,-- --- ---- --- ------ ----- ------- ---- -- --- ------- --<br>------- ---------- bonds. -- ----- -- ----- -- ---- ------<br>--- ----- --- --- ------ -------- ----- --- ------ ----- --<br>----- ----- ---------- --- --- ------ ------ ---- -- ------<br>------- --- ------ ----- --- ---- ------- -- ---- --- --<br>------- ------,225025.59999999404,225024.59999999404,224724.115,224729.5,224740.718,225040.374,,14,bonds.
screen,html.Screen,2_1_1_1_15,2022-05-10T16:29:46.822Z,,,,,,,,,,,,,,,,,54,,,,,,,,,,,,,,309.3260000029695,,response,,,,100,,,,,,,Space,keypress(Space),,,,,,,,-- --- ---- --- ------ ----- ------- ---- -- --- ------- --<br>------- ---------- ------ In ----- -- ----- -- ---- ------<br>--- ----- --- --- ------ -------- ----- --- ------ ----- --<br>----- ----- ---------- --- --- ------ ------ ---- -- ------<br>------- --- ------ ----- --- ---- ------- -- ---- --- --<br>------- ------,225350.79999999702,225349.70000000298,225023.505,225025.90000000596,225040.374,225356.717,,15,In
screen,html.Screen,2_1_1_1_16,2022-05-10T16:29:47.149Z,,,,,,,,,,,,,,,,,54,,,,,,,,,,,,,,320.38299999403534,,response,,,,100,,,,,,,Space,keypress(Space),,,,,,,,"-- --- ---- --- ------ ----- ------- ---- -- --- ------- --<br>------- ---------- ------ -- 1727, -- ----- -- ---- ------<br>--- ----- --- --- ------ -------- ----- --- ------ ----- --<br>----- ----- ---------- --- --- ------ ------ ---- -- ------<br>------- --- ------ ----- --- ---- ------- -- ---- --- --<br>------- ------",225678,225677.09999999404,225340.287,225350.90000000596,225356.717,225689.968,,16,"1727,"
screen,html.Screen,2_1_1_1_17,2022-05-10T16:29:47.452Z,,,,,,,,,,,,,,,,,54,,,,,,,,,,,,,,289.63199999404605,,response,,,,100,,,,,,,Space,keypress(Space),,,,,,,,-- --- ---- --- ------ ----- ------- ---- -- --- ------- --<br>------- ---------- ------ -- ----- in ----- -- ---- ------<br>--- ----- --- --- ------ -------- ----- --- ------ ----- --<br>----- ----- ---------- --- --- ------ ------ ---- -- ------<br>------- --- ------ ----- --- ---- ------- -- ---- --- --<br>------- ------,225980.90000000596,225979.59999999404,225673.219,225678.20000000298,225689.968,225989.604,,17,in
screen,html.Screen,2_1_1_1_18,2022-05-10T16:29:47.804Z,,,,,,,,,,,,,,,,,54,,,,,,,,,,,,,,340.2960000059684,,response,,,,100,,,,,,,Space,keypress(Space),,,,,,,,-- --- ---- --- ------ ----- ------- ---- -- --- ------- --<br>------- ---------- ------ -- ----- -- order -- ---- ------<br>--- ----- --- --- ------ -------- ----- --- ------ ----- --<br>----- ----- ---------- --- --- ------ ------ ---- -- ------<br>------- --- ------ ----- --- ---- ------- -- ---- --- --<br>------- ------,226332.40000000596,226329.90000000596,225972.884,225980.90000000596,225989.604,226339.362,,18,order
screen,html.Screen,2_1_1_1_19,2022-05-10T16:29:48.198Z,,,,,,,,,,,,,,,,,54,,,,,,,,,,,,,,386.43799999702605,,response,,,,100,,,,,,,Space,keypress(Space),,,,,,,,-- --- ---- --- ------ ----- ------- ---- -- --- ------- --<br>------- ---------- ------ -- ----- -- ----- to ---- ------<br>--- ----- --- --- ------ -------- ----- --- ------ ----- --<br>----- ----- ---------- --- --- ------ ------ ---- -- ------<br>------- --- ------ ----- --- ---- ------- -- ---- --- --<br>------- ------,226726.90000000596,226725.79999999702,226322.601,226332.5,226339.362,226739.108,,19,to
screen,html.Screen,2_1_1_1_20,2022-05-10T16:29:48.410Z,,,,,,,,,,,,,,,,,54,,,,,,,,,,,,,,198.19199999701232,,response,,,,100,,,,,,,Space,keypress(Space),,,,,,,,-- --- ---- --- ------ ----- ------- ---- -- --- ------- --<br>------- ---------- ------ -- ----- -- ----- -- save ------<br>--- ----- --- --- ------ -------- ----- --- ------ ----- --<br>----- ----- ---------- --- --- ------ ------ ---- -- ------<br>------- --- ------ ----- --- ---- ------- -- ---- --- --<br>------- ------,226938.5,226937.29999999702,226722.444,226727.09999999404,226739.108,226955.616,,20,save
screen,html.Screen,2_1_1_1_21,2022-05-10T16:29:48.489Z,,,,,,,,,,,,,,,,,54,,,,,,,,,,,,,,60.38399999999092,,response,,,,100,,,,,,,Space,keypress(Space),,,,,,,,"-- --- ---- --- ------ ----- ------- ---- -- --- ------- --<br>------- ---------- ------ -- ----- -- ----- -- ---- money,<br>--- ----- --- --- ------ -------- ----- --- ------ ----- --<br>----- ----- ---------- --- --- ------ ------ ---- -- ------<br>------- --- ------ ----- --- ---- ------- -- ---- --- --<br>------- ------",227017.09999999404,227016,226938.954,226938.59999999404,226955.616,227021.813,,21,"money,"
screen,html.Screen,2_1_1_1_22,2022-05-10T16:29:48.979Z,,,,,,,,,,,,,,,,,54,,,,,,,,,,,,,,484.7869999940449,,response,,,,100,,,,,,,Space,keypress(Space),,,,,,,,-- --- ---- --- ------ ----- ------- ---- -- --- ------- --<br>------- ---------- ------ -- ----- -- ----- -- ---- ------<br>the ----- --- --- ------ -------- ----- --- ------ ----- --<br>----- ----- ---------- --- --- ------ ------ ---- -- ------<br>------- --- ------ ----- --- ---- ------- -- ---- --- --<br>------- ------,227507.70000000298,227506.59999999404,227005.272,227017.29999999702,227021.813,227521.759,,22,the
screen,html.Screen,2_1_1_1_23,2022-05-10T16:29:49.300Z,,,,,,,,,,,,,,,,,54,,,,,,,,,,,,,,305.7410000000091,,response,,,,100,,,,,,,Space,keypress(Space),,,,,,,,-- --- ---- --- ------ ----- ------- ---- -- --- ------- --<br>------- ---------- ------ -- ----- -- ----- -- ---- ------<br>--- state --- --- ------ -------- ----- --- ------ ----- --<br>----- ----- ---------- --- --- ------ ------ ---- -- ------<br>------- --- ------ ----- --- ---- ------- -- ---- --- --<br>------- ------,227828.59999999404,227827.5,227505.023,227508,227521.759,227838.093,,23,state
screen,html.Screen,2_1_1_1_24,2022-05-10T16:29:49.523Z,,,,,,,,,,,,,,,,,54,,,,,,,,,,,,,,212.30700000596698,,response,,,,100,,,,,,,Space,keypress(Space),,,,,,,,-- --- ---- --- ------ ----- ------- ---- -- --- ------- --<br>------- ---------- ------ -- ----- -- ----- -- ---- ------<br>--- ----- cut --- ------ -------- ----- --- ------ ----- --<br>----- ----- ---------- --- --- ------ ------ ---- -- ------<br>------- --- ------ ----- --- ---- ------- -- ---- --- --<br>------- ------,228051.5,228050.40000000596,227821.588,227828.59999999404,227838.093,228054.359,,24,cut
screen,html.Screen,2_1_1_1_25,2022-05-10T16:29:49.883Z,,,,,,,,,,,,,,,,,54,,,,,,,,,,,,,,355.5410000059637,,response,,,,100,,,,,,,Space,keypress(Space),,,,,,,,-- --- ---- --- ------ ----- ------- ---- -- --- ------- --<br>------- ---------- ------ -- ----- -- ----- -- ---- ------<br>--- ----- --- the ------ -------- ----- --- ------ ----- --<br>----- ----- ---------- --- --- ------ ------ ---- -- ------<br>------- --- ------ ----- --- ---- ------- -- ---- --- --<br>------- ------,228411.09999999404,228409.90000000596,228037.861,228051.70000000298,228054.359,228420.949,,25,the
screen,html.Screen,2_1_1_1_26,2022-05-10T16:29:50.145Z,,,,,,,,,,,,,,,,,54,,,,,,,,,,,,,,251.45100000596722,,response,,,,100,,,,,,,Space,keypress(Space),,,,,,,,-- --- ---- --- ------ ----- ------- ---- -- --- ------- --<br>------- ---------- ------ -- ----- -- ----- -- ---- ------<br>--- ----- --- --- bonds' -------- ----- --- ------ ----- --<br>----- ----- ---------- --- --- ------ ------ ---- -- ------<br>------- --- ------ ----- --- ---- ------- -- ---- --- --<br>------- ------,228673.5,228672.40000000596,228404.345,228411.20000000298,228420.949,228687.4,,26,bonds'
screen,html.Screen,2_1_1_1_27,2022-05-10T16:29:50.372Z,,,,,,,,,,,,,,,,,54,,,,,,,,,,,,,,212.3999999970256,,response,,,,100,,,,,,,Space,keypress(Space),,,,,,,,-- --- ---- --- ------ ----- ------- ---- -- --- ------- --<br>------- ---------- ------ -- ----- -- ----- -- ---- ------<br>--- ----- --- --- ------ interest ----- --- ------ ----- --<br>----- ----- ---------- --- --- ------ ------ ---- -- ------<br>------- --- ------ ----- --- ---- ------- -- ---- --- --<br>------- ------,228900.90000000596,228899.79999999702,228670.888,228673.59999999404,228687.4,228903.685,,27,interest
screen,html.Screen,2_1_1_1_28,2022-05-10T16:29:50.724Z,,,,,,,,,,,,,,,,,54,,,,,,,,,,,,,,347.8150000000023,,response,,,,100,,,,,,,Space,keypress(Space),,,,,,,,-- --- ---- --- ------ ----- ------- ---- -- --- ------- --<br>------- ---------- ------ -- ----- -- ----- -- ---- ------<br>--- ----- --- --- ------ -------- rate. --- ------ ----- --<br>----- ----- ---------- --- --- ------ ------ ---- -- ------<br>------- --- ------ ----- --- ---- ------- -- ---- --- --<br>------- ------,229252.70000000298,229251.5,228887.269,228901,228903.685,229270.108,,28,rate.
screen,html.Screen,2_1_1_1_29,2022-05-10T16:29:50.968Z,,,,,,,,,,,,,,,,,54,,,,,,,,,,,,,,225.292000005953,,response,,,,100,,,,,,,Space,keypress(Space),,,,,,,,-- --- ---- --- ------ ----- ------- ---- -- --- ------- --<br>------- ---------- ------ -- ----- -- ----- -- ---- ------<br>--- ----- --- --- ------ -------- ----- The ------ ----- --<br>----- ----- ---------- --- --- ------ ------ ---- -- ------<br>------- --- ------ ----- --- ---- ------- -- ---- --- --<br>------- ------,229496.40000000596,229495.40000000596,229253.502,229252.79999999702,229270.108,229503.432,,29,The
screen,html.Screen,2_1_1_1_30,2022-05-10T16:29:51.233Z,,,,,,,,,,,,,,,,,54,,,,,,,,,,,,,,256.96800000595977,,response,,,,100,,,,,,,Space,keypress(Space),,,,,,,,-- --- ---- --- ------ ----- ------- ---- -- --- ------- --<br>------- ---------- ------ -- ----- -- ----- -- ---- ------<br>--- ----- --- --- ------ -------- ----- --- market ----- --<br>----- ----- ---------- --- --- ------ ------ ---- -- ------<br>------- --- ------ ----- --- ---- ------- -- ---- --- --<br>------- ------,229761.20000000298,229760.40000000596,229486.865,229496.59999999404,229503.432,229769.784,,30,market
screen,html.Screen,2_1_1_1_31,2022-05-10T16:29:51.549Z,,,,,,,,,,,,,,,,,54,,,,,,,,,,,,,,306.51599999700557,,response,,,,100,,,,,,,Space,keypress(Space),,,,,,,,-- --- ---- --- ------ ----- ------- ---- -- --- ------- --<br>------- ---------- ------ -- ----- -- ----- -- ---- ------<br>--- ----- --- --- ------ -------- ----- --- ------ value --<br>----- ----- ---------- --- --- ------ ------ ---- -- ------<br>------- --- ------ ----- --- ---- ------- -- ---- --- --<br>------- ------,230077.5,230076.29999999702,229753.32,229761.40000000596,229769.784,230086.098,,31,value
screen,html.Screen,2_1_1_1_32,2022-05-10T16:29:51.775Z,,,,,,,,,,,,,,,,,54,,,,,,,,,,,,,,216.40200000000186,,response,,,,100,,,,,,,Space,keypress(Space),,,,,,,,-- --- ---- --- ------ ----- ------- ---- -- --- ------- --<br>------- ---------- ------ -- ----- -- ----- -- ---- ------<br>--- ----- --- --- ------ -------- ----- --- ------ ----- of<br>----- ----- ---------- --- --- ------ ------ ---- -- ------<br>------- --- ------ ----- --- ---- ------- -- ---- --- --<br>------- ------,230303.5,230302.5,230069.738,230077.59999999404,230086.098,230319.501,,32,of
screen,html.Screen,2_1_1_1_33,2022-05-10T16:29:51.969Z,,,,,,,,,,,,,,,,,54,,,,,,,,,,,,,,176.9990000000107,,response,,,,100,,,,,,,Space,keypress(Space),,,,,,,,-- --- ---- --- ------ ----- ------- ---- -- --- ------- --<br>------- ---------- ------ -- ----- -- ----- -- ---- ------<br>--- ----- --- --- ------ -------- ----- --- ------ ----- --<br>these ----- ---------- --- --- ------ ------ ---- -- ------<br>------- --- ------ ----- --- ---- ------- -- ---- --- --<br>------- ------,230497.40000000596,230496.5,230302.708,230303.70000000298,230319.501,230502.324,,33,these
screen,html.Screen,2_1_1_1_34,2022-05-10T16:29:52.291Z,,,,,,,,,,,,,,,,,54,,,,,,,,,,,,,,316.2759999940463,,response,,,,100,,,,,,,Space,keypress(Space),,,,,,,,-- --- ---- --- ------ ----- ------- ---- -- --- ------- --<br>------- ---------- ------ -- ----- -- ----- -- ---- ------<br>--- ----- --- --- ------ -------- ----- --- ------ ----- --<br>----- bonds ---------- --- --- ------ ------ ---- -- ------<br>------- --- ------ ----- --- ---- ------- -- ---- --- --<br>------- ------,230819.59999999404,230818.59999999404,230485.898,230497.59999999404,230502.324,230835.643,,34,bonds
screen,html.Screen,2_1_1_1_35,2022-05-10T16:29:52.673Z,,,,,,,,,,,,,,,,,54,,,,,,,,,,,,,,365.1569999970088,,response,,,,100,,,,,,,Space,keypress(Space),,,,,,,,"-- --- ---- --- ------ ----- ------- ---- -- --- ------- --<br>------- ---------- ------ -- ----- -- ----- -- ---- ------<br>--- ----- --- --- ------ -------- ----- --- ------ ----- --<br>----- ----- plummeted, --- --- ------ ------ ---- -- ------<br>------- --- ------ ----- --- ---- ------- -- ---- --- --<br>------- ------",231201.90000000596,231200.79999999702,230818.972,230819.79999999702,230835.643,231218.774,,35,"plummeted,"
screen,html.Screen,2_1_1_1_36,2022-05-10T16:29:52.846Z,,,,,,,,,,,,,,,,,54,,,,,,,,,,,,,,154.7259999999951,,response,,,,100,,,,,,,Space,keypress(Space),,,,,,,,-- --- ---- --- ------ ----- ------- ---- -- --- ------- --<br>------- ---------- ------ -- ----- -- ----- -- ---- ------<br>--- ----- --- --- ------ -------- ----- --- ------ ----- --<br>----- ----- ---------- and --- ------ ------ ---- -- ------<br>------- --- ------ ----- --- ---- ------- -- ---- --- --<br>------- ------,231374.5,231373.5,231202.032,231202,231218.774,231385.28,,36,and
screen,html.Screen,2_1_1_1_37,2022-05-10T16:29:53.107Z,,,,,,,,,,,,,,,,,54,,,,,,,,,,,,,,249.3199999940407,,response,,,,100,,,,,,,Space,keypress(Space),,,,,,,,-- --- ---- --- ------ ----- ------- ---- -- --- ------- --<br>------- ---------- ------ -- ----- -- ----- -- ---- ------<br>--- ----- --- --- ------ -------- ----- --- ------ ----- --<br>----- ----- ---------- --- the ------ ------ ---- -- ------<br>------- --- ------ ----- --- ---- ------- -- ---- --- --<br>------- ------,231635.79999999702,231634.59999999404,231368.353,231374.59999999404,231385.28,231651.724,,37,the
screen,html.Screen,2_1_1_1_38,2022-05-10T16:29:53.371Z,,,,,,,,,,,,,,,,,54,,,,,,,,,,,,,,247.17600000597304,,response,,,,100,,,,,,,Space,keypress(Space),,,,,,,,-- --- ---- --- ------ ----- ------- ---- -- --- ------- --<br>------- ---------- ------ -- ----- -- ----- -- ---- ------<br>--- ----- --- --- ------ -------- ----- --- ------ ----- --<br>----- ----- ---------- --- --- market ------ ---- -- ------<br>------- --- ------ ----- --- ---- ------- -- ---- --- --<br>------- ------,231900.09999999404,231898.90000000596,231635.104,231636,231651.724,231918.163,,38,market
screen,html.Screen,2_1_1_1_39,2022-05-10T16:29:53.580Z,,,,,,,,,,,,,,,,,54,,,,,,,,,,,,,,189.43699999403907,,response,,,,100,,,,,,,Space,keypress(Space),,,,,,,,-- --- ---- --- ------ ----- ------- ---- -- --- ------- --<br>------- ---------- ------ -- ----- -- ----- -- ---- ------<br>--- ----- --- --- ------ -------- ----- --- ------ ----- --<br>----- ----- ---------- --- --- ------ became ---- -- ------<br>------- --- ------ ----- --- ---- ------- -- ---- --- --<br>------- ------,232108.59999999404,232107.59999999404,231884.694,231900.20000000298,231918.163,232117.796,,39,became
screen,html.Screen,2_1_1_1_40,2022-05-10T16:29:53.790Z,,,,,,,,,,,,,,,,,54,,,,,,,,,,,,,,199.2039999999979,,response,,,,100,,,,,,,Space,keypress(Space),,,,,,,,-- --- ---- --- ------ ----- ------- ---- -- --- ------- --<br>------- ---------- ------ -- ----- -- ----- -- ---- ------<br>--- ----- --- --- ------ -------- ----- --- ------ ----- --<br>----- ----- ---------- --- --- ------ ------ wary -- ------<br>------- --- ------ ----- --- ---- ------- -- ---- --- --<br>------- ------,232318.09999999404,232317,232101.369,232108.79999999702,232117.796,232334.505,,40,wary
screen,html.Screen,2_1_1_1_41,2022-05-10T16:29:54.048Z,,,,,,,,,,,,,,,,,54,,,,,,,,,,,,,,240.8950000059558,,response,,,,100,,,,,,,Space,keypress(Space),,,,,,,,-- --- ---- --- ------ ----- ------- ---- -- --- ------- --<br>------- ---------- ------ -- ----- -- ----- -- ---- ------<br>--- ----- --- --- ------ -------- ----- --- ------ ----- --<br>----- ----- ---------- --- --- ------ ------ ---- of ------<br>------- --- ------ ----- --- ---- ------- -- ---- --- --<br>------- ------,232576.5,232575.40000000596,232317.535,232318.29999999702,232334.505,232584.196,,41,of
screen,html.Screen,2_1_1_1_42,2022-05-10T16:29:54.286Z,,,,,,,,,,,,,,,,,54,,,,,,,,,,,,,,228.80400000000373,,response,,,,100,,,,,,,Space,keypress(Space),,,,,,,,-- --- ---- --- ------ ----- ------- ---- -- --- ------- --<br>------- ---------- ------ -- ----- -- ----- -- ---- ------<br>--- ----- --- --- ------ -------- ----- --- ------ ----- --<br>----- ----- ---------- --- --- ------ ------ ---- -- French<br>------- --- ------ ----- --- ---- ------- -- ---- --- --<br>------- ------,232814.20000000298,232813,232567.664,232576.59999999404,232584.196,232817.385,,42,French
screen,html.Screen,2_1_1_1_43,2022-05-10T16:29:54.510Z,,,,,,,,,,,,,,,,,54,,,,,,,,,,,,,,219.91499999701045,,response,,,,100,,,,,,,Space,keypress(Space),,,,,,,,-- --- ---- --- ------ ----- ------- ---- -- --- ------- --<br>------- ---------- ------ -- ----- -- ----- -- ---- ------<br>--- ----- --- --- ------ -------- ----- --- ------ ----- --<br>----- ----- ---------- --- --- ------ ------ ---- -- ------<br>credit. --- ------ ----- --- ---- ------- -- ---- --- --<br>------- ------,233038.5,233037.29999999702,232800.636,232814.40000000596,232817.385,233050.437,,43,credit.
screen,html.Screen,2_1_1_1_44,2022-05-10T16:29:54.900Z,,,,,,,,,,,,,,,,,54,,,,,,,,,,,,,,376.8629999970144,,response,,,,100,,,,,,,Space,keypress(Space),,,,,,,,-- --- ---- --- ------ ----- ------- ---- -- --- ------- --<br>------- ---------- ------ -- ----- -- ----- -- ---- ------<br>--- ----- --- --- ------ -------- ----- --- ------ ----- --<br>----- ----- ---------- --- --- ------ ------ ---- -- ------<br>------- The ------ ----- --- ---- ------- -- ---- --- --<br>------- ------,233428.59999999404,233427.29999999702,233033.803,233038.59999999404,233050.437,233433.223,,44,The
screen,html.Screen,2_1_1_1_45,2022-05-10T16:29:55.147Z,,,,,,,,,,,,,,,,,54,,,,,,,,,,,,,,241.67700000596233,,response,,,,100,,,,,,,Space,keypress(Space),,,,,,,,-- --- ---- --- ------ ----- ------- ---- -- --- ------- --<br>------- ---------- ------ -- ----- -- ----- -- ---- ------<br>--- ----- --- --- ------ -------- ----- --- ------ ----- --<br>----- ----- ---------- --- --- ------ ------ ---- -- ------<br>------- --- French ----- --- ---- ------- -- ---- --- --<br>------- ------,233676,233674.90000000596,233416.986,233428.70000000298,233433.223,233683.307,,45,French
screen,html.Screen,2_1_1_1_46,2022-05-10T16:29:55.386Z,,,,,,,,,,,,,,,,,54,,,,,,,,,,,,,,230.49299999701907,,response,,,,100,,,,,,,Space,keypress(Space),,,,,,,,-- --- ---- --- ------ ----- ------- ---- -- --- ------- --<br>------- ---------- ------ -- ----- -- ----- -- ---- ------<br>--- ----- --- --- ------ -------- ----- --- ------ ----- --<br>----- ----- ---------- --- --- ------ ------ ---- -- ------<br>------- --- ------ state --- ---- ------- -- ---- --- --<br>------- ------,233914.79999999702,233913.79999999702,233666.754,233676.09999999404,233683.307,233948.657,,46,state
screen,html.Screen,2_1_1_1_47,2022-05-10T16:29:55.735Z,,,,,,,,,,,,,,,,,54,,,,,,,,,,,,,,314.0430000029737,,response,,,,100,,,,,,,Space,keypress(Space),,,,,,,,-- --- ---- --- ------ ----- ------- ---- -- --- ------- --<br>------- ---------- ------ -- ----- -- ----- -- ---- ------<br>--- ----- --- --- ------ -------- ----- --- ------ ----- --<br>----- ----- ---------- --- --- ------ ------ ---- -- ------<br>------- --- ------ ----- was ---- ------- -- ---- --- --<br>------- ------,234263.79999999702,234262.70000000298,233899.887,233915,233948.657,234265.972,,47,was
screen,html.Screen,2_1_1_1_48,2022-05-10T16:29:55.938Z,,,,,,,,,,,,,,,,,54,,,,,,,,,,,,,,199.42800000595162,,response,,,,100,,,,,,,Space,keypress(Space),,,,,,,,-- --- ---- --- ------ ----- ------- ---- -- --- ------- --<br>------- ---------- ------ -- ----- -- ----- -- ---- ------<br>--- ----- --- --- ------ -------- ----- --- ------ ----- --<br>----- ----- ---------- --- --- ------ ------ ---- -- ------<br>------- --- ------ ----- --- left ------- -- ---- --- --<br>------- ------,234466.59999999404,234465.40000000596,234249.411,234264,234265.972,234482.622,,48,left
screen,html.Screen,2_1_1_1_49,2022-05-10T16:29:56.181Z,,,,,,,,,,,,,,,,,54,,,,,,,,,,,,,,225.87799999999697,,response,,,,100,,,,,,,Space,keypress(Space),,,,,,,,-- --- ---- --- ------ ----- ------- ---- -- --- ------- --<br>------- ---------- ------ -- ----- -- ----- -- ---- ------<br>--- ----- --- --- ------ -------- ----- --- ------ ----- --<br>----- ----- ---------- --- --- ------ ------ ---- -- ------<br>------- --- ------ ----- --- ---- without -- ---- --- --<br>------- ------,234709.5,234708.5,234466.084,234466.70000000298,234482.622,234715.683,,49,without
screen,html.Screen,2_1_1_1_50,2022-05-10T16:29:56.664Z,,,,,,,,,,,,,,,,,54,,,,,,,,,,,,,,475.51700000299024,,response,,,,100,,,,,,,Space,keypress(Space),,,,,,,,-- --- ---- --- ------ ----- ------- ---- -- --- ------- --<br>------- ---------- ------ -- ----- -- ----- -- ---- ------<br>--- ----- --- --- ------ -------- ----- --- ------ ----- --<br>----- ----- ---------- --- --- ------ ------ ---- -- ------<br>------- --- ------ ----- --- ---- ------- an ---- --- --<br>------- ------,235192.40000000596,235191.20000000298,234699.041,234709.70000000298,234715.683,235198.762,,50,an
screen,html.Screen,2_1_1_1_51,2022-05-10T16:29:56.902Z,,,,,,,,,,,,,,,,,54,,,,,,,,,,,,,,230.83799999405164,,response,,,,100,,,,,,,Space,keypress(Space),,,,,,,,-- --- ---- --- ------ ----- ------- ---- -- --- ------- --<br>------- ---------- ------ -- ----- -- ----- -- ---- ------<br>--- ----- --- --- ------ -------- ----- --- ------ ----- --<br>----- ----- ---------- --- --- ------ ------ ---- -- ------<br>------- --- ------ ----- --- ---- ------- -- easy --- --<br>------- ------,235430.40000000596,235429.59999999404,235182.101,235192.40000000596,235198.762,235463.195,,51,easy
screen,html.Screen,2_1_1_1_52,2022-05-10T16:29:57.163Z,,,,,,,,,,,,,,,,,54,,,,,,,,,,,,,,227.60499999701278,,response,,,,100,,,,,,,Space,keypress(Space),,,,,,,,-- --- ---- --- ------ ----- ------- ---- -- --- ------- --<br>------- ---------- ------ -- ----- -- ----- -- ---- ------<br>--- ----- --- --- ------ -------- ----- --- ------ ----- --<br>----- ----- ---------- --- --- ------ ------ ---- -- ------<br>------- --- ------ ----- --- ---- ------- -- ---- way --<br>------- ------,235691.79999999702,235690.79999999702,235415.16,235430.5,235463.195,235698.326,,52,way
screen,html.Screen,2_1_1_1_53,2022-05-10T16:29:57.445Z,,,,,,,,,,,,,,,,,54,,,,,,,,,,,,,,274.57400000595953,,response,,,,100,,,,,,,Space,keypress(Space),,,,,,,,-- --- ---- --- ------ ----- ------- ---- -- --- ------- --<br>------- ---------- ------ -- ----- -- ----- -- ---- ------<br>--- ----- --- --- ------ -------- ----- --- ------ ----- --<br>----- ----- ---------- --- --- ------ ------ ---- -- ------<br>------- --- ------ ----- --- ---- ------- -- ---- --- of<br>------- ------,235974.09999999404,235972.90000000596,235681.608,235692,235698.326,235981.319,,53,of
screen,html.Screen,2_1_1_1_54,2022-05-10T16:29:57.700Z,,,,,,,,,,,,,,,,,54,,,,,,,,,,,,,,246.28099999405094,,response,,,,100,,,,,,,Space,keypress(Space),,,,,,,,-- --- ---- --- ------ ----- ------- ---- -- --- ------- --<br>------- ---------- ------ -- ----- -- ----- -- ---- ------<br>--- ----- --- --- ------ -------- ----- --- ------ ----- --<br>----- ----- ---------- --- --- ------ ------ ---- -- ------<br>------- --- ------ ----- --- ---- ------- -- ---- --- --<br>raising ------,236228.5,236227.59999999404,235964.751,235974.29999999702,235981.319,236231.149,,54,raising
screen,html.Screen,2_1_1_1_55,2022-05-10T16:29:58.062Z,,,,,,,,,,,,,,,,,54,,,,,,,,,,,,,,358.05100000297534,,response,,,,100,,,,,,,Space,keypress(Space),,,,,,,,-- --- ---- --- ------ ----- ------- ---- -- --- ------- --<br>------- ---------- ------ -- ----- -- ----- -- ---- ------<br>--- ----- --- --- ------ -------- ----- --- ------ ----- --<br>----- ----- ---------- --- --- ------ ------ ---- -- ------<br>------- --- ------ ----- --- ---- ------- -- ---- --- --<br>------- money.,236590.40000000596,236589.20000000298,236214.397,236228.79999999702,236231.149,236597.384,,55,money.
Item 100,flow.Loop,2_1_1_1,2022-05-10T16:29:58.062Z,,,,,,,,,,,,,,,,,,,,,,,,,,,,,,,16095.235000002984,,completion,,,,,B,,,,,,,,,,,silence,,,,,236590.59999999404,236589.20000000298,220477.497,220478.70000000298,220493.965,236597.384,,,
Question 1,html.Screen,2_1_1_2,2022-05-10T16:30:00.241Z,,,,,,,,,,,,,,,,,,,,,,,,,,,,true,TRUE,,2170.3160000029893,,response,,,,100,B,,,,,,TRUE,click #choice-1,,,,silence,,,,,238769.09999999404,238767.70000000298,236581.038,236590.70000000298,236597.384,238779.127,,,
Question 2,html.Screen,2_1_1_3,2022-05-10T16:30:02.374Z,,,,,,,,,,,,,,,,,,,,,,,,,,,,true,FALSE,,2121.672999997012,,response,,,,100,B,,,,,,FALSE,click #choice-2,,,,silence,,,,,240902.40000000596,240900.79999999702,238762.399,238769.29999999702,238779.127,240910.548,,,
Item 100,flow.Sequence,2_1_1,2022-05-10T16:30:02.374Z,,,,,,,,,,,,,,,,,,,,,,,,,,,,,,,30398.69399999702,,completion,,,,,,,,,,,,,,,,,,,,,240902.70000000298,240900.79999999702,210485.834,210496.90000000596,210502.106,240910.548,,,
End of Practice,html.Page,2_1_2,2022-05-10T16:30:05.819Z,,,,,,,,,,,,,,,,,,,,,,,,,,,,,,,3436.75199999701,,form submission,,,,,,,,,,,,,,,,,,,,,244347.90000000596,244347.29999999702,240894.076,240902.70000000298,240910.548,244357.674,,,
Practice,flow.Sequence,2_1,2022-05-10T16:30:05.820Z,,,,,,,,,,,,,,,,,,,,,,,,,,,,,,,69599.15599999702,,completion,,,,,,,,,,,,,,,,,,,,,244348.09999999404,244347.29999999702,174731.478,174736.5,174748.144,244357.674,,,
Trap_instruction,html.Page,2_2_0,2022-05-10T16:30:07.691Z,,,,,,,,,,,,,,,,,,,,,,,,,,,,,,,1861.1259999970207,,form submission,,,,,,,,,,,,,,,,,,,,,246219.29999999702,246218.79999999702,244341.266,244348.29999999702,244357.674,246222.887,,,
trap_trial,html.Screen,2_2_1,2022-05-10T16:30:16.644Z,,,,,,,,,,,,,,,,,,,,,,,,,,,,true,1,,8947.712999994052,,response,,,,,,,,,,,1,click #choice-1,,,,,,,,,255172.5,255170.59999999404,246206.401,246219.40000000596,246222.887,255182.148,,,
end of trap trial,html.Page,2_2_2,2022-05-10T16:30:18.547Z,,,,,,,,,,,,,,,,,,,,,,,,,,,,,,,1893.5520000029937,,form submission,,,,,,,,,,,,,,,,,,,,,257076,257075.70000000298,255165.699,255172.70000000298,255182.148,257080.554,,,
Trap 1,flow.Sequence,2_2,2022-05-10T16:30:18.548Z,,,,,,,,,,,,,,,,,,,,,,,,,,,,,,,12718.026000002981,,completion,,,,,,,,,,,,,,,,,,,,,257076.29999999702,257075.70000000298,244341.266,244348.20000000298,244357.674,257080.554,,,
Standby,html.Page,2_3_0,2022-05-10T16:30:26.530Z,,,,,,,,,,,,,,,,,,,,,,,,,,,,,,,7993.7089999999735,,timeout,,,,,,,,,,,,,,,,,,,,,265058.5,265057.416,257064.113,257076.40000000596,257080.554,265074.263,,,
Holding screen,html.Screen,2_3_1_0_0,2022-05-10T16:30:33.530Z,,,,,,,,,,,,,,,,,,,,,,,,,,,,,,,6994.167000000016,,timeout,,,,,,,,,,,,,,,,,,,,,272052.59999999404,272051.586,265057.416,265058.799999997,265074.263,272068.43,,,
screen,html.Screen,2_3_1_0_1_0,2022-05-10T16:30:34.747Z,,,,,,,,,,,,,,,,,19,,,,,,,,,,,,,,1199.6699999940465,,response,,,,17,B,,,,,,Space,keypress(Space),,,,lyrical,,,,"Interestingly, --- -------- -------- ---------- ---- -------<br>-- ---------- -- --- ----- ------ ----- ---- --------- ----<br>------- ------ -------- -- ------ ---------- ------ ---<br>------ -- -- ---- -- ---------- -------- ------ ---- -------<br>---- --- --------- ------- ----- --------- ---- ----- --<br>------ -------- -- ------ -- ---- ------------",273269.40000000596,273268.09999999404,272051.586,272052.90000000596,272068.43,273283.846,,0,"Interestingly,"
screen,html.Screen,2_3_1_0_1_1,2022-05-10T16:30:35.371Z,,,,,,,,,,,,,,,,,19,,,,,,,,,,,,,,608.3540000029607,,response,,,,17,B,,,,,,Space,keypress(Space),,,,lyrical,,,,-------------- the -------- -------- ---------- ---- -------<br>-- ---------- -- --- ----- ------ ----- ---- --------- ----<br>------- ------ -------- -- ------ ---------- ------ ---<br>------ -- -- ---- -- ---------- -------- ------ ---- -------<br>---- --- --------- ------- ----- --------- ---- ----- --<br>------ -------- -- ------ -- ---- ------------,273893.299999997,273892.200000003,273267.461,273269.90000000596,273283.846,273900.219,,1,the
screen,html.Screen,2_3_1_0_1_2,2022-05-10T16:30:35.975Z,,,,,,,,,,,,,,,,,19,,,,,,,,,,,,,,596.580999997037,,response,,,,17,B,,,,,,Space,keypress(Space),,,,lyrical,,,,-------------- --- heaviest -------- ---------- ---- -------<br>-- ---------- -- --- ----- ------ ----- ---- --------- ----<br>------- ------ -------- -- ------ ---------- ------ ---<br>------ -- -- ---- -- ---------- -------- ------ ---- -------<br>---- --- --------- ------- ----- --------- ---- ----- --<br>------ -------- -- ------ -- ---- ------------,274498,274496.799999997,273883.688,273893.5,273900.219,274519.386,,2,heaviest
screen,html.Screen,2_3_1_0_1_3,2022-05-10T16:30:36.343Z,,,,,,,,,,,,,,,,,19,,,,,,,,,,,,,,344.71399999404093,,response,,,,17,B,,,,,,Space,keypress(Space),,,,lyrical,,,,-------------- --- -------- isotopes ---------- ---- -------<br>-- ---------- -- --- ----- ------ ----- ---- --------- ----<br>------- ------ -------- -- ------ ---------- ------ ---<br>------ -- -- ---- -- ---------- -------- ------ ---- -------<br>---- --- --------- ------- ----- --------- ---- ----- --<br>------ -------- -- ------ -- ---- ------------,274865.299999997,274864.09999999404,274483.209,274498,274519.386,274882.486,,3,isotopes
screen,html.Screen,2_3_1_0_1_4,2022-05-10T16:30:37.298Z,,,,,,,,,,,,,,,,,19,,,,,,,,,,,,,,936.4140000059851,,response,,,,17,B,,,,,,Space,keypress(Space),,,,lyrical,,,,-------------- --- -------- -------- physicists ---- -------<br>-- ---------- -- --- ----- ------ ----- ---- --------- ----<br>------- ------ -------- -- ------ ---------- ------ ---<br>------ -- -- ---- -- ---------- -------- ------ ---- -------<br>---- --- --------- ------- ----- --------- ---- ----- --<br>------ -------- -- ------ -- ---- ------------,275820.200000003,275818.90000000596,274865.839,274865.5,274882.486,275831.895,,4,physicists
screen,html.Screen,2_3_1_0_1_5,2022-05-10T16:30:37.633Z,,,,,,,,,,,,,,,,,19,,,,,,,,,,,,,,322.2049999940209,,response,,,,17,B,,,,,,Space,keypress(Space),,,,lyrical,,,,-------------- --- -------- -------- ---------- have -------<br>-- ---------- -- --- ----- ------ ----- ---- --------- ----<br>------- ------ -------- -- ------ ---------- ------ ---<br>------ -- -- ---- -- ---------- -------- ------ ---- -------<br>---- --- --------- ------- ----- --------- ---- ----- --<br>------ -------- -- ------ -- ---- ------------,276155.200000003,276154.09999999404,275815.306,275820.299999997,275831.895,276164.921,,5,have
screen,html.Screen,2_3_1_0_1_6,2022-05-10T16:30:38.074Z,,,,,,,,,,,,,,,,,19,,,,,,,,,,,,,,430.079000000027,,response,,,,17,B,,,,,,Space,keypress(Space),,,,lyrical,,,,-------------- --- -------- -------- ---------- ---- managed<br>-- ---------- -- --- ----- ------ ----- ---- --------- ----<br>------- ------ -------- -- ------ ---------- ------ ---<br>------ -- -- ---- -- ---------- -------- ------ ---- -------<br>---- --- --------- ------- ----- --------- ---- ----- --<br>------ -------- -- ------ -- ---- ------------,276596,276595,276148.341,276155.40000000596,276164.921,276629.087,,6,managed
screen,html.Screen,2_3_1_0_1_7,2022-05-10T16:30:38.380Z,,,,,,,,,,,,,,,,,19,,,,,,,,,,,,,,272.71299999702023,,response,,,,17,B,,,,,,Space,keypress(Space),,,,lyrical,,,,-------------- --- -------- -------- ---------- ---- -------<br>to ---------- -- --- ----- ------ ----- ---- --------- ----<br>------- ------ -------- -- ------ ---------- ------ ---<br>------ -- -- ---- -- ---------- -------- ------ ---- -------<br>---- --- --------- ------- ----- --------- ---- ----- --<br>------ -------- -- ------ -- ---- ------------,276902.799999997,276901.799999997,276581.323,276596.200000003,276629.087,276914.316,,7,to
screen,html.Screen,2_3_1_0_1_8,2022-05-10T16:30:38.681Z,,,,,,,,,,,,,,,,,19,,,,,,,,,,,,,,288.48399999702815,,response,,,,17,B,,,,,,Space,keypress(Space),,,,lyrical,,,,-------------- --- -------- -------- ---------- ---- -------<br>-- synthesize -- --- ----- ------ ----- ---- --------- ----<br>------- ------ -------- -- ------ ---------- ------ ---<br>------ -- -- ---- -- ---------- -------- ------ ---- -------<br>---- --- --------- ------- ----- --------- ---- ----- --<br>------ -------- -- ------ -- ---- ------------,277203.799999997,277202.799999997,276897.837,276902.90000000596,276914.316,277213.989,,8,synthesize
screen,html.Screen,2_3_1_0_1_9,2022-05-10T16:30:39.109Z,,,,,,,,,,,,,,,,,19,,,,,,,,,,,,,,416.21100000297884,,response,,,,17,B,,,,,,Space,keypress(Space),,,,lyrical,,,,-------------- --- -------- -------- ---------- ---- -------<br>-- ---------- so --- ----- ------ ----- ---- --------- ----<br>------- ------ -------- -- ------ ---------- ------ ---<br>------ -- -- ---- -- ---------- -------- ------ ---- -------<br>---- --- --------- ------- ----- --------- ---- ----- --<br>------ -------- -- ------ -- ---- ------------,277631.200000003,277630.200000003,277197.466,277203.90000000596,277213.989,277647.208,,9,so
screen,html.Screen,2_3_1_0_1_10,2022-05-10T16:30:39.493Z,,,,,,,,,,,,,,,,,19,,,,,,,,,,,,,,367.39199999405537,,response,,,,17,B,,,,,,Space,keypress(Space),,,,lyrical,,,,-------------- --- -------- -------- ---------- ---- -------<br>-- ---------- -- far ----- ------ ----- ---- --------- ----<br>------- ------ -------- -- ------ ---------- ------ ---<br>------ -- -- ---- -- ---------- -------- ------ ---- -------<br>---- --- --------- ------- ----- --------- ---- ----- --<br>------ -------- -- ------ -- ---- ------------,278015.90000000596,278014.59999999404,277630.592,277631.299999997,277647.208,278030.045,,10,far
screen,html.Screen,2_3_1_0_1_11,2022-05-10T16:30:39.831Z,,,,,,,,,,,,,,,,,19,,,,,,,,,,,,,,322.65500000299653,,response,,,,17,B,,,,,,Space,keypress(Space),,,,lyrical,,,,-------------- --- -------- -------- ---------- ---- -------<br>-- ---------- -- --- don't ------ ----- ---- --------- ----<br>------- ------ -------- -- ------ ---------- ------ ---<br>------ -- -- ---- -- ---------- -------- ------ ---- -------<br>---- --- --------- ------- ----- --------- ---- ----- --<br>------ -------- -- ------ -- ---- ------------,278353.799999997,278352.700000003,278013.384,278016.09999999404,278030.045,278363.094,,11,don't
screen,html.Screen,2_3_1_0_1_12,2022-05-10T16:30:40.064Z,,,,,,,,,,,,,,,,,19,,,,,,,,,,,,,,222.205999997037,,response,,,,17,B,,,,,,Space,keypress(Space),,,,lyrical,,,,-------------- --- -------- -------- ---------- ---- -------<br>-- ---------- -- --- ----- behave ----- ---- --------- ----<br>------- ------ -------- -- ------ ---------- ------ ---<br>------ -- -- ---- -- ---------- -------- ------ ---- -------<br>---- --- --------- ------- ----- --------- ---- ----- --<br>------ -------- -- ------ -- ---- ------------,278586.5,278585.299999997,278346.594,278354,278363.094,278596.346,,12,behave
screen,html.Screen,2_3_1_0_1_13,2022-05-10T16:30:40.464Z,,,,,,,,,,,,,,,,,19,,,,,,,,,,,,,,389.15399999998044,,response,,,,17,B,,,,,,Space,keypress(Space),,,,lyrical,,,,-------------- --- -------- -------- ---------- ---- -------<br>-- ---------- -- --- ----- ------ quite ---- --------- ----<br>------- ------ -------- -- ------ ---------- ------ ---<br>------ -- -- ---- -- ---------- -------- ------ ---- -------<br>---- --- --------- ------- ----- --------- ---- ----- --<br>------ -------- -- ------ -- ---- ------------,278986.59999999404,278985.5,278579.783,278586.59999999404,278596.346,278995.914,,13,quite
screen,html.Screen,2_3_1_0_1_14,2022-05-10T16:30:40.789Z,,,,,,,,,,,,,,,,,19,,,,,,,,,,,,,,314.88599999703,,response,,,,17,B,,,,,,Space,keypress(Space),,,,lyrical,,,,-------------- --- -------- -------- ---------- ---- -------<br>-- ---------- -- --- ----- ------ ----- like --------- ----<br>------- ------ -------- -- ------ ---------- ------ ---<br>------ -- -- ---- -- ---------- -------- ------ ---- -------<br>---- --- --------- ------- ----- --------- ---- ----- --<br>------ -------- -- ------ -- ---- ------------,279311.700000003,279310.799999997,278979.251,278986.700000003,278995.914,279345.8,,14,like
screen,html.Screen,2_3_1_0_1_15,2022-05-10T16:30:41.114Z,,,,,,,,,,,,,,,,,19,,,,,,,,,,,,,,289.7999999940512,,response,,,,17,B,,,,,,Space,keypress(Space),,,,lyrical,,,,-------------- --- -------- -------- ---------- ---- -------<br>-- ---------- -- --- ----- ------ ----- ---- science's ----<br>------- ------ -------- -- ------ ---------- ------ ---<br>------ -- -- ---- -- ---------- -------- ------ ---- -------<br>---- --- --------- ------- ----- --------- ---- ----- --<br>------ -------- -- ------ -- ---- ------------,279636.799999997,279635.59999999404,279329.142,279311.90000000596,279345.8,279645.51,,15,science's
screen,html.Screen,2_3_1_0_1_16,2022-05-10T16:30:41.664Z,,,,,,,,,,,,,,,,,19,,,,,,,,,,,,,,539.9899999999907,,response,,,,17,B,,,,,,Space,keypress(Space),,,,lyrical,,,,-------------- --- -------- -------- ---------- ---- -------<br>-- ---------- -- --- ----- ------ ----- ---- --------- best<br>------- ------ -------- -- ------ ---------- ------ ---<br>------ -- -- ---- -- ---------- -------- ------ ---- -------<br>---- --- --------- ------- ----- --------- ---- ----- --<br>------ -------- -- ------ -- ---- ------------,280186.59999999404,280185.5,279628.95,279636.90000000596,279645.51,280195.004,,16,best
screen,html.Screen,2_3_1_0_1_17,2022-05-10T16:30:42.329Z,,,,,,,,,,,,,,,,,19,,,,,,,,,,,,,,655.4959999999846,,response,,,,17,B,,,,,,Space,keypress(Space),,,,lyrical,,,,-------------- --- -------- -------- ---------- ---- -------<br>-- ---------- -- --- ----- ------ ----- ---- --------- ----<br>current ------ -------- -- ------ ---------- ------ ---<br>------ -- -- ---- -- ---------- -------- ------ ---- -------<br>---- --- --------- ------- ----- --------- ---- ----- --<br>------ -------- -- ------ -- ---- ------------,280851.299999997,280850.5,280178.543,280186.799999997,280195.004,280861.119,,17,current
screen,html.Screen,2_3_1_0_1_18,2022-05-10T16:30:42.672Z,,,,,,,,,,,,,,,,,19,,,,,,,,,,,,,,332.38099999999395,,response,,,,17,B,,,,,,Space,keypress(Space),,,,lyrical,,,,-------------- --- -------- -------- ---------- ---- -------<br>-- ---------- -- --- ----- ------ ----- ---- --------- ----<br>------- models -------- -- ------ ---------- ------ ---<br>------ -- -- ---- -- ---------- -------- ------ ---- -------<br>---- --- --------- ------- ----- --------- ---- ----- --<br>------ -------- -- ------ -- ---- ------------,281194.59999999404,281193.5,280844.659,280851.5,280861.119,281210.728,,18,models
screen,html.Screen,2_3_1_0_1_19,2022-05-10T16:30:43.096Z,,,,,,,,,,,,,,,,,19,,,,,,,,,,,,,,406.67200000595767,,response,,,,17,B,,,,,,Space,keypress(Space),,,,lyrical,,,,"-------------- --- -------- -------- ---------- ---- -------<br>-- ---------- -- --- ----- ------ ----- ---- --------- ----<br>------- ------ predict, -- ------ ---------- ------ ---<br>------ -- -- ---- -- ---------- -------- ------ ---- -------<br>---- --- --------- ------- ----- --------- ---- ----- --<br>------ -------- -- ------ -- ---- ------------",281618.40000000596,281617.40000000596,281194.316,281194.799999997,281210.728,281626.964,,19,"predict,"
screen,html.Screen,2_3_1_0_1_20,2022-05-10T16:30:43.692Z,,,,,,,,,,,,,,,,,19,,,,,,,,,,,,,,586.0360000000219,,response,,,,17,B,,,,,,Space,keypress(Space),,,,lyrical,,,,-------------- --- -------- -------- ---------- ---- -------<br>-- ---------- -- --- ----- ------ ----- ---- --------- ----<br>------- ------ -------- so ------ ---------- ------ ---<br>------ -- -- ---- -- ---------- -------- ------ ---- -------<br>---- --- --------- ------- ----- --------- ---- ----- --<br>------ -------- -- ------ -- ---- ------------,282214.09999999404,282213,281610.559,281618.5,281626.964,282226.652,,20,so
screen,html.Screen,2_3_1_0_1_21,2022-05-10T16:30:44.813Z,,,,,,,,,,,,,,,,,19,,,,,,,,,,,,,,1108.0480000029784,,response,,,,17,B,,,,,,Space,keypress(Space),,,,lyrical,,,,-------------- --- -------- -------- ---------- ---- -------<br>-- ---------- -- --- ----- ------ ----- ---- --------- ----<br>------- ------ -------- -- stable ---------- ------ ---<br>------ -- -- ---- -- ---------- -------- ------ ---- -------<br>---- --- --------- ------- ----- --------- ---- ----- --<br>------ -------- -- ------ -- ---- ------------,283335.799999997,283334.700000003,282209.962,282214.40000000596,282226.652,283342.424,,21,stable
screen,html.Screen,2_3_1_0_1_22,2022-05-10T16:30:45.539Z,,,,,,,,,,,,,,,,,19,,,,,,,,,,,,,,717.8759999970207,,response,,,,17,B,,,,,,Space,keypress(Space),,,,lyrical,,,,-------------- --- -------- -------- ---------- ---- -------<br>-- ---------- -- --- ----- ------ ----- ---- --------- ----<br>------- ------ -------- -- ------ superheavy ------ ---<br>------ -- -- ---- -- ---------- -------- ------ ---- -------<br>---- --- --------- ------- ----- --------- ---- ----- --<br>------ -------- -- ------ -- ---- ------------,284061.200000003,284060.299999997,283325.897,283336,283342.424,284075.24,,22,superheavy
screen,html.Screen,2_3_1_0_1_23,2022-05-10T16:30:46.309Z,,,,,,,,,,,,,,,,,19,,,,,,,,,,,,,,755.1600000059698,,response,,,,17,B,,,,,,Space,keypress(Space),,,,lyrical,,,,-------------- --- -------- -------- ---------- ---- -------<br>-- ---------- -- --- ----- ------ ----- ---- --------- ----<br>------- ------ -------- -- ------ ---------- nuclei ---<br>------ -- -- ---- -- ---------- -------- ------ ---- -------<br>---- --- --------- ------- ----- --------- ---- ----- --<br>------ -------- -- ------ -- ---- ------------,284831.40000000596,284830.40000000596,284058.572,284061.5,284075.24,284840.882,,23,nuclei
screen,html.Screen,2_3_1_0_1_24,2022-05-10T16:30:46.553Z,,,,,,,,,,,,,,,,,19,,,,,,,,,,,,,,233.41799999703653,,response,,,,17,B,,,,,,Space,keypress(Space),,,,lyrical,,,,-------------- --- -------- -------- ---------- ---- -------<br>-- ---------- -- --- ----- ------ ----- ---- --------- ----<br>------- ------ -------- -- ------ ---------- ------ are<br>------ -- -- ---- -- ---------- -------- ------ ---- -------<br>---- --- --------- ------- ----- --------- ---- ----- --<br>------ -------- -- ------ -- ---- ------------,285075.59999999404,285074.299999997,284824.523,284831.59999999404,284840.882,285090.879,,24,are
screen,html.Screen,2_3_1_0_1_25,2022-05-10T16:30:46.851Z,,,,,,,,,,,,,,,,,19,,,,,,,,,,,,,,281.5210000059451,,response,,,,17,B,,,,,,Space,keypress(Space),,,,lyrical,,,,-------------- --- -------- -------- ---------- ---- -------<br>-- ---------- -- --- ----- ------ ----- ---- --------- ----<br>------- ------ -------- -- ------ ---------- ------ ---<br>likely -- -- ---- -- ---------- -------- ------ ---- -------<br>---- --- --------- ------- ----- --------- ---- ----- --<br>------ -------- -- ------ -- ---- ------------,285373.5,285372.40000000596,285074.329,285075.700000003,285090.879,285390.529,,25,likely
screen,html.Screen,2_3_1_0_1_26,2022-05-10T16:30:47.219Z,,,,,,,,,,,,,,,,,19,,,,,,,,,,,,,,349.87100000598,,response,,,,17,B,,,,,,Space,keypress(Space),,,,lyrical,,,,-------------- --- -------- -------- ---------- ---- -------<br>-- ---------- -- --- ----- ------ ----- ---- --------- ----<br>------- ------ -------- -- ------ ---------- ------ ---<br>------ to -- ---- -- ---------- -------- ------ ---- -------<br>---- --- --------- ------- ----- --------- ---- ----- --<br>------ -------- -- ------ -- ---- ------------,285741.40000000596,285740.40000000596,285374.083,285373.700000003,285390.529,285757.193,,26,to
screen,html.Screen,2_3_1_0_1_27,2022-05-10T16:30:47.473Z,,,,,,,,,,,,,,,,,19,,,,,,,,,,,,,,237.8069999999716,,response,,,,17,B,,,,,,Space,keypress(Space),,,,lyrical,,,,-------------- --- -------- -------- ---------- ---- -------<br>-- ---------- -- --- ----- ------ ----- ---- --------- ----<br>------- ------ -------- -- ------ ---------- ------ ---<br>------ -- be ---- -- ---------- -------- ------ ---- -------<br>---- --- --------- ------- ----- --------- ---- ----- --<br>------ -------- -- ------ -- ---- ------------,285995.90000000596,285995,285740.483,285741.59999999404,285757.193,286006.981,,27,be
screen,html.Screen,2_3_1_0_1_28,2022-05-10T16:30:47.717Z,,,,,,,,,,,,,,,,,19,,,,,,,,,,,,,,231.3189999969909,,response,,,,17,B,,,,,,Space,keypress(Space),,,,lyrical,,,,-------------- --- -------- -------- ---------- ---- -------<br>-- ---------- -- --- ----- ------ ----- ---- --------- ----<br>------- ------ -------- -- ------ ---------- ------ ---<br>------ -- -- full -- ---------- -------- ------ ---- -------<br>---- --- --------- ------- ----- --------- ---- ----- --<br>------ -------- -- ------ -- ---- ------------,286239.5,286238.299999997,285990.184,285995.90000000596,286006.981,286256.791,,28,full
screen,html.Screen,2_3_1_0_1_29,2022-05-10T16:30:48.041Z,,,,,,,,,,,,,,,,,19,,,,,,,,,,,,,,305.5089999969932,,response,,,,17,B,,,,,,Space,keypress(Space),,,,lyrical,,,,-------------- --- -------- -------- ---------- ---- -------<br>-- ---------- -- --- ----- ------ ----- ---- --------- ----<br>------- ------ -------- -- ------ ---------- ------ ---<br>------ -- -- ---- of ---------- -------- ------ ---- -------<br>---- --- --------- ------- ----- --------- ---- ----- --<br>------ -------- -- ------ -- ---- ------------,286563.5,286562.299999997,286239.917,286239.700000003,286256.791,286573.168,,29,of
screen,html.Screen,2_3_1_0_1_30,2022-05-10T16:30:48.268Z,,,,,,,,,,,,,,,,,19,,,,,,,,,,,,,,216.73200000595534,,response,,,,17,B,,,,,,Space,keypress(Space),,,,lyrical,,,,-------------- --- -------- -------- ---------- ---- -------<br>-- ---------- -- --- ----- ------ ----- ---- --------- ----<br>------- ------ -------- -- ------ ---------- ------ ---<br>------ -- -- ---- -- surprises. -------- ------ ---- -------<br>---- --- --------- ------- ----- --------- ---- ----- --<br>------ -------- -- ------ -- ---- ------------,286790.799999997,286789.90000000596,286556.326,286563.700000003,286573.168,286806.198,,30,surprises.
screen,html.Screen,2_3_1_0_1_31,2022-05-10T16:30:48.743Z,,,,,,,,,,,,,,,,,19,,,,,,,,,,,,,,458.2020000059856,,response,,,,17,B,,,,,,Space,keypress(Space),,,,lyrical,,,,-------------- --- -------- -------- ---------- ---- -------<br>-- ---------- -- --- ----- ------ ----- ---- --------- ----<br>------- ------ -------- -- ------ ---------- ------ ---<br>------ -- -- ---- -- ---------- Chemists ------ ---- -------<br>---- --- --------- ------- ----- --------- ---- ----- --<br>------ -------- -- ------ -- ---- ------------,287265.59999999404,287264.40000000596,286789.75,286791,286806.198,287272.569,,31,Chemists
screen,html.Screen,2_3_1_0_1_32,2022-05-10T16:30:49.302Z,,,,,,,,,,,,,,,,,19,,,,,,,,,,,,,,550.3310000059428,,response,,,,17,B,,,,,,Space,keypress(Space),,,,lyrical,,,,-------------- --- -------- -------- ---------- ---- -------<br>-- ---------- -- --- ----- ------ ----- ---- --------- ----<br>------- ------ -------- -- ------ ---------- ------ ---<br>------ -- -- ---- -- ---------- -------- cannot ---- -------<br>---- --- --------- ------- ----- --------- ---- ----- --<br>------ -------- -- ------ -- ---- ------------,287824,287822.90000000596,287255.838,287265.59999999404,287272.569,287838.784,,32,cannot
screen,html.Screen,2_3_1_0_1_33,2022-05-10T16:30:49.535Z,,,,,,,,,,,,,,,,,19,,,,,,,,,,,,,,217.51599999703467,,response,,,,17,B,,,,,,Space,keypress(Space),,,,lyrical,,,,-------------- --- -------- -------- ---------- ---- -------<br>-- ---------- -- --- ----- ------ ----- ---- --------- ----<br>------- ------ -------- -- ------ ---------- ------ ---<br>------ -- -- ---- -- ---------- -------- ------ even -------<br>---- --- --------- ------- ----- --------- ---- ----- --<br>------ -------- -- ------ -- ---- ------------,288057.40000000596,288056.299999997,287821.996,287824.200000003,287838.784,288071.838,,33,even
screen,html.Screen,2_3_1_0_1_34,2022-05-10T16:30:49.720Z,,,,,,,,,,,,,,,,,19,,,,,,,,,,,,,,169.96199999703094,,response,,,,17,B,,,,,,Space,keypress(Space),,,,lyrical,,,,-------------- --- -------- -------- ---------- ---- -------<br>-- ---------- -- --- ----- ------ ----- ---- --------- ----<br>------- ------ -------- -- ------ ---------- ------ ---<br>------ -- -- ---- -- ---------- -------- ------ ---- predict<br>---- --- --------- ------- ----- --------- ---- ----- --<br>------ -------- -- ------ -- ---- ------------,288243,288241.799999997,288055.311,288057.40000000596,288071.838,288255.017,,34,predict
screen,html.Screen,2_3_1_0_1_35,2022-05-10T16:30:50.031Z,,,,,,,,,,,,,,,,,19,,,,,,,,,,,,,,297.98300000000745,,response,,,,17,B,,,,,,Space,keypress(Space),,,,lyrical,,,,-------------- --- -------- -------- ---------- ---- -------<br>-- ---------- -- --- ----- ------ ----- ---- --------- ----<br>------- ------ -------- -- ------ ---------- ------ ---<br>------ -- -- ---- -- ---------- -------- ------ ---- -------<br>with --- --------- ------- ----- --------- ---- ----- --<br>------ -------- -- ------ -- ---- ------------,288553.90000000596,288553,288238.371,288243.09999999404,288255.017,288571.396,,35,with
screen,html.Screen,2_3_1_0_1_36,2022-05-10T16:30:50.490Z,,,,,,,,,,,,,,,,,19,,,,,,,,,,,,,,440.40399999701185,,response,,,,17,B,,,,,,Space,keypress(Space),,,,lyrical,,,,-------------- --- -------- -------- ---------- ---- -------<br>-- ---------- -- --- ----- ------ ----- ---- --------- ----<br>------- ------ -------- -- ------ ---------- ------ ---<br>------ -- -- ---- -- ---------- -------- ------ ---- -------<br>---- any --------- ------- ----- --------- ---- ----- --<br>------ -------- -- ------ -- ---- ------------,289012.700000003,289011.799999997,288554.715,288554.200000003,288571.396,289021.063,,36,any
screen,html.Screen,2_3_1_0_1_37,2022-05-10T16:30:50.727Z,,,,,,,,,,,,,,,,,19,,,,,,,,,,,,,,227.33700000593672,,response,,,,17,B,,,,,,Space,keypress(Space),,,,lyrical,,,,-------------- --- -------- -------- ---------- ---- -------<br>-- ---------- -- --- ----- ------ ----- ---- --------- ----<br>------- ------ -------- -- ------ ---------- ------ ---<br>------ -- -- ---- -- ---------- -------- ------ ---- -------<br>---- --- certainty ------- ----- --------- ---- ----- --<br>------ -------- -- ------ -- ---- ------------,289249.59999999404,289248.40000000596,289004.158,289012.799999997,289021.063,289253.926,,37,certainty
screen,html.Screen,2_3_1_0_1_38,2022-05-10T16:30:51.085Z,,,,,,,,,,,,,,,,,19,,,,,,,,,,,,,,352.2740000030026,,response,,,,17,B,,,,,,Space,keypress(Space),,,,lyrical,,,,-------------- --- -------- -------- ---------- ---- -------<br>-- ---------- -- --- ----- ------ ----- ---- --------- ----<br>------- ------ -------- -- ------ ---------- ------ ---<br>------ -- -- ---- -- ---------- -------- ------ ---- -------<br>---- --- --------- whether ----- --------- ---- ----- --<br>------ -------- -- ------ -- ---- ------------,289607.5,289606.200000003,289237.671,289249.700000003,289253.926,289620.355,,38,whether
screen,html.Screen,2_3_1_0_1_39,2022-05-10T16:30:51.403Z,,,,,,,,,,,,,,,,,19,,,,,,,,,,,,,,303.74499999405816,,response,,,,17,B,,,,,,Space,keypress(Space),,,,lyrical,,,,-------------- --- -------- -------- ---------- ---- -------<br>-- ---------- -- --- ----- ------ ----- ---- --------- ----<br>------- ------ -------- -- ------ ---------- ------ ---<br>------ -- -- ---- -- ---------- -------- ------ ---- -------<br>---- --- --------- ------- these --------- ---- ----- --<br>------ -------- -- ------ -- ---- ------------,289925.09999999404,289924.09999999404,289603.855,289607.59999999404,289620.355,289936.942,,39,these
