sender,sender_type,sender_id,timestamp,meta,,Blues,Classical,Country,Dance,Electronic,Folk,Gospel,Hip-Hop,Jazz,Latin,Musical/Film,New-age,Pop,Prolific_id,Provo_ID,R&B,Rap,Reggae,Religious,Rock,Soul,Swing,Traditional,age,artist_name,correct,correctResponse,distraction,duration,education,ended_on,familiarity,gender,headphone_check_performance,item,list,music_frequency,offensiveness,pleasantness,position_correct,preference,response,response_action,snippet_file,song_name,song_rating,sound,stimulus_1,stimulus_2,stimulus_3,text,time_commit,time_end,time_render,time_run,time_show,time_switch,url,word,word_ID
Prolific ID,html.Form,0,2022-05-02T11:41:05.557Z,"{""labjs_version"":""20.2.2"",""labjs_build"":{""flavor"":""production"",""commit"":""a25486e0c714a0ae2ce03ff94b7bb6896854dcfa""},""location"":""https://run.pavlovia.org/mvasilev/prolific3_music_g/"",""userAgent"":""Mozilla/5.0 (Macintosh; Intel Mac OS X 10_15_7) AppleWebKit/537.36 (KHTML, like Gecko) Chrome/100.0.4896.127 Safari/537.36"",""platform"":""MacIntel"",""language"":""en-GB"",""locale"":""en-GB"",""timeZone"":""Europe/London"",""timezoneOffset"":-60,""screen_width"":1440,""screen_height"":900,""scroll_width"":1212,""scroll_height"":663,""window_innerWidth"":1212,""window_innerHeight"":711,""devicePixelRatio"":2}",,,,,,,,,,,,,,,59d949cf8fd07a000184247e,,,,,,,,,,,,,,,9294.449999964236,,form submission,,,,,,,,,,,,,,,,,,,,,37490.799999952316,37490.09999996424,28178.995,28183,28195.65,37489.894,{},,
Introduction,html.Screen,1_0,2022-05-02T11:41:08.293Z,,,,,,,,,,,,,,,,,,,,,,,,,,,,,,,2715.305999988079,,response,,,,,,,,,,,continue,click button,,,,,,,,,40226.69999998808,40205.19999998808,37473.239,37491.39999997616,37489.894,40237.969,,,
Volume calibration,html.Screen,1_1,2022-05-02T11:41:22.735Z,,,,,,,,,,,,,,,,,,,,,,,,,,,,,,,14410.330999952319,,response,,,,,,,,,,,continue,click button,,,,,,,,,54669.299999952316,54648.299999952316,40221.314,40227,40237.969,54678.612,,,
Task instructions,html.Screen,1_2,2022-05-02T11:41:29.101Z,,,,,,,,,,,,,,,,,,,,,,,,,,,,,,,6343.387999999999,,response,,,,,,,,,,,continue,click button,,,,,,,,,61035.19999998808,61022,54661.957,54669.5,54678.612,61040.822,,,
Sounds,html.Screen,1_3_0_0,2022-05-02T11:41:33.343Z,,,,,,,,,,,,,,,,,,,,,,,,,,,,,,,4247.400999999998,,timeout,,,,,,,,,3,,,,,,,,O,I,S,,65278,65271.568,61024.167,61035.5,61040.822,65288.223,,,
Judgement,html.Screen,1_3_0_1,2022-05-02T11:41:34.157Z,,,,,,,,,,,,,,,,,,,,,,,,,,,,true,3,,784.5769999523181,,response,,,,,,,,,3,,3,click #choice-3,,,,,O,I,S,,66091.29999995232,66072.79999995232,65271.568,65278.299999952316,65288.223,66104.318,,,
Trial,flow.Sequence,1_3_0,2022-05-02T11:41:34.157Z,,,,,,,,,,,,,,,,,,,,,,,,,,,,,,,5031.977999952316,,completion,,,,,,,,,3,,,,,,,,O,I,S,,66091.79999995232,66072.79999995232,61024.167,61035.5,61040.822,66104.318,,,
Sounds,html.Screen,1_3_1_0,2022-05-02T11:41:38.403Z,,,,,,,,,,,,,,,,,,,,,,,,,,,,,,,4247.024999999994,,timeout,,,,,,,,,1,,,,,,,,S,O,I,,70337.89999997616,70334.688,66087.663,66092.19999998808,66104.318,70351.343,,,
Judgement,html.Screen,1_3_1_1,2022-05-02T11:41:38.986Z,,,,,,,,,,,,,,,,,,,,,,,,,,,,true,1,,557.6570000000065,,response,,,,,,,,,1,,1,click #choice-1,,,,,S,O,I,,70920.29999995232,70909,70334.688,70338.09999996424,70351.343,70934.268,,,
Trial,flow.Sequence,1_3_1,2022-05-02T11:41:38.986Z,,,,,,,,,,,,,,,,,,,,,,,,,,,,,,,4804.682000000001,,completion,,,,,,,,,1,,,,,,,,S,O,I,,70920.69999998808,70909,66087.663,66091.89999997616,66104.318,70934.268,,,
Sounds,html.Screen,1_3_2_0,2022-05-02T11:41:43.231Z,,,,,,,,,,,,,,,,,,,,,,,,,,,,,,,4247.025000000009,,timeout,,,,,,,,,2,,,,,,,,I,S,O,,75166.39999997616,75164.638,70917.613,70921,70934.268,75181.293,,,
Judgement,html.Screen,1_3_2_1,2022-05-02T11:41:43.826Z,,,,,,,,,,,,,,,,,,,,,,,,,,,,true,2,,555.0069999523112,,response,,,,,,,,,2,,2,click #choice-2,,,,,I,S,O,,75761.39999997616,75736.29999995232,75164.638,75166.69999998808,75181.293,75764.596,,,
Trial,flow.Sequence,1_3_2,2022-05-02T11:41:43.827Z,,,,,,,,,,,,,,,,,,,,,,,,,,,,,,,4802.03199995232,,completion,,,,,,,,,2,,,,,,,,I,S,O,,75761.79999995232,75736.29999995232,70917.613,70920.79999995232,70934.268,75764.596,,,
Sounds,html.Screen,1_3_3_0,2022-05-02T11:41:48.062Z,,,,,,,,,,,,,,,,,,,,,,,,,,,,,,,4247.024999999994,,timeout,,,,,,,,,3,,,,,,,,I,O,S,,79997.5,79994.966,75747.941,75762.09999996424,75764.596,80011.621,,,
Judgement,html.Screen,1_3_3_1,2022-05-02T11:41:48.518Z,,,,,,,,,,,,,,,,,,,,,,,,,,,,true,3,,425.1789999523171,,response,,,,,,,,,3,,3,click #choice-3,,,,,I,O,S,,80452.79999995232,80436.79999995232,79994.966,79997.59999996424,80011.621,80461.306,,,
Trial,flow.Sequence,1_3_3,2022-05-02T11:41:48.518Z,,,,,,,,,,,,,,,,,,,,,,,,,,,,,,,4672.203999952311,,completion,,,,,,,,,3,,,,,,,,I,O,S,,80453.19999998808,80436.79999995232,75747.941,75762.09999996424,75764.596,80461.306,,,
Sounds,html.Screen,1_3_4_0,2022-05-02T11:41:52.759Z,,,,,,,,,,,,,,,,,,,,,,,,,,,,,,,4247.025000000009,,timeout,,,,,,,,,2,,,,,,,,O,S,I,,84694.09999996424,84691.676,80444.651,80453.39999997616,80461.306,84708.331,,,
Judgement,html.Screen,1_3_4_1,2022-05-02T11:41:53.367Z,,,,,,,,,,,,,,,,,,,,,,,,,,,,true,2,,572.5689999761526,,response,,,,,,,,,2,,2,click #choice-2,,,,,O,S,I,,85302.79999995232,85280.89999997616,84691.676,84694.29999995232,84708.331,85308.29,,,
Trial,flow.Sequence,1_3_4,2022-05-02T11:41:53.368Z,,,,,,,,,,,,,,,,,,,,,,,,,,,,,,,4819.593999976161,,completion,,,,,,,,,2,,,,,,,,O,S,I,,85303,85280.89999997616,80444.651,80453.29999995232,80461.306,85308.29,,,
Sounds,html.Screen,1_3_5_0,2022-05-02T11:41:57.606Z,,,,,,,,,,,,,,,,,,,,,,,,,,,,,,,4247.025000000009,,timeout,,,,,,,,,1,,,,,,,,S,I,O,,89541.19999998808,89538.66,85291.635,85303.29999995232,85308.29,89555.315,,,
Judgement,html.Screen,1_3_5_1,2022-05-02T11:41:58.202Z,,,,,,,,,,,,,,,,,,,,,,,,,,,,true,1,,569.3849999880767,,response,,,,,,,,,1,,1,click #choice-1,,,,,S,I,O,,90138,90124.69999998808,89538.66,89541.39999997616,89555.315,90138.24,,,
Trial,flow.Sequence,1_3_5,2022-05-02T11:41:58.203Z,,,,,,,,,,,,,,,,,,,,,,,,,,,,,,,4816.4099999880855,,completion,,,,,,,,,1,,,,,,,,S,I,O,,90138.29999995232,90124.69999998808,85291.635,85303.29999995232,85308.29,90138.24,,,
Task,flow.Loop,1_3,2022-05-02T11:41:58.210Z,,,,,,,,,,,,,,,,,,,,,,,,,,,,,,,29083.87799998808,,completion,,,1,,,,,,,,,,,,,,,,,,90145.29999995232,90124.69999998808,61024.167,61035.39999997616,61040.822,90138.24,,,
Trap,html.Screen,1_4,2022-05-02T11:41:58.211Z,,,,,,,,,,,,,,,,,,,,,,,,,,,,,,,NaN,,skipped,,,,,,,,,,,,,,,,,,,,,90146.39999997616,90124.69999998808,,90146.29999995232,,90138.24,,,
Thanks,html.Screen,1_5,2022-05-02T11:42:00.547Z,,,,,,,,,,,,,,,,,,,,,,,,,,,,,,,2320.559999952311,,response,,,,,,,,,,,continue,click button,,,,,,,,,92482.89999997616,92458.79999995232,90121.585,90146.59999996424,90138.24,115788.073,,,
Headphone screening,flow.Sequence,1,2022-05-02T11:42:00.548Z,,,,,,,,,,,,,,,,,,,,,,,,,,,,,,,54968.905999952316,,completion,,,,,,,,,,,,,,,,,,,,,92483.19999998808,92458.79999995232,37473.239,37491.299999952316,37489.894,115788.073,,,
Instructions,html.Page,2_0,2022-05-02T11:42:38.862Z,,,,,,,,,,,,,,,,,,,,,,,,,,,,,,,15011.126999988075,,form submission,,,,,,,,,,,,,,,,,,,,,130799.69999998808,130799.19999998808,115771.418,115772.79999995232,115788.073,130810.883,,,
Holding screen,html.Screen,2_1_0_0,2022-05-02T11:42:48.853Z,,,,,,,,,,,,,,,,,,,,,,,,,,,,,,,9993.69200000001,,timeout,,,,,,,,,,,,,,,,,,,,,140790.39999997616,140787.92,130794.228,130799.79999995232,130810.883,140804.575,,,
screen,html.Screen,2_1_0_1_0,2022-05-02T11:42:54.706Z,,,,,,,,,,,,,,,,,53,,,,,,,,,,,,,,5827.124999988067,,response,,,,99,,,,,,,Space,keypress(Space),,,,,,,,When -- ----- -- ------ - ------- --- ----------<br>------------- ------ ------ ---- ---- ------- ----- -- ----<br>-------- ------- -- ---------- --- - --- ----- ----- ----<br>---- --- --- ----- --- ---- ---- ------- ----- ---- -------<br>--- --- -- ----- -- --- ---- -- --- ---- -- ------ ------<br>--- ----- -- ----,146644.09999996424,146631.69999998808,140787.92,140790.69999998808,140804.575,146650.48,,0,When
screen,html.Screen,2_1_0_1_1,2022-05-02T11:42:55.462Z,,,,,,,,,,,,,,,,,53,,,,,,,,,,,,,,741.5199999999895,,response,,,,99,,,,,,,Space,keypress(Space),,,,,,,,---- it ----- -- ------ - ------- --- ----------<br>------------- ------ ------ ---- ---- ------- ----- -- ----<br>-------- ------- -- ---------- --- - --- ----- ----- ----<br>---- --- --- ----- --- ---- ---- ------- ----- ---- -------<br>--- --- -- ----- -- --- ---- -- --- ---- -- ------ ------<br>--- ----- -- ----,147400.19999998808,147392,146633.825,146644.29999995232,146650.48,147417.01,,1,it
screen,html.Screen,2_1_0_1_2,2022-05-02T11:42:56.060Z,,,,,,,,,,,,,,,,,53,,,,,,,,,,,,,,572.9899999999907,,response,,,,99,,,,,,,Space,keypress(Space),,,,,,,,---- -- comes -- ------ - ------- --- ----------<br>------------- ------ ------ ---- ---- ------- ----- -- ----<br>-------- ------- -- ---------- --- - --- ----- ----- ----<br>---- --- --- ----- --- ---- ---- ------- ----- ---- -------<br>--- --- -- ----- -- --- ---- -- --- ---- -- ------ ------<br>--- ----- -- ----,147998,147990,147400.355,147400.5,147417.01,147999.935,,2,comes
screen,html.Screen,2_1_0_1_3,2022-05-02T11:42:56.382Z,,,,,,,,,,,,,,,,,53,,,,,,,,,,,,,,311.0650000000023,,response,,,,99,,,,,,,Space,keypress(Space),,,,,,,,---- -- ----- to ------ - ------- --- ----------<br>------------- ------ ------ ---- ---- ------- ----- -- ----<br>-------- ------- -- ---------- --- - --- ----- ----- ----<br>---- --- --- ----- --- ---- ---- ------- ----- ---- -------<br>--- --- -- ----- -- --- ---- -- --- ---- -- ------ ------<br>--- ----- -- ----,148320,148311,147983.28,147998.09999996424,147999.935,148333.035,,3,to
screen,html.Screen,2_1_0_1_4,2022-05-02T11:42:56.986Z,,,,,,,,,,,,,,,,,53,,,,,,,,,,,,,,582.0649999642337,,response,,,,99,,,,,,,Space,keypress(Space),,,,,,,,---- -- ----- -- having - ------- --- ----------<br>------------- ------ ------ ---- ---- ------- ----- -- ----<br>-------- ------- -- ---------- --- - --- ----- ----- ----<br>---- --- --- ----- --- ---- ---- ------- ----- ---- -------<br>--- --- -- ----- -- --- ---- -- --- ---- -- ------ ------<br>--- ----- -- ----,148923.79999995232,148915.09999996424,148316.38,148320.29999995232,148333.035,148932.615,,4,having
screen,html.Screen,2_1_0_1_5,2022-05-02T11:42:57.245Z,,,,,,,,,,,,,,,,,53,,,,,,,,,,,,,,241.3850000000093,,response,,,,99,,,,,,,Space,keypress(Space),,,,,,,,---- -- ----- -- ------ a ------- --- ----------<br>------------- ------ ------ ---- ---- ------- ----- -- ----<br>-------- ------- -- ---------- --- - --- ----- ----- ----<br>---- --- --- ----- --- ---- ---- ------- ----- ---- -------<br>--- --- -- ----- -- --- ---- -- --- ---- -- ------ ------<br>--- ----- -- ----,149183.29999995232,149174,148915.96,148924,148932.615,149199.095,,5,a
screen,html.Screen,2_1_0_1_6,2022-05-02T11:42:57.919Z,,,,,,,,,,,,,,,,,53,,,,,,,,,,,,,,650.004999964236,,response,,,,99,,,,,,,Space,keypress(Space),,,,,,,,---- -- ----- -- ------ - lasting --- ----------<br>------------- ------ ------ ---- ---- ------- ----- -- ----<br>-------- ------- -- ---------- --- - --- ----- ----- ----<br>---- --- --- ----- --- ---- ---- ------- ----- ---- -------<br>--- --- -- ----- -- --- ---- -- --- ---- -- ------ ------<br>--- ----- -- ----,149857,149849.09999996424,149182.44,149183.5,149199.095,149865.295,,6,lasting
screen,html.Screen,2_1_0_1_7,2022-05-02T11:42:58.500Z,,,,,,,,,,,,,,,,,53,,,,,,,,,,,,,,563.6049999761453,,response,,,,99,,,,,,,Space,keypress(Space),,,,,,,,---- -- ----- -- ------ - ------- and ----------<br>------------- ------ ------ ---- ---- ------- ----- -- ----<br>-------- ------- -- ---------- --- - --- ----- ----- ----<br>---- --- --- ----- --- ---- ---- ------- ----- ---- -------<br>--- --- -- ----- -- --- ---- -- --- ---- -- ------ ------<br>--- ----- -- ----,150437.89999997616,150428.89999997616,149848.64,149857.19999998808,149865.295,150448.22,,7,and
screen,html.Screen,2_1_0_1_8,2022-05-02T11:42:59.183Z,,,,,,,,,,,,,,,,,53,,,,,,,,,,,,,,664.7799999999988,,response,,,,99,,,,,,,Space,keypress(Space),,,,,,,,---- -- ----- -- ------ - ------- --- fulfilling<br>------------- ------ ------ ---- ---- ------- ----- -- ----<br>-------- ------- -- ---------- --- - --- ----- ----- ----<br>---- --- --- ----- --- ---- ---- ------- ----- ---- -------<br>--- --- -- ----- -- --- ---- -- --- ---- -- ------ ------<br>--- ----- -- ----,151121.19999998808,151113,150431.565,150438,150448.22,151131.075,,8,fulfilling
screen,html.Screen,2_1_0_1_9,2022-05-02T11:42:59.866Z,,,,,,,,,,,,,,,,,53,,,,,,,,,,,,,,664.0249999642256,,response,,,,99,,,,,,,Space,keypress(Space),,,,,,,,"---- -- ----- -- ------ - ------- --- ----------<br>relationship, ------ ------ ---- ---- ------- ----- -- ----<br>-------- ------- -- ---------- --- - --- ----- ----- ----<br>---- --- --- ----- --- ---- ---- ------- ----- ---- -------<br>--- --- -- ----- -- --- ---- -- --- ---- -- ------ ------<br>--- ----- -- ----",151803.69999998808,151795.09999996424,151114.42,151121.39999997616,151131.075,151813.93,,9,"relationship,"
screen,html.Screen,2_1_0_1_10,2022-05-02T11:43:00.433Z,,,,,,,,,,,,,,,,,53,,,,,,,,,,,,,,547.9699999761651,,response,,,,99,,,,,,,Space,keypress(Space),,,,,,,,---- -- ----- -- ------ - ------- --- ----------<br>------------- common ------ ---- ---- ------- ----- -- ----<br>-------- ------- -- ---------- --- - --- ----- ----- ----<br>---- --- --- ----- --- ---- ---- ------- ----- ---- -------<br>--- --- -- ----- -- --- ---- -- --- ---- -- ------ ------<br>--- ----- -- ----,152370.89999997616,152361.89999997616,151797.275,151803.89999997616,151813.93,152380.586,,10,common
screen,html.Screen,2_1_0_1_11,2022-05-02T11:43:00.633Z,,,,,,,,,,,,,,,,,53,,,,,,,,,,,,,,181.8139999761479,,response,,,,99,,,,,,,Space,keypress(Space),,,,,,,,---- -- ----- -- ------ - ------- --- ----------<br>------------- ------ wisdom ---- ---- ------- ----- -- ----<br>-------- ------- -- ---------- --- - --- ----- ----- ----<br>---- --- --- ----- --- ---- ---- ------- ----- ---- -------<br>--- --- -- ----- -- --- ---- -- --- ---- -- ------ ------<br>--- ----- -- ----,152571.5,152562.39999997616,152363.931,152371.09999996424,152380.586,152580.446,,11,wisdom
screen,html.Screen,2_1_0_1_12,2022-05-02T11:43:01.169Z,,,,,,,,,,,,,,,,,53,,,,,,,,,,,,,,517.7539999880828,,response,,,,99,,,,,,,Space,keypress(Space),,,,,,,,---- -- ----- -- ------ - ------- --- ----------<br>------------- ------ ------ says ---- ------- ----- -- ----<br>-------- ------- -- ---------- --- - --- ----- ----- ----<br>---- --- --- ----- --- ---- ---- ------- ----- ---- -------<br>--- --- -- ----- -- --- ---- -- --- ---- -- ------ ------<br>--- ----- -- ----,153106.89999997616,153098.19999998808,152563.791,152571.69999998808,152580.446,153113.406,,12,says
screen,html.Screen,2_1_0_1_13,2022-05-02T11:43:01.620Z,,,,,,,,,,,,,,,,,53,,,,,,,,,,,,,,436.5940000000119,,response,,,,99,,,,,,,Space,keypress(Space),,,,,,,,---- -- ----- -- ------ - ------- --- ----------<br>------------- ------ ------ ---- that ------- ----- -- ----<br>-------- ------- -- ---------- --- - --- ----- ----- ----<br>---- --- --- ----- --- ---- ---- ------- ----- ---- -------<br>--- --- -- ----- -- --- ---- -- --- ---- -- ------ ------<br>--- ----- -- ----,153558.5,153550,153096.751,153107.09999996424,153113.406,153563.091,,13,that
screen,html.Screen,2_1_0_1_14,2022-05-02T11:43:02.527Z,,,,,,,,,,,,,,,,,53,,,,,,,,,,,,,,892.9090000000142,,response,,,,99,,,,,,,Space,keypress(Space),,,,,,,,---- -- ----- -- ------ - ------- --- ----------<br>------------- ------ ------ ---- ---- feeling ----- -- ----<br>-------- ------- -- ---------- --- - --- ----- ----- ----<br>---- --- --- ----- --- ---- ---- ------- ----- ---- -------<br>--- --- -- ----- -- --- ---- -- --- ---- -- ------ ------<br>--- ----- -- ----,154464.79999995232,154456,153546.436,153558.69999998808,153563.091,154479.116,,14,feeling
screen,html.Screen,2_1_0_1_15,2022-05-02T11:43:03.152Z,,,,,,,,,,,,,,,,,53,,,,,,,,,,,,,,601.8839999999909,,response,,,,99,,,,,,,Space,keypress(Space),,,,,,,,---- -- ----- -- ------ - ------- --- ----------<br>------------- ------ ------ ---- ---- ------- close -- ----<br>-------- ------- -- ---------- --- - --- ----- ----- ----<br>---- --- --- ----- --- ---- ---- ------- ----- ---- -------<br>--- --- -- ----- -- --- ---- -- --- ---- -- ------ ------<br>--- ----- -- ----,155090.09999996424,155081,154462.461,154464.79999995232,154479.116,155095.351,,15,close
screen,html.Screen,2_1_0_1_16,2022-05-02T11:43:03.547Z,,,,,,,,,,,,,,,,,53,,,,,,,,,,,,,,381.54899997616303,,response,,,,99,,,,,,,Space,keypress(Space),,,,,,,,---- -- ----- -- ------ - ------- --- ----------<br>------------- ------ ------ ---- ---- ------- ----- to ----<br>-------- ------- -- ---------- --- - --- ----- ----- ----<br>---- --- --- ----- --- ---- ---- ------- ----- ---- -------<br>--- --- -- ----- -- --- ---- -- --- ---- -- ------ ------<br>--- ----- -- ----,155485.69999998808,155476.89999997616,155078.696,155090.39999997616,155095.351,155495.071,,16,to
screen,html.Screen,2_1_0_1_17,2022-05-02T11:43:04.363Z,,,,,,,,,,,,,,,,,53,,,,,,,,,,,,,,796.0289999642409,,response,,,,99,,,,,,,Space,keypress(Space),,,,,,,,---- -- ----- -- ------ - ------- --- ----------<br>------------- ------ ------ ---- ---- ------- ----- -- your<br>-------- ------- -- ---------- --- - --- ----- ----- ----<br>---- --- --- ----- --- ---- ---- ------- ----- ---- -------<br>--- --- -- ----- -- --- ---- -- --- ---- -- ------ ------<br>--- ----- -- ----,156300.79999995232,156291.09999996424,155478.416,155485.79999995232,155495.071,156311.166,,17,your
screen,html.Screen,2_1_0_1_18,2022-05-02T11:43:04.823Z,,,,,,,,,,,,,,,,,53,,,,,,,,,,,,,,441.63399995231885,,response,,,,99,,,,,,,Space,keypress(Space),,,,,,,,---- -- ----- -- ------ - ------- --- ----------<br>------------- ------ ------ ---- ---- ------- ----- -- ----<br>romantic ------- -- ---------- --- - --- ----- ----- ----<br>---- --- --- ----- --- ---- ---- ------- ----- ---- -------<br>--- --- -- ----- -- --- ---- -- --- ---- -- ------ ------<br>--- ----- -- ----,156761.29999995232,156752.79999995232,156294.511,156301,156311.166,156777.506,,18,romantic
screen,html.Screen,2_1_0_1_19,2022-05-02T11:43:05.409Z,,,,,,,,,,,,,,,,,53,,,,,,,,,,,,,,562.1939999880851,,response,,,,99,,,,,,,Space,keypress(Space),,,,,,,,---- -- ----- -- ------ - ------- --- ----------<br>------------- ------ ------ ---- ---- ------- ----- -- ----<br>-------- partner -- ---------- --- - --- ----- ----- ----<br>---- --- --- ----- --- ---- ---- ------- ----- ---- -------<br>--- --- -- ----- -- --- ---- -- --- ---- -- ------ ------<br>--- ----- -- ----,157347.29999995232,157339.69999998808,156760.851,156761.39999997616,156777.506,157360.431,,19,partner
screen,html.Screen,2_1_0_1_20,2022-05-02T11:43:05.833Z,,,,,,,,,,,,,,,,,53,,,,,,,,,,,,,,401.3689999523049,,response,,,,99,,,,,,,Space,keypress(Space),,,,,,,,---- -- ----- -- ------ - ------- --- ----------<br>------------- ------ ------ ---- ---- ------- ----- -- ----<br>-------- ------- is ---------- --- - --- ----- ----- ----<br>---- --- --- ----- --- ---- ---- ------- ----- ---- -------<br>--- --- -- ----- -- --- ---- -- --- ---- -- ------ ------<br>--- ----- -- ----,157770.89999997616,157761.79999995232,157343.776,157347.5,157360.431,157776.806,,20,is
screen,html.Screen,2_1_0_1_21,2022-05-02T11:43:06.390Z,,,,,,,,,,,,,,,,,53,,,,,,,,,,,,,,543.8939999880677,,response,,,,99,,,,,,,Space,keypress(Space),,,,,,,,---- -- ----- -- ------ - ------- --- ----------<br>------------- ------ ------ ---- ---- ------- ----- -- ----<br>-------- ------- -- paramount. --- - --- ----- ----- ----<br>---- --- --- ----- --- ---- ---- ------- ----- ---- -------<br>--- --- -- ----- -- --- ---- -- --- ---- -- ------ ------<br>--- ----- -- ----,158328.39999997616,158320.69999998808,157760.151,157771.09999996424,157776.806,158343.076,,21,paramount.
screen,html.Screen,2_1_0_1_22,2022-05-02T11:43:07.433Z,,,,,,,,,,,,,,,,,53,,,,,,,,,,,,,,1019.6239999880781,,response,,,,99,,,,,,,Space,keypress(Space),,,,,,,,---- -- ----- -- ------ - ------- --- ----------<br>------------- ------ ------ ---- ---- ------- ----- -- ----<br>-------- ------- -- ---------- But - --- ----- ----- ----<br>---- --- --- ----- --- ---- ---- ------- ----- ---- -------<br>--- --- -- ----- -- --- ---- -- --- ---- -- ------ ------<br>--- ----- -- ----,159371.29999995232,159362.69999998808,158326.421,158328.59999996424,158343.076,159375.686,,22,But
screen,html.Screen,2_1_0_1_23,2022-05-02T11:43:08.092Z,,,,,,,,,,,,,,,,,53,,,,,,,,,,,,,,646.1139999523293,,response,,,,99,,,,,,,Space,keypress(Space),,,,,,,,---- -- ----- -- ------ - ------- --- ----------<br>------------- ------ ------ ---- ---- ------- ----- -- ----<br>-------- ------- -- ---------- --- a --- ----- ----- ----<br>---- --- --- ----- --- ---- ---- ------- ----- ---- -------<br>--- --- -- ----- -- --- ---- -- --- ---- -- ------ ------<br>--- ----- -- ----,160030.79999995232,160021.79999995232,159359.031,159371.5,159375.686,160041.886,,23,a
screen,html.Screen,2_1_0_1_24,2022-05-02T11:43:08.696Z,,,,,,,,,,,,,,,,,53,,,,,,,,,,,,,,583.9139999523177,,response,,,,99,,,,,,,Space,keypress(Space),,,,,,,,---- -- ----- -- ------ - ------- --- ----------<br>------------- ------ ------ ---- ---- ------- ----- -- ----<br>-------- ------- -- ---------- --- - new ----- ----- ----<br>---- --- --- ----- --- ---- ---- ------- ----- ---- -------<br>--- --- -- ----- -- --- ---- -- --- ---- -- ------ ------<br>--- ----- -- ----,160634.79999995232,160625.79999995232,160025.231,160031,160041.886,160641.466,,24,new
screen,html.Screen,2_1_0_1_25,2022-05-02T11:43:08.989Z,,,,,,,,,,,,,,,,,53,,,,,,,,,,,,,,277.5340000000142,,response,,,,99,,,,,,,Space,keypress(Space),,,,,,,,---- -- ----- -- ------ - ------- --- ----------<br>------------- ------ ------ ---- ---- ------- ----- -- ----<br>-------- ------- -- ---------- --- - --- study ----- ----<br>---- --- --- ----- --- ---- ---- ------- ----- ---- -------<br>--- --- -- ----- -- --- ---- -- --- ---- -- ------ ------<br>--- ----- -- ----,160927.09999996424,160919,160624.811,160634.89999997616,160641.466,160941.256,,25,study
screen,html.Screen,2_1_0_1_26,2022-05-02T11:43:09.397Z,,,,,,,,,,,,,,,,,53,,,,,,,,,,,,,,386.54399995232234,,response,,,,99,,,,,,,Space,keypress(Space),,,,,,,,---- -- ----- -- ------ - ------- --- ----------<br>------------- ------ ------ ---- ---- ------- ----- -- ----<br>-------- ------- -- ---------- --- - --- ----- finds ----<br>---- --- --- ----- --- ---- ---- ------- ----- ---- -------<br>--- --- -- ----- -- --- ---- -- --- ---- -- ------ ------<br>--- ----- -- ----,161335.5,161327.79999995232,160924.601,160927.19999998808,160941.256,161340.976,,26,finds
screen,html.Screen,2_1_0_1_27,2022-05-02T11:43:09.863Z,,,,,,,,,,,,,,,,,53,,,,,,,,,,,,,,451.72399998808396,,response,,,,99,,,,,,,Space,keypress(Space),,,,,,,,---- -- ----- -- ------ - ------- --- ----------<br>------------- ------ ------ ---- ---- ------- ----- -- ----<br>-------- ------- -- ---------- --- - --- ----- ----- that<br>---- --- --- ----- --- ---- ---- ------- ----- ---- -------<br>--- --- -- ----- -- --- ---- -- --- ---- -- ------ ------<br>--- ----- -- ----,161801.59999996424,161792.69999998808,161324.321,161335.59999996424,161340.976,161807.316,,27,that
screen,html.Screen,2_1_0_1_28,2022-05-02T11:43:10.317Z,,,,,,,,,,,,,,,,,53,,,,,,,,,,,,,,439.6840000000084,,response,,,,99,,,,,,,Space,keypress(Space),,,,,,,,---- -- ----- -- ------ - ------- --- ----------<br>------------- ------ ------ ---- ---- ------- ----- -- ----<br>-------- ------- -- ---------- --- - --- ----- ----- ----<br>it's --- --- ----- --- ---- ---- ------- ----- ---- -------<br>--- --- -- ----- -- --- ---- -- --- ---- -- ------ ------<br>--- ----- -- ----,162255.19999998808,162247,161790.661,161801.79999995232,161807.316,162257.385,,28,it's
screen,html.Screen,2_1_0_1_29,2022-05-02T11:43:10.765Z,,,,,,,,,,,,,,,,,53,,,,,,,,,,,,,,441.2149999642279,,response,,,,99,,,,,,,Space,keypress(Space),,,,,,,,---- -- ----- -- ------ - ------- --- ----------<br>------------- ------ ------ ---- ---- ------- ----- -- ----<br>-------- ------- -- ---------- --- - --- ----- ----- ----<br>---- not --- ----- --- ---- ---- ------- ----- ---- -------<br>--- --- -- ----- -- --- ---- -- --- ---- -- ------ ------<br>--- ----- -- ----,162703.5,162698.59999996424,162240.73,162255.39999997616,162257.385,162707.07,,29,not
screen,html.Screen,2_1_0_1_30,2022-05-02T11:43:11.114Z,,,,,,,,,,,,,,,,,53,,,,,,,,,,,,,,336.5299999642302,,response,,,,99,,,,,,,Space,keypress(Space),,,,,,,,---- -- ----- -- ------ - ------- --- ----------<br>------------- ------ ------ ---- ---- ------- ----- -- ----<br>-------- ------- -- ---------- --- - --- ----- ----- ----<br>---- --- how ----- --- ---- ---- ------- ----- ---- -------<br>--- --- -- ----- -- --- ---- -- --- ---- -- ------ ------<br>--- ----- -- ----,163052.69999998808,163043.59999996424,162690.415,162703.69999998808,162707.07,163056.825,,30,how
screen,html.Screen,2_1_0_1_31,2022-05-02T11:43:11.323Z,,,,,,,,,,,,,,,,,53,,,,,,,,,,,,,,195.77499996422557,,response,,,,99,,,,,,,Space,keypress(Space),,,,,,,,---- -- ----- -- ------ - ------- --- ----------<br>------------- ------ ------ ---- ---- ------- ----- -- ----<br>-------- ------- -- ---------- --- - --- ----- ----- ----<br>---- --- --- close --- ---- ---- ------- ----- ---- -------<br>--- --- -- ----- -- --- ---- -- --- ---- -- ------ ------<br>--- ----- -- ----,163261.5,163252.59999996424,163040.17,163052.79999995232,163056.825,163273.34,,31,close
screen,html.Screen,2_1_0_1_32,2022-05-02T11:43:11.903Z,,,,,,,,,,,,,,,,,53,,,,,,,,,,,,,,560.3599999880826,,response,,,,99,,,,,,,Space,keypress(Space),,,,,,,,---- -- ----- -- ------ - ------- --- ----------<br>------------- ------ ------ ---- ---- ------- ----- -- ----<br>-------- ------- -- ---------- --- - --- ----- ----- ----<br>---- --- --- ----- you ---- ---- ------- ----- ---- -------<br>--- --- -- ----- -- --- ---- -- --- ---- -- ------ ------<br>--- ----- -- ----,163841.29999995232,163833.69999998808,163256.685,163261.69999998808,163273.34,163856.265,,32,you
screen,html.Screen,2_1_0_1_33,2022-05-02T11:43:12.479Z,,,,,,,,,,,,,,,,,53,,,,,,,,,,,,,,552.4349999880651,,response,,,,99,,,,,,,Space,keypress(Space),,,,,,,,---- -- ----- -- ------ - ------- --- ----------<br>------------- ------ ------ ---- ---- ------- ----- -- ----<br>-------- ------- -- ---------- --- - --- ----- ----- ----<br>---- --- --- ----- --- feel ---- ------- ----- ---- -------<br>--- --- -- ----- -- --- ---- -- --- ---- -- ------ ------<br>--- ----- -- ----,164417.5,164408.69999998808,163839.61,163841.39999997616,163856.265,164422.535,,33,feel
screen,html.Screen,2_1_0_1_34,2022-05-02T11:43:12.676Z,,,,,,,,,,,,,,,,,53,,,,,,,,,,,,,,183.16499998807558,,response,,,,99,,,,,,,Space,keypress(Space),,,,,,,,---- -- ----- -- ------ - ------- --- ----------<br>------------- ------ ------ ---- ---- ------- ----- -- ----<br>-------- ------- -- ---------- --- - --- ----- ----- ----<br>---- --- --- ----- --- ---- that ------- ----- ---- -------<br>--- --- -- ----- -- --- ---- -- --- ---- -- ------ ------<br>--- ----- -- ----,164614.5,164605.69999998808,164405.88,164417.59999996424,164422.535,164622.395,,34,that
screen,html.Screen,2_1_0_1_35,2022-05-02T11:43:13.101Z,,,,,,,,,,,,,,,,,53,,,,,,,,,,,,,,409.40499995232676,,response,,,,99,,,,,,,Space,keypress(Space),,,,,,,,---- -- ----- -- ------ - ------- --- ----------<br>------------- ------ ------ ---- ---- ------- ----- -- ----<br>-------- ------- -- ---------- --- - --- ----- ----- ----<br>---- --- --- ----- --- ---- ---- matters ----- ---- -------<br>--- --- -- ----- -- --- ---- -- --- ---- -- ------ ------<br>--- ----- -- ----,165039.59999996424,165031.79999995232,164605.74,164614.69999998808,164622.395,165055.425,,35,matters
screen,html.Screen,2_1_0_1_36,2022-05-02T11:43:13.911Z,,,,,,,,,,,,,,,,,53,,,,,,,,,,,,,,785.0750000000116,,response,,,,99,,,,,,,Space,keypress(Space),,,,,,,,"---- -- ----- -- ------ - ------- --- ----------<br>------------- ------ ------ ---- ---- ------- ----- -- ----<br>-------- ------- -- ---------- --- - --- ----- ----- ----<br>---- --- --- ----- --- ---- ---- ------- most, ---- -------<br>--- --- -- ----- -- --- ---- -- --- ---- -- ------ ------<br>--- ----- -- ----",165849.69999998808,165840.5,165038.77,165039.69999998808,165055.425,165854.865,,36,"most,"
screen,html.Screen,2_1_0_1_37,2022-05-02T11:43:14.114Z,,,,,,,,,,,,,,,,,53,,,,,,,,,,,,,,189.73499996424653,,response,,,,99,,,,,,,Space,keypress(Space),,,,,,,,---- -- ----- -- ------ - ------- --- ----------<br>------------- ------ ------ ---- ---- ------- ----- -- ----<br>-------- ------- -- ---------- --- - --- ----- ----- ----<br>---- --- --- ----- --- ---- ---- ------- ----- it's -------<br>--- --- -- ----- -- --- ---- -- --- ---- -- ------ ------<br>--- ----- -- ----,166052.89999997616,166044.59999996424,165838.21,165849.89999997616,165854.865,166054.725,,37,it's
screen,html.Screen,2_1_0_1_38,2022-05-02T11:43:14.643Z,,,,,,,,,,,,,,,,,53,,,,,,,,,,,,,,517.8749999642314,,response,,,,99,,,,,,,Space,keypress(Space),,,,,,,,---- -- ----- -- ------ - ------- --- ----------<br>------------- ------ ------ ---- ---- ------- ----- -- ----<br>-------- ------- -- ---------- --- - --- ----- ----- ----<br>---- --- --- ----- --- ---- ---- ------- ----- ---- whether<br>--- --- -- ----- -- --- ---- -- --- ---- -- ------ ------<br>--- ----- -- ----,166581.29999995232,166572.59999996424,166038.07,166053,166054.725,166587.685,,38,whether
screen,html.Screen,2_1_0_1_39,2022-05-02T11:43:14.835Z,,,,,,,,,,,,,,,,,53,,,,,,,,,,,,,,177.91499996423954,,response,,,,99,,,,,,,Space,keypress(Space),,,,,,,,---- -- ----- -- ------ - ------- --- ----------<br>------------- ------ ------ ---- ---- ------- ----- -- ----<br>-------- ------- -- ---------- --- - --- ----- ----- ----<br>---- --- --- ----- --- ---- ---- ------- ----- ---- -------<br>you --- -- ----- -- --- ---- -- --- ---- -- ------ ------<br>--- ----- -- ----,166773.5,166765.59999996424,166571.03,166581.5,166587.685,166787.545,,39,you
screen,html.Screen,2_1_0_1_40,2022-05-02T11:43:15.325Z,,,,,,,,,,,,,,,,,53,,,,,,,,,,,,,,468.15499998806627,,response,,,,99,,,,,,,Space,keypress(Space),,,,,,,,---- -- ----- -- ------ - ------- --- ----------<br>------------- ------ ------ ---- ---- ------- ----- -- ----<br>-------- ------- -- ---------- --- - --- ----- ----- ----<br>---- --- --- ----- --- ---- ---- ------- ----- ---- -------<br>--- are -- ----- -- --- ---- -- --- ---- -- ------ ------<br>--- ----- -- ----,167263.89999997616,167255.69999998808,166770.89,166773.59999996424,166787.545,167270.54,,40,are
screen,html.Screen,2_1_0_1_41,2022-05-02T11:43:15.500Z,,,,,,,,,,,,,,,,,53,,,,,,,,,,,,,,159.95999999999185,,response,,,,99,,,,,,,Space,keypress(Space),,,,,,,,---- -- ----- -- ------ - ------- --- ----------<br>------------- ------ ------ ---- ---- ------- ----- -- ----<br>-------- ------- -- ---------- --- - --- ----- ----- ----<br>---- --- --- ----- --- ---- ---- ------- ----- ---- -------<br>--- --- as ----- -- --- ---- -- --- ---- -- ------ ------<br>--- ----- -- ----,167439.09999996424,167430.5,167253.885,167264,167270.54,167453.745,,41,as
screen,html.Screen,2_1_0_1_42,2022-05-02T11:43:15.699Z,,,,,,,,,,,,,,,,,53,,,,,,,,,,,,,,175.85499996424187,,response,,,,99,,,,,,,Space,keypress(Space),,,,,,,,---- -- ----- -- ------ - ------- --- ----------<br>------------- ------ ------ ---- ---- ------- ----- -- ----<br>-------- ------- -- ---------- --- - --- ----- ----- ----<br>---- --- --- ----- --- ---- ---- ------- ----- ---- -------<br>--- --- -- close -- --- ---- -- --- ---- -- ------ ------<br>--- ----- -- ----,167637.89999997616,167629.59999996424,167437.09,167439.29999995232,167453.745,167653.605,,42,close
screen,html.Screen,2_1_0_1_43,2022-05-02T11:43:16.388Z,,,,,,,,,,,,,,,,,53,,,,,,,,,,,,,,664.9949999642267,,response,,,,99,,,,,,,Space,keypress(Space),,,,,,,,---- -- ----- -- ------ - ------- --- ----------<br>------------- ------ ------ ---- ---- ------- ----- -- ----<br>-------- ------- -- ---------- --- - --- ----- ----- ----<br>---- --- --- ----- --- ---- ---- ------- ----- ---- -------<br>--- --- -- ----- as --- ---- -- --- ---- -- ------ ------<br>--- ----- -- ----,168327.19999998808,168318.59999996424,167636.95,167638,167653.605,168336.46,,43,as
screen,html.Screen,2_1_0_1_44,2022-05-02T11:43:16.585Z,,,,,,,,,,,,,,,,,53,,,,,,,,,,,,,,179.9399999761663,,response,,,,99,,,,,,,Space,keypress(Space),,,,,,,,---- -- ----- -- ------ - ------- --- ----------<br>------------- ------ ------ ---- ---- ------- ----- -- ----<br>-------- ------- -- ---------- --- - --- ----- ----- ----<br>---- --- --- ----- --- ---- ---- ------- ----- ---- -------<br>--- --- -- ----- -- you ---- -- --- ---- -- ------ ------<br>--- ----- -- ----,168524,168516.39999997616,168319.805,168327.29999995232,168336.46,168536.32,,44,you
screen,html.Screen,2_1_0_1_45,2022-05-02T11:43:17.007Z,,,,,,,,,,,,,,,,,53,,,,,,,,,,,,,,400.2799999642302,,response,,,,99,,,,,,,Space,keypress(Space),,,,,,,,---- -- ----- -- ------ - ------- --- ----------<br>------------- ------ ------ ---- ---- ------- ----- -- ----<br>-------- ------- -- ---------- --- - --- ----- ----- ----<br>---- --- --- ----- --- ---- ---- ------- ----- ---- -------<br>--- --- -- ----- -- --- want -- --- ---- -- ------ ------<br>--- ----- -- ----,168945.59999996424,168936.59999996424,168519.665,168524.19999998808,168536.32,168952.695,,45,want
screen,html.Screen,2_1_0_1_46,2022-05-02T11:43:17.198Z,,,,,,,,,,,,,,,,,53,,,,,,,,,,,,,,176.70499997615116,,response,,,,99,,,,,,,Space,keypress(Space),,,,,,,,---- -- ----- -- ------ - ------- --- ----------<br>------------- ------ ------ ---- ---- ------- ----- -- ----<br>-------- ------- -- ---------- --- - --- ----- ----- ----<br>---- --- --- ----- --- ---- ---- ------- ----- ---- -------<br>--- --- -- ----- -- --- ---- to --- ---- -- ------ ------<br>--- ----- -- ----,169137.09999996424,169129.39999997616,168936.04,168945.79999995232,168952.695,169152.555,,46,to
screen,html.Screen,2_1_0_1_47,2022-05-02T11:43:19.199Z,,,,,,,,,,,,,,,,,53,,,,,,,,,,,,,,1976.2449999523233,,response,,,,99,,,,,,,Space,keypress(Space),,,,,,,,"---- -- ----- -- ------ - ------- --- ----------<br>------------- ------ ------ ---- ---- ------- ----- -- ----<br>-------- ------- -- ---------- --- - --- ----- ----- ----<br>---- --- --- ----- --- ---- ---- ------- ----- ---- -------<br>--- --- -- ----- -- --- ---- -- be, ---- -- ------ ------<br>--- ----- -- ----",171137.39999997616,171128.79999995232,169135.9,169137.19999998808,169152.555,171151.155,,47,"be,"
screen,html.Screen,2_1_0_1_48,2022-05-02T11:43:19.623Z,,,,,,,,,,,,,,,,,53,,,,,,,,,,,,,,403.4449999642384,,response,,,,99,,,,,,,Space,keypress(Space),,,,,,,,---- -- ----- -- ------ - ------- --- ----------<br>------------- ------ ------ ---- ---- ------- ----- -- ----<br>-------- ------- -- ---------- --- - --- ----- ----- ----<br>---- --- --- ----- --- ---- ---- ------- ----- ---- -------<br>--- --- -- ----- -- --- ---- -- --- even -- ------ ------<br>--- ----- -- ----,171562.29999995232,171554.59999996424,171134.5,171137.5,171151.155,171567.53,,48,even
screen,html.Screen,2_1_0_1_49,2022-05-02T11:43:19.887Z,,,,,,,,,,,,,,,,,53,,,,,,,,,,,,,,249.97000000000116,,response,,,,99,,,,,,,Space,keypress(Space),,,,,,,,---- -- ----- -- ------ - ------- --- ----------<br>------------- ------ ------ ---- ---- ------- ----- -- ----<br>-------- ------- -- ---------- --- - --- ----- ----- ----<br>---- --- --- ----- --- ---- ---- ------- ----- ---- -------<br>--- --- -- ----- -- --- ---- -- --- ---- if ------ ------<br>--- ----- -- ----,171826.29999995232,171817.5,171550.875,171562.5,171567.53,171834.01,,49,if
screen,html.Screen,2_1_0_1_50,2022-05-02T11:43:20.474Z,,,,,,,,,,,,,,,,,53,,,,,,,,,,,,,,570.3899999761488,,response,,,,99,,,,,,,Space,keypress(Space),,,,,,,,---- -- ----- -- ------ - ------- --- ----------<br>------------- ------ ------ ---- ---- ------- ----- -- ----<br>-------- ------- -- ---------- --- - --- ----- ----- ----<br>---- --- --- ----- --- ---- ---- ------- ----- ---- -------<br>--- --- -- ----- -- --- ---- -- --- ---- -- that's ------<br>--- ----- -- ----,172413.19999998808,172404.39999997616,171817.355,171826.5,171834.01,172417.319,,50,that's
screen,html.Screen,2_1_0_1_51,2022-05-02T11:43:20.707Z,,,,,,,,,,,,,,,,,53,,,,,,,,,,,,,,221.1810000000114,,response,,,,99,,,,,,,Space,keypress(Space),,,,,,,,---- -- ----- -- ------ - ------- --- ----------<br>------------- ------ ------ ---- ---- ------- ----- -- ----<br>-------- ------- -- ---------- --- - --- ----- ----- ----<br>---- --- --- ----- --- ---- ---- ------- ----- ---- -------<br>--- --- -- ----- -- --- ---- -- --- ---- -- ------ really<br>--- ----- -- ----,172646,172638.5,172400.664,172413.39999997616,172417.319,172650.489,,51,really
screen,html.Screen,2_1_0_1_52,2022-05-02T11:43:21.926Z,,,,,,,,,,,,,,,,,53,,,,,,,,,,,,,,1205.9109999761567,,response,,,,99,,,,,,,Space,keypress(Space),,,,,,,,---- -- ----- -- ------ - ------- --- ----------<br>------------- ------ ------ ---- ---- ------- ----- -- ----<br>-------- ------- -- ---------- --- - --- ----- ----- ----<br>---- --- --- ----- --- ---- ---- ------- ----- ---- -------<br>--- --- -- ----- -- --- ---- -- --- ---- -- ------ ------<br>not ----- -- ----,173865.39999997616,173856.39999997616,172633.834,172646.09999996424,172650.489,173882.959,,52,not
screen,html.Screen,2_1_0_1_53,2022-05-02T11:43:22.486Z,,,,,,,,,,,,,,,,,53,,,,,,,,,,,,,,533.3409999523137,,response,,,,99,,,,,,,Space,keypress(Space),,,,,,,,---- -- ----- -- ------ - ------- --- ----------<br>------------- ------ ------ ---- ---- ------- ----- -- ----<br>-------- ------- -- ---------- --- - --- ----- ----- ----<br>---- --- --- ----- --- ---- ---- ------- ----- ---- -------<br>--- --- -- ----- -- --- ---- -- --- ---- -- ------ ------<br>--- close -- ----,174425.39999997616,174416.29999995232,173866.304,173865.39999997616,173882.959,174432.574,,53,close
screen,html.Screen,2_1_0_1_54,2022-05-02T11:43:23.057Z,,,,,,,,,,,,,,,,,53,,,,,,,,,,,,,,554.8259999761649,,response,,,,99,,,,,,,Space,keypress(Space),,,,,,,,---- -- ----- -- ------ - ------- --- ----------<br>------------- ------ ------ ---- ---- ------- ----- -- ----<br>-------- ------- -- ---------- --- - --- ----- ----- ----<br>---- --- --- ----- --- ---- ---- ------- ----- ---- -------<br>--- --- -- ----- -- --- ---- -- --- ---- -- ------ ------<br>--- ----- at ----,174996,174987.39999997616,174415.919,174425.59999996424,174432.574,174998.844,,54,at
screen,html.Screen,2_1_0_1_55,2022-05-02T11:43:24.941Z,,,,,,,,,,,,,,,,,53,,,,,,,,,,,,,,1871.6559999999881,,response,,,,99,,,,,,,Space,keypress(Space),,,,,,,,---- -- ----- -- ------ - ------- --- ----------<br>------------- ------ ------ ---- ---- ------- ----- -- ----<br>-------- ------- -- ---------- --- - --- ----- ----- ----<br>---- --- --- ----- --- ---- ---- ------- ----- ---- -------<br>--- --- -- ----- -- --- ---- -- --- ---- -- ------ ------<br>--- ----- -- all.,176880.29999995232,176870.5,174982.189,174996.19999998808,174998.844,176897.514,,55,all.
Item 99,flow.Loop,2_1_0_1,2022-05-02T11:43:24.942Z,,,,,,,,,,,,,,,,,,,,,,,,,,,,,,,36065.92499999999,,completion,,,,,G,,,,,,,,,,,silence,,,,,176880.69999998808,176870.5,140787.92,140790.59999996424,140804.575,176897.514,,,
Question 1,html.Screen,2_1_0_2,2022-05-02T11:43:27.189Z,,,,,,,,,,,,,,,,,,,,,,,,,,,,true,FALSE,,2208.9860000000044,,response,,,,99,G,,,,,,FALSE,click #choice-2,,,,silence,,,,,179127.89999997616,179106.5,176880.859,176880.69999998808,176897.514,179129.284,,,
Question 2,html.Screen,2_1_0_3,2022-05-02T11:43:29.712Z,,,,,,,,,,,,,,,,,,,,,,,,,,,,true,TRUE,,2510.315999964223,,response,,,,99,G,,,,,,TRUE,click #choice-1,,,,silence,,,,,181650.79999995232,181639.59999996424,179112.629,179128.29999995232,179129.284,181660.844,,,
Item 99,flow.Sequence,2_1_0,2022-05-02T11:43:29.712Z,,,,,,,,,,,,,,,,,,,,,,,,,,,,,,,50828.716999964236,,completion,,,,,,,,,,,,,,,,,,,,,181651.19999998808,181639.59999996424,130794.228,130799.79999995232,130810.883,181660.844,,,
Holding screen,html.Screen,2_1_1_0,2022-05-02T11:43:39.699Z,,,,,,,,,,,,,,,,,,,,,,,,,,,,,,,9993.377999999997,,timeout,,,,,,,,,,,,,,,,,,,,,191638.79999995232,191637.567,181644.189,181651.39999997616,181660.844,191654.222,,,
screen,html.Screen,2_1_1_1_0,2022-05-02T11:43:40.433Z,,,,,,,,,,,,,,,,,54,,,,,,,,,,,,,,708.3779999642284,,response,,,,100,,,,,,,Space,keypress(Space),,,,,,,,At --- ---- --- ------ ----- ------- ---- -- --- ------- --<br>------- ---------- ------ -- ----- -- ----- -- ---- ------<br>--- ----- --- --- ------ -------- ----- --- ------ ----- --<br>----- ----- ---------- --- --- ------ ------ ---- -- ------<br>------- --- ------ ----- --- ---- ------- -- ---- --- --<br>------- ------,192372.29999995232,192362.59999996424,191637.567,191639.09999996424,191654.222,192387.042,,0,At
screen,html.Screen,2_1_1_1_1,2022-05-02T11:43:40.740Z,,,,,,,,,,,,,,,,,54,,,,,,,,,,,,,,283.25799995232956,,response,,,,100,,,,,,,Space,keypress(Space),,,,,,,,-- the ---- --- ------ ----- ------- ---- -- --- ------- --<br>------- ---------- ------ -- ----- -- ----- -- ---- ------<br>--- ----- --- --- ------ -------- ----- --- ------ ----- --<br>----- ----- ---------- --- --- ------ ------ ---- -- ------<br>------- --- ------ ----- --- ---- ------- -- ---- --- --<br>------- ------,192680,192670.29999995232,192370.387,192372.39999997616,192387.042,192686.832,,1,the
screen,html.Screen,2_1_1_1_2,2022-05-02T11:43:41.029Z,,,,,,,,,,,,,,,,,54,,,,,,,,,,,,,,273.76799996424234,,response,,,,100,,,,,,,Space,keypress(Space),,,,,,,,-- --- time --- ------ ----- ------- ---- -- --- ------- --<br>------- ---------- ------ -- ----- -- ----- -- ---- ------<br>--- ----- --- --- ------ -------- ----- --- ------ ----- --<br>----- ----- ---------- --- --- ------ ------ ---- -- ------<br>------- --- ------ ----- --- ---- ------- -- ---- --- --<br>------- ------,192969.19999998808,192960.59999996424,192670.177,192680.19999998808,192686.832,192970.37,,2,time
screen,html.Screen,2_1_1_1_3,2022-05-02T11:43:41.464Z,,,,,,,,,,,,,,,,,54,,,,,,,,,,,,,,426.0299999761628,,response,,,,100,,,,,,,Space,keypress(Space),,,,,,,,-- --- ---- the ------ ----- ------- ---- -- --- ------- --<br>------- ---------- ------ -- ----- -- ----- -- ---- ------<br>--- ----- --- --- ------ -------- ----- --- ------ ----- --<br>----- ----- ---------- --- --- ------ ------ ---- -- ------<br>------- --- ------ ----- --- ---- ------- -- ---- --- --<br>------- ------,193404.09999996424,193396.39999997616,192953.715,192969.39999997616,192970.37,193420.055,,3,the
screen,html.Screen,2_1_1_1_4,2022-05-02T11:43:41.832Z,,,,,,,,,,,,,,,,,54,,,,,,,,,,,,,,343.14499998808606,,response,,,,100,,,,,,,Space,keypress(Space),,,,,,,,-- --- ---- --- French ----- ------- ---- -- --- ------- --<br>------- ---------- ------ -- ----- -- ----- -- ---- ------<br>--- ----- --- --- ------ -------- ----- --- ------ ----- --<br>----- ----- ---------- --- --- ------ ------ ---- -- ------<br>------- --- ------ ----- --- ---- ------- -- ---- --- --<br>------- ------,193771.69999998808,193763.19999998808,193403.4,193404.19999998808,193420.055,193786.465,,4,French
screen,html.Screen,2_1_1_1_5,2022-05-02T11:43:42.359Z,,,,,,,,,,,,,,,,,54,,,,,,,,,,,,,,503.6349999642407,,response,,,,100,,,,,,,Space,keypress(Space),,,,,,,,-- --- ---- --- ------ crown ------- ---- -- --- ------- --<br>------- ---------- ------ -- ----- -- ----- -- ---- ------<br>--- ----- --- --- ------ -------- ----- --- ------ ----- --<br>----- ----- ---------- --- --- ------ ------ ---- -- ------<br>------- --- ------ ----- --- ---- ------- -- ---- --- --<br>------- ------,194298.59999996424,194290.09999996424,193769.81,193771.89999997616,193786.465,194302.77,,5,crown
screen,html.Screen,2_1_1_1_6,2022-05-02T11:43:42.806Z,,,,,,,,,,,,,,,,,54,,,,,,,,,,,,,,435.2300000000105,,response,,,,100,,,,,,,Space,keypress(Space),,,,,,,,-- --- ---- --- ------ ----- secured ---- -- --- ------- --<br>------- ---------- ------ -- ----- -- ----- -- ---- ------<br>--- ----- --- --- ------ -------- ----- --- ------ ----- --<br>----- ----- ---------- --- --- ------ ------ ---- -- ------<br>------- --- ------ ----- --- ---- ------- -- ---- --- --<br>------- ------,194746.19999998808,194738,194286.115,194298.69999998808,194302.77,194752.455,,6,secured
screen,html.Screen,2_1_1_1_7,2022-05-02T11:43:43.190Z,,,,,,,,,,,,,,,,,54,,,,,,,,,,,,,,368.7449999880919,,response,,,,100,,,,,,,Space,keypress(Space),,,,,,,,-- --- ---- --- ------ ----- ------- much -- --- ------- --<br>------- ---------- ------ -- ----- -- ----- -- ---- ------<br>--- ----- --- --- ------ -------- ----- --- ------ ----- --<br>----- ----- ---------- --- --- ------ ------ ---- -- ------<br>------- --- ------ ----- --- ---- ------- -- ---- --- --<br>------- ------,195129.89999997616,195121.19999998808,194735.8,194746.29999995232,194752.455,195135.52,,7,much
screen,html.Screen,2_1_1_1_8,2022-05-02T11:43:44.508Z,,,,,,,,,,,,,,,,,54,,,,,,,,,,,,,,1305.6799999880895,,response,,,,100,,,,,,,Space,keypress(Space),,,,,,,,-- --- ---- --- ------ ----- ------- ---- of --- ------- --<br>------- ---------- ------ -- ----- -- ----- -- ---- ------<br>--- ----- --- --- ------ -------- ----- --- ------ ----- --<br>----- ----- ---------- --- --- ------ ------ ---- -- ------<br>------- --- ------ ----- --- ---- ------- -- ---- --- --<br>------- ------,196447.79999995232,196441.19999998808,195118.865,195130,195135.52,196467.92,,8,of
screen,html.Screen,2_1_1_1_9,2022-05-02T11:43:44.893Z,,,,,,,,,,,,,,,,,54,,,,,,,,,,,,,,355.8799999523035,,response,,,,100,,,,,,,Space,keypress(Space),,,,,,,,-- --- ---- --- ------ ----- ------- ---- -- its ------- --<br>------- ---------- ------ -- ----- -- ----- -- ---- ------<br>--- ----- --- --- ------ -------- ----- --- ------ ----- --<br>----- ----- ---------- --- --- ------ ------ ---- -- ------<br>------- --- ------ ----- --- ---- ------- -- ---- --- --<br>------- ------,196833,196823.79999995232,196451.265,196447.79999995232,196467.92,196834.33,,9,its
screen,html.Screen,2_1_1_1_10,2022-05-02T11:43:45.278Z,,,,,,,,,,,,,,,,,54,,,,,,,,,,,,,,374.76999996425,,response,,,,100,,,,,,,Space,keypress(Space),,,,,,,,-- --- ---- --- ------ ----- ------- ---- -- --- revenue --<br>------- ---------- ------ -- ----- -- ----- -- ---- ------<br>--- ----- --- --- ------ -------- ----- --- ------ ----- --<br>----- ----- ---------- --- --- ------ ------ ---- -- ------<br>------- --- ------ ----- --- ---- ------- -- ---- --- --<br>------- ------,197217.79999995232,197209.09999996424,196817.675,196833.09999996424,196834.33,197234.05,,10,revenue
screen,html.Screen,2_1_1_1_11,2022-05-02T11:43:45.729Z,,,,,,,,,,,,,,,,,54,,,,,,,,,,,,,,426.3499999761698,,response,,,,100,,,,,,,Space,keypress(Space),,,,,,,,-- --- ---- --- ------ ----- ------- ---- -- --- ------- by<br>------- ---------- ------ -- ----- -- ----- -- ---- ------<br>--- ----- --- --- ------ -------- ----- --- ------ ----- --<br>----- ----- ---------- --- --- ------ ------ ---- -- ------<br>------- --- ------ ----- --- ---- ------- -- ---- --- --<br>------- ------,197668.5,197660.39999997616,197217.395,197217.89999997616,197234.05,197683.735,,11,by
screen,html.Screen,2_1_1_1_12,2022-05-02T11:43:46.233Z,,,,,,,,,,,,,,,,,54,,,,,,,,,,,,,,480.96499998809304,,response,,,,100,,,,,,,Space,keypress(Space),,,,,,,,-- --- ---- --- ------ ----- ------- ---- -- --- ------- --<br>issuing ---------- ------ -- ----- -- ----- -- ---- ------<br>--- ----- --- --- ------ -------- ----- --- ------ ----- --<br>----- ----- ---------- --- --- ------ ------ ---- -- ------<br>------- --- ------ ----- --- ---- ------- -- ---- --- --<br>------- ------,198173.09999996424,198164.69999998808,197667.08,197668.69999998808,197683.735,198183.385,,12,issuing
screen,html.Screen,2_1_1_1_13,2022-05-02T11:43:46.704Z,,,,,,,,,,,,,,,,,54,,,,,,,,,,,,,,451.7149999642279,,response,,,,100,,,,,,,Space,keypress(Space),,,,,,,,-- --- ---- --- ------ ----- ------- ---- -- --- ------- --<br>------- government ------ -- ----- -- ----- -- ---- ------<br>--- ----- --- --- ------ -------- ----- --- ------ ----- --<br>----- ----- ---------- --- --- ------ ------ ---- -- ------<br>------- --- ------ ----- --- ---- ------- -- ---- --- --<br>------- ------,198644,198635.09999996424,198166.73,198173.19999998808,198183.385,198649.725,,13,government
screen,html.Screen,2_1_1_1_14,2022-05-02T11:43:47.105Z,,,,,,,,,,,,,,,,,54,,,,,,,,,,,,,,387.3749999642314,,response,,,,100,,,,,,,Space,keypress(Space),,,,,,,,-- --- ---- --- ------ ----- ------- ---- -- --- ------- --<br>------- ---------- bonds. -- ----- -- ----- -- ---- ------<br>--- ----- --- --- ------ -------- ----- --- ------ ----- --<br>----- ----- ---------- --- --- ------ ------ ---- -- ------<br>------- --- ------ ----- --- ---- ------- -- ---- --- --<br>------- ------,199045.19999998808,199037.09999996424,198633.07,198644.19999998808,198649.725,199049.445,,14,bonds.
screen,html.Screen,2_1_1_1_15,2022-05-02T11:43:49.517Z,,,,,,,,,,,,,,,,,54,,,,,,,,,,,,,,2398.6549999642302,,response,,,,100,,,,,,,Space,keypress(Space),,,,,,,,-- --- ---- --- ------ ----- ------- ---- -- --- ------- --<br>------- ---------- ------ In ----- -- ----- -- ---- ------<br>--- ----- --- --- ------ -------- ----- --- ------ ----- --<br>----- ----- ---------- --- --- ------ ------ ---- -- ------<br>------- --- ------ ----- --- ---- ------- -- ---- --- --<br>------- ------,201456.79999995232,201448.09999996424,199032.79,199045.39999997616,199049.445,201464.42,,15,In
screen,html.Screen,2_1_1_1_16,2022-05-02T11:43:50.218Z,,,,,,,,,,,,,,,,,54,,,,,,,,,,,,,,685.3799999523035,,response,,,,100,,,,,,,Space,keypress(Space),,,,,,,,"-- --- ---- --- ------ ----- ------- ---- -- --- ------- --<br>------- ---------- ------ -- 1727, -- ----- -- ---- ------<br>--- ----- --- --- ------ -------- ----- --- ------ ----- --<br>----- ----- ---------- --- --- ------ ------ ---- -- ------<br>------- --- ------ ----- --- ---- ------- -- ---- --- --<br>------- ------",202158.5,202149.79999995232,201447.765,201457,201464.42,202163.93,,16,"1727,"
screen,html.Screen,2_1_1_1_17,2022-05-02T11:43:50.715Z,,,,,,,,,,,,,,,,,54,,,,,,,,,,,,,,480.9699999761651,,response,,,,100,,,,,,,Space,keypress(Space),,,,,,,,-- --- ---- --- ------ ----- ------- ---- -- --- ------- --<br>------- ---------- ------ -- ----- in ----- -- ---- ------<br>--- ----- --- --- ------ -------- ----- --- ------ ----- --<br>----- ----- ---------- --- --- ------ ------ ---- -- ------<br>------- --- ------ ----- --- ---- ------- -- ---- --- --<br>------- ------,202654.69999998808,202644.89999997616,202147.275,202158.5,202163.93,202663.58,,17,in
screen,html.Screen,2_1_1_1_18,2022-05-02T11:43:51.172Z,,,,,,,,,,,,,,,,,54,,,,,,,,,,,,,,440.51999996425,,response,,,,100,,,,,,,Space,keypress(Space),,,,,,,,-- --- ---- --- ------ ----- ------- ---- -- --- ------- --<br>------- ---------- ------ -- ----- -- order -- ---- ------<br>--- ----- --- --- ------ -------- ----- --- ------ ----- --<br>----- ----- ---------- --- --- ------ ------ ---- -- ------<br>------- --- ------ ----- --- ---- ------- -- ---- --- --<br>------- ------,203111.79999995232,203104.09999996424,202646.925,202654.79999995232,202663.58,203113.265,,18,order
screen,html.Screen,2_1_1_1_19,2022-05-02T11:43:51.482Z,,,,,,,,,,,,,,,,,54,,,,,,,,,,,,,,299.73499999998603,,response,,,,100,,,,,,,Space,keypress(Space),,,,,,,,-- --- ---- --- ------ ----- ------- ---- -- --- ------- --<br>------- ---------- ------ -- ----- -- ----- to ---- ------<br>--- ----- --- --- ------ -------- ----- --- ------ ----- --<br>----- ----- ---------- --- --- ------ ------ ---- -- ------<br>------- --- ------ ----- --- ---- ------- -- ---- --- --<br>------- ------,203421.89999997616,203413,203096.61,203111.89999997616,203113.265,203430.095,,19,to
screen,html.Screen,2_1_1_1_20,2022-05-02T11:43:51.724Z,,,,,,,,,,,,,,,,,54,,,,,,,,,,,,,,225.20499995231512,,response,,,,100,,,,,,,Space,keypress(Space),,,,,,,,-- --- ---- --- ------ ----- ------- ---- -- --- ------- --<br>------- ---------- ------ -- ----- -- ----- -- save ------<br>--- ----- --- --- ------ -------- ----- --- ------ ----- --<br>----- ----- ---------- --- --- ------ ------ ---- -- ------<br>------- --- ------ ----- --- ---- ------- -- ---- --- --<br>------- ------,203664,203655.29999995232,203413.44,203421.89999997616,203430.095,203679.92,,20,save
screen,html.Screen,2_1_1_1_21,2022-05-02T11:43:52.249Z,,,,,,,,,,,,,,,,,54,,,,,,,,,,,,,,505.77999998806627,,response,,,,100,,,,,,,Space,keypress(Space),,,,,,,,"-- --- ---- --- ------ ----- ------- ---- -- --- ------- --<br>------- ---------- ------ -- ----- -- ----- -- ---- money,<br>--- ----- --- --- ------ -------- ----- --- ------ ----- --<br>----- ----- ---------- --- --- ------ ------ ---- -- ------<br>------- --- ------ ----- --- ---- ------- -- ---- --- --<br>------- ------",204189.19999998808,204185.69999998808,203663.265,203664.19999998808,203679.92,204196.225,,21,"money,"
screen,html.Screen,2_1_1_1_22,2022-05-02T11:43:52.855Z,,,,,,,,,,,,,,,,,54,,,,,,,,,,,,,,590.8749999642314,,response,,,,100,,,,,,,Space,keypress(Space),,,,,,,,-- --- ---- --- ------ ----- ------- ---- -- --- ------- --<br>------- ---------- ------ -- ----- -- ----- -- ---- ------<br>the ----- --- --- ------ -------- ----- --- ------ ----- --<br>----- ----- ---------- --- --- ------ ------ ---- -- ------<br>------- --- ------ ----- --- ---- ------- -- ---- --- --<br>------- ------,204794.79999995232,204787.09999996424,204179.57,204189.29999995232,204196.225,204795.805,,22,the
screen,html.Screen,2_1_1_1_23,2022-05-02T11:43:53.133Z,,,,,,,,,,,,,,,,,54,,,,,,,,,,,,,,268.0949999761651,,response,,,,100,,,,,,,Space,keypress(Space),,,,,,,,-- --- ---- --- ------ ----- ------- ---- -- --- ------- --<br>------- ---------- ------ -- ----- -- ----- -- ---- ------<br>--- state --- --- ------ -------- ----- --- ------ ----- --<br>----- ----- ---------- --- --- ------ ------ ---- -- ------<br>------- --- ------ ----- --- ---- ------- -- ---- --- --<br>------- ------,205073.29999995232,205063.89999997616,204779.15,204794.89999997616,204795.805,205078.94,,23,state
screen,html.Screen,2_1_1_1_24,2022-05-02T11:43:53.556Z,,,,,,,,,,,,,,,,,54,,,,,,,,,,,,,,408.9599999761558,,response,,,,100,,,,,,,Space,keypress(Space),,,,,,,,-- --- ---- --- ------ ----- ------- ---- -- --- ------- --<br>------- ---------- ------ -- ----- -- ----- -- ---- ------<br>--- ----- cut --- ------ -------- ----- --- ------ ----- --<br>----- ----- ---------- --- --- ------ ------ ---- -- ------<br>------- --- ------ ----- --- ---- ------- -- ---- --- --<br>------- ------,205496.39999997616,205487.89999997616,205062.285,205073.39999997616,205078.94,205511.97,,24,cut
screen,html.Screen,2_1_1_1_25,2022-05-02T11:43:53.969Z,,,,,,,,,,,,,,,,,54,,,,,,,,,,,,,,388.3299999523151,,response,,,,100,,,,,,,Space,keypress(Space),,,,,,,,-- --- ---- --- ------ ----- ------- ---- -- --- ------- --<br>------- ---------- ------ -- ----- -- ----- -- ---- ------<br>--- ----- --- the ------ -------- ----- --- ------ ----- --<br>----- ----- ---------- --- --- ------ ------ ---- -- ------<br>------- --- ------ ----- --- ---- ------- -- ---- --- --<br>------- ------,205909.19999998808,205900.29999995232,205495.315,205496.59999996424,205511.97,205911.69,,25,the
screen,html.Screen,2_1_1_1_26,2022-05-02T11:43:54.411Z,,,,,,,,,,,,,,,,,54,,,,,,,,,,,,,,431.2099999761558,,response,,,,100,,,,,,,Space,keypress(Space),,,,,,,,-- --- ---- --- ------ ----- ------- ---- -- --- ------- --<br>------- ---------- ------ -- ----- -- ----- -- ---- ------<br>--- ----- --- --- bonds' -------- ----- --- ------ ----- --<br>----- ----- ---------- --- --- ------ ------ ---- -- ------<br>------- --- ------ ----- --- ---- ------- -- ---- --- --<br>------- ------,206351.09999996424,206342.89999997616,205895.035,205909.29999995232,205911.69,206361.375,,26,bonds'
screen,html.Screen,2_1_1_1_27,2022-05-02T11:43:54.798Z,,,,,,,,,,,,,,,,,54,,,,,,,,,,,,,,368.32499998807907,,response,,,,100,,,,,,,Space,keypress(Space),,,,,,,,-- --- ---- --- ------ ----- ------- ---- -- --- ------- --<br>------- ---------- ------ -- ----- -- ----- -- ---- ------<br>--- ----- --- --- ------ interest ----- --- ------ ----- --<br>----- ----- ---------- --- --- ------ ------ ---- -- ------<br>------- --- ------ ----- --- ---- ------- -- ---- --- --<br>------- ------,206738.5,206729.69999998808,206344.72,206351.19999998808,206361.375,206744.44,,27,interest
screen,html.Screen,2_1_1_1_28,2022-05-02T11:43:55.209Z,,,,,,,,,,,,,,,,,54,,,,,,,,,,,,,,396.4599999761558,,response,,,,100,,,,,,,Space,keypress(Space),,,,,,,,-- --- ---- --- ------ ----- ------- ---- -- --- ------- --<br>------- ---------- ------ -- ----- -- ----- -- ---- ------<br>--- ----- --- --- ------ -------- rate. --- ------ ----- --<br>----- ----- ---------- --- --- ------ ------ ---- -- ------<br>------- --- ------ ----- --- ---- ------- -- ---- --- --<br>------- ------,207149.79999995232,207140.89999997616,206727.785,206738.69999998808,206744.44,207160.815,,28,rate.
screen,html.Screen,2_1_1_1_29,2022-05-02T11:43:56.786Z,,,,,,,,,,,,,,,,,54,,,,,,,,,,,,,,1557.0849999761558,,response,,,,100,,,,,,,Space,keypress(Space),,,,,,,,-- --- ---- --- ------ ----- ------- ---- -- --- ------- --<br>------- ---------- ------ -- ----- -- ----- -- ---- ------<br>--- ----- --- --- ------ -------- ----- The ------ ----- --<br>----- ----- ---------- --- --- ------ ------ ---- -- ------<br>------- --- ------ ----- --- ---- ------- -- ---- --- --<br>------- ------,208726.69999998808,208717.89999997616,207144.16,207149.89999997616,207160.815,208743.04,,29,The
screen,html.Screen,2_1_1_1_30,2022-05-02T11:43:57.203Z,,,,,,,,,,,,,,,,,54,,,,,,,,,,,,,,390.95999999999185,,response,,,,100,,,,,,,Space,keypress(Space),,,,,,,,-- --- ---- --- ------ ----- ------- ---- -- --- ------- --<br>------- ---------- ------ -- ----- -- ----- -- ---- ------<br>--- ----- --- --- ------ -------- ----- --- market ----- --<br>----- ----- ---------- --- --- ------ ------ ---- -- ------<br>------- --- ------ ----- --- ---- ------- -- ---- --- --<br>------- ------,209143.09999996424,209134,208726.385,208726.89999997616,208743.04,209159.415,,30,market
screen,html.Screen,2_1_1_1_31,2022-05-02T11:43:57.583Z,,,,,,,,,,,,,,,,,54,,,,,,,,,,,,,,355.2849999880709,,response,,,,100,,,,,,,Space,keypress(Space),,,,,,,,-- --- ---- --- ------ ----- ------- ---- -- --- ------- --<br>------- ---------- ------ -- ----- -- ----- -- ---- ------<br>--- ----- --- --- ------ -------- ----- --- ------ value --<br>----- ----- ---------- --- --- ------ ------ ---- -- ------<br>------- --- ------ ----- --- ---- ------- -- ---- --- --<br>------- ------,209523.69999998808,209514.69999998808,209142.76,209143.39999997616,209159.415,209525.825,,31,value
screen,html.Screen,2_1_1_1_32,2022-05-02T11:43:58.035Z,,,,,,,,,,,,,,,,,54,,,,,,,,,,,,,,441.87499998806743,,response,,,,100,,,,,,,Space,keypress(Space),,,,,,,,-- --- ---- --- ------ ----- ------- ---- -- --- ------- --<br>------- ---------- ------ -- ----- -- ----- -- ---- ------<br>--- ----- --- --- ------ -------- ----- --- ------ ----- of<br>----- ----- ---------- --- --- ------ ------ ---- -- ------<br>------- --- ------ ----- --- ---- ------- -- ---- --- --<br>------- ------,209975.19999998808,209967.69999998808,209509.17,209523.79999995232,209525.825,209992.165,,32,of
screen,html.Screen,2_1_1_1_33,2022-05-02T11:43:58.432Z,,,,,,,,,,,,,,,,,54,,,,,,,,,,,,,,372.63499995230814,,response,,,,100,,,,,,,Space,keypress(Space),,,,,,,,-- --- ---- --- ------ ----- ------- ---- -- --- ------- --<br>------- ---------- ------ -- ----- -- ----- -- ---- ------<br>--- ----- --- --- ------ -------- ----- --- ------ ----- --<br>these ----- ---------- --- --- ------ ------ ---- -- ------<br>------- --- ------ ----- --- ---- ------- -- ---- --- --<br>------- ------,210372.39999997616,210364.79999995232,209975.51,209975.29999995232,209992.165,210375.23,,33,these
screen,html.Screen,2_1_1_1_34,2022-05-02T11:43:58.808Z,,,,,,,,,,,,,,,,,54,,,,,,,,,,,,,,364.4699999880686,,response,,,,100,,,,,,,Space,keypress(Space),,,,,,,,-- --- ---- --- ------ ----- ------- ---- -- --- ------- --<br>------- ---------- ------ -- ----- -- ----- -- ---- ------<br>--- ----- --- --- ------ -------- ----- --- ------ ----- --<br>----- bonds ---------- --- --- ------ ------ ---- -- ------<br>------- --- ------ ----- --- ---- ------- -- ---- --- --<br>------- ------,210748.69999998808,210739.69999998808,210358.575,210373.19999998808,210375.23,210758.295,,34,bonds
screen,html.Screen,2_1_1_1_35,2022-05-02T11:43:59.091Z,,,,,,,,,,,,,,,,,54,,,,,,,,,,,,,,265.40499998806627,,response,,,,100,,,,,,,Space,keypress(Space),,,,,,,,"-- --- ---- --- ------ ----- ------- ---- -- --- ------- --<br>------- ---------- ------ -- ----- -- ----- -- ---- ------<br>--- ----- --- --- ------ -------- ----- --- ------ ----- --<br>----- ----- plummeted, --- --- ------ ------ ---- -- ------<br>------- --- ------ ----- --- ---- ------- -- ---- --- --<br>------- ------",211031.5,211023.69999998808,210741.64,210748.89999997616,210758.295,211041.43,,35,"plummeted,"
screen,html.Screen,2_1_1_1_36,2022-05-02T11:44:00.197Z,,,,,,,,,,,,,,,,,54,,,,,,,,,,,,,,1087.3699999523233,,response,,,,100,,,,,,,Space,keypress(Space),,,,,,,,-- --- ---- --- ------ ----- ------- ---- -- --- ------- --<br>------- ---------- ------ -- ----- -- ----- -- ---- ------<br>--- ----- --- --- ------ -------- ----- --- ------ ----- --<br>----- ----- ---------- and --- ------ ------ ---- -- ------<br>------- --- ------ ----- --- ---- ------- -- ---- --- --<br>------- ------,212137.89999997616,212128.79999995232,211024.775,211031.69999998808,211041.43,212140.66,,36,and
screen,html.Screen,2_1_1_1_37,2022-05-02T11:44:00.593Z,,,,,,,,,,,,,,,,,54,,,,,,,,,,,,,,383.8399999999965,,response,,,,100,,,,,,,Space,keypress(Space),,,,,,,,-- --- ---- --- ------ ----- ------- ---- -- --- ------- --<br>------- ---------- ------ -- ----- -- ----- -- ---- ------<br>--- ----- --- --- ------ -------- ----- --- ------ ----- --<br>----- ----- ---------- --- the ------ ------ ---- -- ------<br>------- --- ------ ----- --- ---- ------- -- ---- --- --<br>------- ------,212533.39999997616,212524.5,212124.005,212138,212140.66,212540.38,,37,the
screen,html.Screen,2_1_1_1_38,2022-05-02T11:44:01.031Z,,,,,,,,,,,,,,,,,54,,,,,,,,,,,,,,421.9199999523116,,response,,,,100,,,,,,,Space,keypress(Space),,,,,,,,-- --- ---- --- ------ ----- ------- ---- -- --- ------- --<br>------- ---------- ------ -- ----- -- ----- -- ---- ------<br>--- ----- --- --- ------ -------- ----- --- ------ ----- --<br>----- ----- ---------- --- --- market ------ ---- -- ------<br>------- --- ------ ----- --- ---- ------- -- ---- --- --<br>------- ------,212972,212962.29999995232,212523.725,212533.59999996424,212540.38,212973.41,,38,market
screen,html.Screen,2_1_1_1_39,2022-05-02T11:44:01.469Z,,,,,,,,,,,,,,,,,54,,,,,,,,,,,,,,428.2899999880756,,response,,,,100,,,,,,,Space,keypress(Space),,,,,,,,-- --- ---- --- ------ ----- ------- ---- -- --- ------- --<br>------- ---------- ------ -- ----- -- ----- -- ---- ------<br>--- ----- --- --- ------ -------- ----- --- ------ ----- --<br>----- ----- ---------- --- --- ------ became ---- -- ------<br>------- --- ------ ----- --- ---- ------- -- ---- --- --<br>------- ------,213409.29999995232,213401.69999998808,212956.755,212972.09999996424,212973.41,213423.095,,39,became
screen,html.Screen,2_1_1_1_40,2022-05-02T11:44:01.898Z,,,,,,,,,,,,,,,,,54,,,,,,,,,,,,,,406.50499996423605,,response,,,,100,,,,,,,Space,keypress(Space),,,,,,,,-- --- ---- --- ------ ----- ------- ---- -- --- ------- --<br>------- ---------- ------ -- ----- -- ----- -- ---- ------<br>--- ----- --- --- ------ -------- ----- --- ------ ----- --<br>----- ----- ---------- --- --- ------ ------ wary -- ------<br>------- --- ------ ----- --- ---- ------- -- ---- --- --<br>------- ------,213838.29999995232,213829.59999996424,213406.44,213409.39999997616,213423.095,213839.858,,40,wary
screen,html.Screen,2_1_1_1_41,2022-05-02T11:44:02.381Z,,,,,,,,,,,,,,,,,54,,,,,,,,,,,,,,474.74199996422976,,response,,,,100,,,,,,,Space,keypress(Space),,,,,,,,-- --- ---- --- ------ ----- ------- ---- -- --- ------- --<br>------- ---------- ------ -- ----- -- ----- -- ---- ------<br>--- ----- --- --- ------ -------- ----- --- ------ ----- --<br>----- ----- ---------- --- --- ------ ------ ---- of ------<br>------- --- ------ ----- --- ---- ------- -- ---- --- --<br>------- ------,214321.79999995232,214314.59999996424,213823.203,213838.39999997616,213839.858,214322.853,,41,of
screen,html.Screen,2_1_1_1_42,2022-05-02T11:44:02.853Z,,,,,,,,,,,,,,,,,54,,,,,,,,,,,,,,462.9469999523135,,response,,,,100,,,,,,,Space,keypress(Space),,,,,,,,-- --- ---- --- ------ ----- ------- ---- -- --- ------- --<br>------- ---------- ------ -- ----- -- ----- -- ---- ------<br>--- ----- --- --- ------ -------- ----- --- ------ ----- --<br>----- ----- ---------- --- --- ------ ------ ---- -- French<br>------- --- ------ ----- --- ---- ------- -- ---- --- --<br>------- ------,214793.29999995232,214785.79999995232,214306.198,214321.89999997616,214322.853,214805.848,,42,French
screen,html.Screen,2_1_1_1_43,2022-05-02T11:44:03.389Z,,,,,,,,,,,,,,,,,54,,,,,,,,,,,,,,513.9519999523181,,response,,,,100,,,,,,,Space,keypress(Space),,,,,,,,-- --- ---- --- ------ ----- ------- ---- -- --- ------- --<br>------- ---------- ------ -- ----- -- ----- -- ---- ------<br>--- ----- --- --- ------ -------- ----- --- ------ ----- --<br>----- ----- ---------- --- --- ------ ------ ---- -- ------<br>credit. --- ------ ----- --- ---- ------- -- ---- --- --<br>------- ------,215329.09999996424,215319.79999995232,214789.193,214793.59999996424,214805.848,215338.808,,43,credit.
screen,html.Screen,2_1_1_1_44,2022-05-02T11:44:03.837Z,,,,,,,,,,,,,,,,,54,,,,,,,,,,,,,,429.3919999880891,,response,,,,100,,,,,,,Space,keypress(Space),,,,,,,,-- --- ---- --- ------ ----- ------- ---- -- --- ------- --<br>------- ---------- ------ -- ----- -- ----- -- ---- ------<br>--- ----- --- --- ------ -------- ----- --- ------ ----- --<br>----- ----- ---------- --- --- ------ ------ ---- -- ------<br>------- The ------ ----- --- ---- ------- -- ---- --- --<br>------- ------,215777.19999998808,215768.19999998808,215322.153,215329.29999995232,215338.808,215788.493,,44,The
screen,html.Screen,2_1_1_1_45,2022-05-02T11:44:04.209Z,,,,,,,,,,,,,,,,,54,,,,,,,,,,,,,,352.60699996424955,,response,,,,100,,,,,,,Space,keypress(Space),,,,,,,,-- --- ---- --- ------ ----- ------- ---- -- --- ------- --<br>------- ---------- ------ -- ----- -- ----- -- ---- ------<br>--- ----- --- --- ------ -------- ----- --- ------ ----- --<br>----- ----- ---------- --- --- ------ ------ ---- -- ------<br>------- --- French ----- --- ---- ------- -- ---- --- --<br>------- ------,216149.5,216141.09999996424,215771.838,215777.29999995232,215788.493,216154.903,,45,French
screen,html.Screen,2_1_1_1_46,2022-05-02T11:44:04.579Z,,,,,,,,,,,,,,,,,54,,,,,,,,,,,,,,355.59700000000885,,response,,,,100,,,,,,,Space,keypress(Space),,,,,,,,-- --- ---- --- ------ ----- ------- ---- -- --- ------- --<br>------- ---------- ------ -- ----- -- ----- -- ---- ------<br>--- ----- --- --- ------ -------- ----- --- ------ ----- --<br>----- ----- ---------- --- --- ------ ------ ---- -- ------<br>------- --- ------ state --- ---- ------- -- ---- --- --<br>------- ------,216519.39999997616,216510.5,216138.248,216149.59999996424,216154.903,216521.313,,46,state
screen,html.Screen,2_1_1_1_47,2022-05-02T11:44:04.954Z,,,,,,,,,,,,,,,,,54,,,,,,,,,,,,,,365.28699996424257,,response,,,,100,,,,,,,Space,keypress(Space),,,,,,,,-- --- ---- --- ------ ----- ------- ---- -- --- ------- --<br>------- ---------- ------ -- ----- -- ----- -- ---- ------<br>--- ----- --- --- ------ -------- ----- --- ------ ----- --<br>----- ----- ---------- --- --- ------ ------ ---- -- ------<br>------- --- ------ ----- was ---- ------- -- ---- --- --<br>------- ------,216895.19999998808,216886.59999996424,216504.658,216519.59999996424,216521.313,216904.378,,47,was
screen,html.Screen,2_1_1_1_48,2022-05-02T11:44:05.307Z,,,,,,,,,,,,,,,,,54,,,,,,,,,,,,,,334.22199996424024,,response,,,,100,,,,,,,Space,keypress(Space),,,,,,,,-- --- ---- --- ------ ----- ------- ---- -- --- ------- --<br>------- ---------- ------ -- ----- -- ----- -- ---- ------<br>--- ----- --- --- ------ -------- ----- --- ------ ----- --<br>----- ----- ---------- --- --- ------ ------ ---- -- ------<br>------- --- ------ ----- --- left ------- -- ---- --- --<br>------- ------,217247.69999998808,217238.59999996424,216887.723,216895.19999998808,216904.378,217254.133,,48,left
screen,html.Screen,2_1_1_1_49,2022-05-02T11:44:05.536Z,,,,,,,,,,,,,,,,,54,,,,,,,,,,,,,,213.7669999761565,,response,,,,100,,,,,,,Space,keypress(Space),,,,,,,,-- --- ---- --- ------ ----- ------- ---- -- --- ------- --<br>------- ---------- ------ -- ----- -- ----- -- ---- ------<br>--- ----- --- --- ------ -------- ----- --- ------ ----- --<br>----- ----- ---------- --- --- ------ ------ ---- -- ------<br>------- --- ------ ----- --- ---- without -- ---- --- --<br>------- ------,217477.19999998808,217467.89999997616,217237.478,217248,217254.133,217487.303,,49,without
screen,html.Screen,2_1_1_1_50,2022-05-02T11:44:05.992Z,,,,,,,,,,,,,,,,,54,,,,,,,,,,,,,,437.2969999642228,,response,,,,100,,,,,,,Space,keypress(Space),,,,,,,,-- --- ---- --- ------ ----- ------- ---- -- --- ------- --<br>------- ---------- ------ -- ----- -- ----- -- ---- ------<br>--- ----- --- --- ------ -------- ----- --- ------ ----- --<br>----- ----- ---------- --- --- ------ ------ ---- -- ------<br>------- --- ------ ----- --- ---- ------- an ---- --- --<br>------- ------,217932.59999996424,217924.59999996424,217470.648,217477.39999997616,217487.303,217936.988,,50,an
screen,html.Screen,2_1_1_1_51,2022-05-02T11:44:06.360Z,,,,,,,,,,,,,,,,,54,,,,,,,,,,,,,,356.41199997614603,,response,,,,100,,,,,,,Space,keypress(Space),,,,,,,,-- --- ---- --- ------ ----- ------- ---- -- --- ------- --<br>------- ---------- ------ -- ----- -- ----- -- ---- ------<br>--- ----- --- --- ------ -------- ----- --- ------ ----- --<br>----- ----- ---------- --- --- ------ ------ ---- -- ------<br>------- --- ------ ----- --- ---- ------- -- easy --- --<br>------- ------,218301,218293.39999997616,217920.333,217932.69999998808,217936.988,218303.398,,51,easy
screen,html.Screen,2_1_1_1_52,2022-05-02T11:44:06.709Z,,,,,,,,,,,,,,,,,54,,,,,,,,,,,,,,339.00199997617165,,response,,,,100,,,,,,,Space,keypress(Space),,,,,,,,-- --- ---- --- ------ ----- ------- ---- -- --- ------- --<br>------- ---------- ------ -- ----- -- ----- -- ---- ------<br>--- ----- --- --- ------ -------- ----- --- ------ ----- --<br>----- ----- ---------- --- --- ------ ------ ---- -- ------<br>------- --- ------ ----- --- ---- ------- -- ---- way --<br>------- ------,218650.09999996424,218642.39999997616,218286.743,218301.19999998808,218303.398,218653.153,,52,way
screen,html.Screen,2_1_1_1_53,2022-05-02T11:44:07.152Z,,,,,,,,,,,,,,,,,54,,,,,,,,,,,,,,430.746999976167,,response,,,,100,,,,,,,Space,keypress(Space),,,,,,,,-- --- ---- --- ------ ----- ------- ---- -- --- ------- --<br>------- ---------- ------ -- ----- -- ----- -- ---- ------<br>--- ----- --- --- ------ -------- ----- --- ------ ----- --<br>----- ----- ---------- --- --- ------ ------ ---- -- ------<br>------- --- ------ ----- --- ---- ------- -- ---- --- of<br>------- ------,219092.79999995232,219083.89999997616,218636.498,218650.29999995232,218653.153,219102.838,,53,of
screen,html.Screen,2_1_1_1_54,2022-05-02T11:44:07.624Z,,,,,,,,,,,,,,,,,54,,,,,,,,,,,,,,452.7619999642484,,response,,,,100,,,,,,,Space,keypress(Space),,,,,,,,-- --- ---- --- ------ ----- ------- ---- -- --- ------- --<br>------- ---------- ------ -- ----- -- ----- -- ---- ------<br>--- ----- --- --- ------ -------- ----- --- ------ ----- --<br>----- ----- ---------- --- --- ------ ------ ---- -- ------<br>------- --- ------ ----- --- ---- ------- -- ---- --- --<br>raising ------,219564.69999998808,219555.59999996424,219086.183,219093.09999996424,219102.838,219569.178,,54,raising
screen,html.Screen,2_1_1_1_55,2022-05-02T11:44:08.268Z,,,,,,,,,,,,,,,,,54,,,,,,,,,,,,,,631.4219999642228,,response,,,,100,,,,,,,Space,keypress(Space),,,,,,,,-- --- ---- --- ------ ----- ------- ---- -- --- ------- --<br>------- ---------- ------ -- ----- -- ----- -- ---- ------<br>--- ----- --- --- ------ -------- ----- --- ------ ----- --<br>----- ----- ---------- --- --- ------ ------ ---- -- ------<br>------- --- ------ ----- --- ---- ------- -- ---- --- --<br>------- money.,220209.29999995232,220200.59999996424,219552.523,219564.79999995232,219569.178,220218.723,,55,money.
Item 100,flow.Loop,2_1_1_1,2022-05-02T11:44:08.269Z,,,,,,,,,,,,,,,,,,,,,,,,,,,,,,,28546.37799996423,,completion,,,,,G,,,,,,,,,,,silence,,,,,220209.5,220200.59999996424,191637.567,191639,191654.222,220218.723,,,
Question 1,html.Screen,2_1_1_2,2022-05-02T11:44:10.195Z,,,,,,,,,,,,,,,,,,,,,,,,,,,,true,TRUE,,1897.476999988081,,response,,,,100,G,,,,,,TRUE,click #choice-1,,,,silence,,,,,222136,222116.19999998808,220202.068,220209.59999996424,220218.723,222150.703,,,
Question 2,html.Screen,2_1_1_3,2022-05-02T11:44:12.037Z,,,,,,,,,,,,,,,,,,,,,,,,,,,,true,FALSE,,1812.1969999761495,,response,,,,100,G,,,,,,FALSE,click #choice-2,,,,silence,,,,,223978.39999997616,223962.89999997616,222134.048,222136.19999998808,222150.703,223983.134,,,
Item 100,flow.Sequence,2_1_1,2022-05-02T11:44:12.038Z,,,,,,,,,,,,,,,,,,,,,,,,,,,,,,,42302.055999976146,,completion,,,,,,,,,,,,,,,,,,,,,223978.69999998808,223962.89999997616,181644.189,181651.39999997616,181660.844,223983.134,,,
End of Practice,html.Page,2_1_2,2022-05-02T11:44:16.417Z,,,,,,,,,,,,,,,,,,,,,,,,,,,,,,,4375.065999988088,,form submission,,,,,,,,,,,,,,,,,,,,,228358.39999997616,228358.19999998808,223966.479,223978.69999998808,223983.134,228363.399,,,
Practice,flow.Sequence,2_1,2022-05-02T11:44:16.418Z,,,,,,,,,,,,,,,,,,,,,,,,,,,,,,,97547.31699998808,,completion,,,,,,,,,,,,,,,,,,,,,228358.69999998808,228358.19999998808,130794.228,130799.69999998808,130810.883,228363.399,,,
Trap_instruction,html.Page,2_2_0,2022-05-02T11:44:20.710Z,,,,,,,,,,,,,,,,,,,,,,,,,,,,,,,4287.600999999995,,form submission,,,,,,,,,,,,,,,,,,,,,232651.29999995232,232651,228346.744,228358.79999995232,228363.399,232660.389,,,
trap_trial,html.Screen,2_2_1,2022-05-02T11:44:23.799Z,,,,,,,,,,,,,,,,,,,,,,,,,,,,true,1,,3067.6110000000044,,response,,,,,,,,,,,1,click #choice-1,,,,,,,,,235740.09999996424,235728,232643.734,232651.39999997616,232660.389,235741.564,,,
end of trap trial,html.Page,2_2_2,2022-05-02T11:44:25.185Z,,,,,,,,,,,,,,,,,,,,,,,,,,,,,,,1384.435999999987,,form submission,,,,,,,,,,,,,,,,,,,,,237126.29999995232,237126,235724.909,235740.29999995232,235741.564,237141.057,,,
Trap 1,flow.Sequence,2_2,2022-05-02T11:44:25.185Z,,,,,,,,,,,,,,,,,,,,,,,,,,,,,,,8762.600999999995,,completion,,,,,,,,,,,,,,,,,,,,,237126.5,237126,228346.744,228358.79999995232,228363.399,237141.057,,,
Standby,html.Page,2_3_0,2022-05-02T11:44:33.179Z,,,,,,,,,,,,,,,,,,,,,,,,,,,,,,,7994.399999999994,,timeout,,,,,,,,,,,,,,,,,,,,,245121,245118.802,237124.402,237126.59999996424,237141.057,245135.457,,,
Holding screen,html.Screen,2_3_1_0_0,2022-05-02T11:44:40.175Z,,,,,,,,,,,,,,,,,,,,,,,,,,,,,,,6995.489999999991,,timeout,,,,,,,,,,,,,,,,,,,,,252117.09999996424,252114.292,245118.802,245121.29999995232,245135.457,252130.947,,,
screen,html.Screen,2_3_1_0_1_0,2022-05-02T11:44:40.976Z,,,,,,,,,,,,,,,,,12,,,,,,,,,,,,,,776.3529999523307,,response,,,,5,G,,,,,,Space,keypress(Space),,,,instrumental,,,,Some ------ ------ ------- ------ --- ------- -----------<br>-- ----- --- ---- -- --- ------ ---- - ---- -- ----------<br>-- ------ ---- --- ---- --- --- --- ----- -- -------- ---<br>------ ------- -------- --- ---- -- ------- ------------ --<br>------ -- ---- -- --- ---- -- -------- -- --- ------ ------,252917.59999996424,252907.29999995232,252114.292,252117.39999997616,252130.947,252930.387,,0,Some
screen,html.Screen,2_3_1_0_1_1,2022-05-02T11:44:41.382Z,,,,,,,,,,,,,,,,,12,,,,,,,,,,,,,,385.1130000000121,,response,,,,5,G,,,,,,Space,keypress(Space),,,,instrumental,,,,---- months ------ ------- ------ --- ------- -----------<br>-- ----- --- ---- -- --- ------ ---- - ---- -- ----------<br>-- ------ ---- --- ---- --- --- --- ----- -- -------- ---<br>------ ------- -------- --- ---- -- ------- ------------ --<br>------ -- ---- -- --- ---- -- -------- -- --- ------ ------,253324.59999996424,253315.5,252913.732,252917.89999997616,252930.387,253330.107,,1,months
screen,html.Screen,2_3_1_0_1_2,2022-05-02T11:44:41.786Z,,,,,,,,,,,,,,,,,12,,,,,,,,,,,,,,390.2929999761691,,response,,,,5,G,,,,,,Space,keypress(Space),,,,instrumental,,,,"---- ------ later, ------- ------ --- ------- -----------<br>-- ----- --- ---- -- --- ------ ---- - ---- -- ----------<br>-- ------ ---- --- ---- --- --- --- ----- -- -------- ---<br>------ ------- -------- --- ---- -- ------- ------------ --<br>------ -- ---- -- --- ---- -- -------- -- --- ------ ------",253728.29999995232,253720.39999997616,253313.452,253324.69999998808,253330.107,253729.827,,2,"later,"
screen,html.Screen,2_3_1_0_1_3,2022-05-02T11:44:42.224Z,,,,,,,,,,,,,,,,,12,,,,,,,,,,,,,,428.47299995232606,,response,,,,5,G,,,,,,Space,keypress(Space),,,,instrumental,,,,---- ------ ------ Michael ------ --- ------- -----------<br>-- ----- --- ---- -- --- ------ ---- - ---- -- ----------<br>-- ------ ---- --- ---- --- --- --- ----- -- -------- ---<br>------ ------- -------- --- ---- -- ------- ------------ --<br>------ -- ---- -- --- ---- -- -------- -- --- ------ ------,254166.69999998808,254158.29999995232,253713.172,253728.5,253729.827,254179.512,,3,Michael
screen,html.Screen,2_3_1_0_1_4,2022-05-02T11:44:42.646Z,,,,,,,,,,,,,,,,,12,,,,,,,,,,,,,,401.6879999880912,,response,,,,5,G,,,,,,Space,keypress(Space),,,,instrumental,,,,---- ------ ------ ------- Larson --- ------- -----------<br>-- ----- --- ---- -- --- ------ ---- - ---- -- ----------<br>-- ------ ---- --- ---- --- --- --- ----- -- -------- ---<br>------ ------- -------- --- ---- -- ------- ------------ --<br>------ -- ---- -- --- ---- -- -------- -- --- ------ ------,254588.19999998808,254581.19999998808,254162.857,254166.79999995232,254179.512,254595.887,,4,Larson
screen,html.Screen,2_3_1_0_1_5,2022-05-02T11:44:43.059Z,,,,,,,,,,,,,,,,,12,,,,,,,,,,,,,,397.3129999880912,,response,,,,5,G,,,,,,Space,keypress(Space),,,,instrumental,,,,---- ------ ------ ------- ------ saw ------- -----------<br>-- ----- --- ---- -- --- ------ ---- - ---- -- ----------<br>-- ------ ---- --- ---- --- --- --- ----- -- -------- ---<br>------ ------- -------- --- ---- -- ------- ------------ --<br>------ -- ---- -- --- ---- -- -------- -- --- ------ ------,255001.69999998808,254993.19999998808,254579.232,254588.29999995232,254595.887,255012.262,,5,saw
screen,html.Screen,2_3_1_0_1_6,2022-05-02T11:44:43.456Z,,,,,,,,,,,,,,,,,12,,,,,,,,,,,,,,376.9379999880912,,response,,,,5,G,,,,,,Space,keypress(Space),,,,instrumental,,,,---- ------ ------ ------- ------ --- another -----------<br>-- ----- --- ---- -- --- ------ ---- - ---- -- ----------<br>-- ------ ---- --- ---- --- --- --- ----- -- -------- ---<br>------ ------- -------- --- ---- -- ------- ------------ --<br>------ -- ---- -- --- ---- -- -------- -- --- ------ ------,255398.29999995232,255389.19999998808,254995.607,255001.89999997616,255012.262,255411.982,,6,another
screen,html.Screen,2_3_1_0_1_7,2022-05-02T11:44:43.929Z,,,,,,,,,,,,,,,,,12,,,,,,,,,,,,,,451.21799998809,,response,,,,5,G,,,,,,Space,keypress(Space),,,,instrumental,,,,---- ------ ------ ------- ------ --- ------- opportunity<br>-- ----- --- ---- -- --- ------ ---- - ---- -- ----------<br>-- ------ ---- --- ---- --- --- --- ----- -- -------- ---<br>------ ------- -------- --- ---- -- ------- ------------ --<br>------ -- ---- -- --- ---- -- -------- -- --- ------ ------,255871.29999995232,255863.19999998808,255395.327,255398.39999997616,255411.982,255878.322,,7,opportunity
screen,html.Screen,2_3_1_0_1_8,2022-05-02T11:44:44.342Z,,,,,,,,,,,,,,,,,12,,,,,,,,,,,,,,397.9779999523307,,response,,,,5,G,,,,,,Space,keypress(Space),,,,instrumental,,,,---- ------ ------ ------- ------ --- ------- -----------<br>to ----- --- ---- -- --- ------ ---- - ---- -- ----------<br>-- ------ ---- --- ---- --- --- --- ----- -- -------- ---<br>------ ------- -------- --- ---- -- ------- ------------ --<br>------ -- ---- -- --- ---- -- -------- -- --- ------ ------,256284.69999998808,256276.29999995232,255861.667,255871.39999997616,255878.322,256294.697,,8,to
screen,html.Screen,2_3_1_0_1_9,2022-05-02T11:44:44.700Z,,,,,,,,,,,,,,,,,12,,,,,,,,,,,,,,338.7029999761726,,response,,,,5,G,,,,,,Space,keypress(Space),,,,instrumental,,,,---- ------ ------ ------- ------ --- ------- -----------<br>-- stack --- ---- -- --- ------ ---- - ---- -- ----------<br>-- ------ ---- --- ---- --- --- --- ----- -- -------- ---<br>------ ------- -------- --- ---- -- ------- ------------ --<br>------ -- ---- -- --- ---- -- -------- -- --- ------ ------,256642.5,256633.39999997616,256278.042,256284.79999995232,256294.697,256644.452,,9,stack
screen,html.Screen,2_3_1_0_1_10,2022-05-02T11:44:45.133Z,,,,,,,,,,,,,,,,,12,,,,,,,,,,,,,,421.84799995232606,,response,,,,5,G,,,,,,Space,keypress(Space),,,,instrumental,,,,---- ------ ------ ------- ------ --- ------- -----------<br>-- ----- the ---- -- --- ------ ---- - ---- -- ----------<br>-- ------ ---- --- ---- --- --- --- ----- -- -------- ---<br>------ ------- -------- --- ---- -- ------- ------------ --<br>------ -- ---- -- --- ---- -- -------- -- --- ------ ------,257075.09999996424,257066.29999995232,256627.797,256642.59999996424,256644.452,257077.863,,10,the
screen,html.Screen,2_3_1_0_1_11,2022-05-02T11:44:45.524Z,,,,,,,,,,,,,,,,,12,,,,,,,,,,,,,,379.53699997614603,,response,,,,5,G,,,,,,Space,keypress(Space),,,,instrumental,,,,---- ------ ------ ------- ------ --- ------- -----------<br>-- ----- --- odds -- --- ------ ---- - ---- -- ----------<br>-- ------ ---- --- ---- --- --- --- ----- -- -------- ---<br>------ ------- -------- --- ---- -- ------- ------------ --<br>------ -- ---- -- --- ---- -- -------- -- --- ------ ------,257465.79999995232,257457.39999997616,257061.208,257075.19999998808,257077.863,257477.583,,11,odds
screen,html.Screen,2_3_1_0_1_12,2022-05-02T11:44:45.862Z,,,,,,,,,,,,,,,,,12,,,,,,,,,,,,,,317.6169999880658,,response,,,,5,G,,,,,,Space,keypress(Space),,,,instrumental,,,,---- ------ ------ ------- ------ --- ------- -----------<br>-- ----- --- ---- in --- ------ ---- - ---- -- ----------<br>-- ------ ---- --- ---- --- --- --- ----- -- -------- ---<br>------ ------- -------- --- ---- -- ------- ------------ --<br>------ -- ---- -- --- ---- -- -------- -- --- ------ ------,257804,257795.19999998808,257460.928,257466,257477.583,257810.683,,12,in
screen,html.Screen,2_3_1_0_1_13,2022-05-02T11:44:46.250Z,,,,,,,,,,,,,,,,,12,,,,,,,,,,,,,,373.5169999880891,,response,,,,5,G,,,,,,Space,keypress(Space),,,,instrumental,,,,---- ------ ------ ------- ------ --- ------- -----------<br>-- ----- --- ---- -- his ------ ---- - ---- -- ----------<br>-- ------ ---- --- ---- --- --- --- ----- -- -------- ---<br>------ ------- -------- --- ---- -- ------- ------------ --<br>------ -- ---- -- --- ---- -- -------- -- --- ------ ------,258192.89999997616,258184.19999998808,257794.028,257804.09999996424,257810.683,258193.748,,13,his
screen,html.Screen,2_3_1_0_1_14,2022-05-02T11:44:46.952Z,,,,,,,,,,,,,,,,,12,,,,,,,,,,,,,,692.551999952324,,response,,,,5,G,,,,,,Space,keypress(Space),,,,instrumental,,,,---- ------ ------ ------- ------ --- ------- -----------<br>-- ----- --- ---- -- --- favour ---- - ---- -- ----------<br>-- ------ ---- --- ---- --- --- --- ----- -- -------- ---<br>------ ------- -------- --- ---- -- ------- ------------ --<br>------ -- ---- -- --- ---- -- -------- -- --- ------ ------,258894.29999995232,258886.29999995232,258177.093,258193,258193.748,258909.913,,14,favour
screen,html.Screen,2_3_1_0_1_15,2022-05-02T11:44:47.347Z,,,,,,,,,,,,,,,,,12,,,,,,,,,,,,,,370.58699999999953,,response,,,,5,G,,,,,,Space,keypress(Space),,,,instrumental,,,,---- ------ ------ ------- ------ --- ------- -----------<br>-- ----- --- ---- -- --- ------ with - ---- -- ----------<br>-- ------ ---- --- ---- --- --- --- ----- -- -------- ---<br>------ ------- -------- --- ---- -- ------- ------------ --<br>------ -- ---- -- --- ---- -- -------- -- --- ------ ------,259289,259280.5,258893.258,258894.5,258909.913,259292.978,,15,with
screen,html.Screen,2_3_1_0_1_16,2022-05-02T11:44:47.682Z,,,,,,,,,,,,,,,,,12,,,,,,,,,,,,,,323.2219999880763,,response,,,,5,G,,,,,,Space,keypress(Space),,,,instrumental,,,,---- ------ ------ ------- ------ --- ------- -----------<br>-- ----- --- ---- -- --- ------ ---- a ---- -- ----------<br>-- ------ ---- --- ---- --- --- --- ----- -- -------- ---<br>------ ------- -------- --- ---- -- ------- ------------ --<br>------ -- ---- -- --- ---- -- -------- -- --- ------ ------,259624.79999995232,259616.19999998808,259276.323,259289.19999998808,259292.978,259626.078,,16,a
screen,html.Screen,2_3_1_0_1_17,2022-05-02T11:44:48.012Z,,,,,,,,,,,,,,,,,12,,,,,,,,,,,,,,319.3219999761495,,response,,,,5,G,,,,,,Space,keypress(Space),,,,instrumental,,,,---- ------ ------ ------- ------ --- ------- -----------<br>-- ----- --- ---- -- --- ------ ---- - dash -- ----------<br>-- ------ ---- --- ---- --- --- --- ----- -- -------- ---<br>------ ------- -------- --- ---- -- ------- ------------ --<br>------ -- ---- -- --- ---- -- -------- -- --- ------ ------,259954.5,259945.39999997616,259609.423,259625,259626.078,259959.178,,17,dash
screen,html.Screen,2_3_1_0_1_18,2022-05-02T11:44:48.385Z,,,,,,,,,,,,,,,,,12,,,,,,,,,,,,,,360.02199998806464,,response,,,,5,G,,,,,,Space,keypress(Space),,,,instrumental,,,,---- ------ ------ ------- ------ --- ------- -----------<br>-- ----- --- ---- -- --- ------ ---- - ---- of ----------<br>-- ------ ---- --- ---- --- --- --- ----- -- -------- ---<br>------ ------- -------- --- ---- -- ------- ------------ --<br>------ -- ---- -- --- ---- -- -------- -- --- ------ ------,260327.5,260319.19999998808,259942.523,259954.69999998808,259959.178,260342.243,,18,of
screen,html.Screen,2_3_1_0_1_19,2022-05-02T11:44:49.535Z,,,,,,,,,,,,,,,,,12,,,,,,,,,,,,,,1126.8569999642496,,response,,,,5,G,,,,,,Space,keypress(Space),,,,instrumental,,,,---- ------ ------ ------- ------ --- ------- -----------<br>-- ----- --- ---- -- --- ------ ---- - ---- -- ingenuity.<br>-- ------ ---- --- ---- --- --- --- ----- -- -------- ---<br>------ ------- -------- --- ---- -- ------- ------------ --<br>------ -- ---- -- --- ---- -- -------- -- --- ------ ------,261477.89999997616,261469.09999996424,260325.588,260327.59999996424,260342.243,261491.438,,19,ingenuity.
screen,html.Screen,2_3_1_0_1_20,2022-05-02T11:44:50.169Z,,,,,,,,,,,,,,,,,12,,,,,,,,,,,,,,611.7619999880844,,response,,,,5,G,,,,,,Space,keypress(Space),,,,instrumental,,,,---- ------ ------ ------- ------ --- ------- -----------<br>-- ----- --- ---- -- --- ------ ---- - ---- -- ----------<br>He ------ ---- --- ---- --- --- --- ----- -- -------- ---<br>------ ------- -------- --- ---- -- ------- ------------ --<br>------ -- ---- -- --- ---- -- -------- -- --- ------ ------,262111.19999998808,262103.19999998808,261474.783,261478.09999996424,261491.438,262124.328,,20,He
screen,html.Screen,2_3_1_0_1_21,2022-05-02T11:44:50.626Z,,,,,,,,,,,,,,,,,12,,,,,,,,,,,,,,434.87199998807046,,response,,,,5,G,,,,,,Space,keypress(Space),,,,instrumental,,,,---- ------ ------ ------- ------ --- ------- -----------<br>-- ----- --- ---- -- --- ------ ---- - ---- -- ----------<br>-- walked ---- --- ---- --- --- --- ----- -- -------- ---<br>------ ------- -------- --- ---- -- ------- ------------ --<br>------ -- ---- -- --- ---- -- -------- -- --- ------ ------,262568.1999999881,262559.1999999881,262107.673,262111.29999995232,262124.328,262574.013,,21,walked
screen,html.Screen,2_3_1_0_1_22,2022-05-02T11:44:51.083Z,,,,,,,,,,,,,,,,,12,,,,,,,,,,,,,,441.7869999523391,,response,,,,5,G,,,,,,Space,keypress(Space),,,,instrumental,,,,---- ------ ------ ------- ------ --- ------- -----------<br>-- ----- --- ---- -- --- ------ ---- - ---- -- ----------<br>-- ------ into --- ---- --- --- --- ----- -- -------- ---<br>------ ------- -------- --- ---- -- ------- ------------ --<br>------ -- ---- -- --- ---- -- -------- -- --- ------ ------,263025.59999996424,263015.7999999523,262557.358,262568.39999997616,262574.013,263040.353,,22,into
screen,html.Screen,2_3_1_0_1_23,2022-05-02T11:44:51.504Z,,,,,,,,,,,,,,,,,12,,,,,,,,,,,,,,399.6469999999972,,response,,,,5,G,,,,,,Space,keypress(Space),,,,instrumental,,,,---- ------ ------ ------- ------ --- ------- -----------<br>-- ----- --- ---- -- --- ------ ---- - ---- -- ----------<br>-- ------ ---- his ---- --- --- --- ----- -- -------- ---<br>------ ------- -------- --- ---- -- ------- ------------ --<br>------ -- ---- -- --- ---- -- -------- -- --- ------ ------,263446.2999999523,263440,263023.698,263025.6999999881,263040.353,263456.728,,23,his
screen,html.Screen,2_3_1_0_1_24,2022-05-02T11:44:51.728Z,,,,,,,,,,,,,,,,,12,,,,,,,,,,,,,,204.37199996423442,,response,,,,5,G,,,,,,Space,keypress(Space),,,,instrumental,,,,---- ------ ------ ------- ------ --- ------- -----------<br>-- ----- --- ---- -- --- ------ ---- - ---- -- ----------<br>-- ------ ---- --- bank --- --- --- ----- -- -------- ---<br>------ ------- -------- --- ---- -- ------- ------------ --<br>------ -- ---- -- --- ---- -- -------- -- --- ------ ------,263670.2999999523,263661.09999996424,263440.073,263446.5,263456.728,263673.243,,24,bank
screen,html.Screen,2_3_1_0_1_25,2022-05-02T11:44:52.211Z,,,,,,,,,,,,,,,,,12,,,,,,,,,,,,,,472.9569999880623,,response,,,,5,G,,,,,,Space,keypress(Space),,,,instrumental,,,,---- ------ ------ ------- ------ --- ------- -----------<br>-- ----- --- ---- -- --- ------ ---- - ---- -- ----------<br>-- ------ ---- --- ---- one --- --- ----- -- -------- ---<br>------ ------- -------- --- ---- -- ------- ------------ --<br>------ -- ---- -- --- ---- -- -------- -- --- ------ ------,264153.7999999523,264146.1999999881,263656.588,263670.59999996424,263673.243,264156.238,,25,one
screen,html.Screen,2_3_1_0_1_26,2022-05-02T11:44:52.610Z,,,,,,,,,,,,,,,,,12,,,,,,,,,,,,,,387.8619999642251,,response,,,,5,G,,,,,,Space,keypress(Space),,,,instrumental,,,,---- ------ ------ ------- ------ --- ------- -----------<br>-- ----- --- ---- -- --- ------ ---- - ---- -- ----------<br>-- ------ ---- --- ---- --- day --- ----- -- -------- ---<br>------ ------- -------- --- ---- -- ------- ------------ --<br>------ -- ---- -- --- ---- -- -------- -- --- ------ ------,264553.09999996424,264544.09999996424,264139.583,264154,264156.238,264555.958,,26,day
screen,html.Screen,2_3_1_0_1_27,2022-05-02T11:44:53.034Z,,,,,,,,,,,,,,,,,12,,,,,,,,,,,,,,412.04200000001583,,response,,,,5,G,,,,,,Space,keypress(Space),,,,instrumental,,,,---- ------ ------ ------- ------ --- ------- -----------<br>-- ----- --- ---- -- --- ------ ---- - ---- -- ----------<br>-- ------ ---- --- ---- --- --- and ----- -- -------- ---<br>------ ------- -------- --- ---- -- ------- ------------ --<br>------ -- ---- -- --- ---- -- -------- -- --- ------ ------,264977,264968,264539.303,264553.2999999523,264555.958,264988.988,,27,and
screen,html.Screen,2_3_1_0_1_28,2022-05-02T11:44:53.450Z,,,,,,,,,,,,,,,,,12,,,,,,,,,,,,,,394.1119999642251,,response,,,,5,G,,,,,,Space,keypress(Space),,,,instrumental,,,,---- ------ ------ ------- ------ --- ------- -----------<br>-- ----- --- ---- -- --- ------ ---- - ---- -- ----------<br>-- ------ ---- --- ---- --- --- --- asked -- -------- ---<br>------ ------- -------- --- ---- -- ------- ------------ --<br>------ -- ---- -- --- ---- -- -------- -- --- ------ ------,265392.1999999881,265383.09999996424,264972.333,264977.09999996424,264988.988,265405.363,,28,asked
screen,html.Screen,2_3_1_0_1_29,2022-05-02T11:44:53.940Z,,,,,,,,,,,,,,,,,12,,,,,,,,,,,,,,468.6369999999879,,response,,,,5,G,,,,,,Space,keypress(Space),,,,instrumental,,,,---- ------ ------ ------- ------ --- ------- -----------<br>-- ----- --- ---- -- --- ------ ---- - ---- -- ----------<br>-- ------ ---- --- ---- --- --- --- ----- to -------- ---<br>------ ------- -------- --- ---- -- ------- ------------ --<br>------ -- ---- -- --- ---- -- -------- -- --- ------ ------,265882.5,265874,265388.708,265392.39999997616,265405.363,265888.358,,29,to
screen,html.Screen,2_3_1_0_1_30,2022-05-02T11:44:54.279Z,,,,,,,,,,,,,,,,,12,,,,,,,,,,,,,,324.64199999999255,,response,,,,5,G,,,,,,Space,keypress(Space),,,,instrumental,,,,---- ------ ------ ------- ------ --- ------- -----------<br>-- ----- --- ---- -- --- ------ ---- - ---- -- ----------<br>-- ------ ---- --- ---- --- --- --- ----- -- withdraw ---<br>------ ------- -------- --- ---- -- ------- ------------ --<br>------ -- ---- -- --- ---- -- -------- -- --- ------ ------,266221.89999997616,266213,265871.703,265882.6999999881,265888.358,266238.113,,30,withdraw
screen,html.Screen,2_3_1_0_1_31,2022-05-02T11:44:54.675Z,,,,,,,,,,,,,,,,,12,,,,,,,,,,,,,,371.8869999999879,,response,,,,5,G,,,,,,Space,keypress(Space),,,,instrumental,,,,---- ------ ------ ------- ------ --- ------- -----------<br>-- ----- --- ---- -- --- ------ ---- - ---- -- ----------<br>-- ------ ---- --- ---- --- --- --- ----- -- -------- his<br>------ ------- -------- --- ---- -- ------- ------------ --<br>------ -- ---- -- --- ---- -- -------- -- --- ------ ------,266618,266610,266221.458,266222,266238.113,266621.178,,31,his
screen,html.Screen,2_3_1_0_1_32,2022-05-02T11:44:55.047Z,,,,,,,,,,,,,,,,,12,,,,,,,,,,,,,,360.82199999998556,,response,,,,5,G,,,,,,Space,keypress(Space),,,,instrumental,,,,---- ------ ------ ------- ------ --- ------- -----------<br>-- ----- --- ---- -- --- ------ ---- - ---- -- ----------<br>-- ------ ---- --- ---- --- --- --- ----- -- -------- ---<br>entire ------- -------- --- ---- -- ------- ------------ --<br>------ -- ---- -- --- ---- -- -------- -- --- ------ ------,266989.89999997616,266982,266604.523,266618.2999999523,266621.178,267004.243,,32,entire
screen,html.Screen,2_3_1_0_1_33,2022-05-02T11:44:55.405Z,,,,,,,,,,,,,,,,,12,,,,,,,,,,,,,,334.75699999998324,,response,,,,5,G,,,,,,Space,keypress(Space),,,,instrumental,,,,---- ------ ------ ------- ------ --- ------- -----------<br>-- ----- --- ---- -- --- ------ ---- - ---- -- ----------<br>-- ------ ---- --- ---- --- --- --- ----- -- -------- ---<br>------ account -------- --- ---- -- ------- ------------ --<br>------ -- ---- -- --- ---- -- -------- -- --- ------ ------,267348,267339,266987.588,266990,267004.243,267354.386,,33,account
screen,html.Screen,2_3_1_0_1_34,2022-05-02T11:44:55.837Z,,,,,,,,,,,,,,,,,12,,,,,,,,,,,,,,416.51399997615954,,response,,,,5,G,,,,,,Space,keypress(Space),,,,instrumental,,,,"---- ------ ------ ------- ------ --- ------- -----------<br>-- ----- --- ---- -- --- ------ ---- - ---- -- ----------<br>-- ------ ---- --- ---- --- --- --- ----- -- -------- ---<br>------ ------- balance, --- ---- -- ------- ------------ --<br>------ -- ---- -- --- ---- -- -------- -- --- ------ ------",267780.09999996424,267770.89999997616,267337.731,267348.1999999881,267354.386,267787.416,,34,"balance,"
screen,html.Screen,2_3_1_0_1_35,2022-05-02T11:44:56.322Z,,,,,,,,,,,,,,,,,12,,,,,,,,,,,,,,467.58399999997346,,response,,,,5,G,,,,,,Space,keypress(Space),,,,instrumental,,,,---- ------ ------ ------- ------ --- ------- -----------<br>-- ----- --- ---- -- --- ------ ---- - ---- -- ----------<br>-- ------ ---- --- ---- --- --- --- ----- -- -------- ---<br>------ ------- -------- but ---- -- ------- ------------ --<br>------ -- ---- -- --- ---- -- -------- -- --- ------ ------,268264.2999999523,268255,267770.761,267780.2999999523,267787.416,268270.411,,35,but
screen,html.Screen,2_3_1_0_1_36,2022-05-02T11:44:56.540Z,,,,,,,,,,,,,,,,,12,,,,,,,,,,,,,,203.5889999999781,,response,,,,5,G,,,,,,Space,keypress(Space),,,,instrumental,,,,---- ------ ------ ------- ------ --- ------- -----------<br>-- ----- --- ---- -- --- ------ ---- - ---- -- ----------<br>-- ------ ---- --- ---- --- --- --- ----- -- -------- ---<br>------ ------- -------- --- with -- ------- ------------ --<br>------ -- ---- -- --- ---- -- -------- -- --- ------ ------,268482.89999997616,268474,268253.756,268264.5,268270.411,268486.926,,36,with
screen,html.Screen,2_3_1_0_1_37,2022-05-02T11:44:56.966Z,,,,,,,,,,,,,,,,,12,,,,,,,,,,,,,,414.07400000002235,,response,,,,5,G,,,,,,Space,keypress(Space),,,,instrumental,,,,---- ------ ------ ------- ------ --- ------- -----------<br>-- ----- --- ---- -- --- ------ ---- - ---- -- ----------<br>-- ------ ---- --- ---- --- --- --- ----- -- -------- ---<br>------ ------- -------- --- ---- an ------- ------------ --<br>------ -- ---- -- --- ---- -- -------- -- --- ------ ------,268908.5,268901,268470.271,268483,268486.926,268919.956,,37,an
screen,html.Screen,2_3_1_0_1_38,2022-05-02T11:44:57.392Z,,,,,,,,,,,,,,,,,12,,,,,,,,,,,,,,406.0439999999944,,response,,,,5,G,,,,,,Space,keypress(Space),,,,instrumental,,,,---- ------ ------ ------- ------ --- ------- -----------<br>-- ----- --- ---- -- --- ------ ---- - ---- -- ----------<br>-- ------ ---- --- ---- --- --- --- ----- -- -------- ---<br>------ ------- -------- --- ---- -- unusual ------------ --<br>------ -- ---- -- --- ---- -- -------- -- --- ------ ------,269335,269326,268903.301,268908.59999996424,268919.956,269336.331,,38,unusual
screen,html.Screen,2_3_1_0_1_39,2022-05-02T11:44:58.068Z,,,,,,,,,,,,,,,,,12,,,,,,,,,,,,,,666.5689999761526,,response,,,,5,G,,,,,,Space,keypress(Space),,,,instrumental,,,,---- ------ ------ ------- ------ --- ------- -----------<br>-- ----- --- ---- -- --- ------ ---- - ---- -- ----------<br>-- ------ ---- --- ---- --- --- --- ----- -- -------- ---<br>------ ------- -------- --- ---- -- ------- stipulation: --<br>------ -- ---- -- --- ---- -- -------- -- --- ------ ------,270011.09999996424,270002.89999997616,269319.676,269335.09999996424,269336.331,270019.186,,39,stipulation:
screen,html.Screen,2_3_1_0_1_40,2022-05-02T11:44:58.559Z,,,,,,,,,,,,,,,,,12,,,,,,,,,,,,,,473.6139999523293,,response,,,,5,G,,,,,,Space,keypress(Space),,,,instrumental,,,,---- ------ ------ ------- ------ --- ------- -----------<br>-- ----- --- ---- -- --- ------ ---- - ---- -- ----------<br>-- ------ ---- --- ---- --- --- --- ----- -- -------- ---<br>------ ------- -------- --- ---- -- ------- ------------ He<br>------ -- ---- -- --- ---- -- -------- -- --- ------ ------,270501.39999997616,270492.7999999523,270002.531,270011.2999999523,270019.186,270518.836,,40,He
screen,html.Screen,2_3_1_0_1_41,2022-05-02T11:44:59.055Z,,,,,,,,,,,,,,,,,12,,,,,,,,,,,,,,470.96399995230604,,response,,,,5,G,,,,,,Space,keypress(Space),,,,instrumental,,,,---- ------ ------ ------- ------ --- ------- -----------<br>-- ----- --- ---- -- --- ------ ---- - ---- -- ----------<br>-- ------ ---- --- ---- --- --- --- ----- -- -------- ---<br>------ ------- -------- --- ---- -- ------- ------------ --<br>wanted -- ---- -- --- ---- -- -------- -- --- ------ ------,270997.6999999881,270989.7999999523,270502.181,270501.59999996424,270518.836,271001.831,,41,wanted
screen,html.Screen,2_3_1_0_1_42,2022-05-02T11:44:59.271Z,,,,,,,,,,,,,,,,,12,,,,,,,,,,,,,,204.06899997615255,,response,,,,5,G,,,,,,Space,keypress(Space),,,,instrumental,,,,---- ------ ------ ------- ------ --- ------- -----------<br>-- ----- --- ---- -- --- ------ ---- - ---- -- ----------<br>-- ------ ---- --- ---- --- --- --- ----- -- -------- ---<br>------ ------- -------- --- ---- -- ------- ------------ --<br>------ as ---- -- --- ---- -- -------- -- --- ------ ------,271213.89999997616,271205.89999997616,270985.176,270997.7999999523,271001.831,271218.346,,42,as
