sender,sender_type,sender_id,timestamp,meta,,Blues,Classical,Country,Dance,Electronic,Folk,Gospel,Hip-Hop,Jazz,Latin,Musical/Film,New-age,Pop,Prolific_id,Provo_ID,R&B,Rap,Reggae,Religious,Rock,Soul,Swing,Traditional,age,artist_name,correct,correctResponse,distraction,duration,education,ended_on,familiarity,gender,headphone_check_performance,item,list,music_frequency,offensiveness,pleasantness,position_correct,preference,response,response_action,snippet_file,song_name,song_rating,sound,stimulus_1,stimulus_2,stimulus_3,text,time_commit,time_end,time_render,time_run,time_show,time_switch,url,word,word_ID
Prolific ID,html.Form,0,2022-05-09T11:43:06.042Z,"{""labjs_version"":""20.2.2"",""labjs_build"":{""flavor"":""production"",""commit"":""a25486e0c714a0ae2ce03ff94b7bb6896854dcfa""},""location"":""https://run.pavlovia.org/mvasilev/prolific3_music_d/"",""userAgent"":""Mozilla/5.0 (Windows NT 10.0; Win64; x64) AppleWebKit/537.36 (KHTML, like Gecko) Chrome/101.0.4951.54 Safari/537.36"",""platform"":""Win32"",""language"":""en-GB"",""locale"":""en-GB"",""timeZone"":""Europe/London"",""timezoneOffset"":-60,""screen_width"":1280,""screen_height"":720,""scroll_width"":1280,""scroll_height"":577,""window_innerWidth"":1280,""window_innerHeight"":577,""devicePixelRatio"":1.5}",,,,,,,,,,,,,,,5f9ac9de923dca223848cf19,,,,,,,,,,,,,,,11042.876000047683,,form submission,,,,,,,,,,,,,,,,,,,,,30185.300000071526,30173.200000047684,19113.226,19114.700000047684,19130.324,30245.62,{},,
Introduction,html.Screen,1_0,2022-05-09T11:43:15.539Z,,,,,,,,,,,,,,,,,,,,,,,,,,,,,,,9415.380000000001,,response,,,,,,,,,,,continue,click button,,,,,,,,,39682.60000002384,39661,30162.832,30188.399999976158,30245.62,39727.848,,,
Volume calibration,html.Screen,1_1,2022-05-09T11:43:49.623Z,,,,,,,,,,,,,,,,,,,,,,,,,,,,,,,34015.352000047686,,response,,,,,,,,,,,continue,click button,,,,,,,,,73767.70000004768,73743.20000004768,39661.188,39683.5,39727.848,73773.415,,,
Task instructions,html.Screen,1_2,2022-05-09T11:44:05.164Z,,,,,,,,,,,,,,,,,,,,,,,,,,,,,,,15528.885000071532,,response,,,,,,,,,,,continue,click button,,,,,,,,,89308.10000002384,89302.30000007153,73740.093,73768.10000002384,73773.415,89338.068,,,
Sounds,html.Screen,1_3_0_0,2022-05-09T11:44:09.437Z,,,,,,,,,,,,,,,,,,,,,,,,,,,,,,,4249.415999999997,,timeout,,,,,,,,,3,,,,,,,,I,O,S,,93581.70000004768,93571.382,89331.171,89310.5,89338.068,93587.484,,,
Judgement,html.Screen,1_3_0_1,2022-05-09T11:44:11.367Z,,,,,,,,,,,,,,,,,,,,,,,,,,,,true,3,,1920.0160000000033,,response,,,,,,,,,3,,3,click #choice-3,,,,,I,O,S,,95511.20000004768,95507.5,93571.382,93582.10000002384,93587.484,95520.577,,,
Trial,flow.Sequence,1_3_0,2022-05-09T11:44:11.369Z,,,,,,,,,,,,,,,,,,,,,,,,,,,,,,,6169.432000000001,,completion,,,,,,,,,3,,,,,,,,I,O,S,,95513.39999997616,95507.5,89331.171,89308.89999997616,89338.068,95520.577,,,
Sounds,html.Screen,1_3_1_0,2022-05-09T11:44:15.611Z,,,,,,,,,,,,,,,,,,,,,,,,,,,,,,,4249.409,,timeout,,,,,,,,,1,,,,,,,,S,O,I,,99755.60000002384,99753.823,95504.068,95515.20000004768,95520.577,99769.986,,,
Judgement,html.Screen,1_3_1_1,2022-05-09T11:44:16.556Z,,,,,,,,,,,,,,,,,,,,,,,,,,,,true,1,,925.9139999761537,,response,,,,,,,,,1,,1,click #choice-1,,,,,S,O,I,,100701,100695.89999997616,99753.823,99756.10000002384,99769.986,100703.236,,,
Trial,flow.Sequence,1_3_1,2022-05-09T11:44:16.557Z,,,,,,,,,,,,,,,,,,,,,,,,,,,,,,,5175.322999976153,,completion,,,,,,,,,1,,,,,,,,S,O,I,,100701.89999997616,100695.89999997616,95504.068,95514,95520.577,100703.236,,,
Sounds,html.Screen,1_3_2_0,2022-05-09T11:44:20.795Z,,,,,,,,,,,,,,,,,,,,,,,,,,,,,,,4249.455000000002,,timeout,,,,,,,,,1,,,,,,,,S,I,O,,104939.10000002384,104936.056,100686.777,100702.60000002384,100703.236,104952.691,,,
Judgement,html.Screen,1_3_2_1,2022-05-09T11:44:21.309Z,,,,,,,,,,,,,,,,,,,,,,,,,,,,true,1,,497.00900004767755,,response,,,,,,,,,1,,1,click #choice-1,,,,,S,I,O,,105453.10000002384,105449.70000004768,104936.056,104939.60000002384,104952.691,105476.442,,,
Trial,flow.Sequence,1_3_2,2022-05-09T11:44:21.310Z,,,,,,,,,,,,,,,,,,,,,,,,,,,,,,,4746.464000047679,,completion,,,,,,,,,1,,,,,,,,S,I,O,,105454.60000002384,105449.70000004768,100686.777,100702.39999997616,100703.236,105476.442,,,
Sounds,html.Screen,1_3_3_0,2022-05-09T11:44:25.559Z,,,,,,,,,,,,,,,,,,,,,,,,,,,,,,,4242.346000000005,,timeout,,,,,,,,,3,,,,,,,,O,I,S,,109703.10000002384,109701.982,105436.488,105455.5,105476.442,109718.788,,,
Judgement,html.Screen,1_3_3_1,2022-05-09T11:44:26.383Z,,,,,,,,,,,,,,,,,,,,,,,,,,,,true,3,,804.8120000238414,,response,,,,,,,,,3,,3,click #choice-3,,,,,O,I,S,,110527.39999997616,110523.60000002384,109701.982,109703.30000007153,109718.788,110535.311,,,
Trial,flow.Sequence,1_3_3,2022-05-09T11:44:26.384Z,,,,,,,,,,,,,,,,,,,,,,,,,,,,,,,5047.158000023846,,completion,,,,,,,,,3,,,,,,,,O,I,S,,110528.10000002384,110523.60000002384,105436.488,105455.30000007153,105476.442,110535.311,,,
Sounds,html.Screen,1_3_4_0,2022-05-09T11:44:30.627Z,,,,,,,,,,,,,,,,,,,,,,,,,,,,,,,4249.682000000001,,timeout,,,,,,,,,2,,,,,,,,I,S,O,,114771.89999997616,114768.125,110518.656,110528.70000004768,110535.311,114784.993,,,
Judgement,html.Screen,1_3_4_1,2022-05-09T11:44:31.192Z,,,,,,,,,,,,,,,,,,,,,,,,,,,,true,2,,549.3070000715234,,response,,,,,,,,,2,,2,click #choice-2,,,,,I,S,O,,115336.60000002384,115334.30000007153,114768.125,114772.39999997616,114784.993,115351.553,,,
Trial,flow.Sequence,1_3_4,2022-05-09T11:44:31.192Z,,,,,,,,,,,,,,,,,,,,,,,,,,,,,,,4798.989000071524,,completion,,,,,,,,,2,,,,,,,,I,S,O,,115337,115334.30000007153,110518.656,110528.5,110535.311,115351.553,,,
Sounds,html.Screen,1_3_5_0,2022-05-09T11:44:35.442Z,,,,,,,,,,,,,,,,,,,,,,,,,,,,,,,4249.229999999996,,timeout,,,,,,,,,2,,,,,,,,O,S,I,,119586.30000007153,119584.547,115334.748,115337.30000007153,115351.553,119600.783,,,
Judgement,html.Screen,1_3_5_1,2022-05-09T11:44:35.826Z,,,,,,,,,,,,,,,,,,,,,,,,,,,,true,2,,365.2170000000042,,response,,,,,,,,,2,,2,click #choice-2,,,,,O,S,I,,119970.80000007153,119966,119584.547,119586.70000004768,119600.783,120000.651,,,
Trial,flow.Sequence,1_3_5,2022-05-09T11:44:35.827Z,,,,,,,,,,,,,,,,,,,,,,,,,,,,,,,4614.447,,completion,,,,,,,,,2,,,,,,,,O,S,I,,119971.39999997616,119966,115334.748,115337.10000002384,115351.553,120000.651,,,
Task,flow.Loop,1_3,2022-05-09T11:44:35.849Z,,,,,,,,,,,,,,,,,,,,,,,,,,,,,,,30627.932,,completion,,,1,,,,,,,,,,,,,,,,,,119993.89999997616,119966,89331.171,89308.70000004768,89338.068,120000.651,,,
Trap,html.Screen,1_4,2022-05-09T11:44:35.852Z,,,,,,,,,,,,,,,,,,,,,,,,,,,,,,,NaN,,skipped,,,,,,,,,,,,,,,,,,,,,119996,119966,,119995.70000004768,,120000.651,,,
Thanks,html.Screen,1_5,2022-05-09T11:44:40.738Z,,,,,,,,,,,,,,,,,,,,,,,,,,,,,,,4877.649000071528,,response,,,,,,,,,,,continue,click button,,,,,,,,,124882.5,124878.30000007153,119967.743,119996.20000004768,120000.651,128366.233,,,
Headphone screening,flow.Sequence,1,2022-05-09T11:44:40.740Z,,,,,,,,,,,,,,,,,,,,,,,,,,,,,,,94632.68000007153,,completion,,,,,,,,,,,,,,,,,,,,,124883.89999997616,124878.30000007153,30162.832,30188.200000047684,30245.62,128366.233,,,
Instructions,html.Page,2_0,2022-05-09T11:45:07.908Z,,,,,,,,,,,,,,,,,,,,,,,,,,,,,,,23685.067000071533,,form submission,,,,,,,,,,,,,,,,,,,,,152052.39999997616,152051.30000007153,128349.708,128369.5,128366.233,152079.936,,,
Holding screen,html.Screen,2_1_0_0,2022-05-09T11:45:17.920Z,,,,,,,,,,,,,,,,,,,,,,,,,,,,,,,10015.389000000025,,timeout,,,,,,,,,,,,,,,,,,,,,162063.89999997616,162062.376,152046.873,152053,152079.936,162095.325,,,
screen,html.Screen,2_1_0_1_0,2022-05-09T11:45:18.741Z,,,,,,,,,,,,,,,,,53,,,,,,,,,,,,,,782.7750000238302,,response,,,,99,,,,,,,Space,keypress(Space),,,,,,,,When -- ----- -- ------ - ------- --- ----------<br>------------- ------ ------ ---- ---- ------- ----- -- ----<br>-------- ------- -- ---------- --- - --- ----- ----- ----<br>---- --- --- ----- --- ---- ---- ------- ----- ---- -------<br>--- --- -- ----- -- --- ---- -- --- ---- -- ------ ------<br>--- ----- -- ----,162884.70000004768,162878.10000002384,162062.376,162064.5,162095.325,162895.616,,0,When
screen,html.Screen,2_1_0_1_1,2022-05-09T11:45:19.354Z,,,,,,,,,,,,,,,,,53,,,,,,,,,,,,,,600.3839999999909,,response,,,,99,,,,,,,Space,keypress(Space),,,,,,,,---- it ----- -- ------ - ------- --- ----------<br>------------- ------ ------ ---- ---- ------- ----- -- ----<br>-------- ------- -- ---------- --- - --- ----- ----- ----<br>---- --- --- ----- --- ---- ---- ------- ----- ---- -------<br>--- --- -- ----- -- --- ---- -- --- ---- -- ------ ------<br>--- ----- -- ----,163497.89999997616,163496,162879.058,162884.89999997616,162895.616,163512.105,,1,it
screen,html.Screen,2_1_0_1_2,2022-05-09T11:45:19.811Z,,,,,,,,,,,,,,,,,53,,,,,,,,,,,,,,441.4950000238314,,response,,,,99,,,,,,,Space,keypress(Space),,,,,,,,---- -- comes -- ------ - ------- --- ----------<br>------------- ------ ------ ---- ---- ------- ----- -- ----<br>-------- ------- -- ---------- --- - --- ----- ----- ----<br>---- --- --- ----- --- ---- ---- ------- ----- ---- -------<br>--- --- -- ----- -- --- ---- -- --- ---- -- ------ ------<br>--- ----- -- ----,163955.10000002384,163953.60000002384,163495.567,163498.30000007153,163512.105,163961.753,,2,comes
screen,html.Screen,2_1_0_1_3,2022-05-09T11:45:20.269Z,,,,,,,,,,,,,,,,,53,,,,,,,,,,,,,,449.8470000238449,,response,,,,99,,,,,,,Space,keypress(Space),,,,,,,,---- -- ----- to ------ - ------- --- ----------<br>------------- ------ ------ ---- ---- ------- ----- -- ----<br>-------- ------- -- ---------- --- - --- ----- ----- ----<br>---- --- --- ----- --- ---- ---- ------- ----- ---- -------<br>--- --- -- ----- -- --- ---- -- --- ---- -- ------ ------<br>--- ----- -- ----,164413.20000004768,164411.60000002384,163945.453,163955.60000002384,163961.753,164428.321,,3,to
screen,html.Screen,2_1_0_1_4,2022-05-09T11:45:20.686Z,,,,,,,,,,,,,,,,,53,,,,,,,,,,,,,,400.6790000000037,,response,,,,99,,,,,,,Space,keypress(Space),,,,,,,,---- -- ----- -- having - ------- --- ----------<br>------------- ------ ------ ---- ---- ------- ----- -- ----<br>-------- ------- -- ---------- --- - --- ----- ----- ----<br>---- --- --- ----- --- ---- ---- ------- ----- ---- -------<br>--- --- -- ----- -- --- ---- -- --- ---- -- ------ ------<br>--- ----- -- ----,164830.5,164829,164412.241,164413.60000002384,164428.321,164844.995,,4,having
screen,html.Screen,2_1_0_1_5,2022-05-09T11:45:21.105Z,,,,,,,,,,,,,,,,,53,,,,,,,,,,,,,,402.1050000238465,,response,,,,99,,,,,,,Space,keypress(Space),,,,,,,,---- -- ----- -- ------ a ------- --- ----------<br>------------- ------ ------ ---- ---- ------- ----- -- ----<br>-------- ------- -- ---------- --- - --- ----- ----- ----<br>---- --- --- ----- --- ---- ---- ------- ----- ---- -------<br>--- --- -- ----- -- --- ---- -- --- ---- -- ------ ------<br>--- ----- -- ----,165248.89999997616,165247.10000002384,164828.87,164830.89999997616,164844.995,165261.605,,5,a
screen,html.Screen,2_1_0_1_6,2022-05-09T11:45:21.550Z,,,,,,,,,,,,,,,,,53,,,,,,,,,,,,,,431.59500004767324,,response,,,,99,,,,,,,Space,keypress(Space),,,,,,,,---- -- ----- -- ------ - lasting --- ----------<br>------------- ------ ------ ---- ---- ------- ----- -- ----<br>-------- ------- -- ---------- --- - --- ----- ----- ----<br>---- --- --- ----- --- ---- ---- ------- ----- ---- -------<br>--- --- -- ----- -- --- ---- -- --- ---- -- ------ ------<br>--- ----- -- ----,165694.30000007153,165693.20000004768,165245.35,165249.20000004768,165261.605,165728.675,,6,lasting
screen,html.Screen,2_1_0_1_7,2022-05-09T11:45:21.966Z,,,,,,,,,,,,,,,,,53,,,,,,,,,,,,,,379.52500004769536,,response,,,,99,,,,,,,Space,keypress(Space),,,,,,,,---- -- ----- -- ------ - ------- and ----------<br>------------- ------ ------ ---- ---- ------- ----- -- ----<br>-------- ------- -- ---------- --- - --- ----- ----- ----<br>---- --- --- ----- --- ---- ---- ------- ----- ---- -------<br>--- --- -- ----- -- --- ---- -- --- ---- -- ------ ------<br>--- ----- -- ----,166110.20000004768,166108.20000004768,165711.92,165694.5,165728.675,166128.623,,7,and
screen,html.Screen,2_1_0_1_8,2022-05-09T11:45:22.709Z,,,,,,,,,,,,,,,,,53,,,,,,,,,,,,,,722.6770000715333,,response,,,,99,,,,,,,Space,keypress(Space),,,,,,,,---- -- ----- -- ------ - ------- --- fulfilling<br>------------- ------ ------ ---- ---- ------- ----- -- ----<br>-------- ------- -- ---------- --- - --- ----- ----- ----<br>---- --- --- ----- --- ---- ---- ------- ----- ---- -------<br>--- --- -- ----- -- --- ---- -- --- ---- -- ------ ------<br>--- ----- -- ----,166853.10000002384,166851.30000007153,166095.344,166110.5,166128.623,166861.38,,8,fulfilling
screen,html.Screen,2_1_0_1_9,2022-05-09T11:45:23.326Z,,,,,,,,,,,,,,,,,53,,,,,,,,,,,,,,607.8200000476791,,response,,,,99,,,,,,,Space,keypress(Space),,,,,,,,"---- -- ----- -- ------ - ------- --- ----------<br>relationship, ------ ------ ---- ---- ------- ----- -- ----<br>-------- ------- -- ---------- --- - --- ----- ----- ----<br>---- --- --- ----- --- ---- ---- ------- ----- ---- -------<br>--- --- -- ----- -- --- ---- -- --- ---- -- ------ ------<br>--- ----- -- ----",167469.89999997616,167469.20000004768,166845.254,166853.39999997616,166861.38,167477.887,,9,"relationship,"
screen,html.Screen,2_1_0_1_10,2022-05-09T11:45:23.887Z,,,,,,,,,,,,,,,,,53,,,,,,,,,,,,,,551.4130000715377,,response,,,,99,,,,,,,Space,keypress(Space),,,,,,,,---- -- ----- -- ------ - ------- --- ----------<br>------------- common ------ ---- ---- ------- ----- -- ----<br>-------- ------- -- ---------- --- - --- ----- ----- ----<br>---- --- --- ----- --- ---- ---- ------- ----- ---- -------<br>--- --- -- ----- -- --- ---- -- --- ---- -- ------ ------<br>--- ----- -- ----,168031.30000007153,168029.30000007153,167461.799,167470,167477.887,168044.514,,10,common
screen,html.Screen,2_1_0_1_11,2022-05-09T11:45:24.314Z,,,,,,,,,,,,,,,,,53,,,,,,,,,,,,,,411.78600007153,,response,,,,99,,,,,,,Space,keypress(Space),,,,,,,,---- -- ----- -- ------ - ------- --- ----------<br>------------- ------ wisdom ---- ---- ------- ----- -- ----<br>-------- ------- -- ---------- --- - --- ----- ----- ----<br>---- --- --- ----- --- ---- ---- ------- ----- ---- -------<br>--- --- -- ----- -- --- ---- -- --- ---- -- ------ ------<br>--- ----- -- ----,168458.70000004768,168456.30000007153,168028.257,168031.60000002384,168044.514,168489.235,,11,wisdom
screen,html.Screen,2_1_0_1_12,2022-05-09T11:45:24.822Z,,,,,,,,,,,,,,,,,53,,,,,,,,,,,,,,475.1649999761721,,response,,,,99,,,,,,,Space,keypress(Space),,,,,,,,---- -- ----- -- ------ - ------- --- ----------<br>------------- ------ ------ says ---- ------- ----- -- ----<br>-------- ------- -- ---------- --- - --- ----- ----- ----<br>---- --- --- ----- --- ---- ---- ------- ----- ---- -------<br>--- --- -- ----- -- --- ---- -- --- ---- -- ------ ------<br>--- ----- -- ----,168966.5,168964.39999997616,168445.044,168459.20000004768,168489.235,168977.715,,12,says
screen,html.Screen,2_1_0_1_13,2022-05-09T11:45:25.271Z,,,,,,,,,,,,,,,,,53,,,,,,,,,,,,,,434.68499997616163,,response,,,,99,,,,,,,Space,keypress(Space),,,,,,,,---- -- ----- -- ------ - ------- --- ----------<br>------------- ------ ------ ---- that ------- ----- -- ----<br>-------- ------- -- ---------- --- - --- ----- ----- ----<br>---- --- --- ----- --- ---- ---- ------- ----- ---- -------<br>--- --- -- ----- -- --- ---- -- --- ---- -- ------ ------<br>--- ----- -- ----,169414.89999997616,169412.39999997616,168961.63,168966.80000007153,168977.715,169427.813,,13,that
screen,html.Screen,2_1_0_1_14,2022-05-09T11:45:25.678Z,,,,,,,,,,,,,,,,,53,,,,,,,,,,,,,,392.88700004768907,,response,,,,99,,,,,,,Space,keypress(Space),,,,,,,,---- -- ----- -- ------ - ------- --- ----------<br>------------- ------ ------ ---- ---- feeling ----- -- ----<br>-------- ------- -- ---------- --- - --- ----- ----- ----<br>---- --- --- ----- --- ---- ---- ------- ----- ---- -------<br>--- --- -- ----- -- --- ---- -- --- ---- -- ------ ------<br>--- ----- -- ----,169822.39999997616,169820.70000004768,169410.94,169415.20000004768,169427.813,169827.647,,14,feeling
screen,html.Screen,2_1_0_1_15,2022-05-09T11:45:26.075Z,,,,,,,,,,,,,,,,,53,,,,,,,,,,,,,,389.75299997616094,,response,,,,99,,,,,,,Space,keypress(Space),,,,,,,,---- -- ----- -- ------ - ------- --- ----------<br>------------- ------ ------ ---- ---- ------- close -- ----<br>-------- ------- -- ---------- --- - --- ----- ----- ----<br>---- --- --- ----- --- ---- ---- ------- ----- ---- -------<br>--- --- -- ----- -- --- ---- -- --- ---- -- ------ ------<br>--- ----- -- ----,170219.20000004768,170217.39999997616,169811.324,169822.80000007153,169827.647,170227.599,,15,close
screen,html.Screen,2_1_0_1_16,2022-05-09T11:45:26.398Z,,,,,,,,,,,,,,,,,53,,,,,,,,,,,,,,312.6010000476963,,response,,,,99,,,,,,,Space,keypress(Space),,,,,,,,---- -- ----- -- ------ - ------- --- ----------<br>------------- ------ ------ ---- ---- ------- ----- to ----<br>-------- ------- -- ---------- --- - --- ----- ----- ----<br>---- --- --- ----- --- ---- ---- ------- ----- ---- -------<br>--- --- -- ----- -- --- ---- -- --- ---- -- ------ ------<br>--- ----- -- ----,170542.30000007153,170540.20000004768,170211.561,170219.60000002384,170227.599,170561.394,,16,to
screen,html.Screen,2_1_0_1_17,2022-05-09T11:45:26.765Z,,,,,,,,,,,,,,,,,53,,,,,,,,,,,,,,345.5059999761579,,response,,,,99,,,,,,,Space,keypress(Space),,,,,,,,---- -- ----- -- ------ - ------- --- ----------<br>------------- ------ ------ ---- ---- ------- ----- -- your<br>-------- ------- -- ---------- --- - --- ----- ----- ----<br>---- --- --- ----- --- ---- ---- ------- ----- ---- -------<br>--- --- -- ----- -- --- ---- -- --- ---- -- ------ ------<br>--- ----- -- ----,170908.70000004768,170906.89999997616,170528.071,170542.60000002384,170561.394,170928.332,,17,your
screen,html.Screen,2_1_0_1_18,2022-05-09T11:45:27.191Z,,,,,,,,,,,,,,,,,53,,,,,,,,,,,,,,405.1680000000051,,response,,,,99,,,,,,,Space,keypress(Space),,,,,,,,---- -- ----- -- ------ - ------- --- ----------<br>------------- ------ ------ ---- ---- ------- ----- -- ----<br>romantic ------- -- ---------- --- - --- ----- ----- ----<br>---- --- --- ----- --- ---- ---- ------- ----- ---- -------<br>--- --- -- ----- -- --- ---- -- --- ---- -- ------ ------<br>--- ----- -- ----,171335.20000004768,171333.5,170894.602,170909.10000002384,170928.332,171344.132,,18,romantic
screen,html.Screen,2_1_0_1_19,2022-05-09T11:45:27.579Z,,,,,,,,,,,,,,,,,53,,,,,,,,,,,,,,376.66800007151323,,response,,,,99,,,,,,,Space,keypress(Space),,,,,,,,---- -- ----- -- ------ - ------- --- ----------<br>------------- ------ ------ ---- ---- ------- ----- -- ----<br>-------- partner -- ---------- --- - --- ----- ----- ----<br>---- --- --- ----- --- ---- ---- ------- ----- ---- -------<br>--- --- -- ----- -- --- ---- -- --- ---- -- ------ ------<br>--- ----- -- ----,171722.89999997616,171720.80000007153,171327.831,171335.60000002384,171344.132,171727.415,,19,partner
screen,html.Screen,2_1_0_1_20,2022-05-09T11:45:27.962Z,,,,,,,,,,,,,,,,,53,,,,,,,,,,,,,,376.8850000715174,,response,,,,99,,,,,,,Space,keypress(Space),,,,,,,,---- -- ----- -- ------ - ------- --- ----------<br>------------- ------ ------ ---- ---- ------- ----- -- ----<br>-------- ------- is ---------- --- - --- ----- ----- ----<br>---- --- --- ----- --- ---- ---- ------- ----- ---- -------<br>--- --- -- ----- -- --- ---- -- --- ---- -- ------ ------<br>--- ----- -- ----,172106.30000007153,172104.30000007153,171711.314,171723.30000007153,171727.415,172110.695,,20,is
screen,html.Screen,2_1_0_1_21,2022-05-09T11:45:28.338Z,,,,,,,,,,,,,,,,,53,,,,,,,,,,,,,,369.6050000715186,,response,,,,99,,,,,,,Space,keypress(Space),,,,,,,,---- -- ----- -- ------ - ------- --- ----------<br>------------- ------ ------ ---- ---- ------- ----- -- ----<br>-------- ------- -- paramount. --- - --- ----- ----- ----<br>---- --- --- ----- --- ---- ---- ------- ----- ---- -------<br>--- --- -- ----- -- --- ---- -- --- ---- -- ------ ------<br>--- ----- -- ----,172482,172480.30000007153,172094.565,172106.70000004768,172110.695,172493.945,,21,paramount.
screen,html.Screen,2_1_0_1_22,2022-05-09T11:45:28.877Z,,,,,,,,,,,,,,,,,53,,,,,,,,,,,,,,525.4549999761512,,response,,,,99,,,,,,,Space,keypress(Space),,,,,,,,---- -- ----- -- ------ - ------- --- ----------<br>------------- ------ ------ ---- ---- ------- ----- -- ----<br>-------- ------- -- ---------- But - --- ----- ----- ----<br>---- --- --- ----- --- ---- ---- ------- ----- ---- -------<br>--- --- -- ----- -- --- ---- -- --- ---- -- ------ ------<br>--- ----- -- ----,173021.30000007153,173019.39999997616,172477.683,172482.30000007153,172493.945,173027.249,,22,But
screen,html.Screen,2_1_0_1_23,2022-05-09T11:45:29.242Z,,,,,,,,,,,,,,,,,53,,,,,,,,,,,,,,357.65099997614743,,response,,,,99,,,,,,,Space,keypress(Space),,,,,,,,---- -- ----- -- ------ - ------- --- ----------<br>------------- ------ ------ ---- ---- ------- ----- -- ----<br>-------- ------- -- ---------- --- a --- ----- ----- ----<br>---- --- --- ----- --- ---- ---- ------- ----- ---- -------<br>--- --- -- ----- -- --- ---- -- --- ---- -- ------ ------<br>--- ----- -- ----,173385.89999997616,173384.89999997616,173011.154,173021.60000002384,173027.249,173393.756,,23,a
screen,html.Screen,2_1_0_1_24,2022-05-09T11:45:29.591Z,,,,,,,,,,,,,,,,,53,,,,,,,,,,,,,,339.94400004768977,,response,,,,99,,,,,,,Space,keypress(Space),,,,,,,,---- -- ----- -- ------ - ------- --- ----------<br>------------- ------ ------ ---- ---- ------- ----- -- ----<br>-------- ------- -- ---------- --- - new ----- ----- ----<br>---- --- --- ----- --- ---- ---- ------- ----- ---- -------<br>--- --- -- ----- -- --- ---- -- --- ---- -- ------ ------<br>--- ----- -- ----,173735.5,173733.70000004768,173377.561,173386,173393.756,173743.77,,24,new
screen,html.Screen,2_1_0_1_25,2022-05-09T11:45:29.924Z,,,,,,,,,,,,,,,,,53,,,,,,,,,,,,,,322.9300000476942,,response,,,,99,,,,,,,Space,keypress(Space),,,,,,,,---- -- ----- -- ------ - ------- --- ----------<br>------------- ------ ------ ---- ---- ------- ----- -- ----<br>-------- ------- -- ---------- --- - --- study ----- ----<br>---- --- --- ----- --- ---- ---- ------- ----- ---- -------<br>--- --- -- ----- -- --- ---- -- --- ---- -- ------ ------<br>--- ----- -- ----,174068.30000007153,174066.70000004768,173727.417,173735.89999997616,173743.77,174077.112,,25,study
screen,html.Screen,2_1_0_1_26,2022-05-09T11:45:30.342Z,,,,,,,,,,,,,,,,,53,,,,,,,,,,,,,,407.68800007153186,,response,,,,99,,,,,,,Space,keypress(Space),,,,,,,,---- -- ----- -- ------ - ------- --- ----------<br>------------- ------ ------ ---- ---- ------- ----- -- ----<br>-------- ------- -- ---------- --- - --- ----- finds ----<br>---- --- --- ----- --- ---- ---- ------- ----- ---- -------<br>--- --- -- ----- -- --- ---- -- --- ---- -- ------ ------<br>--- ----- -- ----,174486.5,174484.80000007153,174060.95,174068.70000004768,174077.112,174493.78,,26,finds
screen,html.Screen,2_1_0_1_27,2022-05-09T11:45:30.759Z,,,,,,,,,,,,,,,,,53,,,,,,,,,,,,,,407.72000000000116,,response,,,,99,,,,,,,Space,keypress(Space),,,,,,,,---- -- ----- -- ------ - ------- --- ----------<br>------------- ------ ------ ---- ---- ------- ----- -- ----<br>-------- ------- -- ---------- --- - --- ----- ----- that<br>---- --- --- ----- --- ---- ---- ------- ----- ---- -------<br>--- --- -- ----- -- --- ---- -- --- ---- -- ------ ------<br>--- ----- -- ----,174903.39999997616,174901.5,174477.56,174486.89999997616,174493.78,174910.359,,27,that
screen,html.Screen,2_1_0_1_28,2022-05-09T11:45:31.186Z,,,,,,,,,,,,,,,,,53,,,,,,,,,,,,,,417.841000047687,,response,,,,99,,,,,,,Space,keypress(Space),,,,,,,,---- -- ----- -- ------ - ------- --- ----------<br>------------- ------ ------ ---- ---- ------- ----- -- ----<br>-------- ------- -- ---------- --- - --- ----- ----- ----<br>it's --- --- ----- --- ---- ---- ------- ----- ---- -------<br>--- --- -- ----- -- --- ---- -- --- ---- -- ------ ------<br>--- ----- -- ----,175330.20000004768,175328.20000004768,174894.042,174903.80000007153,174910.359,175343.823,,28,it's
screen,html.Screen,2_1_0_1_29,2022-05-09T11:45:31.578Z,,,,,,,,,,,,,,,,,53,,,,,,,,,,,,,,377.7770000238379,,response,,,,99,,,,,,,Space,keypress(Space),,,,,,,,---- -- ----- -- ------ - ------- --- ----------<br>------------- ------ ------ ---- ---- ------- ----- -- ----<br>-------- ------- -- ---------- --- - --- ----- ----- ----<br>---- not --- ----- --- ---- ---- ------- ----- ---- -------<br>--- --- -- ----- -- --- ---- -- --- ---- -- ------ ------<br>--- ----- -- ----,175722.60000002384,175721.60000002384,175327.283,175330.5,175343.823,175726.783,,29,not
screen,html.Screen,2_1_0_1_30,2022-05-09T11:45:31.947Z,,,,,,,,,,,,,,,,,53,,,,,,,,,,,,,,362.4170000476879,,response,,,,99,,,,,,,Space,keypress(Space),,,,,,,,---- -- ----- -- ------ - ------- --- ----------<br>------------- ------ ------ ---- ---- ------- ----- -- ----<br>-------- ------- -- ---------- --- - --- ----- ----- ----<br>---- --- how ----- --- ---- ---- ------- ----- ---- -------<br>--- --- -- ----- -- --- ---- -- --- ---- -- ------ ------<br>--- ----- -- ----,176090.89999997616,176089.20000004768,175710.685,175722.80000007153,175726.783,176093.46,,30,how
screen,html.Screen,2_1_0_1_31,2022-05-09T11:45:32.305Z,,,,,,,,,,,,,,,,,53,,,,,,,,,,,,,,354.3400000715337,,response,,,,99,,,,,,,Space,keypress(Space),,,,,,,,---- -- ----- -- ------ - ------- --- ----------<br>------------- ------ ------ ---- ---- ------- ----- -- ----<br>-------- ------- -- ---------- --- - --- ----- ----- ----<br>---- --- --- close --- ---- ---- ------- ----- ---- -------<br>--- --- -- ----- -- --- ---- -- --- ---- -- ------ ------<br>--- ----- -- ----,176449.5,176447.80000007153,176077.201,176091.30000007153,176093.46,176460.139,,31,close
screen,html.Screen,2_1_0_1_32,2022-05-09T11:45:32.641Z,,,,,,,,,,,,,,,,,53,,,,,,,,,,,,,,323.26099997616257,,response,,,,99,,,,,,,Space,keypress(Space),,,,,,,,---- -- ----- -- ------ - ------- --- ----------<br>------------- ------ ------ ---- ---- ------- ----- -- ----<br>-------- ------- -- ---------- --- - --- ----- ----- ----<br>---- --- --- ----- you ---- ---- ------- ----- ---- -------<br>--- --- -- ----- -- --- ---- -- --- ---- -- ------ ------<br>--- ----- -- ----,176785.20000004768,176783.39999997616,176443.862,176449.80000007153,176460.139,176793.411,,32,you
screen,html.Screen,2_1_0_1_33,2022-05-09T11:45:32.965Z,,,,,,,,,,,,,,,,,53,,,,,,,,,,,,,,313.48899997616536,,response,,,,99,,,,,,,Space,keypress(Space),,,,,,,,---- -- ----- -- ------ - ------- --- ----------<br>------------- ------ ------ ---- ---- ------- ----- -- ----<br>-------- ------- -- ---------- --- - --- ----- ----- ----<br>---- --- --- ----- --- feel ---- ------- ----- ---- -------<br>--- --- -- ----- -- --- ---- -- --- ---- -- ------ ------<br>--- ----- -- ----,177108.80000007153,177106.89999997616,176777.24,176785.5,176793.411,177143.82,,33,feel
screen,html.Screen,2_1_0_1_34,2022-05-09T11:45:33.381Z,,,,,,,,,,,,,,,,,53,,,,,,,,,,,,,,379.57999997615116,,response,,,,99,,,,,,,Space,keypress(Space),,,,,,,,---- -- ----- -- ------ - ------- --- ----------<br>------------- ------ ------ ---- ---- ------- ----- -- ----<br>-------- ------- -- ---------- --- - --- ----- ----- ----<br>---- --- --- ----- --- ---- that ------- ----- ---- -------<br>--- --- -- ----- -- --- ---- -- --- ---- -- ------ ------<br>--- ----- -- ----,177525.39999997616,177523.39999997616,177127.229,177109.10000002384,177143.82,177543.621,,34,that
screen,html.Screen,2_1_0_1_35,2022-05-09T11:45:33.717Z,,,,,,,,,,,,,,,,,53,,,,,,,,,,,,,,316.17900007151184,,response,,,,99,,,,,,,Space,keypress(Space),,,,,,,,---- -- ----- -- ------ - ------- --- ----------<br>------------- ------ ------ ---- ---- ------- ----- -- ----<br>-------- ------- -- ---------- --- - --- ----- ----- ----<br>---- --- --- ----- --- ---- ---- matters ----- ---- -------<br>--- --- -- ----- -- --- ---- -- --- ---- -- ------ ------<br>--- ----- -- ----,177861.5,177859.80000007153,177526.633,177525.80000007153,177543.621,177876.814,,35,matters
screen,html.Screen,2_1_0_1_36,2022-05-09T11:45:34.154Z,,,,,,,,,,,,,,,,,53,,,,,,,,,,,,,,420.0859999761451,,response,,,,99,,,,,,,Space,keypress(Space),,,,,,,,"---- -- ----- -- ------ - ------- --- ----------<br>------------- ------ ------ ---- ---- ------- ----- -- ----<br>-------- ------- -- ---------- --- - --- ----- ----- ----<br>---- --- --- ----- --- ---- ---- ------- most, ---- -------<br>--- --- -- ----- -- --- ---- -- --- ---- -- ------ ------<br>--- ----- -- ----",178298.60000002384,178296.89999997616,177860.323,177862,177876.814,178310.234,,36,"most,"
screen,html.Screen,2_1_0_1_37,2022-05-09T11:45:34.643Z,,,,,,,,,,,,,,,,,53,,,,,,,,,,,,,,474.966000047687,,response,,,,99,,,,,,,Space,keypress(Space),,,,,,,,---- -- ----- -- ------ - ------- --- ----------<br>------------- ------ ------ ---- ---- ------- ----- -- ----<br>-------- ------- -- ---------- --- - --- ----- ----- ----<br>---- --- --- ----- --- ---- ---- ------- ----- it's -------<br>--- --- -- ----- -- --- ---- -- --- ---- -- ------ ------<br>--- ----- -- ----,178787,178785.20000004768,178293.629,178299,178310.234,178793.23,,37,it's
screen,html.Screen,2_1_0_1_38,2022-05-09T11:45:35.077Z,,,,,,,,,,,,,,,,,53,,,,,,,,,,,,,,426.66999997614766,,response,,,,99,,,,,,,Space,keypress(Space),,,,,,,,---- -- ----- -- ------ - ------- --- ----------<br>------------- ------ ------ ---- ---- ------- ----- -- ----<br>-------- ------- -- ---------- --- - --- ----- ----- ----<br>---- --- --- ----- --- ---- ---- ------- ----- ---- whether<br>--- --- -- ----- -- --- ---- -- --- ---- -- ------ ------<br>--- ----- -- ----,179221.10000002384,179219.89999997616,178776.937,178787.39999997616,178793.23,179226.331,,38,whether
screen,html.Screen,2_1_0_1_39,2022-05-09T11:45:35.505Z,,,,,,,,,,,,,,,,,53,,,,,,,,,,,,,,420.8690000476781,,response,,,,99,,,,,,,Space,keypress(Space),,,,,,,,---- -- ----- -- ------ - ------- --- ----------<br>------------- ------ ------ ---- ---- ------- ----- -- ----<br>-------- ------- -- ---------- --- - --- ----- ----- ----<br>---- --- --- ----- --- ---- ---- ------- ----- ---- -------<br>you --- -- ----- -- --- ---- -- --- ---- -- ------ ------<br>--- ----- -- ----,179649.10000002384,179647.20000004768,179210.381,179221.20000004768,179226.331,179659.732,,39,you
screen,html.Screen,2_1_0_1_40,2022-05-09T11:45:35.922Z,,,,,,,,,,,,,,,,,53,,,,,,,,,,,,,,404.76800000001094,,response,,,,99,,,,,,,Space,keypress(Space),,,,,,,,---- -- ----- -- ------ - ------- --- ----------<br>------------- ------ ------ ---- ---- ------- ----- -- ----<br>-------- ------- -- ---------- --- - --- ----- ----- ----<br>---- --- --- ----- --- ---- ---- ------- ----- ---- -------<br>--- are -- ----- -- --- ---- -- --- ---- -- ------ ------<br>--- ----- -- ----,180066.39999997616,180064.5,179643.577,179649.60000002384,179659.732,180076.7,,40,are
screen,html.Screen,2_1_0_1_41,2022-05-09T11:45:36.308Z,,,,,,,,,,,,,,,,,53,,,,,,,,,,,,,,373.9000000238302,,response,,,,99,,,,,,,Space,keypress(Space),,,,,,,,---- -- ----- -- ------ - ------- --- ----------<br>------------- ------ ------ ---- ---- ------- ----- -- ----<br>-------- ------- -- ---------- --- - --- ----- ----- ----<br>---- --- --- ----- --- ---- ---- ------- ----- ---- -------<br>--- --- as ----- -- --- ---- -- --- ---- -- ------ ------<br>--- ----- -- ----,180452.5,180450.60000002384,180059.651,180066.70000004768,180076.7,180459.572,,41,as
screen,html.Screen,2_1_0_1_42,2022-05-09T11:45:36.705Z,,,,,,,,,,,,,,,,,53,,,,,,,,,,,,,,388.12800004769815,,response,,,,99,,,,,,,Space,keypress(Space),,,,,,,,---- -- ----- -- ------ - ------- --- ----------<br>------------- ------ ------ ---- ---- ------- ----- -- ----<br>-------- ------- -- ---------- --- - --- ----- ----- ----<br>---- --- --- ----- --- ---- ---- ------- ----- ---- -------<br>--- --- -- close -- --- ---- -- --- ---- -- ------ ------<br>--- ----- -- ----,180849.5,180847.70000004768,180443.501,180452.89999997616,180459.572,180859.542,,42,close
screen,html.Screen,2_1_0_1_43,2022-05-09T11:45:37.069Z,,,,,,,,,,,,,,,,,53,,,,,,,,,,,,,,351.8579999761714,,response,,,,99,,,,,,,Space,keypress(Space),,,,,,,,---- -- ----- -- ------ - ------- --- ----------<br>------------- ------ ------ ---- ---- ------- ----- -- ----<br>-------- ------- -- ---------- --- - --- ----- ----- ----<br>---- --- --- ----- --- ---- ---- ------- ----- ---- -------<br>--- --- -- ----- as --- ---- -- --- ---- -- ------ ------<br>--- ----- -- ----,181213.10000002384,181211.39999997616,180843.438,180849.89999997616,180859.542,181226.447,,43,as
screen,html.Screen,2_1_0_1_44,2022-05-09T11:45:37.435Z,,,,,,,,,,,,,,,,,53,,,,,,,,,,,,,,351.1530000238563,,response,,,,99,,,,,,,Space,keypress(Space),,,,,,,,---- -- ----- -- ------ - ------- --- ----------<br>------------- ------ ------ ---- ---- ------- ----- -- ----<br>-------- ------- -- ---------- --- - --- ----- ----- ----<br>---- --- --- ----- --- ---- ---- ------- ----- ---- -------<br>--- --- -- ----- -- you ---- -- --- ---- -- ------ ------<br>--- ----- -- ----,181579.30000007153,181577.60000002384,181209.982,181213.5,181226.447,181592.893,,44,you
screen,html.Screen,2_1_0_1_45,2022-05-09T11:45:37.823Z,,,,,,,,,,,,,,,,,53,,,,,,,,,,,,,,371.8070000476728,,response,,,,99,,,,,,,Space,keypress(Space),,,,,,,,---- -- ----- -- ------ - ------- --- ----------<br>------------- ------ ------ ---- ---- ------- ----- -- ----<br>-------- ------- -- ---------- --- - --- ----- ----- ----<br>---- --- --- ----- --- ---- ---- ------- ----- ---- -------<br>--- --- -- ----- -- --- want -- --- ---- -- ------ ------<br>--- ----- -- ----,181966.39999997616,181964.70000004768,181576.572,181579.70000004768,181592.893,181976.093,,45,want
screen,html.Screen,2_1_0_1_46,2022-05-09T11:45:38.220Z,,,,,,,,,,,,,,,,,53,,,,,,,,,,,,,,385.9070000000065,,response,,,,99,,,,,,,Space,keypress(Space),,,,,,,,---- -- ----- -- ------ - ------- --- ----------<br>------------- ------ ------ ---- ---- ------- ----- -- ----<br>-------- ------- -- ---------- --- - --- ----- ----- ----<br>---- --- --- ----- --- ---- ---- ------- ----- ---- -------<br>--- --- -- ----- -- --- ---- to --- ---- -- ------ ------<br>--- ----- -- ----,182364.10000002384,182362,181959.885,181966.89999997616,181976.093,182376.301,,46,to
screen,html.Screen,2_1_0_1_47,2022-05-09T11:45:38.922Z,,,,,,,,,,,,,,,,,53,,,,,,,,,,,,,,687.6989999999932,,response,,,,99,,,,,,,Space,keypress(Space),,,,,,,,"---- -- ----- -- ------ - ------- --- ----------<br>------------- ------ ------ ---- ---- ------- ----- -- ----<br>-------- ------- -- ---------- --- - --- ----- ----- ----<br>---- --- --- ----- --- ---- ---- ------- ----- ---- -------<br>--- --- -- ----- -- --- ---- -- be, ---- -- ------ ------<br>--- ----- -- ----",183065.60000002384,183064,182359.966,182364.5,182376.301,183075.909,,47,"be,"
screen,html.Screen,2_1_0_1_48,2022-05-09T11:45:39.379Z,,,,,,,,,,,,,,,,,53,,,,,,,,,,,,,,444.89100007151137,,response,,,,99,,,,,,,Space,keypress(Space),,,,,,,,---- -- ----- -- ------ - ------- --- ----------<br>------------- ------ ------ ---- ---- ------- ----- -- ----<br>-------- ------- -- ---------- --- - --- ----- ----- ----<br>---- --- --- ----- --- ---- ---- ------- ----- ---- -------<br>--- --- -- ----- -- --- ---- -- --- even -- ------ ------<br>--- ----- -- ----,183523,183520.80000007153,183059.656,183066,183075.909,183525.83,,48,even
screen,html.Screen,2_1_0_1_49,2022-05-09T11:45:39.775Z,,,,,,,,,,,,,,,,,53,,,,,,,,,,,,,,390.77000002385466,,response,,,,99,,,,,,,Space,keypress(Space),,,,,,,,---- -- ----- -- ------ - ------- --- ----------<br>------------- ------ ------ ---- ---- ------- ----- -- ----<br>-------- ------- -- ---------- --- - --- ----- ----- ----<br>---- --- --- ----- --- ---- ---- ------- ----- ---- -------<br>--- --- -- ----- -- --- ---- -- --- ---- if ------ ------<br>--- ----- -- ----,183918.5,183916.60000002384,183509.792,183523.39999997616,183525.83,183925.807,,49,if
screen,html.Screen,2_1_0_1_50,2022-05-09T11:45:40.192Z,,,,,,,,,,,,,,,,,53,,,,,,,,,,,,,,408.29300002384116,,response,,,,99,,,,,,,Space,keypress(Space),,,,,,,,---- -- ----- -- ------ - ------- --- ----------<br>------------- ------ ------ ---- ---- ------- ----- -- ----<br>-------- ------- -- ---------- --- - --- ----- ----- ----<br>---- --- --- ----- --- ---- ---- ------- ----- ---- -------<br>--- --- -- ----- -- --- ---- -- --- ---- -- that's ------<br>--- ----- -- ----,184335.89999997616,184334.10000002384,183909.631,183918.80000007153,183925.807,184342.407,,50,that's
screen,html.Screen,2_1_0_1_51,2022-05-09T11:45:40.616Z,,,,,,,,,,,,,,,,,53,,,,,,,,,,,,,,415.4929999761516,,response,,,,99,,,,,,,Space,keypress(Space),,,,,,,,---- -- ----- -- ------ - ------- --- ----------<br>------------- ------ ------ ---- ---- ------- ----- -- ----<br>-------- ------- -- ---------- --- - --- ----- ----- ----<br>---- --- --- ----- --- ---- ---- ------- ----- ---- -------<br>--- --- -- ----- -- --- ---- -- --- ---- -- ------ really<br>--- ----- -- ----,184759.80000007153,184757.89999997616,184326.255,184336.20000004768,184342.407,184776.211,,51,really
screen,html.Screen,2_1_0_1_52,2022-05-09T11:45:41.033Z,,,,,,,,,,,,,,,,,53,,,,,,,,,,,,,,398.98900004767347,,response,,,,99,,,,,,,Space,keypress(Space),,,,,,,,---- -- ----- -- ------ - ------- --- ----------<br>------------- ------ ------ ---- ---- ------- ----- -- ----<br>-------- ------- -- ---------- --- - --- ----- ----- ----<br>---- --- --- ----- --- ---- ---- ------- ----- ---- -------<br>--- --- -- ----- -- --- ---- -- --- ---- -- ------ ------<br>not ----- -- ----,185177,185175.20000004768,184759.471,184760.10000002384,184776.211,185192.334,,52,not
screen,html.Screen,2_1_0_1_53,2022-05-09T11:45:41.410Z,,,,,,,,,,,,,,,,,53,,,,,,,,,,,,,,359.86600004768115,,response,,,,99,,,,,,,Space,keypress(Space),,,,,,,,---- -- ----- -- ------ - ------- --- ----------<br>------------- ------ ------ ---- ---- ------- ----- -- ----<br>-------- ------- -- ---------- --- - --- ----- ----- ----<br>---- --- --- ----- --- ---- ---- ------- ----- ---- -------<br>--- --- -- ----- -- --- ---- -- --- ---- -- ------ ------<br>--- close -- ----,185553.89999997616,185552.20000004768,185176.168,185177.39999997616,185192.334,185558.935,,53,close
screen,html.Screen,2_1_0_1_54,2022-05-09T11:45:41.958Z,,,,,,,,,,,,,,,,,53,,,,,,,,,,,,,,541.265000047686,,response,,,,99,,,,,,,Space,keypress(Space),,,,,,,,---- -- ----- -- ------ - ------- --- ----------<br>------------- ------ ------ ---- ---- ------- ----- -- ----<br>-------- ------- -- ---------- --- - --- ----- ----- ----<br>---- --- --- ----- --- ---- ---- ------- ----- ---- -------<br>--- --- -- ----- -- --- ---- -- --- ---- -- ------ ------<br>--- ----- at ----,186102.10000002384,186100.20000004768,185542.818,185554.20000004768,185558.935,186108.778,,54,at
screen,html.Screen,2_1_0_1_55,2022-05-09T11:45:42.517Z,,,,,,,,,,,,,,,,,53,,,,,,,,,,,,,,550.5220000715344,,response,,,,99,,,,,,,Space,keypress(Space),,,,,,,,---- -- ----- -- ------ - ------- --- ----------<br>------------- ------ ------ ---- ---- ------- ----- -- ----<br>-------- ------- -- ---------- --- - --- ----- ----- ----<br>---- --- --- ----- --- ---- ---- ------- ----- ---- -------<br>--- --- -- ----- -- --- ---- -- --- ---- -- ------ ------<br>--- ----- -- all.,186661.39999997616,186659.30000007153,186092.702,186102.5,186108.778,186692.077,,55,all.
Item 99,flow.Loop,2_1_0_1,2022-05-09T11:45:42.518Z,,,,,,,,,,,,,,,,,,,,,,,,,,,,,,,24563.975000071514,,completion,,,,,D,,,,,,,,,,,silence,,,,,186662.20000004768,186659.30000007153,162062.376,162064.30000007153,162095.325,186692.077,,,
Question 1,html.Screen,2_1_0_2,2022-05-09T11:45:49.367Z,,,,,,,,,,,,,,,,,,,,,,,,,,,,true,FALSE,,6814.6230000476935,,response,,,,99,D,,,,,,FALSE,click #choice-2,,,,silence,,,,,193511,193506.70000004768,186659.248,186662.60000002384,186692.077,193524.648,,,
Question 2,html.Screen,2_1_0_3,2022-05-09T11:45:58.094Z,,,,,,,,,,,,,,,,,,,,,,,,,,,,true,TRUE,,8709.552000047697,,response,,,,99,D,,,,,,TRUE,click #choice-1,,,,silence,,,,,202237.89999997616,202234.20000004768,193508.366,193511.39999997616,193524.648,202273.443,,,
Item 99,flow.Sequence,2_1_0,2022-05-09T11:45:58.095Z,,,,,,,,,,,,,,,,,,,,,,,,,,,,,,,50154.2640000477,,completion,,,,,,,,,,,,,,,,,,,,,202239.20000004768,202234.20000004768,152046.873,152053,152079.936,202273.443,,,
Holding screen,html.Screen,2_1_1_0,2022-05-09T11:46:08.114Z,,,,,,,,,,,,,,,,,,,,,,,,,,,,,,,9998.725999999995,,timeout,,,,,,,,,,,,,,,,,,,,,212257.5,212256.046,202223.882,202240,202273.443,212272.169,,,
screen,html.Screen,2_1_1_1_0,2022-05-09T11:46:08.959Z,,,,,,,,,,,,,,,,,54,,,,,,,,,,,,,,828.2309999761637,,response,,,,100,,,,,,,Space,keypress(Space),,,,,,,,At --- ---- --- ------ ----- ------- ---- -- --- ------- --<br>------- ---------- ------ -- ----- -- ----- -- ---- ------<br>--- ----- --- --- ------ -------- ----- --- ------ ----- --<br>----- ----- ---------- --- --- ------ ------ ---- -- ------<br>------- --- ------ ----- --- ---- ------- -- ---- --- --<br>------- ------,213102.80000007153,213100.39999997616,212256.046,212258,212272.169,213105.37,,0,At
screen,html.Screen,2_1_1_1_1,2022-05-09T11:46:09.361Z,,,,,,,,,,,,,,,,,54,,,,,,,,,,,,,,398.2300000238465,,response,,,,100,,,,,,,Space,keypress(Space),,,,,,,,-- the ---- --- ------ ----- ------- ---- -- --- ------- --<br>------- ---------- ------ -- ----- -- ----- -- ---- ------<br>--- ----- --- --- ------ -------- ----- --- ------ ----- --<br>----- ----- ---------- --- --- ------ ------ ---- -- ------<br>------- --- ------ ----- --- ---- ------- -- ---- --- --<br>------- ------,213505.30000007153,213503.60000002384,213089.213,213103.30000007153,213105.37,213522.078,,1,the
screen,html.Screen,2_1_1_1_2,2022-05-09T11:46:09.789Z,,,,,,,,,,,,,,,,,54,,,,,,,,,,,,,,408.6220000476751,,response,,,,100,,,,,,,Space,keypress(Space),,,,,,,,-- --- time --- ------ ----- ------- ---- -- --- ------- --<br>------- ---------- ------ -- ----- -- ----- -- ---- ------<br>--- ----- --- --- ------ -------- ----- --- ------ ----- --<br>----- ----- ---------- --- --- ------ ------ ---- -- ------<br>------- --- ------ ----- --- ---- ------- -- ---- --- --<br>------- ------,213932.39999997616,213930.70000004768,213505.932,213505.70000004768,213522.078,213938.63,,2,time
screen,html.Screen,2_1_1_1_3,2022-05-09T11:46:10.215Z,,,,,,,,,,,,,,,,,54,,,,,,,,,,,,,,418.57000004767906,,response,,,,100,,,,,,,Space,keypress(Space),,,,,,,,-- --- ---- the ------ ----- ------- ---- -- --- ------- --<br>------- ---------- ------ -- ----- -- ----- -- ---- ------<br>--- ----- --- --- ------ -------- ----- --- ------ ----- --<br>----- ----- ---------- --- --- ------ ------ ---- -- ------<br>------- --- ------ ----- --- ---- ------- -- ---- --- --<br>------- ------,214358.89999997616,214357.20000004768,213922.18,213932.89999997616,213938.63,214372.249,,3,the
screen,html.Screen,2_1_1_1_4,2022-05-09T11:46:10.643Z,,,,,,,,,,,,,,,,,54,,,,,,,,,,,,,,412.951000047673,,response,,,,100,,,,,,,Space,keypress(Space),,,,,,,,-- --- ---- --- French ----- ------- ---- -- --- ------- --<br>------- ---------- ------ -- ----- -- ----- -- ---- ------<br>--- ----- --- --- ------ -------- ----- --- ------ ----- --<br>----- ----- ---------- --- --- ------ ------ ---- -- ------<br>------- --- ------ ----- --- ---- ------- -- ---- --- --<br>------- ------,214786.89999997616,214785.20000004768,214355.678,214359.30000007153,214372.249,214816.008,,4,French
screen,html.Screen,2_1_1_1_5,2022-05-09T11:46:11.080Z,,,,,,,,,,,,,,,,,54,,,,,,,,,,,,,,405.79200007152394,,response,,,,100,,,,,,,Space,keypress(Space),,,,,,,,-- --- ---- --- ------ crown ------- ---- -- --- ------- --<br>------- ---------- ------ -- ----- -- ----- -- ---- ------<br>--- ----- --- --- ------ -------- ----- --- ------ ----- --<br>----- ----- ---------- --- --- ------ ------ ---- -- ------<br>------- --- ------ ----- --- ---- ------- -- ---- --- --<br>------- ------,215223.60000002384,215221.80000007153,214772.305,214787.30000007153,214816.008,215238.709,,5,crown
screen,html.Screen,2_1_1_1_6,2022-05-09T11:46:11.506Z,,,,,,,,,,,,,,,,,54,,,,,,,,,,,,,,409.99100004768115,,response,,,,100,,,,,,,Space,keypress(Space),,,,,,,,-- --- ---- --- ------ ----- secured ---- -- --- ------- --<br>------- ---------- ------ -- ----- -- ----- -- ---- ------<br>--- ----- --- --- ------ -------- ----- --- ------ ----- --<br>----- ----- ---------- --- --- ------ ------ ---- -- ------<br>------- --- ------ ----- --- ---- ------- -- ---- --- --<br>------- ------,215650.30000007153,215648.70000004768,215222.206,215224,215238.709,215655.077,,6,secured
screen,html.Screen,2_1_1_1_7,2022-05-09T11:46:11.922Z,,,,,,,,,,,,,,,,,54,,,,,,,,,,,,,,408.8229999761679,,response,,,,100,,,,,,,Space,keypress(Space),,,,,,,,-- --- ---- --- ------ ----- ------- much -- --- ------- --<br>------- ---------- ------ -- ----- -- ----- -- ---- ------<br>--- ----- --- --- ------ -------- ----- --- ------ ----- --<br>----- ----- ---------- --- --- ------ ------ ---- -- ------<br>------- --- ------ ----- --- ---- ------- -- ---- --- --<br>------- ------,216066.39999997616,216063.89999997616,215638.912,215650.60000002384,215655.077,216071.679,,7,much
screen,html.Screen,2_1_1_1_8,2022-05-09T11:46:12.309Z,,,,,,,,,,,,,,,,,54,,,,,,,,,,,,,,379.12100007152185,,response,,,,100,,,,,,,Space,keypress(Space),,,,,,,,-- --- ---- --- ------ ----- ------- ---- of --- ------- --<br>------- ---------- ------ -- ----- -- ----- -- ---- ------<br>--- ----- --- --- ------ -------- ----- --- ------ ----- --<br>----- ----- ---------- --- --- ------ ------ ---- -- ------<br>------- --- ------ ----- --- ---- ------- -- ---- --- --<br>------- ------,216452.70000004768,216450.80000007153,216055.473,216066.70000004768,216071.679,216454.971,,8,of
screen,html.Screen,2_1_1_1_9,2022-05-09T11:46:12.756Z,,,,,,,,,,,,,,,,,54,,,,,,,,,,,,,,443.52900000000955,,response,,,,100,,,,,,,Space,keypress(Space),,,,,,,,-- --- ---- --- ------ ----- ------- ---- -- its ------- --<br>------- ---------- ------ -- ----- -- ----- -- ---- ------<br>--- ----- --- --- ------ -------- ----- --- ------ ----- --<br>----- ----- ---------- --- --- ------ ------ ---- -- ------<br>------- --- ------ ----- --- ---- ------- -- ---- --- --<br>------- ------,216900.20000004768,216898.5,216438.269,216453,216454.971,216904.868,,9,its
screen,html.Screen,2_1_1_1_10,2022-05-09T11:46:13.184Z,,,,,,,,,,,,,,,,,54,,,,,,,,,,,,,,421.4320000715379,,response,,,,100,,,,,,,Space,keypress(Space),,,,,,,,-- --- ---- --- ------ ----- ------- ---- -- --- revenue --<br>------- ---------- ------ -- ----- -- ----- -- ---- ------<br>--- ----- --- --- ------ -------- ----- --- ------ ----- --<br>----- ----- ---------- --- --- ------ ------ ---- -- ------<br>------- --- ------ ----- --- ---- ------- -- ---- --- --<br>------- ------,217327.89999997616,217326.30000007153,216888.605,216900.39999997616,216904.868,217338.171,,10,revenue
screen,html.Screen,2_1_1_1_11,2022-05-09T11:46:13.702Z,,,,,,,,,,,,,,,,,54,,,,,,,,,,,,,,506.22899997615605,,response,,,,100,,,,,,,Space,keypress(Space),,,,,,,,-- --- ---- --- ------ ----- ------- ---- -- --- ------- by<br>------- ---------- ------ -- ----- -- ----- -- ---- ------<br>--- ----- --- --- ------ -------- ----- --- ------ ----- --<br>----- ----- ---------- --- --- ------ ------ ---- -- ------<br>------- --- ------ ----- --- ---- ------- -- ---- --- --<br>------- ------,217846.39999997616,217844.39999997616,217321.692,217328.30000007153,217338.171,217854.794,,11,by
screen,html.Screen,2_1_1_1_12,2022-05-09T11:46:14.190Z,,,,,,,,,,,,,,,,,54,,,,,,,,,,,,,,477.2060000000056,,response,,,,100,,,,,,,Space,keypress(Space),,,,,,,,-- --- ---- --- ------ ----- ------- ---- -- --- ------- --<br>issuing ---------- ------ -- ----- -- ----- -- ---- ------<br>--- ----- --- --- ------ -------- ----- --- ------ ----- --<br>----- ----- ---------- --- --- ------ ------ ---- -- ------<br>------- --- ------ ----- --- ---- ------- -- ---- --- --<br>------- ------,218333.89999997616,218332,217838.609,217846.70000004768,217854.794,218338.074,,12,issuing
screen,html.Screen,2_1_1_1_13,2022-05-09T11:46:14.608Z,,,,,,,,,,,,,,,,,54,,,,,,,,,,,,,,411.8259999761649,,response,,,,100,,,,,,,Space,keypress(Space),,,,,,,,-- --- ---- --- ------ ----- ------- ---- -- --- ------- --<br>------- government ------ -- ----- -- ----- -- ---- ------<br>--- ----- --- --- ------ -------- ----- --- ------ ----- --<br>----- ----- ---------- --- --- ------ ------ ---- -- ------<br>------- --- ------ ----- --- ---- ------- -- ---- --- --<br>------- ------,218752,218749.89999997616,218321.987,218334.30000007153,218338.074,218754.64,,13,government
screen,html.Screen,2_1_1_1_14,2022-05-09T11:46:15.024Z,,,,,,,,,,,,,,,,,54,,,,,,,,,,,,,,411.7599999761442,,response,,,,100,,,,,,,Space,keypress(Space),,,,,,,,-- --- ---- --- ------ ----- ------- ---- -- --- ------- --<br>------- ---------- bonds. -- ----- -- ----- -- ---- ------<br>--- ----- --- --- ------ -------- ----- --- ------ ----- --<br>----- ----- ---------- --- --- ------ ------ ---- -- ------<br>------- --- ------ ----- --- ---- ------- -- ---- --- --<br>------- ------,219168.10000002384,219166.39999997616,218738.552,218752.39999997616,218754.64,219171.303,,14,bonds.
screen,html.Screen,2_1_1_1_15,2022-05-09T11:46:15.755Z,,,,,,,,,,,,,,,,,54,,,,,,,,,,,,,,725.9970000715111,,response,,,,100,,,,,,,Space,keypress(Space),,,,,,,,-- --- ---- --- ------ ----- ------- ---- -- --- ------- --<br>------- ---------- ------ In ----- -- ----- -- ---- ------<br>--- ----- --- --- ------ -------- ----- --- ------ ----- --<br>----- ----- ---------- --- --- ------ ------ ---- -- ------<br>------- --- ------ ----- --- ---- ------- -- ---- --- --<br>------- ------,219899.10000002384,219897.30000007153,219155.014,219168.5,219171.303,219904.484,,15,In
screen,html.Screen,2_1_1_1_16,2022-05-09T11:46:16.203Z,,,,,,,,,,,,,,,,,54,,,,,,,,,,,,,,441.31600007152883,,response,,,,100,,,,,,,Space,keypress(Space),,,,,,,,"-- --- ---- --- ------ ----- ------- ---- -- --- ------- --<br>------- ---------- ------ -- 1727, -- ----- -- ---- ------<br>--- ----- --- --- ------ -------- ----- --- ------ ----- --<br>----- ----- ---------- --- --- ------ ------ ---- -- ------<br>------- --- ------ ----- --- ---- ------- -- ---- --- --<br>------- ------",220347.39999997616,220345.80000007153,219887.979,219899.5,219904.484,220371.471,,16,"1727,"
screen,html.Screen,2_1_1_1_17,2022-05-09T11:46:16.965Z,,,,,,,,,,,,,,,,,54,,,,,,,,,,,,,,735.3290000715351,,response,,,,100,,,,,,,Space,keypress(Space),,,,,,,,-- --- ---- --- ------ ----- ------- ---- -- --- ------- --<br>------- ---------- ------ -- ----- in ----- -- ---- ------<br>--- ----- --- --- ------ -------- ----- --- ------ ----- --<br>----- ----- ---------- --- --- ------ ------ ---- -- ------<br>------- --- ------ ----- --- ---- ------- -- ---- --- --<br>------- ------,221108.70000004768,221106.80000007153,220337.939,220347.70000004768,220371.471,221121.076,,17,in
screen,html.Screen,2_1_1_1_18,2022-05-09T11:46:17.342Z,,,,,,,,,,,,,,,,,54,,,,,,,,,,,,,,363.6240000476828,,response,,,,100,,,,,,,Space,keypress(Space),,,,,,,,-- --- ---- --- ------ ----- ------- ---- -- --- ------- --<br>------- ---------- ------ -- ----- -- order -- ---- ------<br>--- ----- --- --- ------ -------- ----- --- ------ ----- --<br>----- ----- ---------- --- --- ------ ------ ---- -- ------<br>------- --- ------ ----- --- ---- ------- -- ---- --- --<br>------- ------,221486.39999997616,221484.70000004768,221104.401,221109.10000002384,221121.076,221521.03,,18,order
screen,html.Screen,2_1_1_1_19,2022-05-09T11:46:17.649Z,,,,,,,,,,,,,,,,,54,,,,,,,,,,,,,,270.27000007152674,,response,,,,100,,,,,,,Space,keypress(Space),,,,,,,,-- --- ---- --- ------ ----- ------- ---- -- --- ------- --<br>------- ---------- ------ -- ----- -- ----- to ---- ------<br>--- ----- --- --- ------ -------- ----- --- ------ ----- --<br>----- ----- ---------- --- --- ------ ------ ---- -- ------<br>------- --- ------ ----- --- ---- ------- -- ---- --- --<br>------- ------,221793.20000004768,221791.30000007153,221504.343,221486.70000004768,221521.03,221804.266,,19,to
screen,html.Screen,2_1_1_1_20,2022-05-09T11:46:18.013Z,,,,,,,,,,,,,,,,,54,,,,,,,,,,,,,,350.73399999999674,,response,,,,100,,,,,,,Space,keypress(Space),,,,,,,,-- --- ---- --- ------ ----- ------- ---- -- --- ------- --<br>------- ---------- ------ -- ----- -- ----- -- save ------<br>--- ----- --- --- ------ -------- ----- --- ------ ----- --<br>----- ----- ---------- --- --- ------ ------ ---- -- ------<br>------- --- ------ ----- --- ---- ------- -- ---- --- --<br>------- ------,222156.89999997616,222155,221787.618,221793.60000002384,221804.266,222170.958,,20,save
screen,html.Screen,2_1_1_1_21,2022-05-09T11:46:18.359Z,,,,,,,,,,,,,,,,,54,,,,,,,,,,,,,,330.3420000715123,,response,,,,100,,,,,,,Space,keypress(Space),,,,,,,,"-- --- ---- --- ------ ----- ------- ---- -- --- ------- --<br>------- ---------- ------ -- ----- -- ----- -- ---- money,<br>--- ----- --- --- ------ -------- ----- --- ------ ----- --<br>----- ----- ---------- --- --- ------ ------ ---- -- ------<br>------- --- ------ ----- --- ---- ------- -- ---- --- --<br>------- ------",222503.20000004768,222501.30000007153,222154.377,222157.30000007153,222170.958,222520.868,,21,"money,"
screen,html.Screen,2_1_1_1_22,2022-05-09T11:46:18.775Z,,,,,,,,,,,,,,,,,54,,,,,,,,,,,,,,396.5319999761705,,response,,,,100,,,,,,,Space,keypress(Space),,,,,,,,-- --- ---- --- ------ ----- ------- ---- -- --- ------- --<br>------- ---------- ------ -- ----- -- ----- -- ---- ------<br>the ----- --- --- ------ -------- ----- --- ------ ----- --<br>----- ----- ---------- --- --- ------ ------ ---- -- ------<br>------- --- ------ ----- --- ---- ------- -- ---- --- --<br>------- ------,222919.20000004768,222917.39999997616,222504.196,222503.60000002384,222520.868,222937.725,,22,the
screen,html.Screen,2_1_1_1_23,2022-05-09T11:46:19.143Z,,,,,,,,,,,,,,,,,54,,,,,,,,,,,,,,347.9750000476779,,response,,,,100,,,,,,,Space,keypress(Space),,,,,,,,-- --- ---- --- ------ ----- ------- ---- -- --- ------- --<br>------- ---------- ------ -- ----- -- ----- -- ---- ------<br>--- state --- --- ------ -------- ----- --- ------ ----- --<br>----- ----- ---------- --- --- ------ ------ ---- -- ------<br>------- --- ------ ----- --- ---- ------- -- ---- --- --<br>------- ------,223287.30000007153,223285.70000004768,222904.491,222919.60000002384,222937.725,223304.15,,23,state
screen,html.Screen,2_1_1_1_24,2022-05-09T11:46:19.475Z,,,,,,,,,,,,,,,,,54,,,,,,,,,,,,,,312.9500000238477,,response,,,,100,,,,,,,Space,keypress(Space),,,,,,,,-- --- ---- --- ------ ----- ------- ---- -- --- ------- --<br>------- ---------- ------ -- ----- -- ----- -- ---- ------<br>--- ----- cut --- ------ -------- ----- --- ------ ----- --<br>----- ----- ---------- --- --- ------ ------ ---- -- ------<br>------- --- ------ ----- --- ---- ------- -- ---- --- --<br>------- ------,223619,223617.10000002384,223287.84,223287.60000002384,223304.15,223644.153,,24,cut
screen,html.Screen,2_1_1_1_25,2022-05-09T11:46:19.863Z,,,,,,,,,,,,,,,,,54,,,,,,,,,,,,,,360.746999976167,,response,,,,100,,,,,,,Space,keypress(Space),,,,,,,,-- --- ---- --- ------ ----- ------- ---- -- --- ------- --<br>------- ---------- ------ -- ----- -- ----- -- ---- ------<br>--- ----- --- the ------ -------- ----- --- ------ ----- --<br>----- ----- ---------- --- --- ------ ------ ---- -- ------<br>------- --- ------ ----- --- ---- ------- -- ---- --- --<br>------- ------,224007,224004.89999997616,223604.515,223619.39999997616,223644.153,224020.737,,25,the
screen,html.Screen,2_1_1_1_26,2022-05-09T11:46:20.198Z,,,,,,,,,,,,,,,,,54,,,,,,,,,,,,,,319.16299997616443,,response,,,,100,,,,,,,Space,keypress(Space),,,,,,,,-- --- ---- --- ------ ----- ------- ---- -- --- ------- --<br>------- ---------- ------ -- ----- -- ----- -- ---- ------<br>--- ----- --- --- bonds' -------- ----- --- ------ ----- --<br>----- ----- ---------- --- --- ------ ------ ---- -- ------<br>------- --- ------ ----- --- ---- ------- -- ---- --- --<br>------- ------,224342,224339.89999997616,224003.939,224007.5,224020.737,224354.031,,26,bonds'
screen,html.Screen,2_1_1_1_27,2022-05-09T11:46:20.667Z,,,,,,,,,,,,,,,,,54,,,,,,,,,,,,,,454.86899997617,,response,,,,100,,,,,,,Space,keypress(Space),,,,,,,,-- --- ---- --- ------ ----- ------- ---- -- --- ------- --<br>------- ---------- ------ -- ----- -- ----- -- ---- ------<br>--- ----- --- --- ------ interest ----- --- ------ ----- --<br>----- ----- ---------- --- --- ------ ------ ---- -- ------<br>------- --- ------ ----- --- ---- ------- -- ---- --- --<br>------- ------,224810.70000004768,224808.89999997616,224337.286,224342.39999997616,224354.031,224820.528,,27,interest
screen,html.Screen,2_1_1_1_28,2022-05-09T11:46:21.195Z,,,,,,,,,,,,,,,,,54,,,,,,,,,,,,,,516.2720000715344,,response,,,,100,,,,,,,Space,keypress(Space),,,,,,,,-- --- ---- --- ------ ----- ------- ---- -- --- ------- --<br>------- ---------- ------ -- ----- -- ----- -- ---- ------<br>--- ----- --- --- ------ -------- rate. --- ------ ----- --<br>----- ----- ---------- --- --- ------ ------ ---- -- ------<br>------- --- ------ ----- --- ---- ------- -- ---- --- --<br>------- ------,225338.60000002384,225336.80000007153,224804.014,224811,224820.528,225353.907,,28,rate.
screen,html.Screen,2_1_1_1_29,2022-05-09T11:46:22.110Z,,,,,,,,,,,,,,,,,54,,,,,,,,,,,,,,897.9929999761516,,response,,,,100,,,,,,,Space,keypress(Space),,,,,,,,-- --- ---- --- ------ ----- ------- ---- -- --- ------- --<br>------- ---------- ------ -- ----- -- ----- -- ---- ------<br>--- ----- --- --- ------ -------- ----- The ------ ----- --<br>----- ----- ---------- --- --- ------ ------ ---- -- ------<br>------- --- ------ ----- --- ---- ------- -- ---- --- --<br>------- ------,226253.70000004768,226251.89999997616,225337.383,225338.89999997616,225353.907,226270.4,,29,The
screen,html.Screen,2_1_1_1_30,2022-05-09T11:46:22.607Z,,,,,,,,,,,,,,,,,54,,,,,,,,,,,,,,478.99999997616396,,response,,,,100,,,,,,,Space,keypress(Space),,,,,,,,-- --- ---- --- ------ ----- ------- ---- -- --- ------- --<br>------- ---------- ------ -- ----- -- ----- -- ---- ------<br>--- ----- --- --- ------ -------- ----- --- market ----- --<br>----- ----- ---------- --- --- ------ ------ ---- -- ------<br>------- --- ------ ----- --- ---- ------- -- ---- --- --<br>------- ------,226751.30000007153,226749.39999997616,226254.113,226254.10000002384,226270.4,226753.634,,30,market
screen,html.Screen,2_1_1_1_31,2022-05-09T11:46:22.982Z,,,,,,,,,,,,,,,,,54,,,,,,,,,,,,,,369.8660000000091,,response,,,,100,,,,,,,Space,keypress(Space),,,,,,,,-- --- ---- --- ------ ----- ------- ---- -- --- ------- --<br>------- ---------- ------ -- ----- -- ----- -- ---- ------<br>--- ----- --- --- ------ -------- ----- --- ------ value --<br>----- ----- ---------- --- --- ------ ------ ---- -- ------<br>------- --- ------ ----- --- ---- ------- -- ---- --- --<br>------- ------,227125.70000004768,227123.5,226737.235,226751.60000002384,226753.634,227136.972,,31,value
screen,html.Screen,2_1_1_1_32,2022-05-09T11:46:23.520Z,,,,,,,,,,,,,,,,,54,,,,,,,,,,,,,,524.4279999761493,,response,,,,100,,,,,,,Space,keypress(Space),,,,,,,,-- --- ---- --- ------ ----- ------- ---- -- --- ------- --<br>------- ---------- ------ -- ----- -- ----- -- ---- ------<br>--- ----- --- --- ------ -------- ----- --- ------ ----- of<br>----- ----- ---------- --- --- ------ ------ ---- -- ------<br>------- --- ------ ----- --- ---- ------- -- ---- --- --<br>------- ------,227663.39999997616,227661.39999997616,227120.533,227126.10000002384,227136.972,227670.153,,32,of
screen,html.Screen,2_1_1_1_33,2022-05-09T11:46:23.927Z,,,,,,,,,,,,,,,,,54,,,,,,,,,,,,,,398.9470000238507,,response,,,,100,,,,,,,Space,keypress(Space),,,,,,,,-- --- ---- --- ------ ----- ------- ---- -- --- ------- --<br>------- ---------- ------ -- ----- -- ----- -- ---- ------<br>--- ----- --- --- ------ -------- ----- --- ------ ----- --<br>these ----- ---------- --- --- ------ ------ ---- -- ------<br>------- --- ------ ----- --- ---- ------- -- ---- --- --<br>------- ------,228070.89999997616,228069.10000002384,227654.065,227663.80000007153,227670.153,228087.027,,33,these
screen,html.Screen,2_1_1_1_34,2022-05-09T11:46:24.324Z,,,,,,,,,,,,,,,,,54,,,,,,,,,,,,,,379.3729999761563,,response,,,,100,,,,,,,Space,keypress(Space),,,,,,,,-- --- ---- --- ------ ----- ------- ---- -- --- ------- --<br>------- ---------- ------ -- ----- -- ----- -- ---- ------<br>--- ----- --- --- ------ -------- ----- --- ------ ----- --<br>----- bonds ---------- --- --- ------ ------ ---- -- ------<br>------- --- ------ ----- --- ---- ------- -- ---- --- --<br>------- ------,228468.10000002384,228466.39999997616,228070.276,228071.30000007153,228087.027,228492.654,,34,bonds
screen,html.Screen,2_1_1_1_35,2022-05-09T11:46:24.751Z,,,,,,,,,,,,,,,,,54,,,,,,,,,,,,,,400.9460000238323,,response,,,,100,,,,,,,Space,keypress(Space),,,,,,,,"-- --- ---- --- ------ ----- ------- ---- -- --- ------- --<br>------- ---------- ------ -- ----- -- ----- -- ---- ------<br>--- ----- --- --- ------ -------- ----- --- ------ ----- --<br>----- ----- plummeted, --- --- ------ ------ ---- -- ------<br>------- --- ------ ----- --- ---- ------- -- ---- --- --<br>------- ------",228895.39999997616,228893.60000002384,228453.619,228468.39999997616,228492.654,228903.313,,35,"plummeted,"
screen,html.Screen,2_1_1_1_36,2022-05-09T11:46:25.299Z,,,,,,,,,,,,,,,,,54,,,,,,,,,,,,,,538.1870000000054,,response,,,,100,,,,,,,Space,keypress(Space),,,,,,,,-- --- ---- --- ------ ----- ------- ---- -- --- ------- --<br>------- ---------- ------ -- ----- -- ----- -- ---- ------<br>--- ----- --- --- ------ -------- ----- --- ------ ----- --<br>----- ----- ---------- and --- ------ ------ ---- -- ------<br>------- --- ------ ----- --- ---- ------- -- ---- --- --<br>------- ------,229443.39999997616,229441.5,228886.706,228895.80000007153,228903.313,229453.246,,36,and
screen,html.Screen,2_1_1_1_37,2022-05-09T11:46:25.687Z,,,,,,,,,,,,,,,,,54,,,,,,,,,,,,,,375.95400004767,,response,,,,100,,,,,,,Space,keypress(Space),,,,,,,,-- --- ---- --- ------ ----- ------- ---- -- --- ------- --<br>------- ---------- ------ -- ----- -- ----- -- ---- ------<br>--- ----- --- --- ------ -------- ----- --- ------ ----- --<br>----- ----- ---------- --- the ------ ------ ---- -- ------<br>------- --- ------ ----- --- ---- ------- -- ---- --- --<br>------- ------,229831.39999997616,229829.20000004768,229437.117,229443.80000007153,229453.246,229836.581,,37,the
screen,html.Screen,2_1_1_1_38,2022-05-09T11:46:26.040Z,,,,,,,,,,,,,,,,,54,,,,,,,,,,,,,,345.31899997615255,,response,,,,100,,,,,,,Space,keypress(Space),,,,,,,,-- --- ---- --- ------ ----- ------- ---- -- --- ------- --<br>------- ---------- ------ -- ----- -- ----- -- ---- ------<br>--- ----- --- --- ------ -------- ----- --- ------ ----- --<br>----- ----- ---------- --- --- market ------ ---- -- ------<br>------- --- ------ ----- --- ---- ------- -- ---- --- --<br>------- ------,230183.5,230181.89999997616,229820.322,229831.89999997616,229836.581,230186.525,,38,market
screen,html.Screen,2_1_1_1_39,2022-05-09T11:46:26.387Z,,,,,,,,,,,,,,,,,54,,,,,,,,,,,,,,342.2750000715314,,response,,,,100,,,,,,,Space,keypress(Space),,,,,,,,-- --- ---- --- ------ ----- ------- ---- -- --- ------- --<br>------- ---------- ------ -- ----- -- ----- -- ---- ------<br>--- ----- --- --- ------ -------- ----- --- ------ ----- --<br>----- ----- ---------- --- --- ------ became ---- -- ------<br>------- --- ------ ----- --- ---- ------- -- ---- --- --<br>------- ------,230530.70000004768,230528.80000007153,230170.267,230183.89999997616,230186.525,230536.399,,39,became
screen,html.Screen,2_1_1_1_40,2022-05-09T11:46:26.764Z,,,,,,,,,,,,,,,,,54,,,,,,,,,,,,,,369.9010000715207,,response,,,,100,,,,,,,Space,keypress(Space),,,,,,,,-- --- ---- --- ------ ----- ------- ---- -- --- ------- --<br>------- ---------- ------ -- ----- -- ----- -- ---- ------<br>--- ----- --- --- ------ -------- ----- --- ------ ----- --<br>----- ----- ---------- --- --- ------ ------ wary -- ------<br>------- --- ------ ----- --- ---- ------- -- ---- --- --<br>------- ------,230908.30000007153,230906.30000007153,230520.338,230531,230536.399,230919.742,,40,wary
screen,html.Screen,2_1_1_1_41,2022-05-09T11:46:27.162Z,,,,,,,,,,,,,,,,,54,,,,,,,,,,,,,,384.0580000715272,,response,,,,100,,,,,,,Space,keypress(Space),,,,,,,,-- --- ---- --- ------ ----- ------- ---- -- --- ------- --<br>------- ---------- ------ -- ----- -- ----- -- ---- ------<br>--- ----- --- --- ------ -------- ----- --- ------ ----- --<br>----- ----- ---------- --- --- ------ ------ ---- of ------<br>------- --- ------ ----- --- ---- ------- -- ---- --- --<br>------- ------,231305.5,231303.80000007153,230903.527,230908.70000004768,230919.742,231319.693,,41,of
screen,html.Screen,2_1_1_1_42,2022-05-09T11:46:27.606Z,,,,,,,,,,,,,,,,,54,,,,,,,,,,,,,,427.6070000715263,,response,,,,100,,,,,,,Space,keypress(Space),,,,,,,,-- --- ---- --- ------ ----- ------- ---- -- --- ------- --<br>------- ---------- ------ -- ----- -- ----- -- ---- ------<br>--- ----- --- --- ------ -------- ----- --- ------ ----- --<br>----- ----- ---------- --- --- ------ ------ ---- -- French<br>------- --- ------ ----- --- ---- ------- -- ---- --- --<br>------- ------,231749.5,231747.30000007153,231303.493,231305.80000007153,231319.693,231752.998,,42,French
screen,html.Screen,2_1_1_1_43,2022-05-09T11:46:28.043Z,,,,,,,,,,,,,,,,,54,,,,,,,,,,,,,,432.10200002384954,,response,,,,100,,,,,,,Space,keypress(Space),,,,,,,,-- --- ---- --- ------ ----- ------- ---- -- --- ------- --<br>------- ---------- ------ -- ----- -- ----- -- ---- ------<br>--- ----- --- --- ------ -------- ----- --- ------ ----- --<br>----- ----- ---------- --- --- ------ ------ ---- -- ------<br>credit. --- ------ ----- --- ---- ------- -- ---- --- --<br>------- ------,232186.89999997616,232185.10000002384,231736.945,231750,231752.998,232203.288,,43,credit.
screen,html.Screen,2_1_1_1_44,2022-05-09T11:46:28.611Z,,,,,,,,,,,,,,,,,54,,,,,,,,,,,,,,549.8120000238414,,response,,,,100,,,,,,,Space,keypress(Space),,,,,,,,-- --- ---- --- ------ ----- ------- ---- -- --- ------- --<br>------- ---------- ------ -- ----- -- ----- -- ---- ------<br>--- ----- --- --- ------ -------- ----- --- ------ ----- --<br>----- ----- ---------- --- --- ------ ------ ---- -- ------<br>------- The ------ ----- --- ---- ------- -- ---- --- --<br>------- ------,232754.80000007153,232753.10000002384,232186.701,232187.20000004768,232203.288,232769.565,,44,The
screen,html.Screen,2_1_1_1_45,2022-05-09T11:46:29.010Z,,,,,,,,,,,,,,,,,54,,,,,,,,,,,,,,381.9349999999977,,response,,,,100,,,,,,,Space,keypress(Space),,,,,,,,-- --- ---- --- ------ ----- ------- ---- -- --- ------- --<br>------- ---------- ------ -- ----- -- ----- -- ---- ------<br>--- ----- --- --- ------ -------- ----- --- ------ ----- --<br>----- ----- ---------- --- --- ------ ------ ---- -- ------<br>------- --- French ----- --- ---- ------- -- ---- --- --<br>------- ------,233153.60000002384,233151.5,232753.47,232755.20000004768,232769.565,233169.75,,45,French
screen,html.Screen,2_1_1_1_46,2022-05-09T11:46:29.357Z,,,,,,,,,,,,,,,,,54,,,,,,,,,,,,,,329.4500000476837,,response,,,,100,,,,,,,Space,keypress(Space),,,,,,,,-- --- ---- --- ------ ----- ------- ---- -- --- ------- --<br>------- ---------- ------ -- ----- -- ----- -- ---- ------<br>--- ----- --- --- ------ -------- ----- --- ------ ----- --<br>----- ----- ---------- --- --- ------ ------ ---- -- ------<br>------- --- ------ state --- ---- ------- -- ---- --- --<br>------- ------,233500.80000007153,233499.20000004768,233153.082,233153.89999997616,233169.75,233534.242,,46,state
screen,html.Screen,2_1_1_1_47,2022-05-09T11:46:29.723Z,,,,,,,,,,,,,,,,,54,,,,,,,,,,,,,,331.3580000238435,,response,,,,100,,,,,,,Space,keypress(Space),,,,,,,,-- --- ---- --- ------ ----- ------- ---- -- --- ------- --<br>------- ---------- ------ -- ----- -- ----- -- ---- ------<br>--- ----- --- --- ------ -------- ----- --- ------ ----- --<br>----- ----- ---------- --- --- ------ ------ ---- -- ------<br>------- --- ------ ----- was ---- ------- -- ---- --- --<br>------- ------,233867.39999997616,233865.60000002384,233486.51,233501.20000004768,233534.242,233895.926,,47,was
screen,html.Screen,2_1_1_1_48,2022-05-09T11:46:30.098Z,,,,,,,,,,,,,,,,,54,,,,,,,,,,,,,,344.1740000238351,,response,,,,100,,,,,,,Space,keypress(Space),,,,,,,,-- --- ---- --- ------ ----- ------- ---- -- --- ------- --<br>------- ---------- ------ -- ----- -- ----- -- ---- ------<br>--- ----- --- --- ------ -------- ----- --- ------ ----- --<br>----- ----- ---------- --- --- ------ ------ ---- -- ------<br>------- --- ------ ----- --- left ------- -- ---- --- --<br>------- ------,234242,234240.10000002384,233853.205,233867.70000004768,233895.926,234252.655,,48,left
screen,html.Screen,2_1_1_1_49,2022-05-09T11:46:30.464Z,,,,,,,,,,,,,,,,,54,,,,,,,,,,,,,,353.34500000000116,,response,,,,100,,,,,,,Space,keypress(Space),,,,,,,,-- --- ---- --- ------ ----- ------- ---- -- --- ------- --<br>------- ---------- ------ -- ----- -- ----- -- ---- ------<br>--- ----- --- --- ------ -------- ----- --- ------ ----- --<br>----- ----- ---------- --- --- ------ ------ ---- -- ------<br>------- --- ------ ----- --- ---- without -- ---- --- --<br>------- ------,234607.80000007153,234606,234236.568,234242.30000007153,234252.655,234619.298,,49,without
screen,html.Screen,2_1_1_1_50,2022-05-09T11:46:30.851Z,,,,,,,,,,,,,,,,,54,,,,,,,,,,,,,,374.10199997614836,,response,,,,100,,,,,,,Space,keypress(Space),,,,,,,,-- --- ---- --- ------ ----- ------- ---- -- --- ------- --<br>------- ---------- ------ -- ----- -- ----- -- ---- ------<br>--- ----- --- --- ------ -------- ----- --- ------ ----- --<br>----- ----- ---------- --- --- ------ ------ ---- -- ------<br>------- --- ------ ----- --- ---- ------- an ---- --- --<br>------- ------,234995,234993.39999997616,234603.047,234608.10000002384,234619.298,235002.563,,50,an
screen,html.Screen,2_1_1_1_51,2022-05-09T11:46:31.208Z,,,,,,,,,,,,,,,,,54,,,,,,,,,,,,,,347.13700004768907,,response,,,,100,,,,,,,Space,keypress(Space),,,,,,,,-- --- ---- --- ------ ----- ------- ---- -- --- ------- --<br>------- ---------- ------ -- ----- -- ----- -- ---- ------<br>--- ----- --- --- ------ -------- ----- --- ------ ----- --<br>----- ----- ---------- --- --- ------ ------ ---- -- ------<br>------- --- ------ ----- --- ---- ------- -- easy --- --<br>------- ------,235351.5,235349.70000004768,234986.473,234995.30000007153,235002.563,235386.324,,51,easy
screen,html.Screen,2_1_1_1_52,2022-05-09T11:46:31.551Z,,,,,,,,,,,,,,,,,54,,,,,,,,,,,,,,306.7760000238486,,response,,,,100,,,,,,,Space,keypress(Space),,,,,,,,-- --- ---- --- ------ ----- ------- ---- -- --- ------- --<br>------- ---------- ------ -- ----- -- ----- -- ---- ------<br>--- ----- --- --- ------ -------- ----- --- ------ ----- --<br>----- ----- ---------- --- --- ------ ------ ---- -- ------<br>------- --- ------ ----- --- ---- ------- -- ---- way --<br>------- ------,235694.80000007153,235693.10000002384,235369.719,235351.80000007153,235386.324,235702.493,,52,way
screen,html.Screen,2_1_1_1_53,2022-05-09T11:46:31.928Z,,,,,,,,,,,,,,,,,54,,,,,,,,,,,,,,367.1070000238542,,response,,,,100,,,,,,,Space,keypress(Space),,,,,,,,-- --- ---- --- ------ ----- ------- ---- -- --- ------- --<br>------- ---------- ------ -- ----- -- ----- -- ---- ------<br>--- ----- --- --- ------ -------- ----- --- ------ ----- --<br>----- ----- ---------- --- --- ------ ------ ---- -- ------<br>------- --- ------ ----- --- ---- ------- -- ---- --- of<br>------- ------,236071.60000002384,236069.60000002384,235686.427,235695.20000004768,235702.493,236086.121,,53,of
screen,html.Screen,2_1_1_1_54,2022-05-09T11:46:32.365Z,,,,,,,,,,,,,,,,,54,,,,,,,,,,,,,,420.87899999998626,,response,,,,100,,,,,,,Space,keypress(Space),,,,,,,,-- --- ---- --- ------ ----- ------- ---- -- --- ------- --<br>------- ---------- ------ -- ----- -- ----- -- ---- ------<br>--- ----- --- --- ------ -------- ----- --- ------ ----- --<br>----- ----- ---------- --- --- ------ ------ ---- -- ------<br>------- --- ------ ----- --- ---- ------- -- ---- --- --<br>raising ------,236508.70000004768,236507,236069.692,236072,236086.121,236519.1,,54,raising
screen,html.Screen,2_1_1_1_55,2022-05-09T11:46:33.078Z,,,,,,,,,,,,,,,,,54,,,,,,,,,,,,,,700.7000000715198,,response,,,,100,,,,,,,Space,keypress(Space),,,,,,,,-- --- ---- --- ------ ----- ------- ---- -- --- ------- --<br>------- ---------- ------ -- ----- -- ----- -- ---- ------<br>--- ----- --- --- ------ -------- ----- --- ------ ----- --<br>----- ----- ---------- --- --- ------ ------ ---- -- ------<br>------- --- ------ ----- --- ---- ------- -- ---- --- --<br>------- money.,237221.89999997616,237219.80000007153,236502.829,236509.10000002384,236519.1,237236.104,,55,money.
Item 100,flow.Loop,2_1_1_1,2022-05-09T11:46:33.079Z,,,,,,,,,,,,,,,,,,,,,,,,,,,,,,,24947.63100007153,,completion,,,,,D,,,,,,,,,,,silence,,,,,237222.5,237219.80000007153,212256.046,212257.89999997616,212272.169,237236.104,,,
Question 1,html.Screen,2_1_1_2,2022-05-09T11:46:36.372Z,,,,,,,,,,,,,,,,,,,,,,,,,,,,true,TRUE,,3276.396000000008,,response,,,,100,D,,,,,,TRUE,click #choice-1,,,,silence,,,,,240515.5,240512.5,237219.25,237222.80000007153,237236.104,240518.506,,,
Question 2,html.Screen,2_1_1_3,2022-05-09T11:46:39.768Z,,,,,,,,,,,,,,,,,,,,,,,,,,,,true,FALSE,,3389.094000023848,,response,,,,100,D,,,,,,FALSE,click #choice-2,,,,silence,,,,,243911.70000004768,243907.60000002384,240502.207,240515.89999997616,240518.506,243918.101,,,
Item 100,flow.Sequence,2_1_1,2022-05-09T11:46:39.769Z,,,,,,,,,,,,,,,,,,,,,,,,,,,,,,,41634.15700002384,,completion,,,,,,,,,,,,,,,,,,,,,243912.89999997616,243907.60000002384,202223.882,202239.80000007153,202273.443,243918.101,,,
End of Practice,html.Page,2_1_2,2022-05-09T11:46:46.583Z,,,,,,,,,,,,,,,,,,,,,,,,,,,,,,,6808.298999976163,,form submission,,,,,,,,,,,,,,,,,,,,,250727.10000002384,250726.39999997616,243901.455,243913.60000002384,243918.101,250733.859,,,
Practice,flow.Sequence,2_1,2022-05-09T11:46:46.584Z,,,,,,,,,,,,,,,,,,,,,,,,,,,,,,,98646.46399997617,,completion,,,,,,,,,,,,,,,,,,,,,250727.70000004768,250726.39999997616,152046.873,152052.70000004768,152079.936,250733.859,,,
Trap_instruction,html.Page,2_2_0,2022-05-09T11:46:51.422Z,,,,,,,,,,,,,,,,,,,,,,,,,,,,,,,4831.341000047687,,form submission,,,,,,,,,,,,,,,,,,,,,255566.20000004768,255565.20000004768,250717.625,250728.10000002384,250733.859,255616.477,,,
trap_trial,html.Screen,2_2_1,2022-05-09T11:46:55.895Z,,,,,,,,,,,,,,,,,,,,,,,,,,,,true,1,,4417.922999976145,,response,,,,,,,,,,,1,click #choice-1,,,,,,,,,260039,260034.39999997616,255550.322,255567.60000002384,255616.477,260049.339,,,
end of trap trial,html.Page,2_2_2,2022-05-09T11:46:59.011Z,,,,,,,,,,,,,,,,,,,,,,,,,,,,,,,3104.3610000476765,,form submission,,,,,,,,,,,,,,,,,,,,,263154.8000000715,263153.7000000477,260032.886,260039.39999997616,260049.339,263165.584,,,
Trap 1,flow.Sequence,2_2,2022-05-09T11:46:59.012Z,,,,,,,,,,,,,,,,,,,,,,,,,,,,,,,12419.841000047687,,completion,,,,,,,,,,,,,,,,,,,,,263156,263153.7000000477,250717.625,250728,250733.859,263165.584,,,
Standby,html.Page,2_3_0,2022-05-09T11:47:07.006Z,,,,,,,,,,,,,,,,,,,,,,,,,,,,,,,7998.996000000043,,timeout,,,,,,,,,,,,,,,,,,,,,271149.8000000715,271148.051,263148.973,263156.7000000477,263165.584,271164.58,,,
Holding screen,html.Screen,2_3_1_0_0,2022-05-09T11:47:14.005Z,,,,,,,,,,,,,,,,,,,,,,,,,,,,,,,6999.119999999995,,timeout,,,,,,,,,,,,,,,,,,,,,278149,278147.025,271148.051,271150.5,271164.58,278163.7,,,
screen,html.Screen,2_3_1_0_1_0,2022-05-09T11:47:16.606Z,,,,,,,,,,,,,,,,,40,,,,,,,,,,,,,,2583.7999999999884,,response,,,,9,D,,,,,,Space,keypress(Space),,,,speech,,,,Police -- ------- ---- ---- ---- - -------- ----- --- --<br>----- ----- ------ -- ---- -- --- - ---- -- - ----- -----<br>------ ---- ------ ---- - -------- ------- -- --- --------<br>-------- ----------- ---- ------ ---- ------ ---- --- ---<br>-------- --- -----,280749.89999997616,280747.5,278147.025,278149.60000002384,278163.7,280763.292,,0,Police
screen,html.Screen,2_3_1_0_1_1,2022-05-09T11:47:17.078Z,,,,,,,,,,,,,,,,,40,,,,,,,,,,,,,,457.00800007150974,,response,,,,9,D,,,,,,Space,keypress(Space),,,,speech,,,,------ in ------- ---- ---- ---- - -------- ----- --- --<br>----- ----- ------ -- ---- -- --- - ---- -- - ----- -----<br>------ ---- ------ ---- - -------- ------- -- --- --------<br>-------- ----------- ---- ------ ---- ------ ---- --- ---<br>-------- --- -----,281222,281220.3000000715,280746.581,280750.3000000715,280763.292,281229.912,,1,in
screen,html.Screen,2_3_1_0_1_2,2022-05-09T11:47:17.882Z,,,,,,,,,,,,,,,,,40,,,,,,,,,,,,,,794.7880000476725,,response,,,,9,D,,,,,,Space,keypress(Space),,,,speech,,,,------ -- Georgia ---- ---- ---- - -------- ----- --- --<br>----- ----- ------ -- ---- -- --- - ---- -- - ----- -----<br>------ ---- ------ ---- - -------- ------- -- --- --------<br>-------- ----------- ---- ------ ---- ------ ---- --- ---<br>-------- --- -----,282026.60000002384,282024.7000000477,281213.754,281222.3000000715,281229.912,282029.823,,2,Georgia
screen,html.Screen,2_3_1_0_1_3,2022-05-09T11:47:18.381Z,,,,,,,,,,,,,,,,,40,,,,,,,,,,,,,,493.5769999761833,,response,,,,9,D,,,,,,Space,keypress(Space),,,,speech,,,,------ -- ------- have ---- ---- - -------- ----- --- --<br>----- ----- ------ -- ---- -- --- - ---- -- - ----- -----<br>------ ---- ------ ---- - -------- ------- -- --- --------<br>-------- ----------- ---- ------ ---- ------ ---- --- ---<br>-------- --- -----,282524.89999997616,282523.39999997616,282013.629,282027.2000000477,282029.823,282529.758,,3,have
screen,html.Screen,2_3_1_0_1_4,2022-05-09T11:47:18.959Z,,,,,,,,,,,,,,,,,40,,,,,,,,,,,,,,571.8420000238693,,response,,,,9,D,,,,,,Space,keypress(Space),,,,speech,,,,------ -- ------- ---- shut ---- - -------- ----- --- --<br>----- ----- ------ -- ---- -- --- - ---- -- - ----- -----<br>------ ---- ------ ---- - -------- ------- -- --- --------<br>-------- ----------- ---- ------ ---- ------ ---- --- ---<br>-------- --- -----,283103.3000000715,283101.60000002384,282513.523,282525.3000000715,282529.758,283112.991,,4,shut
screen,html.Screen,2_3_1_0_1_5,2022-05-09T11:47:19.366Z,,,,,,,,,,,,,,,,,40,,,,,,,,,,,,,,395.1090000238619,,response,,,,9,D,,,,,,Space,keypress(Space),,,,speech,,,,------ -- ------- ---- ---- down - -------- ----- --- --<br>----- ----- ------ -- ---- -- --- - ---- -- - ----- -----<br>------ ---- ------ ---- - -------- ------- -- --- --------<br>-------- ----------- ---- ------ ---- ------ ---- --- ---<br>-------- --- -----,283509.7000000477,283508.10000002384,283096.808,283103.7000000477,283112.991,283512.978,,5,down
screen,html.Screen,2_3_1_0_1_6,2022-05-09T11:47:19.723Z,,,,,,,,,,,,,,,,,40,,,,,,,,,,,,,,352.3220000715228,,response,,,,9,D,,,,,,Space,keypress(Space),,,,speech,,,,------ -- ------- ---- ---- ---- a -------- ----- --- --<br>----- ----- ------ -- ---- -- --- - ---- -- - ----- -----<br>------ ---- ------ ---- - -------- ------- -- --- --------<br>-------- ----------- ---- ------ ---- ------ ---- --- ---<br>-------- --- -----,283867.10000002384,283865.3000000715,283496.328,283510.2000000477,283512.978,283879.605,,6,a
screen,html.Screen,2_3_1_0_1_7,2022-05-09T11:47:20.159Z,,,,,,,,,,,,,,,,,40,,,,,,,,,,,,,,422.3950000000186,,response,,,,9,D,,,,,,Space,keypress(Space),,,,speech,,,,------ -- ------- ---- ---- ---- - lemonade ----- --- --<br>----- ----- ------ -- ---- -- --- - ---- -- - ----- -----<br>------ ---- ------ ---- - -------- ------- -- --- --------<br>-------- ----------- ---- ------ ---- ------ ---- --- ---<br>-------- --- -----,284303.7000000477,284302,283862.929,283867.7000000477,283879.605,284312.879,,7,lemonade
screen,html.Screen,2_3_1_0_1_8,2022-05-09T11:47:20.647Z,,,,,,,,,,,,,,,,,40,,,,,,,,,,,,,,476.2210000238265,,response,,,,9,D,,,,,,Space,keypress(Space),,,,speech,,,,------ -- ------- ---- ---- ---- - -------- stand --- --<br>----- ----- ------ -- ---- -- --- - ---- -- - ----- -----<br>------ ---- ------ ---- - -------- ------- -- --- --------<br>-------- ----------- ---- ------ ---- ------ ---- --- ---<br>-------- --- -----,284790.89999997616,284789.10000002384,284296.592,284304,284312.879,284796.292,,8,stand
screen,html.Screen,2_3_1_0_1_9,2022-05-09T11:47:21.011Z,,,,,,,,,,,,,,,,,40,,,,,,,,,,,,,,357.308000023826,,response,,,,9,D,,,,,,Space,keypress(Space),,,,speech,,,,------ -- ------- ---- ---- ---- - -------- ----- run --<br>----- ----- ------ -- ---- -- --- - ---- -- - ----- -----<br>------ ---- ------ ---- - -------- ------- -- --- --------<br>-------- ----------- ---- ------ ---- ------ ---- --- ---<br>-------- --- -----,285155.2000000477,285153.60000002384,284779.491,284791.39999997616,284796.292,285162.748,,9,run
screen,html.Screen,2_3_1_0_1_10,2022-05-09T11:47:21.358Z,,,,,,,,,,,,,,,,,40,,,,,,,,,,,,,,337.4520000476623,,response,,,,9,D,,,,,,Space,keypress(Space),,,,speech,,,,------ -- ------- ---- ---- ---- - -------- ----- --- by<br>----- ----- ------ -- ---- -- --- - ---- -- - ----- -----<br>------ ---- ------ ---- - -------- ------- -- --- --------<br>-------- ----------- ---- ------ ---- ------ ---- --- ---<br>-------- --- -----,285502.3000000715,285500.2000000477,285146.607,285155.60000002384,285162.748,285512.691,,10,by
screen,html.Screen,2_3_1_0_1_11,2022-05-09T11:47:21.775Z,,,,,,,,,,,,,,,,,40,,,,,,,,,,,,,,405.0090000476921,,response,,,,9,D,,,,,,Space,keypress(Space),,,,speech,,,,------ -- ------- ---- ---- ---- - -------- ----- --- --<br>three ----- ------ -- ---- -- --- - ---- -- - ----- -----<br>------ ---- ------ ---- - -------- ------- -- --- --------<br>-------- ----------- ---- ------ ---- ------ ---- --- ---<br>-------- --- -----,285919.39999997616,285917.7000000477,285496.163,285502.8000000715,285512.691,285929.303,,11,three
screen,html.Screen,2_3_1_0_1_12,2022-05-09T11:47:22.395Z,,,,,,,,,,,,,,,,,40,,,,,,,,,,,,,,607.5969999761437,,response,,,,9,D,,,,,,Space,keypress(Space),,,,speech,,,,------ -- ------- ---- ---- ---- - -------- ----- --- --<br>----- girls ------ -- ---- -- --- - ---- -- - ----- -----<br>------ ---- ------ ---- - -------- ------- -- --- --------<br>-------- ----------- ---- ------ ---- ------ ---- --- ---<br>-------- --- -----,286538.8000000715,286536.89999997616,285912.717,285919.8000000715,285929.303,286545.87,,12,girls
screen,html.Screen,2_3_1_0_1_13,2022-05-09T11:47:22.791Z,,,,,,,,,,,,,,,,,40,,,,,,,,,,,,,,387.8300000476884,,response,,,,9,D,,,,,,Space,keypress(Space),,,,speech,,,,------ -- ------- ---- ---- ---- - -------- ----- --- --<br>----- ----- trying -- ---- -- --- - ---- -- - ----- -----<br>------ ---- ------ ---- - -------- ------- -- --- --------<br>-------- ----------- ---- ------ ---- ------ ---- --- ---<br>-------- --- -----,286935.39999997616,286933.7000000477,286529.754,286539.3000000715,286545.87,286945.828,,13,trying
screen,html.Screen,2_3_1_0_1_14,2022-05-09T11:47:23.145Z,,,,,,,,,,,,,,,,,40,,,,,,,,,,,,,,341.3720000477042,,response,,,,9,D,,,,,,Space,keypress(Space),,,,speech,,,,------ -- ------- ---- ---- ---- - -------- ----- --- --<br>----- ----- ------ to ---- -- --- - ---- -- - ----- -----<br>------ ---- ------ ---- - -------- ------- -- --- --------<br>-------- ----------- ---- ------ ---- ------ ---- --- ---<br>-------- --- -----,287289,287287.2000000477,286929.183,286935.8000000715,286945.828,287295.813,,14,to
screen,html.Screen,2_3_1_0_1_15,2022-05-09T11:47:23.482Z,,,,,,,,,,,,,,,,,40,,,,,,,,,,,,,,328.68699999997625,,response,,,,9,D,,,,,,Space,keypress(Space),,,,speech,,,,------ -- ------- ---- ---- ---- - -------- ----- --- --<br>----- ----- ------ -- save -- --- - ---- -- - ----- -----<br>------ ---- ------ ---- - -------- ------- -- --- --------<br>-------- ----------- ---- ------ ---- ------ ---- --- ---<br>-------- --- -----,287626.5,287624.5,287279.423,287289.39999997616,287295.813,287665.976,,15,save
screen,html.Screen,2_3_1_0_1_16,2022-05-09T11:47:23.868Z,,,,,,,,,,,,,,,,,40,,,,,,,,,,,,,,344.62400002381764,,response,,,,9,D,,,,,,Space,keypress(Space),,,,speech,,,,------ -- ------- ---- ---- ---- - -------- ----- --- --<br>----- ----- ------ -- ---- up --- - ---- -- - ----- -----<br>------ ---- ------ ---- - -------- ------- -- --- --------<br>-------- ----------- ---- ------ ---- ------ ---- --- ---<br>-------- --- -----,288012.3000000715,288010.60000002384,287612.638,287627.2000000477,287665.976,288029.127,,16,up
screen,html.Screen,2_3_1_0_1_17,2022-05-09T11:47:24.215Z,,,,,,,,,,,,,,,,,40,,,,,,,,,,,,,,328.57300004770514,,response,,,,9,D,,,,,,Space,keypress(Space),,,,speech,,,,------ -- ------- ---- ---- ---- - -------- ----- --- --<br>----- ----- ------ -- ---- -- for - ---- -- - ----- -----<br>------ ---- ------ ---- - -------- ------- -- --- --------<br>-------- ----------- ---- ------ ---- ------ ---- --- ---<br>-------- --- -----,288359.39999997616,288357.7000000477,288012.504,288012.7000000477,288029.127,288362.302,,17,for
screen,html.Screen,2_3_1_0_1_18,2022-05-09T11:47:24.539Z,,,,,,,,,,,,,,,,,40,,,,,,,,,,,,,,318.69799999997485,,response,,,,9,D,,,,,,Space,keypress(Space),,,,speech,,,,------ -- ------- ---- ---- ---- - -------- ----- --- --<br>----- ----- ------ -- ---- -- --- a ---- -- - ----- -----<br>------ ---- ------ ---- - -------- ------- -- --- --------<br>-------- ----------- ---- ------ ---- ------ ---- --- ---<br>-------- --- -----,288682.8000000715,288681,288346.152,288359.8000000715,288362.302,288695.633,,18,a
screen,html.Screen,2_3_1_0_1_19,2022-05-09T11:47:24.905Z,,,,,,,,,,,,,,,,,40,,,,,,,,,,,,,,352.0670000477112,,response,,,,9,D,,,,,,Space,keypress(Space),,,,speech,,,,------ -- ------- ---- ---- ---- - -------- ----- --- --<br>----- ----- ------ -- ---- -- --- - trip -- - ----- -----<br>------ ---- ------ ---- - -------- ------- -- --- --------<br>-------- ----------- ---- ------ ---- ------ ---- --- ---<br>-------- --- -----,289049.39999997616,289047.7000000477,288679.025,288683.2000000477,288695.633,289062.306,,19,trip
screen,html.Screen,2_3_1_0_1_20,2022-05-09T11:47:25.263Z,,,,,,,,,,,,,,,,,40,,,,,,,,,,,,,,342.29400002385955,,response,,,,9,D,,,,,,Space,keypress(Space),,,,speech,,,,------ -- ------- ---- ---- ---- - -------- ----- --- --<br>----- ----- ------ -- ---- -- --- - ---- to - ----- -----<br>------ ---- ------ ---- - -------- ------- -- --- --------<br>-------- ----------- ---- ------ ---- ------ ---- --- ---<br>-------- --- -----,289406.8000000715,289404.60000002384,289045.798,289049.8000000715,289062.306,289412.22,,20,to
screen,html.Screen,2_3_1_0_1_21,2022-05-09T11:47:25.526Z,,,,,,,,,,,,,,,,,40,,,,,,,,,,,,,,254.78000000002794,,response,,,,9,D,,,,,,Space,keypress(Space),,,,speech,,,,------ -- ------- ---- ---- ---- - -------- ----- --- --<br>----- ----- ------ -- ---- -- --- - ---- -- a ----- -----<br>------ ---- ------ ---- - -------- ------- -- --- --------<br>-------- ----------- ---- ------ ---- ------ ---- --- ---<br>-------- --- -----,289669.7000000477,289667,289395.862,289407.3000000715,289412.22,289678.841,,21,a
screen,html.Screen,2_3_1_0_1_22,2022-05-09T11:47:25.871Z,,,,,,,,,,,,,,,,,40,,,,,,,,,,,,,,334.75900002382696,,response,,,,9,D,,,,,,Space,keypress(Space),,,,speech,,,,------ -- ------- ---- ---- ---- - -------- ----- --- --<br>----- ----- ------ -- ---- -- --- - ---- -- - water -----<br>------ ---- ------ ---- - -------- ------- -- --- --------<br>-------- ----------- ---- ------ ---- ------ ---- --- ---<br>-------- --- -----,290015.3000000715,290013.60000002384,289662.825,289670.3000000715,289678.841,290029.044,,22,water
screen,html.Screen,2_3_1_0_1_23,2022-05-09T11:47:26.289Z,,,,,,,,,,,,,,,,,40,,,,,,,,,,,,,,402.4560000000056,,response,,,,9,D,,,,,,Space,keypress(Space),,,,speech,,,,"------ -- ------- ---- ---- ---- - -------- ----- --- --<br>----- ----- ------ -- ---- -- --- - ---- -- - ----- park,<br>------ ---- ------ ---- - -------- ------- -- --- --------<br>-------- ----------- ---- ------ ---- ------ ---- --- ---<br>-------- --- -----",290433.2000000477,290431.5,290012.573,290015.7000000477,290029.044,290445.401,,23,"park,"
screen,html.Screen,2_3_1_0_1_24,2022-05-09T11:47:27.142Z,,,,,,,,,,,,,,,,,40,,,,,,,,,,,,,,838.6990000238293,,response,,,,9,D,,,,,,Space,keypress(Space),,,,speech,,,,------ -- ------- ---- ---- ---- - -------- ----- --- --<br>----- ----- ------ -- ---- -- --- - ---- -- - ----- -----<br>saying ---- ------ ---- - -------- ------- -- --- --------<br>-------- ----------- ---- ------ ---- ------ ---- --- ---<br>-------- --- -----,291286.10000002384,291284.10000002384,290429.158,290433.60000002384,290445.401,291295.318,,24,saying
screen,html.Screen,2_3_1_0_1_25,2022-05-09T11:47:27.548Z,,,,,,,,,,,,,,,,,40,,,,,,,,,,,,,,394.98200007149717,,response,,,,9,D,,,,,,Space,keypress(Space),,,,speech,,,,------ -- ------- ---- ---- ---- - -------- ----- --- --<br>----- ----- ------ -- ---- -- --- - ---- -- - ----- -----<br>------ they ------ ---- - -------- ------- -- --- --------<br>-------- ----------- ---- ------ ---- ------ ---- --- ---<br>-------- --- -----,291692.10000002384,291690.3000000715,291278.775,291286.60000002384,291295.318,291695.258,,25,they
screen,html.Screen,2_3_1_0_1_26,2022-05-09T11:47:27.875Z,,,,,,,,,,,,,,,,,40,,,,,,,,,,,,,,321.9420000477112,,response,,,,9,D,,,,,,Space,keypress(Space),,,,speech,,,,------ -- ------- ---- ---- ---- - -------- ----- --- --<br>----- ----- ------ -- ---- -- --- - ---- -- - ----- -----<br>------ ---- didn't ---- - -------- ------- -- --- --------<br>-------- ----------- ---- ------ ---- ------ ---- --- ---<br>-------- --- -----,292019.10000002384,292017.2000000477,291678.728,291692.5,291695.258,292028.545,,26,didn't
screen,html.Screen,2_3_1_0_1_27,2022-05-09T11:47:28.302Z,,,,,,,,,,,,,,,,,40,,,,,,,,,,,,,,415.7550000715419,,response,,,,9,D,,,,,,Space,keypress(Space),,,,speech,,,,------ -- ------- ---- ---- ---- - -------- ----- --- --<br>----- ----- ------ -- ---- -- --- - ---- -- - ----- -----<br>------ ---- ------ have - -------- ------- -- --- --------<br>-------- ----------- ---- ------ ---- ------ ---- --- ---<br>-------- --- -----,292446.3000000715,292444.3000000715,292011.889,292019.5,292028.545,292462.082,,27,have
screen,html.Screen,2_3_1_0_1_28,2022-05-09T11:47:28.665Z,,,,,,,,,,,,,,,,,40,,,,,,,,,,,,,,345.61800004768884,,response,,,,9,D,,,,,,Space,keypress(Space),,,,speech,,,,------ -- ------- ---- ---- ---- - -------- ----- --- --<br>----- ----- ------ -- ---- -- --- - ---- -- - ----- -----<br>------ ---- ------ ---- a -------- ------- -- --- --------<br>-------- ----------- ---- ------ ---- ------ ---- --- ---<br>-------- --- -----,292809.5,292807.7000000477,292445.753,292446.7000000477,292462.082,292845.552,,28,a
screen,html.Screen,2_3_1_0_1_29,2022-05-09T11:47:29.063Z,,,,,,,,,,,,,,,,,40,,,,,,,,,,,,,,359.2480000715004,,response,,,,9,D,,,,,,Space,keypress(Space),,,,speech,,,,------ -- ------- ---- ---- ---- - -------- ----- --- --<br>----- ----- ------ -- ---- -- --- - ---- -- - ----- -----<br>------ ---- ------ ---- - business ------- -- --- --------<br>-------- ----------- ---- ------ ---- ------ ---- --- ---<br>-------- --- -----,293207.3000000715,293204.8000000715,292795.105,292809.89999997616,292845.552,293211.701,,29,business
screen,html.Screen,2_3_1_0_1_30,2022-05-09T11:47:29.479Z,,,,,,,,,,,,,,,,,40,,,,,,,,,,,,,,409.4990000476828,,response,,,,9,D,,,,,,Space,keypress(Space),,,,speech,,,,------ -- ------- ---- ---- ---- - -------- ----- --- --<br>----- ----- ------ -- ---- -- --- - ---- -- - ----- -----<br>------ ---- ------ ---- - -------- license -- --- --------<br>-------- ----------- ---- ------ ---- ------ ---- --- ---<br>-------- --- -----,293623.2000000477,293621.2000000477,293195.154,293207.60000002384,293211.701,293628.304,,30,license
screen,html.Screen,2_3_1_0_1_31,2022-05-09T11:47:29.836Z,,,,,,,,,,,,,,,,,40,,,,,,,,,,,,,,350.39600004768,,response,,,,9,D,,,,,,Space,keypress(Space),,,,speech,,,,------ -- ------- ---- ---- ---- - -------- ----- --- --<br>----- ----- ------ -- ---- -- --- - ---- -- - ----- -----<br>------ ---- ------ ---- - -------- ------- or --- --------<br>-------- ----------- ---- ------ ---- ------ ---- --- ---<br>-------- --- -----,293980.2000000477,293978.7000000477,293612.392,293623.60000002384,293628.304,293995.389,,31,or
screen,html.Screen,2_3_1_0_1_32,2022-05-09T11:47:30.210Z,,,,,,,,,,,,,,,,,40,,,,,,,,,,,,,,357.4110000715009,,response,,,,9,D,,,,,,Space,keypress(Space),,,,speech,,,,------ -- ------- ---- ---- ---- - -------- ----- --- --<br>----- ----- ------ -- ---- -- --- - ---- -- - ----- -----<br>------ ---- ------ ---- - -------- ------- -- the --------<br>-------- ----------- ---- ------ ---- ------ ---- --- ---<br>-------- --- -----,294354.60000002384,294352.8000000715,293978.299,293980.60000002384,293995.389,294361.554,,32,the
screen,html.Screen,2_3_1_0_1_33,2022-05-09T11:47:30.567Z,,,,,,,,,,,,,,,,,40,,,,,,,,,,,,,,348.24600007152185,,response,,,,9,D,,,,,,Space,keypress(Space),,,,speech,,,,------ -- ------- ---- ---- ---- - -------- ----- --- --<br>----- ----- ------ -- ---- -- --- - ---- -- - ----- -----<br>------ ---- ------ ---- - -------- ------- -- --- required<br>-------- ----------- ---- ------ ---- ------ ---- --- ---<br>-------- --- -----,294711.7000000477,294709.8000000715,294344.985,294354.89999997616,294361.554,294728.426,,33,required
screen,html.Screen,2_3_1_0_1_34,2022-05-09T11:47:30.935Z,,,,,,,,,,,,,,,,,40,,,,,,,,,,,,,,348.57400000002235,,response,,,,9,D,,,,,,Space,keypress(Space),,,,speech,,,,------ -- ------- ---- ---- ---- - -------- ----- --- --<br>----- ----- ------ -- ---- -- --- - ---- -- - ----- -----<br>------ ---- ------ ---- - -------- ------- -- --- --------<br>permits. ----------- ---- ------ ---- ------ ---- --- ---<br>-------- --- -----,295078.8000000715,295077,294712.008,294712,294728.426,295094.928,,34,permits.
screen,html.Screen,2_3_1_0_1_35,2022-05-09T11:47:31.382Z,,,,,,,,,,,,,,,,,40,,,,,,,,,,,,,,428.87200007151114,,response,,,,9,D,,,,,,Space,keypress(Space),,,,speech,,,,------ -- ------- ---- ---- ---- - -------- ----- --- --<br>----- ----- ------ -- ---- -- --- - ---- -- - ----- -----<br>------ ---- ------ ---- - -------- ------- -- --- --------<br>-------- Morningstar ---- ------ ---- ------ ---- --- ---<br>-------- --- -----,295525.7000000477,295523.8000000715,295078.555,295079.2000000477,295094.928,295545.263,,35,Morningstar
screen,html.Screen,2_3_1_0_1_36,2022-05-09T11:47:31.839Z,,,,,,,,,,,,,,,,,40,,,,,,,,,,,,,,436.0370000715484,,response,,,,9,D,,,,,,Space,keypress(Space),,,,speech,,,,------ -- ------- ---- ---- ---- - -------- ----- --- --<br>----- ----- ------ -- ---- -- --- - ---- -- - ----- -----<br>------ ---- ------ ---- - -------- ------- -- --- --------<br>-------- ----------- says ------ ---- ------ ---- --- ---<br>-------- --- -----,295983.10000002384,295981.3000000715,295511.571,295526.10000002384,295545.263,295994.647,,36,says
screen,html.Screen,2_3_1_0_1_37,2022-05-09T11:47:32.173Z,,,,,,,,,,,,,,,,,40,,,,,,,,,,,,,,320.25299997616094,,response,,,,9,D,,,,,,Space,keypress(Space),,,,speech,,,,------ -- ------- ---- ---- ---- - -------- ----- --- --<br>----- ----- ------ -- ---- -- --- - ---- -- - ----- -----<br>------ ---- ------ ---- - -------- ------- -- --- --------<br>-------- ----------- ---- police ---- ------ ---- --- ---<br>-------- --- -----,296316.8000000715,296314.89999997616,295978.068,295983.5,295994.647,296327.966,,37,police
screen,html.Screen,2_3_1_0_1_38,2022-05-09T11:47:32.488Z,,,,,,,,,,,,,,,,,40,,,,,,,,,,,,,,302.63400002382696,,response,,,,9,D,,,,,,Space,keypress(Space),,,,speech,,,,------ -- ------- ---- ---- ---- - -------- ----- --- --<br>----- ----- ------ -- ---- -- --- - ---- -- - ----- -----<br>------ ---- ------ ---- - -------- ------- -- --- --------<br>-------- ----------- ---- ------ also ------ ---- --- ---<br>-------- --- -----,296632.39999997616,296630.60000002384,296311.473,296317.10000002384,296327.966,296644.593,,38,also
screen,html.Screen,2_3_1_0_1_39,2022-05-09T11:47:32.986Z,,,,,,,,,,,,,,,,,40,,,,,,,,,,,,,,483.5070000238484,,response,,,,9,D,,,,,,Space,keypress(Space),,,,speech,,,,------ -- ------- ---- ---- ---- - -------- ----- --- --<br>----- ----- ------ -- ---- -- --- - ---- -- - ----- -----<br>------ ---- ------ ---- - -------- ------- -- --- --------<br>-------- ----------- ---- ------ ---- didn't ---- --- ---<br>-------- --- -----,297129.89999997616,297128.10000002384,296628.536,296632.7000000477,296644.593,297144.594,,39,didn't
screen,html.Screen,2_3_1_0_1_40,2022-05-09T11:47:33.365Z,,,,,,,,,,,,,,,,,40,,,,,,,,,,,,,,362.2060000715428,,response,,,,9,D,,,,,,Space,keypress(Space),,,,speech,,,,------ -- ------- ---- ---- ---- - -------- ----- --- --<br>----- ----- ------ -- ---- -- --- - ---- -- - ----- -----<br>------ ---- ------ ---- - -------- ------- -- --- --------<br>-------- ----------- ---- ------ ---- ------ know --- ---<br>-------- --- -----,297509.2000000477,297506.8000000715,297127.915,297130.3000000715,297144.594,297543.942,,40,know
screen,html.Screen,2_3_1_0_1_41,2022-05-09T11:47:33.811Z,,,,,,,,,,,,,,,,,40,,,,,,,,,,,,,,409.7580000477028,,response,,,,9,D,,,,,,Space,keypress(Space),,,,speech,,,,------ -- ------- ---- ---- ---- - -------- ----- --- --<br>----- ----- ------ -- ---- -- --- - ---- -- - ----- -----<br>------ ---- ------ ---- - -------- ------- -- --- --------<br>-------- ----------- ---- ------ ---- ------ ---- how ---<br>-------- --- -----,297955.5,297953.7000000477,297494.511,297509.60000002384,297543.942,297961.086,,41,how
screen,html.Screen,2_3_1_0_1_42,2022-05-09T11:47:34.256Z,,,,,,,,,,,,,,,,,40,,,,,,,,,,,,,,436.91399999998976,,response,,,,9,D,,,,,,Space,keypress(Space),,,,speech,,,,------ -- ------- ---- ---- ---- - -------- ----- --- --<br>----- ----- ------ -- ---- -- --- - ---- -- - ----- -----<br>------ ---- ------ ---- - -------- ------- -- --- --------<br>-------- ----------- ---- ------ ---- ------ ---- --- the<br>-------- --- -----,298400.10000002384,298398,297944.502,297955.89999997616,297961.086,298411.009,,42,the
screen,html.Screen,2_3_1_0_1_43,2022-05-09T11:47:34.724Z,,,,,,,,,,,,,,,,,40,,,,,,,,,,,,,,454.59100002382183,,response,,,,9,D,,,,,,Space,keypress(Space),,,,speech,,,,------ -- ------- ---- ---- ---- - -------- ----- --- --<br>----- ----- ------ -- ---- -- --- - ---- -- - ----- -----<br>------ ---- ------ ---- - -------- ------- -- --- --------<br>-------- ----------- ---- ------ ---- ------ ---- --- ---<br>lemonade --- -----,298868,298865.60000002384,298394.879,298400.60000002384,298411.009,298877.623,,43,lemonade
screen,html.Screen,2_3_1_0_1_44,2022-05-09T11:47:35.183Z,,,,,,,,,,,,,,,,,40,,,,,,,,,,,,,,447.47700002382044,,response,,,,9,D,,,,,,Space,keypress(Space),,,,speech,,,,------ -- ------- ---- ---- ---- - -------- ----- --- --<br>----- ----- ------ -- ---- -- --- - ---- -- - ----- -----<br>------ ---- ------ ---- - -------- ------- -- --- --------<br>-------- ----------- ---- ------ ---- ------ ---- --- ---<br>-------- was -----,299327.60000002384,299325.10000002384,298861.517,298868.39999997616,298877.623,299344.692,,44,was
screen,html.Screen,2_3_1_0_1_45,2022-05-09T11:47:36.270Z,,,,,,,,,,,,,,,,,40,,,,,,,,,,,,,,1067.6080000715447,,response,,,,9,D,,,,,,Space,keypress(Space),,,,speech,,,,------ -- ------- ---- ---- ---- - -------- ----- --- --<br>----- ----- ------ -- ---- -- --- - ---- -- - ----- -----<br>------ ---- ------ ---- - -------- ------- -- --- --------<br>-------- ----------- ---- ------ ---- ------ ---- --- ---<br>-------- --- made.,300414.2000000477,300412.3000000715,299328.103,299327.89999997616,299344.692,300427.414,,45,made.
Item 9,flow.Loop,2_3_1_0_1,2022-05-09T11:47:36.271Z,,,,,,,,,,,,,,,,,,,,,,,,,,,,,,,22248.600000071514,,completion,,,,,,,,,,,,,,,,,,,,,300414.89999997616,300412.3000000715,278147.025,278149.39999997616,278163.7,300427.414,,,
Question 1,html.Screen,2_3_1_0_2,2022-05-09T11:47:43.227Z,,,,,,,,,,,,,,,,,,,,,,,,,,,,true,FALSE,,6941.386000071536,,response,,,,9,D,,,,,,FALSE,click #choice-2,,,,speech,,,,,307372,307368.8000000715,300410.875,300415.2000000477,300427.414,307393.28,,,
