sender,sender_type,sender_id,timestamp,meta,,Blues,Classical,Country,Dance,Electronic,Folk,Gospel,Hip-Hop,Jazz,Latin,Musical/Film,New-age,Pop,Prolific_id,Provo_ID,R&B,Rap,Reggae,Religious,Rock,Soul,Swing,Traditional,age,artist_name,correct,correctResponse,distraction,duration,education,ended_on,familiarity,gender,headphone_check_performance,item,list,music_frequency,offensiveness,pleasantness,position_correct,preference,response,response_action,snippet_file,song_name,song_rating,sound,stimulus_1,stimulus_2,stimulus_3,text,time_commit,time_end,time_render,time_run,time_show,time_switch,url,word,word_ID
Prolific ID,html.Form,0,2022-05-02T10:46:08.494Z,"{""labjs_version"":""20.2.2"",""labjs_build"":{""flavor"":""production"",""commit"":""a25486e0c714a0ae2ce03ff94b7bb6896854dcfa""},""location"":""https://run.pavlovia.org/mvasilev/prolific3_music_f/"",""userAgent"":""Mozilla/5.0 (Windows NT 10.0; Win64; x64) AppleWebKit/537.36 (KHTML, like Gecko) Chrome/100.0.4896.127 Safari/537.36"",""platform"":""Win32"",""language"":""en-GB"",""locale"":""en-GB"",""timeZone"":""Europe/London"",""timezoneOffset"":-60,""screen_width"":1920,""screen_height"":1080,""scroll_width"":1920,""scroll_height"":881,""window_innerWidth"":1920,""window_innerHeight"":929,""devicePixelRatio"":1}",,,,,,,,,,,,,,,5e7d3b58d638273c7f823c7b,,,,,,,,,,,,,,,14768.475999999999,,form submission,,,,,,,,,,,,,,,,,,,,,32526.5,32526,17657.499,17738.5,17757.524,32540.617,{},,
Introduction,html.Screen,1_0,2022-05-02T10:46:11.194Z,,,,,,,,,,,,,,,,,,,,,,,,,,,,,,,2684.5830000476853,,response,,,,,,,,,,,continue,click button,,,,,,,,,35226.299999952316,35225.200000047684,32523.936,32527.099999904633,32540.617,35257.201,,,
Volume calibration,html.Screen,1_1,2022-05-02T10:46:21.986Z,,,,,,,,,,,,,,,,,,,,,,,,,,,,,,,10759.798999999999,,response,,,,,,,,,,,continue,click button,,,,,,,,,46018.200000047684,46017,35240.574,35226.40000009537,35257.201,46040.305,,,
Task instructions,html.Screen,1_2,2022-05-02T10:46:25.793Z,,,,,,,,,,,,,,,,,,,,,,,,,,,,,,,3784.595000095367,,response,,,,,,,,,,,continue,click button,,,,,,,,,49825.5,49824.90000009537,46023.834,46018.299999952316,46040.305,49856.929,,,
Sounds,html.Screen,1_3_0_0,2022-05-02T10:46:30.062Z,,,,,,,,,,,,,,,,,,,,,,,,,,,,,,,4249.879000000001,,timeout,,,,,,,,,3,,,,,,,,O,I,S,,54094.40000009537,54090.193,49840.272,49825.700000047684,49856.929,54106.808,,,
Judgement,html.Screen,1_3_0_1,2022-05-02T10:46:30.714Z,,,,,,,,,,,,,,,,,,,,,,,,,,,,true,3,,638.2919999046353,,response,,,,,,,,,3,,3,click #choice-3,,,,,O,I,S,,54746,54745.09999990463,54090.193,54094.5,54106.808,54773.571,,,
Trial,flow.Sequence,1_3_0,2022-05-02T10:46:30.714Z,,,,,,,,,,,,,,,,,,,,,,,,,,,,,,,4888.170999904636,,completion,,,,,,,,,3,,,,,,,,O,I,S,,54746.200000047684,54745.09999990463,49840.272,49825.59999990463,49856.929,54773.571,,,
Sounds,html.Screen,1_3_1_0,2022-05-02T10:46:34.975Z,,,,,,,,,,,,,,,,,,,,,,,,,,,,,,,4249.935999999994,,timeout,,,,,,,,,2,,,,,,,,I,S,O,,59007.5,59006.827,54756.911,54746.200000047684,54773.571,59023.507,,,
Judgement,html.Screen,1_3_1_1,2022-05-02T10:46:35.394Z,,,,,,,,,,,,,,,,,,,,,,,,,,,,true,2,,401.7929999523185,,response,,,,,,,,,2,,2,click #choice-2,,,,,I,S,O,,59426.5,59425.299999952316,59006.827,59007.59999990463,59023.507,59456.774,,,
Trial,flow.Sequence,1_3_1,2022-05-02T10:46:35.395Z,,,,,,,,,,,,,,,,,,,,,,,,,,,,,,,4651.728999952313,,completion,,,,,,,,,2,,,,,,,,I,S,O,,59426.799999952316,59425.299999952316,54756.911,54746.200000047684,54773.571,59456.774,,,
Sounds,html.Screen,1_3_2_0,2022-05-02T10:46:39.662Z,,,,,,,,,,,,,,,,,,,,,,,,,,,,,,,4249.904000000002,,timeout,,,,,,,,,2,,,,,,,,O,S,I,,63692,63690.107,59440.122,59426.90000009537,59456.774,63706.678,,,
Judgement,html.Screen,1_3_2_1,2022-05-02T10:46:39.989Z,,,,,,,,,,,,,,,,,,,,,,,,,,,,true,2,,310.6219999523164,,response,,,,,,,,,2,,2,click #choice-2,,,,,O,S,I,,64018.299999952316,64017.299999952316,63690.107,63692.200000047684,63706.678,64040.604,,,
Trial,flow.Sequence,1_3_2,2022-05-02T10:46:39.989Z,,,,,,,,,,,,,,,,,,,,,,,,,,,,,,,4560.525999952319,,completion,,,,,,,,,2,,,,,,,,O,S,I,,64018.5,64017.299999952316,59440.122,59426.799999952316,59456.774,64040.604,,,
Sounds,html.Screen,1_3_3_0,2022-05-02T10:46:44.245Z,,,,,,,,,,,,,,,,,,,,,,,,,,,,,,,4249.555,,timeout,,,,,,,,,3,,,,,,,,I,O,S,,68274.40000009537,68273.299,64023.381,64018.59999990463,64040.604,68290.159,,,
Judgement,html.Screen,1_3_3_1,2022-05-02T10:46:44.541Z,,,,,,,,,,,,,,,,,,,,,,,,,,,,true,3,,279.04100004768407,,response,,,,,,,,,3,,3,click #choice-3,,,,,I,O,S,,68570.40000009537,68569.20000004768,68273.299,68274.5,68290.159,68589.956,,,
Trial,flow.Sequence,1_3_3,2022-05-02T10:46:44.541Z,,,,,,,,,,,,,,,,,,,,,,,,,,,,,,,4528.596000047684,,completion,,,,,,,,,3,,,,,,,,I,O,S,,68570.59999990463,68569.20000004768,64023.381,64018.5,64040.604,68589.956,,,
Sounds,html.Screen,1_3_4_0,2022-05-02T10:46:48.794Z,,,,,,,,,,,,,,,,,,,,,,,,,,,,,,,4249.877999999997,,timeout,,,,,,,,,1,,,,,,,,S,I,O,,72823.90000009537,72823.22,68573.314,68570.79999995232,68589.956,72839.834,,,
Judgement,html.Screen,1_3_4_1,2022-05-02T10:46:49.453Z,,,,,,,,,,,,,,,,,,,,,,,,,,,,true,1,,641.76599990463,,response,,,,,,,,,1,,1,click #choice-1,,,,,S,I,O,,73482.59999990463,73481.59999990463,72823.22,72824,72839.834,73506.637,,,
Trial,flow.Sequence,1_3_4,2022-05-02T10:46:49.453Z,,,,,,,,,,,,,,,,,,,,,,,,,,,,,,,4891.643999904627,,completion,,,,,,,,,1,,,,,,,,S,I,O,,73482.79999995232,73481.59999990463,68573.314,68570.70000004768,68589.956,73506.637,,,
Sounds,html.Screen,1_3_5_0,2022-05-02T10:46:53.711Z,,,,,,,,,,,,,,,,,,,,,,,,,,,,,,,4249.789000000004,,timeout,,,,,,,,,1,,,,,,,,S,O,I,,77740.90000009537,77740.093,73490.237,73482.90000009537,73506.637,77756.426,,,
Judgement,html.Screen,1_3_5_1,2022-05-02T10:46:54.029Z,,,,,,,,,,,,,,,,,,,,,,,,,,,,true,1,,300.77400004767696,,response,,,,,,,,,1,,1,click #choice-1,,,,,S,O,I,,78058.40000009537,78057.20000004768,77740.093,77740.90000009537,77756.426,78089.811,,,
Trial,flow.Sequence,1_3_5,2022-05-02T10:46:54.029Z,,,,,,,,,,,,,,,,,,,,,,,,,,,,,,,4550.563000047681,,completion,,,,,,,,,1,,,,,,,,S,O,I,,78058.59999990463,78057.20000004768,73490.237,73482.79999995232,73506.637,78089.811,,,
Task,flow.Loop,1_3,2022-05-02T10:46:54.034Z,,,,,,,,,,,,,,,,,,,,,,,,,,,,,,,28200.271000047687,,completion,,,1,,,,,,,,,,,,,,,,,,78063.40000009537,78057.20000004768,49840.272,49825.59999990463,49856.929,78089.811,,,
Trap,html.Screen,1_4,2022-05-02T10:46:54.035Z,,,,,,,,,,,,,,,,,,,,,,,,,,,,,,,NaN,,skipped,,,,,,,,,,,,,,,,,,,,,78064.40000009537,78057.20000004768,,78064.29999995232,,78089.811,,,
Thanks,html.Screen,1_5,2022-05-02T10:46:56.612Z,,,,,,,,,,,,,,,,,,,,,,,,,,,,,,,2551.288999904631,,response,,,,,,,,,,,continue,click button,,,,,,,,,80642,80641.09999990463,78073.117,78064.40000009537,78089.811,82573.048,,,
Headphone screening,flow.Sequence,1,2022-05-02T10:46:56.612Z,,,,,,,,,,,,,,,,,,,,,,,,,,,,,,,48100.482999904634,,completion,,,,,,,,,,,,,,,,,,,,,80642.09999990463,80641.09999990463,32523.936,32527,32540.617,82573.048,,,
Instructions,html.Page,2_0,2022-05-02T10:47:05.986Z,,,,,,,,,,,,,,,,,,,,,,,,,,,,,,,7442.452000000005,,form submission,,,,,,,,,,,,,,,,,,,,,90016.20000004768,90015.5,82556.379,82561.40000009537,82573.048,90022.915,,,
Holding screen,html.Screen,2_1_0_0,2022-05-02T10:47:15.982Z,,,,,,,,,,,,,,,,,,,,,,,,,,,,,,,9999.829000000012,,timeout,,,,,,,,,,,,,,,,,,,,,100011.70000004768,100006.07,90006.263,90016.29999995232,90022.915,100022.744,,,
screen,html.Screen,2_1_0_1_0,2022-05-02T10:47:17.075Z,,,,,,,,,,,,,,,,,53,,,,,,,,,,,,,,1079.4560000476777,,response,,,,99,,,,,,,Space,keypress(Space),,,,,,,,When -- ----- -- ------ - ------- --- ----------<br>------------- ------ ------ ---- ---- ------- ----- -- ----<br>-------- ------- -- ---------- --- - --- ----- ----- ----<br>---- --- --- ----- --- ---- ---- ------- ----- ---- -------<br>--- --- -- ----- -- --- ---- -- --- ---- -- ------ ------<br>--- ----- -- ----,101104.59999990463,101102.20000004768,100006.07,100012.79999995232,100022.744,101122.923,,0,When
screen,html.Screen,2_1_0_1_1,2022-05-02T10:47:17.407Z,,,,,,,,,,,,,,,,,53,,,,,,,,,,,,,,313.2770000476885,,response,,,,99,,,,,,,Space,keypress(Space),,,,,,,,---- it ----- -- ------ - ------- --- ----------<br>------------- ------ ------ ---- ---- ------- ----- -- ----<br>-------- ------- -- ---------- --- - --- ----- ----- ----<br>---- --- --- ----- --- ---- ---- ------- ----- ---- -------<br>--- --- -- ----- -- --- ---- -- --- ---- -- ------ ------<br>--- ----- -- ----,101436.90000009537,101436.20000004768,101106.026,101104.70000004768,101122.923,101456.074,,1,it
screen,html.Screen,2_1_0_1_2,2022-05-02T10:47:17.702Z,,,,,,,,,,,,,,,,,53,,,,,,,,,,,,,,274.42600000000675,,response,,,,99,,,,,,,Space,keypress(Space),,,,,,,,---- -- comes -- ------ - ------- --- ----------<br>------------- ------ ------ ---- ---- ------- ----- -- ----<br>-------- ------- -- ---------- --- - --- ----- ----- ----<br>---- --- --- ----- --- ---- ---- ------- ----- ---- -------<br>--- --- -- ----- -- --- ---- -- --- ---- -- ------ ------<br>--- ----- -- ----,101731.29999995232,101730.5,101439.401,101437,101456.074,101739.324,,2,comes
screen,html.Screen,2_1_0_1_3,2022-05-02T10:47:17.907Z,,,,,,,,,,,,,,,,,53,,,,,,,,,,,,,,196.77599990463932,,response,,,,99,,,,,,,Space,keypress(Space),,,,,,,,---- -- ----- to ------ - ------- --- ----------<br>------------- ------ ------ ---- ---- ------- ----- -- ----<br>-------- ------- -- ---------- --- - --- ----- ----- ----<br>---- --- --- ----- --- ---- ---- ------- ----- ---- -------<br>--- --- -- ----- -- --- ---- -- --- ---- -- ------ ------<br>--- ----- -- ----,101936.90000009537,101936.09999990463,101722.721,101731.5,101739.324,101956.067,,3,to
screen,html.Screen,2_1_0_1_4,2022-05-02T10:47:18.116Z,,,,,,,,,,,,,,,,,53,,,,,,,,,,,,,,188.83300009537197,,response,,,,99,,,,,,,Space,keypress(Space),,,,,,,,---- -- ----- -- having - ------- --- ----------<br>------------- ------ ------ ---- ---- ------- ----- -- ----<br>-------- ------- -- ---------- --- - --- ----- ----- ----<br>---- --- --- ----- --- ---- ---- ------- ----- ---- -------<br>--- --- -- ----- -- --- ---- -- --- ---- -- ------ ------<br>--- ----- -- ----,102145.5,102144.90000009537,101939.343,101937,101956.067,102172.681,,4,having
screen,html.Screen,2_1_0_1_5,2022-05-02T10:47:18.324Z,,,,,,,,,,,,,,,,,53,,,,,,,,,,,,,,180.31900000000314,,response,,,,99,,,,,,,Space,keypress(Space),,,,,,,,---- -- ----- -- ------ a ------- --- ----------<br>------------- ------ ------ ---- ---- ------- ----- -- ----<br>-------- ------- -- ---------- --- - --- ----- ----- ----<br>---- --- --- ----- --- ---- ---- ------- ----- ---- -------<br>--- --- -- ----- -- --- ---- -- --- ---- -- ------ ------<br>--- ----- -- ----,102354,102353,102156.029,102145.70000004768,102172.681,102372.703,,5,a
screen,html.Screen,2_1_0_1_6,2022-05-02T10:47:18.526Z,,,,,,,,,,,,,,,,,53,,,,,,,,,,,,,,181.79700000000594,,response,,,,99,,,,,,,Space,keypress(Space),,,,,,,,---- -- ----- -- ------ - lasting --- ----------<br>------------- ------ ------ ---- ---- ------- ----- -- ----<br>-------- ------- -- ---------- --- - --- ----- ----- ----<br>---- --- --- ----- --- ---- ---- ------- ----- ---- -------<br>--- --- -- ----- -- --- ---- -- --- ---- -- ------ ------<br>--- ----- -- ----,102555.29999995232,102554.5,102356.007,102354.09999990463,102372.703,102572.693,,6,lasting
screen,html.Screen,2_1_0_1_7,2022-05-02T10:47:18.739Z,,,,,,,,,,,,,,,,,53,,,,,,,,,,,,,,195.50700004768441,,response,,,,99,,,,,,,Space,keypress(Space),,,,,,,,---- -- ----- -- ------ - ------- and ----------<br>------------- ------ ------ ---- ---- ------- ----- -- ----<br>-------- ------- -- ---------- --- - --- ----- ----- ----<br>---- --- --- ----- --- ---- ---- ------- ----- ---- -------<br>--- --- -- ----- -- --- ---- -- --- ---- -- ------ ------<br>--- ----- -- ----,102769,102768.20000004768,102555.998,102555.40000009537,102572.693,102789.362,,7,and
screen,html.Screen,2_1_0_1_8,2022-05-02T10:47:18.979Z,,,,,,,,,,,,,,,,,53,,,,,,,,,,,,,,218.73799990463885,,response,,,,99,,,,,,,Space,keypress(Space),,,,,,,,---- -- ----- -- ------ - ------- --- fulfilling<br>------------- ------ ------ ---- ---- ------- ----- -- ----<br>-------- ------- -- ---------- --- - --- ----- ----- ----<br>---- --- --- ----- --- ---- ---- ------- ----- ---- -------<br>--- --- -- ----- -- --- ---- -- --- ---- -- ------ ------<br>--- ----- -- ----,103008.70000004768,103008.09999990463,102772.688,102769.20000004768,102789.362,103039.326,,8,fulfilling
screen,html.Screen,2_1_0_1_9,2022-05-02T10:47:19.185Z,,,,,,,,,,,,,,,,,53,,,,,,,,,,,,,,174.5740000953665,,response,,,,99,,,,,,,Space,keypress(Space),,,,,,,,"---- -- ----- -- ------ - ------- --- ----------<br>relationship, ------ ------ ---- ---- ------- ----- -- ----<br>-------- ------- -- ---------- --- - --- ----- ----- ----<br>---- --- --- ----- --- ---- ---- ------- ----- ---- -------<br>--- --- -- ----- -- --- ---- -- --- ---- -- ------ ------<br>--- ----- -- ----",103214.90000009537,103213.90000009537,103022.696,103008.79999995232,103039.326,103239.385,,9,"relationship,"
screen,html.Screen,2_1_0_1_10,2022-05-02T10:47:19.400Z,,,,,,,,,,,,,,,,,53,,,,,,,,,,,,,,189.61500000000524,,response,,,,99,,,,,,,Space,keypress(Space),,,,,,,,---- -- ----- -- ------ - ------- --- ----------<br>------------- common ------ ---- ---- ------- ----- -- ----<br>-------- ------- -- ---------- --- - --- ----- ----- ----<br>---- --- --- ----- --- ---- ---- ------- ----- ---- -------<br>--- --- -- ----- -- --- ---- -- --- ---- -- ------ ------<br>--- ----- -- ----,103429.79999995232,103429,103222.95,103215,103239.385,103456.007,,10,common
screen,html.Screen,2_1_0_1_11,2022-05-02T10:47:19.633Z,,,,,,,,,,,,,,,,,53,,,,,,,,,,,,,,206.39300009536964,,response,,,,99,,,,,,,Space,keypress(Space),,,,,,,,---- -- ----- -- ------ - ------- --- ----------<br>------------- ------ wisdom ---- ---- ------- ----- -- ----<br>-------- ------- -- ---------- --- - --- ----- ----- ----<br>---- --- --- ----- --- ---- ---- ------- ----- ---- -------<br>--- --- -- ----- -- --- ---- -- --- ---- -- ------ ------<br>--- ----- -- ----,103663.09999990463,103662.40000009537,103439.385,103429.90000009537,103456.007,103689.348,,11,wisdom
screen,html.Screen,2_1_0_1_12,2022-05-02T10:47:20.359Z,,,,,,,,,,,,,,,,,53,,,,,,,,,,,,,,698.3520000476856,,response,,,,99,,,,,,,Space,keypress(Space),,,,,,,,---- -- ----- -- ------ - ------- --- ----------<br>------------- ------ ------ says ---- ------- ----- -- ----<br>-------- ------- -- ---------- --- - --- ----- ----- ----<br>---- --- --- ----- --- ---- ---- ------- ----- ---- -------<br>--- --- -- ----- -- --- ---- -- --- ---- -- ------ ------<br>--- ----- -- ----,104388.59999990463,104387.70000004768,103672.683,103663.29999995232,103689.348,104405.98,,12,says
screen,html.Screen,2_1_0_1_13,2022-05-02T10:47:20.622Z,,,,,,,,,,,,,,,,,53,,,,,,,,,,,,,,244.61999990463664,,response,,,,99,,,,,,,Space,keypress(Space),,,,,,,,---- -- ----- -- ------ - ------- --- ----------<br>------------- ------ ------ ---- that ------- ----- -- ----<br>-------- ------- -- ---------- --- - --- ----- ----- ----<br>---- --- --- ----- --- ---- ---- ------- ----- ---- -------<br>--- --- -- ----- -- --- ---- -- --- ---- -- ------ ------<br>--- ----- -- ----,104651.59999990463,104650.59999990463,104389.322,104388.79999995232,104405.98,104672.662,,13,that
screen,html.Screen,2_1_0_1_14,2022-05-02T10:47:20.846Z,,,,,,,,,,,,,,,,,53,,,,,,,,,,,,,,202.13799995231966,,response,,,,99,,,,,,,Space,keypress(Space),,,,,,,,---- -- ----- -- ------ - ------- --- ----------<br>------------- ------ ------ ---- ---- feeling ----- -- ----<br>-------- ------- -- ---------- --- - --- ----- ----- ----<br>---- --- --- ----- --- ---- ---- ------- ----- ---- -------<br>--- --- -- ----- -- --- ---- -- --- ---- -- ------ ------<br>--- ----- -- ----,104875.59999990463,104874.79999995232,104656.034,104651.70000004768,104672.662,104906.019,,14,feeling
screen,html.Screen,2_1_0_1_15,2022-05-02T10:47:21.063Z,,,,,,,,,,,,,,,,,53,,,,,,,,,,,,,,184.78099995231605,,response,,,,99,,,,,,,Space,keypress(Space),,,,,,,,---- -- ----- -- ------ - ------- --- ----------<br>------------- ------ ------ ---- ---- ------- close -- ----<br>-------- ------- -- ---------- --- - --- ----- ----- ----<br>---- --- --- ----- --- ---- ---- ------- ----- ---- -------<br>--- --- -- ----- -- --- ---- -- --- ---- -- ------ ------<br>--- ----- -- ----,105092.90000009537,105090.79999995232,104889.311,104875.79999995232,104906.019,105122.635,,15,close
screen,html.Screen,2_1_0_1_16,2022-05-02T10:47:21.294Z,,,,,,,,,,,,,,,,,53,,,,,,,,,,,,,,200.26500009537267,,response,,,,99,,,,,,,Space,keypress(Space),,,,,,,,---- -- ----- -- ------ - ------- --- ----------<br>------------- ------ ------ ---- ---- ------- ----- to ----<br>-------- ------- -- ---------- --- - --- ----- ----- ----<br>---- --- --- ----- --- ---- ---- ------- ----- ---- -------<br>--- --- -- ----- -- --- ---- -- --- ---- -- ------ ------<br>--- ----- -- ----,105323.59999990463,105322.90000009537,105106.002,105093.09999990463,105122.635,105339.34,,16,to
screen,html.Screen,2_1_0_1_17,2022-05-02T10:47:21.597Z,,,,,,,,,,,,,,,,,53,,,,,,,,,,,,,,286.75999990463606,,response,,,,99,,,,,,,Space,keypress(Space),,,,,,,,---- -- ----- -- ------ - ------- --- ----------<br>------------- ------ ------ ---- ---- ------- ----- -- your<br>-------- ------- -- ---------- --- - --- ----- ----- ----<br>---- --- --- ----- --- ---- ---- ------- ----- ---- -------<br>--- --- -- ----- -- --- ---- -- --- ---- -- ------ ------<br>--- ----- -- ----,105627,105626.09999990463,105322.656,105323.79999995232,105339.34,105639.555,,17,your
screen,html.Screen,2_1_0_1_18,2022-05-02T10:47:21.879Z,,,,,,,,,,,,,,,,,53,,,,,,,,,,,,,,268.24499995232327,,response,,,,99,,,,,,,Space,keypress(Space),,,,,,,,---- -- ----- -- ------ - ------- --- ----------<br>------------- ------ ------ ---- ---- ------- ----- -- ----<br>romantic ------- -- ---------- --- - --- ----- ----- ----<br>---- --- --- ----- --- ---- ---- ------- ----- ---- -------<br>--- --- -- ----- -- --- ---- -- --- ---- -- ------ ------<br>--- ----- -- ----,105908.59999990463,105907.79999995232,105622.669,105627.09999990463,105639.555,105939.362,,18,romantic
screen,html.Screen,2_1_0_1_19,2022-05-02T10:47:22.157Z,,,,,,,,,,,,,,,,,53,,,,,,,,,,,,,,246.33800004769,,response,,,,99,,,,,,,Space,keypress(Space),,,,,,,,---- -- ----- -- ------ - ------- --- ----------<br>------------- ------ ------ ---- ---- ------- ----- -- ----<br>-------- partner -- ---------- --- - --- ----- ----- ----<br>---- --- --- ----- --- ---- ---- ------- ----- ---- -------<br>--- --- -- ----- -- --- ---- -- --- ---- -- ------ ------<br>--- ----- -- ----,106186.5,106185.70000004768,105922.659,105908.70000004768,105939.362,106205.917,,19,partner
screen,html.Screen,2_1_0_1_20,2022-05-02T10:47:22.402Z,,,,,,,,,,,,,,,,,53,,,,,,,,,,,,,,224.98300009536615,,response,,,,99,,,,,,,Space,keypress(Space),,,,,,,,---- -- ----- -- ------ - ------- --- ----------<br>------------- ------ ------ ---- ---- ------- ----- -- ----<br>-------- ------- is ---------- --- - --- ----- ----- ----<br>---- --- --- ----- --- ---- ---- ------- ----- ---- -------<br>--- --- -- ----- -- --- ---- -- --- ---- -- ------ ------<br>--- ----- -- ----,106431.70000004768,106430.90000009537,106189.298,106186.59999990463,106205.917,106455.946,,20,is
screen,html.Screen,2_1_0_1_21,2022-05-02T10:47:22.646Z,,,,,,,,,,,,,,,,,53,,,,,,,,,,,,,,219.1539999046363,,response,,,,99,,,,,,,Space,keypress(Space),,,,,,,,---- -- ----- -- ------ - ------- --- ----------<br>------------- ------ ------ ---- ---- ------- ----- -- ----<br>-------- ------- -- paramount. --- - --- ----- ----- ----<br>---- --- --- ----- --- ---- ---- ------- ----- ---- -------<br>--- --- -- ----- -- --- ---- -- --- ---- -- ------ ------<br>--- ----- -- ----,106675.79999995232,106675.09999990463,106439.296,106431.79999995232,106455.946,106705.966,,21,paramount.
screen,html.Screen,2_1_0_1_22,2022-05-02T10:47:22.891Z,,,,,,,,,,,,,,,,,53,,,,,,,,,,,,,,213.93400009536708,,response,,,,99,,,,,,,Space,keypress(Space),,,,,,,,---- -- ----- -- ------ - ------- --- ----------<br>------------- ------ ------ ---- ---- ------- ----- -- ----<br>-------- ------- -- ---------- But - --- ----- ----- ----<br>---- --- --- ----- --- ---- ---- ------- ----- ---- -------<br>--- --- -- ----- -- --- ---- -- --- ---- -- ------ ------<br>--- ----- -- ----,106920.90000009537,106919.90000009537,106689.314,106675.90000009537,106705.966,106939.286,,22,But
screen,html.Screen,2_1_0_1_23,2022-05-02T10:47:23.126Z,,,,,,,,,,,,,,,,,53,,,,,,,,,,,,,,216.21400000000722,,response,,,,99,,,,,,,Space,keypress(Space),,,,,,,,---- -- ----- -- ------ - ------- --- ----------<br>------------- ------ ------ ---- ---- ------- ----- -- ----<br>-------- ------- -- ---------- --- a --- ----- ----- ----<br>---- --- --- ----- --- ---- ---- ------- ----- ---- -------<br>--- --- -- ----- -- --- ---- -- --- ---- -- ------ ------<br>--- ----- -- ----,107156.20000004768,107155.5,106922.614,106921,106939.286,107172.589,,23,a
screen,html.Screen,2_1_0_1_24,2022-05-02T10:47:23.369Z,,,,,,,,,,,,,,,,,53,,,,,,,,,,,,,,225.1110000476765,,response,,,,99,,,,,,,Space,keypress(Space),,,,,,,,---- -- ----- -- ------ - ------- --- ----------<br>------------- ------ ------ ---- ---- ------- ----- -- ----<br>-------- ------- -- ---------- --- - new ----- ----- ----<br>---- --- --- ----- --- ---- ---- ------- ----- ---- -------<br>--- --- -- ----- -- --- ---- -- --- ---- -- ------ ------<br>--- ----- -- ----,107398.5,107397.70000004768,107155.933,107156.29999995232,107172.589,107422.7,,24,new
screen,html.Screen,2_1_0_1_25,2022-05-02T10:47:23.575Z,,,,,,,,,,,,,,,,,53,,,,,,,,,,,,,,181.20000009537034,,response,,,,99,,,,,,,Space,keypress(Space),,,,,,,,---- -- ----- -- ------ - ------- --- ----------<br>------------- ------ ------ ---- ---- ------- ----- -- ----<br>-------- ------- -- ---------- --- - --- study ----- ----<br>---- --- --- ----- --- ---- ---- ------- ----- ---- -------<br>--- --- -- ----- -- --- ---- -- --- ---- -- ------ ------<br>--- ----- -- ----,107604.59999990463,107603.90000009537,107405.966,107398.59999990463,107422.7,107622.579,,25,study
screen,html.Screen,2_1_0_1_26,2022-05-02T10:47:23.807Z,,,,,,,,,,,,,,,,,53,,,,,,,,,,,,,,213.1210000476858,,response,,,,99,,,,,,,Space,keypress(Space),,,,,,,,---- -- ----- -- ------ - ------- --- ----------<br>------------- ------ ------ ---- ---- ------- ----- -- ----<br>-------- ------- -- ---------- --- - --- ----- finds ----<br>---- --- --- ----- --- ---- ---- ------- ----- ---- -------<br>--- --- -- ----- -- --- ---- -- --- ---- -- ------ ------<br>--- ----- -- ----,107836.29999995232,107835.70000004768,107605.922,107605.29999995232,107622.579,107856.645,,26,finds
screen,html.Screen,2_1_0_1_27,2022-05-02T10:47:24.035Z,,,,,,,,,,,,,,,,,53,,,,,,,,,,,,,,207.25500009536336,,response,,,,99,,,,,,,Space,keypress(Space),,,,,,,,---- -- ----- -- ------ - ------- --- ----------<br>------------- ------ ------ ---- ---- ------- ----- -- ----<br>-------- ------- -- ---------- --- - --- ----- ----- that<br>---- --- --- ----- --- ---- ---- ------- ----- ---- -------<br>--- --- -- ----- -- --- ---- -- --- ---- -- ------ ------<br>--- ----- -- ----,108065,108063.90000009537,107839.289,107836.5,107856.645,108089.305,,27,that
screen,html.Screen,2_1_0_1_28,2022-05-02T10:47:24.288Z,,,,,,,,,,,,,,,,,53,,,,,,,,,,,,,,226.59500009537442,,response,,,,99,,,,,,,Space,keypress(Space),,,,,,,,---- -- ----- -- ------ - ------- --- ----------<br>------------- ------ ------ ---- ---- ------- ----- -- ----<br>-------- ------- -- ---------- --- - --- ----- ----- ----<br>it's --- --- ----- --- ---- ---- ------- ----- ---- -------<br>--- --- -- ----- -- --- ---- -- --- ---- -- ------ ------<br>--- ----- -- ----,108317.40000009537,108315.90000009537,108072.592,108065.09999990463,108089.305,108339.263,,28,it's
screen,html.Screen,2_1_0_1_29,2022-05-02T10:47:24.529Z,,,,,,,,,,,,,,,,,53,,,,,,,,,,,,,,219.2369999999937,,response,,,,99,,,,,,,Space,keypress(Space),,,,,,,,---- -- ----- -- ------ - ------- --- ----------<br>------------- ------ ------ ---- ---- ------- ----- -- ----<br>-------- ------- -- ---------- --- - --- ----- ----- ----<br>---- not --- ----- --- ---- ---- ------- ----- ---- -------<br>--- --- -- ----- -- --- ---- -- --- ---- -- ------ ------<br>--- ----- -- ----,108559.20000004768,108558.5,108322.591,108317.5,108339.263,108589.259,,29,not
screen,html.Screen,2_1_0_1_30,2022-05-02T10:47:24.750Z,,,,,,,,,,,,,,,,,53,,,,,,,,,,,,,,189.94100004767824,,response,,,,99,,,,,,,Space,keypress(Space),,,,,,,,---- -- ----- -- ------ - ------- --- ----------<br>------------- ------ ------ ---- ---- ------- ----- -- ----<br>-------- ------- -- ---------- --- - --- ----- ----- ----<br>---- --- how ----- --- ---- ---- ------- ----- ---- -------<br>--- --- -- ----- -- --- ---- -- --- ---- -- ------ ------<br>--- ----- -- ----,108779.79999995232,108779.20000004768,108572.633,108559.20000004768,108589.259,108805.954,,30,how
screen,html.Screen,2_1_0_1_31,2022-05-02T10:47:24.972Z,,,,,,,,,,,,,,,,,53,,,,,,,,,,,,,,194.84599995231838,,response,,,,99,,,,,,,Space,keypress(Space),,,,,,,,---- -- ----- -- ------ - ------- --- ----------<br>------------- ------ ------ ---- ---- ------- ----- -- ----<br>-------- ------- -- ---------- --- - --- ----- ----- ----<br>---- --- --- close --- ---- ---- ------- ----- ---- -------<br>--- --- -- ----- -- --- ---- -- --- ---- -- ------ ------<br>--- ----- -- ----,109001.70000004768,109000.79999995232,108789.288,108779.90000009537,108805.954,109022.629,,31,close
screen,html.Screen,2_1_0_1_32,2022-05-02T10:47:25.212Z,,,,,,,,,,,,,,,,,53,,,,,,,,,,,,,,218.0710000476829,,response,,,,99,,,,,,,Space,keypress(Space),,,,,,,,---- -- ----- -- ------ - ------- --- ----------<br>------------- ------ ------ ---- ---- ------- ----- -- ----<br>-------- ------- -- ---------- --- - --- ----- ----- ----<br>---- --- --- ----- you ---- ---- ------- ----- ---- -------<br>--- --- -- ----- -- --- ---- -- --- ---- -- ------ ------<br>--- ----- -- ----,109241.59999990463,109240.70000004768,109005.911,109001.79999995232,109022.629,109272.573,,32,you
screen,html.Screen,2_1_0_1_33,2022-05-02T10:47:25.455Z,,,,,,,,,,,,,,,,,53,,,,,,,,,,,,,,211.32700009536347,,response,,,,99,,,,,,,Space,keypress(Space),,,,,,,,---- -- ----- -- ------ - ------- --- ----------<br>------------- ------ ------ ---- ---- ------- ----- -- ----<br>-------- ------- -- ---------- --- - --- ----- ----- ----<br>---- --- --- ----- --- feel ---- ------- ----- ---- -------<br>--- --- -- ----- -- --- ---- -- --- ---- -- ------ ------<br>--- ----- -- ----,109484.70000004768,109483.90000009537,109255.946,109241.79999995232,109272.573,109506.02,,33,feel
screen,html.Screen,2_1_0_1_34,2022-05-02T10:47:25.677Z,,,,,,,,,,,,,,,,,53,,,,,,,,,,,,,,199.38000009536336,,response,,,,99,,,,,,,Space,keypress(Space),,,,,,,,---- -- ----- -- ------ - ------- --- ----------<br>------------- ------ ------ ---- ---- ------- ----- -- ----<br>-------- ------- -- ---------- --- - --- ----- ----- ----<br>---- --- --- ----- --- ---- that ------- ----- ---- -------<br>--- --- -- ----- -- --- ---- -- --- ---- -- ------ ------<br>--- ----- -- ----,109706.40000009537,109705.40000009537,109489.536,109484.90000009537,109506.02,109722.543,,34,that
screen,html.Screen,2_1_0_1_35,2022-05-02T10:47:25.928Z,,,,,,,,,,,,,,,,,53,,,,,,,,,,,,,,234.75699995231116,,response,,,,99,,,,,,,Space,keypress(Space),,,,,,,,---- -- ----- -- ------ - ------- --- ----------<br>------------- ------ ------ ---- ---- ------- ----- -- ----<br>-------- ------- -- ---------- --- - --- ----- ----- ----<br>---- --- --- ----- --- ---- ---- matters ----- ---- -------<br>--- --- -- ----- -- --- ---- -- --- ---- -- ------ ------<br>--- ----- -- ----,109958,109957.29999995232,109705.887,109706.5,109722.543,109989.204,,35,matters
screen,html.Screen,2_1_0_1_36,2022-05-02T10:47:26.121Z,,,,,,,,,,,,,,,,,53,,,,,,,,,,,,,,160.4960000476858,,response,,,,99,,,,,,,Space,keypress(Space),,,,,,,,"---- -- ----- -- ------ - ------- --- ----------<br>------------- ------ ------ ---- ---- ------- ----- -- ----<br>-------- ------- -- ---------- --- - --- ----- ----- ----<br>---- --- --- ----- --- ---- ---- ------- most, ---- -------<br>--- --- -- ----- -- --- ---- -- --- ---- -- ------ ------<br>--- ----- -- ----",110150.40000009537,110149.70000004768,109972.59,109958.09999990463,109989.204,110172.552,,36,"most,"
screen,html.Screen,2_1_0_1_37,2022-05-02T10:47:26.378Z,,,,,,,,,,,,,,,,,53,,,,,,,,,,,,,,234.24799995232024,,response,,,,99,,,,,,,Space,keypress(Space),,,,,,,,---- -- ----- -- ------ - ------- --- ----------<br>------------- ------ ------ ---- ---- ------- ----- -- ----<br>-------- ------- -- ---------- --- - --- ----- ----- ----<br>---- --- --- ----- --- ---- ---- ------- ----- it's -------<br>--- --- -- ----- -- --- ---- -- --- ---- -- ------ ------<br>--- ----- -- ----,110407.40000009537,110406.79999995232,110155.87,110150.5,110172.552,110422.55,,37,it's
screen,html.Screen,2_1_0_1_38,2022-05-02T10:47:26.604Z,,,,,,,,,,,,,,,,,53,,,,,,,,,,,,,,210.6500000476808,,response,,,,99,,,,,,,Space,keypress(Space),,,,,,,,---- -- ----- -- ------ - ------- --- ----------<br>------------- ------ ------ ---- ---- ------- ----- -- ----<br>-------- ------- -- ---------- --- - --- ----- ----- ----<br>---- --- --- ----- --- ---- ---- ------- ----- ---- whether<br>--- --- -- ----- -- --- ---- -- --- ---- -- ------ ------<br>--- ----- -- ----,110633.90000009537,110633.20000004768,110406.013,110407.59999990463,110422.55,110655.883,,38,whether
screen,html.Screen,2_1_0_1_39,2022-05-02T10:47:26.837Z,,,,,,,,,,,,,,,,,53,,,,,,,,,,,,,,209.41699995231465,,response,,,,99,,,,,,,Space,keypress(Space),,,,,,,,---- -- ----- -- ------ - ------- --- ----------<br>------------- ------ ------ ---- ---- ------- ----- -- ----<br>-------- ------- -- ---------- --- - --- ----- ----- ----<br>---- --- --- ----- --- ---- ---- ------- ----- ---- -------<br>you --- -- ----- -- --- ---- -- --- ---- -- ------ ------<br>--- ----- -- ----,110866.70000004768,110865.29999995232,110639.507,110633.90000009537,110655.883,110889.226,,39,you
screen,html.Screen,2_1_0_1_40,2022-05-02T10:47:27.061Z,,,,,,,,,,,,,,,,,53,,,,,,,,,,,,,,199.37399990463746,,response,,,,99,,,,,,,Space,keypress(Space),,,,,,,,---- -- ----- -- ------ - ------- --- ----------<br>------------- ------ ------ ---- ---- ------- ----- -- ----<br>-------- ------- -- ---------- --- - --- ----- ----- ----<br>---- --- --- ----- --- ---- ---- ------- ----- ---- -------<br>--- are -- ----- -- --- ---- -- --- ---- -- ------ ------<br>--- ----- -- ----,111090.29999995232,111088.59999990463,110872.851,110866.90000009537,110889.226,111106.123,,40,are
screen,html.Screen,2_1_0_1_41,2022-05-02T10:47:27.273Z,,,,,,,,,,,,,,,,,53,,,,,,,,,,,,,,196.17699995230942,,response,,,,99,,,,,,,Space,keypress(Space),,,,,,,,---- -- ----- -- ------ - ------- --- ----------<br>------------- ------ ------ ---- ---- ------- ----- -- ----<br>-------- ------- -- ---------- --- - --- ----- ----- ----<br>---- --- --- ----- --- ---- ---- ------- ----- ---- -------<br>--- --- as ----- -- --- ---- -- --- ---- -- ------ ------<br>--- ----- -- ----,111303,111302.29999995232,111089.263,111090.40000009537,111106.123,111322.593,,41,as
screen,html.Screen,2_1_0_1_42,2022-05-02T10:47:27.484Z,,,,,,,,,,,,,,,,,53,,,,,,,,,,,,,,190.80700009537395,,response,,,,99,,,,,,,Space,keypress(Space),,,,,,,,---- -- ----- -- ------ - ------- --- ----------<br>------------- ------ ------ ---- ---- ------- ----- -- ----<br>-------- ------- -- ---------- --- - --- ----- ----- ----<br>---- --- --- ----- --- ---- ---- ------- ----- ---- -------<br>--- --- -- close -- --- ---- -- --- ---- -- ------ ------<br>--- ----- -- ----,111514.09999990463,111513.40000009537,111306.165,111303.09999990463,111322.593,111539.229,,42,close
screen,html.Screen,2_1_0_1_43,2022-05-02T10:47:27.687Z,,,,,,,,,,,,,,,,,53,,,,,,,,,,,,,,177.07099995230965,,response,,,,99,,,,,,,Space,keypress(Space),,,,,,,,---- -- ----- -- ------ - ------- --- ----------<br>------------- ------ ------ ---- ---- ------- ----- -- ----<br>-------- ------- -- ---------- --- - --- ----- ----- ----<br>---- --- --- ----- --- ---- ---- ------- ----- ---- -------<br>--- --- -- ----- as --- ---- -- --- ---- -- ------ ------<br>--- ----- -- ----,111717,111716.29999995232,111522.704,111514.20000004768,111539.229,111739.173,,43,as
screen,html.Screen,2_1_0_1_44,2022-05-02T10:47:27.876Z,,,,,,,,,,,,,,,,,53,,,,,,,,,,,,,,165.5270000476885,,response,,,,99,,,,,,,Space,keypress(Space),,,,,,,,---- -- ----- -- ------ - ------- --- ----------<br>------------- ------ ------ ---- ---- ------- ----- -- ----<br>-------- ------- -- ---------- --- - --- ----- ----- ----<br>---- --- --- ----- --- ---- ---- ------- ----- ---- -------<br>--- --- -- ----- -- you ---- -- --- ---- -- ------ ------<br>--- ----- -- ----,111905.59999990463,111904.70000004768,111722.533,111717.09999990463,111739.173,111922.516,,44,you
screen,html.Screen,2_1_0_1_45,2022-05-02T10:47:28.099Z,,,,,,,,,,,,,,,,,53,,,,,,,,,,,,,,205.88400009536417,,response,,,,99,,,,,,,Space,keypress(Space),,,,,,,,---- -- ----- -- ------ - ------- --- ----------<br>------------- ------ ------ ---- ---- ------- ----- -- ----<br>-------- ------- -- ---------- --- - --- ----- ----- ----<br>---- --- --- ----- --- ---- ---- ------- ----- ---- -------<br>--- --- -- ----- -- --- want -- --- ---- -- ------ ------<br>--- ----- -- ----,112129.20000004768,112128.40000009537,111905.835,111905.70000004768,111922.516,112155.807,,45,want
screen,html.Screen,2_1_0_1_46,2022-05-02T10:47:28.308Z,,,,,,,,,,,,,,,,,53,,,,,,,,,,,,,,180.29299990463187,,response,,,,99,,,,,,,Space,keypress(Space),,,,,,,,---- -- ----- -- ------ - ------- --- ----------<br>------------- ------ ------ ---- ---- ------- ----- -- ----<br>-------- ------- -- ---------- --- - --- ----- ----- ----<br>---- --- --- ----- --- ---- ---- ------- ----- ---- -------<br>--- --- -- ----- -- --- ---- to --- ---- -- ------ ------<br>--- ----- -- ----,112337.5,112336.09999990463,112139.189,112129.29999995232,112155.807,112355.856,,46,to
screen,html.Screen,2_1_0_1_47,2022-05-02T10:47:28.529Z,,,,,,,,,,,,,,,,,53,,,,,,,,,,,,,,201.84400004768395,,response,,,,99,,,,,,,Space,keypress(Space),,,,,,,,"---- -- ----- -- ------ - ------- --- ----------<br>------------- ------ ------ ---- ---- ------- ----- -- ----<br>-------- ------- -- ---------- --- - --- ----- ----- ----<br>---- --- --- ----- --- ---- ---- ------- ----- ---- -------<br>--- --- -- ----- -- --- ---- -- be, ---- -- ------ ------<br>--- ----- -- ----",112558.40000009537,112557.70000004768,112339.165,112337.59999990463,112355.856,112589.163,,47,"be,"
screen,html.Screen,2_1_0_1_48,2022-05-02T10:47:28.752Z,,,,,,,,,,,,,,,,,53,,,,,,,,,,,,,,191.4369999046321,,response,,,,99,,,,,,,Space,keypress(Space),,,,,,,,---- -- ----- -- ------ - ------- --- ----------<br>------------- ------ ------ ---- ---- ------- ----- -- ----<br>-------- ------- -- ---------- --- - --- ----- ----- ----<br>---- --- --- ----- --- ---- ---- ------- ----- ---- -------<br>--- --- -- ----- -- --- ---- -- --- even -- ------ ------<br>--- ----- -- ----,112781.5,112780.59999990463,112572.684,112558.5,112589.163,112805.864,,48,even
screen,html.Screen,2_1_0_1_49,2022-05-02T10:47:28.959Z,,,,,,,,,,,,,,,,,53,,,,,,,,,,,,,,182.4359999523149,,response,,,,99,,,,,,,Space,keypress(Space),,,,,,,,---- -- ----- -- ------ - ------- --- ----------<br>------------- ------ ------ ---- ---- ------- ----- -- ----<br>-------- ------- -- ---------- --- - --- ----- ----- ----<br>---- --- --- ----- --- ---- ---- ------- ----- ---- -------<br>--- --- -- ----- -- --- ---- -- --- ---- if ------ ------<br>--- ----- -- ----,112989.20000004768,112988.29999995232,112789.203,112781.59999990463,112805.864,113005.881,,49,if
screen,html.Screen,2_1_0_1_50,2022-05-02T10:47:29.168Z,,,,,,,,,,,,,,,,,53,,,,,,,,,,,,,,191.21899990463862,,response,,,,99,,,,,,,Space,keypress(Space),,,,,,,,---- -- ----- -- ------ - ------- --- ----------<br>------------- ------ ------ ---- ---- ------- ----- -- ----<br>-------- ------- -- ---------- --- - --- ----- ----- ----<br>---- --- --- ----- --- ---- ---- ------- ----- ---- -------<br>--- --- -- ----- -- --- ---- -- --- ---- -- that's ------<br>--- ----- -- ----,113197.79999995232,113197.09999990463,112989.347,112989.29999995232,113005.881,113222.465,,50,that's
screen,html.Screen,2_1_0_1_51,2022-05-02T10:47:29.385Z,,,,,,,,,,,,,,,,,53,,,,,,,,,,,,,,191.83499995231978,,response,,,,99,,,,,,,Space,keypress(Space),,,,,,,,---- -- ----- -- ------ - ------- --- ----------<br>------------- ------ ------ ---- ---- ------- ----- -- ----<br>-------- ------- -- ---------- --- - --- ----- ----- ----<br>---- --- --- ----- --- ---- ---- ------- ----- ---- -------<br>--- --- -- ----- -- --- ---- -- --- ---- -- ------ really<br>--- ----- -- ----,113415.09999990463,113414.29999995232,113205.803,113197.79999995232,113222.465,113439.145,,51,really
screen,html.Screen,2_1_0_1_52,2022-05-02T10:47:29.610Z,,,,,,,,,,,,,,,,,53,,,,,,,,,,,,,,199.6549999523122,,response,,,,99,,,,,,,Space,keypress(Space),,,,,,,,---- -- ----- -- ------ - ------- --- ----------<br>------------- ------ ------ ---- ---- ------- ----- -- ----<br>-------- ------- -- ---------- --- - --- ----- ----- ----<br>---- --- --- ----- --- ---- ---- ------- ----- ---- -------<br>--- --- -- ----- -- --- ---- -- --- ---- -- ------ ------<br>not ----- -- ----,113639.79999995232,113638.79999995232,113422.826,113415.20000004768,113439.145,113655.801,,52,not
screen,html.Screen,2_1_0_1_53,2022-05-02T10:47:29.850Z,,,,,,,,,,,,,,,,,53,,,,,,,,,,,,,,222.99899995230953,,response,,,,99,,,,,,,Space,keypress(Space),,,,,,,,---- -- ----- -- ------ - ------- --- ----------<br>------------- ------ ------ ---- ---- ------- ----- -- ----<br>-------- ------- -- ---------- --- - --- ----- ----- ----<br>---- --- --- ----- --- ---- ---- ------- ----- ---- -------<br>--- --- -- ----- -- --- ---- -- --- ---- -- ------ ------<br>--- close -- ----,113879.5,113878.79999995232,113639.149,113639.90000009537,113655.801,113905.818,,53,close
screen,html.Screen,2_1_0_1_54,2022-05-02T10:47:30.051Z,,,,,,,,,,,,,,,,,53,,,,,,,,,,,,,,173.48199995231698,,response,,,,99,,,,,,,Space,keypress(Space),,,,,,,,---- -- ----- -- ------ - ------- --- ----------<br>------------- ------ ------ ---- ---- ------- ----- -- ----<br>-------- ------- -- ---------- --- - --- ----- ----- ----<br>---- --- --- ----- --- ---- ---- ------- ----- ---- -------<br>--- --- -- ----- -- --- ---- -- --- ---- -- ------ ------<br>--- ----- at ----,114080.29999995232,114079.29999995232,113889.16,113879.5,113905.818,114105.805,,54,at
screen,html.Screen,2_1_0_1_55,2022-05-02T10:47:30.268Z,,,,,,,,,,,,,,,,,53,,,,,,,,,,,,,,191.29499990463955,,response,,,,99,,,,,,,Space,keypress(Space),,,,,,,,---- -- ----- -- ------ - ------- --- ----------<br>------------- ------ ------ ---- ---- ------- ----- -- ----<br>-------- ------- -- ---------- --- - --- ----- ----- ----<br>---- --- --- ----- --- ---- ---- ------- ----- ---- -------<br>--- --- -- ----- -- --- ---- -- --- ---- -- ------ ------<br>--- ----- -- all.,114297.90000009537,114297.09999990463,114089.128,114080.29999995232,114105.805,114322.471,,55,all.
Item 99,flow.Loop,2_1_0_1,2022-05-02T10:47:30.268Z,,,,,,,,,,,,,,,,,,,,,,,,,,,,,,,14274.355999904627,,completion,,,,,F,,,,,,,,,,,silence,,,,,114298.09999990463,114297.09999990463,100006.07,100012.79999995232,100022.744,114322.471,,,
Question 1,html.Screen,2_1_0_2,2022-05-02T10:47:33.301Z,,,,,,,,,,,,,,,,,,,,,,,,,,,,true,FALSE,,3006.9290000953624,,response,,,,99,F,,,,,,FALSE,click #choice-2,,,,silence,,,,,117330.70000004768,117329.40000009537,114305.794,114298.20000004768,114322.471,117355.748,,,
Question 2,html.Screen,2_1_0_3,2022-05-02T10:47:37.621Z,,,,,,,,,,,,,,,,,,,,,,,,,,,,true,TRUE,,4293.251999999993,,response,,,,99,F,,,,,,TRUE,click #choice-1,,,,silence,,,,,121650.40000009537,121649,117339.132,117330.90000009537,117355.748,121672.338,,,
Item 99,flow.Sequence,2_1_0,2022-05-02T10:47:37.621Z,,,,,,,,,,,,,,,,,,,,,,,,,,,,,,,31626.085000000006,,completion,,,,,,,,,,,,,,,,,,,,,121650.59999990463,121649,90006.263,90016.29999995232,90022.915,121672.338,,,
Holding screen,html.Screen,2_1_1_0,2022-05-02T10:47:47.633Z,,,,,,,,,,,,,,,,,,,,,,,,,,,,,,,9999.762000000002,,timeout,,,,,,,,,,,,,,,,,,,,,131663.20000004768,131655.509,121655.952,121650.79999995232,121672.338,131672.1,,,
screen,html.Screen,2_1_1_1_0,2022-05-02T10:47:48.785Z,,,,,,,,,,,,,,,,,54,,,,,,,,,,,,,,1141.8000000953616,,response,,,,100,,,,,,,Space,keypress(Space),,,,,,,,At --- ---- --- ------ ----- ------- ---- -- --- ------- --<br>------- ---------- ------ -- ----- -- ----- -- ---- ------<br>--- ----- --- --- ------ -------- ----- --- ------ ----- --<br>----- ----- ---------- --- --- ------ ------ ---- -- ------<br>------- --- ------ ----- --- ---- ------- -- ---- --- --<br>------- ------,132814.59999990463,132813.90000009537,131655.509,131663.29999995232,131672.1,132838.841,,0,At
screen,html.Screen,2_1_1_1_1,2022-05-02T10:47:48.956Z,,,,,,,,,,,,,,,,,54,,,,,,,,,,,,,,146.05900009538163,,response,,,,100,,,,,,,Space,keypress(Space),,,,,,,,-- the ---- --- ------ ----- ------- ---- -- --- ------- --<br>------- ---------- ------ -- ----- -- ----- -- ---- ------<br>--- ----- --- --- ------ -------- ----- --- ------ ----- --<br>----- ----- ---------- --- --- ------ ------ ---- -- ------<br>------- --- ------ ----- --- ---- ------- -- ---- --- --<br>------- ------,132985.59999990463,132984.90000009537,132822.232,132814.70000004768,132838.841,133005.458,,1,the
screen,html.Screen,2_1_1_1_2,2022-05-02T10:47:49.186Z,,,,,,,,,,,,,,,,,54,,,,,,,,,,,,,,208.341999952303,,response,,,,100,,,,,,,Space,keypress(Space),,,,,,,,-- --- time --- ------ ----- ------- ---- -- --- ------- --<br>------- ---------- ------ -- ----- -- ----- -- ---- ------<br>--- ----- --- --- ------ -------- ----- --- ------ ----- --<br>----- ----- ---------- --- --- ------ ------ ---- -- ------<br>------- --- ------ ----- --- ---- ------- -- ---- --- --<br>------- ------,133215.79999995232,133213.79999995232,132988.815,132985.70000004768,133005.458,133238.761,,2,time
screen,html.Screen,2_1_1_1_3,2022-05-02T10:47:49.380Z,,,,,,,,,,,,,,,,,54,,,,,,,,,,,,,,170.7390000000014,,response,,,,100,,,,,,,Space,keypress(Space),,,,,,,,-- --- ---- the ------ ----- ------- ---- -- --- ------- --<br>------- ---------- ------ -- ----- -- ----- -- ---- ------<br>--- ----- --- --- ------ -------- ----- --- ------ ----- --<br>----- ----- ---------- --- --- ------ ------ ---- -- ------<br>------- --- ------ ----- --- ---- ------- -- ---- --- --<br>------- ------,133410.09999990463,133409.5,133222.126,133215.90000009537,133238.761,133438.811,,3,the
screen,html.Screen,2_1_1_1_4,2022-05-02T10:47:49.584Z,,,,,,,,,,,,,,,,,54,,,,,,,,,,,,,,173.7889999046456,,response,,,,100,,,,,,,Space,keypress(Space),,,,,,,,-- --- ---- --- French ----- ------- ---- -- --- ------- --<br>------- ---------- ------ -- ----- -- ----- -- ---- ------<br>--- ----- --- --- ------ -------- ----- --- ------ ----- --<br>----- ----- ---------- --- --- ------ ------ ---- -- ------<br>------- --- ------ ----- --- ---- ------- -- ---- --- --<br>------- ------,133613.29999995232,133612.59999990463,133422.423,133410.20000004768,133438.811,133639.061,,4,French
screen,html.Screen,2_1_1_1_5,2022-05-02T10:47:49.804Z,,,,,,,,,,,,,,,,,54,,,,,,,,,,,,,,194.13900004769675,,response,,,,100,,,,,,,Space,keypress(Space),,,,,,,,-- --- ---- --- ------ crown ------- ---- -- --- ------- --<br>------- ---------- ------ -- ----- -- ----- -- ---- ------<br>--- ----- --- --- ------ -------- ----- --- ------ ----- --<br>----- ----- ---------- --- --- ------ ------ ---- -- ------<br>------- --- ------ ----- --- ---- ------- -- ---- --- --<br>------- ------,133833.90000009537,133833.20000004768,133622.249,133613.40000009537,133639.061,133855.529,,5,crown
screen,html.Screen,2_1_1_1_6,2022-05-02T10:47:50.003Z,,,,,,,,,,,,,,,,,54,,,,,,,,,,,,,,176.37100009535789,,response,,,,100,,,,,,,Space,keypress(Space),,,,,,,,-- --- ---- --- ------ ----- secured ---- -- --- ------- --<br>------- ---------- ------ -- ----- -- ----- -- ---- ------<br>--- ----- --- --- ------ -------- ----- --- ------ ----- --<br>----- ----- ---------- --- --- ------ ------ ---- -- ------<br>------- --- ------ ----- --- ---- ------- -- ---- --- --<br>------- ------,134032.5,134031.90000009537,133839.071,133834,133855.529,134055.822,,6,secured
screen,html.Screen,2_1_1_1_7,2022-05-02T10:47:50.250Z,,,,,,,,,,,,,,,,,54,,,,,,,,,,,,,,222.97799995233072,,response,,,,100,,,,,,,Space,keypress(Space),,,,,,,,-- --- ---- --- ------ ----- ------- much -- --- ------- --<br>------- ---------- ------ -- ----- -- ----- -- ---- ------<br>--- ----- --- --- ------ -------- ----- --- ------ ----- --<br>----- ----- ---------- --- --- ------ ------ ---- -- ------<br>------- --- ------ ----- --- ---- ------- -- ---- --- --<br>------- ------,134279.59999990463,134278.79999995232,134039.002,134032.59999990463,134055.822,134305.486,,7,much
screen,html.Screen,2_1_1_1_8,2022-05-02T10:47:50.458Z,,,,,,,,,,,,,,,,,54,,,,,,,,,,,,,,181.51399999999558,,response,,,,100,,,,,,,Space,keypress(Space),,,,,,,,-- --- ---- --- ------ ----- ------- ---- of --- ------- --<br>------- ---------- ------ -- ----- -- ----- -- ---- ------<br>--- ----- --- --- ------ -------- ----- --- ------ ----- --<br>----- ----- ---------- --- --- ------ ------ ---- -- ------<br>------- --- ------ ----- --- ---- ------- -- ---- --- --<br>------- ------,134487.90000009537,134487,134288.807,134279.70000004768,134305.486,134505.433,,8,of
screen,html.Screen,2_1_1_1_9,2022-05-02T10:47:50.690Z,,,,,,,,,,,,,,,,,54,,,,,,,,,,,,,,213.3669999523263,,response,,,,100,,,,,,,Space,keypress(Space),,,,,,,,-- --- ---- --- ------ ----- ------- ---- -- its ------- --<br>------- ---------- ------ -- ----- -- ----- -- ---- ------<br>--- ----- --- --- ------ -------- ----- --- ------ ----- --<br>----- ----- ---------- --- --- ------ ------ ---- -- ------<br>------- --- ------ ----- --- ---- ------- -- ---- --- --<br>------- ------,134719.5,134718.79999995232,134488.752,134488,134505.433,134738.755,,9,its
screen,html.Screen,2_1_1_1_10,2022-05-02T10:47:50.921Z,,,,,,,,,,,,,,,,,54,,,,,,,,,,,,,,210.44500004767906,,response,,,,100,,,,,,,Space,keypress(Space),,,,,,,,-- --- ---- --- ------ ----- ------- ---- -- --- revenue --<br>------- ---------- ------ -- ----- -- ----- -- ---- ------<br>--- ----- --- --- ------ -------- ----- --- ------ ----- --<br>----- ----- ---------- --- --- ------ ------ ---- -- ------<br>------- --- ------ ----- --- ---- ------- -- ---- --- --<br>------- ------,134950.29999995232,134949.20000004768,134722.138,134719.5,134738.755,134972.086,,10,revenue
screen,html.Screen,2_1_1_1_11,2022-05-02T10:47:51.189Z,,,,,,,,,,,,,,,,,54,,,,,,,,,,,,,,245.51399990462232,,response,,,,100,,,,,,,Space,keypress(Space),,,,,,,,-- --- ---- --- ------ ----- ------- ---- -- --- ------- by<br>------- ---------- ------ -- ----- -- ----- -- ---- ------<br>--- ----- --- --- ------ -------- ----- --- ------ ----- --<br>----- ----- ---------- --- --- ------ ------ ---- -- ------<br>------- --- ------ ----- --- ---- ------- -- ---- --- --<br>------- ------,135218.29999995232,135217.59999990463,134955.473,134950.40000009537,134972.086,135238.721,,11,by
screen,html.Screen,2_1_1_1_12,2022-05-02T10:47:51.429Z,,,,,,,,,,,,,,,,,54,,,,,,,,,,,,,,219.47900004769326,,response,,,,100,,,,,,,Space,keypress(Space),,,,,,,,-- --- ---- --- ------ ----- ------- ---- -- --- ------- --<br>issuing ---------- ------ -- ----- -- ----- -- ---- ------<br>--- ----- --- --- ------ -------- ----- --- ------ ----- --<br>----- ----- ---------- --- --- ------ ------ ---- -- ------<br>------- --- ------ ----- --- ---- ------- -- ---- --- --<br>------- ------,135459,135458.20000004768,135222.086,135218.40000009537,135238.721,135488.767,,12,issuing
screen,html.Screen,2_1_1_1_13,2022-05-02T10:47:51.654Z,,,,,,,,,,,,,,,,,54,,,,,,,,,,,,,,194.53299995232373,,response,,,,100,,,,,,,Space,keypress(Space),,,,,,,,-- --- ---- --- ------ ----- ------- ---- -- --- ------- --<br>------- government ------ -- ----- -- ----- -- ---- ------<br>--- ----- --- --- ------ -------- ----- --- ------ ----- --<br>----- ----- ---------- --- --- ------ ------ ---- -- ------<br>------- --- ------ ----- --- ---- ------- -- ---- --- --<br>------- ------,135684,135683.29999995232,135472.077,135459.09999990463,135488.767,135705.418,,13,government
screen,html.Screen,2_1_1_1_14,2022-05-02T10:47:51.881Z,,,,,,,,,,,,,,,,,54,,,,,,,,,,,,,,204.7820000476786,,response,,,,100,,,,,,,Space,keypress(Space),,,,,,,,-- --- ---- --- ------ ----- ------- ---- -- --- ------- --<br>------- ---------- bonds. -- ----- -- ----- -- ---- ------<br>--- ----- --- --- ------ -------- ----- --- ------ ----- --<br>----- ----- ---------- --- --- ------ ------ ---- -- ------<br>------- --- ------ ----- --- ---- ------- -- ---- --- --<br>------- ------,135910.90000009537,135910.20000004768,135689.066,135684.09999990463,135705.418,135938.814,,14,bonds.
screen,html.Screen,2_1_1_1_15,2022-05-02T10:47:52.105Z,,,,,,,,,,,,,,,,,54,,,,,,,,,,,,,,195.48599995230325,,response,,,,100,,,,,,,Space,keypress(Space),,,,,,,,-- --- ---- --- ------ ----- ------- ---- -- --- ------- --<br>------- ---------- ------ In ----- -- ----- -- ---- ------<br>--- ----- --- --- ------ -------- ----- --- ------ ----- --<br>----- ----- ---------- --- --- ------ ------ ---- -- ------<br>------- --- ------ ----- --- ---- ------- -- ---- --- --<br>------- ------,136134.90000009537,136134.29999995232,135922.092,135910.90000009537,135938.814,136155.549,,15,In
screen,html.Screen,2_1_1_1_16,2022-05-02T10:47:52.332Z,,,,,,,,,,,,,,,,,54,,,,,,,,,,,,,,205.35100009536836,,response,,,,100,,,,,,,Space,keypress(Space),,,,,,,,"-- --- ---- --- ------ ----- ------- ---- -- --- ------- --<br>------- ---------- ------ -- 1727, -- ----- -- ---- ------<br>--- ----- --- --- ------ -------- ----- --- ------ ----- --<br>----- ----- ---------- --- --- ------ ------ ---- -- ------<br>------- --- ------ ----- --- ---- ------- -- ---- --- --<br>------- ------",136361.5,136360.90000009537,136138.765,136135,136155.549,136390.907,,16,"1727,"
screen,html.Screen,2_1_1_1_17,2022-05-02T10:47:52.560Z,,,,,,,,,,,,,,,,,54,,,,,,,,,,,,,,197.59299999999348,,response,,,,100,,,,,,,Space,keypress(Space),,,,,,,,-- --- ---- --- ------ ----- ------- ---- -- --- ------- --<br>------- ---------- ------ -- ----- in ----- -- ---- ------<br>--- ----- --- --- ------ -------- ----- --- ------ ----- --<br>----- ----- ---------- --- --- ------ ------ ---- -- ------<br>------- --- ------ ----- --- ---- ------- -- ---- --- --<br>------- ------,136589.40000009537,136588.5,136372.107,136361.59999990463,136390.907,136605.382,,17,in
screen,html.Screen,2_1_1_1_18,2022-05-02T10:47:52.774Z,,,,,,,,,,,,,,,,,54,,,,,,,,,,,,,,197.71799990462023,,response,,,,100,,,,,,,Space,keypress(Space),,,,,,,,-- --- ---- --- ------ ----- ------- ---- -- --- ------- --<br>------- ---------- ------ -- ----- -- order -- ---- ------<br>--- ----- --- --- ------ -------- ----- --- ------ ----- --<br>----- ----- ---------- --- --- ------ ------ ---- -- ------<br>------- --- ------ ----- --- ---- ------- -- ---- --- --<br>------- ------,136804,136803.09999990463,136588.758,136589.40000009537,136605.382,136822.138,,18,order
screen,html.Screen,2_1_1_1_19,2022-05-02T10:47:53.015Z,,,,,,,,,,,,,,,,,54,,,,,,,,,,,,,,221.56200004767743,,response,,,,100,,,,,,,Space,keypress(Space),,,,,,,,-- --- ---- --- ------ ----- ------- ---- -- --- ------- --<br>------- ---------- ------ -- ----- -- ----- to ---- ------<br>--- ----- --- --- ------ -------- ----- --- ------ ----- --<br>----- ----- ---------- --- --- ------ ------ ---- -- ------<br>------- --- ------ ----- --- ---- ------- -- ---- --- --<br>------- ------,137044.5,137043.70000004768,136805.381,136804.09999990463,136822.138,137072.05,,19,to
screen,html.Screen,2_1_1_1_20,2022-05-02T10:47:53.227Z,,,,,,,,,,,,,,,,,54,,,,,,,,,,,,,,184.35000009537907,,response,,,,100,,,,,,,Space,keypress(Space),,,,,,,,-- --- ---- --- ------ ----- ------- ---- -- --- ------- --<br>------- ---------- ------ -- ----- -- ----- -- save ------<br>--- ----- --- --- ------ -------- ----- --- ------ ----- --<br>----- ----- ---------- --- --- ------ ------ ---- -- ------<br>------- --- ------ ----- --- ---- ------- -- ---- --- --<br>------- ------,137257.09999990463,137256.40000009537,137055.451,137044.59999990463,137072.05,137288.691,,20,save
screen,html.Screen,2_1_1_1_21,2022-05-02T10:47:53.452Z,,,,,,,,,,,,,,,,,54,,,,,,,,,,,,,,192.5090000476921,,response,,,,100,,,,,,,Space,keypress(Space),,,,,,,,"-- --- ---- --- ------ ----- ------- ---- -- --- ------- --<br>------- ---------- ------ -- ----- -- ----- -- ---- money,<br>--- ----- --- --- ------ -------- ----- --- ------ ----- --<br>----- ----- ---------- --- --- ------ ------ ---- -- ------<br>------- --- ------ ----- --- ---- ------- -- ---- --- --<br>------- ------",137482.09999990463,137481.20000004768,137272.097,137257.20000004768,137288.691,137505.432,,21,"money,"
screen,html.Screen,2_1_1_1_22,2022-05-02T10:47:53.673Z,,,,,,,,,,,,,,,,,54,,,,,,,,,,,,,,196.76800004768302,,response,,,,100,,,,,,,Space,keypress(Space),,,,,,,,-- --- ---- --- ------ ----- ------- ---- -- --- ------- --<br>------- ---------- ------ -- ----- -- ----- -- ---- ------<br>the ----- --- --- ------ -------- ----- --- ------ ----- --<br>----- ----- ---------- --- --- ------ ------ ---- -- ------<br>------- --- ------ ----- --- ---- ------- -- ---- --- --<br>------- ------,137702.79999995232,137702.20000004768,137488.736,137482.20000004768,137505.432,137722.113,,22,the
screen,html.Screen,2_1_1_1_23,2022-05-02T10:47:53.933Z,,,,,,,,,,,,,,,,,54,,,,,,,,,,,,,,239.78700009535532,,response,,,,100,,,,,,,Space,keypress(Space),,,,,,,,-- --- ---- --- ------ ----- ------- ---- -- --- ------- --<br>------- ---------- ------ -- ----- -- ----- -- ---- ------<br>--- state --- --- ------ -------- ----- --- ------ ----- --<br>----- ----- ---------- --- --- ------ ------ ---- -- ------<br>------- --- ------ ----- --- ---- ------- -- ---- --- --<br>------- ------,137963,137961.90000009537,137705.731,137702.79999995232,137722.113,137988.76,,23,state
screen,html.Screen,2_1_1_1_24,2022-05-02T10:47:54.152Z,,,,,,,,,,,,,,,,,54,,,,,,,,,,,,,,191.53999995230697,,response,,,,100,,,,,,,Space,keypress(Space),,,,,,,,-- --- ---- --- ------ ----- ------- ---- -- --- ------- --<br>------- ---------- ------ -- ----- -- ----- -- ---- ------<br>--- ----- cut --- ------ -------- ----- --- ------ ----- --<br>----- ----- ---------- --- --- ------ ------ ---- -- ------<br>------- --- ------ ----- --- ---- ------- -- ---- --- --<br>------- ------,138181.40000009537,138180.29999995232,137972.067,137963,137988.76,138205.417,,24,cut
screen,html.Screen,2_1_1_1_25,2022-05-02T10:47:54.351Z,,,,,,,,,,,,,,,,,54,,,,,,,,,,,,,,174.783000047697,,response,,,,100,,,,,,,Space,keypress(Space),,,,,,,,-- --- ---- --- ------ ----- ------- ---- -- --- ------- --<br>------- ---------- ------ -- ----- -- ----- -- ---- ------<br>--- ----- --- the ------ -------- ----- --- ------ ----- --<br>----- ----- ---------- --- --- ------ ------ ---- -- ------<br>------- --- ------ ----- --- ---- ------- -- ---- --- --<br>------- ------,138381,138380.20000004768,138188.763,138181.5,138205.417,138405.409,,25,the
screen,html.Screen,2_1_1_1_26,2022-05-02T10:47:54.570Z,,,,,,,,,,,,,,,,,54,,,,,,,,,,,,,,193.2910000476695,,response,,,,100,,,,,,,Space,keypress(Space),,,,,,,,-- --- ---- --- ------ ----- ------- ---- -- --- ------- --<br>------- ---------- ------ -- ----- -- ----- -- ---- ------<br>--- ----- --- --- bonds' -------- ----- --- ------ ----- --<br>----- ----- ---------- --- --- ------ ------ ---- -- ------<br>------- --- ------ ----- --- ---- ------- -- ---- --- --<br>------- ------,138599.40000009537,138598.70000004768,138388.71,138381.09999990463,138405.409,138622.09,,26,bonds'
screen,html.Screen,2_1_1_1_27,2022-05-02T10:47:54.778Z,,,,,,,,,,,,,,,,,54,,,,,,,,,,,,,,185.20999995231978,,response,,,,100,,,,,,,Space,keypress(Space),,,,,,,,-- --- ---- --- ------ ----- ------- ---- -- --- ------- --<br>------- ---------- ------ -- ----- -- ----- -- ---- ------<br>--- ----- --- --- ------ interest ----- --- ------ ----- --<br>----- ----- ---------- --- --- ------ ------ ---- -- ------<br>------- --- ------ ----- --- ---- ------- -- ---- --- --<br>------- ------,138808,138807.29999995232,138605.453,138599.40000009537,138622.09,138838.708,,27,interest
screen,html.Screen,2_1_1_1_28,2022-05-02T10:47:55.000Z,,,,,,,,,,,,,,,,,54,,,,,,,,,,,,,,190.49200004767044,,response,,,,100,,,,,,,Space,keypress(Space),,,,,,,,-- --- ---- --- ------ ----- ------- ---- -- --- ------- --<br>------- ---------- ------ -- ----- -- ----- -- ---- ------<br>--- ----- --- --- ------ -------- rate. --- ------ ----- --<br>----- ----- ---------- --- --- ------ ------ ---- -- ------<br>------- --- ------ ----- --- ---- ------- -- ---- --- --<br>------- ------,139030,139029.20000004768,138822.08,138808.09999990463,138838.708,139055.409,,28,rate.
screen,html.Screen,2_1_1_1_29,2022-05-02T10:47:55.220Z,,,,,,,,,,,,,,,,,54,,,,,,,,,,,,,,192.69099990461837,,response,,,,100,,,,,,,Space,keypress(Space),,,,,,,,-- --- ---- --- ------ ----- ------- ---- -- --- ------- --<br>------- ---------- ------ -- ----- -- ----- -- ---- ------<br>--- ----- --- --- ------ -------- ----- The ------ ----- --<br>----- ----- ---------- --- --- ------ ------ ---- -- ------<br>------- --- ------ ----- --- ---- ------- -- ---- --- --<br>------- ------,139249.20000004768,139248.09999990463,139038.73,139030.20000004768,139055.409,139272.22,,29,The
screen,html.Screen,2_1_1_1_30,2022-05-02T10:47:55.438Z,,,,,,,,,,,,,,,,,54,,,,,,,,,,,,,,194.57999995231512,,response,,,,100,,,,,,,Space,keypress(Space),,,,,,,,-- --- ---- --- ------ ----- ------- ---- -- --- ------- --<br>------- ---------- ------ -- ----- -- ----- -- ---- ------<br>--- ----- --- --- ------ -------- ----- --- market ----- --<br>----- ----- ---------- --- --- ------ ------ ---- -- ------<br>------- --- ------ ----- --- ---- ------- -- ---- --- --<br>------- ------,139467.59999990463,139466.79999995232,139255.417,139249.29999995232,139272.22,139489.293,,30,market
screen,html.Screen,2_1_1_1_31,2022-05-02T10:47:55.656Z,,,,,,,,,,,,,,,,,54,,,,,,,,,,,,,,195.6070000953623,,response,,,,100,,,,,,,Space,keypress(Space),,,,,,,,-- --- ---- --- ------ ----- ------- ---- -- --- ------- --<br>------- ---------- ------ -- ----- -- ----- -- ---- ------<br>--- ----- --- --- ------ -------- ----- --- ------ value --<br>----- ----- ---------- --- --- ------ ------ ---- -- ------<br>------- --- ------ ----- --- ---- ------- -- ---- --- --<br>------- ------,139685.59999990463,139684.90000009537,139472.011,139467.79999995232,139489.293,139705.347,,31,value
screen,html.Screen,2_1_1_1_32,2022-05-02T10:47:55.893Z,,,,,,,,,,,,,,,,,54,,,,,,,,,,,,,,216.05300009535858,,response,,,,100,,,,,,,Space,keypress(Space),,,,,,,,-- --- ---- --- ------ ----- ------- ---- -- --- ------- --<br>------- ---------- ------ -- ----- -- ----- -- ---- ------<br>--- ----- --- --- ------ -------- ----- --- ------ ----- of<br>----- ----- ---------- --- --- ------ ------ ---- -- ------<br>------- --- ------ ----- --- ---- ------- -- ---- --- --<br>------- ------,139922.29999995232,139921.40000009537,139688.69,139685.59999990463,139705.347,139938.742,,32,of
screen,html.Screen,2_1_1_1_33,2022-05-02T10:47:56.104Z,,,,,,,,,,,,,,,,,54,,,,,,,,,,,,,,194.5579999523179,,response,,,,100,,,,,,,Space,keypress(Space),,,,,,,,-- --- ---- --- ------ ----- ------- ---- -- --- ------- --<br>------- ---------- ------ -- ----- -- ----- -- ---- ------<br>--- ----- --- --- ------ -------- ----- --- ------ ----- --<br>these ----- ---------- --- --- ------ ------ ---- -- ------<br>------- --- ------ ----- --- ---- ------- -- ---- --- --<br>------- ------,140134.09999990463,140133.29999995232,139922.047,139922.40000009537,139938.742,140155.3,,33,these
screen,html.Screen,2_1_1_1_34,2022-05-02T10:47:56.336Z,,,,,,,,,,,,,,,,,54,,,,,,,,,,,,,,209.99999995232793,,response,,,,100,,,,,,,Space,keypress(Space),,,,,,,,-- --- ---- --- ------ ----- ------- ---- -- --- ------- --<br>------- ---------- ------ -- ----- -- ----- -- ---- ------<br>--- ----- --- --- ------ -------- ----- --- ------ ----- --<br>----- bonds ---------- --- --- ------ ------ ---- -- ------<br>------- --- ------ ----- --- ---- ------- -- ---- --- --<br>------- ------,140365.90000009537,140365.29999995232,140138.652,140134.20000004768,140155.3,140388.674,,34,bonds
screen,html.Screen,2_1_1_1_35,2022-05-02T10:47:56.557Z,,,,,,,,,,,,,,,,,54,,,,,,,,,,,,,,197.12599995231722,,response,,,,100,,,,,,,Space,keypress(Space),,,,,,,,"-- --- ---- --- ------ ----- ------- ---- -- --- ------- --<br>------- ---------- ------ -- ----- -- ----- -- ---- ------<br>--- ----- --- --- ------ -------- ----- --- ------ ----- --<br>----- ----- plummeted, --- --- ------ ------ ---- -- ------<br>------- --- ------ ----- --- ---- ------- -- ---- --- --<br>------- ------",140586.59999990463,140585.79999995232,140372.308,140366.09999990463,140388.674,140605.345,,35,"plummeted,"
screen,html.Screen,2_1_1_1_36,2022-05-02T10:47:56.763Z,,,,,,,,,,,,,,,,,54,,,,,,,,,,,,,,187.05500009536627,,response,,,,100,,,,,,,Space,keypress(Space),,,,,,,,-- --- ---- --- ------ ----- ------- ---- -- --- ------- --<br>------- ---------- ------ -- ----- -- ----- -- ---- ------<br>--- ----- --- --- ------ -------- ----- --- ------ ----- --<br>----- ----- ---------- and --- ------ ------ ---- -- ------<br>------- --- ------ ----- --- ---- ------- -- ---- --- --<br>------- ------,140793.20000004768,140792.40000009537,140588.678,140586.70000004768,140605.345,140822.01,,36,and
screen,html.Screen,2_1_1_1_37,2022-05-02T10:47:56.989Z,,,,,,,,,,,,,,,,,54,,,,,,,,,,,,,,195.39000009535812,,response,,,,100,,,,,,,Space,keypress(Space),,,,,,,,-- --- ---- --- ------ ----- ------- ---- -- --- ------- --<br>------- ---------- ------ -- ----- -- ----- -- ---- ------<br>--- ----- --- --- ------ -------- ----- --- ------ ----- --<br>----- ----- ---------- --- the ------ ------ ---- -- ------<br>------- --- ------ ----- --- ---- ------- -- ---- --- --<br>------- ------,141018.20000004768,141017.40000009537,140805.37,140793.20000004768,140822.01,141038.644,,37,the
screen,html.Screen,2_1_1_1_38,2022-05-02T10:47:57.200Z,,,,,,,,,,,,,,,,,54,,,,,,,,,,,,,,190.35599999999977,,response,,,,100,,,,,,,Space,keypress(Space),,,,,,,,-- --- ---- --- ------ ----- ------- ---- -- --- ------- --<br>------- ---------- ------ -- ----- -- ----- -- ---- ------<br>--- ----- --- --- ------ -------- ----- --- ------ ----- --<br>----- ----- ---------- --- --- market ------ ---- -- ------<br>------- --- ------ ----- --- ---- ------- -- ---- --- --<br>------- ------,141230,141229,141022.006,141018.40000009537,141038.644,141255.396,,38,market
screen,html.Screen,2_1_1_1_39,2022-05-02T10:47:57.410Z,,,,,,,,,,,,,,,,,54,,,,,,,,,,,,,,182.8040000476758,,response,,,,100,,,,,,,Space,keypress(Space),,,,,,,,-- --- ---- --- ------ ----- ------- ---- -- --- ------- --<br>------- ---------- ------ -- ----- -- ----- -- ---- ------<br>--- ----- --- --- ------ -------- ----- --- ------ ----- --<br>----- ----- ---------- --- --- ------ became ---- -- ------<br>------- --- ------ ----- --- ---- ------- -- ---- --- --<br>------- ------,141439.59999990463,141438.20000004768,141238.706,141230.09999990463,141255.396,141455.489,,39,became
screen,html.Screen,2_1_1_1_40,2022-05-02T10:47:57.611Z,,,,,,,,,,,,,,,,,54,,,,,,,,,,,,,,184.5109999999986,,response,,,,100,,,,,,,Space,keypress(Space),,,,,,,,-- --- ---- --- ------ ----- ------- ---- -- --- ------- --<br>------- ---------- ------ -- ----- -- ----- -- ---- ------<br>--- ----- --- --- ------ -------- ----- --- ------ ----- --<br>----- ----- ---------- --- --- ------ ------ wary -- ------<br>------- --- ------ ----- --- ---- ------- -- ---- --- --<br>------- ------,141640.90000009537,141640,141438.646,141439.70000004768,141455.489,141671.988,,40,wary
screen,html.Screen,2_1_1_1_41,2022-05-02T10:47:57.836Z,,,,,,,,,,,,,,,,,54,,,,,,,,,,,,,,193.31199995230418,,response,,,,100,,,,,,,Space,keypress(Space),,,,,,,,-- --- ---- --- ------ ----- ------- ---- -- --- ------- --<br>------- ---------- ------ -- ----- -- ----- -- ---- ------<br>--- ----- --- --- ------ -------- ----- --- ------ ----- --<br>----- ----- ---------- --- --- ------ ------ ---- of ------<br>------- --- ------ ----- --- ---- ------- -- ---- --- --<br>------- ------,141866.09999990463,141865.29999995232,141655.353,141641,141671.988,141888.657,,41,of
screen,html.Screen,2_1_1_1_42,2022-05-02T10:47:58.049Z,,,,,,,,,,,,,,,,,54,,,,,,,,,,,,,,189.0430000476772,,response,,,,100,,,,,,,Space,keypress(Space),,,,,,,,-- --- ---- --- ------ ----- ------- ---- -- --- ------- --<br>------- ---------- ------ -- ----- -- ----- -- ---- ------<br>--- ----- --- --- ------ -------- ----- --- ------ ----- --<br>----- ----- ---------- --- --- ------ ------ ---- -- French<br>------- --- ------ ----- --- ---- ------- -- ---- --- --<br>------- ------,142078.40000009537,142077.70000004768,141872.262,141866.29999995232,141888.657,142105.296,,42,French
screen,html.Screen,2_1_1_1_43,2022-05-02T10:47:58.282Z,,,,,,,,,,,,,,,,,54,,,,,,,,,,,,,,205.40400004768162,,response,,,,100,,,,,,,Space,keypress(Space),,,,,,,,-- --- ---- --- ------ ----- ------- ---- -- --- ------- --<br>------- ---------- ------ -- ----- -- ----- -- ---- ------<br>--- ----- --- --- ------ -------- ----- --- ------ ----- --<br>----- ----- ---------- --- --- ------ ------ ---- -- ------<br>credit. --- ------ ----- --- ---- ------- -- ---- --- --<br>------- ------,142311.29999995232,142310.70000004768,142088.655,142078.5,142105.296,142338.638,,43,credit.
screen,html.Screen,2_1_1_1_44,2022-05-02T10:47:58.518Z,,,,,,,,,,,,,,,,,54,,,,,,,,,,,,,,208.46199990462628,,response,,,,100,,,,,,,Space,keypress(Space),,,,,,,,-- --- ---- --- ------ ----- ------- ---- -- --- ------- --<br>------- ---------- ------ -- ----- -- ----- -- ---- ------<br>--- ----- --- --- ------ -------- ----- --- ------ ----- --<br>----- ----- ---------- --- --- ------ ------ ---- -- ------<br>------- The ------ ----- --- ---- ------- -- ---- --- --<br>------- ------,142547.90000009537,142547.09999990463,142321.962,142311.5,142338.638,142571.958,,44,The
screen,html.Screen,2_1_1_1_45,2022-05-02T10:47:58.953Z,,,,,,,,,,,,,,,,,54,,,,,,,,,,,,,,409.54199999998673,,response,,,,100,,,,,,,Space,keypress(Space),,,,,,,,-- --- ---- --- ------ ----- ------- ---- -- --- ------- --<br>------- ---------- ------ -- ----- -- ----- -- ---- ------<br>--- ----- --- --- ------ -------- ----- --- ------ ----- --<br>----- ----- ---------- --- --- ------ ------ ---- -- ------<br>------- --- French ----- --- ---- ------- -- ---- --- --<br>------- ------,142982.5,142981.5,142555.28,142548,142571.958,143005.293,,45,French
screen,html.Screen,2_1_1_1_46,2022-05-02T10:47:59.172Z,,,,,,,,,,,,,,,,,54,,,,,,,,,,,,,,195.1070000953623,,response,,,,100,,,,,,,Space,keypress(Space),,,,,,,,-- --- ---- --- ------ ----- ------- ---- -- --- ------- --<br>------- ---------- ------ -- ----- -- ----- -- ---- ------<br>--- ----- --- --- ------ -------- ----- --- ------ ----- --<br>----- ----- ---------- --- --- ------ ------ ---- -- ------<br>------- --- ------ state --- ---- ------- -- ---- --- --<br>------- ------,143201.70000004768,143200.40000009537,142988.658,142982.59999990463,143005.293,143222.002,,46,state
screen,html.Screen,2_1_1_1_47,2022-05-02T10:47:59.399Z,,,,,,,,,,,,,,,,,54,,,,,,,,,,,,,,206.2979999523086,,response,,,,100,,,,,,,Space,keypress(Space),,,,,,,,-- --- ---- --- ------ ----- ------- ---- -- --- ------- --<br>------- ---------- ------ -- ----- -- ----- -- ---- ------<br>--- ----- --- --- ------ -------- ----- --- ------ ----- --<br>----- ----- ---------- --- --- ------ ------ ---- -- ------<br>------- --- ------ ----- was ---- ------- -- ---- --- --<br>------- ------,143429.09999990463,143428.29999995232,143205.403,143201.70000004768,143222.002,143455.287,,47,was
screen,html.Screen,2_1_1_1_48,2022-05-02T10:47:59.619Z,,,,,,,,,,,,,,,,,54,,,,,,,,,,,,,,192.8129999046214,,response,,,,100,,,,,,,Space,keypress(Space),,,,,,,,-- --- ---- --- ------ ----- ------- ---- -- --- ------- --<br>------- ---------- ------ -- ----- -- ----- -- ---- ------<br>--- ----- --- --- ------ -------- ----- --- ------ ----- --<br>----- ----- ---------- --- --- ------ ------ ---- -- ------<br>------- --- ------ ----- --- left ------- -- ---- --- --<br>------- ------,143648.79999995232,143648.09999990463,143438.621,143429.20000004768,143455.287,143671.95,,48,left
screen,html.Screen,2_1_1_1_49,2022-05-02T10:48:00.295Z,,,,,,,,,,,,,,,,,54,,,,,,,,,,,,,,652.1499999046209,,response,,,,100,,,,,,,Space,keypress(Space),,,,,,,,-- --- ---- --- ------ ----- ------- ---- -- --- ------- --<br>------- ---------- ------ -- ----- -- ----- -- ---- ------<br>--- ----- --- --- ------ -------- ----- --- ------ ----- --<br>----- ----- ---------- --- --- ------ ------ ---- -- ------<br>------- --- ------ ----- --- ---- without -- ---- --- --<br>------- ------,144324.79999995232,144324.09999990463,143655.319,143648.90000009537,143671.95,144355.258,,49,without
screen,html.Screen,2_1_1_1_50,2022-05-02T10:48:00.529Z,,,,,,,,,,,,,,,,,54,,,,,,,,,,,,,,202.6420000953658,,response,,,,100,,,,,,,Space,keypress(Space),,,,,,,,-- --- ---- --- ------ ----- ------- ---- -- --- ------- --<br>------- ---------- ------ -- ----- -- ----- -- ---- ------<br>--- ----- --- --- ------ -------- ----- --- ------ ----- --<br>----- ----- ---------- --- --- ------ ------ ---- -- ------<br>------- --- ------ ----- --- ---- ------- an ---- --- --<br>------- ------,144559,144557.90000009537,144338.601,144325,144355.258,144588.631,,50,an
screen,html.Screen,2_1_1_1_51,2022-05-02T10:48:00.755Z,,,,,,,,,,,,,,,,,54,,,,,,,,,,,,,,195.66899995232234,,response,,,,100,,,,,,,Space,keypress(Space),,,,,,,,-- --- ---- --- ------ ----- ------- ---- -- --- ------- --<br>------- ---------- ------ -- ----- -- ----- -- ---- ------<br>--- ----- --- --- ------ -------- ----- --- ------ ----- --<br>----- ----- ---------- --- --- ------ ------ ---- -- ------<br>------- --- ------ ----- --- ---- ------- -- easy --- --<br>------- ------,144785,144784.29999995232,144571.907,144559.09999990463,144588.631,144805.542,,51,easy
screen,html.Screen,2_1_1_1_52,2022-05-02T10:48:00.988Z,,,,,,,,,,,,,,,,,54,,,,,,,,,,,,,,210.95800000001327,,response,,,,100,,,,,,,Space,keypress(Space),,,,,,,,-- --- ---- --- ------ ----- ------- ---- -- --- ------- --<br>------- ---------- ------ -- ----- -- ----- -- ---- ------<br>--- ----- --- --- ------ -------- ----- --- ------ ----- --<br>----- ----- ---------- --- --- ------ ------ ---- -- ------<br>------- --- ------ ----- --- ---- ------- -- ---- way --<br>------- ------,145017.20000004768,145016.5,144791.811,144785.09999990463,144805.542,145038.573,,52,way
screen,html.Screen,2_1_1_1_53,2022-05-02T10:48:01.246Z,,,,,,,,,,,,,,,,,54,,,,,,,,,,,,,,235.62700004767976,,response,,,,100,,,,,,,Space,keypress(Space),,,,,,,,-- --- ---- --- ------ ----- ------- ---- -- --- ------- --<br>------- ---------- ------ -- ----- -- ----- -- ---- ------<br>--- ----- --- --- ------ -------- ----- --- ------ ----- --<br>----- ----- ---------- --- --- ------ ------ ---- -- ------<br>------- --- ------ ----- --- ---- ------- -- ---- --- of<br>------- ------,145275.59999990463,145274.20000004768,145021.929,145017.29999995232,145038.573,145305.269,,53,of
screen,html.Screen,2_1_1_1_54,2022-05-02T10:48:01.471Z,,,,,,,,,,,,,,,,,54,,,,,,,,,,,,,,193.93100004768348,,response,,,,100,,,,,,,Space,keypress(Space),,,,,,,,-- --- ---- --- ------ ----- ------- ---- -- --- ------- --<br>------- ---------- ------ -- ----- -- ----- -- ---- ------<br>--- ----- --- --- ------ -------- ----- --- ------ ----- --<br>----- ----- ---------- --- --- ------ ------ ---- -- ------<br>------- --- ------ ----- --- ---- ------- -- ---- --- --<br>raising ------,145500.5,145499.20000004768,145288.585,145275.70000004768,145305.269,145521.932,,54,raising
screen,html.Screen,2_1_1_1_55,2022-05-02T10:48:01.699Z,,,,,,,,,,,,,,,,,54,,,,,,,,,,,,,,205.96800009536673,,response,,,,100,,,,,,,Space,keypress(Space),,,,,,,,-- --- ---- --- ------ ----- ------- ---- -- --- ------- --<br>------- ---------- ------ -- ----- -- ----- -- ---- ------<br>--- ----- --- --- ------ -------- ----- --- ------ ----- --<br>----- ----- ---------- --- --- ------ ------ ---- -- ------<br>------- --- ------ ----- --- ---- ------- -- ---- --- --<br>------- money.,145728.5,145727.90000009537,145505.247,145500.70000004768,145521.932,145755.491,,55,money.
Item 100,flow.Loop,2_1_1_1,2022-05-02T10:48:01.699Z,,,,,,,,,,,,,,,,,,,,,,,,,,,,,,,14055.800000095362,,completion,,,,,F,,,,,,,,,,,silence,,,,,145728.70000004768,145727.90000009537,131655.509,131663.29999995232,131672.1,145755.491,,,
Question 1,html.Screen,2_1_1_2,2022-05-02T10:48:04.061Z,,,,,,,,,,,,,,,,,,,,,,,,,,,,true,TRUE,,2333.808999952307,,response,,,,100,F,,,,,,TRUE,click #choice-1,,,,silence,,,,,148090.70000004768,148089.29999995232,145738.589,145728.70000004768,145755.491,148105.382,,,
Question 2,html.Screen,2_1_1_3,2022-05-02T10:48:05.613Z,,,,,,,,,,,,,,,,,,,,,,,,,,,,true,FALSE,,1536.2179999046202,,response,,,,100,F,,,,,,FALSE,click #choice-2,,,,silence,,,,,149642.70000004768,149641.59999990463,148088.522,148090.79999995232,148105.382,149671.9,,,
Item 100,flow.Sequence,2_1_1,2022-05-02T10:48:05.613Z,,,,,,,,,,,,,,,,,,,,,,,,,,,,,,,27969.26199990463,,completion,,,,,,,,,,,,,,,,,,,,,149642.79999995232,149641.59999990463,121655.952,121650.59999990463,121672.338,149671.9,,,
End of Practice,html.Page,2_1_2,2022-05-02T10:48:09.645Z,,,,,,,,,,,,,,,,,,,,,,,,,,,,,,,4002.5000000953733,,form submission,,,,,,,,,,,,,,,,,,,,,153674.90000009537,153674.40000009537,149655.193,149642.90000009537,149671.9,153705.122,,,
Practice,flow.Sequence,2_1,2022-05-02T10:48:09.645Z,,,,,,,,,,,,,,,,,,,,,,,,,,,,,,,63651.485000095374,,completion,,,,,,,,,,,,,,,,,,,,,153675.09999990463,153674.40000009537,90006.263,90016.29999995232,90022.915,153705.122,,,
Trap_instruction,html.Page,2_2_0,2022-05-02T10:48:12.766Z,,,,,,,,,,,,,,,,,,,,,,,,,,,,,,,3090.377999999997,,form submission,,,,,,,,,,,,,,,,,,,,,156796.09999990463,156795.5,153688.485,153675.20000004768,153705.122,156821.858,,,
trap_trial,html.Screen,2_2_1,2022-05-02T10:48:21.350Z,,,,,,,,,,,,,,,,,,,,,,,,,,,,true,1,,8556.342000047676,,response,,,,,,,,,,,1,click #choice-1,,,,,,,,,165379.59999990463,165378.20000004768,156788.382,156796.20000004768,156821.858,165404.84,,,
end of trap trial,html.Page,2_2_2,2022-05-02T10:48:23.589Z,,,,,,,,,,,,,,,,,,,,,,,,,,,,,,,2213.560000095371,,form submission,,,,,,,,,,,,,,,,,,,,,167618.70000004768,167618.40000009537,165388.241,165379.79999995232,165404.84,167638.215,,,
Trap 1,flow.Sequence,2_2,2022-05-02T10:48:23.589Z,,,,,,,,,,,,,,,,,,,,,,,,,,,,,,,13913.278000095364,,completion,,,,,,,,,,,,,,,,,,,,,167619,167618.40000009537,153688.485,153675.09999990463,153705.122,167638.215,,,
Standby,html.Page,2_3_0,2022-05-02T10:48:31.593Z,,,,,,,,,,,,,,,,,,,,,,,,,,,,,,,8002.181000000011,,timeout,,,,,,,,,,,,,,,,,,,,,175622.20000004768,175621.365,167621.507,167619.09999990463,167638.215,175640.396,,,
Holding screen,html.Screen,2_3_1_0_0,2022-05-02T10:48:38.592Z,,,,,,,,,,,,,,,,,,,,,,,,,,,,,,,6997.437000000005,,timeout,,,,,,,,,,,,,,,,,,,,,182621.79999995232,182621.242,175621.365,175622.40000009537,175640.396,182637.833,,,
screen,html.Screen,2_3_1_0_1_0,2022-05-02T10:48:39.883Z,,,,,,,,,,,,,,,,,40,,,,,,,,,,,,,,1274.466999952303,,response,,,,9,F,,,,,,Space,keypress(Space),,,,lyrical,,,,Police -- ------- ---- ---- ---- - -------- ----- --- --<br>----- ----- ------ -- ---- -- --- - ---- -- - ----- -----<br>------ ---- ------ ---- - -------- ------- -- --- --------<br>-------- ----------- ---- ------ ---- ------ ---- --- ---<br>-------- --- -----,183913,183912.29999995232,182621.242,182622,182637.833,183937.912,,0,Police
screen,html.Screen,2_3_1_0_1_1,2022-05-02T10:48:40.207Z,,,,,,,,,,,,,,,,,40,,,,,,,,,,,,,,298.0879999999888,,response,,,,9,F,,,,,,Space,keypress(Space),,,,lyrical,,,,------ in ------- ---- ---- ---- - -------- ----- --- --<br>----- ----- ------ -- ---- -- --- - ---- -- - ----- -----<br>------ ---- ------ ---- - -------- ------- -- --- --------<br>-------- ----------- ---- ------ ---- ------ ---- --- ---<br>-------- --- -----,184236.90000009537,184236,183921.232,183913.09999990463,183937.912,184254.915,,1,in
screen,html.Screen,2_3_1_0_1_2,2022-05-02T10:48:40.489Z,,,,,,,,,,,,,,,,,40,,,,,,,,,,,,,,262.6849999046244,,response,,,,9,F,,,,,,Space,keypress(Space),,,,lyrical,,,,------ -- Georgia ---- ---- ---- - -------- ----- --- --<br>----- ----- ------ -- ---- -- --- - ---- -- - ----- -----<br>------ ---- ------ ---- - -------- ------- -- --- --------<br>-------- ----------- ---- ------ ---- ------ ---- --- ---<br>-------- --- -----,184518.20000004768,184517.59999990463,184237.878,184237,184254.915,184537.893,,2,Georgia
screen,html.Screen,2_3_1_0_1_3,2022-05-02T10:48:40.762Z,,,,,,,,,,,,,,,,,40,,,,,,,,,,,,,,252.90699995230534,,response,,,,9,F,,,,,,Space,keypress(Space),,,,lyrical,,,,------ -- ------- have ---- ---- - -------- ----- --- --<br>----- ----- ------ -- ---- -- --- - ---- -- - ----- -----<br>------ ---- ------ ---- - -------- ------- -- --- --------<br>-------- ----------- ---- ------ ---- ------ ---- --- ---<br>-------- --- -----,184791.40000009537,184790.79999995232,184521.482,184518.29999995232,184537.893,184821.219,,3,have
screen,html.Screen,2_3_1_0_1_4,2022-05-02T10:48:41.052Z,,,,,,,,,,,,,,,,,40,,,,,,,,,,,,,,259.18100009535556,,response,,,,9,F,,,,,,Space,keypress(Space),,,,lyrical,,,,------ -- ------- ---- shut ---- - -------- ----- --- --<br>----- ----- ------ -- ---- -- --- - ---- -- - ----- -----<br>------ ---- ------ ---- - -------- ------- -- --- --------<br>-------- ----------- ---- ------ ---- ------ ---- --- ---<br>-------- --- -----,185081.20000004768,185080.40000009537,184804.537,184791.5,184821.219,185104.533,,4,shut
screen,html.Screen,2_3_1_0_1_5,2022-05-02T10:48:41.324Z,,,,,,,,,,,,,,,,,40,,,,,,,,,,,,,,247.86700009537162,,response,,,,9,F,,,,,,Space,keypress(Space),,,,lyrical,,,,------ -- ------- ---- ---- down - -------- ----- --- --<br>----- ----- ------ -- ---- -- --- - ---- -- - ----- -----<br>------ ---- ------ ---- - -------- ------- -- --- --------<br>-------- ----------- ---- ------ ---- ------ ---- --- ---<br>-------- --- -----,185353.09999990463,185352.40000009537,185087.895,185081.29999995232,185104.533,185371.206,,5,down
screen,html.Screen,2_3_1_0_1_6,2022-05-02T10:48:41.606Z,,,,,,,,,,,,,,,,,40,,,,,,,,,,,,,,263.893999904627,,response,,,,9,F,,,,,,Space,keypress(Space),,,,lyrical,,,,------ -- ------- ---- ---- ---- a -------- ----- --- --<br>----- ----- ------ -- ---- -- --- - ---- -- - ----- -----<br>------ ---- ------ ---- - -------- ------- -- --- --------<br>-------- ----------- ---- ------ ---- ------ ---- --- ---<br>-------- --- -----,185636,185635.09999990463,185354.6,185353.20000004768,185371.206,185654.584,,6,a
screen,html.Screen,2_3_1_0_1_7,2022-05-02T10:48:41.877Z,,,,,,,,,,,,,,,,,40,,,,,,,,,,,,,,250.91599999999744,,response,,,,9,F,,,,,,Space,keypress(Space),,,,lyrical,,,,------ -- ------- ---- ---- ---- - lemonade ----- --- --<br>----- ----- ------ -- ---- -- --- - ---- -- - ----- -----<br>------ ---- ------ ---- - -------- ------- -- --- --------<br>-------- ----------- ---- ------ ---- ------ ---- --- ---<br>-------- --- -----,185906.20000004768,185905.5,185637.838,185636.20000004768,185654.584,185937.886,,7,lemonade
screen,html.Screen,2_3_1_0_1_8,2022-05-02T10:48:42.183Z,,,,,,,,,,,,,,,,,40,,,,,,,,,,,,,,274.3140000476851,,response,,,,9,F,,,,,,Space,keypress(Space),,,,lyrical,,,,------ -- ------- ---- ---- ---- - -------- stand --- --<br>----- ----- ------ -- ---- -- --- - ---- -- - ----- -----<br>------ ---- ------ ---- - -------- ------- -- --- --------<br>-------- ----------- ---- ------ ---- ------ ---- --- ---<br>-------- --- -----,186212.90000009537,186212.20000004768,185921.477,185906.20000004768,185937.886,186237.845,,8,stand
screen,html.Screen,2_3_1_0_1_9,2022-05-02T10:48:42.415Z,,,,,,,,,,,,,,,,,40,,,,,,,,,,,,,,206.15499999999884,,response,,,,9,F,,,,,,Space,keypress(Space),,,,lyrical,,,,------ -- ------- ---- ---- ---- - -------- ----- run --<br>----- ----- ------ -- ---- -- --- - ---- -- - ----- -----<br>------ ---- ------ ---- - -------- ------- -- --- --------<br>-------- ----------- ---- ------ ---- ------ ---- --- ---<br>-------- --- -----,186444.70000004768,186444,186221.216,186213,186237.845,186471.401,,9,run
screen,html.Screen,2_3_1_0_1_10,2022-05-02T10:48:42.666Z,,,,,,,,,,,,,,,,,40,,,,,,,,,,,,,,222.99900009535486,,response,,,,9,F,,,,,,Space,keypress(Space),,,,lyrical,,,,------ -- ------- ---- ---- ---- - -------- ----- --- by<br>----- ----- ------ -- ---- -- --- - ---- -- - ----- -----<br>------ ---- ------ ---- - -------- ------- -- --- --------<br>-------- ----------- ---- ------ ---- ------ ---- --- ---<br>-------- --- -----,186695.09999990463,186694.40000009537,186454.485,186444.79999995232,186471.401,186721.194,,10,by
screen,html.Screen,2_3_1_0_1_11,2022-05-02T10:48:42.968Z,,,,,,,,,,,,,,,,,40,,,,,,,,,,,,,,274.8060000000114,,response,,,,9,F,,,,,,Space,keypress(Space),,,,lyrical,,,,------ -- ------- ---- ---- ---- - -------- ----- --- --<br>three ----- ------ -- ---- -- --- - ---- -- - ----- -----<br>------ ---- ------ ---- - -------- ------- -- --- --------<br>-------- ----------- ---- ------ ---- ------ ---- --- ---<br>-------- --- -----,186997.79999995232,186996,186704.603,186695.20000004768,186721.194,187021.199,,11,three
screen,html.Screen,2_3_1_0_1_12,2022-05-02T10:48:43.218Z,,,,,,,,,,,,,,,,,40,,,,,,,,,,,,,,225.60099995232304,,response,,,,9,F,,,,,,Space,keypress(Space),,,,lyrical,,,,------ -- ------- ---- ---- ---- - -------- ----- --- --<br>----- girls ------ -- ---- -- --- - ---- -- - ----- -----<br>------ ---- ------ ---- - -------- ------- -- --- --------<br>-------- ----------- ---- ------ ---- ------ ---- --- ---<br>-------- --- -----,187247.40000009537,187246.79999995232,187004.556,186997.90000009537,187021.199,187271.205,,12,girls
screen,html.Screen,2_3_1_0_1_13,2022-05-02T10:48:43.479Z,,,,,,,,,,,,,,,,,40,,,,,,,,,,,,,,236.99500004769652,,response,,,,9,F,,,,,,Space,keypress(Space),,,,lyrical,,,,------ -- ------- ---- ---- ---- - -------- ----- --- --<br>----- ----- trying -- ---- -- --- - ---- -- - ----- -----<br>------ ---- ------ ---- - -------- ------- -- --- --------<br>-------- ----------- ---- ------ ---- ------ ---- --- ---<br>-------- --- -----,187508.90000009537,187508.20000004768,187254.658,187247.59999990463,187271.205,187537.82,,13,trying
screen,html.Screen,2_3_1_0_1_14,2022-05-02T10:48:43.738Z,,,,,,,,,,,,,,,,,40,,,,,,,,,,,,,,228.4799999523093,,response,,,,9,F,,,,,,Space,keypress(Space),,,,lyrical,,,,------ -- ------- ---- ---- ---- - -------- ----- --- --<br>----- ----- ------ to ---- -- --- - ---- -- - ----- -----<br>------ ---- ------ ---- - -------- ------- -- --- --------<br>-------- ----------- ---- ------ ---- ------ ---- --- ---<br>-------- --- -----,187767.09999990463,187766.29999995232,187521.19,187509,187537.82,187787.805,,14,to
screen,html.Screen,2_3_1_0_1_15,2022-05-02T10:48:44.004Z,,,,,,,,,,,,,,,,,40,,,,,,,,,,,,,,244.09500009537442,,response,,,,9,F,,,,,,Space,keypress(Space),,,,lyrical,,,,------ -- ------- ---- ---- ---- - -------- ----- --- --<br>----- ----- ------ -- save -- --- - ---- -- - ----- -----<br>------ ---- ------ ---- - -------- ------- -- --- --------<br>-------- ----------- ---- ------ ---- ------ ---- --- ---<br>-------- --- -----,188033.20000004768,188031.90000009537,187771.399,187767.29999995232,187787.805,188054.551,,15,save
screen,html.Screen,2_3_1_0_1_16,2022-05-02T10:48:44.296Z,,,,,,,,,,,,,,,,,40,,,,,,,,,,,,,,269.94899999999325,,response,,,,9,F,,,,,,Space,keypress(Space),,,,lyrical,,,,------ -- ------- ---- ---- ---- - -------- ----- --- --<br>----- ----- ------ -- ---- up --- - ---- -- - ----- -----<br>------ ---- ------ ---- - -------- ------- -- --- --------<br>-------- ----------- ---- ------ ---- ------ ---- --- ---<br>-------- --- -----,188325.20000004768,188324.5,188037.791,188033.20000004768,188054.551,188354.509,,16,up
screen,html.Screen,2_3_1_0_1_17,2022-05-02T10:48:44.576Z,,,,,,,,,,,,,,,,,40,,,,,,,,,,,,,,249.8910000953765,,response,,,,9,F,,,,,,Space,keypress(Space),,,,lyrical,,,,------ -- ------- ---- ---- ---- - -------- ----- --- --<br>----- ----- ------ -- ---- -- for - ---- -- - ----- -----<br>------ ---- ------ ---- - -------- ------- -- --- --------<br>-------- ----------- ---- ------ ---- ------ ---- --- ---<br>-------- --- -----,188605.20000004768,188604.40000009537,188337.84,188325.40000009537,188354.509,188621.172,,17,for
screen,html.Screen,2_3_1_0_1_18,2022-05-02T10:48:44.820Z,,,,,,,,,,,,,,,,,40,,,,,,,,,,,,,,227.82800000000861,,response,,,,9,F,,,,,,Space,keypress(Space),,,,lyrical,,,,------ -- ------- ---- ---- ---- - -------- ----- --- --<br>----- ----- ------ -- ---- -- --- a ---- -- - ----- -----<br>------ ---- ------ ---- - -------- ------- -- --- --------<br>-------- ----------- ---- ------ ---- ------ ---- --- ---<br>-------- --- -----,188849.79999995232,188849,188604.451,188605.40000009537,188621.172,188871.255,,18,a
screen,html.Screen,2_3_1_0_1_19,2022-05-02T10:48:45.051Z,,,,,,,,,,,,,,,,,40,,,,,,,,,,,,,,208.3449999046279,,response,,,,9,F,,,,,,Space,keypress(Space),,,,lyrical,,,,------ -- ------- ---- ---- ---- - -------- ----- --- --<br>----- ----- ------ -- ---- -- --- - trip -- - ----- -----<br>------ ---- ------ ---- - -------- ------- -- --- --------<br>-------- ----------- ---- ------ ---- ------ ---- --- ---<br>-------- --- -----,189080.40000009537,189079.59999990463,188854.774,188849.90000009537,188871.255,189104.473,,19,trip
screen,html.Screen,2_3_1_0_1_20,2022-05-02T10:48:45.279Z,,,,,,,,,,,,,,,,,40,,,,,,,,,,,,,,203.82699995231815,,response,,,,9,F,,,,,,Space,keypress(Space),,,,lyrical,,,,------ -- ------- ---- ---- ---- - -------- ----- --- --<br>----- ----- ------ -- ---- -- --- - ---- to - ----- -----<br>------ ---- ------ ---- - -------- ------- -- --- --------<br>-------- ----------- ---- ------ ---- ------ ---- --- ---<br>-------- --- -----,189309,189308.29999995232,189087.827,189080.5,189104.473,189337.783,,20,to
screen,html.Screen,2_3_1_0_1_21,2022-05-02T10:48:45.507Z,,,,,,,,,,,,,,,,,40,,,,,,,,,,,,,,197.31699990463676,,response,,,,9,F,,,,,,Space,keypress(Space),,,,lyrical,,,,------ -- ------- ---- ---- ---- - -------- ----- --- --<br>----- ----- ------ -- ---- -- --- - ---- -- a ----- -----<br>------ ---- ------ ---- - -------- ------- -- --- --------<br>-------- ----------- ---- ------ ---- ------ ---- --- ---<br>-------- --- -----,189536.09999990463,189535.09999990463,189321.152,189309.09999990463,189337.783,189554.415,,21,a
screen,html.Screen,2_3_1_0_1_22,2022-05-02T10:48:45.734Z,,,,,,,,,,,,,,,,,40,,,,,,,,,,,,,,208.28500004767557,,response,,,,9,F,,,,,,Space,keypress(Space),,,,lyrical,,,,------ -- ------- ---- ---- ---- - -------- ----- --- --<br>----- ----- ------ -- ---- -- --- - ---- -- - water -----<br>------ ---- ------ ---- - -------- ------- -- --- --------<br>-------- ----------- ---- ------ ---- ------ ---- --- ---<br>-------- --- -----,189763.40000009537,189762.70000004768,189537.794,189536.29999995232,189554.415,189787.797,,22,water
screen,html.Screen,2_3_1_0_1_23,2022-05-02T10:48:45.978Z,,,,,,,,,,,,,,,,,40,,,,,,,,,,,,,,218.70300000000861,,response,,,,9,F,,,,,,Space,keypress(Space),,,,lyrical,,,,"------ -- ------- ---- ---- ---- - -------- ----- --- --<br>----- ----- ------ -- ---- -- --- - ---- -- - ----- park,<br>------ ---- ------ ---- - -------- ------- -- --- --------<br>-------- ----------- ---- ------ ---- ------ ---- --- ---<br>-------- --- -----",190007.20000004768,190006.5,189771.126,189763.40000009537,189787.797,190037.767,,23,"park,"
screen,html.Screen,2_3_1_0_1_24,2022-05-02T10:48:46.250Z,,,,,,,,,,,,,,,,,40,,,,,,,,,,,,,,241.43300004769117,,response,,,,9,F,,,,,,Space,keypress(Space),,,,lyrical,,,,------ -- ------- ---- ---- ---- - -------- ----- --- --<br>----- ----- ------ -- ---- -- --- - ---- -- - ----- -----<br>saying ---- ------ ---- - -------- ------- -- --- --------<br>-------- ----------- ---- ------ ---- ------ ---- --- ---<br>-------- --- -----,190279.90000009537,190279.20000004768,190021.149,190007.40000009537,190037.767,190304.424,,24,saying
screen,html.Screen,2_3_1_0_1_25,2022-05-02T10:48:46.467Z,,,,,,,,,,,,,,,,,40,,,,,,,,,,,,,,191.6759999046335,,response,,,,9,F,,,,,,Space,keypress(Space),,,,lyrical,,,,------ -- ------- ---- ---- ---- - -------- ----- --- --<br>----- ----- ------ -- ---- -- --- - ---- -- - ----- -----<br>------ they ------ ---- - -------- ------- -- --- --------<br>-------- ----------- ---- ------ ---- ------ ---- --- ---<br>-------- --- -----,190496.79999995232,190496.09999990463,190287.803,190280.09999990463,190304.424,190521.133,,25,they
screen,html.Screen,2_3_1_0_1_26,2022-05-02T10:48:46.682Z,,,,,,,,,,,,,,,,,40,,,,,,,,,,,,,,189.5670000476821,,response,,,,9,F,,,,,,Space,keypress(Space),,,,lyrical,,,,------ -- ------- ---- ---- ---- - -------- ----- --- --<br>----- ----- ------ -- ---- -- --- - ---- -- - ----- -----<br>------ ---- didn't ---- - -------- ------- -- --- --------<br>-------- ----------- ---- ------ ---- ------ ---- --- ---<br>-------- --- -----,190711.40000009537,190710.70000004768,190504.458,190496.90000009537,190521.133,190737.835,,26,didn't
screen,html.Screen,2_3_1_0_1_27,2022-05-02T10:48:46.883Z,,,,,,,,,,,,,,,,,40,,,,,,,,,,,,,,173.96499995232443,,response,,,,9,F,,,,,,Space,keypress(Space),,,,lyrical,,,,------ -- ------- ---- ---- ---- - -------- ----- --- --<br>----- ----- ------ -- ---- -- --- - ---- -- - ----- -----<br>------ ---- ------ have - -------- ------- -- --- --------<br>-------- ----------- ---- ------ ---- ------ ---- --- ---<br>-------- --- -----,190912.59999990463,190911.79999995232,190721.116,190711.59999990463,190737.835,190937.765,,27,have
screen,html.Screen,2_3_1_0_1_28,2022-05-02T10:48:47.106Z,,,,,,,,,,,,,,,,,40,,,,,,,,,,,,,,197.3349999046186,,response,,,,9,F,,,,,,Space,keypress(Space),,,,lyrical,,,,------ -- ------- ---- ---- ---- - -------- ----- --- --<br>----- ----- ------ -- ---- -- --- - ---- -- - ----- -----<br>------ ---- ------ ---- a -------- ------- -- --- --------<br>-------- ----------- ---- ------ ---- ------ ---- --- ---<br>-------- --- -----,191135.70000004768,191135.09999990463,190921.407,190912.70000004768,190937.765,191154.464,,28,a
screen,html.Screen,2_3_1_0_1_29,2022-05-02T10:48:47.320Z,,,,,,,,,,,,,,,,,40,,,,,,,,,,,,,,194.4360000953602,,response,,,,9,F,,,,,,Space,keypress(Space),,,,lyrical,,,,------ -- ------- ---- ---- ---- - -------- ----- --- --<br>----- ----- ------ -- ---- -- --- - ---- -- - ----- -----<br>------ ---- ------ ---- - business ------- -- --- --------<br>-------- ----------- ---- ------ ---- ------ ---- --- ---<br>-------- --- -----,191349.79999995232,191348.90000009537,191137.759,191135.79999995232,191154.464,191371.074,,29,business
screen,html.Screen,2_3_1_0_1_30,2022-05-02T10:48:47.553Z,,,,,,,,,,,,,,,,,40,,,,,,,,,,,,,,210.52599990463932,,response,,,,9,F,,,,,,Space,keypress(Space),,,,lyrical,,,,------ -- ------- ---- ---- ---- - -------- ----- --- --<br>----- ----- ------ -- ---- -- --- - ---- -- - ----- -----<br>------ ---- ------ ---- - -------- license -- --- --------<br>-------- ----------- ---- ------ ---- ------ ---- --- ---<br>-------- --- -----,191582.5,191581.59999990463,191356.588,191349.90000009537,191371.074,191604.452,,30,license
screen,html.Screen,2_3_1_0_1_31,2022-05-02T10:48:47.789Z,,,,,,,,,,,,,,,,,40,,,,,,,,,,,,,,212.84799995232606,,response,,,,9,F,,,,,,Space,keypress(Space),,,,lyrical,,,,------ -- ------- ---- ---- ---- - -------- ----- --- --<br>----- ----- ------ -- ---- -- --- - ---- -- - ----- -----<br>------ ---- ------ ---- - -------- ------- or --- --------<br>-------- ----------- ---- ------ ---- ------ ---- --- ---<br>-------- --- -----,191818.20000004768,191817.29999995232,191587.754,191582.70000004768,191604.452,191837.755,,31,or
screen,html.Screen,2_3_1_0_1_32,2022-05-02T10:48:48.016Z,,,,,,,,,,,,,,,,,40,,,,,,,,,,,,,,207.14500009536278,,response,,,,9,F,,,,,,Space,keypress(Space),,,,lyrical,,,,------ -- ------- ---- ---- ---- - -------- ----- --- --<br>----- ----- ------ -- ---- -- --- - ---- -- - ----- -----<br>------ ---- ------ ---- - -------- ------- -- the --------<br>-------- ----------- ---- ------ ---- ------ ---- --- ---<br>-------- --- -----,192045.59999990463,192044.90000009537,191821.086,191818.40000009537,191837.755,192071.068,,32,the
screen,html.Screen,2_3_1_0_1_33,2022-05-02T10:48:48.231Z,,,,,,,,,,,,,,,,,40,,,,,,,,,,,,,,188.63200004768441,,response,,,,9,F,,,,,,Space,keypress(Space),,,,lyrical,,,,------ -- ------- ---- ---- ---- - -------- ----- --- --<br>----- ----- ------ -- ---- -- --- - ---- -- - ----- -----<br>------ ---- ------ ---- - -------- ------- -- --- required<br>-------- ----------- ---- ------ ---- ------ ---- --- ---<br>-------- --- -----,192260.40000009537,192259.70000004768,192054.447,192045.70000004768,192071.068,192287.786,,33,required
screen,html.Screen,2_3_1_0_1_34,2022-05-02T10:48:48.480Z,,,,,,,,,,,,,,,,,40,,,,,,,,,,,,,,220.61400009537465,,response,,,,9,F,,,,,,Space,keypress(Space),,,,lyrical,,,,------ -- ------- ---- ---- ---- - -------- ----- --- --<br>----- ----- ------ -- ---- -- --- - ---- -- - ----- -----<br>------ ---- ------ ---- - -------- ------- -- --- --------<br>permits. ----------- ---- ------ ---- ------ ---- --- ---<br>-------- --- -----,192509.20000004768,192508.40000009537,192271.074,192260.5,192287.786,192521.083,,34,permits.
screen,html.Screen,2_3_1_0_1_35,2022-05-02T10:48:48.726Z,,,,,,,,,,,,,,,,,40,,,,,,,,,,,,,,233.81700009535416,,response,,,,9,F,,,,,,Space,keypress(Space),,,,lyrical,,,,------ -- ------- ---- ---- ---- - -------- ----- --- --<br>----- ----- ------ -- ---- -- --- - ---- -- - ----- -----<br>------ ---- ------ ---- - -------- ------- -- --- --------<br>-------- Morningstar ---- ------ ---- ------ ---- --- ---<br>-------- --- -----,192755.70000004768,192754.90000009537,192504.416,192509.29999995232,192521.083,192771.054,,35,Morningstar
screen,html.Screen,2_3_1_0_1_36,2022-05-02T10:48:48.937Z,,,,,,,,,,,,,,,,,40,,,,,,,,,,,,,,194.94599999999627,,response,,,,9,F,,,,,,Space,keypress(Space),,,,lyrical,,,,------ -- ------- ---- ---- ---- - -------- ----- --- --<br>----- ----- ------ -- ---- -- --- - ---- -- - ----- -----<br>------ ---- ------ ---- - -------- ------- -- --- --------<br>-------- ----------- says ------ ---- ------ ---- --- ---<br>-------- --- -----,192966.79999995232,192966,192754.376,192755.79999995232,192771.054,192987.85,,36,says
screen,html.Screen,2_3_1_0_1_37,2022-05-02T10:48:49.198Z,,,,,,,,,,,,,,,,,40,,,,,,,,,,,,,,238.94999995231046,,response,,,,9,F,,,,,,Space,keypress(Space),,,,lyrical,,,,------ -- ------- ---- ---- ---- - -------- ----- --- --<br>----- ----- ------ -- ---- -- --- - ---- -- - ----- -----<br>------ ---- ------ ---- - -------- ------- -- --- --------<br>-------- ----------- ---- police ---- ------ ---- --- ---<br>-------- --- -----,193227.59999990463,193226.79999995232,192971.07,192966.90000009537,192987.85,193254.381,,37,police
screen,html.Screen,2_3_1_0_1_38,2022-05-02T10:48:49.419Z,,,,,,,,,,,,,,,,,40,,,,,,,,,,,,,,193.41899995232234,,response,,,,9,F,,,,,,Space,keypress(Space),,,,lyrical,,,,------ -- ------- ---- ---- ---- - -------- ----- --- --<br>----- ----- ------ -- ---- -- --- - ---- -- - ----- -----<br>------ ---- ------ ---- - -------- ------- -- --- --------<br>-------- ----------- ---- ------ also ------ ---- --- ---<br>-------- --- -----,193448.5,193447.79999995232,193237.744,193227.79999995232,193254.381,193471.029,,38,also
screen,html.Screen,2_3_1_0_1_39,2022-05-02T10:48:49.628Z,,,,,,,,,,,,,,,,,40,,,,,,,,,,,,,,186.07099990462302,,response,,,,9,F,,,,,,Space,keypress(Space),,,,lyrical,,,,------ -- ------- ---- ---- ---- - -------- ----- --- --<br>----- ----- ------ -- ---- -- --- - ---- -- - ----- -----<br>------ ---- ------ ---- - -------- ------- -- --- --------<br>-------- ----------- ---- ------ ---- didn't ---- --- ---<br>-------- --- -----,193657.70000004768,193657.09999990463,193454.402,193448.5,193471.029,193687.696,,39,didn't
screen,html.Screen,2_3_1_0_1_40,2022-05-02T10:48:49.858Z,,,,,,,,,,,,,,,,,40,,,,,,,,,,,,,,199.20400009537116,,response,,,,9,F,,,,,,Space,keypress(Space),,,,lyrical,,,,------ -- ------- ---- ---- ---- - -------- ----- --- --<br>----- ----- ------ -- ---- -- --- - ---- -- - ----- -----<br>------ ---- ------ ---- - -------- ------- -- --- --------<br>-------- ----------- ---- ------ ---- ------ know --- ---<br>-------- --- -----,193887.59999990463,193886.90000009537,193671.074,193657.90000009537,193687.696,193904.548,,40,know
screen,html.Screen,2_3_1_0_1_41,2022-05-02T10:48:50.082Z,,,,,,,,,,,,,,,,,40,,,,,,,,,,,,,,206.5519999046228,,response,,,,9,F,,,,,,Space,keypress(Space),,,,lyrical,,,,------ -- ------- ---- ---- ---- - -------- ----- --- --<br>----- ----- ------ -- ---- -- --- - ---- -- - ----- -----<br>------ ---- ------ ---- - -------- ------- -- --- --------<br>-------- ----------- ---- ------ ---- ------ ---- how ---<br>-------- --- -----,194111.79999995232,194111.09999990463,193887.685,193887.70000004768,193904.548,194137.974,,41,how
screen,html.Screen,2_3_1_0_1_42,2022-05-02T10:48:50.314Z,,,,,,,,,,,,,,,,,40,,,,,,,,,,,,,,204.42600009538,,response,,,,9,F,,,,,,Space,keypress(Space),,,,lyrical,,,,------ -- ------- ---- ---- ---- - -------- ----- --- --<br>----- ----- ------ -- ---- -- --- - ---- -- - ----- -----<br>------ ---- ------ ---- - -------- ------- -- --- --------<br>-------- ----------- ---- ------ ---- ------ ---- --- the<br>-------- --- -----,194343.5,194342.40000009537,194121.065,194111.90000009537,194137.974,194371.145,,42,the
screen,html.Screen,2_3_1_0_1_43,2022-05-02T10:48:50.547Z,,,,,,,,,,,,,,,,,40,,,,,,,,,,,,,,204.65499995232676,,response,,,,9,F,,,,,,Space,keypress(Space),,,,lyrical,,,,------ -- ------- ---- ---- ---- - -------- ----- --- --<br>----- ----- ------ -- ---- -- --- - ---- -- - ----- -----<br>------ ---- ------ ---- - -------- ------- -- --- --------<br>-------- ----------- ---- ------ ---- ------ ---- --- ---<br>lemonade --- -----,194576.40000009537,194575.79999995232,194354.367,194343.59999990463,194371.145,194604.39,,43,lemonade
screen,html.Screen,2_3_1_0_1_44,2022-05-02T10:48:50.778Z,,,,,,,,,,,,,,,,,40,,,,,,,,,,,,,,202.2099999046186,,response,,,,9,F,,,,,,Space,keypress(Space),,,,lyrical,,,,------ -- ------- ---- ---- ---- - -------- ----- --- --<br>----- ----- ------ -- ---- -- --- - ---- -- - ----- -----<br>------ ---- ------ ---- - -------- ------- -- --- --------<br>-------- ----------- ---- ------ ---- ------ ---- --- ---<br>-------- was -----,194807.29999995232,194806.59999990463,194587.697,194576.5,194604.39,194837.76,,44,was
screen,html.Screen,2_3_1_0_1_45,2022-05-02T10:48:51.046Z,,,,,,,,,,,,,,,,,40,,,,,,,,,,,,,,237.03999995230697,,response,,,,9,F,,,,,,Space,keypress(Space),,,,lyrical,,,,------ -- ------- ---- ---- ---- - -------- ----- --- --<br>----- ----- ------ -- ---- -- --- - ---- -- - ----- -----<br>------ ---- ------ ---- - -------- ------- -- --- --------<br>-------- ----------- ---- ------ ---- ------ ---- --- ---<br>-------- --- made.,195075.5,195074.79999995232,194820.988,194807.40000009537,194837.76,195104.338,,45,made.
Item 9,flow.Loop,2_3_1_0_1,2022-05-02T10:48:51.046Z,,,,,,,,,,,,,,,,,,,,,,,,,,,,,,,12436.966999952303,,completion,,,,,,,,,,,,,,,,,,,,,195075.70000004768,195074.79999995232,182621.242,182622,182637.833,195104.338,,,
Question 1,html.Screen,2_3_1_0_2,2022-05-02T10:48:53.709Z,,,,,,,,,,,,,,,,,,,,,,,,,,,,true,FALSE,,2632.662000000011,,response,,,,9,F,,,,,,FALSE,click #choice-2,,,,lyrical,,,,,197738.79999995232,197737,195087.799,195075.70000004768,195104.338,197757.668,,,
