sender,sender_type,sender_id,timestamp,meta,,Blues,Classical,Country,Dance,Electronic,Folk,Gospel,Hip-Hop,Jazz,Latin,Musical/Film,New-age,Pop,Prolific_id,Provo_ID,R&B,Rap,Reggae,Religious,Rock,Soul,Swing,Traditional,age,artist_name,correct,correctResponse,distraction,duration,education,ended_on,familiarity,gender,headphone_check_performance,item,list,music_frequency,offensiveness,pleasantness,position_correct,preference,response,response_action,snippet_file,song_name,song_rating,sound,stimulus_1,stimulus_2,stimulus_3,text,time_commit,time_end,time_render,time_run,time_show,time_switch,url,word,word_ID
Prolific ID,html.Form,0,2022-04-28T11:19:56.077Z,"{""labjs_version"":""20.2.2"",""labjs_build"":{""flavor"":""production"",""commit"":""a25486e0c714a0ae2ce03ff94b7bb6896854dcfa""},""location"":""https://run.pavlovia.org/mvasilev/prolific3_music_d/"",""userAgent"":""Mozilla/5.0 (Windows NT 10.0; Win64; x64) AppleWebKit/537.36 (KHTML, like Gecko) Chrome/98.0.4758.102 Safari/537.36"",""platform"":""Win32"",""language"":""en-GB"",""locale"":""en-GB"",""timeZone"":""Europe/London"",""timezoneOffset"":-60,""screen_width"":1366,""screen_height"":768,""scroll_width"":1366,""scroll_height"":609,""window_innerWidth"":1366,""window_innerHeight"":657,""devicePixelRatio"":1}",,,,,,,,,,,,,,,5db08f3435ef75001ae287d6@email.prolific.co,,,,,,,,,,,,,,,6297.472999809266,,form submission,,,,,,,,,,,,,,,,,,,,,28916.199999809265,28915.699999809265,22534.232,22507.800000190735,22618.227,29018.386,{},,
Introduction,html.Screen,1_0,2022-04-28T11:20:10.425Z,,,,,,,,,,,,,,,,,,,,,,,,,,,,,,,14242.813999809267,,response,,,,,,,,,,,continue,click button,,,,,,,,,43264.699999809265,43261.199999809265,28901.935,28916.5,29018.386,43334.934,,,
Volume calibration,html.Screen,1_1,2022-04-28T11:20:49.475Z,,,,,,,,,,,,,,,,,,,,,,,,,,,,,,,38970.566,,response,,,,,,,,,,,continue,click button,,,,,,,,,82310.5999994278,82305.5,43251.649,43264.89999961853,43334.934,82319.142,,,
Task instructions,html.Screen,1_2,2022-04-28T11:21:03.592Z,,,,,,,,,,,,,,,,,,,,,,,,,,,,,,,14107.257999618523,,response,,,,,,,,,,,continue,click button,,,,,,,,,96428.39999961853,96426.39999961853,82301.701,82310.80000019073,82319.142,96484.883,,,
Sounds,html.Screen,1_3_0_0,2022-04-28T11:21:07.936Z,,,,,,,,,,,,,,,,,,,,,,,,,,,,,,,4283.330000000002,,timeout,,,,,,,,,2,,,,,,,,O,S,I,,100772.39999961853,100718.222,96418.353,96428.5999994278,96484.883,100768.213,,,
Judgement,html.Screen,1_3_0_1,2022-04-28T11:21:11.185Z,,,,,,,,,,,,,,,,,,,,,,,,,,,,true,2,,3250.886999427792,,response,,,,,,,,,2,,2,click #choice-2,,,,,O,S,I,,104020.5999994278,104019.0999994278,100718.222,100772.69999980927,100768.213,104035.552,,,
Trial,flow.Sequence,1_3_0,2022-04-28T11:21:11.185Z,,,,,,,,,,,,,,,,,,,,,,,,,,,,,,,7534.216999427794,,completion,,,,,,,,,2,,,,,,,,O,S,I,,104020.89999961853,104019.0999994278,96418.353,96428.5999994278,96484.883,104035.552,,,
Sounds,html.Screen,1_3_1_0,2022-04-28T11:21:15.434Z,,,,,,,,,,,,,,,,,,,,,,,,,,,,,,,4250.828000000009,,timeout,,,,,,,,,2,,,,,,,,I,S,O,,108269.39999961853,108268.369,104018.213,104021.30000019073,104035.552,108286.38,,,
Judgement,html.Screen,1_3_1_1,2022-04-28T11:21:16.730Z,,,,,,,,,,,,,,,,,,,,,,,,,,,,true,2,,1277.8199998092605,,response,,,,,,,,,2,,2,click #choice-2,,,,,I,S,O,,109566.30000019073,109564.19999980927,108268.369,108269.80000019073,108286.38,109568.213,,,
Trial,flow.Sequence,1_3_1,2022-04-28T11:21:16.731Z,,,,,,,,,,,,,,,,,,,,,,,,,,,,,,,5528.647999809269,,completion,,,,,,,,,2,,,,,,,,I,S,O,,109566.69999980927,109564.19999980927,104018.213,104021,104035.552,109568.213,,,
Sounds,html.Screen,1_3_2_0,2022-04-28T11:21:20.967Z,,,,,,,,,,,,,,,,,,,,,,,,,,,,,,,4252.138999999996,,timeout,,,,,,,,,1,,,,,,,,S,I,O,,113803.19999980927,113801.682,109551.691,109566.80000019073,109568.213,113820.352,,,
Judgement,html.Screen,1_3_2_1,2022-04-28T11:21:21.527Z,,,,,,,,,,,,,,,,,,,,,,,,,,,,true,1,,541.148000000001,,response,,,,,,,,,1,,1,click #choice-1,,,,,S,I,O,,114363.30000019073,114361.5,113801.682,113805.69999980927,113820.352,114368.64,,,
Trial,flow.Sequence,1_3_2,2022-04-28T11:21:21.528Z,,,,,,,,,,,,,,,,,,,,,,,,,,,,,,,4793.286999999997,,completion,,,,,,,,,1,,,,,,,,S,I,O,,114363.69999980927,114361.5,109551.691,109566.80000019073,109568.213,114368.64,,,
Sounds,html.Screen,1_3_3_0,2022-04-28T11:21:25.767Z,,,,,,,,,,,,,,,,,,,,,,,,,,,,,,,4249.705000000002,,timeout,,,,,,,,,1,,,,,,,,S,O,I,,118603.19999980927,118601.694,114352.103,114364,114368.64,118618.345,,,
Judgement,html.Screen,1_3_3_1,2022-04-28T11:21:26.262Z,,,,,,,,,,,,,,,,,,,,,,,,,,,,true,1,,477.65499999999884,,response,,,,,,,,,1,,1,click #choice-1,,,,,S,O,I,,119097.5,119096,118601.694,118603.5,118618.345,119104.56,,,
Trial,flow.Sequence,1_3_3,2022-04-28T11:21:26.262Z,,,,,,,,,,,,,,,,,,,,,,,,,,,,,,,4727.360000000001,,completion,,,,,,,,,1,,,,,,,,S,O,I,,119097.89999961853,119096,114352.103,114363.89999961853,114368.64,119104.56,,,
Sounds,html.Screen,1_3_4_0,2022-04-28T11:21:30.501Z,,,,,,,,,,,,,,,,,,,,,,,,,,,,,,,4247.042000000001,,timeout,,,,,,,,,3,,,,,,,,O,I,S,,123336.30000019073,123334.942,119085.027,119098,119104.56,123351.602,,,
Judgement,html.Screen,1_3_4_1,2022-04-28T11:21:32.664Z,,,,,,,,,,,,,,,,,,,,,,,,,,,,true,3,,2146.7979996185313,,response,,,,,,,,,3,,3,click #choice-3,,,,,O,I,S,,125499.5,125498.39999961853,123334.942,123336.5,123351.602,125501.651,,,
Trial,flow.Sequence,1_3_4,2022-04-28T11:21:32.664Z,,,,,,,,,,,,,,,,,,,,,,,,,,,,,,,6393.839999618533,,completion,,,,,,,,,3,,,,,,,,O,I,S,,125499.80000019073,125498.39999961853,119085.027,119097.89999961853,119104.56,125501.651,,,
Sounds,html.Screen,1_3_5_0,2022-04-28T11:21:36.901Z,,,,,,,,,,,,,,,,,,,,,,,,,,,,,,,4250.203999999998,,timeout,,,,,,,,,3,,,,,,,,I,O,S,,129736.19999980927,129734.887,125484.871,125499.89999961853,125501.651,129751.855,,,
Judgement,html.Screen,1_3_5_1,2022-04-28T11:21:37.492Z,,,,,,,,,,,,,,,,,,,,,,,,,,,,true,3,,573.9450001907389,,response,,,,,,,,,3,,3,click #choice-3,,,,,I,O,S,,130327.30000019073,130325.80000019073,129734.887,129736.5,129751.855,130418.317,,,
Trial,flow.Sequence,1_3_5,2022-04-28T11:21:37.492Z,,,,,,,,,,,,,,,,,,,,,,,,,,,,,,,4824.149000190737,,completion,,,,,,,,,3,,,,,,,,I,O,S,,130327.5999994278,130325.80000019073,125484.871,125499.80000019073,125501.651,130418.317,,,
Task,flow.Loop,1_3,2022-04-28T11:21:37.498Z,,,,,,,,,,,,,,,,,,,,,,,,,,,,,,,33840.91700019073,,completion,,,1,,,,,,,,,,,,,,,,,,130333.5999994278,130325.80000019073,96418.353,96428.5,96484.883,130418.317,,,
Trap,html.Screen,1_4,2022-04-28T11:21:37.501Z,,,,,,,,,,,,,,,,,,,,,,,,,,,,,,,NaN,,skipped,,,,,,,,,,,,,,,,,,,,,130336.0999994278,130325.80000019073,,130335.89999961853,,130418.317,,,
Thanks,html.Screen,1_5,2022-04-28T11:21:42.219Z,,,,,,,,,,,,,,,,,,,,,,,,,,,,,,,4634.7829994278,,response,,,,,,,,,,,continue,click button,,,,,,,,,135055,135053.0999994278,130318.339,130336.30000019073,130418.317,138401.577,,,
Headphone screening,flow.Sequence,1,2022-04-28T11:21:42.220Z,,,,,,,,,,,,,,,,,,,,,,,,,,,,,,,106034.7139994278,,completion,,,,,,,,,,,,,,,,,,,,,135055.19999980927,135053.0999994278,28901.935,28916.5,29018.386,138401.577,,,
Instructions,html.Page,2_0,2022-04-28T11:22:07.793Z,,,,,,,,,,,,,,,,,,,,,,,,,,,,,,,22226.82299961854,,form submission,,,,,,,,,,,,,,,,,,,,,160629,160628.39999961853,138052.441,138351,138401.577,160634.888,,,
Holding screen,html.Screen,2_1_0_0,2022-04-28T11:22:17.786Z,,,,,,,,,,,,,,,,,,,,,,,,,,,,,,,10133.312999999995,,timeout,,,,,,,,,,,,,,,,,,,,,170621.19999980927,170618.453,160584.895,160629.19999980927,160634.888,170768.201,,,
screen,html.Screen,2_1_0_1_0,2022-04-28T11:22:20.340Z,,,,,,,,,,,,,,,,,53,,,,,,,,,,,,,,2402.6989996185293,,response,,,,99,,,,,,,Space,keypress(Space),,,,,,,,When -- ----- -- ------ - ------- --- ----------<br>------------- ------ ------ ---- ---- ------- ----- -- ----<br>-------- ------- -- ---------- --- - --- ----- ----- ----<br>---- --- --- ----- --- ---- ---- ------- ----- ---- -------<br>--- --- -- ----- -- --- ---- -- --- ---- -- ------ ------<br>--- ----- -- ----,173176,173170.89999961853,170618.453,170621.5,170768.201,173184.879,,0,When
screen,html.Screen,2_1_0_1_1,2022-04-28T11:22:21.042Z,,,,,,,,,,,,,,,,,53,,,,,,,,,,,,,,691.4210001907486,,response,,,,99,,,,,,,Space,keypress(Space),,,,,,,,---- it ----- -- ------ - ------- --- ----------<br>------------- ------ ------ ---- ---- ------- ----- -- ----<br>-------- ------- -- ---------- --- - --- ----- ----- ----<br>---- --- --- ----- --- ---- ---- ------- ----- ---- -------<br>--- --- -- ----- -- --- ---- -- --- ---- -- ------ ------<br>--- ----- -- ----,173878,173876.30000019073,173168.302,173176.30000019073,173184.879,173884.897,,1,it
screen,html.Screen,2_1_0_1_2,2022-04-28T11:22:21.603Z,,,,,,,,,,,,,,,,,53,,,,,,,,,,,,,,552.0029996185331,,response,,,,99,,,,,,,Space,keypress(Space),,,,,,,,---- -- comes -- ------ - ------- --- ----------<br>------------- ------ ------ ---- ---- ------- ----- -- ----<br>-------- ------- -- ---------- --- - --- ----- ----- ----<br>---- --- --- ----- --- ---- ---- ------- ----- ---- -------<br>--- --- -- ----- -- --- ---- -- --- ---- -- ------ ------<br>--- ----- -- ----,174438.5999994278,174436.89999961853,173868.342,173878.19999980927,173884.897,174451.73,,2,comes
screen,html.Screen,2_1_0_1_3,2022-04-28T11:22:22.048Z,,,,,,,,,,,,,,,,,53,,,,,,,,,,,,,,431.0700001907244,,response,,,,99,,,,,,,Space,keypress(Space),,,,,,,,---- -- ----- to ------ - ------- --- ----------<br>------------- ------ ------ ---- ---- ------- ----- -- ----<br>-------- ------- -- ---------- --- - --- ----- ----- ----<br>---- --- --- ----- --- ---- ---- ------- ----- ---- -------<br>--- --- -- ----- -- --- ---- -- --- ---- -- ------ ------<br>--- ----- -- ----,174884.0999994278,174882.80000019073,174435.017,174438.80000019073,174451.73,174901.727,,3,to
screen,html.Screen,2_1_0_1_4,2022-04-28T11:22:22.536Z,,,,,,,,,,,,,,,,,53,,,,,,,,,,,,,,468.2729999999865,,response,,,,99,,,,,,,Space,keypress(Space),,,,,,,,---- -- ----- -- having - ------- --- ----------<br>------------- ------ ------ ---- ---- ------- ----- -- ----<br>-------- ------- -- ---------- --- - --- ----- ----- ----<br>---- --- --- ----- --- ---- ---- ------- ----- ---- -------<br>--- --- -- ----- -- --- ---- -- --- ---- -- ------ ------<br>--- ----- -- ----,175371.30000019073,175370,174885.019,174884.30000019073,174901.727,175384.941,,4,having
screen,html.Screen,2_1_0_1_5,2022-04-28T11:22:22.939Z,,,,,,,,,,,,,,,,,53,,,,,,,,,,,,,,388.35900019074325,,response,,,,99,,,,,,,Space,keypress(Space),,,,,,,,---- -- ----- -- ------ a ------- --- ----------<br>------------- ------ ------ ---- ---- ------- ----- -- ----<br>-------- ------- -- ---------- --- - --- ----- ----- ----<br>---- --- --- ----- --- ---- ---- ------- ----- ---- -------<br>--- --- -- ----- -- --- ---- -- --- ---- -- ------ ------<br>--- ----- -- ----,175775,175773.30000019073,175368.352,175371.5,175384.941,175785.051,,5,a
screen,html.Screen,2_1_0_1_6,2022-04-28T11:22:23.647Z,,,,,,,,,,,,,,,,,53,,,,,,,,,,,,,,695.8489996185235,,response,,,,99,,,,,,,Space,keypress(Space),,,,,,,,---- -- ----- -- ------ - lasting --- ----------<br>------------- ------ ------ ---- ---- ------- ----- -- ----<br>-------- ------- -- ---------- --- - --- ----- ----- ----<br>---- --- --- ----- --- ---- ---- ------- ----- ---- -------<br>--- --- -- ----- -- --- ---- -- --- ---- -- ------ ------<br>--- ----- -- ----,176482.19999980927,176480.89999961853,175768.197,175775.19999980927,175785.051,176484.901,,6,lasting
screen,html.Screen,2_1_0_1_7,2022-04-28T11:22:24.140Z,,,,,,,,,,,,,,,,,53,,,,,,,,,,,,,,489.19899942778284,,response,,,,99,,,,,,,Space,keypress(Space),,,,,,,,---- -- ----- -- ------ - ------- and ----------<br>------------- ------ ------ ---- ---- ------- ----- -- ----<br>-------- ------- -- ---------- --- - --- ----- ----- ----<br>---- --- --- ----- --- ---- ---- ------- ----- ---- -------<br>--- --- -- ----- -- --- ---- -- --- ---- -- ------ ------<br>--- ----- -- ----,176975.89999961853,176974.0999994278,176468.341,176482.39999961853,176484.901,176985.045,,7,and
screen,html.Screen,2_1_0_1_8,2022-04-28T11:22:24.674Z,,,,,,,,,,,,,,,,,53,,,,,,,,,,,,,,522.5549994277826,,response,,,,99,,,,,,,Space,keypress(Space),,,,,,,,---- -- ----- -- ------ - ------- --- fulfilling<br>------------- ------ ------ ---- ---- ------- ----- -- ----<br>-------- ------- -- ---------- --- - --- ----- ----- ----<br>---- --- --- ----- --- ---- ---- ------- ----- ---- -------<br>--- --- -- ----- -- --- ---- -- --- ---- -- ------ ------<br>--- ----- -- ----,177509.5,177507.5999994278,176968.404,176976,176985.045,177518.265,,8,fulfilling
screen,html.Screen,2_1_0_1_9,2022-04-28T11:22:25.165Z,,,,,,,,,,,,,,,,,53,,,,,,,,,,,,,,479.5350001907209,,response,,,,99,,,,,,,Space,keypress(Space),,,,,,,,"---- -- ----- -- ------ - ------- --- ----------<br>relationship, ------ ------ ---- ---- ------- ----- -- ----<br>-------- ------- -- ---------- --- - --- ----- ----- ----<br>---- --- --- ----- --- ---- ---- ------- ----- ---- -------<br>--- --- -- ----- -- --- ---- -- --- ---- -- ------ ------<br>--- ----- -- ----",178000.19999980927,177997.80000019073,177501.68,177509.69999980927,177518.265,178018.396,,9,"relationship,"
screen,html.Screen,2_1_0_1_10,2022-04-28T11:22:25.607Z,,,,,,,,,,,,,,,,,53,,,,,,,,,,,,,,422.2039994277875,,response,,,,99,,,,,,,Space,keypress(Space),,,,,,,,---- -- ----- -- ------ - ------- --- ----------<br>------------- common ------ ---- ---- ------- ----- -- ----<br>-------- ------- -- ---------- --- - --- ----- ----- ----<br>---- --- --- ----- --- ---- ---- ------- ----- ---- -------<br>--- --- -- ----- -- --- ---- -- --- ---- -- ------ ------<br>--- ----- -- ----,178442.39999961853,178440.5999994278,178001.69,178000.5,178018.396,178451.744,,10,common
screen,html.Screen,2_1_0_1_11,2022-04-28T11:22:26.470Z,,,,,,,,,,,,,,,,,53,,,,,,,,,,,,,,852.755999999994,,response,,,,99,,,,,,,Space,keypress(Space),,,,,,,,---- -- ----- -- ------ - ------- --- ----------<br>------------- ------ wisdom ---- ---- ------- ----- -- ----<br>-------- ------- -- ---------- --- - --- ----- ----- ----<br>---- --- --- ----- --- ---- ---- ------- ----- ---- -------<br>--- --- -- ----- -- --- ---- -- --- ---- -- ------ ------<br>--- ----- -- ----,179305.80000019073,179304.5,178435.022,178442.5999994278,178451.744,179318.333,,11,wisdom
screen,html.Screen,2_1_0_1_12,2022-04-28T11:22:27.198Z,,,,,,,,,,,,,,,,,53,,,,,,,,,,,,,,713.2669994277821,,response,,,,99,,,,,,,Space,keypress(Space),,,,,,,,---- -- ----- -- ------ - ------- --- ----------<br>------------- ------ ------ says ---- ------- ----- -- ----<br>-------- ------- -- ---------- --- - --- ----- ----- ----<br>---- --- --- ----- --- ---- ---- ------- ----- ---- -------<br>--- --- -- ----- -- --- ---- -- --- ---- -- ------ ------<br>--- ----- -- ----,180033.5999994278,180031.5999994278,179301.663,179306,179318.333,180068.395,,12,says
screen,html.Screen,2_1_0_1_13,2022-04-28T11:22:27.679Z,,,,,,,,,,,,,,,,,53,,,,,,,,,,,,,,443.7049994278059,,response,,,,99,,,,,,,Space,keypress(Space),,,,,,,,---- -- ----- -- ------ - ------- --- ----------<br>------------- ------ ------ ---- that ------- ----- -- ----<br>-------- ------- -- ---------- --- - --- ----- ----- ----<br>---- --- --- ----- --- ---- ---- ------- ----- ---- -------<br>--- --- -- ----- -- --- ---- -- --- ---- -- ------ ------<br>--- ----- -- ----,180514.19999980927,180512.0999994278,180054.619,180033.80000019073,180068.395,180518.236,,13,that
screen,html.Screen,2_1_0_1_14,2022-04-28T11:22:28.309Z,,,,,,,,,,,,,,,,,53,,,,,,,,,,,,,,624.363999427791,,response,,,,99,,,,,,,Space,keypress(Space),,,,,,,,---- -- ----- -- ------ - ------- --- ----------<br>------------- ------ ------ ---- ---- feeling ----- -- ----<br>-------- ------- -- ---------- --- - --- ----- ----- ----<br>---- --- --- ----- --- ---- ---- ------- ----- ---- -------<br>--- --- -- ----- -- --- ---- -- --- ---- -- ------ ------<br>--- ----- -- ----,181144.30000019073,181142.5999994278,180501.686,180514.39999961853,180518.236,181151.538,,14,feeling
screen,html.Screen,2_1_0_1_15,2022-04-28T11:22:28.978Z,,,,,,,,,,,,,,,,,53,,,,,,,,,,,,,,659.9619999999995,,response,,,,99,,,,,,,Space,keypress(Space),,,,,,,,---- -- ----- -- ------ - ------- --- ----------<br>------------- ------ ------ ---- ---- ------- close -- ----<br>-------- ------- -- ---------- --- - --- ----- ----- ----<br>---- --- --- ----- --- ---- ---- ------- ----- ---- -------<br>--- --- -- ----- -- --- ---- -- --- ---- -- ------ ------<br>--- ----- -- ----,181813.30000019073,181811.5,181135.028,181144.5,181151.538,181818.231,,15,close
screen,html.Screen,2_1_0_1_16,2022-04-28T11:22:29.491Z,,,,,,,,,,,,,,,,,53,,,,,,,,,,,,,,506.6689996185305,,response,,,,99,,,,,,,Space,keypress(Space),,,,,,,,---- -- ----- -- ------ - ------- --- ----------<br>------------- ------ ------ ---- ---- ------- ----- to ----<br>-------- ------- -- ---------- --- - --- ----- ----- ----<br>---- --- --- ----- --- ---- ---- ------- ----- ---- -------<br>--- --- -- ----- -- --- ---- -- --- ---- -- ------ ------<br>--- ----- -- ----,182326.30000019073,182324.89999961853,181801.677,181813.5,181818.231,182334.838,,16,to
screen,html.Screen,2_1_0_1_17,2022-04-28T11:22:30.026Z,,,,,,,,,,,,,,,,,53,,,,,,,,,,,,,,525.1620000000112,,response,,,,99,,,,,,,Space,keypress(Space),,,,,,,,---- -- ----- -- ------ - ------- --- ----------<br>------------- ------ ------ ---- ---- ------- ----- -- your<br>-------- ------- -- ---------- --- - --- ----- ----- ----<br>---- --- --- ----- --- ---- ---- ------- ----- ---- -------<br>--- --- -- ----- -- --- ---- -- --- ---- -- ------ ------<br>--- ----- -- ----,182861.69999980927,182860,182318.352,182326.5,182334.838,182868.907,,17,your
screen,html.Screen,2_1_0_1_18,2022-04-28T11:22:30.567Z,,,,,,,,,,,,,,,,,53,,,,,,,,,,,,,,535.1929994277889,,response,,,,99,,,,,,,Space,keypress(Space),,,,,,,,---- -- ----- -- ------ - ------- --- ----------<br>------------- ------ ------ ---- ---- ------- ----- -- ----<br>romantic ------- -- ---------- --- - --- ----- ----- ----<br>---- --- --- ----- --- ---- ---- ------- ----- ---- -------<br>--- --- -- ----- -- --- ---- -- --- ---- -- ------ ------<br>--- ----- -- ----,183405.89999961853,183404.0999994278,182851.687,182862,182868.907,183418.451,,18,romantic
screen,html.Screen,2_1_0_1_19,2022-04-28T11:22:31.064Z,,,,,,,,,,,,,,,,,53,,,,,,,,,,,,,,483.04899999999907,,response,,,,99,,,,,,,Space,keypress(Space),,,,,,,,---- -- ----- -- ------ - ------- --- ----------<br>------------- ------ ------ ---- ---- ------- ----- -- ----<br>-------- partner -- ---------- --- - --- ----- ----- ----<br>---- --- --- ----- --- ---- ---- ------- ----- ---- -------<br>--- --- -- ----- -- --- ---- -- --- ---- -- ------ ------<br>--- ----- -- ----,183903.5,183901.5,183401.638,183406.0999994278,183418.451,183918.486,,19,partner
screen,html.Screen,2_1_0_1_20,2022-04-28T11:22:31.562Z,,,,,,,,,,,,,,,,,53,,,,,,,,,,,,,,481.0139999999956,,response,,,,99,,,,,,,Space,keypress(Space),,,,,,,,---- -- ----- -- ------ - ------- --- ----------<br>------------- ------ ------ ---- ---- ------- ----- -- ----<br>-------- ------- is ---------- --- - --- ----- ----- ----<br>---- --- --- ----- --- ---- ---- ------- ----- ---- -------<br>--- --- -- ----- -- --- ---- -- --- ---- -- ------ ------<br>--- ----- -- ----,184400.89999961853,184399.5,183901.683,183903.69999980927,183918.486,184418.394,,20,is
screen,html.Screen,2_1_0_1_21,2022-04-28T11:22:32.492Z,,,,,,,,,,,,,,,,,53,,,,,,,,,,,,,,911.1059999999998,,response,,,,99,,,,,,,Space,keypress(Space),,,,,,,,---- -- ----- -- ------ - ------- --- ----------<br>------------- ------ ------ ---- ---- ------- ----- -- ----<br>-------- ------- -- paramount. --- - --- ----- ----- ----<br>---- --- --- ----- --- ---- ---- ------- ----- ---- -------<br>--- --- -- ----- -- --- ---- -- --- ---- -- ------ ------<br>--- ----- -- ----,185330.89999961853,185329.5,184401.684,184401.19999980927,184418.394,185385.034,,21,paramount.
screen,html.Screen,2_1_0_1_22,2022-04-28T11:22:32.978Z,,,,,,,,,,,,,,,,,53,,,,,,,,,,,,,,429.76600019072066,,response,,,,99,,,,,,,Space,keypress(Space),,,,,,,,---- -- ----- -- ------ - ------- --- ----------<br>------------- ------ ------ ---- ---- ------- ----- -- ----<br>-------- ------- -- ---------- But - --- ----- ----- ----<br>---- --- --- ----- --- ---- ---- ------- ----- ---- -------<br>--- --- -- ----- -- --- ---- -- --- ---- -- ------ ------<br>--- ----- -- ----,185816.5,185814.80000019073,185318.332,185331.19999980927,185385.034,185841.052,,22,But
screen,html.Screen,2_1_0_1_23,2022-04-28T11:22:33.468Z,,,,,,,,,,,,,,,,,53,,,,,,,,,,,,,,458.7480001907388,,response,,,,99,,,,,,,Space,keypress(Space),,,,,,,,---- -- ----- -- ------ - ------- --- ----------<br>------------- ------ ------ ---- ---- ------- ----- -- ----<br>-------- ------- -- ---------- --- a --- ----- ----- ----<br>---- --- --- ----- --- ---- ---- ------- ----- ---- -------<br>--- --- -- ----- -- --- ---- -- --- ---- -- ------ ------<br>--- ----- -- ----,186306.80000019073,186299.80000019073,185801.684,185816.80000019073,185841.052,186318.176,,23,a
screen,html.Screen,2_1_0_1_24,2022-04-28T11:22:33.960Z,,,,,,,,,,,,,,,,,53,,,,,,,,,,,,,,479.32399999999325,,response,,,,99,,,,,,,Space,keypress(Space),,,,,,,,---- -- ----- -- ------ - ------- --- ----------<br>------------- ------ ------ ---- ---- ------- ----- -- ----<br>-------- ------- -- ---------- --- - new ----- ----- ----<br>---- --- --- ----- --- ---- ---- ------- ----- ---- -------<br>--- --- -- ----- -- --- ---- -- --- ---- -- ------ ------<br>--- ----- -- ----,186799.30000019073,186797.5,186301.749,186307,186318.176,186801.545,,24,new
screen,html.Screen,2_1_0_1_25,2022-04-28T11:22:34.447Z,,,,,,,,,,,,,,,,,53,,,,,,,,,,,,,,482.85499961851747,,response,,,,99,,,,,,,Space,keypress(Space),,,,,,,,---- -- ----- -- ------ - ------- --- ----------<br>------------- ------ ------ ---- ---- ------- ----- -- ----<br>-------- ------- -- ---------- --- - --- study ----- ----<br>---- --- --- ----- --- ---- ---- ------- ----- ---- -------<br>--- --- -- ----- -- --- ---- -- --- ---- -- ------ ------<br>--- ----- -- ----,187285.80000019073,187284.39999961853,186785.015,186799.5,186801.545,187301.728,,25,study
screen,html.Screen,2_1_0_1_26,2022-04-28T11:22:34.965Z,,,,,,,,,,,,,,,,,53,,,,,,,,,,,,,,500.47199980926234,,response,,,,99,,,,,,,Space,keypress(Space),,,,,,,,---- -- ----- -- ------ - ------- --- ----------<br>------------- ------ ------ ---- ---- ------- ----- -- ----<br>-------- ------- -- ---------- --- - --- ----- finds ----<br>---- --- --- ----- --- ---- ---- ------- ----- ---- -------<br>--- --- -- ----- -- --- ---- -- --- ---- -- ------ ------<br>--- ----- -- ----,187804.0999994278,187802.19999980927,187285.016,187286.0999994278,187301.728,187818.486,,26,finds
screen,html.Screen,2_1_0_1_27,2022-04-28T11:22:35.430Z,,,,,,,,,,,,,,,,,53,,,,,,,,,,,,,,449.0139999999956,,response,,,,99,,,,,,,Space,keypress(Space),,,,,,,,---- -- ----- -- ------ - ------- --- ----------<br>------------- ------ ------ ---- ---- ------- ----- -- ----<br>-------- ------- -- ---------- --- - --- ----- ----- that<br>---- --- --- ----- --- ---- ---- ------- ----- ---- -------<br>--- --- -- ----- -- --- ---- -- --- ---- -- ------ ------<br>--- ----- -- ----,188269.5,188267.5,187801.688,187804.39999961853,187818.486,188285.062,,27,that
screen,html.Screen,2_1_0_1_28,2022-04-28T11:22:35.953Z,,,,,,,,,,,,,,,,,53,,,,,,,,,,,,,,504.7380001907295,,response,,,,99,,,,,,,Space,keypress(Space),,,,,,,,---- -- ----- -- ------ - ------- --- ----------<br>------------- ------ ------ ---- ---- ------- ----- -- ----<br>-------- ------- -- ---------- --- - --- ----- ----- ----<br>it's --- --- ----- --- ---- ---- ------- ----- ---- -------<br>--- --- -- ----- -- --- ---- -- --- ---- -- ------ ------<br>--- ----- -- ----,188791.5999994278,188789.80000019073,188268.35,188269.69999980927,188285.062,188801.645,,28,it's
screen,html.Screen,2_1_0_1_29,2022-04-28T11:22:36.430Z,,,,,,,,,,,,,,,,,53,,,,,,,,,,,,,,465.65500019074534,,response,,,,99,,,,,,,Space,keypress(Space),,,,,,,,---- -- ----- -- ------ - ------- --- ----------<br>------------- ------ ------ ---- ---- ------- ----- -- ----<br>-------- ------- -- ---------- --- - --- ----- ----- ----<br>---- not --- ----- --- ---- ---- ------- ----- ---- -------<br>--- --- -- ----- -- --- ---- -- --- ---- -- ------ ------<br>--- ----- -- ----,189269.5,189267.30000019073,188784.86,188791.69999980927,188801.645,189284.99,,29,not
screen,html.Screen,2_1_0_1_30,2022-04-28T11:22:36.910Z,,,,,,,,,,,,,,,,,53,,,,,,,,,,,,,,463.1099994278047,,response,,,,99,,,,,,,Space,keypress(Space),,,,,,,,---- -- ----- -- ------ - ------- --- ----------<br>------------- ------ ------ ---- ---- ------- ----- -- ----<br>-------- ------- -- ---------- --- - --- ----- ----- ----<br>---- --- how ----- --- ---- ---- ------- ----- ---- -------<br>--- --- -- ----- -- --- ---- -- --- ---- -- ------ ------<br>--- ----- -- ----,189749.30000019073,189748.0999994278,189268.355,189269.5999994278,189284.99,189751.55,,30,how
screen,html.Screen,2_1_0_1_31,2022-04-28T11:22:37.381Z,,,,,,,,,,,,,,,,,53,,,,,,,,,,,,,,466.95000000001164,,response,,,,99,,,,,,,Space,keypress(Space),,,,,,,,---- -- ----- -- ------ - ------- --- ----------<br>------------- ------ ------ ---- ---- ------- ----- -- ----<br>-------- ------- -- ---------- --- - --- ----- ----- ----<br>---- --- --- close --- ---- ---- ------- ----- ---- -------<br>--- --- -- ----- -- --- ---- -- --- ---- -- ------ ------<br>--- ----- -- ----,190219.80000019073,190218.5,189735.02,189749.5999994278,189751.55,190235.06,,31,close
screen,html.Screen,2_1_0_1_32,2022-04-28T11:22:37.825Z,,,,,,,,,,,,,,,,,53,,,,,,,,,,,,,,427.2400001907372,,response,,,,99,,,,,,,Space,keypress(Space),,,,,,,,---- -- ----- -- ------ - ------- --- ----------<br>------------- ------ ------ ---- ---- ------- ----- -- ----<br>-------- ------- -- ---------- --- - --- ----- ----- ----<br>---- --- --- ----- you ---- ---- ------- ----- ---- -------<br>--- --- -- ----- -- --- ---- -- --- ---- -- ------ ------<br>--- ----- -- ----,190664.0999994278,190662.30000019073,190218.35,190220,190235.06,190668.236,,32,you
screen,html.Screen,2_1_0_1_33,2022-04-28T11:22:38.333Z,,,,,,,,,,,,,,,,,53,,,,,,,,,,,,,,501.7639999999956,,response,,,,99,,,,,,,Space,keypress(Space),,,,,,,,---- -- ----- -- ------ - ------- --- ----------<br>------------- ------ ------ ---- ---- ------- ----- -- ----<br>-------- ------- -- ---------- --- - --- ----- ----- ----<br>---- --- --- ----- --- feel ---- ------- ----- ---- -------<br>--- --- -- ----- -- --- ---- -- --- ---- -- ------ ------<br>--- ----- -- ----,191171.69999980927,191170,190651.547,190664.39999961853,190668.236,191185.063,,33,feel
screen,html.Screen,2_1_0_1_34,2022-04-28T11:22:38.754Z,,,,,,,,,,,,,,,,,53,,,,,,,,,,,,,,405.7370001907402,,response,,,,99,,,,,,,Space,keypress(Space),,,,,,,,---- -- ----- -- ------ - ------- --- ----------<br>------------- ------ ------ ---- ---- ------- ----- -- ----<br>-------- ------- -- ---------- --- - --- ----- ----- ----<br>---- --- --- ----- --- ---- that ------- ----- ---- -------<br>--- --- -- ----- -- --- ---- -- --- ---- -- ------ ------<br>--- ----- -- ----,191592.5,191590.80000019073,191168.356,191171.89999961853,191185.063,191601.532,,34,that
screen,html.Screen,2_1_0_1_35,2022-04-28T11:22:39.281Z,,,,,,,,,,,,,,,,,53,,,,,,,,,,,,,,516.7680001907283,,response,,,,99,,,,,,,Space,keypress(Space),,,,,,,,---- -- ----- -- ------ - ------- --- ----------<br>------------- ------ ------ ---- ---- ------- ----- -- ----<br>-------- ------- -- ---------- --- - --- ----- ----- ----<br>---- --- --- ----- --- ---- ---- matters ----- ---- -------<br>--- --- -- ----- -- --- ---- -- --- ---- -- ------ ------<br>--- ----- -- ----,192120.19999980927,192118.30000019073,191585.026,191592.69999980927,191601.532,192135.161,,35,matters
screen,html.Screen,2_1_0_1_36,2022-04-28T11:22:39.868Z,,,,,,,,,,,,,,,,,53,,,,,,,,,,,,,,570.2389996185375,,response,,,,99,,,,,,,Space,keypress(Space),,,,,,,,"---- -- ----- -- ------ - ------- --- ----------<br>------------- ------ ------ ---- ---- ------- ----- -- ----<br>-------- ------- -- ---------- --- - --- ----- ----- ----<br>---- --- --- ----- --- ---- ---- ------- most, ---- -------<br>--- --- -- ----- -- --- ---- -- --- ---- -- ------ ------<br>--- ----- -- ----",192706.80000019073,192705.39999961853,192118.35,192120.39999961853,192135.161,192718.394,,36,"most,"
screen,html.Screen,2_1_0_1_37,2022-04-28T11:22:40.316Z,,,,,,,,,,,,,,,,,53,,,,,,,,,,,,,,435.00599961853004,,response,,,,99,,,,,,,Space,keypress(Space),,,,,,,,---- -- ----- -- ------ - ------- --- ----------<br>------------- ------ ------ ---- ---- ------- ----- -- ----<br>-------- ------- -- ---------- --- - --- ----- ----- ----<br>---- --- --- ----- --- ---- ---- ------- ----- it's -------<br>--- --- -- ----- -- --- ---- -- --- ---- -- ------ ------<br>--- ----- -- ----,193155.30000019073,193153.39999961853,192701.506,192707,192718.394,193168.392,,37,it's
screen,html.Screen,2_1_0_1_38,2022-04-28T11:22:40.838Z,,,,,,,,,,,,,,,,,53,,,,,,,,,,,,,,507.20799942780286,,response,,,,99,,,,,,,Space,keypress(Space),,,,,,,,---- -- ----- -- ------ - ------- --- ----------<br>------------- ------ ------ ---- ---- ------- ----- -- ----<br>-------- ------- -- ---------- --- - --- ----- ----- ----<br>---- --- --- ----- --- ---- ---- ------- ----- ---- whether<br>--- --- -- ----- -- --- ---- -- --- ---- -- ------ ------<br>--- ----- -- ----,193677.19999980927,193675.5999994278,193151.684,193155.39999961853,193168.392,193685.345,,38,whether
screen,html.Screen,2_1_0_1_39,2022-04-28T11:22:41.269Z,,,,,,,,,,,,,,,,,53,,,,,,,,,,,,,,421.354999809264,,response,,,,99,,,,,,,Space,keypress(Space),,,,,,,,---- -- ----- -- ------ - ------- --- ----------<br>------------- ------ ------ ---- ---- ------- ----- -- ----<br>-------- ------- -- ---------- --- - --- ----- ----- ----<br>---- --- --- ----- --- ---- ---- ------- ----- ---- -------<br>you --- -- ----- -- --- ---- -- --- ---- -- ------ ------<br>--- ----- -- ----,194108.39999961853,194106.69999980927,193668.351,193677.5,193685.345,194118.389,,39,you
screen,html.Screen,2_1_0_1_40,2022-04-28T11:22:41.714Z,,,,,,,,,,,,,,,,,53,,,,,,,,,,,,,,432.71099942779983,,response,,,,99,,,,,,,Space,keypress(Space),,,,,,,,---- -- ----- -- ------ - ------- --- ----------<br>------------- ------ ------ ---- ---- ------- ----- -- ----<br>-------- ------- -- ---------- --- - --- ----- ----- ----<br>---- --- --- ----- --- ---- ---- ------- ----- ---- -------<br>--- are -- ----- -- --- ---- -- --- ---- -- ------ ------<br>--- ----- -- ----,194553,194551.0999994278,194101.693,194108.5999994278,194118.389,194568.484,,40,are
screen,html.Screen,2_1_0_1_41,2022-04-28T11:22:42.184Z,,,,,,,,,,,,,,,,,53,,,,,,,,,,,,,,453.11599942779867,,response,,,,99,,,,,,,Space,keypress(Space),,,,,,,,---- -- ----- -- ------ - ------- --- ----------<br>------------- ------ ------ ---- ---- ------- ----- -- ----<br>-------- ------- -- ---------- --- - --- ----- ----- ----<br>---- --- --- ----- --- ---- ---- ------- ----- ---- -------<br>--- --- as ----- -- --- ---- -- --- ---- -- ------ ------<br>--- ----- -- ----,195023.39999961853,195021.5999994278,194551.686,194553.19999980927,194568.484,195034.839,,41,as
screen,html.Screen,2_1_0_1_42,2022-04-28T11:22:42.610Z,,,,,,,,,,,,,,,,,53,,,,,,,,,,,,,,412.6609999999928,,response,,,,99,,,,,,,Space,keypress(Space),,,,,,,,---- -- ----- -- ------ - ------- --- ----------<br>------------- ------ ------ ---- ---- ------- ----- -- ----<br>-------- ------- -- ---------- --- - --- ----- ----- ----<br>---- --- --- ----- --- ---- ---- ------- ----- ---- -------<br>--- --- -- close -- --- ---- -- --- ---- -- ------ ------<br>--- ----- -- ----,195449.19999980927,195447.5,195018.357,195023.5999994278,195034.839,195451.579,,42,close
screen,html.Screen,2_1_0_1_43,2022-04-28T11:22:43.039Z,,,,,,,,,,,,,,,,,53,,,,,,,,,,,,,,424.9210000000021,,response,,,,99,,,,,,,Space,keypress(Space),,,,,,,,---- -- ----- -- ------ - ------- --- ----------<br>------------- ------ ------ ---- ---- ------- ----- -- ----<br>-------- ------- -- ---------- --- - --- ----- ----- ----<br>---- --- --- ----- --- ---- ---- ------- ----- ---- -------<br>--- --- -- ----- as --- ---- -- --- ---- -- ------ ------<br>--- ----- -- ----,195878.30000019073,195876.5,195435.02,195449.30000019073,195451.579,195885.444,,43,as
screen,html.Screen,2_1_0_1_44,2022-04-28T11:22:43.444Z,,,,,,,,,,,,,,,,,53,,,,,,,,,,,,,,395.5560000000114,,response,,,,99,,,,,,,Space,keypress(Space),,,,,,,,---- -- ----- -- ------ - ------- --- ----------<br>------------- ------ ------ ---- ---- ------- ----- -- ----<br>-------- ------- -- ---------- --- - --- ----- ----- ----<br>---- --- --- ----- --- ---- ---- ------- ----- ---- -------<br>--- --- -- ----- -- you ---- -- --- ---- -- ------ ------<br>--- ----- -- ----,196282.5999994278,196281,195868.214,195878.5999994278,195885.444,196284.984,,44,you
screen,html.Screen,2_1_0_1_45,2022-04-28T11:22:43.848Z,,,,,,,,,,,,,,,,,53,,,,,,,,,,,,,,400.2159998092684,,response,,,,99,,,,,,,Space,keypress(Space),,,,,,,,---- -- ----- -- ------ - ------- --- ----------<br>------------- ------ ------ ---- ---- ------- ----- -- ----<br>-------- ------- -- ---------- --- - --- ----- ----- ----<br>---- --- --- ----- --- ---- ---- ------- ----- ---- -------<br>--- --- -- ----- -- --- want -- --- ---- -- ------ ------<br>--- ----- -- ----,196687.0999994278,196685.19999980927,196268.359,196282.80000019073,196284.984,196701.823,,45,want
screen,html.Screen,2_1_0_1_46,2022-04-28T11:22:44.236Z,,,,,,,,,,,,,,,,,53,,,,,,,,,,,,,,371.8769998092612,,response,,,,99,,,,,,,Space,keypress(Space),,,,,,,,---- -- ----- -- ------ - ------- --- ----------<br>------------- ------ ------ ---- ---- ------- ----- -- ----<br>-------- ------- -- ---------- --- - --- ----- ----- ----<br>---- --- --- ----- --- ---- ---- ------- ----- ---- -------<br>--- --- -- ----- -- --- ---- to --- ---- -- ------ ------<br>--- ----- -- ----,197075.30000019073,197073.69999980927,196685.019,196687.39999961853,196701.823,197085.252,,46,to
screen,html.Screen,2_1_0_1_47,2022-04-28T11:22:44.630Z,,,,,,,,,,,,,,,,,53,,,,,,,,,,,,,,381.3479994277877,,response,,,,99,,,,,,,Space,keypress(Space),,,,,,,,"---- -- ----- -- ------ - ------- --- ----------<br>------------- ------ ------ ---- ---- ------- ----- -- ----<br>-------- ------- -- ---------- --- - --- ----- ----- ----<br>---- --- --- ----- --- ---- ---- ------- ----- ---- -------<br>--- --- -- ----- -- --- ---- -- be, ---- -- ------ ------<br>--- ----- -- ----",197469,197466.5999994278,197068.354,197075.5,197085.252,197485.067,,47,"be,"
screen,html.Screen,2_1_0_1_48,2022-04-28T11:22:45.085Z,,,,,,,,,,,,,,,,,53,,,,,,,,,,,,,,437.1329998092551,,response,,,,99,,,,,,,Space,keypress(Space),,,,,,,,---- -- ----- -- ------ - ------- --- ----------<br>------------- ------ ------ ---- ---- ------- ----- -- ----<br>-------- ------- -- ---------- --- - --- ----- ----- ----<br>---- --- --- ----- --- ---- ---- ------- ----- ---- -------<br>--- --- -- ----- -- --- ---- -- --- even -- ------ ------<br>--- ----- -- ----,197923.89999961853,197922.19999980927,197468.35,197469.19999980927,197485.067,197935.226,,48,even
screen,html.Screen,2_1_0_1_49,2022-04-28T11:22:45.484Z,,,,,,,,,,,,,,,,,53,,,,,,,,,,,,,,386.07400019073975,,response,,,,99,,,,,,,Space,keypress(Space),,,,,,,,---- -- ----- -- ------ - ------- --- ----------<br>------------- ------ ------ ---- ---- ------- ----- -- ----<br>-------- ------- -- ---------- --- - --- ----- ----- ----<br>---- --- --- ----- --- ---- ---- ------- ----- ---- -------<br>--- --- -- ----- -- --- ---- -- --- ---- if ------ ------<br>--- ----- -- ----,198323.0999994278,198321.30000019073,197918.359,197924.0999994278,197935.226,198335.287,,49,if
screen,html.Screen,2_1_0_1_50,2022-04-28T11:22:45.894Z,,,,,,,,,,,,,,,,,53,,,,,,,,,,,,,,396.1129996185191,,response,,,,99,,,,,,,Space,keypress(Space),,,,,,,,---- -- ----- -- ------ - ------- --- ----------<br>------------- ------ ------ ---- ---- ------- ----- -- ----<br>-------- ------- -- ---------- --- - --- ----- ----- ----<br>---- --- --- ----- --- ---- ---- ------- ----- ---- -------<br>--- --- -- ----- -- --- ---- -- --- ---- -- that's ------<br>--- ----- -- ----,198733.19999980927,198731.39999961853,198318.353,198323.19999980927,198335.287,198757.688,,50,that's
screen,html.Screen,2_1_0_1_51,2022-04-28T11:22:46.310Z,,,,,,,,,,,,,,,,,53,,,,,,,,,,,,,,389.41199942780077,,response,,,,99,,,,,,,Space,keypress(Space),,,,,,,,---- -- ----- -- ------ - ------- --- ----------<br>------------- ------ ------ ---- ---- ------- ----- -- ----<br>-------- ------- -- ---------- --- - --- ----- ----- ----<br>---- --- --- ----- --- ---- ---- ------- ----- ---- -------<br>--- --- -- ----- -- --- ---- -- --- ---- -- ------ really<br>--- ----- -- ----,199148.69999980927,199147.0999994278,198718.353,198733.30000019073,198757.688,199151.553,,51,really
screen,html.Screen,2_1_0_1_52,2022-04-28T11:22:46.741Z,,,,,,,,,,,,,,,,,53,,,,,,,,,,,,,,426.44699999998556,,response,,,,99,,,,,,,Space,keypress(Space),,,,,,,,---- -- ----- -- ------ - ------- --- ----------<br>------------- ------ ------ ---- ---- ------- ----- -- ----<br>-------- ------- -- ---------- --- - --- ----- ----- ----<br>---- --- --- ----- --- ---- ---- ------- ----- ---- -------<br>--- --- -- ----- -- --- ---- -- --- ---- -- ------ ------<br>not ----- -- ----,199579.80000019073,199578,199135.023,199149,199151.553,199584.896,,52,not
screen,html.Screen,2_1_0_1_53,2022-04-28T11:22:47.142Z,,,,,,,,,,,,,,,,,53,,,,,,,,,,,,,,394.3039998092572,,response,,,,99,,,,,,,Space,keypress(Space),,,,,,,,---- -- ----- -- ------ - ------- --- ----------<br>------------- ------ ------ ---- ---- ------- ----- -- ----<br>-------- ------- -- ---------- --- - --- ----- ----- ----<br>---- --- --- ----- --- ---- ---- ------- ----- ---- -------<br>--- --- -- ----- -- --- ---- -- --- ---- -- ------ ------<br>--- close -- ----,199981,199979.19999980927,199568.352,199580.0999994278,199584.896,199984.902,,53,close
screen,html.Screen,2_1_0_1_54,2022-04-28T11:22:47.543Z,,,,,,,,,,,,,,,,,53,,,,,,,,,,,,,,394.7979998092633,,response,,,,99,,,,,,,Space,keypress(Space),,,,,,,,---- -- ----- -- ------ - ------- --- ----------<br>------------- ------ ------ ---- ---- ------- ----- -- ----<br>-------- ------- -- ---------- --- - --- ----- ----- ----<br>---- --- --- ----- --- ---- ---- ------- ----- ---- -------<br>--- --- -- ----- -- --- ---- -- --- ---- -- ------ ------<br>--- ----- at ----,200381.5,200379.69999980927,199968.353,199981.19999980927,199984.902,200384.895,,54,at
screen,html.Screen,2_1_0_1_55,2022-04-28T11:22:48.269Z,,,,,,,,,,,,,,,,,53,,,,,,,,,,,,,,721.6050000000105,,response,,,,99,,,,,,,Space,keypress(Space),,,,,,,,---- -- ----- -- ------ - ------- --- ----------<br>------------- ------ ------ ---- ---- ------- ----- -- ----<br>-------- ------- -- ---------- --- - --- ----- ----- ----<br>---- --- --- ----- --- ---- ---- ------- ----- ---- -------<br>--- --- -- ----- -- --- ---- -- --- ---- -- ------ ------<br>--- ----- -- all.,201108.19999980927,201106.5,200368.355,200381.69999980927,200384.895,201118.201,,55,all.
Item 99,flow.Loop,2_1_0_1,2022-04-28T11:22:48.270Z,,,,,,,,,,,,,,,,,,,,,,,,,,,,,,,30338.299,,completion,,,,,D,,,,,,,,,,,silence,,,,,201108.69999980927,201106.5,170618.453,170621.5,170768.201,201118.201,,,
Question 1,html.Screen,2_1_0_2,2022-04-28T11:22:52.952Z,,,,,,,,,,,,,,,,,,,,,,,,,,,,true,FALSE,,4671.698999618529,,response,,,,99,D,,,,,,FALSE,click #choice-2,,,,silence,,,,,205791.30000019073,205789.89999961853,201101.679,201108.89999961853,201118.201,205801.525,,,
Question 2,html.Screen,2_1_0_3,2022-04-28T11:22:57.486Z,,,,,,,,,,,,,,,,,,,,,,,,,,,,true,TRUE,,4522.074999427801,,response,,,,99,D,,,,,,TRUE,click #choice-1,,,,silence,,,,,210325.30000019073,210323.5999994278,205785.215,205791.39999961853,205801.525,210334.855,,,
Item 99,flow.Sequence,2_1_0,2022-04-28T11:22:57.487Z,,,,,,,,,,,,,,,,,,,,,,,,,,,,,,,49688.71199942779,,completion,,,,,,,,,,,,,,,,,,,,,210325.5999994278,210323.5999994278,160584.895,160629.19999980927,160634.888,210334.855,,,
Holding screen,html.Screen,2_1_1_0,2022-04-28T11:23:07.480Z,,,,,,,,,,,,,,,,,,,,,,,,,,,,,,,10000.00999999998,,timeout,,,,,,,,,,,,,,,,,,,,,220319.5,220318.367,210318.352,210325.80000019073,210334.855,220334.865,,,
screen,html.Screen,2_1_1_1_0,2022-04-28T11:23:08.714Z,,,,,,,,,,,,,,,,,54,,,,,,,,,,,,,,1215.3349998092744,,response,,,,100,,,,,,,Space,keypress(Space),,,,,,,,At --- ---- --- ------ ----- ------- ---- -- --- ------- --<br>------- ---------- ------ -- ----- -- ----- -- ---- ------<br>--- ----- --- --- ------ -------- ----- --- ------ ----- --<br>----- ----- ---------- --- --- ------ ------ ---- -- ------<br>------- --- ------ ----- --- ---- ------- -- ---- --- --<br>------- ------,221553,221550.19999980927,220318.367,220319.80000019073,220334.865,221584.867,,0,At
screen,html.Screen,2_1_1_1_1,2022-04-28T11:23:09.225Z,,,,,,,,,,,,,,,,,54,,,,,,,,,,,,,,477.0329996185319,,response,,,,100,,,,,,,Space,keypress(Space),,,,,,,,-- the ---- --- ------ ----- ------- ---- -- --- ------- --<br>------- ---------- ------ -- ----- -- ----- -- ---- ------<br>--- ----- --- --- ------ -------- ----- --- ------ ----- --<br>----- ----- ---------- --- --- ------ ------ ---- -- ------<br>------- --- ------ ----- --- ---- ------- -- ---- --- --<br>------- ------,222063.69999980927,222061.89999961853,221571.516,221553.19999980927,221584.867,222068.236,,1,the
screen,html.Screen,2_1_1_1_2,2022-04-28T11:23:09.690Z,,,,,,,,,,,,,,,,,54,,,,,,,,,,,,,,459.06400019073044,,response,,,,100,,,,,,,Space,keypress(Space),,,,,,,,-- --- time --- ------ ----- ------- ---- -- --- ------- --<br>------- ---------- ------ -- ----- -- ----- -- ---- ------<br>--- ----- --- --- ------ -------- ----- --- ------ ----- --<br>----- ----- ---------- --- --- ------ ------ ---- -- ------<br>------- --- ------ ----- --- ---- ------- -- ---- --- --<br>------- ------,222529,222527.30000019073,222051.685,222063.89999961853,222068.236,222535.834,,2,time
screen,html.Screen,2_1_1_1_3,2022-04-28T11:23:10.188Z,,,,,,,,,,,,,,,,,54,,,,,,,,,,,,,,489.66599999999744,,response,,,,100,,,,,,,Space,keypress(Space),,,,,,,,-- --- ---- the ------ ----- ------- ---- -- --- ------- --<br>------- ---------- ------ -- ----- -- ----- -- ---- ------<br>--- ----- --- --- ------ -------- ----- --- ------ ----- --<br>----- ----- ---------- --- --- ------ ------ ---- -- ------<br>------- --- ------ ----- --- ---- ------- -- ---- --- --<br>------- ------,223027.19999980927,223025.5,222518.35,222529.19999980927,222535.834,223035.284,,3,the
screen,html.Screen,2_1_1_1_4,2022-04-28T11:23:10.655Z,,,,,,,,,,,,,,,,,54,,,,,,,,,,,,,,457.2159999999858,,response,,,,100,,,,,,,Space,keypress(Space),,,,,,,,-- --- ---- --- French ----- ------- ---- -- --- ------- --<br>------- ---------- ------ -- ----- -- ----- -- ---- ------<br>--- ----- --- --- ------ -------- ----- --- ------ ----- --<br>----- ----- ---------- --- --- ------ ------ ---- -- ------<br>------- --- ------ ----- --- ---- ------- -- ---- --- --<br>------- ------,223494.19999980927,223492.5,223018.197,223027.39999961853,223035.284,223501.543,,4,French
screen,html.Screen,2_1_1_1_5,2022-04-28T11:23:11.257Z,,,,,,,,,,,,,,,,,54,,,,,,,,,,,,,,592.7570001907297,,response,,,,100,,,,,,,Space,keypress(Space),,,,,,,,-- --- ---- --- ------ crown ------- ---- -- --- ------- --<br>------- ---------- ------ -- ----- -- ----- -- ---- ------<br>--- ----- --- --- ------ -------- ----- --- ------ ----- --<br>----- ----- ---------- --- --- ------ ------ ---- -- ------<br>------- --- ------ ----- --- ---- ------- -- ---- --- --<br>------- ------,224095.5999994278,224094.30000019073,223485.021,223494.5,223501.543,224101.994,,5,crown
screen,html.Screen,2_1_1_1_6,2022-04-28T11:23:11.773Z,,,,,,,,,,,,,,,,,54,,,,,,,,,,,,,,509.10599942778936,,response,,,,100,,,,,,,Space,keypress(Space),,,,,,,,-- --- ---- --- ------ ----- secured ---- -- --- ------- --<br>------- ---------- ------ -- ----- -- ----- -- ---- ------<br>--- ----- --- --- ------ -------- ----- --- ------ ----- --<br>----- ----- ---------- --- --- ------ ------ ---- -- ------<br>------- --- ------ ----- --- ---- ------- -- ---- --- --<br>------- ------,224612.5,224611.0999994278,224085.01,224095.80000019073,224101.994,224618.573,,6,secured
screen,html.Screen,2_1_1_1_7,2022-04-28T11:23:12.310Z,,,,,,,,,,,,,,,,,54,,,,,,,,,,,,,,528.926999999996,,response,,,,100,,,,,,,Space,keypress(Space),,,,,,,,-- --- ---- --- ------ ----- ------- much -- --- ------- --<br>------- ---------- ------ -- ----- -- ----- -- ---- ------<br>--- ----- --- --- ------ -------- ----- --- ------ ----- --<br>----- ----- ---------- --- --- ------ ------ ---- -- ------<br>------- --- ------ ----- --- ---- ------- -- ---- --- --<br>------- ------,225148.80000019073,225147.5,224601.681,224612.69999980927,224618.573,225151.564,,7,much
screen,html.Screen,2_1_1_1_8,2022-04-28T11:23:12.746Z,,,,,,,,,,,,,,,,,54,,,,,,,,,,,,,,431.43599999998696,,response,,,,100,,,,,,,Space,keypress(Space),,,,,,,,-- --- ---- --- ------ ----- ------- ---- of --- ------- --<br>------- ---------- ------ -- ----- -- ----- -- ---- ------<br>--- ----- --- --- ------ -------- ----- --- ------ ----- --<br>----- ----- ---------- --- --- ------ ------ ---- -- ------<br>------- --- ------ ----- --- ---- ------- -- ---- --- --<br>------- ------,225584.69999980927,225583,225135.012,225149,225151.564,225601.727,,8,of
screen,html.Screen,2_1_1_1_9,2022-04-28T11:23:13.127Z,,,,,,,,,,,,,,,,,54,,,,,,,,,,,,,,362.47299980925163,,response,,,,100,,,,,,,Space,keypress(Space),,,,,,,,-- --- ---- --- ------ ----- ------- ---- -- its ------- --<br>------- ---------- ------ -- ----- -- ----- -- ---- ------<br>--- ----- --- --- ------ -------- ----- --- ------ ----- --<br>----- ----- ---------- --- --- ------ ------ ---- -- ------<br>------- --- ------ ----- --- ---- ------- -- ---- --- --<br>------- ------,225965.89999961853,225964.19999980927,225585.015,225585.30000019073,225601.727,225968.922,,9,its
screen,html.Screen,2_1_1_1_10,2022-04-28T11:23:13.665Z,,,,,,,,,,,,,,,,,54,,,,,,,,,,,,,,532.677999427804,,response,,,,100,,,,,,,Space,keypress(Space),,,,,,,,-- --- ---- --- ------ ----- ------- ---- -- --- revenue --<br>------- ---------- ------ -- ----- -- ----- -- ---- ------<br>--- ----- --- --- ------ -------- ----- --- ------ ----- --<br>----- ----- ---------- --- --- ------ ------ ---- -- ------<br>------- --- ------ ----- --- ---- ------- -- ---- --- --<br>------- ------,226503.5,226501.5999994278,225951.689,225966.0999994278,225968.922,226518.486,,10,revenue
screen,html.Screen,2_1_1_1_11,2022-04-28T11:23:14.176Z,,,,,,,,,,,,,,,,,54,,,,,,,,,,,,,,495.113999427791,,response,,,,100,,,,,,,Space,keypress(Space),,,,,,,,-- --- ---- --- ------ ----- ------- ---- -- --- ------- by<br>------- ---------- ------ -- ----- -- ----- -- ---- ------<br>--- ----- --- --- ------ -------- ----- --- ------ ----- --<br>----- ----- ---------- --- --- ------ ------ ---- -- ------<br>------- --- ------ ----- --- ---- ------- -- ---- --- --<br>------- ------,227014.89999961853,227013.5999994278,226501.681,226503.69999980927,226518.486,227018.226,,11,by
screen,html.Screen,2_1_1_1_12,2022-04-28T11:23:14.767Z,,,,,,,,,,,,,,,,,54,,,,,,,,,,,,,,585.7740000000049,,response,,,,100,,,,,,,Space,keypress(Space),,,,,,,,-- --- ---- --- ------ ----- ------- ---- -- --- ------- --<br>issuing ---------- ------ -- ----- -- ----- -- ---- ------<br>--- ----- --- --- ------ -------- ----- --- ------ ----- --<br>----- ----- ---------- --- --- ------ ------ ---- -- ------<br>------- --- ------ ----- --- ---- ------- -- ---- --- --<br>------- ------,227605.80000019073,227604,227001.685,227015.0999994278,227018.226,227618.485,,12,issuing
screen,html.Screen,2_1_1_1_13,2022-04-28T11:23:15.249Z,,,,,,,,,,,,,,,,,54,,,,,,,,,,,,,,468.1149994278094,,response,,,,100,,,,,,,Space,keypress(Space),,,,,,,,-- --- ---- --- ------ ----- ------- ---- -- --- ------- --<br>------- government ------ -- ----- -- ----- -- ---- ------<br>--- ----- --- --- ------ -------- ----- --- ------ ----- --<br>----- ----- ---------- --- --- ------ ------ ---- -- ------<br>------- --- ------ ----- --- ---- ------- -- ---- --- --<br>------- ------,228088.39999961853,228086.5999994278,227601.675,227606,227618.485,228101.656,,13,government
screen,html.Screen,2_1_1_1_14,2022-04-28T11:23:15.823Z,,,,,,,,,,,,,,,,,54,,,,,,,,,,,,,,558.7439996185421,,response,,,,100,,,,,,,Space,keypress(Space),,,,,,,,-- --- ---- --- ------ ----- ------- ---- -- --- ------- --<br>------- ---------- bonds. -- ----- -- ----- -- ---- ------<br>--- ----- --- --- ------ -------- ----- --- ------ ----- --<br>----- ----- ---------- --- --- ------ ------ ---- -- ------<br>------- --- ------ ----- --- ---- ------- -- ---- --- --<br>------- ------,228661.80000019073,228660.39999961853,228085.018,228088.5999994278,228101.656,228668.41,,14,bonds.
screen,html.Screen,2_1_1_1_15,2022-04-28T11:23:16.234Z,,,,,,,,,,,,,,,,,54,,,,,,,,,,,,,,403.6899994277919,,response,,,,100,,,,,,,Space,keypress(Space),,,,,,,,-- --- ---- --- ------ ----- ------- ---- -- --- ------- --<br>------- ---------- ------ In ----- -- ----- -- ---- ------<br>--- ----- --- --- ------ -------- ----- --- ------ ----- --<br>----- ----- ---------- --- --- ------ ------ ---- -- ------<br>------- --- ------ ----- --- ---- ------- -- ---- --- --<br>------- ------,229073.39999961853,229072.0999994278,228651.683,228662.0999994278,228668.41,229084.871,,15,In
screen,html.Screen,2_1_1_1_16,2022-04-28T11:23:16.727Z,,,,,,,,,,,,,,,,,54,,,,,,,,,,,,,,479.4290001907211,,response,,,,100,,,,,,,Space,keypress(Space),,,,,,,,"-- --- ---- --- ------ ----- ------- ---- -- --- ------- --<br>------- ---------- ------ -- 1727, -- ----- -- ---- ------<br>--- ----- --- --- ------ -------- ----- --- ------ ----- --<br>----- ----- ---------- --- --- ------ ------ ---- -- ------<br>------- --- ------ ----- --- ---- ------- -- ---- --- --<br>------- ------",229566.0999994278,229564.30000019073,229068.355,229073.5,229084.871,229590.533,,16,"1727,"
screen,html.Screen,2_1_1_1_17,2022-04-28T11:23:17.262Z,,,,,,,,,,,,,,,,,54,,,,,,,,,,,,,,508.86699961853446,,response,,,,100,,,,,,,Space,keypress(Space),,,,,,,,-- --- ---- --- ------ ----- ------- ---- -- --- ------- --<br>------- ---------- ------ -- ----- in ----- -- ---- ------<br>--- ----- --- --- ------ -------- ----- --- ------ ----- --<br>----- ----- ---------- --- --- ------ ------ ---- -- ------<br>------- --- ------ ----- --- ---- ------- -- ---- --- --<br>------- ------,230101.0999994278,230099.39999961853,229551.528,229566.30000019073,229590.533,230118.483,,17,in
screen,html.Screen,2_1_1_1_18,2022-04-28T11:23:18.358Z,,,,,,,,,,,,,,,,,54,,,,,,,,,,,,,,1076.8170001907274,,response,,,,100,,,,,,,Space,keypress(Space),,,,,,,,-- --- ---- --- ------ ----- ------- ---- -- --- ------- --<br>------- ---------- ------ -- ----- -- order -- ---- ------<br>--- ----- --- --- ------ -------- ----- --- ------ ----- --<br>----- ----- ---------- --- --- ------ ------ ---- -- ------<br>------- --- ------ ----- --- ---- ------- -- ---- --- --<br>------- ------,231197,231195.30000019073,230101.683,230101.30000019073,230118.483,231201.569,,18,order
screen,html.Screen,2_1_1_1_19,2022-04-28T11:23:18.816Z,,,,,,,,,,,,,,,,,54,,,,,,,,,,,,,,451.3309996185417,,response,,,,100,,,,,,,Space,keypress(Space),,,,,,,,-- --- ---- --- ------ ----- ------- ---- -- --- ------- --<br>------- ---------- ------ -- ----- -- ----- to ---- ------<br>--- ----- --- --- ------ -------- ----- --- ------ ----- --<br>----- ----- ---------- --- --- ------ ------ ---- -- ------<br>------- --- ------ ----- --- ---- ------- -- ---- --- --<br>------- ------,231654.80000019073,231652.89999961853,231184.999,231197.19999980927,231201.569,231668.262,,19,to
screen,html.Screen,2_1_1_1_20,2022-04-28T11:23:19.590Z,,,,,,,,,,,,,,,,,54,,,,,,,,,,,,,,759.1379996185424,,response,,,,100,,,,,,,Space,keypress(Space),,,,,,,,-- --- ---- --- ------ ----- ------- ---- -- --- ------- --<br>------- ---------- ------ -- ----- -- ----- -- save ------<br>--- ----- --- --- ------ -------- ----- --- ------ ----- --<br>----- ----- ---------- --- --- ------ ------ ---- -- ------<br>------- --- ------ ----- --- ---- ------- -- ---- --- --<br>------- ------,232429,232427.39999961853,231651.682,231655.0999994278,231668.262,232434.9,,20,save
screen,html.Screen,2_1_1_1_21,2022-04-28T11:23:20.193Z,,,,,,,,,,,,,,,,,54,,,,,,,,,,,,,,595.6999994278012,,response,,,,100,,,,,,,Space,keypress(Space),,,,,,,,"-- --- ---- --- ------ ----- ------- ---- -- --- ------- --<br>------- ---------- ------ -- ----- -- ----- -- ---- money,<br>--- ----- --- --- ------ -------- ----- --- ------ ----- --<br>----- ----- ---------- --- --- ------ ------ ---- -- ------<br>------- --- ------ ----- --- ---- ------- -- ---- --- --<br>------- ------",233032,233030.5999994278,232418.336,232429.30000019073,232434.9,233034.883,,21,"money,"
screen,html.Screen,2_1_1_1_22,2022-04-28T11:23:20.716Z,,,,,,,,,,,,,,,,,54,,,,,,,,,,,,,,518.3169998092635,,response,,,,100,,,,,,,Space,keypress(Space),,,,,,,,-- --- ---- --- ------ ----- ------- ---- -- --- ------- --<br>------- ---------- ------ -- ----- -- ----- -- ---- ------<br>the ----- --- --- ------ -------- ----- --- ------ ----- --<br>----- ----- ---------- --- --- ------ ------ ---- -- ------<br>------- --- ------ ----- --- ---- ------- -- ---- --- --<br>------- ------,233554.89999961853,233553.19999980927,233018.341,233032.19999980927,233034.883,233568.479,,22,the
screen,html.Screen,2_1_1_1_23,2022-04-28T11:23:21.367Z,,,,,,,,,,,,,,,,,54,,,,,,,,,,,,,,635.5210000000079,,response,,,,100,,,,,,,Space,keypress(Space),,,,,,,,-- --- ---- --- ------ ----- ------- ---- -- --- ------- --<br>------- ---------- ------ -- ----- -- ----- -- ---- ------<br>--- state --- --- ------ -------- ----- --- ------ ----- --<br>----- ----- ---------- --- --- ------ ------ ---- -- ------<br>------- --- ------ ----- --- ---- ------- -- ---- --- --<br>------- ------,234205.5999994278,234204,233551.682,233555.19999980927,233568.479,234218.845,,23,state
screen,html.Screen,2_1_1_1_24,2022-04-28T11:23:21.862Z,,,,,,,,,,,,,,,,,54,,,,,,,,,,,,,,480.65499999999884,,response,,,,100,,,,,,,Space,keypress(Space),,,,,,,,-- --- ---- --- ------ ----- ------- ---- -- --- ------- --<br>------- ---------- ------ -- ----- -- ----- -- ---- ------<br>--- ----- cut --- ------ -------- ----- --- ------ ----- --<br>----- ----- ---------- --- --- ------ ------ ---- -- ------<br>------- --- ------ ----- --- ---- ------- -- ---- --- --<br>------- ------,234701.30000019073,234699.5,234201.672,234205.80000019073,234218.845,234718.4,,24,cut
screen,html.Screen,2_1_1_1_25,2022-04-28T11:23:22.305Z,,,,,,,,,,,,,,,,,54,,,,,,,,,,,,,,424.19999942780123,,response,,,,100,,,,,,,Space,keypress(Space),,,,,,,,-- --- ---- --- ------ ----- ------- ---- -- --- ------- --<br>------- ---------- ------ -- ----- -- ----- -- ---- ------<br>--- ----- --- the ------ -------- ----- --- ------ ----- --<br>----- ----- ---------- --- --- ------ ------ ---- -- ------<br>------- --- ------ ----- --- ---- ------- -- ---- --- --<br>------- ------,235144.30000019073,235142.5999994278,234701.681,234701.80000019073,234718.4,235151.822,,25,the
screen,html.Screen,2_1_1_1_26,2022-04-28T11:23:22.773Z,,,,,,,,,,,,,,,,,54,,,,,,,,,,,,,,458.4780001907493,,response,,,,100,,,,,,,Space,keypress(Space),,,,,,,,-- --- ---- --- ------ ----- ------- ---- -- --- ------- --<br>------- ---------- ------ -- ----- -- ----- -- ---- ------<br>--- ----- --- --- bonds' -------- ----- --- ------ ----- --<br>----- ----- ---------- --- --- ------ ------ ---- -- ------<br>------- --- ------ ----- --- ---- ------- -- ---- --- --<br>------- ------,235612.19999980927,235610.30000019073,235135.015,235144.5999994278,235151.822,235619.402,,26,bonds'
screen,html.Screen,2_1_1_1_27,2022-04-28T11:23:23.316Z,,,,,,,,,,,,,,,,,54,,,,,,,,,,,,,,533.398000190733,,response,,,,100,,,,,,,Space,keypress(Space),,,,,,,,-- --- ---- --- ------ ----- ------- ---- -- --- ------- --<br>------- ---------- ------ -- ----- -- ----- -- ---- ------<br>--- ----- --- --- ------ interest ----- --- ------ ----- --<br>----- ----- ---------- --- --- ------ ------ ---- -- ------<br>------- --- ------ ----- --- ---- ------- -- ---- --- --<br>------- ------,236154.5,236152.80000019073,235601.685,235612.39999961853,235619.402,236168.328,,27,interest
screen,html.Screen,2_1_1_1_28,2022-04-28T11:23:23.879Z,,,,,,,,,,,,,,,,,54,,,,,,,,,,,,,,547.9720001907262,,response,,,,100,,,,,,,Space,keypress(Space),,,,,,,,-- --- ---- --- ------ ----- ------- ---- -- --- ------- --<br>------- ---------- ------ -- ----- -- ----- -- ---- ------<br>--- ----- --- --- ------ -------- rate. --- ------ ----- --<br>----- ----- ---------- --- --- ------ ------ ---- -- ------<br>------- --- ------ ----- --- ---- ------- -- ---- --- --<br>------- ------,236718,236716.30000019073,236151.679,236154.69999980927,236168.328,236735.065,,28,rate.
screen,html.Screen,2_1_1_1_29,2022-04-28T11:23:24.458Z,,,,,,,,,,,,,,,,,54,,,,,,,,,,,,,,560.2350001907325,,response,,,,100,,,,,,,Space,keypress(Space),,,,,,,,-- --- ---- --- ------ ----- ------- ---- -- --- ------- --<br>------- ---------- ------ -- ----- -- ----- -- ---- ------<br>--- ----- --- --- ------ -------- ----- The ------ ----- --<br>----- ----- ---------- --- --- ------ ------ ---- -- ------<br>------- --- ------ ----- --- ---- ------- -- ---- --- --<br>------- ------,237297,237295.30000019073,236718.367,236718.5,236735.065,237301.554,,29,The
screen,html.Screen,2_1_1_1_30,2022-04-28T11:23:25.006Z,,,,,,,,,,,,,,,,,54,,,,,,,,,,,,,,541.9459999999963,,response,,,,100,,,,,,,Space,keypress(Space),,,,,,,,-- --- ---- --- ------ ----- ------- ---- -- --- ------- --<br>------- ---------- ------ -- ----- -- ----- -- ---- ------<br>--- ----- --- --- ------ -------- ----- --- market ----- --<br>----- ----- ---------- --- --- ------ ------ ---- -- ------<br>------- --- ------ ----- --- ---- ------- -- ---- --- --<br>------- ------,237845.19999980927,237843.5,237285.013,237297.19999980927,237301.554,237852.348,,30,market
screen,html.Screen,2_1_1_1_31,2022-04-28T11:23:25.563Z,,,,,,,,,,,,,,,,,54,,,,,,,,,,,,,,547.7519994277973,,response,,,,100,,,,,,,Space,keypress(Space),,,,,,,,-- --- ---- --- ------ ----- ------- ---- -- --- ------- --<br>------- ---------- ------ -- ----- -- ----- -- ---- ------<br>--- ----- --- --- ------ -------- ----- --- ------ value --<br>----- ----- ---------- --- --- ------ ------ ---- -- ------<br>------- --- ------ ----- --- ---- ------- -- ---- --- --<br>------- ------,238402.0999994278,238400.0999994278,237835.014,237845.39999961853,237852.348,238418.396,,31,value
screen,html.Screen,2_1_1_1_32,2022-04-28T11:23:25.996Z,,,,,,,,,,,,,,,,,54,,,,,,,,,,,,,,414.8039998092572,,response,,,,100,,,,,,,Space,keypress(Space),,,,,,,,-- --- ---- --- ------ ----- ------- ---- -- --- ------- --<br>------- ---------- ------ -- ----- -- ----- -- ---- ------<br>--- ----- --- --- ------ -------- ----- --- ------ ----- of<br>----- ----- ---------- --- --- ------ ------ ---- -- ------<br>------- --- ------ ----- --- ---- ------- -- ---- --- --<br>------- ------,238835.19999980927,238833.19999980927,238401.678,238402.30000019073,238418.396,238851.813,,32,of
screen,html.Screen,2_1_1_1_33,2022-04-28T11:23:26.460Z,,,,,,,,,,,,,,,,,54,,,,,,,,,,,,,,445.78699942780077,,response,,,,100,,,,,,,Space,keypress(Space),,,,,,,,-- --- ---- --- ------ ----- ------- ---- -- --- ------- --<br>------- ---------- ------ -- ----- -- ----- -- ---- ------<br>--- ----- --- --- ------ -------- ----- --- ------ ----- --<br>these ----- ---------- --- --- ------ ------ ---- -- ------<br>------- --- ------ ----- --- ---- ------- -- ---- --- --<br>------- ------,239299.30000019073,239297.5999994278,238835.017,238835.39999961853,238851.813,239301.549,,33,these
screen,html.Screen,2_1_1_1_34,2022-04-28T11:23:27.010Z,,,,,,,,,,,,,,,,,54,,,,,,,,,,,,,,545.2510001907358,,response,,,,100,,,,,,,Space,keypress(Space),,,,,,,,-- --- ---- --- ------ ----- ------- ---- -- --- ------- --<br>------- ---------- ------ -- ----- -- ----- -- ---- ------<br>--- ----- --- --- ------ -------- ----- --- ------ ----- --<br>----- bonds ---------- --- --- ------ ------ ---- -- ------<br>------- --- ------ ----- --- ---- ------- -- ---- --- --<br>------- ------,239848.5,239846.80000019073,239285.018,239299.5,239301.549,239851.567,,34,bonds
screen,html.Screen,2_1_1_1_35,2022-04-28T11:23:27.767Z,,,,,,,,,,,,,,,,,54,,,,,,,,,,,,,,752.6329998092551,,response,,,,100,,,,,,,Space,keypress(Space),,,,,,,,"-- --- ---- --- ------ ----- ------- ---- -- --- ------- --<br>------- ---------- ------ -- ----- -- ----- -- ---- ------<br>--- ----- --- --- ------ -------- ----- --- ------ ----- --<br>----- ----- plummeted, --- --- ------ ------ ---- -- ------<br>------- --- ------ ----- --- ---- ------- -- ---- --- --<br>------- ------",240605.69999980927,240604.19999980927,239835.012,239848.80000019073,239851.567,240618.392,,35,"plummeted,"
screen,html.Screen,2_1_1_1_36,2022-04-28T11:23:28.341Z,,,,,,,,,,,,,,,,,54,,,,,,,,,,,,,,560.1080000000075,,response,,,,100,,,,,,,Space,keypress(Space),,,,,,,,-- --- ---- --- ------ ----- ------- ---- -- --- ------- --<br>------- ---------- ------ -- ----- -- ----- -- ---- ------<br>--- ----- --- --- ------ -------- ----- --- ------ ----- --<br>----- ----- ---------- and --- ------ ------ ---- -- ------<br>------- --- ------ ----- --- ---- ------- -- ---- --- --<br>------- ------,241179.80000019073,241178.5,240601.672,240606,240618.392,241184.876,,36,and
screen,html.Screen,2_1_1_1_37,2022-04-28T11:23:28.837Z,,,,,,,,,,,,,,,,,54,,,,,,,,,,,,,,489.1240000000107,,response,,,,100,,,,,,,Space,keypress(Space),,,,,,,,-- --- ---- --- ------ ----- ------- ---- -- --- ------- --<br>------- ---------- ------ -- ----- -- ----- -- ---- ------<br>--- ----- --- --- ------ -------- ----- --- ------ ----- --<br>----- ----- ---------- --- the ------ ------ ---- -- ------<br>------- --- ------ ----- --- ---- ------- -- ---- --- --<br>------- ------,241675.69999980927,241674,241168.192,241180,241184.876,241684.876,,37,the
screen,html.Screen,2_1_1_1_38,2022-04-28T11:23:29.329Z,,,,,,,,,,,,,,,,,54,,,,,,,,,,,,,,481.6240000000107,,response,,,,100,,,,,,,Space,keypress(Space),,,,,,,,-- --- ---- --- ------ ----- ------- ---- -- --- ------- --<br>------- ---------- ------ -- ----- -- ----- -- ---- ------<br>--- ----- --- --- ------ -------- ----- --- ------ ----- --<br>----- ----- ---------- --- --- market ------ ---- -- ------<br>------- --- ------ ----- --- ---- ------- -- ---- --- --<br>------- ------,242167.80000019073,242166.5,241668.347,241676,241684.876,242185.034,,38,market
screen,html.Screen,2_1_1_1_39,2022-04-28T11:23:29.847Z,,,,,,,,,,,,,,,,,54,,,,,,,,,,,,,,498.9659999999858,,response,,,,100,,,,,,,Space,keypress(Space),,,,,,,,-- --- ---- --- ------ ----- ------- ---- -- --- ------- --<br>------- ---------- ------ -- ----- -- ----- -- ---- ------<br>--- ----- --- --- ------ -------- ----- --- ------ ----- --<br>----- ----- ---------- --- --- ------ became ---- -- ------<br>------- --- ------ ----- --- ---- ------- -- ---- --- --<br>------- ------,242685.5,242684,242168.348,242168,242185.034,242701.572,,39,became
screen,html.Screen,2_1_1_1_40,2022-04-28T11:23:30.439Z,,,,,,,,,,,,,,,,,54,,,,,,,,,,,,,,575.6279998092796,,response,,,,100,,,,,,,Space,keypress(Space),,,,,,,,-- --- ---- --- ------ ----- ------- ---- -- --- ------- --<br>------- ---------- ------ -- ----- -- ----- -- ---- ------<br>--- ----- --- --- ------ -------- ----- --- ------ ----- --<br>----- ----- ---------- --- --- ------ ------ wary -- ------<br>------- --- ------ ----- --- ---- ------- -- ---- --- --<br>------- ------,243278.5,243277.19999980927,242685.012,242685.80000019073,242701.572,243284.869,,40,wary
screen,html.Screen,2_1_1_1_41,2022-04-28T11:23:30.937Z,,,,,,,,,,,,,,,,,54,,,,,,,,,,,,,,489.9310001907288,,response,,,,100,,,,,,,Space,keypress(Space),,,,,,,,-- --- ---- --- ------ ----- ------- ---- -- --- ------- --<br>------- ---------- ------ -- ----- -- ----- -- ---- ------<br>--- ----- --- --- ------ -------- ----- --- ------ ----- --<br>----- ----- ---------- --- --- ------ ------ ---- of ------<br>------- --- ------ ----- --- ---- ------- -- ---- --- --<br>------- ------,243776.5999994278,243774.80000019073,243268.343,243278.5999994278,243284.869,243785.34,,41,of
screen,html.Screen,2_1_1_1_42,2022-04-28T11:23:31.657Z,,,,,,,,,,,,,,,,,54,,,,,,,,,,,,,,709.6600000000035,,response,,,,100,,,,,,,Space,keypress(Space),,,,,,,,-- --- ---- --- ------ ----- ------- ---- -- --- ------- --<br>------- ---------- ------ -- ----- -- ----- -- ---- ------<br>--- ----- --- --- ------ -------- ----- --- ------ ----- --<br>----- ----- ---------- --- --- ------ ------ ---- -- French<br>------- --- ------ ----- --- ---- ------- -- ---- --- --<br>------- ------,244497.0999994278,244495,243768.346,243776.89999961853,243785.34,244501.556,,42,French
screen,html.Screen,2_1_1_1_43,2022-04-28T11:23:32.559Z,,,,,,,,,,,,,,,,,54,,,,,,,,,,,,,,896.3439996185189,,response,,,,100,,,,,,,Space,keypress(Space),,,,,,,,-- --- ---- --- ------ ----- ------- ---- -- --- ------- --<br>------- ---------- ------ -- ----- -- ----- -- ---- ------<br>--- ----- --- --- ------ -------- ----- --- ------ ----- --<br>----- ----- ---------- --- --- ------ ------ ---- -- ------<br>credit. --- ------ ----- --- ---- ------- -- ---- --- --<br>------- ------,245399.39999961853,245397.89999961853,244485.011,244497.30000019073,244501.556,245401.544,,43,credit.
screen,html.Screen,2_1_1_1_44,2022-04-28T11:23:33.054Z,,,,,,,,,,,,,,,,,54,,,,,,,,,,,,,,490.6559998092707,,response,,,,100,,,,,,,Space,keypress(Space),,,,,,,,-- --- ---- --- ------ ----- ------- ---- -- --- ------- --<br>------- ---------- ------ -- ----- -- ----- -- ---- ------<br>--- ----- --- --- ------ -------- ----- --- ------ ----- --<br>----- ----- ---------- --- --- ------ ------ ---- -- ------<br>------- The ------ ----- --- ---- ------- -- ---- --- --<br>------- ------,245893.89999961853,245892.19999980927,245385.046,245399.5,245401.544,245901.947,,44,The
screen,html.Screen,2_1_1_1_45,2022-04-28T11:23:33.613Z,,,,,,,,,,,,,,,,,54,,,,,,,,,,,,,,549.1529994278098,,response,,,,100,,,,,,,Space,keypress(Space),,,,,,,,-- --- ---- --- ------ ----- ------- ---- -- --- ------- --<br>------- ---------- ------ -- ----- -- ----- -- ---- ------<br>--- ----- --- --- ------ -------- ----- --- ------ ----- --<br>----- ----- ---------- --- --- ------ ------ ---- -- ------<br>------- --- French ----- --- ---- ------- -- ---- --- --<br>------- ------,246453.19999980927,246451.0999994278,245885.014,245894.0999994278,245901.947,246468.201,,45,French
screen,html.Screen,2_1_1_1_46,2022-04-28T11:23:34.099Z,,,,,,,,,,,,,,,,,54,,,,,,,,,,,,,,467.69899961852934,,response,,,,100,,,,,,,Space,keypress(Space),,,,,,,,-- --- ---- --- ------ ----- ------- ---- -- --- ------- --<br>------- ---------- ------ -- ----- -- ----- -- ---- ------<br>--- ----- --- --- ------ -------- ----- --- ------ ----- --<br>----- ----- ---------- --- --- ------ ------ ---- -- ------<br>------- --- ------ state --- ---- ------- -- ---- --- --<br>------- ------,246939.19999980927,246935.89999961853,246451.678,246453.39999961853,246468.201,246951.79,,46,state
screen,html.Screen,2_1_1_1_47,2022-04-28T11:23:34.882Z,,,,,,,,,,,,,,,,,54,,,,,,,,,,,,,,768.3099994277873,,response,,,,100,,,,,,,Space,keypress(Space),,,,,,,,-- --- ---- --- ------ ----- ------- ---- -- --- ------- --<br>------- ---------- ------ -- ----- -- ----- -- ---- ------<br>--- ----- --- --- ------ -------- ----- --- ------ ----- --<br>----- ----- ---------- --- --- ------ ------ ---- -- ------<br>------- --- ------ ----- was ---- ------- -- ---- --- --<br>------- ------,247721.80000019073,247720.0999994278,246934.842,246939.39999961853,246951.79,247735.059,,47,was
screen,html.Screen,2_1_1_1_48,2022-04-28T11:23:35.320Z,,,,,,,,,,,,,,,,,54,,,,,,,,,,,,,,422.9409999999916,,response,,,,100,,,,,,,Space,keypress(Space),,,,,,,,-- --- ---- --- ------ ----- ------- ---- -- --- ------- --<br>------- ---------- ------ -- ----- -- ----- -- ---- ------<br>--- ----- --- --- ------ -------- ----- --- ------ ----- --<br>----- ----- ---------- --- --- ------ ------ ---- -- ------<br>------- --- ------ ----- --- left ------- -- ---- --- --<br>------- ------,248160,248158,247718.371,247722,247735.059,248176.775,,48,left
screen,html.Screen,2_1_1_1_49,2022-04-28T11:23:35.775Z,,,,,,,,,,,,,,,,,54,,,,,,,,,,,,,,436.6249996185361,,response,,,,100,,,,,,,Space,keypress(Space),,,,,,,,-- --- ---- --- ------ ----- ------- ---- -- --- ------- --<br>------- ---------- ------ -- ----- -- ----- -- ---- ------<br>--- ----- --- --- ------ -------- ----- --- ------ ----- --<br>----- ----- ---------- --- --- ------ ------ ---- -- ------<br>------- --- ------ ----- --- ---- without -- ---- --- --<br>------- ------,248614.5999994278,248613.39999961853,248151.683,248160.30000019073,248176.775,248618.23,,49,without
screen,html.Screen,2_1_1_1_50,2022-04-28T11:23:36.163Z,,,,,,,,,,,,,,,,,54,,,,,,,,,,,,,,382.86999942778493,,response,,,,100,,,,,,,Space,keypress(Space),,,,,,,,-- --- ---- --- ------ ----- ------- ---- -- --- ------- --<br>------- ---------- ------ -- ----- -- ----- -- ---- ------<br>--- ----- --- --- ------ -------- ----- --- ------ ----- --<br>----- ----- ---------- --- --- ------ ------ ---- -- ------<br>------- --- ------ ----- --- ---- ------- an ---- --- --<br>------- ------,249003.39999961853,249001.0999994278,248601.705,248615,248618.23,249018.485,,50,an
screen,html.Screen,2_1_1_1_51,2022-04-28T11:23:36.636Z,,,,,,,,,,,,,,,,,54,,,,,,,,,,,,,,455.81500019074883,,response,,,,100,,,,,,,Space,keypress(Space),,,,,,,,-- --- ---- --- ------ ----- ------- ---- -- --- ------- --<br>------- ---------- ------ -- ----- -- ----- -- ---- ------<br>--- ----- --- --- ------ -------- ----- --- ------ ----- --<br>----- ----- ---------- --- --- ------ ------ ---- -- ------<br>------- --- ------ ----- --- ---- ------- -- easy --- --<br>------- ------,249476,249474.30000019073,249001.687,249003.69999980927,249018.485,249484.874,,51,easy
screen,html.Screen,2_1_1_1_52,2022-04-28T11:23:37.081Z,,,,,,,,,,,,,,,,,54,,,,,,,,,,,,,,434.52599961851956,,response,,,,100,,,,,,,Space,keypress(Space),,,,,,,,-- --- ---- --- ------ ----- ------- ---- -- --- ------- --<br>------- ---------- ------ -- ----- -- ----- -- ---- ------<br>--- ----- --- --- ------ -------- ----- --- ------ ----- --<br>----- ----- ---------- --- --- ------ ------ ---- -- ------<br>------- --- ------ ----- --- ---- ------- -- ---- way --<br>------- ------,249921.19999980927,249919.39999961853,249468.353,249476.19999980927,249484.874,249935.06,,52,way
screen,html.Screen,2_1_1_1_53,2022-04-28T11:23:37.531Z,,,,,,,,,,,,,,,,,54,,,,,,,,,,,,,,434.13999980926747,,response,,,,100,,,,,,,Space,keypress(Space),,,,,,,,-- --- ---- --- ------ ----- ------- ---- -- --- ------- --<br>------- ---------- ------ -- ----- -- ----- -- ---- ------<br>--- ----- --- --- ------ -------- ----- --- ------ ----- --<br>----- ----- ---------- --- --- ------ ------ ---- -- ------<br>------- --- ------ ----- --- ---- ------- -- ---- --- of<br>------- ------,250370.69999980927,250369.19999980927,249918.351,249921.39999961853,249935.06,250385.059,,53,of
screen,html.Screen,2_1_1_1_54,2022-04-28T11:23:38.043Z,,,,,,,,,,,,,,,,,54,,,,,,,,,,,,,,496.14099980925675,,response,,,,100,,,,,,,Space,keypress(Space),,,,,,,,-- --- ---- --- ------ ----- ------- ---- -- --- ------- --<br>------- ---------- ------ -- ----- -- ----- -- ---- ------<br>--- ----- --- --- ------ -------- ----- --- ------ ----- --<br>----- ----- ---------- --- --- ------ ------ ---- -- ------<br>------- --- ------ ----- --- ---- ------- -- ---- --- --<br>raising ------,250882.5,250881.19999980927,250368.353,250370.89999961853,250385.059,250884.892,,54,raising
screen,html.Screen,2_1_1_1_55,2022-04-28T11:23:38.537Z,,,,,,,,,,,,,,,,,54,,,,,,,,,,,,,,491.10800000000745,,response,,,,100,,,,,,,Space,keypress(Space),,,,,,,,-- --- ---- --- ------ ----- ------- ---- -- --- ------- --<br>------- ---------- ------ -- ----- -- ----- -- ---- ------<br>--- ----- --- --- ------ -------- ----- --- ------ ----- --<br>----- ----- ---------- --- --- ------ ------ ---- -- ------<br>------- --- ------ ----- --- ---- ------- -- ---- --- --<br>------- money.,251377.39999961853,251376,250868.349,250882.80000019073,250884.892,251384.883,,55,money.
Item 100,flow.Loop,2_1_1_1,2022-04-28T11:23:38.538Z,,,,,,,,,,,,,,,,,,,,,,,,,,,,,,,31041.13500000001,,completion,,,,,D,,,,,,,,,,,silence,,,,,251377.80000019073,251376,220318.367,220319.69999980927,220334.865,251384.883,,,
Question 1,html.Screen,2_1_1_2,2022-04-28T11:23:41.435Z,,,,,,,,,,,,,,,,,,,,,,,,,,,,true,TRUE,,2888.0169996185286,,response,,,,100,D,,,,,,TRUE,click #choice-1,,,,silence,,,,,254275.0999994278,254272.89999961853,251368.255,251377.89999961853,251384.883,254285.141,,,
Question 2,html.Screen,2_1_1_3,2022-04-28T11:23:44.280Z,,,,,,,,,,,,,,,,,,,,,,,,,,,,true,FALSE,,2832.058999809262,,response,,,,100,D,,,,,,FALSE,click #choice-2,,,,silence,,,,,257120.30000019073,257117.19999980927,254268.363,254275.30000019073,254285.141,257135.453,,,
Item 100,flow.Sequence,2_1_1,2022-04-28T11:23:44.281Z,,,,,,,,,,,,,,,,,,,,,,,,,,,,,,,46782.344999809255,,completion,,,,,,,,,,,,,,,,,,,,,257120.5,257117.19999980927,210318.352,210325.80000019073,210334.855,257135.453,,,
End of Practice,html.Page,2_1_2,2022-04-28T11:23:52.075Z,,,,,,,,,,,,,,,,,,,,,,,,,,,,,,,7778.446999618522,,form submission,,,,,,,,,,,,,,,,,,,,,264914.69999980927,264913.89999961853,257118.232,257120.80000019073,257135.453,264918.68,,,
Practice,flow.Sequence,2_1,2022-04-28T11:23:52.075Z,,,,,,,,,,,,,,,,,,,,,,,,,,,,,,,104279.01199961852,,completion,,,,,,,,,,,,,,,,,,,,,264915,264913.89999961853,160584.895,160629.19999980927,160634.888,264918.68,,,
Trap_instruction,html.Page,2_2_0,2022-04-28T11:23:57.057Z,,,,,,,,,,,,,,,,,,,,,,,,,,,,,,,4978.219999618537,,form submission,,,,,,,,,,,,,,,,,,,,,269897.0999994278,269896.89999961853,264901.687,264915.0999994278,264918.68,270118.203,,,
trap_trial,html.Screen,2_2_1,2022-04-28T11:24:01.129Z,,,,,,,,,,,,,,,,,,,,,,,,,,,,true,1,,3848.4969998092856,,response,,,,,,,,,,,1,click #choice-1,,,,,,,,,273969.0999994278,273966.69999980927,269885.014,269897.19999980927,270118.203,273991.877,,,
end of trap trial,html.Page,2_2_2,2022-04-28T11:24:05.167Z,,,,,,,,,,,,,,,,,,,,,,,,,,,,,,,4014.3229998092866,,form submission,,,,,,,,,,,,,,,,,,,,,278006.5,278006.19999980927,273951.554,273969.30000019073,273991.877,278018.476,,,
Trap 1,flow.Sequence,2_2,2022-04-28T11:24:05.167Z,,,,,,,,,,,,,,,,,,,,,,,,,,,,,,,13087.519999809272,,completion,,,,,,,,,,,,,,,,,,,,,278006.80000019073,278006.19999980927,264901.687,264915,264918.68,278018.476,,,
Standby,html.Page,2_3_0,2022-04-28T11:24:13.164Z,,,,,,,,,,,,,,,,,,,,,,,,,,,,,,,7999.724999999977,,timeout,,,,,,,,,,,,,,,,,,,,,286003.89999961853,286001.694,278001.695,278007,278018.476,286018.201,,,
Holding screen,html.Screen,2_3_1_0_0,2022-04-28T11:24:20.163Z,,,,,,,,,,,,,,,,,,,,,,,,,,,,,,,6999.983000000007,,timeout,,,,,,,,,,,,,,,,,,,,,293002.80000019073,293001.689,286001.694,286004.30000019073,286018.201,293018.184,,,
screen,html.Screen,2_3_1_0_1_0,2022-04-28T11:24:26.076Z,,,,,,,,,,,,,,,,,12,,,,,,,,,,,,,,5895.415999427787,,response,,,,5,D,,,,,,Space,keypress(Space),,,,speech,,,,Some ------ ------ ------- ------ --- ------- -----------<br>-- ----- --- ---- -- --- ------ ---- - ---- -- ----------<br>-- ------ ---- --- ---- --- --- --- ----- -- -------- ---<br>------ ------- -------- --- ---- -- ------- ------------ --<br>------ -- ---- -- --- ---- -- -------- -- --- ------ ------,298915.5999994278,298913.5999994278,293001.689,293003.19999980927,293018.184,298918.241,,0,Some
screen,html.Screen,2_3_1_0_1_1,2022-04-28T11:24:26.635Z,,,,,,,,,,,,,,,,,12,,,,,,,,,,,,,,554.6589996185503,,response,,,,5,D,,,,,,Space,keypress(Space),,,,speech,,,,---- months ------ ------- ------ --- ------- -----------<br>-- ----- --- ---- -- --- ------ ---- - ---- -- ----------<br>-- ------ ---- --- ---- --- --- --- ----- -- -------- ---<br>------ ------- -------- --- ---- -- ------- ------------ --<br>------ -- ---- -- --- ---- -- -------- -- --- ------ ------,299474.80000019073,299472.89999961853,298901.465,298915.80000019073,298918.241,299485.019,,1,months
screen,html.Screen,2_3_1_0_1_2,2022-04-28T11:24:27.137Z,,,,,,,,,,,,,,,,,12,,,,,,,,,,,,,,490.180999809294,,response,,,,5,D,,,,,,Space,keypress(Space),,,,speech,,,,"---- ------ later, ------- ------ --- ------- -----------<br>-- ----- --- ---- -- --- ------ ---- - ---- -- ----------<br>-- ------ ---- --- ---- --- --- --- ----- -- -------- ---<br>------ ------- -------- --- ---- -- ------- ------------ --<br>------ -- ---- -- --- ---- -- -------- -- --- ------ ------",299977.0999994278,299975.19999980927,299468.351,299475,299485.019,299984.851,,2,"later,"
screen,html.Screen,2_3_1_0_1_3,2022-04-28T11:24:27.725Z,,,,,,,,,,,,,,,,,12,,,,,,,,,,,,,,578.0489996185061,,response,,,,5,D,,,,,,Space,keypress(Space),,,,speech,,,,---- ------ ------ Michael ------ --- ------- -----------<br>-- ----- --- ---- -- --- ------ ---- - ---- -- ----------<br>-- ------ ---- --- ---- --- --- --- ----- -- -------- ---<br>------ ------- -------- --- ---- -- ------- ------------ --<br>------ -- ---- -- --- ---- -- -------- -- --- ------ ------,300564.80000019073,300562.89999961853,299968.325,299977.30000019073,299984.851,300568.217,,3,Michael
screen,html.Screen,2_3_1_0_1_4,2022-04-28T11:24:28.294Z,,,,,,,,,,,,,,,,,12,,,,,,,,,,,,,,563.982999809261,,response,,,,5,D,,,,,,Space,keypress(Space),,,,speech,,,,---- ------ ------ ------- Larson --- ------- -----------<br>-- ----- --- ---- -- --- ------ ---- - ---- -- ----------<br>-- ------ ---- --- ---- --- --- --- ----- -- -------- ---<br>------ ------- -------- --- ---- -- ------- ------------ --<br>------ -- ---- -- --- ---- -- -------- -- --- ------ ------,301134.30000019073,301132.19999980927,300551.683,300565,300568.217,301151.812,,4,Larson
screen,html.Screen,2_3_1_0_1_5,2022-04-28T11:24:28.814Z,,,,,,,,,,,,,,,,,12,,,,,,,,,,,,,,500.28799942781916,,response,,,,5,D,,,,,,Space,keypress(Space),,,,speech,,,,---- ------ ------ ------- ------ saw ------- -----------<br>-- ----- --- ---- -- --- ------ ---- - ---- -- ----------<br>-- ------ ---- --- ---- --- --- --- ----- -- -------- ---<br>------ ------- -------- --- ---- -- ------- ------------ --<br>------ -- ---- -- --- ---- -- -------- -- --- ------ ------,301654.0999994278,301652.0999994278,301135.049,301134.5,301151.812,301668.392,,5,saw
screen,html.Screen,2_3_1_0_1_6,2022-04-28T11:24:29.655Z,,,,,,,,,,,,,,,,,12,,,,,,,,,,,,,,824.4080001907423,,response,,,,5,D,,,,,,Space,keypress(Space),,,,speech,,,,---- ------ ------ ------- ------ --- another -----------<br>-- ----- --- ---- -- --- ------ ---- - ---- -- ----------<br>-- ------ ---- --- ---- --- --- --- ----- -- -------- ---<br>------ ------- -------- --- ---- -- ------- ------------ --<br>------ -- ---- -- --- ---- -- -------- -- --- ------ ------,302494.69999980927,302492.80000019073,301651.673,301654.39999961853,301668.392,302501.524,,6,another
screen,html.Screen,2_3_1_0_1_7,2022-04-28T11:24:32.296Z,,,,,,,,,,,,,,,,,12,,,,,,,,,,,,,,2628.8759996185545,,response,,,,5,D,,,,,,Space,keypress(Space),,,,speech,,,,---- ------ ------ ------- ------ --- ------- opportunity<br>-- ----- --- ---- -- --- ------ ---- - ---- -- ----------<br>-- ------ ---- --- ---- --- --- --- ----- -- -------- ---<br>------ ------- -------- --- ---- -- ------- ------------ --<br>------ -- ---- -- --- ---- -- -------- -- --- ------ ------,305131.80000019073,305130.39999961853,302484.998,302495,302501.524,305134.89,,7,opportunity
screen,html.Screen,2_3_1_0_1_8,2022-04-28T11:24:33.011Z,,,,,,,,,,,,,,,,,12,,,,,,,,,,,,,,710.3099998092512,,response,,,,5,D,,,,,,Space,keypress(Space),,,,speech,,,,---- ------ ------ ------- ------ --- ------- -----------<br>to ----- --- ---- -- --- ------ ---- - ---- -- ----------<br>-- ------ ---- --- ---- --- --- --- ----- -- -------- ---<br>------ ------- -------- --- ---- -- ------- ------------ --<br>------ -- ---- -- --- ---- -- -------- -- --- ------ ------,305846.89999961853,305845.19999980927,305118.241,305132,305134.89,305851.581,,8,to
screen,html.Screen,2_3_1_0_1_9,2022-04-28T11:24:33.736Z,,,,,,,,,,,,,,,,,12,,,,,,,,,,,,,,718.5189994277898,,response,,,,5,D,,,,,,Space,keypress(Space),,,,speech,,,,---- ------ ------ ------- ------ --- ------- -----------<br>-- stack --- ---- -- --- ------ ---- - ---- -- ----------<br>-- ------ ---- --- ---- --- --- --- ----- -- -------- ---<br>------ ------- -------- --- ---- -- ------- ------------ --<br>------ -- ---- -- --- ---- -- -------- -- --- ------ ------,306571.39999961853,306570.0999994278,305834.988,305847.19999980927,305851.581,306585.058,,9,stack
screen,html.Screen,2_3_1_0_1_10,2022-04-28T11:24:34.237Z,,,,,,,,,,,,,,,,,12,,,,,,,,,,,,,,486.14199980924604,,response,,,,5,D,,,,,,Space,keypress(Space),,,,speech,,,,---- ------ ------ ------- ------ --- ------- -----------<br>-- ----- the ---- -- --- ------ ---- - ---- -- ----------<br>-- ------ ---- --- ---- --- --- --- ----- -- -------- ---<br>------ ------- -------- --- ---- -- ------- ------------ --<br>------ -- ---- -- --- ---- -- -------- -- --- ------ ------,307072.89999961853,307071.19999980927,306568.336,306571.5999994278,306585.058,307085.072,,10,the
screen,html.Screen,2_3_1_0_1_11,2022-04-28T11:24:34.921Z,,,,,,,,,,,,,,,,,12,,,,,,,,,,,,,,670.4280000000144,,response,,,,5,D,,,,,,Space,keypress(Space),,,,speech,,,,---- ------ ------ ------- ------ --- ------- -----------<br>-- ----- --- odds -- --- ------ ---- - ---- -- ----------<br>-- ------ ---- --- ---- --- --- --- ----- -- -------- ---<br>------ ------- -------- --- ---- -- ------- ------------ --<br>------ -- ---- -- --- ---- -- -------- -- --- ------ ------,307756.80000019073,307755.5,307068.341,307073.19999980927,307085.072,307768.391,,11,odds
screen,html.Screen,2_3_1_0_1_12,2022-04-28T11:24:35.352Z,,,,,,,,,,,,,,,,,12,,,,,,,,,,,,,,417.70899942779215,,response,,,,5,D,,,,,,Space,keypress(Space),,,,speech,,,,---- ------ ------ ------- ------ --- ------- -----------<br>-- ----- --- ---- in --- ------ ---- - ---- -- ----------<br>-- ------ ---- --- ---- --- --- --- ----- -- -------- ---<br>------ ------- -------- --- ---- -- ------- ------------ --<br>------ -- ---- -- --- ---- -- -------- -- --- ------ ------,308187.5999994278,308186.0999994278,307751.666,307757,307768.391,308201.703,,12,in
screen,html.Screen,2_3_1_0_1_13,2022-04-28T11:24:35.814Z,,,,,,,,,,,,,,,,,12,,,,,,,,,,,,,,446.59700019075535,,response,,,,5,D,,,,,,Space,keypress(Space),,,,speech,,,,---- ------ ------ ------- ------ --- ------- -----------<br>-- ----- --- ---- -- his ------ ---- - ---- -- ----------<br>-- ------ ---- --- ---- --- --- --- ----- -- -------- ---<br>------ ------- -------- --- ---- -- ------- ------------ --<br>------ -- ---- -- --- ---- -- -------- -- --- ------ ------,308649.5999994278,308648.30000019073,308185.016,308187.80000019073,308201.703,308651.56,,13,his
screen,html.Screen,2_3_1_0_1_14,2022-04-28T11:24:36.307Z,,,,,,,,,,,,,,,,,12,,,,,,,,,,,,,,489.53999942779774,,response,,,,5,D,,,,,,Space,keypress(Space),,,,speech,,,,---- ------ ------ ------- ------ --- ------- -----------<br>-- ----- --- ---- -- --- favour ---- - ---- -- ----------<br>-- ------ ---- --- ---- --- --- --- ----- -- -------- ---<br>------ ------- -------- --- ---- -- ------- ------------ --<br>------ -- ---- -- --- ---- -- -------- -- --- ------ ------,309142.69999980927,309141.0999994278,308635.023,308649.80000019073,308651.56,309151.506,,14,favour
screen,html.Screen,2_3_1_0_1_15,2022-04-28T11:24:36.770Z,,,,,,,,,,,,,,,,,12,,,,,,,,,,,,,,452.49400000000605,,response,,,,5,D,,,,,,Space,keypress(Space),,,,speech,,,,---- ------ ------ ------- ------ --- ------- -----------<br>-- ----- --- ---- -- --- ------ with - ---- -- ----------<br>-- ------ ---- --- ---- --- --- --- ----- -- -------- ---<br>------ ------- -------- --- ---- -- ------- ------------ --<br>------ -- ---- -- --- ---- -- -------- -- --- ------ ------,309605.5,309604,309135.007,309142.89999961853,309151.506,309618.37,,15,with
screen,html.Screen,2_3_1_0_1_16,2022-04-28T11:24:37.280Z,,,,,,,,,,,,,,,,,12,,,,,,,,,,,,,,495.02999961853493,,response,,,,5,D,,,,,,Space,keypress(Space),,,,speech,,,,---- ------ ------ ------- ------ --- ------- -----------<br>-- ----- --- ---- -- --- ------ ---- a ---- -- ----------<br>-- ------ ---- --- ---- --- --- --- ----- -- -------- ---<br>------ ------- -------- --- ---- -- ------- ------------ --<br>------ -- ---- -- --- ---- -- -------- -- --- ------ ------,310115,310113.39999961853,309602.697,309605.69999980927,309618.37,310118.212,,16,a
screen,html.Screen,2_3_1_0_1_17,2022-04-28T11:24:37.793Z,,,,,,,,,,,,,,,,,12,,,,,,,,,,,,,,508.58800019073533,,response,,,,5,D,,,,,,Space,keypress(Space),,,,speech,,,,---- ------ ------ ------- ------ --- ------- -----------<br>-- ----- --- ---- -- --- ------ ---- - dash -- ----------<br>-- ------ ---- --- ---- --- --- --- ----- -- -------- ---<br>------ ------- -------- --- ---- -- ------- ------------ --<br>------ -- ---- -- --- ---- -- -------- -- --- ------ ------,310628.19999980927,310626.80000019073,310101.764,310115.19999980927,310118.212,310634.867,,17,dash
screen,html.Screen,2_3_1_0_1_18,2022-04-28T11:24:38.471Z,,,,,,,,,,,,,,,,,12,,,,,,,,,,,,,,670.0329996185028,,response,,,,5,D,,,,,,Space,keypress(Space),,,,speech,,,,---- ------ ------ ------- ------ --- ------- -----------<br>-- ----- --- ---- -- --- ------ ---- - ---- of ----------<br>-- ------ ---- --- ---- --- --- --- ----- -- -------- ---<br>------ ------- -------- --- ---- -- ------- ------------ --<br>------ -- ---- -- --- ---- -- -------- -- --- ------ ------,311306.0999994278,311304.89999961853,310618.362,310628.39999961853,310634.867,311318.39,,18,of
screen,html.Screen,2_3_1_0_1_19,2022-04-28T11:24:39.290Z,,,,,,,,,,,,,,,,,12,,,,,,,,,,,,,,805.109999999986,,response,,,,5,D,,,,,,Space,keypress(Space),,,,speech,,,,---- ------ ------ ------- ------ --- ------- -----------<br>-- ----- --- ---- -- --- ------ ---- - ---- -- ingenuity.<br>-- ------ ---- --- ---- --- --- --- ----- -- -------- ---<br>------ ------- -------- --- ---- -- ------- ------------ --<br>------ -- ---- -- --- ---- -- -------- -- --- ------ ------,312125.0999994278,312123.5,311301.677,311306.39999961853,311318.39,312135.058,,19,ingenuity.
screen,html.Screen,2_3_1_0_1_20,2022-04-28T11:24:40.273Z,,,,,,,,,,,,,,,,,12,,,,,,,,,,,,,,972.0419994277763,,response,,,,5,D,,,,,,Space,keypress(Space),,,,speech,,,,---- ------ ------ ------- ------ --- ------- -----------<br>-- ----- --- ---- -- --- ------ ---- - ---- -- ----------<br>He ------ ---- --- ---- --- --- --- ----- -- -------- ---<br>------ ------- -------- --- ---- -- ------- ------------ --<br>------ -- ---- -- --- ---- -- -------- -- --- ------ ------,313108.80000019073,313107.0999994278,312118.366,312125.39999961853,312135.058,313118.763,,20,He
screen,html.Screen,2_3_1_0_1_21,2022-04-28T11:24:40.973Z,,,,,,,,,,,,,,,,,12,,,,,,,,,,,,,,688.1369996185531,,response,,,,5,D,,,,,,Space,keypress(Space),,,,speech,,,,---- ------ ------ ------- ------ --- ------- -----------<br>-- ----- --- ---- -- --- ------ ---- - ---- -- ----------<br>-- walked ---- --- ---- --- --- --- ----- -- -------- ---<br>------ ------- -------- --- ---- -- ------- ------------ --<br>------ -- ---- -- --- ---- -- -------- -- --- ------ ------,313808.19999980927,313806.89999961853,313101.659,313109,313118.763,313818.397,,21,walked
screen,html.Screen,2_3_1_0_1_22,2022-04-28T11:24:41.468Z,,,,,,,,,,,,,,,,,12,,,,,,,,,,,,,,483.7029994277982,,response,,,,5,D,,,,,,Space,keypress(Space),,,,speech,,,,---- ------ ------ ------- ------ --- ------- -----------<br>-- ----- --- ---- -- --- ------ ---- - ---- -- ----------<br>-- ------ into --- ---- --- --- --- ----- -- -------- ---<br>------ ------- -------- --- ---- -- ------- ------------ --<br>------ -- ---- -- --- ---- -- -------- -- --- ------ ------,314304,314302.0999994278,313801.675,313808.39999961853,313818.397,314318.394,,22,into
screen,html.Screen,2_3_1_0_1_23,2022-04-28T11:24:41.900Z,,,,,,,,,,,,,,,,,12,,,,,,,,,,,,,,415.00599961855914,,response,,,,5,D,,,,,,Space,keypress(Space),,,,speech,,,,---- ------ ------ ------- ------ --- ------- -----------<br>-- ----- --- ---- -- --- ------ ---- - ---- -- ----------<br>-- ------ ---- his ---- --- --- --- ----- -- -------- ---<br>------ ------- -------- --- ---- -- ------- ------------ --<br>------ -- ---- -- --- ---- -- -------- -- --- ------ ------,314735.30000019073,314733.39999961853,314301.676,314304.30000019073,314318.394,314751.806,,23,his
screen,html.Screen,2_3_1_0_1_24,2022-04-28T11:24:42.359Z,,,,,,,,,,,,,,,,,12,,,,,,,,,,,,,,440.7939994278131,,response,,,,5,D,,,,,,Space,keypress(Space),,,,speech,,,,---- ------ ------ ------- ------ --- ------- -----------<br>-- ----- --- ---- -- --- ------ ---- - ---- -- ----------<br>-- ------ ---- --- bank --- --- --- ----- -- -------- ---<br>------ ------- -------- --- ---- -- ------- ------------ --<br>------ -- ---- -- --- ---- -- -------- -- --- ------ ------,315194.5,315192.5999994278,314735.012,314735.39999961853,314751.806,315201.532,,24,bank
screen,html.Screen,2_3_1_0_1_25,2022-04-28T11:24:42.789Z,,,,,,,,,,,,,,,,,12,,,,,,,,,,,,,,421.36799961852375,,response,,,,5,D,,,,,,Space,keypress(Space),,,,speech,,,,---- ------ ------ ------- ------ --- ------- -----------<br>-- ----- --- ---- -- --- ------ ---- - ---- -- ----------<br>-- ------ ---- --- ---- one --- --- ----- -- -------- ---<br>------ ------- -------- --- ---- -- ------- ------------ --<br>------ -- ---- -- --- ---- -- -------- -- --- ------ ------,315624.80000019073,315622.89999961853,315185.004,315194.80000019073,315201.532,315635.059,,25,one
screen,html.Screen,2_3_1_0_1_26,2022-04-28T11:24:43.170Z,,,,,,,,,,,,,,,,,12,,,,,,,,,,,,,,368.7410001907265,,response,,,,5,D,,,,,,Space,keypress(Space),,,,speech,,,,---- ------ ------ ------- ------ --- ------- -----------<br>-- ----- --- ---- -- --- ------ ---- - ---- -- ----------<br>-- ------ ---- --- ---- --- day --- ----- -- -------- ---<br>------ ------- -------- --- ---- -- ------- ------------ --<br>------ -- ---- -- --- ---- -- -------- -- --- ------ ------,316005.5,316003.80000019073,315618.348,315625,315635.059,316018.392,,26,day
screen,html.Screen,2_3_1_0_1_27,2022-04-28T11:24:43.610Z,,,,,,,,,,,,,,,,,12,,,,,,,,,,,,,,425.3079998092726,,response,,,,5,D,,,,,,Space,keypress(Space),,,,speech,,,,---- ------ ------ ------- ------ --- ------- -----------<br>-- ----- --- ---- -- --- ------ ---- - ---- -- ----------<br>-- ------ ---- --- ---- --- --- and ----- -- -------- ---<br>------ ------- -------- --- ---- -- ------- ------------ --<br>------ -- ---- -- --- ---- -- -------- -- --- ------ ------,316445.30000019073,316443.69999980927,316001.684,316005.69999980927,316018.392,316451.514,,27,and
screen,html.Screen,2_3_1_0_1_28,2022-04-28T11:24:44.080Z,,,,,,,,,,,,,,,,,12,,,,,,,,,,,,,,462.7860001907102,,response,,,,5,D,,,,,,Space,keypress(Space),,,,speech,,,,---- ------ ------ ------- ------ --- ------- -----------<br>-- ----- --- ---- -- --- ------ ---- - ---- -- ----------<br>-- ------ ---- --- ---- --- --- --- asked -- -------- ---<br>------ ------- -------- --- ---- -- ------- ------------ --<br>------ -- ---- -- --- ---- -- -------- -- --- ------ ------,316915.5999994278,316914.30000019073,316435.048,316445.5,316451.514,316918.216,,28,asked
screen,html.Screen,2_3_1_0_1_29,2022-04-28T11:24:44.496Z,,,,,,,,,,,,,,,,,12,,,,,,,,,,,,,,412.2839999999851,,response,,,,5,D,,,,,,Space,keypress(Space),,,,speech,,,,---- ------ ------ ------- ------ --- ------- -----------<br>-- ----- --- ---- -- --- ------ ---- - ---- -- ----------<br>-- ------ ---- --- ---- --- --- --- ----- to -------- ---<br>------ ------- -------- --- ---- -- ------- ------------ --<br>------ -- ---- -- --- ---- -- -------- -- --- ------ ------,317331.80000019073,317330.5,316901.701,316915.89999961853,316918.216,317334.872,,29,to
screen,html.Screen,2_3_1_0_1_30,2022-04-28T11:24:44.892Z,,,,,,,,,,,,,,,,,12,,,,,,,,,,,,,,390.8279998092912,,response,,,,5,D,,,,,,Space,keypress(Space),,,,speech,,,,---- ------ ------ ------- ------ --- ------- -----------<br>-- ----- --- ---- -- --- ------ ---- - ---- -- ----------<br>-- ------ ---- --- ---- --- --- --- ----- -- withdraw ---<br>------ ------- -------- --- ---- -- ------- ------------ --<br>------ -- ---- -- --- ---- -- -------- -- --- ------ ------,317727,317725.69999980927,317318.398,317332.0999994278,317334.872,317734.959,,30,withdraw
screen,html.Screen,2_3_1_0_1_31,2022-04-28T11:24:45.314Z,,,,,,,,,,,,,,,,,12,,,,,,,,,,,,,,413.64099942782195,,response,,,,5,D,,,,,,Space,keypress(Space),,,,speech,,,,---- ------ ------ ------- ------ --- ------- -----------<br>-- ----- --- ---- -- --- ------ ---- - ---- -- ----------<br>-- ------ ---- --- ---- --- --- --- ----- -- -------- his<br>------ ------- -------- --- ---- -- ------- ------------ --<br>------ -- ---- -- --- ---- -- -------- -- --- ------ ------,318149.89999961853,318148.5999994278,317718.351,317727.19999980927,317734.959,318171.837,,31,his
screen,html.Screen,2_3_1_0_1_32,2022-04-28T11:24:45.719Z,,,,,,,,,,,,,,,,,12,,,,,,,,,,,,,,381.2629994277959,,response,,,,5,D,,,,,,Space,keypress(Space),,,,speech,,,,---- ------ ------ ------- ------ --- ------- -----------<br>-- ----- --- ---- -- --- ------ ---- - ---- -- ----------<br>-- ------ ---- --- ---- --- --- --- ----- -- -------- ---<br>entire ------- -------- --- ---- -- ------- ------------ --<br>------ -- ---- -- --- ---- -- -------- -- --- ------ ------,318554.89999961853,318553.0999994278,318135.015,318150.0999994278,318171.837,318568.388,,32,entire
screen,html.Screen,2_3_1_0_1_33,2022-04-28T11:24:46.100Z,,,,,,,,,,,,,,,,,12,,,,,,,,,,,,,,364.9120001907577,,response,,,,5,D,,,,,,Space,keypress(Space),,,,speech,,,,---- ------ ------ ------- ------ --- ------- -----------<br>-- ----- --- ---- -- --- ------ ---- - ---- -- ----------<br>-- ------ ---- --- ---- --- --- --- ----- -- -------- ---<br>------ account -------- --- ---- -- ------- ------------ --<br>------ -- ---- -- --- ---- -- -------- -- --- ------ ------,318935.0999994278,318933.30000019073,318551.699,318555.0999994278,318568.388,318951.72,,33,account
screen,html.Screen,2_3_1_0_1_34,2022-04-28T11:24:46.510Z,,,,,,,,,,,,,,,,,12,,,,,,,,,,,,,,392.87999942782335,,response,,,,5,D,,,,,,Space,keypress(Space),,,,speech,,,,"---- ------ ------ ------- ------ --- ------- -----------<br>-- ----- --- ---- -- --- ------ ---- - ---- -- ----------<br>-- ------ ---- --- ---- --- --- --- ----- -- -------- ---<br>------ ------- balance, --- ---- -- ------- ------------ --<br>------ -- ---- -- --- ---- -- -------- -- --- ------ ------",319345.80000019073,319344.5999994278,318935.011,318935.39999961853,318951.72,319351.578,,34,"balance,"
screen,html.Screen,2_3_1_0_1_35,2022-04-28T11:24:46.912Z,,,,,,,,,,,,,,,,,12,,,,,,,,,,,,,,393.6219998092856,,response,,,,5,D,,,,,,Space,keypress(Space),,,,speech,,,,---- ------ ------ ------- ------ --- ------- -----------<br>-- ----- --- ---- -- --- ------ ---- - ---- -- ----------<br>-- ------ ---- --- ---- --- --- --- ----- -- -------- ---<br>------ ------- -------- but ---- -- ------- ------------ --<br>------ -- ---- -- --- ---- -- -------- -- --- ------ ------,319747,319745.19999980927,319334.998,319346.0999994278,319351.578,319751.527,,35,but
screen,html.Screen,2_3_1_0_1_36,2022-04-28T11:24:47.356Z,,,,,,,,,,,,,,,,,12,,,,,,,,,,,,,,438.07299942779355,,response,,,,5,D,,,,,,Space,keypress(Space),,,,speech,,,,---- ------ ------ ------- ------ --- ------- -----------<br>-- ----- --- ---- -- --- ------ ---- - ---- -- ----------<br>-- ------ ---- --- ---- --- --- --- ----- -- -------- ---<br>------ ------- -------- --- with -- ------- ------------ --<br>------ -- ---- -- --- ---- -- -------- -- --- ------ ------,320191.0999994278,320189.5999994278,319735.019,319747.0999994278,319751.527,320201.72,,36,with
screen,html.Screen,2_3_1_0_1_37,2022-04-28T11:24:47.848Z,,,,,,,,,,,,,,,,,12,,,,,,,,,,,,,,480.0800001907628,,response,,,,5,D,,,,,,Space,keypress(Space),,,,speech,,,,---- ------ ------ ------- ------ --- ------- -----------<br>-- ----- --- ---- -- --- ------ ---- - ---- -- ----------<br>-- ------ ---- --- ---- --- --- --- ----- -- -------- ---<br>------ ------- -------- --- ---- an ------- ------------ --<br>------ -- ---- -- --- ---- -- -------- -- --- ------ ------,320683.39999961853,320681.80000019073,320185.007,320191.19999980927,320201.72,320721.856,,37,an
screen,html.Screen,2_3_1_0_1_38,2022-04-28T11:24:48.329Z,,,,,,,,,,,,,,,,,12,,,,,,,,,,,,,,440.74399942776654,,response,,,,5,D,,,,,,Space,keypress(Space),,,,speech,,,,---- ------ ------ ------- ------ --- ------- -----------<br>-- ----- --- ---- -- --- ------ ---- - ---- -- ----------<br>-- ------ ---- --- ---- --- --- --- ----- -- -------- ---<br>------ ------- -------- --- ---- -- unusual ------------ --<br>------ -- ---- -- --- ---- -- -------- -- --- ------ ------,321164.5999994278,321162.5999994278,320668.197,320683.5999994278,320721.856,321168.268,,38,unusual
screen,html.Screen,2_3_1_0_1_39,2022-04-28T11:24:48.861Z,,,,,,,,,,,,,,,,,12,,,,,,,,,,,,,,526.4319998092833,,response,,,,5,D,,,,,,Space,keypress(Space),,,,speech,,,,---- ------ ------ ------- ------ --- ------- -----------<br>-- ----- --- ---- -- --- ------ ---- - ---- -- ----------<br>-- ------ ---- --- ---- --- --- --- ----- -- -------- ---<br>------ ------- -------- --- ---- -- ------- stipulation: --<br>------ -- ---- -- --- ---- -- -------- -- --- ------ ------,321696.0999994278,321694.69999980927,321151.698,321164.89999961853,321168.268,321701.534,,39,stipulation:
screen,html.Screen,2_3_1_0_1_40,2022-04-28T11:24:49.359Z,,,,,,,,,,,,,,,,,12,,,,,,,,,,,,,,490.8659996185452,,response,,,,5,D,,,,,,Space,keypress(Space),,,,speech,,,,---- ------ ------ ------- ------ --- ------- -----------<br>-- ----- --- ---- -- --- ------ ---- - ---- -- ----------<br>-- ------ ---- --- ---- --- --- --- ----- -- -------- ---<br>------ ------- -------- --- ---- -- ------- ------------ He<br>------ -- ---- -- --- ---- -- -------- -- --- ------ ------,322194.39999961853,322192.39999961853,321685.115,321696.30000019073,321701.534,322201.528,,40,He
screen,html.Screen,2_3_1_0_1_41,2022-04-28T11:24:49.786Z,,,,,,,,,,,,,,,,,12,,,,,,,,,,,,,,418.7720001907437,,response,,,,5,D,,,,,,Space,keypress(Space),,,,speech,,,,---- ------ ------ ------- ------ --- ------- -----------<br>-- ----- --- ---- -- --- ------ ---- - ---- -- ----------<br>-- ------ ---- --- ---- --- --- --- ----- -- -------- ---<br>------ ------- -------- --- ---- -- ------- ------------ --<br>wanted -- ---- -- --- ---- -- -------- -- --- ------ ------,322621.69999980927,322620.30000019073,322185.008,322194.5999994278,322201.528,322635.057,,41,wanted
screen,html.Screen,2_3_1_0_1_42,2022-04-28T11:24:50.186Z,,,,,,,,,,,,,,,,,12,,,,,,,,,,,,,,385.14299980929354,,response,,,,5,D,,,,,,Space,keypress(Space),,,,speech,,,,---- ------ ------ ------- ------ --- ------- -----------<br>-- ----- --- ---- -- --- ------ ---- - ---- -- ----------<br>-- ------ ---- --- ---- --- --- --- ----- -- -------- ---<br>------ ------- -------- --- ---- -- ------- ------------ --<br>------ as ---- -- --- ---- -- -------- -- --- ------ ------,323021.80000019073,323020.19999980927,322618.347,322621.80000019073,322635.057,323034.891,,42,as
screen,html.Screen,2_3_1_0_1_43,2022-04-28T11:24:50.595Z,,,,,,,,,,,,,,,,,12,,,,,,,,,,,,,,394.508999618527,,response,,,,5,D,,,,,,Space,keypress(Space),,,,speech,,,,---- ------ ------ ------- ------ --- ------- -----------<br>-- ----- --- ---- -- --- ------ ---- - ---- -- ----------<br>-- ------ ---- --- ---- --- --- --- ----- -- -------- ---<br>------ ------- -------- --- ---- -- ------- ------------ --<br>------ -- much -- --- ---- -- -------- -- --- ------ ------,323430.80000019073,323429.39999961853,323018.349,323022,323034.891,323434.887,,43,much
