sender,sender_type,sender_id,timestamp,meta,,Blues,Classical,Country,Dance,Electronic,Folk,Gospel,Hip-Hop,Jazz,Latin,Musical/Film,New-age,Pop,Prolific_id,Provo_ID,R&B,Rap,Reggae,Religious,Rock,Soul,Swing,Traditional,age,artist_name,correct,correctResponse,distraction,duration,education,ended_on,familiarity,gender,headphone_check_performance,item,list,music_frequency,offensiveness,pleasantness,position_correct,preference,response,response_action,snippet_file,song_name,song_rating,sound,stimulus_1,stimulus_2,stimulus_3,text,time_commit,time_end,time_render,time_run,time_show,time_switch,url,word,word_ID
Prolific ID,html.Form,0,2022-05-12T17:27:01.221Z,"{""labjs_version"":""20.2.2"",""labjs_build"":{""flavor"":""production"",""commit"":""a25486e0c714a0ae2ce03ff94b7bb6896854dcfa""},""location"":""https://run.pavlovia.org/mvasilev/prolific3_music_g/"",""userAgent"":""Mozilla/5.0 (Windows NT 10.0; Win64; x64) AppleWebKit/537.36 (KHTML, like Gecko) Chrome/101.0.4951.54 Safari/537.36"",""platform"":""Win32"",""language"":""en-GB"",""locale"":""en-GB"",""timeZone"":""Europe/London"",""timezoneOffset"":-60,""screen_width"":1920,""screen_height"":1080,""scroll_width"":1920,""scroll_height"":899,""window_innerWidth"":1920,""window_innerHeight"":947,""devicePixelRatio"":1}",,,,,,,,,,,,,,,605f064127eec9cb4494b4d9,,,,,,,,,,,,,,,7004.3240000000005,,form submission,,,,,,,,,,,,,,,,,,,,,46323.299999952316,46323,7801.013,7804.799999952316,39318.676,46324.623,{},,
Introduction,html.Screen,1_0,2022-05-12T17:27:11.278Z,,,,,,,,,,,,,,,,,,,,,,,,,,,,,,,10053.77699985695,,response,,,,,,,,,,,continue,click button,,,,,,,,,56380,56378.39999985695,46318.28,46323.5,46324.623,56394.777,,,
Volume calibration,html.Screen,1_1,2022-05-12T17:27:27.596Z,,,,,,,,,,,,,,,,,,,,,,,,,,,,,,,16300.722999999998,,response,,,,,,,,,,,continue,click button,,,,,,,,,72697.5,72695.5,56372.193,56380.09999990463,56394.777,72696.715,,,
Task instructions,html.Screen,1_2,2022-05-12T17:28:25.692Z,,,,,,,,,,,,,,,,,,,,,,,,,,,,,,,58096.884999904636,,response,,,,,,,,,,,continue,click button,,,,,,,,,130794,130793.59999990463,72689.811,72697.59999990463,72696.715,130813.316,,,
Sounds,html.Screen,1_3_0_0,2022-05-12T17:28:29.959Z,,,,,,,,,,,,,,,,,,,,,,,,,,,,,,,4251.691000000006,,timeout,,,,,,,,,2,,,,,,,,O,S,I,,135060.39999985695,135058.88,130788.262,130794.09999990463,130813.316,135065.007,,,
Judgement,html.Screen,1_3_0_1,2022-05-12T17:28:31.487Z,,,,,,,,,,,,,,,,,,,,,,,,,,,,true,2,,1523.292999952304,,response,,,,,,,,,2,,2,click #choice-2,,,,,O,S,I,,136589,136588.29999995232,135058.88,135060.59999990463,135065.007,136592.596,,,
Trial,flow.Sequence,1_3_0,2022-05-12T17:28:31.488Z,,,,,,,,,,,,,,,,,,,,,,,,,,,,,,,5774.98399995231,,completion,,,,,,,,,2,,,,,,,,O,S,I,,136589.09999990463,136588.29999995232,130788.262,130794.09999990463,130813.316,136592.596,,,
Sounds,html.Screen,1_3_1_0,2022-05-12T17:28:35.737Z,,,,,,,,,,,,,,,,,,,,,,,,,,,,,,,4249.824000000022,,timeout,,,,,,,,,1,,,,,,,,S,I,O,,140838.5,140835.654,136585.839,136589.19999980927,136592.596,140842.42,,,
Judgement,html.Screen,1_3_1_1,2022-05-12T17:28:36.555Z,,,,,,,,,,,,,,,,,,,,,,,,,,,,true,1,,813.3799999523035,,response,,,,,,,,,1,,1,click #choice-1,,,,,S,I,O,,141656.69999980927,141655.79999995232,140835.654,140838.59999990463,140842.42,141661.926,,,
Trial,flow.Sequence,1_3_1,2022-05-12T17:28:36.555Z,,,,,,,,,,,,,,,,,,,,,,,,,,,,,,,5063.203999952326,,completion,,,,,,,,,1,,,,,,,,S,I,O,,141656.69999980927,141655.79999995232,136585.839,136589.19999980927,136592.596,141661.926,,,
Sounds,html.Screen,1_3_2_0,2022-05-12T17:28:40.804Z,,,,,,,,,,,,,,,,,,,,,,,,,,,,,,,4249.395999999979,,timeout,,,,,,,,,3,,,,,,,,O,I,S,,145905.79999995232,145904.092,141655.172,141656.89999985695,141661.926,145911.322,,,
Judgement,html.Screen,1_3_2_1,2022-05-12T17:28:41.918Z,,,,,,,,,,,,,,,,,,,,,,,,,,,,true,3,,1107.3779998092796,,response,,,,,,,,,3,,3,click #choice-3,,,,,O,I,S,,147019.59999990463,147018.69999980927,145904.092,145905.89999985695,145911.322,147021.996,,,
Trial,flow.Sequence,1_3_2,2022-05-12T17:28:41.918Z,,,,,,,,,,,,,,,,,,,,,,,,,,,,,,,5356.773999809258,,completion,,,,,,,,,3,,,,,,,,O,I,S,,147019.79999995232,147018.69999980927,141655.172,141656.89999985695,141661.926,147021.996,,,
Sounds,html.Screen,1_3_3_0,2022-05-12T17:28:46.164Z,,,,,,,,,,,,,,,,,,,,,,,,,,,,,,,4250.5229999999865,,timeout,,,,,,,,,1,,,,,,,,S,O,I,,151265.39999985695,151264.864,147015.087,147019.89999985695,147021.996,151272.519,,,
Judgement,html.Screen,1_3_3_1,2022-05-12T17:28:46.670Z,,,,,,,,,,,,,,,,,,,,,,,,,,,,true,1,,498.6809998092649,,response,,,,,,,,,1,,1,click #choice-1,,,,,S,O,I,,151771.69999980927,151771.19999980927,151264.864,151265.5,151272.519,151778.486,,,
Trial,flow.Sequence,1_3_3,2022-05-12T17:28:46.670Z,,,,,,,,,,,,,,,,,,,,,,,,,,,,,,,4749.203999809251,,completion,,,,,,,,,1,,,,,,,,S,O,I,,151771.79999995232,151771.19999980927,147015.087,147019.89999985695,147021.996,151778.486,,,
Sounds,html.Screen,1_3_4_0,2022-05-12T17:28:50.920Z,,,,,,,,,,,,,,,,,,,,,,,,,,,,,,,4249.516000000003,,timeout,,,,,,,,,3,,,,,,,,I,O,S,,156021.69999980927,156021.062,151765.021,151772,151778.486,156028.002,,,
Judgement,html.Screen,1_3_4_1,2022-05-12T17:28:51.415Z,,,,,,,,,,,,,,,,,,,,,,,,,,,,true,3,,488.39799985694117,,response,,,,,,,,,3,,3,click #choice-3,,,,,I,O,S,,156517,156516.39999985695,156021.062,156021.69999980927,156028.002,156521.327,,,
Trial,flow.Sequence,1_3_4,2022-05-12T17:28:51.415Z,,,,,,,,,,,,,,,,,,,,,,,,,,,,,,,4737.913999856944,,completion,,,,,,,,,3,,,,,,,,I,O,S,,156517.09999990463,156516.39999985695,151765.021,151772,151778.486,156521.327,,,
Sounds,html.Screen,1_3_5_0,2022-05-12T17:28:55.665Z,,,,,,,,,,,,,,,,,,,,,,,,,,,,,,,4249.828999999998,,timeout,,,,,,,,,2,,,,,,,,I,S,O,,160766,160763.747,156514.269,156517.19999980927,156521.327,160771.156,,,
Judgement,html.Screen,1_3_5_1,2022-05-12T17:28:56.206Z,,,,,,,,,,,,,,,,,,,,,,,,,,,,true,2,,536.1439999523282,,response,,,,,,,,,2,,2,click #choice-2,,,,,I,S,O,,161308.09999990463,161307.29999995232,160763.747,160766.19999980927,160771.156,161312.163,,,
Trial,flow.Sequence,1_3_5,2022-05-12T17:28:56.207Z,,,,,,,,,,,,,,,,,,,,,,,,,,,,,,,4785.972999952326,,completion,,,,,,,,,2,,,,,,,,I,S,O,,161308.09999990463,161307.29999995232,156514.269,156517.09999990463,156521.327,161312.163,,,
Task,flow.Loop,1_3,2022-05-12T17:28:56.209Z,,,,,,,,,,,,,,,,,,,,,,,,,,,,,,,30493.98399995231,,completion,,,1,,,,,,,,,,,,,,,,,,161310.69999980927,161307.29999995232,130788.262,130794.09999990463,130813.316,161312.163,,,
Trap,html.Screen,1_4,2022-05-12T17:28:56.210Z,,,,,,,,,,,,,,,,,,,,,,,,,,,,,,,NaN,,skipped,,,,,,,,,,,,,,,,,,,,,161311.39999985695,161307.29999995232,,161311.29999995232,,161312.163,,,
Thanks,html.Screen,1_5,2022-05-12T17:29:00.367Z,,,,,,,,,,,,,,,,,,,,,,,,,,,,,,,4155.536999809265,,response,,,,,,,,,,,continue,click button,,,,,,,,,165468.19999980927,165467.69999980927,161305.415,161311.39999985695,161312.163,168748.958,,,
Headphone screening,flow.Sequence,1,2022-05-12T17:29:00.367Z,,,,,,,,,,,,,,,,,,,,,,,,,,,,,,,119143.07699980927,,completion,,,,,,,,,,,,,,,,,,,,,165468.29999995232,165467.69999980927,46318.28,46323.5,46324.623,168748.958,,,
Instructions,html.Page,2_0,2022-05-12T17:29:29.179Z,,,,,,,,,,,,,,,,,,,,,,,,,,,,,,,25531.14199990462,,form submission,,,,,,,,,,,,,,,,,,,,,194280.39999985695,194280.09999990463,168742.733,168751.39999985695,168748.958,194287.721,,,
Holding screen,html.Screen,2_1_0_0,2022-05-12T17:29:39.179Z,,,,,,,,,,,,,,,,,,,,,,,,,,,,,,,9998.974000000017,,timeout,,,,,,,,,,,,,,,,,,,,,204281,204279.782,194274.032,194281.29999995232,194287.721,204286.695,,,
screen,html.Screen,2_1_0_1_0,2022-05-12T17:29:39.363Z,,,,,,,,,,,,,,,,,53,,,,,,,,,,,,,,176.50499980925815,,response,,,,99,,,,,,,Space,keypress(Space),,,,,,,,When -- ----- -- ------ - ------- --- ----------<br>------------- ------ ------ ---- ---- ------- ----- -- ----<br>-------- ------- -- ---------- --- - --- ----- ----- ----<br>---- --- --- ----- --- ---- ---- ------- ----- ---- -------<br>--- --- -- ----- -- --- ---- -- --- ---- -- ------ ------<br>--- ----- -- ----,204464.69999980927,204463.19999980927,204279.782,204281,204286.695,204467.205,,0,When
screen,html.Screen,2_1_0_1_1,2022-05-12T17:29:41.625Z,,,,,,,,,,,,,,,,,53,,,,,,,,,,,,,,2258.8949999046454,,response,,,,99,,,,,,,Space,keypress(Space),,,,,,,,---- it ----- -- ------ - ------- --- ----------<br>------------- ------ ------ ---- ---- ------- ----- -- ----<br>-------- ------- -- ---------- --- - --- ----- ----- ----<br>---- --- --- ----- --- ---- ---- ------- ----- ---- -------<br>--- --- -- ----- -- --- ---- -- --- ---- -- ------ ------<br>--- ----- -- ----,206726.5,206726.09999990463,204461.129,204464.69999980927,204467.205,206730.853,,1,it
screen,html.Screen,2_1_0_1_2,2022-05-12T17:29:42.315Z,,,,,,,,,,,,,,,,,53,,,,,,,,,,,,,,685.8469998092623,,response,,,,99,,,,,,,Space,keypress(Space),,,,,,,,---- -- comes -- ------ - ------- --- ----------<br>------------- ------ ------ ---- ---- ------- ----- -- ----<br>-------- ------- -- ---------- --- - --- ----- ----- ----<br>---- --- --- ----- --- ---- ---- ------- ----- ---- -------<br>--- --- -- ----- -- --- ---- -- --- ---- -- ------ ------<br>--- ----- -- ----,207417.09999990463,207416.69999980927,206724.863,206726.59999990463,206730.853,207426.732,,2,comes
screen,html.Screen,2_1_0_1_3,2022-05-12T17:29:42.803Z,,,,,,,,,,,,,,,,,53,,,,,,,,,,,,,,477.26800000001094,,response,,,,99,,,,,,,Space,keypress(Space),,,,,,,,---- -- ----- to ------ - ------- --- ----------<br>------------- ------ ------ ---- ---- ------- ----- -- ----<br>-------- ------- -- ---------- --- - --- ----- ----- ----<br>---- --- --- ----- --- ---- ---- ------- ----- ---- -------<br>--- --- -- ----- -- --- ---- -- --- ---- -- ------ ------<br>--- ----- -- ----,207904.5,207904,207412.017,207417.09999990463,207426.732,207912.11,,3,to
screen,html.Screen,2_1_0_1_4,2022-05-12T17:29:43.189Z,,,,,,,,,,,,,,,,,53,,,,,,,,,,,,,,378.5899998092791,,response,,,,99,,,,,,,Space,keypress(Space),,,,,,,,---- -- ----- -- having - ------- --- ----------<br>------------- ------ ------ ---- ---- ------- ----- -- ----<br>-------- ------- -- ---------- --- - --- ----- ----- ----<br>---- --- --- ----- --- ---- ---- ------- ----- ---- -------<br>--- --- -- ----- -- --- ---- -- --- ---- -- ------ ------<br>--- ----- -- ----,208291.09999990463,208290.69999980927,207898.244,207904.5,207912.11,208293.177,,4,having
screen,html.Screen,2_1_0_1_5,2022-05-12T17:29:43.741Z,,,,,,,,,,,,,,,,,53,,,,,,,,,,,,,,549.323000000004,,response,,,,99,,,,,,,Space,keypress(Space),,,,,,,,---- -- ----- -- ------ a ------- --- ----------<br>------------- ------ ------ ---- ---- ------- ----- -- ----<br>-------- ------- -- ---------- --- - --- ----- ----- ----<br>---- --- --- ----- --- ---- ---- ------- ----- ---- -------<br>--- --- -- ----- -- --- ---- -- --- ---- -- ------ ------<br>--- ----- -- ----,208843,208842.5,208286.507,208291.09999990463,208293.177,208849.543,,5,a
screen,html.Screen,2_1_0_1_6,2022-05-12T17:29:44.164Z,,,,,,,,,,,,,,,,,53,,,,,,,,,,,,,,416.15699980926,,response,,,,99,,,,,,,Space,keypress(Space),,,,,,,,---- -- ----- -- ------ - lasting --- ----------<br>------------- ------ ------ ---- ---- ------- ----- -- ----<br>-------- ------- -- ---------- --- - --- ----- ----- ----<br>---- --- --- ----- --- ---- ---- ------- ----- ---- -------<br>--- --- -- ----- -- --- ---- -- --- ---- -- ------ ------<br>--- ----- -- ----,209266.09999990463,209265.69999980927,208842.625,208843.09999990463,208849.543,209272.601,,6,lasting
screen,html.Screen,2_1_0_1_7,2022-05-12T17:29:44.584Z,,,,,,,,,,,,,,,,,53,,,,,,,,,,,,,,412.99899990463746,,response,,,,99,,,,,,,Space,keypress(Space),,,,,,,,---- -- ----- -- ------ - ------- and ----------<br>------------- ------ ------ ---- ---- ------- ----- -- ----<br>-------- ------- -- ---------- --- - --- ----- ----- ----<br>---- --- --- ----- --- ---- ---- ------- ----- ---- -------<br>--- --- -- ----- -- --- ---- -- --- ---- -- ------ ------<br>--- ----- -- ----,209686,209685.59999990463,209265.922,209266.09999990463,209272.601,209688.95,,7,and
screen,html.Screen,2_1_0_1_8,2022-05-12T17:29:45.003Z,,,,,,,,,,,,,,,,,53,,,,,,,,,,,,,,415.34999995230464,,response,,,,99,,,,,,,Space,keypress(Space),,,,,,,,---- -- ----- -- ------ - ------- --- fulfilling<br>------------- ------ ------ ---- ---- ------- ----- -- ----<br>-------- ------- -- ---------- --- - --- ----- ----- ----<br>---- --- --- ----- --- ---- ---- ------- ----- ---- -------<br>--- --- -- ----- -- --- ---- -- --- ---- -- ------ ------<br>--- ----- -- ----,210104.79999995232,210104.29999995232,209682.402,209686.19999980927,209688.95,210119.021,,8,fulfilling
screen,html.Screen,2_1_0_1_9,2022-05-12T17:29:45.627Z,,,,,,,,,,,,,,,,,53,,,,,,,,,,,,,,609.2789999523084,,response,,,,99,,,,,,,Space,keypress(Space),,,,,,,,"---- -- ----- -- ------ - ------- --- ----------<br>relationship, ------ ------ ---- ---- ------- ----- -- ----<br>-------- ------- -- ---------- --- - --- ----- ----- ----<br>---- --- --- ----- --- ---- ---- ------- ----- ---- -------<br>--- --- -- ----- -- --- ---- -- --- ---- -- ------ ------<br>--- ----- -- ----",210728.69999980927,210728.29999995232,210099.092,210104.89999985695,210119.021,210730.362,,9,"relationship,"
screen,html.Screen,2_1_0_1_10,2022-05-12T17:29:46.150Z,,,,,,,,,,,,,,,,,53,,,,,,,,,,,,,,520.6380000000063,,response,,,,99,,,,,,,Space,keypress(Space),,,,,,,,---- -- ----- -- ------ - ------- --- ----------<br>------------- common ------ ---- ---- ------- ----- -- ----<br>-------- ------- -- ---------- --- - --- ----- ----- ----<br>---- --- --- ----- --- ---- ---- ------- ----- ---- -------<br>--- --- -- ----- -- --- ---- -- --- ---- -- ------ ------<br>--- ----- -- ----,211251.5,211251,210724.326,210728.69999980927,210730.362,211265.373,,10,common
screen,html.Screen,2_1_0_1_11,2022-05-12T17:29:46.571Z,,,,,,,,,,,,,,,,,53,,,,,,,,,,,,,,407.3269998092728,,response,,,,99,,,,,,,Space,keypress(Space),,,,,,,,---- -- ----- -- ------ - ------- --- ----------<br>------------- ------ wisdom ---- ---- ------- ----- -- ----<br>-------- ------- -- ---------- --- - --- ----- ----- ----<br>---- --- --- ----- --- ---- ---- ------- ----- ---- -------<br>--- --- -- ----- -- --- ---- -- --- ---- -- ------ ------<br>--- ----- -- ----,211673,211672.69999980927,211258.433,211251.59999990463,211265.373,211674.763,,11,wisdom
screen,html.Screen,2_1_0_1_12,2022-05-12T17:29:46.956Z,,,,,,,,,,,,,,,,,53,,,,,,,,,,,,,,383.03699995231,,response,,,,99,,,,,,,Space,keypress(Space),,,,,,,,---- -- ----- -- ------ - ------- --- ----------<br>------------- ------ ------ says ---- ------- ----- -- ----<br>-------- ------- -- ---------- --- - --- ----- ----- ----<br>---- --- --- ----- --- ---- ---- ------- ----- ---- -------<br>--- --- -- ----- -- --- ---- -- --- ---- -- ------ ------<br>--- ----- -- ----,212058.09999990463,212057.79999995232,211668.666,211673.09999990463,211674.763,212063.673,,12,says
screen,html.Screen,2_1_0_1_13,2022-05-12T17:29:47.307Z,,,,,,,,,,,,,,,,,53,,,,,,,,,,,,,,344.3269999999902,,response,,,,99,,,,,,,Space,keypress(Space),,,,,,,,---- -- ----- -- ------ - ------- --- ----------<br>------------- ------ ------ ---- that ------- ----- -- ----<br>-------- ------- -- ---------- --- - --- ----- ----- ----<br>---- --- --- ----- --- ---- ---- ------- ----- ---- -------<br>--- --- -- ----- -- --- ---- -- --- ---- -- ------ ------<br>--- ----- -- ----,212408.5,212408,212057.51,212058.19999980927,212063.673,212410.827,,13,that
screen,html.Screen,2_1_0_1_14,2022-05-12T17:29:47.729Z,,,,,,,,,,,,,,,,,53,,,,,,,,,,,,,,418.8729998092749,,response,,,,99,,,,,,,Space,keypress(Space),,,,,,,,---- -- ----- -- ------ - ------- --- ----------<br>------------- ------ ------ ---- ---- feeling ----- -- ----<br>-------- ------- -- ---------- --- - --- ----- ----- ----<br>---- --- --- ----- --- ---- ---- ------- ----- ---- -------<br>--- --- -- ----- -- --- ---- -- --- ---- -- ------ ------<br>--- ----- -- ----,212830.09999990463,212829.69999980927,212404.681,212408.59999990463,212410.827,212834.595,,14,feeling
screen,html.Screen,2_1_0_1_15,2022-05-12T17:29:48.144Z,,,,,,,,,,,,,,,,,53,,,,,,,,,,,,,,410.90499999999884,,response,,,,99,,,,,,,Space,keypress(Space),,,,,,,,---- -- ----- -- ------ - ------- --- ----------<br>------------- ------ ------ ---- ---- ------- close -- ----<br>-------- ------- -- ---------- --- - --- ----- ----- ----<br>---- --- --- ----- --- ---- ---- ------- ----- ---- -------<br>--- --- -- ----- -- --- ---- -- --- ---- -- ------ ------<br>--- ----- -- ----,213246,213245.5,212827.947,212830.19999980927,212834.595,213251.254,,15,close
screen,html.Screen,2_1_0_1_16,2022-05-12T17:29:48.531Z,,,,,,,,,,,,,,,,,53,,,,,,,,,,,,,,380.8459999046463,,response,,,,99,,,,,,,Space,keypress(Space),,,,,,,,---- -- ----- -- ------ - ------- --- ----------<br>------------- ------ ------ ---- ---- ------- ----- to ----<br>-------- ------- -- ---------- --- - --- ----- ----- ----<br>---- --- --- ----- --- ---- ---- ------- ----- ---- -------<br>--- --- -- ----- -- --- ---- -- --- ---- -- ------ ------<br>--- ----- -- ----,213632.59999990463,213632.09999990463,213244.968,213246.09999990463,213251.254,213640.254,,16,to
screen,html.Screen,2_1_0_1_17,2022-05-12T17:29:48.814Z,,,,,,,,,,,,,,,,,53,,,,,,,,,,,,,,275.4459998092789,,response,,,,99,,,,,,,Space,keypress(Space),,,,,,,,---- -- ----- -- ------ - ------- --- ----------<br>------------- ------ ------ ---- ---- ------- ----- -- your<br>-------- ------- -- ---------- --- - --- ----- ----- ----<br>---- --- --- ----- --- ---- ---- ------- ----- ---- -------<br>--- --- -- ----- -- --- ---- -- --- ---- -- ------ ------<br>--- ----- -- ----,213916.09999990463,213915.69999980927,213626.545,213632.59999990463,213640.254,213917.609,,17,your
screen,html.Screen,2_1_0_1_18,2022-05-12T17:29:49.196Z,,,,,,,,,,,,,,,,,53,,,,,,,,,,,,,,379.2909998569521,,response,,,,99,,,,,,,Space,keypress(Space),,,,,,,,---- -- ----- -- ------ - ------- --- ----------<br>------------- ------ ------ ---- ---- ------- ----- -- ----<br>romantic ------- -- ---------- --- - --- ----- ----- ----<br>---- --- --- ----- --- ---- ---- ------- ----- ---- -------<br>--- --- -- ----- -- --- ---- -- --- ---- -- ------ ------<br>--- ----- -- ----,214297.5,214296.89999985695,213911.074,213916.09999990463,213917.609,214299.455,,18,romantic
screen,html.Screen,2_1_0_1_19,2022-05-12T17:29:49.445Z,,,,,,,,,,,,,,,,,53,,,,,,,,,,,,,,246.8449999523291,,response,,,,99,,,,,,,Space,keypress(Space),,,,,,,,---- -- ----- -- ------ - ------- --- ----------<br>------------- ------ ------ ---- ---- ------- ----- -- ----<br>-------- partner -- ---------- --- - --- ----- ----- ----<br>---- --- --- ----- --- ---- ---- ------- ----- ---- -------<br>--- --- -- ----- -- --- ---- -- --- ---- -- ------ ------<br>--- ----- -- ----,214546.69999980927,214546.29999995232,214293.385,214297.5,214299.455,214549.721,,19,partner
screen,html.Screen,2_1_0_1_20,2022-05-12T17:29:49.800Z,,,,,,,,,,,,,,,,,53,,,,,,,,,,,,,,351.77900000000955,,response,,,,99,,,,,,,Space,keypress(Space),,,,,,,,---- -- ----- -- ------ - ------- --- ----------<br>------------- ------ ------ ---- ---- ------- ----- -- ----<br>-------- ------- is ---------- --- - --- ----- ----- ----<br>---- --- --- ----- --- ---- ---- ------- ----- ---- -------<br>--- --- -- ----- -- --- ---- -- --- ---- -- ------ ------<br>--- ----- -- ----,214901.89999985695,214901.5,214542.516,214546.79999995232,214549.721,214903.613,,20,is
screen,html.Screen,2_1_0_1_21,2022-05-12T17:29:50.115Z,,,,,,,,,,,,,,,,,53,,,,,,,,,,,,,,312.28699985693675,,response,,,,99,,,,,,,Space,keypress(Space),,,,,,,,---- -- ----- -- ------ - ------- --- ----------<br>------------- ------ ------ ---- ---- ------- ----- -- ----<br>-------- ------- -- paramount. --- - --- ----- ----- ----<br>---- --- --- ----- --- ---- ---- ------- ----- ---- -------<br>--- --- -- ----- -- --- ---- -- --- ---- -- ------ ------<br>--- ----- -- ----,215216.39999985695,215215.89999985695,214896.656,214902,214903.613,215223.343,,21,paramount.
screen,html.Screen,2_1_0_1_22,2022-05-12T17:29:50.572Z,,,,,,,,,,,,,,,,,53,,,,,,,,,,,,,,449.6570000000065,,response,,,,99,,,,,,,Space,keypress(Space),,,,,,,,---- -- ----- -- ------ - ------- --- ----------<br>------------- ------ ------ ---- ---- ------- ----- -- ----<br>-------- ------- -- ---------- But - --- ----- ----- ----<br>---- --- --- ----- --- ---- ---- ------- ----- ---- -------<br>--- --- -- ----- -- --- ---- -- --- ---- -- ------ ------<br>--- ----- -- ----,215673.39999985695,215673,215209.982,215216.5,215223.343,215687.175,,22,But
screen,html.Screen,2_1_0_1_23,2022-05-12T17:29:50.785Z,,,,,,,,,,,,,,,,,53,,,,,,,,,,,,,,199.02499980927678,,response,,,,99,,,,,,,Space,keypress(Space),,,,,,,,---- -- ----- -- ------ - ------- --- ----------<br>------------- ------ ------ ---- ---- ------- ----- -- ----<br>-------- ------- -- ---------- --- a --- ----- ----- ----<br>---- --- --- ----- --- ---- ---- ------- ----- ---- -------<br>--- --- -- ----- -- --- ---- -- --- ---- -- ------ ------<br>--- ----- -- ----,215886.5,215886.19999980927,215668.124,215673.5,215687.175,215889.616,,23,a
screen,html.Screen,2_1_0_1_24,2022-05-12T17:29:51.032Z,,,,,,,,,,,,,,,,,53,,,,,,,,,,,,,,244.08399980925606,,response,,,,99,,,,,,,Space,keypress(Space),,,,,,,,---- -- ----- -- ------ - ------- --- ----------<br>------------- ------ ------ ---- ---- ------- ----- -- ----<br>-------- ------- -- ---------- --- - new ----- ----- ----<br>---- --- --- ----- --- ---- ---- ------- ----- ---- -------<br>--- --- -- ----- -- --- ---- -- --- ---- -- ------ ------<br>--- ----- -- ----,216134.09999990463,216133.69999980927,215882.728,215886.5,215889.616,216139.88,,24,new
screen,html.Screen,2_1_0_1_25,2022-05-12T17:29:51.283Z,,,,,,,,,,,,,,,,,53,,,,,,,,,,,,,,244.0199998569442,,response,,,,99,,,,,,,Space,keypress(Space),,,,,,,,---- -- ----- -- ------ - ------- --- ----------<br>------------- ------ ------ ---- ---- ------- ----- -- ----<br>-------- ------- -- ---------- --- - --- study ----- ----<br>---- --- --- ----- --- ---- ---- ------- ----- ---- -------<br>--- --- -- ----- -- --- ---- -- --- ---- -- ------ ------<br>--- ----- -- ----,216384.19999980927,216383.89999985695,216132.685,216134.09999990463,216139.88,216389.567,,25,study
screen,html.Screen,2_1_0_1_26,2022-05-12T17:29:51.598Z,,,,,,,,,,,,,,,,,53,,,,,,,,,,,,,,309.2329999523063,,response,,,,99,,,,,,,Space,keypress(Space),,,,,,,,---- -- ----- -- ------ - ------- --- ----------<br>------------- ------ ------ ---- ---- ------- ----- -- ----<br>-------- ------- -- ---------- --- - --- ----- finds ----<br>---- --- --- ----- --- ---- ---- ------- ----- ---- -------<br>--- --- -- ----- -- --- ---- -- --- ---- -- ------ ------<br>--- ----- -- ----,216699.29999995232,216698.79999995232,216382.614,216384.19999980927,216389.567,216702.271,,26,finds
screen,html.Screen,2_1_0_1_27,2022-05-12T17:29:51.916Z,,,,,,,,,,,,,,,,,53,,,,,,,,,,,,,,315.02899995230837,,response,,,,99,,,,,,,Space,keypress(Space),,,,,,,,---- -- ----- -- ------ - ------- --- ----------<br>------------- ------ ------ ---- ---- ------- ----- -- ----<br>-------- ------- -- ---------- --- - --- ----- ----- that<br>---- --- --- ----- --- ---- ---- ------- ----- ---- -------<br>--- --- -- ----- -- --- ---- -- --- ---- -- ------ ------<br>--- ----- -- ----,217017.79999995232,217017.29999995232,216695.115,216699.39999985695,216702.271,217021.406,,27,that
screen,html.Screen,2_1_0_1_28,2022-05-12T17:29:52.298Z,,,,,,,,,,,,,,,,,53,,,,,,,,,,,,,,378.19399990464444,,response,,,,99,,,,,,,Space,keypress(Space),,,,,,,,---- -- ----- -- ------ - ------- --- ----------<br>------------- ------ ------ ---- ---- ------- ----- -- ----<br>-------- ------- -- ---------- --- - --- ----- ----- ----<br>it's --- --- ----- --- ---- ---- ------- ----- ---- -------<br>--- --- -- ----- -- --- ---- -- --- ---- -- ------ ------<br>--- ----- -- ----,217400.09999990463,217399.59999990463,217014.477,217017.89999985695,217021.406,217403.423,,28,it's
screen,html.Screen,2_1_0_1_29,2022-05-12T17:29:52.546Z,,,,,,,,,,,,,,,,,53,,,,,,,,,,,,,,243.97699985693907,,response,,,,99,,,,,,,Space,keypress(Space),,,,,,,,---- -- ----- -- ------ - ------- --- ----------<br>------------- ------ ------ ---- ---- ------- ----- -- ----<br>-------- ------- -- ---------- --- - --- ----- ----- ----<br>---- not --- ----- --- ---- ---- ------- ----- ---- -------<br>--- --- -- ----- -- --- ---- -- --- ---- -- ------ ------<br>--- ----- -- ----,217647.79999995232,217647.39999985695,217396.405,217400.19999980927,217403.423,217653.452,,29,not
screen,html.Screen,2_1_0_1_30,2022-05-12T17:29:52.765Z,,,,,,,,,,,,,,,,,53,,,,,,,,,,,,,,212.64799990464235,,response,,,,99,,,,,,,Space,keypress(Space),,,,,,,,---- -- ----- -- ------ - ------- --- ----------<br>------------- ------ ------ ---- ---- ------- ----- -- ----<br>-------- ------- -- ---------- --- - --- ----- ----- ----<br>---- --- how ----- --- ---- ---- ------- ----- ---- -------<br>--- --- -- ----- -- --- ---- -- --- ---- -- ------ ------<br>--- ----- -- ----,217866.39999985695,217866.09999990463,217646.999,217647.89999985695,217653.452,217868.563,,30,how
screen,html.Screen,2_1_0_1_31,2022-05-12T17:29:53.009Z,,,,,,,,,,,,,,,,,53,,,,,,,,,,,,,,241.53699990463792,,response,,,,99,,,,,,,Space,keypress(Space),,,,,,,,---- -- ----- -- ------ - ------- --- ----------<br>------------- ------ ------ ---- ---- ------- ----- -- ----<br>-------- ------- -- ---------- --- - --- ----- ----- ----<br>---- --- --- close --- ---- ---- ------- ----- ---- -------<br>--- --- -- ----- -- --- ---- -- --- ---- -- ------ ------<br>--- ----- -- ----,218110.5,218110.09999990463,217862.227,217866.5,217868.563,218123.246,,31,close
screen,html.Screen,2_1_0_1_32,2022-05-12T17:29:53.293Z,,,,,,,,,,,,,,,,,53,,,,,,,,,,,,,,270.85399990461883,,response,,,,99,,,,,,,Space,keypress(Space),,,,,,,,---- -- ----- -- ------ - ------- --- ----------<br>------------- ------ ------ ---- ---- ------- ----- -- ----<br>-------- ------- -- ---------- --- - --- ----- ----- ----<br>---- --- --- ----- you ---- ---- ------- ----- ---- -------<br>--- --- -- ----- -- --- ---- -- --- ---- -- ------ ------<br>--- ----- -- ----,218394.59999990463,218394.09999990463,218105.175,218110.59999990463,218123.246,218396.281,,32,you
screen,html.Screen,2_1_0_1_33,2022-05-12T17:29:53.506Z,,,,,,,,,,,,,,,,,53,,,,,,,,,,,,,,211.31899990464444,,response,,,,99,,,,,,,Space,keypress(Space),,,,,,,,---- -- ----- -- ------ - ------- --- ----------<br>------------- ------ ------ ---- ---- ------- ----- -- ----<br>-------- ------- -- ---------- --- - --- ----- ----- ----<br>---- --- --- ----- --- feel ---- ------- ----- ---- -------<br>--- --- -- ----- -- --- ---- -- --- ---- -- ------ ------<br>--- ----- -- ----,218608,218607.59999990463,218389.941,218394.69999980927,218396.281,218611.604,,33,feel
screen,html.Screen,2_1_0_1_34,2022-05-12T17:29:53.862Z,,,,,,,,,,,,,,,,,53,,,,,,,,,,,,,,351.6959999523242,,response,,,,99,,,,,,,Space,keypress(Space),,,,,,,,---- -- ----- -- ------ - ------- --- ----------<br>------------- ------ ------ ---- ---- ------- ----- -- ----<br>-------- ------- -- ---------- --- - --- ----- ----- ----<br>---- --- --- ----- --- ---- that ------- ----- ---- -------<br>--- --- -- ----- -- --- ---- -- --- ---- -- ------ ------<br>--- ----- -- ----,218963.79999995232,218963.29999995232,218605.005,218608,218611.604,218965.606,,34,that
screen,html.Screen,2_1_0_1_35,2022-05-12T17:29:54.146Z,,,,,,,,,,,,,,,,,53,,,,,,,,,,,,,,282.09399980926537,,response,,,,99,,,,,,,Space,keypress(Space),,,,,,,,---- -- ----- -- ------ - ------- --- ----------<br>------------- ------ ------ ---- ---- ------- ----- -- ----<br>-------- ------- -- ---------- --- - --- ----- ----- ----<br>---- --- --- ----- --- ---- ---- matters ----- ---- -------<br>--- --- -- ----- -- --- ---- -- --- ---- -- ------ ------<br>--- ----- -- ----,219248.09999990463,219247.69999980927,218958.714,218963.89999985695,218965.606,219250.332,,35,matters
screen,html.Screen,2_1_0_1_36,2022-05-12T17:29:54.363Z,,,,,,,,,,,,,,,,,53,,,,,,,,,,,,,,214.16800000000512,,response,,,,99,,,,,,,Space,keypress(Space),,,,,,,,"---- -- ----- -- ------ - ------- --- ----------<br>------------- ------ ------ ---- ---- ------- ----- -- ----<br>-------- ------- -- ---------- --- - --- ----- ----- ----<br>---- --- --- ----- --- ---- ---- ------- most, ---- -------<br>--- --- -- ----- -- --- ---- -- --- ---- -- ------ ------<br>--- ----- -- ----",219464.89999985695,219464.5,219243.923,219248.09999990463,219250.332,219474.788,,36,"most,"
screen,html.Screen,2_1_0_1_37,2022-05-12T17:29:54.644Z,,,,,,,,,,,,,,,,,53,,,,,,,,,,,,,,270.3119999046321,,response,,,,99,,,,,,,Space,keypress(Space),,,,,,,,---- -- ----- -- ------ - ------- --- ----------<br>------------- ------ ------ ---- ---- ------- ----- -- ----<br>-------- ------- -- ---------- --- - --- ----- ----- ----<br>---- --- --- ----- --- ---- ---- ------- ----- it's -------<br>--- --- -- ----- -- --- ---- -- --- ---- -- ------ ------<br>--- ----- -- ----,219745.5,219745.09999990463,219459.241,219465,219474.788,219750.551,,37,it's
screen,html.Screen,2_1_0_1_38,2022-05-12T17:29:54.898Z,,,,,,,,,,,,,,,,,53,,,,,,,,,,,,,,248.44899999999325,,response,,,,99,,,,,,,Space,keypress(Space),,,,,,,,---- -- ----- -- ------ - ------- --- ----------<br>------------- ------ ------ ---- ---- ------- ----- -- ----<br>-------- ------- -- ---------- --- - --- ----- ----- ----<br>---- --- --- ----- --- ---- ---- ------- ----- ---- whether<br>--- --- -- ----- -- --- ---- -- --- ---- -- ------ ------<br>--- ----- -- ----,219999.39999985695,219999,219743.836,219745.5,219750.551,220017.052,,38,whether
screen,html.Screen,2_1_0_1_39,2022-05-12T17:29:55.283Z,,,,,,,,,,,,,,,,,53,,,,,,,,,,,,,,366.8479998569528,,response,,,,99,,,,,,,Space,keypress(Space),,,,,,,,---- -- ----- -- ------ - ------- --- ----------<br>------------- ------ ------ ---- ---- ------- ----- -- ----<br>-------- ------- -- ---------- --- - --- ----- ----- ----<br>---- --- --- ----- --- ---- ---- ------- ----- ---- -------<br>you --- -- ----- -- --- ---- -- --- ---- -- ------ ------<br>--- ----- -- ----,220384.29999995232,220383.89999985695,219993.312,219999.5,220017.052,220389.385,,39,you
screen,html.Screen,2_1_0_1_40,2022-05-12T17:29:55.496Z,,,,,,,,,,,,,,,,,53,,,,,,,,,,,,,,208.01499985693954,,response,,,,99,,,,,,,Space,keypress(Space),,,,,,,,---- -- ----- -- ------ - ------- --- ----------<br>------------- ------ ------ ---- ---- ------- ----- -- ----<br>-------- ------- -- ---------- --- - --- ----- ----- ----<br>---- --- --- ----- --- ---- ---- ------- ----- ---- -------<br>--- are -- ----- -- --- ---- -- --- ---- -- ------ ------<br>--- ----- -- ----,220597.89999985695,220597.39999985695,220383.015,220384.39999985695,220389.385,220604.956,,40,are
screen,html.Screen,2_1_0_1_41,2022-05-12T17:29:55.948Z,,,,,,,,,,,,,,,,,53,,,,,,,,,,,,,,444.24399980925955,,response,,,,99,,,,,,,Space,keypress(Space),,,,,,,,---- -- ----- -- ------ - ------- --- ----------<br>------------- ------ ------ ---- ---- ------- ----- -- ----<br>-------- ------- -- ---------- --- - --- ----- ----- ----<br>---- --- --- ----- --- ---- ---- ------- ----- ---- -------<br>--- --- as ----- -- --- ---- -- --- ---- -- ------ ------<br>--- ----- -- ----,221049.69999980927,221049.19999980927,220597.478,220598,220604.956,221055.766,,41,as
screen,html.Screen,2_1_0_1_42,2022-05-12T17:29:56.167Z,,,,,,,,,,,,,,,,,53,,,,,,,,,,,,,,212.23399999999674,,response,,,,99,,,,,,,Space,keypress(Space),,,,,,,,---- -- ----- -- ------ - ------- --- ----------<br>------------- ------ ------ ---- ---- ------- ----- -- ----<br>-------- ------- -- ---------- --- - --- ----- ----- ----<br>---- --- --- ----- --- ---- ---- ------- ----- ---- -------<br>--- --- -- close -- --- ---- -- --- ---- -- ------ ------<br>--- ----- -- ----,221268.39999985695,221268,221049.595,221049.69999980927,221055.766,221271.148,,42,close
screen,html.Screen,2_1_0_1_43,2022-05-12T17:29:56.414Z,,,,,,,,,,,,,,,,,53,,,,,,,,,,,,,,244.6519999523298,,response,,,,99,,,,,,,Space,keypress(Space),,,,,,,,---- -- ----- -- ------ - ------- --- ----------<br>------------- ------ ------ ---- ---- ------- ----- -- ----<br>-------- ------- -- ---------- --- - --- ----- ----- ----<br>---- --- --- ----- --- ---- ---- ------- ----- ---- -------<br>--- --- -- ----- as --- ---- -- --- ---- -- ------ ------<br>--- ----- -- ----,221516.19999980927,221515.79999995232,221264.832,221268.5,221271.148,221521.638,,43,as
screen,html.Screen,2_1_0_1_44,2022-05-12T17:29:56.628Z,,,,,,,,,,,,,,,,,53,,,,,,,,,,,,,,207.8619999999937,,response,,,,99,,,,,,,Space,keypress(Space),,,,,,,,---- -- ----- -- ------ - ------- --- ----------<br>------------- ------ ------ ---- ---- ------- ----- -- ----<br>-------- ------- -- ---------- --- - --- ----- ----- ----<br>---- --- --- ----- --- ---- ---- ------- ----- ---- -------<br>--- --- -- ----- -- you ---- -- --- ---- -- ------ ------<br>--- ----- -- ----,221729.89999985695,221729.5,221514.785,221516.19999980927,221521.638,221736.68,,44,you
screen,html.Screen,2_1_0_1_45,2022-05-12T17:29:56.872Z,,,,,,,,,,,,,,,,,53,,,,,,,,,,,,,,236.61999995232327,,response,,,,99,,,,,,,Space,keypress(Space),,,,,,,,---- -- ----- -- ------ - ------- --- ----------<br>------------- ------ ------ ---- ---- ------- ----- -- ----<br>-------- ------- -- ---------- --- - --- ----- ----- ----<br>---- --- --- ----- --- ---- ---- ------- ----- ---- -------<br>--- --- -- ----- -- --- want -- --- ---- -- ------ ------<br>--- ----- -- ----,221973.69999980927,221973.29999995232,221729.657,221729.89999985695,221736.68,221979.325,,45,want
screen,html.Screen,2_1_0_1_46,2022-05-12T17:29:57.155Z,,,,,,,,,,,,,,,,,53,,,,,,,,,,,,,,277.17499999998836,,response,,,,99,,,,,,,Space,keypress(Space),,,,,,,,---- -- ----- -- ------ - ------- --- ----------<br>------------- ------ ------ ---- ---- ------- ----- -- ----<br>-------- ------- -- ---------- --- - --- ----- ----- ----<br>---- --- --- ----- --- ---- ---- ------- ----- ---- -------<br>--- --- -- ----- -- --- ---- to --- ---- -- ------ ------<br>--- ----- -- ----,222256.89999985695,222256.5,221973.059,221973.69999980927,221979.325,222263.898,,46,to
screen,html.Screen,2_1_0_1_47,2022-05-12T17:29:57.370Z,,,,,,,,,,,,,,,,,53,,,,,,,,,,,,,,206.9019999523298,,response,,,,99,,,,,,,Space,keypress(Space),,,,,,,,"---- -- ----- -- ------ - ------- --- ----------<br>------------- ------ ------ ---- ---- ------- ----- -- ----<br>-------- ------- -- ---------- --- - --- ----- ----- ----<br>---- --- --- ----- --- ---- ---- ------- ----- ---- -------<br>--- --- -- ----- -- --- ---- -- be, ---- -- ------ ------<br>--- ----- -- ----",222471.29999995232,222470.79999995232,222256.994,222256.89999985695,222263.898,222490.749,,47,"be,"
screen,html.Screen,2_1_0_1_48,2022-05-12T17:29:57.654Z,,,,,,,,,,,,,,,,,53,,,,,,,,,,,,,,264.2509999999893,,response,,,,99,,,,,,,Space,keypress(Space),,,,,,,,---- -- ----- -- ------ - ------- --- ----------<br>------------- ------ ------ ---- ---- ------- ----- -- ----<br>-------- ------- -- ---------- --- - --- ----- ----- ----<br>---- --- --- ----- --- ---- ---- ------- ----- ---- -------<br>--- --- -- ----- -- --- ---- -- --- even -- ------ ------<br>--- ----- -- ----,222755.5,222755,222466.092,222471.39999985695,222490.749,222756.93,,48,even
screen,html.Screen,2_1_0_1_49,2022-05-12T17:29:58.039Z,,,,,,,,,,,,,,,,,53,,,,,,,,,,,,,,383.2699998092721,,response,,,,99,,,,,,,Space,keypress(Space),,,,,,,,---- -- ----- -- ------ - ------- --- ----------<br>------------- ------ ------ ---- ---- ------- ----- -- ----<br>-------- ------- -- ---------- --- - --- ----- ----- ----<br>---- --- --- ----- --- ---- ---- ------- ----- ---- -------<br>--- --- -- ----- -- --- ---- -- --- ---- if ------ ------<br>--- ----- -- ----,223140.59999990463,223140.19999980927,222750.687,222755.5,222756.93,223145.999,,49,if
screen,html.Screen,2_1_0_1_50,2022-05-12T17:29:58.320Z,,,,,,,,,,,,,,,,,53,,,,,,,,,,,,,,274.90099985693814,,response,,,,99,,,,,,,Space,keypress(Space),,,,,,,,---- -- ----- -- ------ - ------- --- ----------<br>------------- ------ ------ ---- ---- ------- ----- -- ----<br>-------- ------- -- ---------- --- - --- ----- ----- ----<br>---- --- --- ----- --- ---- ---- ------- ----- ---- -------<br>--- --- -- ----- -- --- ---- -- --- ---- -- that's ------<br>--- ----- -- ----,223421.39999985695,223420.89999985695,223139.694,223140.59999990463,223145.999,223423.543,,50,that's
screen,html.Screen,2_1_0_1_51,2022-05-12T17:29:58.675Z,,,,,,,,,,,,,,,,,53,,,,,,,,,,,,,,353.05699990462745,,response,,,,99,,,,,,,Space,keypress(Space),,,,,,,,---- -- ----- -- ------ - ------- --- ----------<br>------------- ------ ------ ---- ---- ------- ----- -- ----<br>-------- ------- -- ---------- --- - --- ----- ----- ----<br>---- --- --- ----- --- ---- ---- ------- ----- ---- -------<br>--- --- -- ----- -- --- ---- -- --- ---- -- ------ really<br>--- ----- -- ----,223777,223776.59999990463,223417.352,223421.5,223423.543,223791.494,,51,really
screen,html.Screen,2_1_0_1_52,2022-05-12T17:29:58.994Z,,,,,,,,,,,,,,,,,53,,,,,,,,,,,,,,303.7059998092591,,response,,,,99,,,,,,,Space,keypress(Space),,,,,,,,---- -- ----- -- ------ - ------- --- ----------<br>------------- ------ ------ ---- ---- ------- ----- -- ----<br>-------- ------- -- ---------- --- - --- ----- ----- ----<br>---- --- --- ----- --- ---- ---- ------- ----- ---- -------<br>--- --- -- ----- -- --- ---- -- --- ---- -- ------ ------<br>not ----- -- ----,224095.5,224095.19999980927,223771.545,223777.09999990463,223791.494,224097.085,,52,not
screen,html.Screen,2_1_0_1_53,2022-05-12T17:29:59.176Z,,,,,,,,,,,,,,,,,53,,,,,,,,,,,,,,180.41500000000815,,response,,,,99,,,,,,,Space,keypress(Space),,,,,,,,---- -- ----- -- ------ - ------- --- ----------<br>------------- ------ ------ ---- ---- ------- ----- -- ----<br>-------- ------- -- ---------- --- - --- ----- ----- ----<br>---- --- --- ----- --- ---- ---- ------- ----- ---- -------<br>--- --- -- ----- -- --- ---- -- --- ---- -- ------ ------<br>--- close -- ----,224278.09999990463,224277.5,224090.206,224095.59999990463,224097.085,224292.287,,53,close
screen,html.Screen,2_1_0_1_54,2022-05-12T17:29:59.599Z,,,,,,,,,,,,,,,,,53,,,,,,,,,,,,,,408.1129998569377,,response,,,,99,,,,,,,Space,keypress(Space),,,,,,,,---- -- ----- -- ------ - ------- --- ----------<br>------------- ------ ------ ---- ---- ------- ----- -- ----<br>-------- ------- -- ---------- --- - --- ----- ----- ----<br>---- --- --- ----- --- ---- ---- ------- ----- ---- -------<br>--- --- -- ----- -- --- ---- -- --- ---- -- ------ ------<br>--- ----- at ----,224700.79999995232,224700.39999985695,224285.015,224278.19999980927,224292.287,224708.892,,54,at
screen,html.Screen,2_1_0_1_55,2022-05-12T17:30:00.050Z,,,,,,,,,,,,,,,,,53,,,,,,,,,,,,,,441.8079998092726,,response,,,,99,,,,,,,Space,keypress(Space),,,,,,,,---- -- ----- -- ------ - ------- --- ----------<br>------------- ------ ------ ---- ---- ------- ----- -- ----<br>-------- ------- -- ---------- --- - --- ----- ----- ----<br>---- --- --- ----- --- ---- ---- ------- ----- ---- -------<br>--- --- -- ----- -- --- ---- -- --- ---- -- ------ ------<br>--- ----- -- all.,225151.19999980927,225150.69999980927,224694.544,224700.79999995232,224708.892,225173.371,,55,all.
Item 99,flow.Loop,2_1_0_1,2022-05-12T17:30:00.050Z,,,,,,,,,,,,,,,,,,,,,,,,,,,,,,,20864.004999809258,,completion,,,,,G,,,,,,,,,,,silence,,,,,225151.39999985695,225150.69999980927,204279.782,204281,204286.695,225173.371,,,
Question 1,html.Screen,2_1_0_2,2022-05-12T17:30:08.103Z,,,,,,,,,,,,,,,,,,,,,,,,,,,,true,FALSE,,8030.628999999986,,response,,,,99,G,,,,,,FALSE,click #choice-2,,,,silence,,,,,233204.69999980927,233204,225146.434,225151.39999985695,225173.371,233207.116,,,
Question 2,html.Screen,2_1_0_3,2022-05-12T17:30:11.574Z,,,,,,,,,,,,,,,,,,,,,,,,,,,,true,TRUE,,3467.683999952307,,response,,,,99,G,,,,,,TRUE,click #choice-1,,,,silence,,,,,236675.39999985695,236674.79999995232,233200.498,233204.69999980927,233207.116,236679.018,,,
Item 99,flow.Sequence,2_1_0,2022-05-12T17:30:11.574Z,,,,,,,,,,,,,,,,,,,,,,,,,,,,,,,42387.078999952326,,completion,,,,,,,,,,,,,,,,,,,,,236675.5,236674.79999995232,194274.032,194281.19999980927,194287.721,236679.018,,,
Holding screen,html.Screen,2_1_1_0,2022-05-12T17:30:21.571Z,,,,,,,,,,,,,,,,,,,,,,,,,,,,,,,9998.904999999999,,timeout,,,,,,,,,,,,,,,,,,,,,246672.5,246671.051,236672.049,236675.59999990463,236679.018,246677.923,,,
screen,html.Screen,2_1_1_1_0,2022-05-12T17:30:22.681Z,,,,,,,,,,,,,,,,,54,,,,,,,,,,,,,,1103.976999856939,,response,,,,100,,,,,,,Space,keypress(Space),,,,,,,,At --- ---- --- ------ ----- ------- ---- -- --- ------- --<br>------- ---------- ------ -- ----- -- ----- -- ---- ------<br>--- ----- --- --- ------ -------- ----- --- ------ ----- --<br>----- ----- ---------- --- --- ------ ------ ---- -- ------<br>------- --- ------ ----- --- ---- ------- -- ---- --- --<br>------- ------,247782.29999995232,247781.89999985695,246671.051,246672.5,246677.923,247789.742,,0,At
screen,html.Screen,2_1_1_1_1,2022-05-12T17:30:23.066Z,,,,,,,,,,,,,,,,,54,,,,,,,,,,,,,,377.3579999046342,,response,,,,100,,,,,,,Space,keypress(Space),,,,,,,,-- the ---- --- ------ ----- ------- ---- -- --- ------- --<br>------- ---------- ------ -- ----- -- ----- -- ---- ------<br>--- ----- --- --- ------ -------- ----- --- ------ ----- --<br>----- ----- ---------- --- --- ------ ------ ---- -- ------<br>------- --- ------ ----- --- ---- ------- -- ---- --- --<br>------- ------,248167.39999985695,248167.09999990463,247775.907,247782.39999985695,247789.742,248170.796,,1,the
screen,html.Screen,2_1_1_1_2,2022-05-12T17:30:23.420Z,,,,,,,,,,,,,,,,,54,,,,,,,,,,,,,,350.7039999999979,,response,,,,100,,,,,,,Space,keypress(Space),,,,,,,,-- --- time --- ------ ----- ------- ---- -- --- ------- --<br>------- ---------- ------ -- ----- -- ----- -- ---- ------<br>--- ----- --- --- ------ -------- ----- --- ------ ----- --<br>----- ----- ---------- --- --- ------ ------ ---- -- ------<br>------- --- ------ ----- --- ---- ------- -- ---- --- --<br>------- ------,248521.89999985695,248521.5,248163.984,248167.5,248170.796,248524.989,,2,time
screen,html.Screen,2_1_1_1_3,2022-05-12T17:30:23.740Z,,,,,,,,,,,,,,,,,54,,,,,,,,,,,,,,316.5109999999986,,response,,,,100,,,,,,,Space,keypress(Space),,,,,,,,-- --- ---- the ------ ----- ------- ---- -- --- ------- --<br>------- ---------- ------ -- ----- -- ----- -- ---- ------<br>--- ----- --- --- ------ -------- ----- --- ------ ----- --<br>----- ----- ---------- --- --- ------ ------ ---- -- ------<br>------- --- ------ ----- --- ---- ------- -- ---- --- --<br>------- ------,248841.89999985695,248841.5,248518.751,248522,248524.989,248844.45,,3,the
screen,html.Screen,2_1_1_1_4,2022-05-12T17:30:24.084Z,,,,,,,,,,,,,,,,,54,,,,,,,,,,,,,,341.6499999046209,,response,,,,100,,,,,,,Space,keypress(Space),,,,,,,,-- --- ---- --- French ----- ------- ---- -- --- ------- --<br>------- ---------- ------ -- ----- -- ----- -- ---- ------<br>--- ----- --- --- ------ -------- ----- --- ------ ----- --<br>----- ----- ---------- --- --- ------ ------ ---- -- ------<br>------- --- ------ ----- --- ---- ------- -- ---- --- --<br>------- ------,249186.39999985695,249186.09999990463,248838.329,248841.89999985695,248844.45,249191.799,,4,French
screen,html.Screen,2_1_1_1_5,2022-05-12T17:30:24.501Z,,,,,,,,,,,,,,,,,54,,,,,,,,,,,,,,410.90099980926607,,response,,,,100,,,,,,,Space,keypress(Space),,,,,,,,-- --- ---- --- ------ crown ------- ---- -- --- ------- --<br>------- ---------- ------ -- ----- -- ----- -- ---- ------<br>--- ----- --- --- ------ -------- ----- --- ------ ----- --<br>----- ----- ---------- --- --- ------ ------ ---- -- ------<br>------- --- ------ ----- --- ---- ------- -- ---- --- --<br>------- ------,249603.09999990463,249602.69999980927,249185.437,249186.5,249191.799,249608.419,,5,crown
screen,html.Screen,2_1_1_1_6,2022-05-12T17:30:24.887Z,,,,,,,,,,,,,,,,,54,,,,,,,,,,,,,,380.68099990463816,,response,,,,100,,,,,,,Space,keypress(Space),,,,,,,,-- --- ---- --- ------ ----- secured ---- -- --- ------- --<br>------- ---------- ------ -- ----- -- ----- -- ---- ------<br>--- ----- --- --- ------ -------- ----- --- ------ ----- --<br>----- ----- ---------- --- --- ------ ------ ---- -- ------<br>------- --- ------ ----- --- ---- ------- -- ---- --- --<br>------- ------,249989.5,249989.09999990463,249601.447,249603.09999990463,249608.419,250005.108,,6,secured
screen,html.Screen,2_1_1_1_7,2022-05-12T17:30:25.303Z,,,,,,,,,,,,,,,,,54,,,,,,,,,,,,,,400.2919998569414,,response,,,,100,,,,,,,Space,keypress(Space),,,,,,,,-- --- ---- --- ------ ----- ------- much -- --- ------- --<br>------- ---------- ------ -- ----- -- ----- -- ---- ------<br>--- ----- --- --- ------ -------- ----- --- ------ ----- --<br>----- ----- ---------- --- --- ------ ------ ---- -- ------<br>------- --- ------ ----- --- ---- ------- -- ---- --- --<br>------- ------,250405.69999980927,250405.39999985695,249984.013,249989.5,250005.108,250419.659,,7,much
screen,html.Screen,2_1_1_1_8,2022-05-12T17:30:25.659Z,,,,,,,,,,,,,,,,,54,,,,,,,,,,,,,,340.74099985693465,,response,,,,100,,,,,,,Space,keypress(Space),,,,,,,,-- --- ---- --- ------ ----- ------- ---- of --- ------- --<br>------- ---------- ------ -- ----- -- ----- -- ---- ------<br>--- ----- --- --- ------ -------- ----- --- ------ ----- --<br>----- ----- ---------- --- --- ------ ------ ---- -- ------<br>------- --- ------ ----- --- ---- ------- -- ---- --- --<br>------- ------,250760.89999985695,250760.39999985695,250400.353,250405.69999980927,250419.659,250775.232,,8,of
screen,html.Screen,2_1_1_1_9,2022-05-12T17:30:25.872Z,,,,,,,,,,,,,,,,,54,,,,,,,,,,,,,,198.46799980927608,,response,,,,100,,,,,,,Space,keypress(Space),,,,,,,,-- --- ---- --- ------ ----- ------- ---- -- its ------- --<br>------- ---------- ------ -- ----- -- ----- -- ---- ------<br>--- ----- --- --- ------ -------- ----- --- ------ ----- --<br>----- ----- ---------- --- --- ------ ------ ---- -- ------<br>------- --- ------ ----- --- ---- ------- -- ---- --- --<br>------- ------,250974.09999990463,250973.69999980927,250768.396,250760.89999985695,250775.232,250976.074,,9,its
screen,html.Screen,2_1_1_1_10,2022-05-12T17:30:26.254Z,,,,,,,,,,,,,,,,,54,,,,,,,,,,,,,,379.42600000000675,,response,,,,100,,,,,,,Space,keypress(Space),,,,,,,,-- --- ---- --- ------ ----- ------- ---- -- --- revenue --<br>------- ---------- ------ -- ----- -- ----- -- ---- ------<br>--- ----- --- --- ------ -------- ----- --- ------ ----- --<br>----- ----- ---------- --- --- ------ ------ ---- -- ------<br>------- --- ------ ----- --- ---- ------- -- ---- --- --<br>------- ------,251355.89999985695,251355.5,250969.959,250974.19999980927,250976.074,251358.02,,10,revenue
screen,html.Screen,2_1_1_1_11,2022-05-12T17:30:26.674Z,,,,,,,,,,,,,,,,,54,,,,,,,,,,,,,,418.07999990464305,,response,,,,100,,,,,,,Space,keypress(Space),,,,,,,,-- --- ---- --- ------ ----- ------- ---- -- --- ------- by<br>------- ---------- ------ -- ----- -- ----- -- ---- ------<br>--- ----- --- --- ------ -------- ----- --- ------ ----- --<br>----- ----- ---------- --- --- ------ ------ ---- -- ------<br>------- --- ------ ----- --- ---- ------- -- ---- --- --<br>------- ------,251776.5,251776.09999990463,251351.194,251356,251358.02,251782.366,,11,by
screen,html.Screen,2_1_1_1_12,2022-05-12T17:30:27.131Z,,,,,,,,,,,,,,,,,54,,,,,,,,,,,,,,450.83399980925606,,response,,,,100,,,,,,,Space,keypress(Space),,,,,,,,-- --- ---- --- ------ ----- ------- ---- -- --- ------- --<br>issuing ---------- ------ -- ----- -- ----- -- ---- ------<br>--- ----- --- --- ------ -------- ----- --- ------ ----- --<br>----- ----- ---------- --- --- ------ ------ ---- -- ------<br>------- --- ------ ----- --- ---- ------- -- ---- --- --<br>------- ------,252233.59999990463,252233.19999980927,251775.495,251776.59999990463,251782.366,252240.084,,12,issuing
screen,html.Screen,2_1_1_1_13,2022-05-12T17:30:27.518Z,,,,,,,,,,,,,,,,,54,,,,,,,,,,,,,,379.91599999999744,,response,,,,100,,,,,,,Space,keypress(Space),,,,,,,,-- --- ---- --- ------ ----- ------- ---- -- --- ------- --<br>------- government ------ -- ----- -- ----- -- ---- ------<br>--- ----- --- --- ------ -------- ----- --- ------ ----- --<br>----- ----- ---------- --- --- ------ ------ ---- -- ------<br>------- --- ------ ----- --- ---- ------- -- ---- --- --<br>------- ------,252620.39999985695,252620,252232.871,252233.69999980927,252240.084,252634.238,,13,government
screen,html.Screen,2_1_1_1_14,2022-05-12T17:30:27.902Z,,,,,,,,,,,,,,,,,54,,,,,,,,,,,,,,369.96199980925303,,response,,,,100,,,,,,,Space,keypress(Space),,,,,,,,-- --- ---- --- ------ ----- ------- ---- -- --- ------- --<br>------- ---------- bonds. -- ----- -- ----- -- ---- ------<br>--- ----- --- --- ------ -------- ----- --- ------ ----- --<br>----- ----- ---------- --- --- ------ ------ ---- -- ------<br>------- --- ------ ----- --- ---- ------- -- ---- --- --<br>------- ------,253004.69999980927,253004.19999980927,252615.17,252620.5,252634.238,253010.882,,14,bonds.
screen,html.Screen,2_1_1_1_15,2022-05-12T17:30:28.355Z,,,,,,,,,,,,,,,,,54,,,,,,,,,,,,,,445.7179999046202,,response,,,,100,,,,,,,Space,keypress(Space),,,,,,,,-- --- ---- --- ------ ----- ------- ---- -- --- ------- --<br>------- ---------- ------ In ----- -- ----- -- ---- ------<br>--- ----- --- --- ------ -------- ----- --- ------ ----- --<br>----- ----- ---------- --- --- ------ ------ ---- -- ------<br>------- --- ------ ----- --- ---- ------- -- ---- --- --<br>------- ------,253457.09999990463,253456.59999990463,253004.136,253004.69999980927,253010.882,253461.91,,15,In
screen,html.Screen,2_1_1_1_16,2022-05-12T17:30:28.568Z,,,,,,,,,,,,,,,,,54,,,,,,,,,,,,,,208.0899999999965,,response,,,,100,,,,,,,Space,keypress(Space),,,,,,,,"-- --- ---- --- ------ ----- ------- ---- -- --- ------- --<br>------- ---------- ------ -- 1727, -- ----- -- ---- ------<br>--- ----- --- --- ------ -------- ----- --- ------ ----- --<br>----- ----- ---------- --- --- ------ ------ ---- -- ------<br>------- --- ------ ----- --- ---- ------- -- ---- --- --<br>------- ------",253670.39999985695,253670,253455.079,253457.09999990463,253461.91,253677.438,,16,"1727,"
screen,html.Screen,2_1_1_1_17,2022-05-12T17:30:28.924Z,,,,,,,,,,,,,,,,,54,,,,,,,,,,,,,,347.9619998569542,,response,,,,100,,,,,,,Space,keypress(Space),,,,,,,,-- --- ---- --- ------ ----- ------- ---- -- --- ------- --<br>------- ---------- ------ -- ----- in ----- -- ---- ------<br>--- ----- --- --- ------ -------- ----- --- ------ ----- --<br>----- ----- ---------- --- --- ------ ------ ---- -- ------<br>------- --- ------ ----- --- ---- ------- -- ---- --- --<br>------- ------,254026,254025.39999985695,253670.207,253670.39999985695,253677.438,254031.261,,17,in
screen,html.Screen,2_1_1_1_18,2022-05-12T17:30:29.238Z,,,,,,,,,,,,,,,,,54,,,,,,,,,,,,,,308.93899980926653,,response,,,,100,,,,,,,Space,keypress(Space),,,,,,,,-- --- ---- --- ------ ----- ------- ---- -- --- ------- --<br>------- ---------- ------ -- ----- -- order -- ---- ------<br>--- ----- --- --- ------ -------- ----- --- ------ ----- --<br>----- ----- ---------- --- --- ------ ------ ---- -- ------<br>------- --- ------ ----- --- ---- ------- -- ---- --- --<br>------- ------,254340.5,254340.19999980927,254025.169,254026,254031.261,254343.826,,18,order
screen,html.Screen,2_1_1_1_19,2022-05-12T17:30:29.492Z,,,,,,,,,,,,,,,,,54,,,,,,,,,,,,,,250.17399999999907,,response,,,,100,,,,,,,Space,keypress(Space),,,,,,,,-- --- ---- --- ------ ----- ------- ---- -- --- ------- --<br>------- ---------- ------ -- ----- -- ----- to ---- ------<br>--- ----- --- --- ------ -------- ----- --- ------ ----- --<br>----- ----- ---------- --- --- ------ ------ ---- -- ------<br>------- --- ------ ----- --- ---- ------- -- ---- --- --<br>------- ------,254594.5,254594,254336.796,254340.59999990463,254343.826,254601.502,,19,to
screen,html.Screen,2_1_1_1_20,2022-05-12T17:30:29.741Z,,,,,,,,,,,,,,,,,54,,,,,,,,,,,,,,241.59799990462488,,response,,,,100,,,,,,,Space,keypress(Space),,,,,,,,-- --- ---- --- ------ ----- ------- ---- -- --- ------- --<br>------- ---------- ------ -- ----- -- ----- -- save ------<br>--- ----- --- --- ------ -------- ----- --- ------ ----- --<br>----- ----- ---------- --- --- ------ ------ ---- -- ------<br>------- --- ------ ----- --- ---- ------- -- ---- --- --<br>------- ------,254843.5,254843.09999990463,254594.588,254594.59999990463,254601.502,254851.492,,20,save
screen,html.Screen,2_1_1_1_21,2022-05-12T17:30:30.003Z,,,,,,,,,,,,,,,,,54,,,,,,,,,,,,,,252.90799985695048,,response,,,,100,,,,,,,Space,keypress(Space),,,,,,,,"-- --- ---- --- ------ ----- ------- ---- -- --- ------- --<br>------- ---------- ------ -- ----- -- ----- -- ---- money,<br>--- ----- --- --- ------ -------- ----- --- ------ ----- --<br>----- ----- ---------- --- --- ------ ------ ---- -- ------<br>------- --- ------ ----- --- ---- ------- -- ---- --- --<br>------- ------",255104.79999995232,255104.39999985695,254837.197,254843.5,254851.492,255107.566,,21,"money,"
screen,html.Screen,2_1_1_1_22,2022-05-12T17:30:30.425Z,,,,,,,,,,,,,,,,,54,,,,,,,,,,,,,,419.33399985695723,,response,,,,100,,,,,,,Space,keypress(Space),,,,,,,,-- --- ---- --- ------ ----- ------- ---- -- --- ------- --<br>------- ---------- ------ -- ----- -- ----- -- ---- ------<br>the ----- --- --- ------ -------- ----- --- ------ ----- --<br>----- ----- ---------- --- --- ------ ------ ---- -- ------<br>------- --- ------ ----- --- ---- ------- -- ---- --- --<br>------- ------,255527.29999995232,255526.89999985695,255101.134,255104.89999985695,255107.566,255531.654,,22,the
screen,html.Screen,2_1_1_1_23,2022-05-12T17:30:30.709Z,,,,,,,,,,,,,,,,,54,,,,,,,,,,,,,,278.945999904623,,response,,,,100,,,,,,,Space,keypress(Space),,,,,,,,-- --- ---- --- ------ ----- ------- ---- -- --- ------- --<br>------- ---------- ------ -- ----- -- ----- -- ---- ------<br>--- state --- --- ------ -------- ----- --- ------ ----- --<br>----- ----- ---------- --- --- ------ ------ ---- -- ------<br>------- --- ------ ----- --- ---- ------- -- ---- --- --<br>------- ------,255811.09999990463,255810.59999990463,255525.128,255527.29999995232,255531.654,255816.121,,23,state
screen,html.Screen,2_1_1_1_24,2022-05-12T17:30:30.957Z,,,,,,,,,,,,,,,,,54,,,,,,,,,,,,,,242.47899990461883,,response,,,,100,,,,,,,Space,keypress(Space),,,,,,,,-- --- ---- --- ------ ----- ------- ---- -- --- ------- --<br>------- ---------- ------ -- ----- -- ----- -- ---- ------<br>--- ----- cut --- ------ -------- ----- --- ------ ----- --<br>----- ----- ---------- --- --- ------ ------ ---- -- ------<br>------- --- ------ ----- --- ---- ------- -- ---- --- --<br>------- ------,256059,256058.59999990463,255808.862,255811.09999990463,255816.121,256065.786,,24,cut
screen,html.Screen,2_1_1_1_25,2022-05-12T17:30:31.243Z,,,,,,,,,,,,,,,,,54,,,,,,,,,,,,,,278.5139999523235,,response,,,,100,,,,,,,Space,keypress(Space),,,,,,,,-- --- ---- --- ------ ----- ------- ---- -- --- ------- --<br>------- ---------- ------ -- ----- -- ----- -- ---- ------<br>--- ----- --- the ------ -------- ----- --- ------ ----- --<br>----- ----- ---------- --- --- ------ ------ ---- -- ------<br>------- --- ------ ----- --- ---- ------- -- ---- --- --<br>------- ------,256345.69999980927,256344.29999995232,256052.777,256059.09999990463,256065.786,256350.488,,25,the
screen,html.Screen,2_1_1_1_26,2022-05-12T17:30:31.531Z,,,,,,,,,,,,,,,,,54,,,,,,,,,,,,,,282.61199990462046,,response,,,,100,,,,,,,Space,keypress(Space),,,,,,,,-- --- ---- --- ------ ----- ------- ---- -- --- ------- --<br>------- ---------- ------ -- ----- -- ----- -- ---- ------<br>--- ----- --- --- bonds' -------- ----- --- ------ ----- --<br>----- ----- ---------- --- --- ------ ------ ---- -- ------<br>------- --- ------ ----- --- ---- ------- -- ---- --- --<br>------- ------,256633.59999990463,256633.09999990463,256344.359,256346.89999985695,256350.488,256635.165,,26,bonds'
screen,html.Screen,2_1_1_1_27,2022-05-12T17:30:31.881Z,,,,,,,,,,,,,,,,,54,,,,,,,,,,,,,,347.7349998569407,,response,,,,100,,,,,,,Space,keypress(Space),,,,,,,,-- --- ---- --- ------ ----- ------- ---- -- --- ------- --<br>------- ---------- ------ -- ----- -- ----- -- ---- ------<br>--- ----- --- --- ------ interest ----- --- ------ ----- --<br>----- ----- ---------- --- --- ------ ------ ---- -- ------<br>------- --- ------ ----- --- ---- ------- -- ---- --- --<br>------- ------,256983.29999995232,256982.89999985695,256628.875,256633.59999990463,256635.165,256989.558,,27,interest
screen,html.Screen,2_1_1_1_28,2022-05-12T17:30:32.201Z,,,,,,,,,,,,,,,,,54,,,,,,,,,,,,,,313.64199980927515,,response,,,,100,,,,,,,Space,keypress(Space),,,,,,,,-- --- ---- --- ------ ----- ------- ---- -- --- ------- --<br>------- ---------- ------ -- ----- -- ----- -- ---- ------<br>--- ----- --- --- ------ -------- rate. --- ------ ----- --<br>----- ----- ---------- --- --- ------ ------ ---- -- ------<br>------- --- ------ ----- --- ---- ------- -- ---- --- --<br>------- ------,257303.59999990463,257303.19999980927,256983.227,256983.39999985695,256989.558,257308.99,,28,rate.
screen,html.Screen,2_1_1_1_29,2022-05-12T17:30:32.480Z,,,,,,,,,,,,,,,,,54,,,,,,,,,,,,,,272.90999985695817,,response,,,,100,,,,,,,Space,keypress(Space),,,,,,,,-- --- ---- --- ------ ----- ------- ---- -- --- ------- --<br>------- ---------- ------ -- ----- -- ----- -- ---- ------<br>--- ----- --- --- ------ -------- ----- The ------ ----- --<br>----- ----- ---------- --- --- ------ ------ ---- -- ------<br>------- --- ------ ----- --- ---- ------- -- ---- --- --<br>------- ------,257582.5,257581.89999985695,257301.831,257303.69999980927,257308.99,257586.658,,29,The
screen,html.Screen,2_1_1_1_30,2022-05-12T17:30:32.730Z,,,,,,,,,,,,,,,,,54,,,,,,,,,,,,,,245.54199980926933,,response,,,,100,,,,,,,Space,keypress(Space),,,,,,,,-- --- ---- --- ------ ----- ------- ---- -- --- ------- --<br>------- ---------- ------ -- ----- -- ----- -- ---- ------<br>--- ----- --- --- ------ -------- ----- --- market ----- --<br>----- ----- ---------- --- --- ------ ------ ---- -- ------<br>------- --- ------ ----- --- ---- ------- -- ---- --- --<br>------- ------,257832.79999995232,257832.19999980927,257580.198,257582.5,257586.658,257836.596,,30,market
screen,html.Screen,2_1_1_1_31,2022-05-12T17:30:33.116Z,,,,,,,,,,,,,,,,,54,,,,,,,,,,,,,,381.40400000000955,,response,,,,100,,,,,,,Space,keypress(Space),,,,,,,,-- --- ---- --- ------ ----- ------- ---- -- --- ------- --<br>------- ---------- ------ -- ----- -- ----- -- ---- ------<br>--- ----- --- --- ------ -------- ----- --- ------ value --<br>----- ----- ---------- --- --- ------ ------ ---- -- ------<br>------- --- ------ ----- --- ---- ------- -- ---- --- --<br>------- ------,258218.39999985695,258218,257830.333,257832.79999995232,257836.596,258225.284,,31,value
screen,html.Screen,2_1_1_1_32,2022-05-12T17:30:34.318Z,,,,,,,,,,,,,,,,,54,,,,,,,,,,,,,,1195.015999952302,,response,,,,100,,,,,,,Space,keypress(Space),,,,,,,,-- --- ---- --- ------ ----- ------- ---- -- --- ------- --<br>------- ---------- ------ -- ----- -- ----- -- ---- ------<br>--- ----- --- --- ------ -------- ----- --- ------ ----- of<br>----- ----- ---------- --- --- ------ ------ ---- -- ------<br>------- --- ------ ----- --- ---- ------- -- ---- --- --<br>------- ------,259420.79999995232,259420.29999995232,258212.273,258218.5,258225.284,259426.765,,32,of
screen,html.Screen,2_1_1_1_33,2022-05-12T17:30:34.805Z,,,,,,,,,,,,,,,,,54,,,,,,,,,,,,,,480.0349999523023,,response,,,,100,,,,,,,Space,keypress(Space),,,,,,,,-- --- ---- --- ------ ----- ------- ---- -- --- ------- --<br>------- ---------- ------ -- ----- -- ----- -- ---- ------<br>--- ----- --- --- ------ -------- ----- --- ------ ----- --<br>these ----- ---------- --- --- ------ ------ ---- -- ------<br>------- --- ------ ----- --- ---- ------- -- ---- --- --<br>------- ------,259907.19999980927,259906.79999995232,259419.702,259420.79999995232,259426.765,259912.634,,33,these
screen,html.Screen,2_1_1_1_34,2022-05-12T17:30:37.812Z,,,,,,,,,,,,,,,,,54,,,,,,,,,,,,,,3001.4659999046416,,response,,,,100,,,,,,,Space,keypress(Space),,,,,,,,-- --- ---- --- ------ ----- ------- ---- -- --- ------- --<br>------- ---------- ------ -- ----- -- ----- -- ---- ------<br>--- ----- --- --- ------ -------- ----- --- ------ ----- --<br>----- bonds ---------- --- --- ------ ------ ---- -- ------<br>------- --- ------ ----- --- ---- ------- -- ---- --- --<br>------- ------,262914.39999985695,262914.09999990463,259905.75,259907.19999980927,259912.634,262919.497,,34,bonds
screen,html.Screen,2_1_1_1_35,2022-05-12T17:30:38.198Z,,,,,,,,,,,,,,,,,54,,,,,,,,,,,,,,380.5030000000261,,response,,,,100,,,,,,,Space,keypress(Space),,,,,,,,"-- --- ---- --- ------ ----- ------- ---- -- --- ------- --<br>------- ---------- ------ -- ----- -- ----- -- ---- ------<br>--- ----- --- --- ------ -------- ----- --- ------ ----- --<br>----- ----- plummeted, --- --- ------ ------ ---- -- ------<br>------- --- ------ ----- --- ---- ------- -- ---- --- --<br>------- ------",263300.2999999523,263300,262913.057,262914.5,262919.497,263310.088,,35,"plummeted,"
screen,html.Screen,2_1_1_1_36,2022-05-12T17:30:38.620Z,,,,,,,,,,,,,,,,,54,,,,,,,,,,,,,,411.31199985696,,response,,,,100,,,,,,,Space,keypress(Space),,,,,,,,-- --- ---- --- ------ ----- ------- ---- -- --- ------- --<br>------- ---------- ------ -- ----- -- ----- -- ---- ------<br>--- ----- --- --- ------ -------- ----- --- ------ ----- --<br>----- ----- ---------- and --- ------ ------ ---- -- ------<br>------- --- ------ ----- --- ---- ------- -- ---- --- --<br>------- ------,263721.89999985695,263721.39999985695,263294.181,263300.2999999523,263310.088,263724.647,,36,and
screen,html.Screen,2_1_1_1_37,2022-05-12T17:30:38.838Z,,,,,,,,,,,,,,,,,54,,,,,,,,,,,,,,215.05299980926793,,response,,,,100,,,,,,,Space,keypress(Space),,,,,,,,-- --- ---- --- ------ ----- ------- ---- -- --- ------- --<br>------- ---------- ------ -- ----- -- ----- -- ---- ------<br>--- ----- --- --- ------ -------- ----- --- ------ ----- --<br>----- ----- ---------- --- the ------ ------ ---- -- ------<br>------- --- ------ ----- --- ---- ------- -- ---- --- --<br>------- ------,263940.09999990463,263939.69999980927,263718.683,263722,263724.647,263953.854,,37,the
screen,html.Screen,2_1_1_1_38,2022-05-12T17:30:39.056Z,,,,,,,,,,,,,,,,,54,,,,,,,,,,,,,,203.84599980927305,,response,,,,100,,,,,,,Space,keypress(Space),,,,,,,,-- --- ---- --- ------ ----- ------- ---- -- --- ------- --<br>------- ---------- ------ -- ----- -- ----- -- ---- ------<br>--- ----- --- --- ------ -------- ----- --- ------ ----- --<br>----- ----- ---------- --- --- market ------ ---- -- ------<br>------- --- ------ ----- --- ---- ------- -- ---- --- --<br>------- ------,264158,264157.69999980927,263947.459,263940.09999990463,263953.854,264162.781,,38,market
screen,html.Screen,2_1_1_1_39,2022-05-12T17:30:39.304Z,,,,,,,,,,,,,,,,,54,,,,,,,,,,,,,,243.4189998092479,,response,,,,100,,,,,,,Space,keypress(Space),,,,,,,,-- --- ---- --- ------ ----- ------- ---- -- --- ------- --<br>------- ---------- ------ -- ----- -- ----- -- ---- ------<br>--- ----- --- --- ------ -------- ----- --- ------ ----- --<br>----- ----- ---------- --- --- ------ became ---- -- ------<br>------- --- ------ ----- --- ---- ------- -- ---- --- --<br>------- ------,264406.59999990463,264406.19999980927,264156.019,264158.19999980927,264162.781,264413.01,,39,became
screen,html.Screen,2_1_1_1_40,2022-05-12T17:30:39.590Z,,,,,,,,,,,,,,,,,54,,,,,,,,,,,,,,278.4899999999907,,response,,,,100,,,,,,,Space,keypress(Space),,,,,,,,-- --- ---- --- ------ ----- ------- ---- -- --- ------- --<br>------- ---------- ------ -- ----- -- ----- -- ---- ------<br>--- ----- --- --- ------ -------- ----- --- ------ ----- --<br>----- ----- ---------- --- --- ------ ------ wary -- ------<br>------- --- ------ ----- --- ---- ------- -- ---- --- --<br>------- ------,264691.7999999523,264691.5,264405.778,264406.59999990463,264413.01,264697.199,,40,wary
screen,html.Screen,2_1_1_1_41,2022-05-12T17:30:39.980Z,,,,,,,,,,,,,,,,,54,,,,,,,,,,,,,,385.10099995229393,,response,,,,100,,,,,,,Space,keypress(Space),,,,,,,,-- --- ---- --- ------ ----- ------- ---- -- --- ------- --<br>------- ---------- ------ -- ----- -- ----- -- ---- ------<br>--- ----- --- --- ------ -------- ----- --- ------ ----- --<br>----- ----- ---------- --- --- ------ ------ ---- of ------<br>------- --- ------ ----- --- ---- ------- -- ---- --- --<br>------- ------,265082.69999980927,265082.2999999523,264689.897,264691.89999985695,264697.199,265085.707,,41,of
screen,html.Screen,2_1_1_1_42,2022-05-12T17:30:40.398Z,,,,,,,,,,,,,,,,,54,,,,,,,,,,,,,,414.49299980927026,,response,,,,100,,,,,,,Space,keypress(Space),,,,,,,,-- --- ---- --- ------ ----- ------- ---- -- --- ------- --<br>------- ---------- ------ -- ----- -- ----- -- ---- ------<br>--- ----- --- --- ------ -------- ----- --- ------ ----- --<br>----- ----- ---------- --- --- ------ ------ ---- -- French<br>------- --- ------ ----- --- ---- ------- -- ---- --- --<br>------- ------,265500.69999980927,265500.19999980927,265079.552,265082.69999980927,265085.707,265502.266,,42,French
screen,html.Screen,2_1_1_1_43,2022-05-12T17:30:40.752Z,,,,,,,,,,,,,,,,,54,,,,,,,,,,,,,,351.4339998092619,,response,,,,100,,,,,,,Space,keypress(Space),,,,,,,,-- --- ---- --- ------ ----- ------- ---- -- --- ------- --<br>------- ---------- ------ -- ----- -- ----- -- ---- ------<br>--- ----- --- --- ------ -------- ----- --- ------ ----- --<br>----- ----- ---------- --- --- ------ ------ ---- -- ------<br>credit. --- ------ ----- --- ---- ------- -- ---- --- --<br>------- ------,265854.09999990463,265853.69999980927,265496.253,265500.69999980927,265502.266,265856.396,,43,credit.
screen,html.Screen,2_1_1_1_44,2022-05-12T17:30:40.965Z,,,,,,,,,,,,,,,,,54,,,,,,,,,,,,,,210.90399995230837,,response,,,,100,,,,,,,Space,keypress(Space),,,,,,,,-- --- ---- --- ------ ----- ------- ---- -- --- ------- --<br>------- ---------- ------ -- ----- -- ----- -- ---- ------<br>--- ----- --- --- ------ -------- ----- --- ------ ----- --<br>----- ----- ---------- --- --- ------ ------ ---- -- ------<br>------- The ------ ----- --- ---- ------- -- ---- --- --<br>------- ------,266067.69999980927,266067.2999999523,265850.046,265854.09999990463,265856.396,266071.943,,44,The
screen,html.Screen,2_1_1_1_45,2022-05-12T17:30:41.321Z,,,,,,,,,,,,,,,,,54,,,,,,,,,,,,,,350.65699990460416,,response,,,,100,,,,,,,Space,keypress(Space),,,,,,,,-- --- ---- --- ------ ----- ------- ---- -- --- ------- --<br>------- ---------- ------ -- ----- -- ----- -- ---- ------<br>--- ----- --- --- ------ -------- ----- --- ------ ----- --<br>----- ----- ---------- --- --- ------ ------ ---- -- ------<br>------- --- French ----- --- ---- ------- -- ---- --- --<br>------- ------,266423.09999990463,266422.59999990463,266065.244,266067.7999999523,266071.943,266426.042,,45,French
screen,html.Screen,2_1_1_1_46,2022-05-12T17:30:41.534Z,,,,,,,,,,,,,,,,,54,,,,,,,,,,,,,,209.55799990461674,,response,,,,100,,,,,,,Space,keypress(Space),,,,,,,,-- --- ---- --- ------ ----- ------- ---- -- --- ------- --<br>------- ---------- ------ -- ----- -- ----- -- ---- ------<br>--- ----- --- --- ------ -------- ----- --- ------ ----- --<br>----- ----- ---------- --- --- ------ ------ ---- -- ------<br>------- --- ------ state --- ---- ------- -- ---- --- --<br>------- ------,266636,266635.59999990463,266418.843,266423.19999980927,266426.042,266641.308,,46,state
screen,html.Screen,2_1_1_1_47,2022-05-12T17:30:41.783Z,,,,,,,,,,,,,,,,,54,,,,,,,,,,,,,,243.09199985692976,,response,,,,100,,,,,,,Space,keypress(Space),,,,,,,,-- --- ---- --- ------ ----- ------- ---- -- --- ------- --<br>------- ---------- ------ -- ----- -- ----- -- ---- ------<br>--- ----- --- --- ------ -------- ----- --- ------ ----- --<br>----- ----- ---------- --- --- ------ ------ ---- -- ------<br>------- --- ------ ----- was ---- ------- -- ---- --- --<br>------- ------,266884.7999999523,266884.39999985695,266634.912,266636.09999990463,266641.308,266891.31,,47,was
screen,html.Screen,2_1_1_1_48,2022-05-12T17:30:42.001Z,,,,,,,,,,,,,,,,,54,,,,,,,,,,,,,,211.7899999046349,,response,,,,100,,,,,,,Space,keypress(Space),,,,,,,,-- --- ---- --- ------ ----- ------- ---- -- --- ------- --<br>------- ---------- ------ -- ----- -- ----- -- ---- ------<br>--- ----- --- --- ------ -------- ----- --- ------ ----- --<br>----- ----- ---------- --- --- ------ ------ ---- -- ------<br>------- --- ------ ----- --- left ------- -- ---- --- --<br>------- ------,267103.59999990463,267103.09999990463,266884.518,266884.89999985695,266891.31,267106.497,,48,left
screen,html.Screen,2_1_1_1_49,2022-05-12T17:30:42.214Z,,,,,,,,,,,,,,,,,54,,,,,,,,,,,,,,209.40299985697493,,response,,,,100,,,,,,,Space,keypress(Space),,,,,,,,-- --- ---- --- ------ ----- ------- ---- -- --- ------- --<br>------- ---------- ------ -- ----- -- ----- -- ---- ------<br>--- ----- --- --- ------ -------- ----- --- ------ ----- --<br>----- ----- ---------- --- --- ------ ------ ---- -- ------<br>------- --- ------ ----- --- ---- without -- ---- --- --<br>------- ------,267316.2999999523,267315.89999985695,267099.815,267103.59999990463,267106.497,267321.783,,49,without
screen,html.Screen,2_1_1_1_50,2022-05-12T17:30:42.463Z,,,,,,,,,,,,,,,,,54,,,,,,,,,,,,,,242.61699985695304,,response,,,,100,,,,,,,Space,keypress(Space),,,,,,,,-- --- ---- --- ------ ----- ------- ---- -- --- ------- --<br>------- ---------- ------ -- ----- -- ----- -- ---- ------<br>--- ----- --- --- ------ -------- ----- --- ------ ----- --<br>----- ----- ---------- --- --- ------ ------ ---- -- ------<br>------- --- ------ ----- --- ---- ------- an ---- --- --<br>------- ------,267564.7999999523,267564.39999985695,267315.478,267316.2999999523,267321.783,267571.526,,50,an
screen,html.Screen,2_1_1_1_51,2022-05-12T17:30:42.713Z,,,,,,,,,,,,,,,,,54,,,,,,,,,,,,,,243.47399999998743,,response,,,,100,,,,,,,Space,keypress(Space),,,,,,,,-- --- ---- --- ------ ----- ------- ---- -- --- ------- --<br>------- ---------- ------ -- ----- -- ----- -- ---- ------<br>--- ----- --- --- ------ -------- ----- --- ------ ----- --<br>----- ----- ---------- --- --- ------ ------ ---- -- ------<br>------- --- ------ ----- --- ---- ------- -- easy --- --<br>------- ------,267815.39999985695,267815,267564.55,267564.89999985695,267571.526,267821.742,,51,easy
screen,html.Screen,2_1_1_1_52,2022-05-12T17:30:42.960Z,,,,,,,,,,,,,,,,,54,,,,,,,,,,,,,,240.25799999997253,,response,,,,100,,,,,,,Space,keypress(Space),,,,,,,,-- --- ---- --- ------ ----- ------- ---- -- --- ------- --<br>------- ---------- ------ -- ----- -- ----- -- ---- ------<br>--- ----- --- --- ------ -------- ----- --- ------ ----- --<br>----- ----- ---------- --- --- ------ ------ ---- -- ------<br>------- --- ------ ----- --- ---- ------- -- ---- way --<br>------- ------,268062.39999985695,268062,267814.581,267815.5,267821.742,268064.505,,52,way
screen,html.Screen,2_1_1_1_53,2022-05-12T17:30:43.281Z,,,,,,,,,,,,,,,,,54,,,,,,,,,,,,,,318.0949999046279,,response,,,,100,,,,,,,Space,keypress(Space),,,,,,,,-- --- ---- --- ------ ----- ------- ---- -- --- ------- --<br>------- ---------- ------ -- ----- -- ----- -- ---- ------<br>--- ----- --- --- ------ -------- ----- --- ------ ----- --<br>----- ----- ---------- --- --- ------ ------ ---- -- ------<br>------- --- ------ ----- --- ---- ------- -- ---- --- of<br>------- ------,268382.89999985695,268382.59999990463,268057.624,268062.5,268064.505,268403.159,,53,of
screen,html.Screen,2_1_1_1_54,2022-05-12T17:30:43.631Z,,,,,,,,,,,,,,,,,54,,,,,,,,,,,,,,329.3410000000149,,response,,,,100,,,,,,,Space,keypress(Space),,,,,,,,-- --- ---- --- ------ ----- ------- ---- -- --- ------- --<br>------- ---------- ------ -- ----- -- ----- -- ---- ------<br>--- ----- --- --- ------ -------- ----- --- ------ ----- --<br>----- ----- ---------- --- --- ------ ------ ---- -- ------<br>------- --- ------ ----- --- ---- ------- -- ---- --- --<br>raising ------,268732.7999999523,268732.5,268377.887,268382.89999985695,268403.159,268738.016,,54,raising
screen,html.Screen,2_1_1_1_55,2022-05-12T17:30:44.251Z,,,,,,,,,,,,,,,,,54,,,,,,,,,,,,,,614.783999952313,,response,,,,100,,,,,,,Space,keypress(Space),,,,,,,,-- --- ---- --- ------ ----- ------- ---- -- --- ------- --<br>------- ---------- ------ -- ----- -- ----- -- ---- ------<br>--- ----- --- --- ------ -------- ----- --- ------ ----- --<br>----- ----- ---------- --- --- ------ ------ ---- -- ------<br>------- --- ------ ----- --- ---- ------- -- ---- --- --<br>------- money.,269353.2999999523,269352.7999999523,268731.096,268732.89999985695,268738.016,269356.058,,55,money.
Item 100,flow.Loop,2_1_1_1,2022-05-12T17:30:44.251Z,,,,,,,,,,,,,,,,,,,,,,,,,,,,,,,22674.876999952307,,completion,,,,,G,,,,,,,,,,,silence,,,,,269353.39999985695,269352.7999999523,246671.051,246672.5,246677.923,269356.058,,,
Question 1,html.Screen,2_1_1_2,2022-05-12T17:30:47.207Z,,,,,,,,,,,,,,,,,,,,,,,,,,,,true,TRUE,,2952.641999809246,,response,,,,100,G,,,,,,TRUE,click #choice-1,,,,silence,,,,,272309.39999985695,272308.69999980927,269349.125,269353.39999985695,269356.058,272314.083,,,
Question 2,html.Screen,2_1_1_3,2022-05-12T17:30:56.095Z,,,,,,,,,,,,,,,,,,,,,,,,,,,,false,FALSE,,8882.417000000016,,response,,,,100,G,,,,,,TRUE,click #choice-1,,,,silence,,,,,281197.09999990463,281196.5,272307.39,272309.5,272314.083,281201.99,,,
Item 100,flow.Sequence,2_1_1,2022-05-12T17:30:56.095Z,,,,,,,,,,,,,,,,,,,,,,,,,,,,,,,44517.48199999999,,completion,,,,,,,,,,,,,,,,,,,,,281197.2999999523,281196.5,236672.049,236675.59999990463,236679.018,281201.99,,,
End of Practice,html.Page,2_1_2,2022-05-12T17:31:01.632Z,,,,,,,,,,,,,,,,,,,,,,,,,,,,,,,5531.709999809274,,form submission,,,,,,,,,,,,,,,,,,,,,286733.7999999523,286733.69999980927,281195.544,281197.2999999523,281201.99,286736.051,,,
Practice,flow.Sequence,2_1,2022-05-12T17:31:01.632Z,,,,,,,,,,,,,,,,,,,,,,,,,,,,,,,92445.97899980927,,completion,,,,,,,,,,,,,,,,,,,,,286734,286733.69999980927,194274.032,194281.09999990463,194287.721,286736.051,,,
Trap_instruction,html.Page,2_2_0,2022-05-12T17:31:05.935Z,,,,,,,,,,,,,,,,,,,,,,,,,,,,,,,4301.348999856971,,form submission,,,,,,,,,,,,,,,,,,,,,291037.5,291037.39999985695,286729.34,286734,286736.051,291048.117,,,
trap_trial,html.Screen,2_2_1,2022-05-12T17:31:09.539Z,,,,,,,,,,,,,,,,,,,,,,,,,,,,true,1,,3592.2829998569214,,response,,,,,,,,,,,1,click #choice-1,,,,,,,,,294641.09999990463,294640.39999985695,291034.368,291037.59999990463,291048.117,294645.039,,,
end of trap trial,html.Page,2_2_2,2022-05-12T17:31:11.710Z,,,,,,,,,,,,,,,,,,,,,,,,,,,,,,,2166.560999904643,,form submission,,,,,,,,,,,,,,,,,,,,,296811.7999999523,296811.59999990463,294638.045,294641.19999980927,294645.039,296825.101,,,
Trap 1,flow.Sequence,2_2,2022-05-12T17:31:11.710Z,,,,,,,,,,,,,,,,,,,,,,,,,,,,,,,10075.548999904655,,completion,,,,,,,,,,,,,,,,,,,,,296812,296811.59999990463,286729.34,286734,286736.051,296825.101,,,
Standby,html.Page,2_3_0,2022-05-12T17:31:19.718Z,,,,,,,,,,,,,,,,,,,,,,,,,,,,,,,7999.334999999963,,timeout,,,,,,,,,,,,,,,,,,,,,304820.69999980927,304818.125,296804.971,296812,296825.101,304824.436,,,
Holding screen,html.Screen,2_3_1_0_0,2022-05-12T17:31:26.716Z,,,,,,,,,,,,,,,,,,,,,,,,,,,,,,,6999.207999999984,,timeout,,,,,,,,,,,,,,,,,,,,,311818,311817.371,304818.125,304820.69999980927,304824.436,311823.644,,,
screen,html.Screen,2_3_1_0_1_0,2022-05-12T17:31:29.438Z,,,,,,,,,,,,,,,,,12,,,,,,,,,,,,,,2715.4559999046614,,response,,,,5,G,,,,,,Space,keypress(Space),,,,instrumental,,,,Some ------ ------ ------- ------ --- ------- -----------<br>-- ----- --- ---- -- --- ------ ---- - ---- -- ----------<br>-- ------ ---- --- ---- --- --- --- ----- -- -------- ---<br>------ ------- -------- --- ---- -- ------- ------------ --<br>------ -- ---- -- --- ---- -- -------- -- --- ------ ------,314539.59999990463,314539.09999990463,311817.371,311818,311823.644,314545.551,,0,Some
screen,html.Screen,2_3_1_0_1_1,2022-05-12T17:31:29.859Z,,,,,,,,,,,,,,,,,12,,,,,,,,,,,,,,415.3489998569712,,response,,,,5,G,,,,,,Space,keypress(Space),,,,instrumental,,,,---- months ------ ------- ------ --- ------- -----------<br>-- ----- --- ---- -- --- ------ ---- - ---- -- ----------<br>-- ------ ---- --- ---- --- --- --- ----- -- -------- ---<br>------ ------- -------- --- ---- -- ------- ------------ --<br>------ -- ---- -- --- ---- -- -------- -- --- ------ ------,314961.2999999523,314960.89999985695,314539.466,314539.7999999523,314545.551,314982.468,,1,months
screen,html.Screen,2_3_1_0_1_2,2022-05-12T17:31:30.178Z,,,,,,,,,,,,,,,,,12,,,,,,,,,,,,,,297.4319998569554,,response,,,,5,G,,,,,,Space,keypress(Space),,,,instrumental,,,,"---- ------ later, ------- ------ --- ------- -----------<br>-- ----- --- ---- -- --- ------ ---- - ---- -- ----------<br>-- ------ ---- --- ---- --- --- --- ----- -- -------- ---<br>------ ------- -------- --- ---- -- ------- ------------ --<br>------ -- ---- -- --- ---- -- -------- -- --- ------ ------",315280.2999999523,315279.89999985695,314955.976,314961.5,314982.468,315303.143,,2,"later,"
screen,html.Screen,2_3_1_0_1_3,2022-05-12T17:31:30.570Z,,,,,,,,,,,,,,,,,12,,,,,,,,,,,,,,367.85700000001816,,response,,,,5,G,,,,,,Space,keypress(Space),,,,instrumental,,,,---- ------ ------ Michael ------ --- ------- -----------<br>-- ----- --- ---- -- --- ------ ---- - ---- -- ----------<br>-- ------ ---- --- ---- --- --- --- ----- -- -------- ---<br>------ ------- -------- --- ---- -- ------- ------------ --<br>------ -- ---- -- --- ---- -- -------- -- --- ------ ------,315671.5,315671,315274.826,315280.2999999523,315303.143,315677.671,,3,Michael
screen,html.Screen,2_3_1_0_1_4,2022-05-12T17:31:31.021Z,,,,,,,,,,,,,,,,,12,,,,,,,,,,,,,,445.1289999523433,,response,,,,5,G,,,,,,Space,keypress(Space),,,,instrumental,,,,---- ------ ------ ------- Larson --- ------- -----------<br>-- ----- --- ---- -- --- ------ ---- - ---- -- ----------<br>-- ------ ---- --- ---- --- --- --- ----- -- -------- ---<br>------ ------- -------- --- ---- -- ------- ------------ --<br>------ -- ---- -- --- ---- -- -------- -- --- ------ ------,316123.19999980927,316122.7999999523,315671.089,315671.59999990463,315677.671,316128.953,,4,Larson
screen,html.Screen,2_3_1_0_1_5,2022-05-12T17:31:31.443Z,,,,,,,,,,,,,,,,,12,,,,,,,,,,,,,,415.44699985696934,,response,,,,5,G,,,,,,Space,keypress(Space),,,,instrumental,,,,---- ------ ------ ------- ------ saw ------- -----------<br>-- ----- --- ---- -- --- ------ ---- - ---- -- ----------<br>-- ------ ---- --- ---- --- --- --- ----- -- -------- ---<br>------ ------- -------- --- ---- -- ------- ------------ --<br>------ -- ---- -- --- ---- -- -------- -- --- ------ ------,316544.89999985695,316544.39999985695,316122.096,316123.19999980927,316128.953,316563.377,,5,saw
screen,html.Screen,2_3_1_0_1_6,2022-05-12T17:31:31.793Z,,,,,,,,,,,,,,,,,12,,,,,,,,,,,,,,330.82299980928656,,response,,,,5,G,,,,,,Space,keypress(Space),,,,instrumental,,,,---- ------ ------ ------- ------ --- another -----------<br>-- ----- --- ---- -- --- ------ ---- - ---- -- ----------<br>-- ------ ---- --- ---- --- --- --- ----- -- -------- ---<br>------ ------- -------- --- ---- -- ------- ------------ --<br>------ -- ---- -- --- ---- -- -------- -- --- ------ ------,316894.59999990463,316894.19999980927,316539.058,316544.89999985695,316563.377,316899.481,,6,another
screen,html.Screen,2_3_1_0_1_7,2022-05-12T17:31:32.042Z,,,,,,,,,,,,,,,,,12,,,,,,,,,,,,,,244.41899985691998,,response,,,,5,G,,,,,,Space,keypress(Space),,,,instrumental,,,,---- ------ ------ ------- ------ --- ------- opportunity<br>-- ----- --- ---- -- --- ------ ---- - ---- -- ----------<br>-- ------ ---- --- ---- --- --- --- ----- -- -------- ---<br>------ ------- -------- --- ---- -- ------- ------------ --<br>------ -- ---- -- --- ---- -- -------- -- --- ------ ------,317144.2999999523,317143.89999985695,316892.662,316894.59999990463,316899.481,317149.734,,7,opportunity
screen,html.Screen,2_3_1_0_1_8,2022-05-12T17:31:32.530Z,,,,,,,,,,,,,,,,,12,,,,,,,,,,,,,,481.26600000000326,,response,,,,5,G,,,,,,Space,keypress(Space),,,,instrumental,,,,---- ------ ------ ------- ------ --- ------- -----------<br>to ----- --- ---- -- --- ------ ---- - ---- -- ----------<br>-- ------ ---- --- ---- --- --- --- ----- -- -------- ---<br>------ ------- -------- --- ---- -- ------- ------------ --<br>------ -- ---- -- --- ---- -- -------- -- --- ------ ------,317631.5,317631,317142.526,317144.2999999523,317149.734,317635.592,,8,to
screen,html.Screen,2_3_1_0_1_9,2022-05-12T17:31:32.814Z,,,,,,,,,,,,,,,,,12,,,,,,,,,,,,,,279.9079999999958,,response,,,,5,G,,,,,,Space,keypress(Space),,,,instrumental,,,,---- ------ ------ ------- ------ --- ------- -----------<br>-- stack --- ---- -- --- ------ ---- - ---- -- ----------<br>-- ------ ---- --- ---- --- --- --- ----- -- -------- ---<br>------ ------- -------- --- ---- -- ------- ------------ --<br>------ -- ---- -- --- ---- -- -------- -- --- ------ ------,317915.89999985695,317915.5,317628.647,317631.5,317635.592,317920.82,,9,stack
screen,html.Screen,2_3_1_0_1_10,2022-05-12T17:31:33.063Z,,,,,,,,,,,,,,,,,12,,,,,,,,,,,,,,243.37999980925815,,response,,,,5,G,,,,,,Space,keypress(Space),,,,instrumental,,,,---- ------ ------ ------- ------ --- ------- -----------<br>-- ----- the ---- -- --- ------ ---- - ---- -- ----------<br>-- ------ ---- --- ---- --- --- --- ----- -- -------- ---<br>------ ------- -------- --- ---- -- ------- ------------ --<br>------ -- ---- -- --- ---- -- -------- -- --- ------ ------,318164.69999980927,318164.19999980927,317914.106,317916,317920.82,318170.705,,10,the
screen,html.Screen,2_3_1_0_1_11,2022-05-12T17:31:33.346Z,,,,,,,,,,,,,,,,,12,,,,,,,,,,,,,,277.0949999523,,response,,,,5,G,,,,,,Space,keypress(Space),,,,instrumental,,,,---- ------ ------ ------- ------ --- ------- -----------<br>-- ----- --- odds -- --- ------ ---- - ---- -- ----------<br>-- ------ ---- --- ---- --- --- --- ----- -- -------- ---<br>------ ------- -------- --- ---- -- ------- ------------ --<br>------ -- ---- -- --- ---- -- -------- -- --- ------ ------,318448.2999999523,318447.7999999523,318163.844,318164.7999999523,318170.705,318455.306,,11,odds
screen,html.Screen,2_3_1_0_1_12,2022-05-12T17:31:33.631Z,,,,,,,,,,,,,,,,,12,,,,,,,,,,,,,,276.89399980928283,,response,,,,5,G,,,,,,Space,keypress(Space),,,,instrumental,,,,---- ------ ------ ------- ------ --- ------- -----------<br>-- ----- --- ---- in --- ------ ---- - ---- -- ----------<br>-- ------ ---- --- ---- --- --- --- ----- -- -------- ---<br>------ ------- -------- --- ---- -- ------- ------------ --<br>------ -- ---- -- --- ---- -- -------- -- --- ------ ------,318732.5,318732.19999980927,318448.574,318448.39999985695,318455.306,318739.522,,12,in
screen,html.Screen,2_3_1_0_1_13,2022-05-12T17:31:33.881Z,,,,,,,,,,,,,,,,,12,,,,,,,,,,,,,,242.4780000000028,,response,,,,5,G,,,,,,Space,keypress(Space),,,,instrumental,,,,---- ------ ------ ------- ------ --- ------- -----------<br>-- ----- --- ---- -- his ------ ---- - ---- -- ----------<br>-- ------ ---- --- ---- --- --- --- ----- -- -------- ---<br>------ ------- -------- --- ---- -- ------- ------------ --<br>------ -- ---- -- --- ---- -- -------- -- --- ------ ------,318982.59999990463,318982,318732.688,318732.59999990463,318739.522,318989.754,,13,his
screen,html.Screen,2_3_1_0_1_14,2022-05-12T17:31:34.063Z,,,,,,,,,,,,,,,,,12,,,,,,,,,,,,,,174.54599995230092,,response,,,,5,G,,,,,,Space,keypress(Space),,,,instrumental,,,,---- ------ ------ ------- ------ --- ------- -----------<br>-- ----- --- ---- -- --- favour ---- - ---- -- ----------<br>-- ------ ---- --- ---- --- --- --- ----- -- -------- ---<br>------ ------- -------- --- ---- -- ------- ------------ --<br>------ -- ---- -- --- ---- -- -------- -- --- ------ ------,319164.7999999523,319164.2999999523,318982.638,318982.59999990463,318989.754,319170.363,,14,favour
screen,html.Screen,2_3_1_0_1_15,2022-05-12T17:31:34.453Z,,,,,,,,,,,,,,,,,12,,,,,,,,,,,,,,384.23699990462046,,response,,,,5,G,,,,,,Space,keypress(Space),,,,instrumental,,,,---- ------ ------ ------- ------ --- ------- -----------<br>-- ----- --- ---- -- --- ------ with - ---- -- ----------<br>-- ------ ---- --- ---- --- --- --- ----- -- -------- ---<br>------ ------- -------- --- ---- -- ------- ------------ --<br>------ -- ---- -- --- ---- -- -------- -- --- ------ ------,319555.19999980927,319554.59999990463,319163.139,319164.7999999523,319170.363,319559.127,,15,with
screen,html.Screen,2_3_1_0_1_16,2022-05-12T17:31:34.737Z,,,,,,,,,,,,,,,,,12,,,,,,,,,,,,,,279.3730000000214,,response,,,,5,G,,,,,,Space,keypress(Space),,,,instrumental,,,,---- ------ ------ ------- ------ --- ------- -----------<br>-- ----- --- ---- -- --- ------ ---- a ---- -- ----------<br>-- ------ ---- --- ---- --- --- --- ----- -- -------- ---<br>------ ------- -------- --- ---- -- ------- ------------ --<br>------ -- ---- -- --- ---- -- -------- -- --- ------ ------,319839.09999990463,319838.5,319552.54,319555.2999999523,319559.127,319843.618,,16,a
screen,html.Screen,2_3_1_0_1_17,2022-05-12T17:31:34.986Z,,,,,,,,,,,,,,,,,12,,,,,,,,,,,,,,244.2819998569321,,response,,,,5,G,,,,,,Space,keypress(Space),,,,instrumental,,,,---- ------ ------ ------- ------ --- ------- -----------<br>-- ----- --- ---- -- --- ------ ---- - dash -- ----------<br>-- ------ ---- --- ---- --- --- --- ----- -- -------- ---<br>------ ------- -------- --- ---- -- ------- ------------ --<br>------ -- ---- -- --- ---- -- -------- -- --- ------ ------,320088.19999980927,320087.89999985695,319837.168,319839.19999980927,319843.618,320093.595,,17,dash
screen,html.Screen,2_3_1_0_1_18,2022-05-12T17:31:35.234Z,,,,,,,,,,,,,,,,,12,,,,,,,,,,,,,,242.20499995234422,,response,,,,5,G,,,,,,Space,keypress(Space),,,,instrumental,,,,---- ------ ------ ------- ------ --- ------- -----------<br>-- ----- --- ---- -- --- ------ ---- - ---- of ----------<br>-- ------ ---- --- ---- --- --- --- ----- -- -------- ---<br>------ ------- -------- --- ---- -- ------- ------------ --<br>------ -- ---- -- --- ---- -- -------- -- --- ------ ------,320336.09999990463,320335.7999999523,320087.466,320088.39999985695,320093.595,320353.485,,18,of
screen,html.Screen,2_3_1_0_1_19,2022-05-12T17:31:35.484Z,,,,,,,,,,,,,,,,,12,,,,,,,,,,,,,,231.81499995233025,,response,,,,5,G,,,,,,Space,keypress(Space),,,,instrumental,,,,---- ------ ------ ------- ------ --- ------- -----------<br>-- ----- --- ---- -- --- ------ ---- - ---- -- ingenuity.<br>-- ------ ---- --- ---- --- --- --- ----- -- -------- ---<br>------ ------- -------- --- ---- -- ------- ------------ --<br>------ -- ---- -- --- ---- -- -------- -- --- ------ ------,320585.69999980927,320585.2999999523,320330.525,320336.09999990463,320353.485,320603.374,,19,ingenuity.
screen,html.Screen,2_3_1_0_1_20,2022-05-12T17:31:35.942Z,,,,,,,,,,,,,,,,,12,,,,,,,,,,,,,,440.02599985693814,,response,,,,5,G,,,,,,Space,keypress(Space),,,,instrumental,,,,---- ------ ------ ------- ------ --- ------- -----------<br>-- ----- --- ---- -- --- ------ ---- - ---- -- ----------<br>He ------ ---- --- ---- --- --- --- ----- -- -------- ---<br>------ ------- -------- --- ---- -- ------- ------------ --<br>------ -- ---- -- --- ---- -- -------- -- --- ------ ------,321043.7999999523,321043.39999985695,320580.34,320585.7999999523,320603.374,321063.268,,20,He
screen,html.Screen,2_3_1_0_1_21,2022-05-12T17:31:36.124Z,,,,,,,,,,,,,,,,,12,,,,,,,,,,,,,,162.4319998092833,,response,,,,5,G,,,,,,Space,keypress(Space),,,,instrumental,,,,---- ------ ------ ------- ------ --- ------- -----------<br>-- ----- --- ---- -- --- ------ ---- - ---- -- ----------<br>-- walked ---- --- ---- --- --- --- ----- -- -------- ---<br>------ ------- -------- --- ---- -- ------- ------------ --<br>------ -- ---- -- --- ---- -- -------- -- --- ------ ------,321226.19999980927,321225.69999980927,321038.659,321043.7999999523,321063.268,321232.626,,21,walked
screen,html.Screen,2_3_1_0_1_22,2022-05-12T17:31:36.337Z,,,,,,,,,,,,,,,,,12,,,,,,,,,,,,,,206.27399985695956,,response,,,,5,G,,,,,,Space,keypress(Space),,,,instrumental,,,,---- ------ ------ ------- ------ --- ------- -----------<br>-- ----- --- ---- -- --- ------ ---- - ---- -- ----------<br>-- ------ into --- ---- --- --- --- ----- -- -------- ---<br>------ ------- -------- --- ---- -- ------- ------------ --<br>------ -- ---- -- --- ---- -- -------- -- --- ------ ------,321439.39999985695,321438.89999985695,321225.786,321226.2999999523,321232.626,321440.659,,22,into
screen,html.Screen,2_3_1_0_1_23,2022-05-12T17:31:36.591Z,,,,,,,,,,,,,,,,,12,,,,,,,,,,,,,,251.54099980928004,,response,,,,5,G,,,,,,Space,keypress(Space),,,,instrumental,,,,---- ------ ------ ------- ------ --- ------- -----------<br>-- ----- --- ---- -- --- ------ ---- - ---- -- ----------<br>-- ------ ---- his ---- --- --- --- ----- -- -------- ---<br>------ ------- -------- --- ---- -- ------- ------------ --<br>------ -- ---- -- --- ---- -- -------- -- --- ------ ------,321692.69999980927,321692.19999980927,321434.004,321439.39999985695,321440.659,321697.84,,23,his
screen,html.Screen,2_3_1_0_1_24,2022-05-12T17:31:36.805Z,,,,,,,,,,,,,,,,,12,,,,,,,,,,,,,,208.35999980923953,,response,,,,5,G,,,,,,Space,keypress(Space),,,,instrumental,,,,---- ------ ------ ------- ------ --- ------- -----------<br>-- ----- --- ---- -- --- ------ ---- - ---- -- ----------<br>-- ------ ---- --- bank --- --- --- ----- -- -------- ---<br>------ ------- -------- --- ---- -- ------- ------------ --<br>------ -- ---- -- --- ---- -- -------- -- --- ------ ------,321906.69999980927,321906.19999980927,321691.42,321692.7999999523,321697.84,321913.149,,24,bank
screen,html.Screen,2_3_1_0_1_25,2022-05-12T17:31:37.018Z,,,,,,,,,,,,,,,,,12,,,,,,,,,,,,,,206.25099985697307,,response,,,,5,G,,,,,,Space,keypress(Space),,,,instrumental,,,,---- ------ ------ ------- ------ --- ------- -----------<br>-- ----- --- ---- -- --- ------ ---- - ---- -- ----------<br>-- ------ ---- --- ---- one --- --- ----- -- -------- ---<br>------ ------- -------- --- ---- -- ------- ------------ --<br>------ -- ---- -- --- ---- -- -------- -- --- ------ ------,322119.69999980927,322119.39999985695,321906.752,321906.69999980927,321913.149,322121.113,,25,one
screen,html.Screen,2_3_1_0_1_26,2022-05-12T17:31:37.271Z,,,,,,,,,,,,,,,,,12,,,,,,,,,,,,,,251.48699990462046,,response,,,,5,G,,,,,,Space,keypress(Space),,,,instrumental,,,,---- ------ ------ ------- ------ --- ------- -----------<br>-- ----- --- ---- -- --- ------ ---- - ---- -- ----------<br>-- ------ ---- --- ---- --- day --- ----- -- -------- ---<br>------ ------- -------- --- ---- -- ------- ------------ --<br>------ -- ---- -- --- ---- -- -------- -- --- ------ ------,322373.09999990463,322372.59999990463,322115.067,322119.7999999523,322121.113,322378.371,,26,day
screen,html.Screen,2_3_1_0_1_27,2022-05-12T17:31:37.485Z,,,,,,,,,,,,,,,,,12,,,,,,,,,,,,,,208.12900000001537,,response,,,,5,G,,,,,,Space,keypress(Space),,,,instrumental,,,,---- ------ ------ ------- ------ --- ------- -----------<br>-- ----- --- ---- -- --- ------ ---- - ---- -- ----------<br>-- ------ ---- --- ---- --- --- and ----- -- -------- ---<br>------ ------- -------- --- ---- -- ------- ------------ --<br>------ -- ---- -- --- ---- -- -------- -- --- ------ ------,322587,322586.5,322371.818,322373.09999990463,322378.371,322601.078,,27,and
screen,html.Screen,2_3_1_0_1_28,2022-05-12T17:31:37.734Z,,,,,,,,,,,,,,,,,12,,,,,,,,,,,,,,234.22199995233677,,response,,,,5,G,,,,,,Space,keypress(Space),,,,instrumental,,,,---- ------ ------ ------- ------ --- ------- -----------<br>-- ----- --- ---- -- --- ------ ---- - ---- -- ----------<br>-- ------ ---- --- ---- --- --- --- asked -- -------- ---<br>------ ------- -------- --- ---- -- ------- ------------ --<br>------ -- ---- -- --- ---- -- -------- -- --- ------ ------,322835.59999990463,322835.2999999523,322593.555,322587,322601.078,322853.309,,28,asked
screen,html.Screen,2_3_1_0_1_29,2022-05-12T17:31:37.953Z,,,,,,,,,,,,,,,,,12,,,,,,,,,,,,,,200.7909999046242,,response,,,,5,G,,,,,,Space,keypress(Space),,,,instrumental,,,,---- ------ ------ ------- ------ --- ------- -----------<br>-- ----- --- ---- -- --- ------ ---- - ---- -- ----------<br>-- ------ ---- --- ---- --- --- --- ----- to -------- ---<br>------ ------- -------- --- ---- -- ------- ------------ --<br>------ -- ---- -- --- ---- -- -------- -- --- ------ ------,323054.59999990463,323054.09999990463,322829.379,322835.69999980927,322853.309,323058.532,,29,to
screen,html.Screen,2_3_1_0_1_30,2022-05-12T17:31:38.129Z,,,,,,,,,,,,,,,,,12,,,,,,,,,,,,,,171.56799990462605,,response,,,,5,G,,,,,,Space,keypress(Space),,,,instrumental,,,,---- ------ ------ ------- ------ --- ------- -----------<br>-- ----- --- ---- -- --- ------ ---- - ---- -- ----------<br>-- ------ ---- --- ---- --- --- --- ----- -- withdraw ---<br>------ ------- -------- --- ---- -- ------- ------------ --<br>------ -- ---- -- --- ---- -- -------- -- --- ------ ------,323230.5,323230.09999990463,323052.206,323054.69999980927,323058.532,323232.188,,30,withdraw
screen,html.Screen,2_3_1_0_1_31,2022-05-12T17:31:38.347Z,,,,,,,,,,,,,,,,,12,,,,,,,,,,,,,,216.5119998092414,,response,,,,5,G,,,,,,Space,keypress(Space),,,,instrumental,,,,---- ------ ------ ------- ------ --- ------- -----------<br>-- ----- --- ---- -- --- ------ ---- - ---- -- ----------<br>-- ------ ---- --- ---- --- --- --- ----- -- -------- his<br>------ ------- -------- --- ---- -- ------- ------------ --<br>------ -- ---- -- --- ---- -- -------- -- --- ------ ------,323449.09999990463,323448.69999980927,323226.045,323230.59999990463,323232.188,323455.021,,31,his
screen,html.Screen,2_3_1_0_1_32,2022-05-12T17:31:38.698Z,,,,,,,,,,,,,,,,,12,,,,,,,,,,,,,,343.9789999999921,,response,,,,5,G,,,,,,Space,keypress(Space),,,,instrumental,,,,---- ------ ------ ------- ------ --- ------- -----------<br>-- ----- --- ---- -- --- ------ ---- - ---- -- ----------<br>-- ------ ---- --- ---- --- --- --- ----- -- -------- ---<br>entire ------- -------- --- ---- -- ------- ------------ --<br>------ -- ---- -- --- ---- -- -------- -- --- ------ ------,323799.5,323799,323447.989,323449.19999980927,323455.021,323801.538,,32,entire
screen,html.Screen,2_3_1_0_1_33,2022-05-12T17:31:38.881Z,,,,,,,,,,,,,,,,,12,,,,,,,,,,,,,,180.46199999999953,,response,,,,5,G,,,,,,Space,keypress(Space),,,,instrumental,,,,---- ------ ------ ------- ------ --- ------- -----------<br>-- ----- --- ---- -- --- ------ ---- - ---- -- ----------<br>-- ------ ---- --- ---- --- --- --- ----- -- -------- ---<br>------ account -------- --- ---- -- ------- ------------ --<br>------ -- ---- -- --- ---- -- -------- -- --- ------ ------,323982.39999985695,323982,323795.378,323799.59999990463,323801.538,323989.306,,33,account
screen,html.Screen,2_3_1_0_1_34,2022-05-12T17:31:39.093Z,,,,,,,,,,,,,,,,,12,,,,,,,,,,,,,,205.59399985696655,,response,,,,5,G,,,,,,Space,keypress(Space),,,,instrumental,,,,"---- ------ ------ ------- ------ --- ------- -----------<br>-- ----- --- ---- -- --- ------ ---- - ---- -- ----------<br>-- ------ ---- --- ---- --- --- --- ----- -- -------- ---<br>------ ------- balance, --- ---- -- ------- ------------ --<br>------ -- ---- -- --- ---- -- -------- -- --- ------ ------",324195.2999999523,324194.89999985695,323982.269,323982.5,323989.306,324197.273,,34,"balance,"
screen,html.Screen,2_3_1_0_1_35,2022-05-12T17:31:39.314Z,,,,,,,,,,,,,,,,,12,,,,,,,,,,,,,,217.7270000000135,,response,,,,5,G,,,,,,Space,keypress(Space),,,,instrumental,,,,---- ------ ------ ------- ------ --- ------- -----------<br>-- ----- --- ---- -- --- ------ ---- - ---- -- ----------<br>-- ------ ---- --- ---- --- --- --- ----- -- -------- ---<br>------ ------- -------- but ---- -- ------- ------------ --<br>------ -- ---- -- --- ---- -- -------- -- --- ------ ------,324415.5,324415,324190.473,324195.39999985695,324197.273,324419.739,,35,but
screen,html.Screen,2_3_1_0_1_36,2022-05-12T17:31:39.525Z,,,,,,,,,,,,,,,,,12,,,,,,,,,,,,,,207.0609999523149,,response,,,,5,G,,,,,,Space,keypress(Space),,,,instrumental,,,,---- ------ ------ ------- ------ --- ------- -----------<br>-- ----- --- ---- -- --- ------ ---- - ---- -- ----------<br>-- ------ ---- --- ---- --- --- --- ----- -- -------- ---<br>------ ------- -------- --- with -- ------- ------------ --<br>------ -- ---- -- --- ---- -- -------- -- --- ------ ------,324627.09999990463,324626.7999999523,324413.448,324415.5,324419.739,324641.996,,36,with
screen,html.Screen,2_3_1_0_1_37,2022-05-12T17:31:39.743Z,,,,,,,,,,,,,,,,,12,,,,,,,,,,,,,,202.50400000001537,,response,,,,5,G,,,,,,Space,keypress(Space),,,,instrumental,,,,---- ------ ------ ------- ------ --- ------- -----------<br>-- ----- --- ---- -- --- ------ ---- - ---- -- ----------<br>-- ------ ---- --- ---- --- --- --- ----- -- -------- ---<br>------ ------- -------- --- ---- an ------- ------------ --<br>------ -- ---- -- --- ---- -- -------- -- --- ------ ------,324845.09999990463,324844.5,324635.314,324627.5,324641.996,324850.113,,37,an
screen,html.Screen,2_3_1_0_1_38,2022-05-12T17:31:39.923Z,,,,,,,,,,,,,,,,,12,,,,,,,,,,,,,,174.58699980925303,,response,,,,5,G,,,,,,Space,keypress(Space),,,,instrumental,,,,---- ------ ------ ------- ------ --- ------- -----------<br>-- ----- --- ---- -- --- ------ ---- - ---- -- ----------<br>-- ------ ---- --- ---- --- --- --- ----- -- -------- ---<br>------ ------- -------- --- ---- -- unusual ------------ --<br>------ -- ---- -- --- ---- -- -------- -- --- ------ ------,325025.09999990463,325024.69999980927,324843.558,324845.09999990463,324850.113,325030.572,,38,unusual
screen,html.Screen,2_3_1_0_1_39,2022-05-12T17:31:40.104Z,,,,,,,,,,,,,,,,,12,,,,,,,,,,,,,,174.72799995233072,,response,,,,5,G,,,,,,Space,keypress(Space),,,,instrumental,,,,---- ------ ------ ------- ------ --- ------- -----------<br>-- ----- --- ---- -- --- ------ ---- - ---- -- ----------<br>-- ------ ---- --- ---- --- --- --- ----- -- -------- ---<br>------ ------- -------- --- ---- -- ------- stipulation: --<br>------ -- ---- -- --- ---- -- -------- -- --- ------ ------,325205.7999999523,325205.2999999523,325024.031,325025.19999980927,325030.572,325211.318,,39,stipulation:
screen,html.Screen,2_3_1_0_1_40,2022-05-12T17:31:40.623Z,,,,,,,,,,,,,,,,,12,,,,,,,,,,,,,,513.4819999522879,,response,,,,5,G,,,,,,Space,keypress(Space),,,,instrumental,,,,---- ------ ------ ------- ------ --- ------- -----------<br>-- ----- --- ---- -- --- ------ ---- - ---- -- ----------<br>-- ------ ---- --- ---- --- --- --- ----- -- -------- ---<br>------ ------- -------- --- ---- -- ------- ------------ He<br>------ -- ---- -- --- ---- -- -------- -- --- ------ ------,325725.19999980927,325724.7999999523,325204.827,325205.7999999523,325211.318,325732.221,,40,He
screen,html.Screen,2_3_1_0_1_41,2022-05-12T17:31:40.840Z,,,,,,,,,,,,,,,,,12,,,,,,,,,,,,,,208.97899980924558,,response,,,,5,G,,,,,,Space,keypress(Space),,,,instrumental,,,,---- ------ ------ ------- ------ --- ------- -----------<br>-- ----- --- ---- -- --- ------ ---- - ---- -- ----------<br>-- ------ ---- --- ---- --- --- --- ----- -- -------- ---<br>------ ------- -------- --- ---- -- ------- ------------ --<br>wanted -- ---- -- --- ---- -- -------- -- --- ------ ------,325941.59999990463,325941.19999980927,325718.735,325725.2999999523,325732.221,325947.097,,41,wanted
screen,html.Screen,2_3_1_0_1_42,2022-05-12T17:31:41.022Z,,,,,,,,,,,,,,,,,12,,,,,,,,,,,,,,176.6029998092563,,response,,,,5,G,,,,,,Space,keypress(Space),,,,instrumental,,,,---- ------ ------ ------- ------ --- ------- -----------<br>-- ----- --- ---- -- --- ------ ---- - ---- -- ----------<br>-- ------ ---- --- ---- --- --- --- ----- -- -------- ---<br>------ ------- -------- --- ---- -- ------- ------------ --<br>------ as ---- -- --- ---- -- -------- -- --- ------ ------,326124.09999990463,326123.69999980927,325940.237,325941.7999999523,325947.097,326127.746,,42,as
