sender,sender_type,sender_id,timestamp,meta,,Blues,Classical,Country,Dance,Electronic,Folk,Gospel,Hip-Hop,Jazz,Latin,Musical/Film,New-age,Pop,Prolific_id,Provo_ID,R&B,Rap,Reggae,Religious,Rock,Soul,Swing,Traditional,age,artist_name,correct,correctResponse,distraction,duration,education,ended_on,familiarity,gender,headphone_check_performance,item,list,music_frequency,offensiveness,pleasantness,position_correct,preference,response,response_action,snippet_file,song_name,song_rating,sound,stimulus_1,stimulus_2,stimulus_3,text,time_commit,time_end,time_render,time_run,time_show,time_switch,url,word,word_ID
Prolific ID,html.Form,0,2022-05-09T11:03:46.607Z,"{""labjs_version"":""20.2.2"",""labjs_build"":{""flavor"":""production"",""commit"":""a25486e0c714a0ae2ce03ff94b7bb6896854dcfa""},""location"":""https://run.pavlovia.org/mvasilev/prolific3_music_c/"",""userAgent"":""Mozilla/5.0 (Windows NT 10.0; Win64; x64) AppleWebKit/537.36 (KHTML, like Gecko) Chrome/101.0.4951.54 Safari/537.36"",""platform"":""Win32"",""language"":""en-US"",""locale"":""en-US"",""timeZone"":""Europe/London"",""timezoneOffset"":-60,""screen_width"":1366,""screen_height"":768,""scroll_width"":1708,""scroll_height"":733,""window_innerWidth"":1707,""window_innerHeight"":781,""devicePixelRatio"":0.800000011920929}",,,,,,,,,,,,,,,603c124974df2e8f9f375fa8,,,,,,,,,,,,,,,4980.484999976157,,form submission,,,,,,,,,,,,,,,,,,,,,46130.59999990463,46129.39999997616,41081.887,41087.799999952316,41148.915,46165.763,{},,
Introduction,html.Screen,1_0,2022-05-09T11:03:53.221Z,,,,,,,,,,,,,,,,,,,,,,,,,,,,,,,6574.336999904634,,response,,,,,,,,,,,continue,click button,,,,,,,,,52744.39999997616,52740.09999990463,46115.771,46131.299999952316,46165.763,52766.015,,,
Volume calibration,html.Screen,1_1,2022-05-09T11:04:22.581Z,,,,,,,,,,,,,,,,,,,,,,,,,,,,,,,29329.985,,response,,,,,,,,,,,continue,click button,,,,,,,,,82104.39999997616,82096,52732.665,52744.699999928474,52766.015,82100.441,,,
Task instructions,html.Screen,1_2,2022-05-09T11:04:31.834Z,,,,,,,,,,,,,,,,,,,,,,,,,,,,,,,9255.558999999994,,response,,,,,,,,,,,continue,click button,,,,,,,,,91357.39999997616,91356,82083.763,82104.59999990463,82100.441,91367.448,,,
Sounds,html.Screen,1_3_0_0,2022-05-09T11:04:36.082Z,,,,,,,,,,,,,,,,,,,,,,,,,,,,,,,4250.156000000003,,timeout,,,,,,,,,1,,,,,,,,S,O,I,,95605,95600.935,91350.776,91357.79999995232,91367.448,95617.604,,,
Judgement,html.Screen,1_3_0_1,2022-05-09T11:04:38.030Z,,,,,,,,,,,,,,,,,,,,,,,,,,,,true,1,,1934.3959999999934,,response,,,,,,,,,1,,1,click #choice-1,,,,,S,O,I,,97553.29999995232,97552,95600.935,95605.29999995232,95617.604,97567.669,,,
Trial,flow.Sequence,1_3_0,2022-05-09T11:04:38.031Z,,,,,,,,,,,,,,,,,,,,,,,,,,,,,,,6184.551999999996,,completion,,,,,,,,,1,,,,,,,,S,O,I,,97554,97552,91350.776,91357.59999990463,91367.448,97567.669,,,
Sounds,html.Screen,1_3_1_0,2022-05-09T11:04:42.279Z,,,,,,,,,,,,,,,,,,,,,,,,,,,,,,,4250.165000000008,,timeout,,,,,,,,,2,,,,,,,,I,S,O,,101802.39999997616,101801.168,97551.007,97554.29999995232,97567.669,101817.834,,,
Judgement,html.Screen,1_3_1_1,2022-05-09T11:04:43.326Z,,,,,,,,,,,,,,,,,,,,,,,,,,,,true,2,,1030.26599990463,,response,,,,,,,,,2,,2,click #choice-2,,,,,I,S,O,,102849.5,102848.09999990463,101801.168,101802.69999992847,101817.834,102851.222,,,
Trial,flow.Sequence,1_3_1,2022-05-09T11:04:43.327Z,,,,,,,,,,,,,,,,,,,,,,,,,,,,,,,5280.430999904638,,completion,,,,,,,,,2,,,,,,,,I,S,O,,102849.89999997616,102848.09999990463,97551.007,97554.29999995232,97567.669,102851.222,,,
Sounds,html.Screen,1_3_2_0,2022-05-09T11:04:47.563Z,,,,,,,,,,,,,,,,,,,,,,,,,,,,,,,4250.145000000004,,timeout,,,,,,,,,2,,,,,,,,O,S,I,,107085.69999992847,107084.698,102834.541,102850.29999995232,102851.222,107101.367,,,
Judgement,html.Screen,1_3_2_1,2022-05-09T11:04:48.487Z,,,,,,,,,,,,,,,,,,,,,,,,,,,,true,2,,906.6330000000016,,response,,,,,,,,,2,,2,click #choice-2,,,,,O,S,I,,108009.59999990463,108008,107084.698,107086,107101.367,108018.053,,,
Trial,flow.Sequence,1_3_2,2022-05-09T11:04:48.487Z,,,,,,,,,,,,,,,,,,,,,,,,,,,,,,,5156.778000000006,,completion,,,,,,,,,2,,,,,,,,O,S,I,,108010.19999992847,108008,102834.541,102850.09999990463,102851.222,108018.053,,,
Sounds,html.Screen,1_3_3_0,2022-05-09T11:04:52.730Z,,,,,,,,,,,,,,,,,,,,,,,,,,,,,,,4250.183999999994,,timeout,,,,,,,,,3,,,,,,,,I,O,S,,112252.79999995232,112251.56,108001.396,108010.5,108018.053,112268.237,,,
Judgement,html.Screen,1_3_3_1,2022-05-09T11:04:53.314Z,,,,,,,,,,,,,,,,,,,,,,,,,,,,true,3,,567.7630000000063,,response,,,,,,,,,3,,3,click #choice-3,,,,,I,O,S,,112837.29999995232,112836,112251.56,112253,112268.237,112851.578,,,
Trial,flow.Sequence,1_3_3,2022-05-09T11:04:53.315Z,,,,,,,,,,,,,,,,,,,,,,,,,,,,,,,4817.947,,completion,,,,,,,,,3,,,,,,,,I,O,S,,112837.59999990463,112836,108001.396,108010.39999997616,108018.053,112851.578,,,
Sounds,html.Screen,1_3_4_0,2022-05-09T11:04:57.563Z,,,,,,,,,,,,,,,,,,,,,,,,,,,,,,,4250.161000000007,,timeout,,,,,,,,,3,,,,,,,,O,I,S,,117086.09999990463,117085.145,112834.928,112838,112851.578,117101.739,,,
Judgement,html.Screen,1_3_4_1,2022-05-09T11:04:58.322Z,,,,,,,,,,,,,,,,,,,,,,,,,,,,true,3,,742.1609999761567,,response,,,,,,,,,3,,3,click #choice-3,,,,,O,I,S,,117845.19999992847,117843.89999997616,117085.145,117086.29999995232,117101.739,117851.766,,,
Trial,flow.Sequence,1_3_4,2022-05-09T11:04:58.323Z,,,,,,,,,,,,,,,,,,,,,,,,,,,,,,,4992.321999976164,,completion,,,,,,,,,3,,,,,,,,O,I,S,,117845.59999990463,117843.89999997616,112834.928,112837.89999997616,112851.578,117851.766,,,
Sounds,html.Screen,1_3_5_0,2022-05-09T11:05:02.563Z,,,,,,,,,,,,,,,,,,,,,,,,,,,,,,,4250.1600000000035,,timeout,,,,,,,,,1,,,,,,,,S,I,O,,122086.29999995232,122085.26,117835.098,117846,117851.766,122101.926,,,
Judgement,html.Screen,1_3_5_1,2022-05-09T11:05:03.343Z,,,,,,,,,,,,,,,,,,,,,,,,,,,,true,1,,761.9739999761514,,response,,,,,,,,,1,,1,click #choice-1,,,,,S,I,O,,122865.5,122863.89999997616,122085.26,122086.5,122101.926,122885.292,,,
Trial,flow.Sequence,1_3_5,2022-05-09T11:05:03.343Z,,,,,,,,,,,,,,,,,,,,,,,,,,,,,,,5012.133999976155,,completion,,,,,,,,,1,,,,,,,,S,I,O,,122865.89999997616,122863.89999997616,117835.098,117845.89999997616,117851.766,122885.292,,,
Task,flow.Loop,1_3,2022-05-09T11:05:03.355Z,,,,,,,,,,,,,,,,,,,,,,,,,,,,,,,31496.451999976154,,completion,,,1,,,,,,,,,,,,,,,,,,122877.5,122863.89999997616,91350.776,91357.59999990463,91367.448,122885.292,,,
Trap,html.Screen,1_4,2022-05-09T11:05:03.357Z,,,,,,,,,,,,,,,,,,,,,,,,,,,,,,,NaN,,skipped,,,,,,,,,,,,,,,,,,,,,122880.19999992847,122863.89999997616,,122879.79999995232,,122885.292,,,
Thanks,html.Screen,1_5,2022-05-09T11:05:16.246Z,,,,,,,,,,,,,,,,,,,,,,,,,,,,,,,12882.707999999999,,response,,,,,,,,,,,continue,click button,,,,,,,,,135769.39999997616,135768,122851.969,122880.39999997616,122885.292,138486.045,,,
Headphone screening,flow.Sequence,1,2022-05-09T11:05:16.247Z,,,,,,,,,,,,,,,,,,,,,,,,,,,,,,,89602.237,,completion,,,,,,,,,,,,,,,,,,,,,135769.79999995232,135768,46115.771,46131.199999928474,46165.763,138486.045,,,
Instructions,html.Page,2_0,2022-05-09T11:05:49.171Z,,,,,,,,,,,,,,,,,,,,,,,,,,,,,,,30207.454999999987,,form submission,,,,,,,,,,,,,,,,,,,,,168694.19999992847,168693.5,138469.239,138478.69999992847,138486.045,168703.687,,,
Holding screen,html.Screen,2_1_0_0,2022-05-09T11:05:59.165Z,,,,,,,,,,,,,,,,,,,,,,,,,,,,,,,10017.024000000005,,timeout,,,,,,,,,,,,,,,,,,,,,178688,178687.348,168686.99,168694.59999990463,168703.687,178720.711,,,
screen,html.Screen,2_1_0_1_0,2022-05-09T11:06:00.424Z,,,,,,,,,,,,,,,,,53,,,,,,,,,,,,,,1221.7889999999898,,response,,,,99,,,,,,,Space,keypress(Space),,,,,,,,When -- ----- -- ------ - ------- --- ----------<br>------------- ------ ------ ---- ---- ------- ----- -- ----<br>-------- ------- -- ---------- --- - --- ----- ----- ----<br>---- --- --- ----- --- ---- ---- ------- ----- ---- -------<br>--- --- -- ----- -- --- ---- -- --- ---- -- ------ ------<br>--- ----- -- ----,179946.59999990463,179942.5,178687.348,178688.39999997616,178720.711,179954.107,,0,When
screen,html.Screen,2_1_0_1_1,2022-05-09T11:06:00.857Z,,,,,,,,,,,,,,,,,53,,,,,,,,,,,,,,424.9929999046435,,response,,,,99,,,,,,,Space,keypress(Space),,,,,,,,---- it ----- -- ------ - ------- --- ----------<br>------------- ------ ------ ---- ---- ------- ----- -- ----<br>-------- ------- -- ---------- --- - --- ----- ----- ----<br>---- --- --- ----- --- ---- ---- ------- ----- ---- -------<br>--- --- -- ----- -- --- ---- -- --- ---- -- ------ ------<br>--- ----- -- ----,180380,180379.09999990463,179937.394,179946.89999997616,179954.107,180387.451,,1,it
screen,html.Screen,2_1_0_1_2,2022-05-09T11:06:01.225Z,,,,,,,,,,,,,,,,,53,,,,,,,,,,,,,,359.54899999999907,,response,,,,99,,,,,,,Space,keypress(Space),,,,,,,,---- -- comes -- ------ - ------- --- ----------<br>------------- ------ ------ ---- ---- ------- ----- -- ----<br>-------- ------- -- ---------- --- - --- ----- ----- ----<br>---- --- --- ----- --- ---- ---- ------- ----- ---- -------<br>--- --- -- ----- -- --- ---- -- --- ---- -- ------ ------<br>--- ----- -- ----,180747.79999995232,180747,180370.776,180380.19999992847,180387.451,180754.117,,2,comes
screen,html.Screen,2_1_0_1_3,2022-05-09T11:06:01.614Z,,,,,,,,,,,,,,,,,53,,,,,,,,,,,,,,382.08299992847606,,response,,,,99,,,,,,,Space,keypress(Space),,,,,,,,---- -- ----- to ------ - ------- --- ----------<br>------------- ------ ------ ---- ---- ------- ----- -- ----<br>-------- ------- -- ---------- --- - --- ----- ----- ----<br>---- --- --- ----- --- ---- ---- ------- ----- ---- -------<br>--- --- -- ----- -- --- ---- -- --- ---- -- ------ ------<br>--- ----- -- ----,181137.19999992847,181136.19999992847,180737.455,180748.19999992847,180754.117,181154.137,,3,to
screen,html.Screen,2_1_0_1_4,2022-05-09T11:06:01.937Z,,,,,,,,,,,,,,,,,53,,,,,,,,,,,,,,304.76299997617025,,response,,,,99,,,,,,,Space,keypress(Space),,,,,,,,---- -- ----- -- having - ------- --- ----------<br>------------- ------ ------ ---- ---- ------- ----- -- ----<br>-------- ------- -- ---------- --- - --- ----- ----- ----<br>---- --- --- ----- --- ---- ---- ------- ----- ---- -------<br>--- --- -- ----- -- --- ---- -- --- ---- -- ------ ------<br>--- ----- -- ----,181459.59999990463,181458.89999997616,181137.471,181137.5,181154.137,181470.805,,4,having
screen,html.Screen,2_1_0_1_5,2022-05-09T11:06:02.300Z,,,,,,,,,,,,,,,,,53,,,,,,,,,,,,,,351.49499995232327,,response,,,,99,,,,,,,Space,keypress(Space),,,,,,,,---- -- ----- -- ------ a ------- --- ----------<br>------------- ------ ------ ---- ---- ------- ----- -- ----<br>-------- ------- -- ---------- --- - --- ----- ----- ----<br>---- --- --- ----- --- ---- ---- ------- ----- ---- -------<br>--- --- -- ----- -- --- ---- -- --- ---- -- ------ ------<br>--- ----- -- ----,181823.09999990463,181822.29999995232,181454.139,181459.89999997616,181470.805,181837.525,,5,a
screen,html.Screen,2_1_0_1_6,2022-05-09T11:06:02.613Z,,,,,,,,,,,,,,,,,53,,,,,,,,,,,,,,297.87499997616396,,response,,,,99,,,,,,,Space,keypress(Space),,,,,,,,---- -- ----- -- ------ - lasting --- ----------<br>------------- ------ ------ ---- ---- ------- ----- -- ----<br>-------- ------- -- ---------- --- - --- ----- ----- ----<br>---- --- --- ----- --- ---- ---- ------- ----- ---- -------<br>--- --- -- ----- -- --- ---- -- --- ---- -- ------ ------<br>--- ----- -- ----,182136.39999997616,182135.39999997616,181820.795,181823.39999997616,181837.525,182159.754,,6,lasting
screen,html.Screen,2_1_0_1_7,2022-05-09T11:06:02.983Z,,,,,,,,,,,,,,,,,53,,,,,,,,,,,,,,345.3459999046463,,response,,,,99,,,,,,,Space,keypress(Space),,,,,,,,---- -- ----- -- ------ - ------- and ----------<br>------------- ------ ------ ---- ---- ------- ----- -- ----<br>-------- ------- -- ---------- --- - --- ----- ----- ----<br>---- --- --- ----- --- ---- ---- ------- ----- ---- -------<br>--- --- -- ----- -- --- ---- -- --- ---- -- ------ ------<br>--- ----- -- ----,182505.89999997616,182505.09999990463,182120.848,182136.59999990463,182159.754,182520.85,,7,and
screen,html.Screen,2_1_0_1_8,2022-05-09T11:06:03.342Z,,,,,,,,,,,,,,,,,53,,,,,,,,,,,,,,343.44999995231046,,response,,,,99,,,,,,,Space,keypress(Space),,,,,,,,---- -- ----- -- ------ - ------- --- fulfilling<br>------------- ------ ------ ---- ---- ------- ----- -- ----<br>-------- ------- -- ---------- --- - --- ----- ----- ----<br>---- --- --- ----- --- ---- ---- ------- ----- ---- -------<br>--- --- -- ----- -- --- ---- -- --- ---- -- ------ ------<br>--- ----- -- ----,182865.39999997616,182864.29999995232,182504.175,182506.09999990463,182520.85,182870.866,,8,fulfilling
screen,html.Screen,2_1_0_1_9,2022-05-09T11:06:03.740Z,,,,,,,,,,,,,,,,,53,,,,,,,,,,,,,,391.7339999046235,,response,,,,99,,,,,,,Space,keypress(Space),,,,,,,,"---- -- ----- -- ------ - ------- --- ----------<br>relationship, ------ ------ ---- ---- ------- ----- -- ----<br>-------- ------- -- ---------- --- - --- ----- ----- ----<br>---- --- --- ----- --- ---- ---- ------- ----- ---- -------<br>--- --- -- ----- -- --- ---- -- --- ---- -- ------ ------<br>--- ----- -- ----",183263.59999990463,183262.59999990463,182854.185,182865.59999990463,182870.866,183270.866,,9,"relationship,"
screen,html.Screen,2_1_0_1_10,2022-05-09T11:06:04.117Z,,,,,,,,,,,,,,,,,53,,,,,,,,,,,,,,368.2339999046235,,response,,,,99,,,,,,,Space,keypress(Space),,,,,,,,---- -- ----- -- ------ - ------- --- ----------<br>------------- common ------ ---- ---- ------- ----- -- ----<br>-------- ------- -- ---------- --- - --- ----- ----- ----<br>---- --- --- ----- --- ---- ---- ------- ----- ---- -------<br>--- --- -- ----- -- --- ---- -- --- ---- -- ------ ------<br>--- ----- -- ----,183639.89999997616,183639.09999990463,183254.191,183263.69999992847,183270.866,183654.224,,10,common
screen,html.Screen,2_1_0_1_11,2022-05-09T11:06:04.444Z,,,,,,,,,,,,,,,,,53,,,,,,,,,,,,,,311.975999928487,,response,,,,99,,,,,,,Space,keypress(Space),,,,,,,,---- -- ----- -- ------ - ------- --- ----------<br>------------- ------ wisdom ---- ---- ------- ----- -- ----<br>-------- ------- -- ---------- --- - --- ----- ----- ----<br>---- --- --- ----- --- ---- ---- ------- ----- ---- -------<br>--- --- -- ----- -- --- ---- -- --- ---- -- ------ ------<br>--- ----- -- ----,183967,183966.19999992847,183637.545,183640.19999992847,183654.224,183970.889,,11,wisdom
screen,html.Screen,2_1_0_1_12,2022-05-09T11:06:04.776Z,,,,,,,,,,,,,,,,,53,,,,,,,,,,,,,,327.81099992847885,,response,,,,99,,,,,,,Space,keypress(Space),,,,,,,,---- -- ----- -- ------ - ------- --- ----------<br>------------- ------ ------ says ---- ------- ----- -- ----<br>-------- ------- -- ---------- --- - --- ----- ----- ----<br>---- --- --- ----- --- ---- ---- ------- ----- ---- -------<br>--- --- -- ----- -- --- ---- -- --- ---- -- ------ ------<br>--- ----- -- ----,184299.5,184298.69999992847,183954.221,183967.29999995232,183970.889,184304.255,,12,says
screen,html.Screen,2_1_0_1_13,2022-05-09T11:06:05.111Z,,,,,,,,,,,,,,,,,53,,,,,,,,,,,,,,328.5449999523116,,response,,,,99,,,,,,,Space,keypress(Space),,,,,,,,---- -- ----- -- ------ - ------- --- ----------<br>------------- ------ ------ ---- that ------- ----- -- ----<br>-------- ------- -- ---------- --- - --- ----- ----- ----<br>---- --- --- ----- --- ---- ---- ------- ----- ---- -------<br>--- --- -- ----- -- --- ---- -- --- ---- -- ------ ------<br>--- ----- -- ----,184633.5,184632.79999995232,184287.563,184299.79999995232,184304.255,184637.602,,13,that
screen,html.Screen,2_1_0_1_14,2022-05-09T11:06:05.426Z,,,,,,,,,,,,,,,,,53,,,,,,,,,,,,,,310.5979999284609,,response,,,,99,,,,,,,Space,keypress(Space),,,,,,,,---- -- ----- -- ------ - ------- --- ----------<br>------------- ------ ------ ---- ---- feeling ----- -- ----<br>-------- ------- -- ---------- --- - --- ----- ----- ----<br>---- --- --- ----- --- ---- ---- ------- ----- ---- -------<br>--- --- -- ----- -- --- ---- -- --- ---- -- ------ ------<br>--- ----- -- ----,184949.09999990463,184948.19999992847,184620.924,184633.79999995232,184637.602,184954.275,,14,feeling
screen,html.Screen,2_1_0_1_15,2022-05-09T11:06:05.760Z,,,,,,,,,,,,,,,,,53,,,,,,,,,,,,,,327.7250000000058,,response,,,,99,,,,,,,Space,keypress(Space),,,,,,,,---- -- ----- -- ------ - ------- --- ----------<br>------------- ------ ------ ---- ---- ------- close -- ----<br>-------- ------- -- ---------- --- - --- ----- ----- ----<br>---- --- --- ----- --- ---- ---- ------- ----- ---- -------<br>--- --- -- ----- -- --- ---- -- --- ---- -- ------ ------<br>--- ----- -- ----,185282.79999995232,185282,184937.596,184949.19999992847,184954.275,185287.619,,15,close
screen,html.Screen,2_1_0_1_16,2022-05-09T11:06:06.142Z,,,,,,,,,,,,,,,,,53,,,,,,,,,,,,,,376.68099995231023,,response,,,,99,,,,,,,Space,keypress(Space),,,,,,,,---- -- ----- -- ------ - ------- --- ----------<br>------------- ------ ------ ---- ---- ------- ----- to ----<br>-------- ------- -- ---------- --- - --- ----- ----- ----<br>---- --- --- ----- --- ---- ---- ------- ----- ---- -------<br>--- --- -- ----- -- --- ---- -- --- ---- -- ------ ------<br>--- ----- -- ----,185665,185664.29999995232,185270.938,185283,185287.619,185670.969,,16,to
screen,html.Screen,2_1_0_1_17,2022-05-09T11:06:06.494Z,,,,,,,,,,,,,,,,,53,,,,,,,,,,,,,,345.23099992846255,,response,,,,99,,,,,,,Space,keypress(Space),,,,,,,,---- -- ----- -- ------ - ------- --- ----------<br>------------- ------ ------ ---- ---- ------- ----- -- your<br>-------- ------- -- ---------- --- - --- ----- ----- ----<br>---- --- --- ----- --- ---- ---- ------- ----- ---- -------<br>--- --- -- ----- -- --- ---- -- --- ---- -- ------ ------<br>--- ----- -- ----,186017,186016.19999992847,185654.292,185665.19999992847,185670.969,186020.983,,17,your
screen,html.Screen,2_1_0_1_18,2022-05-09T11:06:06.881Z,,,,,,,,,,,,,,,,,53,,,,,,,,,,,,,,382.01699999999255,,response,,,,99,,,,,,,Space,keypress(Space),,,,,,,,---- -- ----- -- ------ - ------- --- ----------<br>------------- ------ ------ ---- ---- ------- ----- -- ----<br>romantic ------- -- ---------- --- - --- ----- ----- ----<br>---- --- --- ----- --- ---- ---- ------- ----- ---- -------<br>--- --- -- ----- -- --- ---- -- --- ---- -- ------ ------<br>--- ----- -- ----,186403.89999997616,186403,186004.298,186017.19999992847,186020.983,186420.987,,18,romantic
screen,html.Screen,2_1_0_1_19,2022-05-09T11:06:07.237Z,,,,,,,,,,,,,,,,,53,,,,,,,,,,,,,,338.7129999284807,,response,,,,99,,,,,,,Space,keypress(Space),,,,,,,,---- -- ----- -- ------ - ------- --- ----------<br>------------- ------ ------ ---- ---- ------- ----- -- ----<br>-------- partner -- ---------- --- - --- ----- ----- ----<br>---- --- --- ----- --- ---- ---- ------- ----- ---- -------<br>--- --- -- ----- -- --- ---- -- --- ---- -- ------ ------<br>--- ----- -- ----,186760.5,186759.69999992847,186404.313,186404,186420.987,186770.999,,19,partner
screen,html.Screen,2_1_0_1_20,2022-05-09T11:06:07.643Z,,,,,,,,,,,,,,,,,53,,,,,,,,,,,,,,393.7009999284637,,response,,,,99,,,,,,,Space,keypress(Space),,,,,,,,---- -- ----- -- ------ - ------- --- ----------<br>------------- ------ ------ ---- ---- ------- ----- -- ----<br>-------- ------- is ---------- --- - --- ----- ----- ----<br>---- --- --- ----- --- ---- ---- ------- ----- ---- -------<br>--- --- -- ----- -- --- ---- -- --- ---- -- ------ ------<br>--- ----- -- ----,187165.5,187164.69999992847,186754.321,186760.69999992847,186770.999,187171.023,,20,is
screen,html.Screen,2_1_0_1_21,2022-05-09T11:06:07.963Z,,,,,,,,,,,,,,,,,53,,,,,,,,,,,,,,314.67699992848793,,response,,,,99,,,,,,,Space,keypress(Space),,,,,,,,---- -- ----- -- ------ - ------- --- ----------<br>------------- ------ ------ ---- ---- ------- ----- -- ----<br>-------- ------- -- paramount. --- - --- ----- ----- ----<br>---- --- --- ----- --- ---- ---- ------- ----- ---- -------<br>--- --- -- ----- -- --- ---- -- --- ---- -- ------ ------<br>--- ----- -- ----,187486.5,187485.69999992847,187154.344,187165.69999992847,187171.023,187508.4,,21,paramount.
screen,html.Screen,2_1_0_1_22,2022-05-09T11:06:08.426Z,,,,,,,,,,,,,,,,,53,,,,,,,,,,,,,,439.79999992848025,,response,,,,99,,,,,,,Space,keypress(Space),,,,,,,,---- -- ----- -- ------ - ------- --- ----------<br>------------- ------ ------ ---- ---- ------- ----- -- ----<br>-------- ------- -- ---------- But - --- ----- ----- ----<br>---- --- --- ----- --- ---- ---- ------- ----- ---- -------<br>--- --- -- ----- -- --- ---- -- --- ---- -- ------ ------<br>--- ----- -- ----,187949.19999992847,187948.19999992847,187471.025,187486.69999992847,187508.4,187954.396,,22,But
screen,html.Screen,2_1_0_1_23,2022-05-09T11:06:08.713Z,,,,,,,,,,,,,,,,,53,,,,,,,,,,,,,,280.3039999284665,,response,,,,99,,,,,,,Space,keypress(Space),,,,,,,,---- -- ----- -- ------ - ------- --- ----------<br>------------- ------ ------ ---- ---- ------- ----- -- ----<br>-------- ------- -- ---------- --- a --- ----- ----- ----<br>---- --- --- ----- --- ---- ---- ------- ----- ---- -------<br>--- --- -- ----- -- --- ---- -- --- ---- -- ------ ------<br>--- ----- -- ----,188235.5,188234.69999992847,187937.69,187949.39999997616,187954.396,188237.724,,23,a
screen,html.Screen,2_1_0_1_24,2022-05-09T11:06:09.002Z,,,,,,,,,,,,,,,,,53,,,,,,,,,,,,,,286.7760000000126,,response,,,,99,,,,,,,Space,keypress(Space),,,,,,,,---- -- ----- -- ------ - ------- --- ----------<br>------------- ------ ------ ---- ---- ------- ----- -- ----<br>-------- ------- -- ---------- --- - new ----- ----- ----<br>---- --- --- ----- --- ---- ---- ------- ----- ---- -------<br>--- --- -- ----- -- --- ---- -- --- ---- -- ------ ------<br>--- ----- -- ----,188525.39999997616,188524.5,188221.046,188235.79999995232,188237.724,188537.755,,24,new
screen,html.Screen,2_1_0_1_25,2022-05-09T11:06:09.357Z,,,,,,,,,,,,,,,,,53,,,,,,,,,,,,,,341.6449999761535,,response,,,,99,,,,,,,Space,keypress(Space),,,,,,,,---- -- ----- -- ------ - ------- --- ----------<br>------------- ------ ------ ---- ---- ------- ----- -- ----<br>-------- ------- -- ---------- --- - --- study ----- ----<br>---- --- --- ----- --- ---- ---- ------- ----- ---- -------<br>--- --- -- ----- -- --- ---- -- --- ---- -- ------ ------<br>--- ----- -- ----,188880.19999992847,188879.39999997616,188521.06,188525.59999990463,188537.755,188887.743,,25,study
screen,html.Screen,2_1_0_1_26,2022-05-09T11:06:09.669Z,,,,,,,,,,,,,,,,,53,,,,,,,,,,,,,,303.45699992848677,,response,,,,99,,,,,,,Space,keypress(Space),,,,,,,,---- -- ----- -- ------ - ------- --- ----------<br>------------- ------ ------ ---- ---- ------- ----- -- ----<br>-------- ------- -- ---------- --- - --- ----- finds ----<br>---- --- --- ----- --- ---- ---- ------- ----- ---- -------<br>--- --- -- ----- -- --- ---- -- --- ---- -- ------ ------<br>--- ----- -- ----,189192,189191.19999992847,188871.078,188880.5,188887.743,189204.443,,26,finds
screen,html.Screen,2_1_0_1_27,2022-05-09T11:06:10.005Z,,,,,,,,,,,,,,,,,53,,,,,,,,,,,,,,322.45699997615884,,response,,,,99,,,,,,,Space,keypress(Space),,,,,,,,---- -- ----- -- ------ - ------- --- ----------<br>------------- ------ ------ ---- ---- ------- ----- -- ----<br>-------- ------- -- ---------- --- - --- ----- ----- that<br>---- --- --- ----- --- ---- ---- ------- ----- ---- -------<br>--- --- -- ----- -- --- ---- -- --- ---- -- ------ ------<br>--- ----- -- ----,189527.79999995232,189526.89999997616,189187.748,189192.19999992847,189204.443,189537.767,,27,that
screen,html.Screen,2_1_0_1_28,2022-05-09T11:06:10.353Z,,,,,,,,,,,,,,,,,53,,,,,,,,,,,,,,337.1329999761656,,response,,,,99,,,,,,,Space,keypress(Space),,,,,,,,---- -- ----- -- ------ - ------- --- ----------<br>------------- ------ ------ ---- ---- ------- ----- -- ----<br>-------- ------- -- ---------- --- - --- ----- ----- ----<br>it's --- --- ----- --- ---- ---- ------- ----- ---- -------<br>--- --- -- ----- -- --- ---- -- --- ---- -- ------ ------<br>--- ----- -- ----,189875.69999992847,189874.89999997616,189521.097,189528,189537.767,189887.796,,28,it's
screen,html.Screen,2_1_0_1_29,2022-05-09T11:06:10.652Z,,,,,,,,,,,,,,,,,53,,,,,,,,,,,,,,286.2039999999979,,response,,,,99,,,,,,,Space,keypress(Space),,,,,,,,---- -- ----- -- ------ - ------- --- ----------<br>------------- ------ ------ ---- ---- ------- ----- -- ----<br>-------- ------- -- ---------- --- - --- ----- ----- ----<br>---- not --- ----- --- ---- ---- ------- ----- ---- -------<br>--- --- -- ----- -- --- ---- -- --- ---- -- ------ ------<br>--- ----- -- ----,190174.79999995232,190174,189871.112,189875.89999997616,189887.796,190187.79,,29,not
screen,html.Screen,2_1_0_1_30,2022-05-09T11:06:10.960Z,,,,,,,,,,,,,,,,,53,,,,,,,,,,,,,,294.3099999046244,,response,,,,99,,,,,,,Space,keypress(Space),,,,,,,,---- -- ----- -- ------ - ------- --- ----------<br>------------- ------ ------ ---- ---- ------- ----- -- ----<br>-------- ------- -- ---------- --- - --- ----- ----- ----<br>---- --- how ----- --- ---- ---- ------- ----- ---- -------<br>--- --- -- ----- -- --- ---- -- --- ---- -- ------ ------<br>--- ----- -- ----,190482.89999997616,190482.09999990463,190171.127,190175,190187.79,190487.817,,30,how
screen,html.Screen,2_1_0_1_31,2022-05-09T11:06:11.260Z,,,,,,,,,,,,,,,,,53,,,,,,,,,,,,,,294.68299999999,,response,,,,99,,,,,,,Space,keypress(Space),,,,,,,,---- -- ----- -- ------ - ------- --- ----------<br>------------- ------ ------ ---- ---- ------- ----- -- ----<br>-------- ------- -- ---------- --- - --- ----- ----- ----<br>---- --- --- close --- ---- ---- ------- ----- ---- -------<br>--- --- -- ----- -- --- ---- -- --- ---- -- ------ ------<br>--- ----- -- ----,190783.5,190782.5,190471.126,190483.19999992847,190487.817,190787.823,,31,close
screen,html.Screen,2_1_0_1_32,2022-05-09T11:06:11.602Z,,,,,,,,,,,,,,,,,53,,,,,,,,,,,,,,336.7769999046286,,response,,,,99,,,,,,,Space,keypress(Space),,,,,,,,---- -- ----- -- ------ - ------- --- ----------<br>------------- ------ ------ ---- ---- ------- ----- -- ----<br>-------- ------- -- ---------- --- - --- ----- ----- ----<br>---- --- --- ----- you ---- ---- ------- ----- ---- -------<br>--- --- -- ----- -- --- ---- -- --- ---- -- ------ ------<br>--- ----- -- ----,191125.29999995232,191124.59999990463,190771.147,190783.69999992847,190787.823,191137.828,,32,you
screen,html.Screen,2_1_0_1_33,2022-05-09T11:06:11.897Z,,,,,,,,,,,,,,,,,53,,,,,,,,,,,,,,281.1719999999914,,response,,,,99,,,,,,,Space,keypress(Space),,,,,,,,---- -- ----- -- ------ - ------- --- ----------<br>------------- ------ ------ ---- ---- ------- ----- -- ----<br>-------- ------- -- ---------- --- - --- ----- ----- ----<br>---- --- --- ----- --- feel ---- ------- ----- ---- -------<br>--- --- -- ----- -- --- ---- -- --- ---- -- ------ ------<br>--- ----- -- ----,191419.79999995232,191419,191121.16,191125.59999990463,191137.828,191450.124,,33,feel
screen,html.Screen,2_1_0_1_34,2022-05-09T11:06:12.271Z,,,,,,,,,,,,,,,,,53,,,,,,,,,,,,,,343.0759999284637,,response,,,,99,,,,,,,Space,keypress(Space),,,,,,,,---- -- ----- -- ------ - ------- --- ----------<br>------------- ------ ------ ---- ---- ------- ----- -- ----<br>-------- ------- -- ---------- --- - --- ----- ----- ----<br>---- --- --- ----- --- ---- that ------- ----- ---- -------<br>--- --- -- ----- -- --- ---- -- --- ---- -- ------ ------<br>--- ----- -- ----,191794.09999990463,191793.19999992847,191404.519,191420,191450.124,191804.52,,34,that
screen,html.Screen,2_1_0_1_35,2022-05-09T11:06:12.567Z,,,,,,,,,,,,,,,,,53,,,,,,,,,,,,,,285.1799999284849,,response,,,,99,,,,,,,Space,keypress(Space),,,,,,,,---- -- ----- -- ------ - ------- --- ----------<br>------------- ------ ------ ---- ---- ------- ----- -- ----<br>-------- ------- -- ---------- --- - --- ----- ----- ----<br>---- --- --- ----- --- ---- ---- matters ----- ---- -------<br>--- --- -- ----- -- --- ---- -- --- ---- -- ------ ------<br>--- ----- -- ----,192090.5,192089.69999992847,191787.847,191794.29999995232,191804.52,192104.539,,35,matters
screen,html.Screen,2_1_0_1_36,2022-05-09T11:06:12.947Z,,,,,,,,,,,,,,,,,53,,,,,,,,,,,,,,364.26099995232653,,response,,,,99,,,,,,,Space,keypress(Space),,,,,,,,"---- -- ----- -- ------ - ------- --- ----------<br>------------- ------ ------ ---- ---- ------- ----- -- ----<br>-------- ------- -- ---------- --- - --- ----- ----- ----<br>---- --- --- ----- --- ---- ---- ------- most, ---- -------<br>--- --- -- ----- -- --- ---- -- --- ---- -- ------ ------<br>--- ----- -- ----",192469.59999990463,192468.79999995232,192087.85,192090.79999995232,192104.539,192503.048,,36,"most,"
screen,html.Screen,2_1_0_1_37,2022-05-09T11:06:13.336Z,,,,,,,,,,,,,,,,,53,,,,,,,,,,,,,,355.4519999999902,,response,,,,99,,,,,,,Space,keypress(Space),,,,,,,,---- -- ----- -- ------ - ------- --- ----------<br>------------- ------ ------ ---- ---- ------- ----- -- ----<br>-------- ------- -- ---------- --- - --- ----- ----- ----<br>---- --- --- ----- --- ---- ---- ------- ----- it's -------<br>--- --- -- ----- -- --- ---- -- --- ---- -- ------ ------<br>--- ----- -- ----,192859.29999995232,192858.5,192454.531,192469.79999995232,192503.048,192871.227,,37,it's
screen,html.Screen,2_1_0_1_38,2022-05-09T11:06:13.623Z,,,,,,,,,,,,,,,,,53,,,,,,,,,,,,,,273.87299990461906,,response,,,,99,,,,,,,Space,keypress(Space),,,,,,,,---- -- ----- -- ------ - ------- --- ----------<br>------------- ------ ------ ---- ---- ------- ----- -- ----<br>-------- ------- -- ---------- --- - --- ----- ----- ----<br>---- --- --- ----- --- ---- ---- ------- ----- ---- whether<br>--- --- -- ----- -- --- ---- -- --- ---- -- ------ ------<br>--- ----- -- ----,193145.79999995232,193145.09999990463,192854.547,192859.5,192871.227,193154.569,,38,whether
screen,html.Screen,2_1_0_1_39,2022-05-09T11:06:13.920Z,,,,,,,,,,,,,,,,,53,,,,,,,,,,,,,,287.530999904644,,response,,,,99,,,,,,,Space,keypress(Space),,,,,,,,---- -- ----- -- ------ - ------- --- ----------<br>------------- ------ ------ ---- ---- ------- ----- -- ----<br>-------- ------- -- ---------- --- - --- ----- ----- ----<br>---- --- --- ----- --- ---- ---- ------- ----- ---- -------<br>you --- -- ----- -- --- ---- -- --- ---- -- ------ ------<br>--- ----- -- ----,193443,193442.09999990463,193137.9,193146.09999990463,193154.569,193454.59,,39,you
screen,html.Screen,2_1_0_1_40,2022-05-09T11:06:14.210Z,,,,,,,,,,,,,,,,,53,,,,,,,,,,,,,,277.2099999523198,,response,,,,99,,,,,,,Space,keypress(Space),,,,,,,,---- -- ----- -- ------ - ------- --- ----------<br>------------- ------ ------ ---- ---- ------- ----- -- ----<br>-------- ------- -- ---------- --- - --- ----- ----- ----<br>---- --- --- ----- --- ---- ---- ------- ----- ---- -------<br>--- are -- ----- -- --- ---- -- --- ---- -- ------ ------<br>--- ----- -- ----,193732.69999992847,193731.79999995232,193437.936,193443.19999992847,193454.59,193737.931,,40,are
screen,html.Screen,2_1_0_1_41,2022-05-09T11:06:14.484Z,,,,,,,,,,,,,,,,,53,,,,,,,,,,,,,,268.0689999999886,,response,,,,99,,,,,,,Space,keypress(Space),,,,,,,,---- -- ----- -- ------ - ------- --- ----------<br>------------- ------ ------ ---- ---- ------- ----- -- ----<br>-------- ------- -- ---------- --- - --- ----- ----- ----<br>---- --- --- ----- --- ---- ---- ------- ----- ---- -------<br>--- --- as ----- -- --- ---- -- --- ---- -- ------ ------<br>--- ----- -- ----,194006.79999995232,194006,193721.253,193732.89999997616,193737.931,194021.273,,41,as
screen,html.Screen,2_1_0_1_42,2022-05-09T11:06:14.813Z,,,,,,,,,,,,,,,,,53,,,,,,,,,,,,,,313.62699997617165,,response,,,,99,,,,,,,Space,keypress(Space),,,,,,,,---- -- ----- -- ------ - ------- --- ----------<br>------------- ------ ------ ---- ---- ------- ----- -- ----<br>-------- ------- -- ---------- --- - --- ----- ----- ----<br>---- --- --- ----- --- ---- ---- ------- ----- ---- -------<br>--- --- -- close -- --- ---- -- --- ---- -- ------ ------<br>--- ----- -- ----,194335.69999992847,194334.89999997616,194004.599,194007,194021.273,194337.963,,42,close
screen,html.Screen,2_1_0_1_43,2022-05-09T11:06:15.141Z,,,,,,,,,,,,,,,,,53,,,,,,,,,,,,,,325.33699995232746,,response,,,,99,,,,,,,Space,keypress(Space),,,,,,,,---- -- ----- -- ------ - ------- --- ----------<br>------------- ------ ------ ---- ---- ------- ----- -- ----<br>-------- ------- -- ---------- --- - --- ----- ----- ----<br>---- --- --- ----- --- ---- ---- ------- ----- ---- -------<br>--- --- -- ----- as --- ---- -- --- ---- -- ------ ------<br>--- ----- -- ----,194664.19999992847,194663.29999995232,194321.278,194336,194337.963,194671.289,,43,as
screen,html.Screen,2_1_0_1_44,2022-05-09T11:06:15.462Z,,,,,,,,,,,,,,,,,53,,,,,,,,,,,,,,313.3109999046428,,response,,,,99,,,,,,,Space,keypress(Space),,,,,,,,---- -- ----- -- ------ - ------- --- ----------<br>------------- ------ ------ ---- ---- ------- ----- -- ----<br>-------- ------- -- ---------- --- - --- ----- ----- ----<br>---- --- --- ----- --- ---- ---- ------- ----- ---- -------<br>--- --- -- ----- -- you ---- -- --- ---- -- ------ ------<br>--- ----- -- ----,194985.5,194984.59999990463,194654.621,194664.29999995232,194671.289,194987.97,,44,you
screen,html.Screen,2_1_0_1_45,2022-05-09T11:06:15.827Z,,,,,,,,,,,,,,,,,53,,,,,,,,,,,,,,360.72999992847326,,response,,,,99,,,,,,,Space,keypress(Space),,,,,,,,---- -- ----- -- ------ - ------- --- ----------<br>------------- ------ ------ ---- ---- ------- ----- -- ----<br>-------- ------- -- ---------- --- - --- ----- ----- ----<br>---- --- --- ----- --- ---- ---- ------- ----- ---- -------<br>--- --- -- ----- -- --- want -- --- ---- -- ------ ------<br>--- ----- -- ----,195349.79999995232,195348.69999992847,194971.306,194985.69999992847,194987.97,195354.658,,45,want
screen,html.Screen,2_1_0_1_46,2022-05-09T11:06:16.204Z,,,,,,,,,,,,,,,,,53,,,,,,,,,,,,,,371.8420000000042,,response,,,,99,,,,,,,Space,keypress(Space),,,,,,,,---- -- ----- -- ------ - ------- --- ----------<br>------------- ------ ------ ---- ---- ------- ----- -- ----<br>-------- ------- -- ---------- --- - --- ----- ----- ----<br>---- --- --- ----- --- ---- ---- ------- ----- ---- -------<br>--- --- -- ----- -- --- ---- to --- ---- -- ------ ------<br>--- ----- -- ----,195727.29999995232,195726.5,195337.983,195350.09999990463,195354.658,195738.01,,46,to
screen,html.Screen,2_1_0_1_47,2022-05-09T11:06:16.561Z,,,,,,,,,,,,,,,,,53,,,,,,,,,,,,,,345.1899999284651,,response,,,,99,,,,,,,Space,keypress(Space),,,,,,,,"---- -- ----- -- ------ - ------- --- ----------<br>------------- ------ ------ ---- ---- ------- ----- -- ----<br>-------- ------- -- ---------- --- - --- ----- ----- ----<br>---- --- --- ----- --- ---- ---- ------- ----- ---- -------<br>--- --- -- ----- -- --- ---- -- be, ---- -- ------ ------<br>--- ----- -- ----",196084.09999990463,196083.19999992847,195721.324,195727.5,195738.01,196088.019,,47,"be,"
screen,html.Screen,2_1_0_1_48,2022-05-09T11:06:16.930Z,,,,,,,,,,,,,,,,,53,,,,,,,,,,,,,,363.78099995231605,,response,,,,99,,,,,,,Space,keypress(Space),,,,,,,,---- -- ----- -- ------ - ------- --- ----------<br>------------- ------ ------ ---- ---- ------- ----- -- ----<br>-------- ------- -- ---------- --- - --- ----- ----- ----<br>---- --- --- ----- --- ---- ---- ------- ----- ---- -------<br>--- --- -- ----- -- --- ---- -- --- even -- ------ ------<br>--- ----- -- ----,196452.59999990463,196451.79999995232,196071.334,196084.39999997616,196088.019,196454.71,,48,even
screen,html.Screen,2_1_0_1_49,2022-05-09T11:06:17.249Z,,,,,,,,,,,,,,,,,53,,,,,,,,,,,,,,316.3899999046407,,response,,,,99,,,,,,,Space,keypress(Space),,,,,,,,---- -- ----- -- ------ - ------- --- ----------<br>------------- ------ ------ ---- ---- ------- ----- -- ----<br>-------- ------- -- ---------- --- - --- ----- ----- ----<br>---- --- --- ----- --- ---- ---- ------- ----- ---- -------<br>--- --- -- ----- -- --- ---- -- --- ---- if ------ ------<br>--- ----- -- ----,196772,196771.09999990463,196438.024,196452.89999997616,196454.71,196788.039,,49,if
screen,html.Screen,2_1_0_1_50,2022-05-09T11:06:17.573Z,,,,,,,,,,,,,,,,,53,,,,,,,,,,,,,,306.96100000001024,,response,,,,99,,,,,,,Space,keypress(Space),,,,,,,,---- -- ----- -- ------ - ------- --- ----------<br>------------- ------ ------ ---- ---- ------- ----- -- ----<br>-------- ------- -- ---------- --- - --- ----- ----- ----<br>---- --- --- ----- --- ---- ---- ------- ----- ---- -------<br>--- --- -- ----- -- --- ---- -- --- ---- -- that's ------<br>--- ----- -- ----,197095.89999997616,197095,196771.362,196772.19999992847,196788.039,197104.713,,50,that's
screen,html.Screen,2_1_0_1_51,2022-05-09T11:06:18.013Z,,,,,,,,,,,,,,,,,53,,,,,,,,,,,,,,429.9869999284856,,response,,,,99,,,,,,,Space,keypress(Space),,,,,,,,---- -- ----- -- ------ - ------- --- ----------<br>------------- ------ ------ ---- ---- ------- ----- -- ----<br>-------- ------- -- ---------- --- - --- ----- ----- ----<br>---- --- --- ----- --- ---- ---- ------- ----- ---- -------<br>--- --- -- ----- -- --- ---- -- --- ---- -- ------ really<br>--- ----- -- ----,197535.59999990463,197534.69999992847,197088.049,197096.19999992847,197104.713,197538.075,,51,really
screen,html.Screen,2_1_0_1_52,2022-05-09T11:06:18.420Z,,,,,,,,,,,,,,,,,53,,,,,,,,,,,,,,404.22499995230464,,response,,,,99,,,,,,,Space,keypress(Space),,,,,,,,---- -- ----- -- ------ - ------- --- ----------<br>------------- ------ ------ ---- ---- ------- ----- -- ----<br>-------- ------- -- ---------- --- - --- ----- ----- ----<br>---- --- --- ----- --- ---- ---- ------- ----- ---- -------<br>--- --- -- ----- -- --- ---- -- --- ---- -- ------ ------<br>not ----- -- ----,197943.09999990463,197942.29999995232,197521.393,197535.89999997616,197538.075,197954.761,,52,not
screen,html.Screen,2_1_0_1_53,2022-05-09T11:06:18.790Z,,,,,,,,,,,,,,,,,53,,,,,,,,,,,,,,357.33899990463397,,response,,,,99,,,,,,,Space,keypress(Space),,,,,,,,---- -- ----- -- ------ - ------- --- ----------<br>------------- ------ ------ ---- ---- ------- ----- -- ----<br>-------- ------- -- ---------- --- - --- ----- ----- ----<br>---- --- --- ----- --- ---- ---- ------- ----- ---- -------<br>--- --- -- ----- -- --- ---- -- --- ---- -- ------ ------<br>--- close -- ----,198313,198312.09999990463,197938.081,197943.39999997616,197954.761,198321.429,,53,close
screen,html.Screen,2_1_0_1_54,2022-05-09T11:06:19.234Z,,,,,,,,,,,,,,,,,53,,,,,,,,,,,,,,435.0709999999963,,response,,,,99,,,,,,,Space,keypress(Space),,,,,,,,---- -- ----- -- ------ - ------- --- ----------<br>------------- ------ ------ ---- ---- ------- ----- -- ----<br>-------- ------- -- ---------- --- - --- ----- ----- ----<br>---- --- --- ----- --- ---- ---- ------- ----- ---- -------<br>--- --- -- ----- -- --- ---- -- --- ---- -- ------ ------<br>--- ----- at ----,198757.29999995232,198756.5,198304.744,198313.09999990463,198321.429,198771.446,,54,at
screen,html.Screen,2_1_0_1_55,2022-05-09T11:06:19.677Z,,,,,,,,,,,,,,,,,53,,,,,,,,,,,,,,427.75399992847815,,response,,,,99,,,,,,,Space,keypress(Space),,,,,,,,---- -- ----- -- ------ - ------- --- ----------<br>------------- ------ ------ ---- ---- ------- ----- -- ----<br>-------- ------- -- ---------- --- - --- ----- ----- ----<br>---- --- --- ----- --- ---- ---- ------- ----- ---- -------<br>--- --- -- ----- -- --- ---- -- --- ---- -- ------ ------<br>--- ----- -- all.,199200,199199.19999992847,198754.76,198757.59999990463,198771.446,199221.47,,55,all.
Item 99,flow.Loop,2_1_0_1,2022-05-09T11:06:19.677Z,,,,,,,,,,,,,,,,,,,,,,,,,,,,,,,20478.488999928464,,completion,,,,,C,,,,,,,,,,,silence,,,,,199200.5,199199.19999992847,178687.348,178688.29999995232,178720.711,199221.47,,,
Question 1,html.Screen,2_1_0_2,2022-05-09T11:06:24.210Z,,,,,,,,,,,,,,,,,,,,,,,,,,,,true,FALSE,,4510.229999928473,,response,,,,99,C,,,,,,FALSE,click #choice-2,,,,silence,,,,,203733,203731.69999992847,199188.116,199200.69999992847,199221.47,203738.333,,,
Question 2,html.Screen,2_1_0_3,2022-05-09T11:06:29.822Z,,,,,,,,,,,,,,,,,,,,,,,,,,,,true,TRUE,,5605.366999928461,,response,,,,99,C,,,,,,TRUE,click #choice-1,,,,silence,,,,,209345.09999990463,209343.69999992847,203721.639,203733.19999992847,203738.333,209355.186,,,
Item 99,flow.Sequence,2_1_0,2022-05-09T11:06:29.822Z,,,,,,,,,,,,,,,,,,,,,,,,,,,,,,,40640.01299992847,,completion,,,,,,,,,,,,,,,,,,,,,209345.39999997616,209343.69999992847,168686.99,168694.5,168703.687,209355.186,,,
Holding screen,html.Screen,2_1_1_0,2022-05-09T11:06:39.817Z,,,,,,,,,,,,,,,,,,,,,,,,,,,,,,,10000.359000000026,,timeout,,,,,,,,,,,,,,,,,,,,,219339.59999990463,219338.888,209338.512,209345.69999992847,209355.186,219355.545,,,
screen,html.Screen,2_1_1_1_0,2022-05-09T11:06:41.600Z,,,,,,,,,,,,,,,,,54,,,,,,,,,,,,,,1766.2549999523035,,response,,,,100,,,,,,,Space,keypress(Space),,,,,,,,At --- ---- --- ------ ----- ------- ---- -- --- ------- --<br>------- ---------- ------ -- ----- -- ----- -- ---- ------<br>--- ----- --- --- ------ -------- ----- --- ------ ----- --<br>----- ----- ---------- --- --- ------ ------ ---- -- ------<br>------- --- ------ ----- --- ---- ------- -- ---- --- --<br>------- ------,221122.89999997616,221121.79999995232,219338.888,219339.79999995232,219355.545,221155.619,,0,At
screen,html.Screen,2_1_1_1_1,2022-05-09T11:06:41.921Z,,,,,,,,,,,,,,,,,54,,,,,,,,,,,,,,287.2809999761521,,response,,,,100,,,,,,,Space,keypress(Space),,,,,,,,-- the ---- --- ------ ----- ------- ---- -- --- ------- --<br>------- ---------- ------ -- ----- -- ----- -- ---- ------<br>--- ----- --- --- ------ -------- ----- --- ------ ----- --<br>----- ----- ---------- --- --- ------ ------ ---- -- ------<br>------- --- ------ ----- --- ---- ------- -- ---- --- --<br>------- ------,221443.59999990463,221442.89999997616,221138.952,221123.09999990463,221155.619,221455.649,,1,the
screen,html.Screen,2_1_1_1_2,2022-05-09T11:06:42.169Z,,,,,,,,,,,,,,,,,54,,,,,,,,,,,,,,235.8509999999951,,response,,,,100,,,,,,,Space,keypress(Space),,,,,,,,-- --- time --- ------ ----- ------- ---- -- --- ------- --<br>------- ---------- ------ -- ----- -- ----- -- ---- ------<br>--- ----- --- --- ------ -------- ----- --- ------ ----- --<br>----- ----- ---------- --- --- ------ ------ ---- -- ------<br>------- --- ------ ----- --- ---- ------- -- ---- --- --<br>------- ------,221692.29999995232,221691.5,221438.965,221443.79999995232,221455.649,221705.659,,2,time
screen,html.Screen,2_1_1_1_3,2022-05-09T11:06:42.500Z,,,,,,,,,,,,,,,,,54,,,,,,,,,,,,,,316.8409999999858,,response,,,,100,,,,,,,Space,keypress(Space),,,,,,,,-- --- ---- the ------ ----- ------- ---- -- --- ------- --<br>------- ---------- ------ -- ----- -- ----- -- ---- ------<br>--- ----- --- --- ------ -------- ----- --- ------ ----- --<br>----- ----- ---------- --- --- ------ ------ ---- -- ------<br>------- --- ------ ----- --- ---- ------- -- ---- --- --<br>------- ------,222023.19999992847,222022.5,221688.967,221692.5,221705.659,222038.988,,3,the
screen,html.Screen,2_1_1_1_4,2022-05-09T11:06:42.751Z,,,,,,,,,,,,,,,,,54,,,,,,,,,,,,,,234.5119999999879,,response,,,,100,,,,,,,Space,keypress(Space),,,,,,,,-- --- ---- --- French ----- ------- ---- -- --- ------- --<br>------- ---------- ------ -- ----- -- ----- -- ---- ------<br>--- ----- --- --- ------ -------- ----- --- ------ ----- --<br>----- ----- ---------- --- --- ------ ------ ---- -- ------<br>------- --- ------ ----- --- ---- ------- -- ---- --- --<br>------- ------,222274.39999997616,222273.5,222022.307,222023.39999997616,222038.988,222288.992,,4,French
screen,html.Screen,2_1_1_1_5,2022-05-09T11:06:43.080Z,,,,,,,,,,,,,,,,,54,,,,,,,,,,,,,,313.20799992847606,,response,,,,100,,,,,,,Space,keypress(Space),,,,,,,,-- --- ---- --- ------ crown ------- ---- -- --- ------- --<br>------- ---------- ------ -- ----- -- ----- -- ---- ------<br>--- ----- --- --- ------ -------- ----- --- ------ ----- --<br>----- ----- ---------- --- --- ------ ------ ---- -- ------<br>------- --- ------ ----- --- ---- ------- -- ---- --- --<br>------- ------,222603,222602.19999992847,222272.31,222274.59999990463,222288.992,222605.681,,5,crown
screen,html.Screen,2_1_1_1_6,2022-05-09T11:06:43.369Z,,,,,,,,,,,,,,,,,54,,,,,,,,,,,,,,285.3189999999886,,response,,,,100,,,,,,,Space,keypress(Space),,,,,,,,-- --- ---- --- ------ ----- secured ---- -- --- ------- --<br>------- ---------- ------ -- ----- -- ----- -- ---- ------<br>--- ----- --- --- ------ -------- ----- --- ------ ----- --<br>----- ----- ---------- --- --- ------ ------ ---- -- ------<br>------- --- ------ ----- --- ---- ------- -- ---- --- --<br>------- ------,222891.79999995232,222891,222588.999,222603.19999992847,222605.681,222905.704,,6,secured
screen,html.Screen,2_1_1_1_7,2022-05-09T11:06:43.746Z,,,,,,,,,,,,,,,,,54,,,,,,,,,,,,,,362.4959999284765,,response,,,,100,,,,,,,Space,keypress(Space),,,,,,,,-- --- ---- --- ------ ----- ------- much -- --- ------- --<br>------- ---------- ------ -- ----- -- ----- -- ---- ------<br>--- ----- --- --- ------ -------- ----- --- ------ ----- --<br>----- ----- ---------- --- --- ------ ------ ---- -- ------<br>------- --- ------ ----- --- ---- ------- -- ---- --- --<br>------- ------,223269,223268.19999992847,222889.007,222892,222905.704,223272.373,,7,much
screen,html.Screen,2_1_1_1_8,2022-05-09T11:06:44.107Z,,,,,,,,,,,,,,,,,54,,,,,,,,,,,,,,357.1270000000077,,response,,,,100,,,,,,,Space,keypress(Space),,,,,,,,-- --- ---- --- ------ ----- ------- ---- of --- ------- --<br>------- ---------- ------ -- ----- -- ----- -- ---- ------<br>--- ----- --- --- ------ -------- ----- --- ------ ----- --<br>----- ----- ---------- --- --- ------ ------ ---- -- ------<br>------- --- ------ ----- --- ---- ------- -- ---- --- --<br>------- ------,223630.29999995232,223629.5,223255.696,223269.19999992847,223272.373,223639.039,,8,of
screen,html.Screen,2_1_1_1_9,2022-05-09T11:06:44.389Z,,,,,,,,,,,,,,,,,54,,,,,,,,,,,,,,272.66099992848467,,response,,,,100,,,,,,,Space,keypress(Space),,,,,,,,-- --- ---- --- ------ ----- ------- ---- -- its ------- --<br>------- ---------- ------ -- ----- -- ----- -- ---- ------<br>--- ----- --- --- ------ -------- ----- --- ------ ----- --<br>----- ----- ---------- --- --- ------ ------ ---- -- ------<br>------- --- ------ ----- --- ---- ------- -- ---- --- --<br>------- ------,223912.5,223911.69999992847,223622.37,223630.5,223639.039,223922.404,,9,its
screen,html.Screen,2_1_1_1_10,2022-05-09T11:06:44.747Z,,,,,,,,,,,,,,,,,54,,,,,,,,,,,,,,346.89599995230674,,response,,,,100,,,,,,,Space,keypress(Space),,,,,,,,-- --- ---- --- ------ ----- ------- ---- -- --- revenue --<br>------- ---------- ------ -- ----- -- ----- -- ---- ------<br>--- ----- --- --- ------ -------- ----- --- ------ ----- --<br>----- ----- ---------- --- --- ------ ------ ---- -- ------<br>------- --- ------ ----- --- ---- ------- -- ---- --- --<br>------- ------,224270.29999995232,224269.29999995232,223905.698,223912.69999992847,223922.404,224272.397,,10,revenue
screen,html.Screen,2_1_1_1_11,2022-05-09T11:06:45.165Z,,,,,,,,,,,,,,,,,54,,,,,,,,,,,,,,414.4029999523191,,response,,,,100,,,,,,,Space,keypress(Space),,,,,,,,-- --- ---- --- ------ ----- ------- ---- -- --- ------- by<br>------- ---------- ------ -- ----- -- ----- -- ---- ------<br>--- ----- --- --- ------ -------- ----- --- ------ ----- --<br>----- ----- ---------- --- --- ------ ------ ---- -- ------<br>------- --- ------ ----- --- ---- ------- -- ---- --- --<br>------- ------,224687.59999990463,224686.79999995232,224255.726,224270.5,224272.397,224713.956,,11,by
screen,html.Screen,2_1_1_1_12,2022-05-09T11:06:45.520Z,,,,,,,,,,,,,,,,,54,,,,,,,,,,,,,,328.5439999999944,,response,,,,100,,,,,,,Space,keypress(Space),,,,,,,,-- --- ---- --- ------ ----- ------- ---- -- --- ------- --<br>issuing ---------- ------ -- ----- -- ----- -- ---- ------<br>--- ----- --- --- ------ -------- ----- --- ------ ----- --<br>----- ----- ---------- --- --- ------ ------ ---- -- ------<br>------- --- ------ ----- --- ---- ------- -- ---- --- --<br>------- ------,225043.19999992847,225042.5,224672.408,224687.79999995232,224713.956,225055.771,,12,issuing
screen,html.Screen,2_1_1_1_13,2022-05-09T11:06:45.949Z,,,,,,,,,,,,,,,,,54,,,,,,,,,,,,,,415.7289999999921,,response,,,,100,,,,,,,Space,keypress(Space),,,,,,,,-- --- ---- --- ------ ----- ------- ---- -- --- ------- --<br>------- government ------ -- ----- -- ----- -- ---- ------<br>--- ----- --- --- ------ -------- ----- --- ------ ----- --<br>----- ----- ---------- --- --- ------ ------ ---- -- ------<br>------- --- ------ ----- --- ---- ------- -- ---- --- --<br>------- ------,225472.29999995232,225471.5,225039.093,225043.5,225055.771,225489.146,,13,government
screen,html.Screen,2_1_1_1_14,2022-05-09T11:06:46.337Z,,,,,,,,,,,,,,,,,54,,,,,,,,,,,,,,369.8539999999921,,response,,,,100,,,,,,,Space,keypress(Space),,,,,,,,-- --- ---- --- ------ ----- ------- ---- -- --- ------- --<br>------- ---------- bonds. -- ----- -- ----- -- ---- ------<br>--- ----- --- --- ------ -------- ----- --- ------ ----- --<br>----- ----- ---------- --- --- ------ ------ ---- -- ------<br>------- --- ------ ----- --- ---- ------- -- ---- --- --<br>------- ------,225859.89999997616,225859,225472.464,225472.59999990463,225489.146,225872.459,,14,bonds.
screen,html.Screen,2_1_1_1_15,2022-05-09T11:06:46.849Z,,,,,,,,,,,,,,,,,54,,,,,,,,,,,,,,498.74099992847187,,response,,,,100,,,,,,,Space,keypress(Space),,,,,,,,-- --- ---- --- ------ ----- ------- ---- -- --- ------- --<br>------- ---------- ------ In ----- -- ----- -- ---- ------<br>--- ----- --- --- ------ -------- ----- --- ------ ----- --<br>----- ----- ---------- --- --- ------ ------ ---- -- ------<br>------- --- ------ ----- --- ---- ------- -- ---- --- --<br>------- ------,226372.09999990463,226371.19999992847,225855.8,225860.09999990463,225872.459,226389.18,,15,In
screen,html.Screen,2_1_1_1_16,2022-05-09T11:06:47.060Z,,,,,,,,,,,,,,,,,54,,,,,,,,,,,,,,193.21999997616513,,response,,,,100,,,,,,,Space,keypress(Space),,,,,,,,"-- --- ---- --- ------ ----- ------- ---- -- --- ------- --<br>------- ---------- ------ -- 1727, -- ----- -- ---- ------<br>--- ----- --- --- ------ -------- ----- --- ------ ----- --<br>----- ----- ---------- --- --- ------ ------ ---- -- ------<br>------- --- ------ ----- --- ---- ------- -- ---- --- --<br>------- ------",226583.29999995232,226582.39999997616,226372.474,226372.29999995232,226389.18,226589.161,,16,"1727,"
screen,html.Screen,2_1_1_1_17,2022-05-09T11:06:47.800Z,,,,,,,,,,,,,,,,,54,,,,,,,,,,,,,,732.8390000000072,,response,,,,100,,,,,,,Space,keypress(Space),,,,,,,,-- --- ---- --- ------ ----- ------- ---- -- --- ------- --<br>------- ---------- ------ -- ----- in ----- -- ---- ------<br>--- ----- --- --- ------ -------- ----- --- ------ ----- --<br>----- ----- ---------- --- --- ------ ------ ---- -- ------<br>------- --- ------ ----- --- ---- ------- -- ---- --- --<br>------- ------,227322.89999997616,227322,226572.494,226583.59999990463,226589.161,227339.217,,17,in
screen,html.Screen,2_1_1_1_18,2022-05-09T11:06:48.122Z,,,,,,,,,,,,,,,,,54,,,,,,,,,,,,,,304.5829999523121,,response,,,,100,,,,,,,Space,keypress(Space),,,,,,,,-- --- ---- --- ------ ----- ------- ---- -- --- ------- --<br>------- ---------- ------ -- ----- -- order -- ---- ------<br>--- ----- --- --- ------ -------- ----- --- ------ ----- --<br>----- ----- ---------- --- --- ------ ------ ---- -- ------<br>------- --- ------ ----- --- ---- ------- -- ---- --- --<br>------- ------,227644.69999992847,227643.79999995232,227322.52,227323.09999990463,227339.217,227655.898,,18,order
screen,html.Screen,2_1_1_1_19,2022-05-09T11:06:48.386Z,,,,,,,,,,,,,,,,,54,,,,,,,,,,,,,,251.6020000000135,,response,,,,100,,,,,,,Space,keypress(Space),,,,,,,,-- --- ---- --- ------ ----- ------- ---- -- --- ------- --<br>------- ---------- ------ -- ----- -- ----- to ---- ------<br>--- ----- --- --- ------ -------- ----- --- ------ ----- --<br>----- ----- ---------- --- --- ------ ------ ---- -- ------<br>------- --- ------ ----- --- ---- ------- -- ---- --- --<br>------- ------,227908.69999992847,227907.5,227639.204,227645.09999990463,227655.898,227922.574,,19,to
screen,html.Screen,2_1_1_1_20,2022-05-09T11:06:48.626Z,,,,,,,,,,,,,,,,,54,,,,,,,,,,,,,,225.62599992848118,,response,,,,100,,,,,,,Space,keypress(Space),,,,,,,,-- --- ---- --- ------ ----- ------- ---- -- --- ------- --<br>------- ---------- ------ -- ----- -- ----- -- save ------<br>--- ----- --- --- ------ -------- ----- --- ------ ----- --<br>----- ----- ---------- --- --- ------ ------ ---- -- ------<br>------- --- ------ ----- --- ---- ------- -- ---- --- --<br>------- ------,228149.19999992847,228148.19999992847,227905.877,227908.89999997616,227922.574,228155.903,,20,save
screen,html.Screen,2_1_1_1_21,2022-05-09T11:06:48.992Z,,,,,,,,,,,,,,,,,54,,,,,,,,,,,,,,358.6969999046414,,response,,,,100,,,,,,,Space,keypress(Space),,,,,,,,"-- --- ---- --- ------ ----- ------- ---- -- --- ------- --<br>------- ---------- ------ -- ----- -- ----- -- ---- money,<br>--- ----- --- --- ------ -------- ----- --- ------ ----- --<br>----- ----- ---------- --- --- ------ ------ ---- -- ------<br>------- --- ------ ----- --- ---- ------- -- ---- --- --<br>------- ------",228515.5,228514.59999990463,228139.222,228149.39999997616,228155.903,228522.582,,21,"money,"
screen,html.Screen,2_1_1_1_22,2022-05-09T11:06:49.429Z,,,,,,,,,,,,,,,,,54,,,,,,,,,,,,,,428.4180000000051,,response,,,,100,,,,,,,Space,keypress(Space),,,,,,,,-- --- ---- --- ------ ----- ------- ---- -- --- ------- --<br>------- ---------- ------ -- ----- -- ----- -- ---- ------<br>the ----- --- --- ------ -------- ----- --- ------ ----- --<br>----- ----- ---------- --- --- ------ ------ ---- -- ------<br>------- --- ------ ----- --- ---- ------- -- ---- --- --<br>------- ------,228951.79999995232,228951,228505.897,228515.79999995232,228522.582,228955.917,,22,the
screen,html.Screen,2_1_1_1_23,2022-05-09T11:06:49.660Z,,,,,,,,,,,,,,,,,54,,,,,,,,,,,,,,226.58300000001327,,response,,,,100,,,,,,,Space,keypress(Space),,,,,,,,-- --- ---- --- ------ ----- ------- ---- -- --- ------- --<br>------- ---------- ------ -- ----- -- ----- -- ---- ------<br>--- state --- --- ------ -------- ----- --- ------ ----- --<br>----- ----- ---------- --- --- ------ ------ ---- -- ------<br>------- --- ------ ----- --- ---- ------- -- ---- --- --<br>------- ------,229183.39999997616,229182.5,228939.255,228952.09999990463,228955.917,229189.263,,23,state
screen,html.Screen,2_1_1_1_24,2022-05-09T11:06:49.873Z,,,,,,,,,,,,,,,,,54,,,,,,,,,,,,,,205.7369999999937,,response,,,,100,,,,,,,Space,keypress(Space),,,,,,,,-- --- ---- --- ------ ----- ------- ---- -- --- ------- --<br>------- ---------- ------ -- ----- -- ----- -- ---- ------<br>--- ----- cut --- ------ -------- ----- --- ------ ----- --<br>----- ----- ---------- --- --- ------ ------ ---- -- ------<br>------- --- ------ ----- --- ---- ------- -- ---- --- --<br>------- ------,229395.89999997616,229395,229172.594,229183.59999990463,229189.263,229405.962,,24,cut
screen,html.Screen,2_1_1_1_25,2022-05-09T11:06:50.075Z,,,,,,,,,,,,,,,,,54,,,,,,,,,,,,,,191.7379999284749,,response,,,,100,,,,,,,Space,keypress(Space),,,,,,,,-- --- ---- --- ------ ----- ------- ---- -- --- ------- --<br>------- ---------- ------ -- ----- -- ----- -- ---- ------<br>--- ----- --- the ------ -------- ----- --- ------ ----- --<br>----- ----- ---------- --- --- ------ ------ ---- -- ------<br>------- --- ------ ----- --- ---- ------- -- ---- --- --<br>------- ------,229598.39999997616,229597.69999992847,229389.28,229396.09999990463,229405.962,229605.955,,25,the
screen,html.Screen,2_1_1_1_26,2022-05-09T11:06:50.386Z,,,,,,,,,,,,,,,,,54,,,,,,,,,,,,,,302.0450000000128,,response,,,,100,,,,,,,Space,keypress(Space),,,,,,,,-- --- ---- --- ------ ----- ------- ---- -- --- ------- --<br>------- ---------- ------ -- ----- -- ----- -- ---- ------<br>--- ----- --- --- bonds' -------- ----- --- ------ ----- --<br>----- ----- ---------- --- --- ------ ------ ---- -- ------<br>------- --- ------ ----- --- ---- ------- -- ---- --- --<br>------- ------,229908.89999997616,229908,229589.272,229598.59999990463,229605.955,229922.614,,26,bonds'
screen,html.Screen,2_1_1_1_27,2022-05-09T11:06:50.741Z,,,,,,,,,,,,,,,,,54,,,,,,,,,,,,,,340.6859999523149,,response,,,,100,,,,,,,Space,keypress(Space),,,,,,,,-- --- ---- --- ------ ----- ------- ---- -- --- ------- --<br>------- ---------- ------ -- ----- -- ----- -- ---- ------<br>--- ----- --- --- ------ interest ----- --- ------ ----- --<br>----- ----- ---------- --- --- ------ ------ ---- -- ------<br>------- --- ------ ----- --- ---- ------- -- ---- --- --<br>------- ------,230264.09999990463,230263.29999995232,229905.935,229909.09999990463,229922.614,230272.622,,27,interest
screen,html.Screen,2_1_1_1_28,2022-05-09T11:06:51.071Z,,,,,,,,,,,,,,,,,54,,,,,,,,,,,,,,320.17799995231326,,response,,,,100,,,,,,,Space,keypress(Space),,,,,,,,-- --- ---- --- ------ ----- ------- ---- -- --- ------- --<br>------- ---------- ------ -- ----- -- ----- -- ---- ------<br>--- ----- --- --- ------ -------- rate. --- ------ ----- --<br>----- ----- ---------- --- --- ------ ------ ---- -- ------<br>------- --- ------ ----- --- ---- ------- -- ---- --- --<br>------- ------,230593.59999990463,230592.79999995232,230255.948,230264.29999995232,230272.622,230605.968,,28,rate.
screen,html.Screen,2_1_1_1_29,2022-05-09T11:06:51.465Z,,,,,,,,,,,,,,,,,54,,,,,,,,,,,,,,381.73199992848095,,response,,,,100,,,,,,,Space,keypress(Space),,,,,,,,-- --- ---- --- ------ ----- ------- ---- -- --- ------- --<br>------- ---------- ------ -- ----- -- ----- -- ---- ------<br>--- ----- --- --- ------ -------- ----- The ------ ----- --<br>----- ----- ---------- --- --- ------ ------ ---- -- ------<br>------- --- ------ ----- --- ---- ------- -- ---- --- --<br>------- ------,230988.39999997616,230987.69999992847,230589.288,230593.79999995232,230605.968,231012.531,,29,The
screen,html.Screen,2_1_1_1_30,2022-05-09T11:06:51.739Z,,,,,,,,,,,,,,,,,54,,,,,,,,,,,,,,248.36899997617002,,response,,,,100,,,,,,,Space,keypress(Space),,,,,,,,-- --- ---- --- ------ ----- ------- ---- -- --- ------- --<br>------- ---------- ------ -- ----- -- ----- -- ---- ------<br>--- ----- --- --- ------ -------- ----- --- market ----- --<br>----- ----- ---------- --- --- ------ ------ ---- -- ------<br>------- --- ------ ----- --- ---- ------- -- ---- --- --<br>------- ------,231261.79999995232,231260.89999997616,230972.633,230988.59999990463,231012.531,231272.659,,30,market
screen,html.Screen,2_1_1_1_31,2022-05-09T11:06:52.146Z,,,,,,,,,,,,,,,,,54,,,,,,,,,,,,,,395.5409999284602,,response,,,,100,,,,,,,Space,keypress(Space),,,,,,,,-- --- ---- --- ------ ----- ------- ---- -- --- ------- --<br>------- ---------- ------ -- ----- -- ----- -- ---- ------<br>--- ----- --- --- ------ -------- ----- --- ------ value --<br>----- ----- ---------- --- --- ------ ------ ---- -- ------<br>------- --- ------ ----- --- ---- ------- -- ---- --- --<br>------- ------,231669.19999992847,231668.19999992847,231255.993,231262.09999990463,231272.659,231672.674,,31,value
screen,html.Screen,2_1_1_1_32,2022-05-09T11:06:52.476Z,,,,,,,,,,,,,,,,,54,,,,,,,,,,,,,,325.82600000000093,,response,,,,100,,,,,,,Space,keypress(Space),,,,,,,,-- --- ---- --- ------ ----- ------- ---- -- --- ------- --<br>------- ---------- ------ -- ----- -- ----- -- ---- ------<br>--- ----- --- --- ------ -------- ----- --- ------ ----- of<br>----- ----- ---------- --- --- ------ ------ ---- -- ------<br>------- --- ------ ----- --- ---- ------- -- ---- --- --<br>------- ------,231999.39999997616,231998.5,231656,231669.39999997616,231672.674,232006.015,,32,of
screen,html.Screen,2_1_1_1_33,2022-05-09T11:06:52.822Z,,,,,,,,,,,,,,,,,54,,,,,,,,,,,,,,338.18499992846046,,response,,,,100,,,,,,,Space,keypress(Space),,,,,,,,-- --- ---- --- ------ ----- ------- ---- -- --- ------- --<br>------- ---------- ------ -- ----- -- ----- -- ---- ------<br>--- ----- --- --- ------ -------- ----- --- ------ ----- --<br>these ----- ---------- --- --- ------ ------ ---- -- ------<br>------- --- ------ ----- --- ---- ------- -- ---- --- --<br>------- ------,232345.09999990463,232344.19999992847,231989.353,231999.59999990463,232006.015,232356.051,,33,these
screen,html.Screen,2_1_1_1_34,2022-05-09T11:06:53.128Z,,,,,,,,,,,,,,,,,54,,,,,,,,,,,,,,294.3489999761514,,response,,,,100,,,,,,,Space,keypress(Space),,,,,,,,-- --- ---- --- ------ ----- ------- ---- -- --- ------- --<br>------- ---------- ------ -- ----- -- ----- -- ---- ------<br>--- ----- --- --- ------ -------- ----- --- ------ ----- --<br>----- bonds ---------- --- --- ------ ------ ---- -- ------<br>------- --- ------ ----- --- ---- ------- -- ---- --- --<br>------- ------,232651.39999997616,232650.39999997616,232339.361,232345.29999995232,232356.051,232656.051,,34,bonds
screen,html.Screen,2_1_1_1_35,2022-05-09T11:06:53.447Z,,,,,,,,,,,,,,,,,54,,,,,,,,,,,,,,312.8489999761514,,response,,,,100,,,,,,,Space,keypress(Space),,,,,,,,"-- --- ---- --- ------ ----- ------- ---- -- --- ------- --<br>------- ---------- ------ -- ----- -- ----- -- ---- ------<br>--- ----- --- --- ------ -------- ----- --- ------ ----- --<br>----- ----- plummeted, --- --- ------ ------ ---- -- ------<br>------- --- ------ ----- --- ---- ------- -- ---- --- --<br>------- ------",232969.79999995232,232968.89999997616,232639.383,232651.5,232656.051,232972.721,,35,"plummeted,"
screen,html.Screen,2_1_1_1_36,2022-05-09T11:06:53.843Z,,,,,,,,,,,,,,,,,54,,,,,,,,,,,,,,392.57899995232583,,response,,,,100,,,,,,,Space,keypress(Space),,,,,,,,-- --- ---- --- ------ ----- ------- ---- -- --- ------- --<br>------- ---------- ------ -- ----- -- ----- -- ---- ------<br>--- ----- --- --- ------ -------- ----- --- ------ ----- --<br>----- ----- ---------- and --- ------ ------ ---- -- ------<br>------- --- ------ ----- --- ---- ------- -- ---- --- --<br>------- ------,233366.19999992847,233365.29999995232,232956.059,232970,232972.721,233372.749,,36,and
screen,html.Screen,2_1_1_1_37,2022-05-09T11:06:54.094Z,,,,,,,,,,,,,,,,,54,,,,,,,,,,,,,,243.15099997614743,,response,,,,100,,,,,,,Space,keypress(Space),,,,,,,,-- --- ---- --- ------ ----- ------- ---- -- --- ------- --<br>------- ---------- ------ -- ----- -- ----- -- ---- ------<br>--- ----- --- --- ------ -------- ----- --- ------ ----- --<br>----- ----- ---------- --- the ------ ------ ---- -- ------<br>------- --- ------ ----- --- ---- ------- -- ---- --- --<br>------- ------,233616.79999995232,233615.89999997616,233356.064,233366.5,233372.749,233622.762,,37,the
screen,html.Screen,2_1_1_1_38,2022-05-09T11:06:54.331Z,,,,,,,,,,,,,,,,,54,,,,,,,,,,,,,,230.7380000000121,,response,,,,100,,,,,,,Space,keypress(Space),,,,,,,,-- --- ---- --- ------ ----- ------- ---- -- --- ------- --<br>------- ---------- ------ -- ----- -- ----- -- ---- ------<br>--- ----- --- --- ------ -------- ----- --- ------ ----- --<br>----- ----- ---------- --- --- market ------ ---- -- ------<br>------- --- ------ ----- --- ---- ------- -- ---- --- --<br>------- ------,233854.39999997616,233853.5,233606.078,233617,233622.762,233880.335,,38,market
screen,html.Screen,2_1_1_1_39,2022-05-09T11:06:54.570Z,,,,,,,,,,,,,,,,,54,,,,,,,,,,,,,,212.26499990464072,,response,,,,100,,,,,,,Space,keypress(Space),,,,,,,,-- --- ---- --- ------ ----- ------- ---- -- --- ------- --<br>------- ---------- ------ -- ----- -- ----- -- ---- ------<br>--- ----- --- --- ------ -------- ----- --- ------ ----- --<br>----- ----- ---------- --- --- ------ became ---- -- ------<br>------- --- ------ ----- --- ---- ------- -- ---- --- --<br>------- ------,234093.5,234092.59999990463,233839.418,233854.59999990463,233880.335,234106.15,,39,became
screen,html.Screen,2_1_1_1_40,2022-05-09T11:06:54.995Z,,,,,,,,,,,,,,,,,54,,,,,,,,,,,,,,411.3500000000058,,response,,,,100,,,,,,,Space,keypress(Space),,,,,,,,-- --- ---- --- ------ ----- ------- ---- -- --- ------- --<br>------- ---------- ------ -- ----- -- ----- -- ---- ------<br>--- ----- --- --- ------ -------- ----- --- ------ ----- --<br>----- ----- ---------- --- --- ------ ------ wary -- ------<br>------- --- ------ ----- --- ---- ------- -- ---- --- --<br>------- ------,234518.29999995232,234517.5,234089.43,234093.69999992847,234106.15,234522.794,,40,wary
screen,html.Screen,2_1_1_1_41,2022-05-09T11:06:55.314Z,,,,,,,,,,,,,,,,,54,,,,,,,,,,,,,,313.40599992848,,response,,,,100,,,,,,,Space,keypress(Space),,,,,,,,-- --- ---- --- ------ ----- ------- ---- -- --- ------- --<br>------- ---------- ------ -- ----- -- ----- -- ---- ------<br>--- ----- --- --- ------ -------- ----- --- ------ ----- --<br>----- ----- ---------- --- --- ------ ------ ---- of ------<br>------- --- ------ ----- --- ---- ------- -- ---- --- --<br>------- ------,234837,234836.19999992847,234506.121,234518.5,234522.794,234839.456,,41,of
screen,html.Screen,2_1_1_1_42,2022-05-09T11:06:55.692Z,,,,,,,,,,,,,,,,,54,,,,,,,,,,,,,,374.24399992846884,,response,,,,100,,,,,,,Space,keypress(Space),,,,,,,,-- --- ---- --- ------ ----- ------- ---- -- --- ------- --<br>------- ---------- ------ -- ----- -- ----- -- ---- ------<br>--- ----- --- --- ------ -------- ----- --- ------ ----- --<br>----- ----- ---------- --- --- ------ ------ ---- -- French<br>------- --- ------ ----- --- ---- ------- -- ---- --- --<br>------- ------,235214.59999990463,235213.69999992847,234822.791,234837.29999995232,234839.456,235222.805,,42,French
screen,html.Screen,2_1_1_1_43,2022-05-09T11:06:56.078Z,,,,,,,,,,,,,,,,,54,,,,,,,,,,,,,,377.8949999284814,,response,,,,100,,,,,,,Space,keypress(Space),,,,,,,,-- --- ---- --- ------ ----- ------- ---- -- --- ------- --<br>------- ---------- ------ -- ----- -- ----- -- ---- ------<br>--- ----- --- --- ------ -------- ----- --- ------ ----- --<br>----- ----- ---------- --- --- ------ ------ ---- -- ------<br>credit. --- ------ ----- --- ---- ------- -- ---- --- --<br>------- ------,235601.5,235600.69999992847,235206.135,235214.89999997616,235222.805,235606.163,,43,credit.
screen,html.Screen,2_1_1_1_44,2022-05-09T11:06:56.543Z,,,,,,,,,,,,,,,,,54,,,,,,,,,,,,,,458.53699992847396,,response,,,,100,,,,,,,Space,keypress(Space),,,,,,,,-- --- ---- --- ------ ----- ------- ---- -- --- ------- --<br>------- ---------- ------ -- ----- -- ----- -- ---- ------<br>--- ----- --- --- ------ -------- ----- --- ------ ----- --<br>----- ----- ---------- --- --- ------ ------ ---- -- ------<br>------- The ------ ----- --- ---- ------- -- ---- --- --<br>------- ------,236065.59999990463,236064.69999992847,235589.477,235601.69999992847,235606.163,236072.831,,44,The
screen,html.Screen,2_1_1_1_45,2022-05-09T11:06:56.805Z,,,,,,,,,,,,,,,,,54,,,,,,,,,,,,,,253.9689999523107,,response,,,,100,,,,,,,Space,keypress(Space),,,,,,,,-- --- ---- --- ------ ----- ------- ---- -- --- ------- --<br>------- ---------- ------ -- ----- -- ----- -- ---- ------<br>--- ----- --- --- ------ -------- ----- --- ------ ----- --<br>----- ----- ---------- --- --- ------ ------ ---- -- ------<br>------- --- French ----- --- ---- ------- -- ---- --- --<br>------- ------,236327.79999995232,236326.79999995232,236056.164,236065.89999997616,236072.831,236339.518,,45,French
screen,html.Screen,2_1_1_1_46,2022-05-09T11:06:57.107Z,,,,,,,,,,,,,,,,,54,,,,,,,,,,,,,,289.8819999761472,,response,,,,100,,,,,,,Space,keypress(Space),,,,,,,,-- --- ---- --- ------ ----- ------- ---- -- --- ------- --<br>------- ---------- ------ -- ----- -- ----- -- ---- ------<br>--- ----- --- --- ------ -------- ----- --- ------ ----- --<br>----- ----- ---------- --- --- ------ ------ ---- -- ------<br>------- --- ------ state --- ---- ------- -- ---- --- --<br>------- ------,236630.19999992847,236629.39999997616,236322.856,236328,236339.518,236639.53,,46,state
screen,html.Screen,2_1_1_1_47,2022-05-09T11:06:57.496Z,,,,,,,,,,,,,,,,,54,,,,,,,,,,,,,,378.56999990463373,,response,,,,100,,,,,,,Space,keypress(Space),,,,,,,,-- --- ---- --- ------ ----- ------- ---- -- --- ------- --<br>------- ---------- ------ -- ----- -- ----- -- ---- ------<br>--- ----- --- --- ------ -------- ----- --- ------ ----- --<br>----- ----- ---------- --- --- ------ ------ ---- -- ------<br>------- --- ------ ----- was ---- ------- -- ---- --- --<br>------- ------,237018.89999997616,237018.09999990463,236622.85,236630.39999997616,236639.53,237022.885,,47,was
screen,html.Screen,2_1_1_1_48,2022-05-09T11:06:57.898Z,,,,,,,,,,,,,,,,,54,,,,,,,,,,,,,,397.71499990462326,,response,,,,100,,,,,,,Space,keypress(Space),,,,,,,,-- --- ---- --- ------ ----- ------- ---- -- --- ------- --<br>------- ---------- ------ -- ----- -- ----- -- ---- ------<br>--- ----- --- --- ------ -------- ----- --- ------ ----- --<br>----- ----- ---------- --- --- ------ ------ ---- -- ------<br>------- --- ------ ----- --- left ------- -- ---- --- --<br>------- ------,237421.5,237420.59999990463,237006.194,237019.09999990463,237022.885,237443.107,,48,left
screen,html.Screen,2_1_1_1_49,2022-05-09T11:06:58.231Z,,,,,,,,,,,,,,,,,54,,,,,,,,,,,,,,309.4929999046435,,response,,,,100,,,,,,,Space,keypress(Space),,,,,,,,-- --- ---- --- ------ ----- ------- ---- -- --- ------- --<br>------- ---------- ------ -- ----- -- ----- -- ---- ------<br>--- ----- --- --- ------ -------- ----- --- ------ ----- --<br>----- ----- ---------- --- --- ------ ------ ---- -- ------<br>------- --- ------ ----- --- ---- without -- ---- --- --<br>------- ------,237753.5,237752.59999990463,237406.219,237421.69999992847,237443.107,237756.235,,49,without
screen,html.Screen,2_1_1_1_50,2022-05-09T11:06:58.592Z,,,,,,,,,,,,,,,,,54,,,,,,,,,,,,,,358.36499990464654,,response,,,,100,,,,,,,Space,keypress(Space),,,,,,,,-- --- ---- --- ------ ----- ------- ---- -- --- ------- --<br>------- ---------- ------ -- ----- -- ----- -- ---- ------<br>--- ----- --- --- ------ -------- ----- --- ------ ----- --<br>----- ----- ---------- --- --- ------ ------ ---- -- ------<br>------- --- ------ ----- --- ---- ------- an ---- --- --<br>------- ------,238115.39999997616,238114.59999990463,237739.562,237753.79999995232,237756.235,238122.914,,50,an
screen,html.Screen,2_1_1_1_51,2022-05-09T11:06:58.965Z,,,,,,,,,,,,,,,,,54,,,,,,,,,,,,,,364.38599995232653,,response,,,,100,,,,,,,Space,keypress(Space),,,,,,,,-- --- ---- --- ------ ----- ------- ---- -- --- ------- --<br>------- ---------- ------ -- ----- -- ----- -- ---- ------<br>--- ----- --- --- ------ -------- ----- --- ------ ----- --<br>----- ----- ---------- --- --- ------ ------ ---- -- ------<br>------- --- ------ ----- --- ---- ------- -- easy --- --<br>------- ------,238488.09999990463,238487.29999995232,238106.237,238115.59999990463,238122.914,238514.009,,51,easy
screen,html.Screen,2_1_1_1_52,2022-05-09T11:06:59.360Z,,,,,,,,,,,,,,,,,54,,,,,,,,,,,,,,368.29099995232536,,response,,,,100,,,,,,,Space,keypress(Space),,,,,,,,-- --- ---- --- ------ ----- ------- ---- -- --- ------- --<br>------- ---------- ------ -- ----- -- ----- -- ---- ------<br>--- ----- --- --- ------ -------- ----- --- ------ ----- --<br>----- ----- ---------- --- --- ------ ------ ---- -- ------<br>------- --- ------ ----- --- ---- ------- -- ---- way --<br>------- ------,238883.19999992847,238882.29999995232,238472.926,238488.39999997616,238514.009,238889.635,,52,way
screen,html.Screen,2_1_1_1_53,2022-05-09T11:06:59.878Z,,,,,,,,,,,,,,,,,54,,,,,,,,,,,,,,510.26499997614883,,response,,,,100,,,,,,,Space,keypress(Space),,,,,,,,-- --- ---- --- ------ ----- ------- ---- -- --- ------- --<br>------- ---------- ------ -- ----- -- ----- -- ---- ------<br>--- ----- --- --- ------ -------- ----- --- ------ ----- --<br>----- ----- ---------- --- --- ------ ------ ---- -- ------<br>------- --- ------ ----- --- ---- ------- -- ---- --- of<br>------- ------,239400.69999992847,239399.89999997616,238872.937,238883.39999997616,238889.635,239406.299,,53,of
screen,html.Screen,2_1_1_1_54,2022-05-09T11:07:00.327Z,,,,,,,,,,,,,,,,,54,,,,,,,,,,,,,,442.6009999761591,,response,,,,100,,,,,,,Space,keypress(Space),,,,,,,,-- --- ---- --- ------ ----- ------- ---- -- --- ------- --<br>------- ---------- ------ -- ----- -- ----- -- ---- ------<br>--- ----- --- --- ------ -------- ----- --- ------ ----- --<br>----- ----- ---------- --- --- ------ ------ ---- -- ------<br>------- --- ------ ----- --- ---- ------- -- ---- --- --<br>raising ------,239849.69999992847,239848.89999997616,239389.621,239401,239406.299,239856.326,,54,raising
screen,html.Screen,2_1_1_1_55,2022-05-09T11:07:00.871Z,,,,,,,,,,,,,,,,,54,,,,,,,,,,,,,,537.0739999761572,,response,,,,100,,,,,,,Space,keypress(Space),,,,,,,,-- --- ---- --- ------ ----- ------- ---- -- --- ------- --<br>------- ---------- ------ -- ----- -- ----- -- ---- ------<br>--- ----- --- --- ------ -------- ----- --- ------ ----- --<br>----- ----- ---------- --- --- ------ ------ ---- -- ------<br>------- --- ------ ----- --- ---- ------- -- ---- --- --<br>------- money.,240394.09999990463,240393.39999997616,239839.638,239850,239856.326,240406.336,,55,money.
Item 100,flow.Loop,2_1_1_1,2022-05-09T11:07:00.871Z,,,,,,,,,,,,,,,,,,,,,,,,,,,,,,,21037.854999976145,,completion,,,,,C,,,,,,,,,,,silence,,,,,240394.59999990463,240393.39999997616,219338.888,219339.79999995232,219355.545,240406.336,,,
Question 1,html.Screen,2_1_1_2,2022-05-09T11:07:03.742Z,,,,,,,,,,,,,,,,,,,,,,,,,,,,true,TRUE,,2857.2639999046223,,response,,,,100,C,,,,,,TRUE,click #choice-1,,,,silence,,,,,243264.89999997616,243263.59999990463,240389.658,240394.69999992847,240406.336,243273.113,,,
Question 2,html.Screen,2_1_1_3,2022-05-09T11:07:06.818Z,,,,,,,,,,,,,,,,,,,,,,,,,,,,true,FALSE,,3066.5869999284623,,response,,,,100,C,,,,,,FALSE,click #choice-2,,,,silence,,,,,246340.89999997616,246339.69999992847,243256.43,243265.09999990463,243273.113,246356.554,,,
Item 100,flow.Sequence,2_1_1,2022-05-09T11:07:06.818Z,,,,,,,,,,,,,,,,,,,,,,,,,,,,,,,36984.51399992849,,completion,,,,,,,,,,,,,,,,,,,,,246341.29999995232,246339.69999992847,209338.512,209345.59999990463,209355.186,246356.554,,,
End of Practice,html.Page,2_1_2,2022-05-09T11:07:11.359Z,,,,,,,,,,,,,,,,,,,,,,,,,,,,,,,4524.645999928471,,form submission,,,,,,,,,,,,,,,,,,,,,250881.69999992847,250881.19999992847,246339.892,246341.5,246356.554,250890.073,,,
Practice,flow.Sequence,2_1,2022-05-09T11:07:11.359Z,,,,,,,,,,,,,,,,,,,,,,,,,,,,,,,82177.51299992847,,completion,,,,,,,,,,,,,,,,,,,,,250882.09999990463,250881.19999992847,168686.99,168694.39999997616,168703.687,250890.073,,,
Trap_instruction,html.Page,2_2_0,2022-05-09T11:07:16.647Z,,,,,,,,,,,,,,,,,,,,,,,,,,,,,,,5278.926999999996,,form submission,,,,,,,,,,,,,,,,,,,,,256169.5,256169,250873.389,250882.29999995232,250890.073,256206.941,,,
trap_trial,html.Screen,2_2_1,2022-05-09T11:07:20.486Z,,,,,,,,,,,,,,,,,,,,,,,,,,,,true,1,,3800.758999928483,,response,,,,,,,,,,,1,click #choice-1,,,,,,,,,260009.09999990463,260007.69999992847,256156.92,256169.69999992847,256206.941,260023.745,,,
end of trap trial,html.Page,2_2_2,2022-05-09T11:07:22.767Z,,,,,,,,,,,,,,,,,,,,,,,,,,,,,,,2265.554999952321,,form submission,,,,,,,,,,,,,,,,,,,,,262289.6999999285,262289.2999999523,260007.073,260009.29999995232,260023.745,262290.491,,,
Trap 1,flow.Sequence,2_2,2022-05-09T11:07:22.767Z,,,,,,,,,,,,,,,,,,,,,,,,,,,,,,,11399.226999952312,,completion,,,,,,,,,,,,,,,,,,,,,262290.09999990463,262289.2999999523,250873.389,250882.19999992847,250890.073,262290.491,,,
Standby,html.Page,2_3_0,2022-05-09T11:07:30.752Z,,,,,,,,,,,,,,,,,,,,,,,,,,,,,,,8000.293999999994,,timeout,,,,,,,,,,,,,,,,,,,,,270275,270274.125,262273.824,262290.39999997616,262290.491,270290.785,,,
Holding screen,html.Screen,2_3_1_0_0,2022-05-09T11:07:37.752Z,,,,,,,,,,,,,,,,,,,,,,,,,,,,,,,7000.264000000025,,timeout,,,,,,,,,,,,,,,,,,,,,277275.1999999285,277274.384,270274.125,270275.39999997616,270290.785,277291.049,,,
screen,html.Screen,2_3_1_0_1_0,2022-05-09T11:07:38.843Z,,,,,,,,,,,,,,,,,19,,,,,,,,,,,,,,1073.350999976159,,response,,,,17,C,,,,,,Space,keypress(Space),,,,instrumental,,,,"Interestingly, --- -------- -------- ---------- ---- -------<br>-- ---------- -- --- ----- ------ ----- ---- --------- ----<br>------- ------ -------- -- ------ ---------- ------ ---<br>------ -- -- ---- -- ---------- -------- ------ ---- -------<br>---- --- --------- ------- ----- --------- ---- ----- --<br>------ -------- -- ------ -- ---- ------------",278365.59999990463,278364.39999997616,277274.384,277275.5,277291.049,278374.462,,0,"Interestingly,"
screen,html.Screen,2_3_1_0_1_1,2022-05-09T11:07:39.268Z,,,,,,,,,,,,,,,,,19,,,,,,,,,,,,,,415.53800000000047,,response,,,,17,C,,,,,,Space,keypress(Space),,,,instrumental,,,,-------------- the -------- -------- ---------- ---- -------<br>-- ---------- -- --- ----- ------ ----- ---- --------- ----<br>------- ------ -------- -- ------ ---------- ------ ---<br>------ -- -- ---- -- ---------- -------- ------ ---- -------<br>---- --- --------- ------- ----- --------- ---- ----- --<br>------ -------- -- ------ -- ---- ------------,278790.7999999523,278790,278357.733,278365.7999999523,278374.462,278807.795,,1,the
screen,html.Screen,2_3_1_0_1_2,2022-05-09T11:07:39.567Z,,,,,,,,,,,,,,,,,19,,,,,,,,,,,,,,281.4049999284907,,response,,,,17,C,,,,,,Space,keypress(Space),,,,instrumental,,,,-------------- --- heaviest -------- ---------- ---- -------<br>-- ---------- -- --- ----- ------ ----- ---- --------- ----<br>------- ------ -------- -- ------ ---------- ------ ---<br>------ -- -- ---- -- ---------- -------- ------ ---- -------<br>---- --- --------- ------- ----- --------- ---- ----- --<br>------ -------- -- ------ -- ---- ------------,279090.09999990463,279089.1999999285,278791.101,278791.09999990463,278807.795,279114.542,,2,heaviest
screen,html.Screen,2_3_1_0_1_3,2022-05-09T11:07:39.992Z,,,,,,,,,,,,,,,,,19,,,,,,,,,,,,,,399.45799999998417,,response,,,,17,C,,,,,,Space,keypress(Space),,,,instrumental,,,,-------------- --- -------- isotopes ---------- ---- -------<br>-- ---------- -- --- ----- ------ ----- ---- --------- ----<br>------- ------ -------- -- ------ ---------- ------ ---<br>------ -- -- ---- -- ---------- -------- ------ ---- -------<br>---- --- --------- ------- ----- --------- ---- ----- --<br>------ -------- -- ------ -- ---- ------------,279514.7999999523,279514,279074.459,279090.1999999285,279114.542,279524.464,,3,isotopes
screen,html.Screen,2_3_1_0_1_4,2022-05-09T11:07:40.431Z,,,,,,,,,,,,,,,,,19,,,,,,,,,,,,,,428.0360000000219,,response,,,,17,C,,,,,,Space,keypress(Space),,,,instrumental,,,,-------------- --- -------- -------- physicists ---- -------<br>-- ---------- -- --- ----- ------ ----- ---- --------- ----<br>------- ------ -------- -- ------ ---------- ------ ---<br>------ -- -- ---- -- ---------- -------- ------ ---- -------<br>---- --- --------- ------- ----- --------- ---- ----- --<br>------ -------- -- ------ -- ---- ------------,279953.5,279952.5,279507.792,279515,279524.464,279957.825,,4,physicists
screen,html.Screen,2_3_1_0_1_5,2022-05-09T11:07:40.824Z,,,,,,,,,,,,,,,,,19,,,,,,,,,,,,,,388.0749999761465,,response,,,,17,C,,,,,,Space,keypress(Space),,,,instrumental,,,,-------------- --- -------- -------- ---------- have -------<br>-- ---------- -- --- ----- ------ ----- ---- --------- ----<br>------- ------ -------- -- ------ ---------- ------ ---<br>------ -- -- ---- -- ---------- -------- ------ ---- -------<br>---- --- --------- ------- ----- --------- ---- ----- --<br>------ -------- -- ------ -- ---- ------------,280346.7999999523,280345.89999997616,279941.141,279953.7999999523,279957.825,280357.827,,5,have
screen,html.Screen,2_3_1_0_1_6,2022-05-09T11:07:41.247Z,,,,,,,,,,,,,,,,,19,,,,,,,,,,,,,,411.47299995232606,,response,,,,17,C,,,,,,Space,keypress(Space),,,,instrumental,,,,-------------- --- -------- -------- ---------- ---- managed<br>-- ---------- -- --- ----- ------ ----- ---- --------- ----<br>------- ------ -------- -- ------ ---------- ------ ---<br>------ -- -- ---- -- ---------- -------- ------ ---- -------<br>---- --- --------- ------- ----- --------- ---- ----- --<br>------ -------- -- ------ -- ---- ------------,280770.1999999285,280769.2999999523,280341.156,280346.89999997616,280357.827,280774.514,,6,managed
screen,html.Screen,2_3_1_0_1_7,2022-05-09T11:07:41.674Z,,,,,,,,,,,,,,,,,19,,,,,,,,,,,,,,421.5859999046079,,response,,,,17,C,,,,,,Space,keypress(Space),,,,instrumental,,,,-------------- --- -------- -------- ---------- ---- -------<br>to ---------- -- --- ----- ------ ----- ---- --------- ----<br>------- ------ -------- -- ------ ---------- ------ ---<br>------ -- -- ---- -- ---------- -------- ------ ---- -------<br>---- --- --------- ------- ----- --------- ---- ----- --<br>------ -------- -- ------ -- ---- ------------,281196.7999999523,281196.09999990463,280757.841,280770.5,280774.514,281207.854,,7,to
screen,html.Screen,2_3_1_0_1_8,2022-05-09T11:07:41.982Z,,,,,,,,,,,,,,,,,19,,,,,,,,,,,,,,296.2459999046405,,response,,,,17,C,,,,,,Space,keypress(Space),,,,instrumental,,,,-------------- --- -------- -------- ---------- ---- -------<br>-- synthesize -- --- ----- ------ ----- ---- --------- ----<br>------- ------ -------- -- ------ ---------- ------ ---<br>------ -- -- ---- -- ---------- -------- ------ ---- -------<br>---- --- --------- ------- ----- --------- ---- ----- --<br>------ -------- -- ------ -- ---- ------------,281505,281504.09999990463,281191.192,281197.09999990463,281207.854,281507.889,,8,synthesize
screen,html.Screen,2_3_1_0_1_9,2022-05-09T11:07:42.591Z,,,,,,,,,,,,,,,,,19,,,,,,,,,,,,,,604.5109999761335,,response,,,,17,C,,,,,,Space,keypress(Space),,,,instrumental,,,,-------------- --- -------- -------- ---------- ---- -------<br>-- ---------- so --- ----- ------ ----- ---- --------- ----<br>------- ------ -------- -- ------ ---------- ------ ---<br>------ -- -- ---- -- ---------- -------- ------ ---- -------<br>---- --- --------- ------- ----- --------- ---- ----- --<br>------ -------- -- ------ -- ---- ------------,282113.5,282112.39999997616,281491.204,281505.1999999285,281507.889,282124.565,,9,so
screen,html.Screen,2_3_1_0_1_10,2022-05-09T11:07:42.879Z,,,,,,,,,,,,,,,,,19,,,,,,,,,,,,,,276.6349999284721,,response,,,,17,C,,,,,,Space,keypress(Space),,,,instrumental,,,,-------------- --- -------- -------- ---------- ---- -------<br>-- ---------- -- far ----- ------ ----- ---- --------- ----<br>------- ------ -------- -- ------ ---------- ------ ---<br>------ -- -- ---- -- ---------- -------- ------ ---- -------<br>---- --- --------- ------- ----- --------- ---- ----- --<br>------ -------- -- ------ -- ---- ------------,282402.09999990463,282401.1999999285,282107.887,282113.6999999285,282124.565,282407.911,,10,far
screen,html.Screen,2_3_1_0_1_11,2022-05-09T11:07:43.318Z,,,,,,,,,,,,,,,,,19,,,,,,,,,,,,,,431.78899992845254,,response,,,,17,C,,,,,,Space,keypress(Space),,,,instrumental,,,,-------------- --- -------- -------- ---------- ---- -------<br>-- ---------- -- --- don't ------ ----- ---- --------- ----<br>------- ------ -------- -- ------ ---------- ------ ---<br>------ -- -- ---- -- ---------- -------- ------ ---- -------<br>---- --- --------- ------- ----- --------- ---- ----- --<br>------ -------- -- ------ -- ---- ------------,282840.6999999285,282839.6999999285,282391.238,282402.2999999523,282407.911,282857.949,,11,don't
screen,html.Screen,2_3_1_0_1_12,2022-05-09T11:07:43.648Z,,,,,,,,,,,,,,,,,19,,,,,,,,,,,,,,311.9509999761358,,response,,,,17,C,,,,,,Space,keypress(Space),,,,instrumental,,,,-------------- --- -------- -------- ---------- ---- -------<br>-- ---------- -- --- ----- behave ----- ---- --------- ----<br>------- ------ -------- -- ------ ---------- ------ ---<br>------ -- -- ---- -- ---------- -------- ------ ---- -------<br>---- --- --------- ------- ----- --------- ---- ----- --<br>------ -------- -- ------ -- ---- ------------,283170.6999999285,283169.89999997616,282841.249,282840.89999997616,282857.949,283174.612,,12,behave
screen,html.Screen,2_3_1_0_1_13,2022-05-09T11:07:44.052Z,,,,,,,,,,,,,,,,,19,,,,,,,,,,,,,,399.7879999761353,,response,,,,17,C,,,,,,Space,keypress(Space),,,,instrumental,,,,-------------- --- -------- -------- ---------- ---- -------<br>-- ---------- -- --- ----- ------ quite ---- --------- ----<br>------- ------ -------- -- ------ ---------- ------ ---<br>------ -- -- ---- -- ---------- -------- ------ ---- -------<br>---- --- --------- ------- ----- --------- ---- ----- --<br>------ -------- -- ------ -- ---- ------------,283575.2999999523,283574.39999997616,283157.937,283170.89999997616,283174.612,283591.303,,13,quite
screen,html.Screen,2_3_1_0_1_14,2022-05-09T11:07:44.492Z,,,,,,,,,,,,,,,,,19,,,,,,,,,,,,,,422.69699999998556,,response,,,,17,C,,,,,,Space,keypress(Space),,,,instrumental,,,,-------------- --- -------- -------- ---------- ---- -------<br>-- ---------- -- --- ----- ------ ----- like --------- ----<br>------- ------ -------- -- ------ ---------- ------ ---<br>------ -- -- ---- -- ---------- -------- ------ ---- -------<br>---- --- --------- ------- ----- --------- ---- ----- --<br>------ -------- -- ------ -- ---- ------------,284014.89999997616,284014,283574.616,283575.59999990463,283591.303,284024.641,,14,like
screen,html.Screen,2_3_1_0_1_15,2022-05-09T11:07:44.891Z,,,,,,,,,,,,,,,,,19,,,,,,,,,,,,,,388.9589999046293,,response,,,,17,C,,,,,,Space,keypress(Space),,,,instrumental,,,,-------------- --- -------- -------- ---------- ---- -------<br>-- ---------- -- --- ----- ------ ----- ---- science's ----<br>------- ------ -------- -- ------ ---------- ------ ---<br>------ -- -- ---- -- ---------- -------- ------ ---- -------<br>---- --- --------- ------- ----- --------- ---- ----- --<br>------ -------- -- ------ -- ---- ------------,284414.39999997616,284413.59999990463,284007.959,284015,284024.641,284424.666,,15,science's
screen,html.Screen,2_3_1_0_1_16,2022-05-09T11:07:45.437Z,,,,,,,,,,,,,,,,,19,,,,,,,,,,,,,,534.5339999284479,,response,,,,17,C,,,,,,Space,keypress(Space),,,,instrumental,,,,-------------- --- -------- -------- ---------- ---- -------<br>-- ---------- -- --- ----- ------ ----- ---- --------- best<br>------- ------ -------- -- ------ ---------- ------ ---<br>------ -- -- ---- -- ---------- -------- ------ ---- -------<br>---- --- --------- ------- ----- --------- ---- ----- --<br>------ -------- -- ------ -- ---- ------------,284960,284959.1999999285,284407.978,284414.59999990463,284424.666,284974.695,,16,best
screen,html.Screen,2_3_1_0_1_17,2022-05-09T11:07:45.867Z,,,,,,,,,,,,,,,,,19,,,,,,,,,,,,,,414.6049999523093,,response,,,,17,C,,,,,,Space,keypress(Space),,,,instrumental,,,,-------------- --- -------- -------- ---------- ---- -------<br>-- ---------- -- --- ----- ------ ----- ---- --------- ----<br>current ------ -------- -- ------ ---------- ------ ---<br>------ -- -- ---- -- ---------- -------- ------ ---- -------<br>---- --- --------- ------- ----- --------- ---- ----- --<br>------ -------- -- ------ -- ---- ------------,285390.09999990463,285389.2999999523,284957.996,284960.2999999523,284974.695,285423.218,,17,current
screen,html.Screen,2_3_1_0_1_18,2022-05-09T11:07:46.262Z,,,,,,,,,,,,,,,,,19,,,,,,,,,,,,,,360.8819999046391,,response,,,,17,C,,,,,,Space,keypress(Space),,,,instrumental,,,,-------------- --- -------- -------- ---------- ---- -------<br>-- ---------- -- --- ----- ------ ----- ---- --------- ----<br>------- models -------- -- ------ ---------- ------ ---<br>------ -- -- ---- -- ---------- -------- ------ ---- -------<br>---- --- --------- ------- ----- --------- ---- ----- --<br>------ -------- -- ------ -- ---- ------------,285784.89999997616,285784.09999990463,285374.68,285390.2999999523,285423.218,285791.37,,18,models
screen,html.Screen,2_3_1_0_1_19,2022-05-09T11:07:46.856Z,,,,,,,,,,,,,,,,,19,,,,,,,,,,,,,,586.6300000000047,,response,,,,17,C,,,,,,Space,keypress(Space),,,,instrumental,,,,"-------------- --- -------- -------- ---------- ---- -------<br>-- ---------- -- --- ----- ------ ----- ---- --------- ----<br>------- ------ predict, -- ------ ---------- ------ ---<br>------ -- -- ---- -- ---------- -------- ------ ---- -------<br>---- --- --------- ------- ----- --------- ---- ----- --<br>------ -------- -- ------ -- ---- ------------",286378.7999999523,286378,285774.695,285785.09999990463,285791.37,286391.398,,19,"predict,"
screen,html.Screen,2_3_1_0_1_20,2022-05-09T11:07:47.299Z,,,,,,,,,,,,,,,,,19,,,,,,,,,,,,,,429.80199992848793,,response,,,,17,C,,,,,,Space,keypress(Space),,,,instrumental,,,,-------------- --- -------- -------- ---------- ---- -------<br>-- ---------- -- --- ----- ------ ----- ---- --------- ----<br>------- ------ -------- so ------ ---------- ------ ---<br>------ -- -- ---- -- ---------- -------- ------ ---- -------<br>---- --- --------- ------- ----- --------- ---- ----- --<br>------ -------- -- ------ -- ---- ------------,286822.09999990463,286821.1999999285,286374.71,286379,286391.398,286824.743,,20,so
screen,html.Screen,2_3_1_0_1_21,2022-05-09T11:07:47.520Z,,,,,,,,,,,,,,,,,19,,,,,,,,,,,,,,217.65699997614138,,response,,,,17,C,,,,,,Space,keypress(Space),,,,instrumental,,,,-------------- --- -------- -------- ---------- ---- -------<br>-- ---------- -- --- ----- ------ ----- ---- --------- ----<br>------- ------ -------- -- stable ---------- ------ ---<br>------ -- -- ---- -- ---------- -------- ------ ---- -------<br>---- --- --------- ------- ----- --------- ---- ----- --<br>------ -------- -- ------ -- ---- ------------,287043.1999999285,287042.39999997616,286808.06,286822.2999999523,286824.743,287058.102,,21,stable
screen,html.Screen,2_3_1_0_1_22,2022-05-09T11:07:47.911Z,,,,,,,,,,,,,,,,,19,,,,,,,,,,,,,,374.79799997614464,,response,,,,17,C,,,,,,Space,keypress(Space),,,,instrumental,,,,-------------- --- -------- -------- ---------- ---- -------<br>-- ---------- -- --- ----- ------ ----- ---- --------- ----<br>------- ------ -------- -- ------ superheavy ------ ---<br>------ -- -- ---- -- ---------- -------- ------ ---- -------<br>---- --- --------- ------- ----- --------- ---- ----- --<br>------ -------- -- ------ -- ---- ------------,287433.6999999285,287432.89999997616,287041.407,287043.39999997616,287058.102,287441.422,,22,superheavy
screen,html.Screen,2_3_1_0_1_23,2022-05-09T11:07:48.909Z,,,,,,,,,,,,,,,,,19,,,,,,,,,,,,,,989.6779999046121,,response,,,,17,C,,,,,,Space,keypress(Space),,,,instrumental,,,,-------------- --- -------- -------- ---------- ---- -------<br>-- ---------- -- --- ----- ------ ----- ---- --------- ----<br>------- ------ -------- -- ------ ---------- nuclei ---<br>------ -- -- ---- -- ---------- -------- ------ ---- -------<br>---- --- --------- ------- ----- --------- ---- ----- --<br>------ -------- -- ------ -- ---- ------------,288432,288431.09999990463,287424.752,287433.89999997616,287441.422,288441.475,,23,nuclei
screen,html.Screen,2_3_1_0_1_24,2022-05-09T11:07:49.365Z,,,,,,,,,,,,,,,,,19,,,,,,,,,,,,,,446.0250000000233,,response,,,,17,C,,,,,,Space,keypress(Space),,,,instrumental,,,,-------------- --- -------- -------- ---------- ---- -------<br>-- ---------- -- --- ----- ------ ----- ---- --------- ----<br>------- ------ -------- -- ------ ---------- ------ are<br>------ -- -- ---- -- ---------- -------- ------ ---- -------<br>---- --- --------- ------- ----- --------- ---- ----- --<br>------ -------- -- ------ -- ---- ------------,288888.2999999523,288887.5,288424.788,288432.09999990463,288441.475,288891.496,,24,are
screen,html.Screen,2_3_1_0_1_25,2022-05-09T11:07:49.982Z,,,,,,,,,,,,,,,,,19,,,,,,,,,,,,,,612.7039999284898,,response,,,,17,C,,,,,,Space,keypress(Space),,,,instrumental,,,,-------------- --- -------- -------- ---------- ---- -------<br>-- ---------- -- --- ----- ------ ----- ---- --------- ----<br>------- ------ -------- -- ------ ---------- ------ ---<br>likely -- -- ---- -- ---------- -------- ------ ---- -------<br>---- --- --------- ------- ----- --------- ---- ----- --<br>------ -------- -- ------ -- ---- ------------,289505,289504.1999999285,288874.811,288888.5,288891.496,289508.183,,25,likely
screen,html.Screen,2_3_1_0_1_26,2022-05-09T11:07:50.357Z,,,,,,,,,,,,,,,,,19,,,,,,,,,,,,,,370.71699997613905,,response,,,,17,C,,,,,,Space,keypress(Space),,,,instrumental,,,,-------------- --- -------- -------- ---------- ---- -------<br>-- ---------- -- --- ----- ------ ----- ---- --------- ----<br>------- ------ -------- -- ------ ---------- ------ ---<br>------ to -- ---- -- ---------- -------- ------ ---- -------<br>---- --- --------- ------- ----- --------- ---- ----- --<br>------ -------- -- ------ -- ---- ------------,289879.6999999285,289878.89999997616,289491.492,289505.1999999285,289508.183,289891.522,,26,to
screen,html.Screen,2_3_1_0_1_27,2022-05-09T11:07:50.963Z,,,,,,,,,,,,,,,,,19,,,,,,,,,,,,,,593.6779999284772,,response,,,,17,C,,,,,,Space,keypress(Space),,,,instrumental,,,,-------------- --- -------- -------- ---------- ---- -------<br>-- ---------- -- --- ----- ------ ----- ---- --------- ----<br>------- ------ -------- -- ------ ---------- ------ ---<br>------ -- be ---- -- ---------- -------- ------ ---- -------<br>---- --- --------- ------- ----- --------- ---- ----- --<br>------ -------- -- ------ -- ---- ------------,290486,290485.1999999285,289874.859,289879.89999997616,289891.522,290491.542,,27,be
screen,html.Screen,2_3_1_0_1_28,2022-05-09T11:07:51.403Z,,,,,,,,,,,,,,,,,19,,,,,,,,,,,,,,433.05799990461674,,response,,,,17,C,,,,,,Space,keypress(Space),,,,instrumental,,,,-------------- --- -------- -------- ---------- ---- -------<br>-- ---------- -- --- ----- ------ ----- ---- --------- ----<br>------- ------ -------- -- ------ ---------- ------ ---<br>------ -- -- full -- ---------- -------- ------ ---- -------<br>---- --- --------- ------- ----- --------- ---- ----- --<br>------ -------- -- ------ -- ---- ------------,290925.5,290924.59999990463,290474.867,290486.1999999285,290491.542,290941.584,,28,full
screen,html.Screen,2_3_1_0_1_29,2022-05-09T11:07:51.737Z,,,,,,,,,,,,,,,,,19,,,,,,,,,,,,,,317.61599992850097,,response,,,,17,C,,,,,,Space,keypress(Space),,,,instrumental,,,,-------------- --- -------- -------- ---------- ---- -------<br>-- ---------- -- --- ----- ------ ----- ---- --------- ----<br>------- ------ -------- -- ------ ---------- ------ ---<br>------ -- -- ---- of ---------- -------- ------ ---- -------<br>---- --- --------- ------- ----- --------- ---- ----- --<br>------ -------- -- ------ -- ---- ------------,291260,291259.1999999285,290924.882,290925.6999999285,290941.584,291274.923,,29,of
screen,html.Screen,2_3_1_0_1_30,2022-05-09T11:07:52.095Z,,,,,,,,,,,,,,,,,19,,,,,,,,,,,,,,342.0769999999902,,response,,,,17,C,,,,,,Space,keypress(Space),,,,instrumental,,,,-------------- --- -------- -------- ---------- ---- -------<br>-- ---------- -- --- ----- ------ ----- ---- --------- ----<br>------- ------ -------- -- ------ ---------- ------ ---<br>------ -- -- ---- -- surprises. -------- ------ ---- -------<br>---- --- --------- ------- ----- --------- ---- ----- --<br>------ -------- -- ------ -- ---- ------------,291617.89999997616,291617,291258.234,291260.2999999523,291274.923,291624.924,,30,surprises.
screen,html.Screen,2_3_1_0_1_31,2022-05-09T11:07:52.900Z,,,,,,,,,,,,,,,,,19,,,,,,,,,,,,,,796.5760000000009,,response,,,,17,C,,,,,,Space,keypress(Space),,,,instrumental,,,,-------------- --- -------- -------- ---------- ---- -------<br>-- ---------- -- --- ----- ------ ----- ---- --------- ----<br>------- ------ -------- -- ------ ---------- ------ ---<br>------ -- -- ---- -- ---------- Chemists ------ ---- -------<br>---- --- --------- ------- ----- --------- ---- ----- --<br>------ -------- -- ------ -- ---- ------------,292422.39999997616,292421.5,291608.244,291618.09999990463,291624.924,292424.942,,31,Chemists
screen,html.Screen,2_3_1_0_1_32,2022-05-09T11:07:53.324Z,,,,,,,,,,,,,,,,,19,,,,,,,,,,,,,,421.2579999284935,,response,,,,17,C,,,,,,Space,keypress(Space),,,,instrumental,,,,-------------- --- -------- -------- ---------- ---- -------<br>-- ---------- -- --- ----- ------ ----- ---- --------- ----<br>------- ------ -------- -- ------ ---------- ------ ---<br>------ -- -- ---- -- ---------- -------- cannot ---- -------<br>---- --- --------- ------- ----- --------- ---- ----- --<br>------ -------- -- ------ -- ---- ------------,292847.09999990463,292846.1999999285,292408.266,292422.6999999285,292424.942,292858.299,,32,cannot
screen,html.Screen,2_3_1_0_1_33,2022-05-09T11:07:53.741Z,,,,,,,,,,,,,,,,,19,,,,,,,,,,,,,,404.70100000000093,,response,,,,17,C,,,,,,Space,keypress(Space),,,,instrumental,,,,-------------- --- -------- -------- ---------- ---- -------<br>-- ---------- -- --- ----- ------ ----- ---- --------- ----<br>------- ------ -------- -- ------ ---------- ------ ---<br>------ -- -- ---- -- ---------- -------- ------ even -------<br>---- --- --------- ------- ----- --------- ---- ----- --<br>------ -------- -- ------ -- ---- ------------,293264,293263,292841.623,292847.2999999523,292858.299,293274.999,,33,even
screen,html.Screen,2_3_1_0_1_34,2022-05-09T11:07:54.357Z,,,,,,,,,,,,,,,,,19,,,,,,,,,,,,,,603.6009999046219,,response,,,,17,C,,,,,,Space,keypress(Space),,,,instrumental,,,,-------------- --- -------- -------- ---------- ---- -------<br>-- ---------- -- --- ----- ------ ----- ---- --------- ----<br>------- ------ -------- -- ------ ---------- ------ ---<br>------ -- -- ---- -- ---------- -------- ------ ---- predict<br>---- --- --------- ------- ----- --------- ---- ----- --<br>------ -------- -- ------ -- ---- ------------,293879.5,293878.59999990463,293258.305,293264.09999990463,293274.999,293891.669,,34,predict
screen,html.Screen,2_3_1_0_1_35,2022-05-09T11:07:54.826Z,,,,,,,,,,,,,,,,,19,,,,,,,,,,,,,,456.6309999523219,,response,,,,17,C,,,,,,Space,keypress(Space),,,,instrumental,,,,-------------- --- -------- -------- ---------- ---- -------<br>-- ---------- -- --- ----- ------ ----- ---- --------- ----<br>------- ------ -------- -- ------ ---------- ------ ---<br>------ -- -- ---- -- ---------- -------- ------ ---- -------<br>with --- --------- ------- ----- --------- ---- ----- --<br>------ -------- -- ------ -- ---- ------------,294349.1999999285,294348.2999999523,293874.995,293879.6999999285,293891.669,294358.348,,35,with
screen,html.Screen,2_3_1_0_1_36,2022-05-09T11:07:55.205Z,,,,,,,,,,,,,,,,,19,,,,,,,,,,,,,,368.8519999284763,,response,,,,17,C,,,,,,Space,keypress(Space),,,,instrumental,,,,-------------- --- -------- -------- ---------- ---- -------<br>-- ---------- -- --- ----- ------ ----- ---- --------- ----<br>------- ------ -------- -- ------ ---------- ------ ---<br>------ -- -- ---- -- ---------- -------- ------ ---- -------<br>---- any --------- ------- ----- --------- ---- ----- --<br>------ -------- -- ------ -- ---- ------------,294728,294727.1999999285,294341.681,294349.39999997616,294358.348,294741.71,,36,any
screen,html.Screen,2_3_1_0_1_37,2022-05-09T11:07:55.632Z,,,,,,,,,,,,,,,,,19,,,,,,,,,,,,,,412.48999992845347,,response,,,,17,C,,,,,,Space,keypress(Space),,,,instrumental,,,,-------------- --- -------- -------- ---------- ---- -------<br>-- ---------- -- --- ----- ------ ----- ---- --------- ----<br>------- ------ -------- -- ------ ---------- ------ ---<br>------ -- -- ---- -- ---------- -------- ------ ---- -------<br>---- --- certainty ------- ----- --------- ---- ----- --<br>------ -------- -- ------ -- ---- ------------,295155.09999990463,295154.1999999285,294725.031,294728.1999999285,294741.71,295158.387,,37,certainty
screen,html.Screen,2_3_1_0_1_38,2022-05-09T11:07:56.102Z,,,,,,,,,,,,,,,,,19,,,,,,,,,,,,,,466.1130000000121,,response,,,,17,C,,,,,,Space,keypress(Space),,,,instrumental,,,,-------------- --- -------- -------- ---------- ---- -------<br>-- ---------- -- --- ----- ------ ----- ---- --------- ----<br>------- ------ -------- -- ------ ---------- ------ ---<br>------ -- -- ---- -- ---------- -------- ------ ---- -------<br>---- --- --------- whether ----- --------- ---- ----- --<br>------ -------- -- ------ -- ---- ------------,295625.39999997616,295624.5,295141.709,295155.2999999523,295158.387,295641.772,,38,whether
screen,html.Screen,2_3_1_0_1_39,2022-05-09T11:07:56.500Z,,,,,,,,,,,,,,,,,19,,,,,,,,,,,,,,380.0279999523191,,response,,,,17,C,,,,,,Space,keypress(Space),,,,instrumental,,,,-------------- --- -------- -------- ---------- ---- -------<br>-- ---------- -- --- ----- ------ ----- ---- --------- ----<br>------- ------ -------- -- ------ ---------- ------ ---<br>------ -- -- ---- -- ---------- -------- ------ ---- -------<br>---- --- --------- ------- these --------- ---- ----- --<br>------ -------- -- ------ -- ---- ------------,296022.6999999285,296021.7999999523,295625.066,295625.59999990463,295641.772,296025.087,,39,these
