sender,sender_type,sender_id,timestamp,meta,,Blues,Classical,Country,Dance,Electronic,Folk,Gospel,Hip-Hop,Jazz,Latin,Musical/Film,New-age,Pop,Prolific_id,Provo_ID,R&B,Rap,Reggae,Religious,Rock,Soul,Swing,Traditional,age,artist_name,correct,correctResponse,distraction,duration,education,ended_on,familiarity,gender,headphone_check_performance,item,list,music_frequency,offensiveness,pleasantness,position_correct,preference,response,response_action,snippet_file,song_name,song_rating,sound,stimulus_1,stimulus_2,stimulus_3,text,time_commit,time_end,time_render,time_run,time_show,time_switch,url,word,word_ID
Prolific ID,html.Form,0,2022-05-02T15:19:40.122Z,"{""labjs_version"":""20.2.2"",""labjs_build"":{""flavor"":""production"",""commit"":""a25486e0c714a0ae2ce03ff94b7bb6896854dcfa""},""location"":""https://run.pavlovia.org/mvasilev/prolific3_music_g/"",""userAgent"":""Mozilla/5.0 (Windows NT 10.0; Win64; x64) AppleWebKit/537.36 (KHTML, like Gecko) Chrome/100.0.4896.75 Safari/537.36 Edg/100.0.1185.39"",""platform"":""Win32"",""language"":""en-GB"",""locale"":""en-GB"",""timeZone"":""Europe/London"",""timezoneOffset"":-60,""screen_width"":1280,""screen_height"":720,""scroll_width"":1280,""scroll_height"":561,""window_innerWidth"":1280,""window_innerHeight"":609,""devicePixelRatio"":1.5}",,,,,,,,,,,,,,,5f54d772f5bba984fdf8676e,,,,,,,,,,,,,,,237651.64700014304,,form submission,,,,,,,,,,,,,,,,,,,,,248001.90000009537,248001.60000014305,10333.177,10343.100000143051,10349.953,248009.856,{},,
Introduction,html.Screen,1_0,2022-05-02T15:26:37.563Z,,,,,,,,,,,,,,,,,,,,,,,,,,,,,,,417423.84400004765,,response,,,,,,,,,,,continue,click button,,,,,,,,,665435.8000001907,665433.7000000477,247993.202,248002.10000014305,248009.856,665448.277,,,
Volume calibration,html.Screen,1_1,2022-05-02T15:26:43.372Z,,,,,,,,,,,,,,,,,,,,,,,,,,,,,,,5795.323000143049,,response,,,,,,,,,,,continue,click button,,,,,,,,,671245.600000143,671243.600000143,665431.792,665435.9000000954,665448.277,671247.986,,,
Task instructions,html.Screen,1_2,2022-05-02T15:26:47.640Z,,,,,,,,,,,,,,,,,,,,,,,,,,,,,,,4264.414000095334,,response,,,,,,,,,,,continue,click button,,,,,,,,,675513,675512.4000000954,671231.639,671245.7000000477,671247.986,675514.592,,,
Sounds,html.Screen,1_3_0_0,2022-05-02T15:26:51.876Z,,,,,,,,,,,,,,,,,,,,,,,,,,,,,,,4249.992000000086,,timeout,,,,,,,,,3,,,,,,,,I,O,S,,679749.600000143,679748.049,675498.067,675513.100000143,675514.592,679764.584,,,
Judgement,html.Screen,1_3_0_1,2022-05-02T15:26:55.069Z,,,,,,,,,,,,,,,,,,,,,,,,,,,,true,3,,3176.9159999999683,,response,,,,,,,,,3,,3,click #choice-3,,,,,I,O,S,,682942.3000001907,682941.5,679748.049,679749.7000000477,679764.584,682947.906,,,
Trial,flow.Sequence,1_3_0,2022-05-02T15:26:55.069Z,,,,,,,,,,,,,,,,,,,,,,,,,,,,,,,7426.908000000054,,completion,,,,,,,,,3,,,,,,,,I,O,S,,682942.4000000954,682941.5,675498.067,675513.100000143,675514.592,682947.906,,,
Sounds,html.Screen,1_3_1_0,2022-05-02T15:26:59.309Z,,,,,,,,,,,,,,,,,,,,,,,,,,,,,,,4249.728000000003,,timeout,,,,,,,,,3,,,,,,,,O,I,S,,687181.9000000954,687180.885,682931.306,682942.5,682947.906,687197.634,,,
Judgement,html.Screen,1_3_1_1,2022-05-02T15:26:59.687Z,,,,,,,,,,,,,,,,,,,,,,,,,,,,true,3,,361.2660000954056,,response,,,,,,,,,3,,3,click #choice-3,,,,,O,I,S,,687559.7000000477,687558.9000000954,687180.885,687182,687197.634,687564.433,,,
Trial,flow.Sequence,1_3_1,2022-05-02T15:26:59.687Z,,,,,,,,,,,,,,,,,,,,,,,,,,,,,,,4610.994000095408,,completion,,,,,,,,,3,,,,,,,,O,I,S,,687559.9000000954,687558.9000000954,682931.306,682942.4000000954,682947.906,687564.433,,,
Sounds,html.Screen,1_3_2_0,2022-05-02T15:27:03.925Z,,,,,,,,,,,,,,,,,,,,,,,,,,,,,,,4249.83600000001,,timeout,,,,,,,,,2,,,,,,,,O,S,I,,691798.3000001907,691797.662,687547.788,687559.9000000954,687564.433,691814.269,,,
Judgement,html.Screen,1_3_2_1,2022-05-02T15:27:05.161Z,,,,,,,,,,,,,,,,,,,,,,,,,,,,true,2,,1219.6310000953963,,response,,,,,,,,,2,,2,click #choice-2,,,,,O,S,I,,693034.5,693033.9000000954,691797.662,691798.4000000954,691814.269,693047.737,,,
Trial,flow.Sequence,1_3_2,2022-05-02T15:27:05.161Z,,,,,,,,,,,,,,,,,,,,,,,,,,,,,,,5469.467000095407,,completion,,,,,,,,,2,,,,,,,,O,S,I,,693034.600000143,693033.9000000954,687547.788,687559.9000000954,687564.433,693047.737,,,
Sounds,html.Screen,1_3_3_0,2022-05-02T15:27:09.408Z,,,,,,,,,,,,,,,,,,,,,,,,,,,,,,,4249.820999999996,,timeout,,,,,,,,,2,,,,,,,,I,S,O,,697281.4000000954,697280.842,693031.069,693034.7000000477,693047.737,697297.558,,,
Judgement,html.Screen,1_3_3_1,2022-05-02T15:27:10.085Z,,,,,,,,,,,,,,,,,,,,,,,,,,,,true,2,,659.4420000000391,,response,,,,,,,,,2,,2,click #choice-2,,,,,I,S,O,,697957.8000001907,697957,697280.842,697281.5,697297.558,697964.163,,,
Trial,flow.Sequence,1_3_3,2022-05-02T15:27:10.085Z,,,,,,,,,,,,,,,,,,,,,,,,,,,,,,,4909.263000000035,,completion,,,,,,,,,2,,,,,,,,I,S,O,,697958,697957,693031.069,693034.600000143,693047.737,697964.163,,,
Sounds,html.Screen,1_3_4_0,2022-05-02T15:27:14.325Z,,,,,,,,,,,,,,,,,,,,,,,,,,,,,,,4249.76800000004,,timeout,,,,,,,,,1,,,,,,,,S,O,I,,702198,702197.413,697947.387,697958,697964.163,702213.931,,,
Judgement,html.Screen,1_3_4_1,2022-05-02T15:27:15.008Z,,,,,,,,,,,,,,,,,,,,,,,,,,,,true,1,,666.2690000477014,,response,,,,,,,,,1,,1,click #choice-1,,,,,S,O,I,,702881.3000001907,702880.2000000477,702197.413,702198.100000143,702213.931,702897.402,,,
Trial,flow.Sequence,1_3_4,2022-05-02T15:27:15.008Z,,,,,,,,,,,,,,,,,,,,,,,,,,,,,,,4916.0370000477415,,completion,,,,,,,,,1,,,,,,,,S,O,I,,702881.3000001907,702880.2000000477,697947.387,697958,697964.163,702897.402,,,
Sounds,html.Screen,1_3_5_0,2022-05-02T15:27:19.258Z,,,,,,,,,,,,,,,,,,,,,,,,,,,,,,,4249.83600000001,,timeout,,,,,,,,,1,,,,,,,,S,I,O,,707131.2000000477,707130.563,702880.499,702881.3000001907,702897.402,707147.238,,,
Judgement,html.Screen,1_3_5_1,2022-05-02T15:27:19.796Z,,,,,,,,,,,,,,,,,,,,,,,,,,,,true,1,,520.4620000476716,,response,,,,,,,,,1,,1,click #choice-1,,,,,S,I,O,,707668.7000000477,707667.7000000477,707130.563,707131.3000001907,707147.238,707680.311,,,
Trial,flow.Sequence,1_3_5,2022-05-02T15:27:19.796Z,,,,,,,,,,,,,,,,,,,,,,,,,,,,,,,4770.298000047682,,completion,,,,,,,,,1,,,,,,,,S,I,O,,707669,707667.7000000477,702880.499,702881.3000001907,702897.402,707680.311,,,
Task,flow.Loop,1_3,2022-05-02T15:27:19.798Z,,,,,,,,,,,,,,,,,,,,,,,,,,,,,,,32153.108000047738,,completion,,,1,,,,,,,,,,,,,,,,,,707671.3000001907,707667.7000000477,675498.067,675513.100000143,675514.592,707680.311,,,
Trap,html.Screen,1_4,2022-05-02T15:27:19.799Z,,,,,,,,,,,,,,,,,,,,,,,,,,,,,,,NaN,,skipped,,,,,,,,,,,,,,,,,,,,,707672.3000001907,707667.7000000477,,707672.3000001907,,707680.311,,,
Thanks,html.Screen,1_5,2022-05-02T15:27:34.777Z,,,,,,,,,,,,,,,,,,,,,,,,,,,,,,,14968.989000190748,,response,,,,,,,,,,,continue,click button,,,,,,,,,722650,722649.3000001907,707663.865,707672.3000001907,707680.311,726979.744,,,
Headphone screening,flow.Sequence,1,2022-05-02T15:27:34.777Z,,,,,,,,,,,,,,,,,,,,,,,,,,,,,,,474639.4440001907,,completion,,,,,,,,,,,,,,,,,,,,,722650,722649.3000001907,247993.202,248002.10000014305,248009.856,726979.744,,,
Instructions,html.Page,2_0,2022-05-02T15:28:02.447Z,,,,,,,,,,,,,,,,,,,,,,,,,,,,,,,23344.056000190787,,form submission,,,,,,,,,,,,,,,,,,,,,750324,750323.8000001907,726963.051,726970,726979.744,750345.828,,,
Holding screen,html.Screen,2_1_0_0,2022-05-02T15:28:12.453Z,,,,,,,,,,,,,,,,,,,,,,,,,,,,,,,9999.896999999997,,timeout,,,,,,,,,,,,,,,,,,,,,760329.7000000477,760329.124,750329.195,750324.2000000477,750345.828,760345.725,,,
screen,html.Screen,2_1_0_1_0,2022-05-02T15:28:13.668Z,,,,,,,,,,,,,,,,,53,,,,,,,,,,,,,,1198.1750000953907,,response,,,,99,,,,,,,Space,keypress(Space),,,,,,,,When -- ----- -- ------ - ------- --- ----------<br>------------- ------ ------ ---- ---- ------- ----- -- ----<br>-------- ------- -- ---------- --- - --- ----- ----- ----<br>---- --- --- ----- --- ---- ---- ------- ----- ---- -------<br>--- --- -- ----- -- --- ---- -- --- ---- -- ------ ------<br>--- ----- -- ----,761545.3000001907,761543.9000000954,760329.124,760329.8000001907,760345.725,761562.413,,0,When
screen,html.Screen,2_1_0_1_1,2022-05-02T15:28:14.063Z,,,,,,,,,,,,,,,,,53,,,,,,,,,,,,,,377.4870000954252,,response,,,,99,,,,,,,Space,keypress(Space),,,,,,,,---- it ----- -- ------ - ------- --- ----------<br>------------- ------ ------ ---- ---- ------- ----- -- ----<br>-------- ------- -- ---------- --- - --- ----- ----- ----<br>---- --- --- ----- --- ---- ---- ------- ----- ---- -------<br>--- --- -- ----- -- --- ---- -- --- ---- -- ------ ------<br>--- ----- -- ----,761940.4000000954,761939.9000000954,761545.702,761545.4000000954,761562.413,761945.651,,1,it
screen,html.Screen,2_1_0_1_2,2022-05-02T15:28:14.479Z,,,,,,,,,,,,,,,,,53,,,,,,,,,,,,,,410.1490001907805,,response,,,,99,,,,,,,Space,keypress(Space),,,,,,,,---- -- comes -- ------ - ------- --- ----------<br>------------- ------ ------ ---- ---- ------- ----- -- ----<br>-------- ------- -- ---------- --- - --- ----- ----- ----<br>---- --- --- ----- --- ---- ---- ------- ----- ---- -------<br>--- --- -- ----- -- --- ---- -- --- ---- -- ------ ------<br>--- ----- -- ----,762356.4000000954,762355.8000001907,761929.06,761940.5,761945.651,762362.331,,2,comes
screen,html.Screen,2_1_0_1_3,2022-05-02T15:28:14.898Z,,,,,,,,,,,,,,,,,53,,,,,,,,,,,,,,412.76900014304556,,response,,,,99,,,,,,,Space,keypress(Space),,,,,,,,---- -- ----- to ------ - ------- --- ----------<br>------------- ------ ------ ---- ---- ------- ----- -- ----<br>-------- ------- -- ---------- --- - --- ----- ----- ----<br>---- --- --- ----- --- ---- ---- ------- ----- ---- -------<br>--- --- -- ----- -- --- ---- -- --- ---- -- ------ ------<br>--- ----- -- ----,762775.600000143,762775.100000143,762345.61,762356.5,762362.331,762778.885,,3,to
screen,html.Screen,2_1_0_1_4,2022-05-02T15:28:15.273Z,,,,,,,,,,,,,,,,,53,,,,,,,,,,,,,,370.8150000476744,,response,,,,99,,,,,,,Space,keypress(Space),,,,,,,,---- -- ----- -- having - ------- --- ----------<br>------------- ------ ------ ---- ---- ------- ----- -- ----<br>-------- ------- -- ---------- --- - --- ----- ----- ----<br>---- --- --- ----- --- ---- ---- ------- ----- ---- -------<br>--- --- -- ----- -- --- ---- -- --- ---- -- ------ ------<br>--- ----- -- ----,763150.3000001907,763149.7000000477,762762.369,762775.7000000477,762778.885,763162.413,,4,having
screen,html.Screen,2_1_0_1_5,2022-05-02T15:28:15.652Z,,,,,,,,,,,,,,,,,53,,,,,,,,,,,,,,365.9870000954252,,response,,,,99,,,,,,,Space,keypress(Space),,,,,,,,---- -- ----- -- ------ a ------- --- ----------<br>------------- ------ ------ ---- ---- ------- ----- -- ----<br>-------- ------- -- ---------- --- - --- ----- ----- ----<br>---- --- --- ----- --- ---- ---- ------- ----- ---- -------<br>--- --- -- ----- -- --- ---- -- --- ---- -- ------ ------<br>--- ----- -- ----,763528.9000000954,763528.4000000954,763145.581,763150.3000001907,763162.413,763545.464,,5,a
screen,html.Screen,2_1_0_1_6,2022-05-02T15:28:16.045Z,,,,,,,,,,,,,,,,,53,,,,,,,,,,,,,,376.1360001430148,,response,,,,99,,,,,,,Space,keypress(Space),,,,,,,,---- -- ----- -- ------ - lasting --- ----------<br>------------- ------ ------ ---- ---- ------- ----- -- ----<br>-------- ------- -- ---------- --- - --- ----- ----- ----<br>---- --- --- ----- --- ---- ---- ------- ----- ---- -------<br>--- --- -- ----- -- --- ---- -- --- ---- -- ------ ------<br>--- ----- -- ----,763922.2000000477,763921.600000143,763529.033,763529,763545.464,763928.706,,6,lasting
screen,html.Screen,2_1_0_1_7,2022-05-02T15:28:16.398Z,,,,,,,,,,,,,,,,,53,,,,,,,,,,,,,,346.39400014304556,,response,,,,99,,,,,,,Space,keypress(Space),,,,,,,,---- -- ----- -- ------ - ------- and ----------<br>------------- ------ ------ ---- ---- ------- ----- -- ----<br>-------- ------- -- ---------- --- - --- ----- ----- ----<br>---- --- --- ----- --- ---- ---- ------- ----- ---- -------<br>--- --- -- ----- -- --- ---- -- --- ---- -- ------ ------<br>--- ----- -- ----,764275.600000143,764275.100000143,763912.239,763922.2000000477,763928.706,764278.724,,7,and
screen,html.Screen,2_1_0_1_8,2022-05-02T15:28:16.787Z,,,,,,,,,,,,,,,,,53,,,,,,,,,,,,,,385.07600019068923,,response,,,,99,,,,,,,Space,keypress(Space),,,,,,,,---- -- ----- -- ------ - ------- --- fulfilling<br>------------- ------ ------ ---- ---- ------- ----- -- ----<br>-------- ------- -- ---------- --- - --- ----- ----- ----<br>---- --- --- ----- --- ---- ---- ------- ----- ---- -------<br>--- --- -- ----- -- --- ---- -- --- ---- -- ------ ------<br>--- ----- -- ----,764664.3000001907,764663.8000001907,764262.073,764275.7000000477,764278.724,764678.985,,8,fulfilling
screen,html.Screen,2_1_0_1_9,2022-05-02T15:28:17.155Z,,,,,,,,,,,,,,,,,53,,,,,,,,,,,,,,352.9150000953814,,response,,,,99,,,,,,,Space,keypress(Space),,,,,,,,"---- -- ----- -- ------ - ------- --- ----------<br>relationship, ------ ------ ---- ---- ------- ----- -- ----<br>-------- ------- -- ---------- --- - --- ----- ----- ----<br>---- --- --- ----- --- ---- ---- ------- ----- ---- -------<br>--- --- -- ----- -- --- ---- -- --- ---- -- ------ ------<br>--- ----- -- ----",765032.4000000954,765031.9000000954,764662.237,764664.4000000954,764678.985,765045.459,,9,"relationship,"
screen,html.Screen,2_1_0_1_10,2022-05-02T15:28:17.549Z,,,,,,,,,,,,,,,,,53,,,,,,,,,,,,,,379.94100009533577,,response,,,,99,,,,,,,Space,keypress(Space),,,,,,,,---- -- ----- -- ------ - ------- --- ----------<br>------------- common ------ ---- ---- ------- ----- -- ----<br>-------- ------- -- ---------- --- - --- ----- ----- ----<br>---- --- --- ----- --- ---- ---- ------- ----- ---- -------<br>--- --- -- ----- -- --- ---- -- --- ---- -- ------ ------<br>--- ----- -- ----,765426,765425.4000000954,765028.784,765032.4000000954,765045.459,765428.73,,10,common
screen,html.Screen,2_1_0_1_11,2022-05-02T15:28:17.936Z,,,,,,,,,,,,,,,,,53,,,,,,,,,,,,,,384.3700001430698,,response,,,,99,,,,,,,Space,keypress(Space),,,,,,,,---- -- ----- -- ------ - ------- --- ----------<br>------------- ------ wisdom ---- ---- ------- ----- -- ----<br>-------- ------- -- ---------- --- - --- ----- ----- ----<br>---- --- --- ----- --- ---- ---- ------- ----- ---- -------<br>--- --- -- ----- -- --- ---- -- --- ---- -- ------ ------<br>--- ----- -- ----,765813.600000143,765813.100000143,765412.104,765426,765428.73,765828.828,,11,wisdom
screen,html.Screen,2_1_0_1_12,2022-05-02T15:28:18.383Z,,,,,,,,,,,,,,,,,53,,,,,,,,,,,,,,430.47200019075535,,response,,,,99,,,,,,,Space,keypress(Space),,,,,,,,---- -- ----- -- ------ - ------- --- ----------<br>------------- ------ ------ says ---- ------- ----- -- ----<br>-------- ------- -- ---------- --- - --- ----- ----- ----<br>---- --- --- ----- --- ---- ---- ------- ----- ---- -------<br>--- --- -- ----- -- --- ---- -- --- ---- -- ------ ------<br>--- ----- -- ----,766259.8000001907,766259.3000001907,765812.1,765813.7000000477,765828.828,766283.41,,12,says
screen,html.Screen,2_1_0_1_13,2022-05-02T15:28:18.711Z,,,,,,,,,,,,,,,,,53,,,,,,,,,,,,,,304.49000009533484,,response,,,,99,,,,,,,Space,keypress(Space),,,,,,,,---- -- ----- -- ------ - ------- --- ----------<br>------------- ------ ------ ---- that ------- ----- -- ----<br>-------- ------- -- ---------- --- - --- ----- ----- ----<br>---- --- --- ----- --- ---- ---- ------- ----- ---- -------<br>--- --- -- ----- -- --- ---- -- --- ---- -- ------ ------<br>--- ----- -- ----,766588.4000000954,766587.9000000954,766245.463,766260,766283.41,766595.405,,13,that
screen,html.Screen,2_1_0_1_14,2022-05-02T15:28:19.053Z,,,,,,,,,,,,,,,,,53,,,,,,,,,,,,,,333.9950000953395,,response,,,,99,,,,,,,Space,keypress(Space),,,,,,,,---- -- ----- -- ------ - ------- --- ----------<br>------------- ------ ------ ---- ---- feeling ----- -- ----<br>-------- ------- -- ---------- --- - --- ----- ----- ----<br>---- --- --- ----- --- ---- ---- ------- ----- ---- -------<br>--- --- -- ----- -- --- ---- -- --- ---- -- ------ ------<br>--- ----- -- ----,766930.100000143,766929.4000000954,766578.927,766588.600000143,766595.405,766945.628,,14,feeling
screen,html.Screen,2_1_0_1_15,2022-05-02T15:28:19.479Z,,,,,,,,,,,,,,,,,53,,,,,,,,,,,,,,410.27200009534135,,response,,,,99,,,,,,,Space,keypress(Space),,,,,,,,---- -- ----- -- ------ - ------- --- ----------<br>------------- ------ ------ ---- ---- ------- close -- ----<br>-------- ------- -- ---------- --- - --- ----- ----- ----<br>---- --- --- ----- --- ---- ---- ------- ----- ---- -------<br>--- --- -- ----- -- --- ---- -- --- ---- -- ------ ------<br>--- ----- -- ----,767356.3000001907,767355.9000000954,766928.898,766930.2000000477,766945.628,767362.081,,15,close
screen,html.Screen,2_1_0_1_16,2022-05-02T15:28:19.910Z,,,,,,,,,,,,,,,,,53,,,,,,,,,,,,,,424.4189999999944,,response,,,,99,,,,,,,Space,keypress(Space),,,,,,,,---- -- ----- -- ------ - ------- --- ----------<br>------------- ------ ------ ---- ---- ------- ----- to ----<br>-------- ------- -- ---------- --- - --- ----- ----- ----<br>---- --- --- ----- --- ---- ---- ------- ----- ---- -------<br>--- --- -- ----- -- --- ---- -- --- ---- -- ------ ------<br>--- ----- -- ----,767787,767786.5,767345.574,767356.3000001907,767362.081,767795.412,,16,to
screen,html.Screen,2_1_0_1_17,2022-05-02T15:28:20.338Z,,,,,,,,,,,,,,,,,53,,,,,,,,,,,,,,419.3880001907237,,response,,,,99,,,,,,,Space,keypress(Space),,,,,,,,---- -- ----- -- ------ - ------- --- ----------<br>------------- ------ ------ ---- ---- ------- ----- -- your<br>-------- ------- -- ---------- --- - --- ----- ----- ----<br>---- --- --- ----- --- ---- ---- ------- ----- ---- -------<br>--- --- -- ----- -- --- ---- -- --- ---- -- ------ ------<br>--- ----- -- ----,768215.2000000477,768214.8000001907,767778.932,767787.100000143,767795.412,768228.913,,17,your
screen,html.Screen,2_1_0_1_18,2022-05-02T15:28:20.673Z,,,,,,,,,,,,,,,,,53,,,,,,,,,,,,,,320.78700004774146,,response,,,,99,,,,,,,Space,keypress(Space),,,,,,,,---- -- ----- -- ------ - ------- --- ----------<br>------------- ------ ------ ---- ---- ------- ----- -- ----<br>romantic ------- -- ---------- --- - --- ----- ----- ----<br>---- --- --- ----- --- ---- ---- ------- ----- ---- -------<br>--- --- -- ----- -- --- ---- -- --- ---- -- ------ ------<br>--- ----- -- ----,768550.2000000477,768549.7000000477,768212.212,768215.3000001907,768228.913,768562.154,,18,romantic
screen,html.Screen,2_1_0_1_19,2022-05-02T15:28:20.957Z,,,,,,,,,,,,,,,,,53,,,,,,,,,,,,,,271.4460001430707,,response,,,,99,,,,,,,Space,keypress(Space),,,,,,,,---- -- ----- -- ------ - ------- --- ----------<br>------------- ------ ------ ---- ---- ------- ----- -- ----<br>-------- partner -- ---------- --- - --- ----- ----- ----<br>---- --- --- ----- --- ---- ---- ------- ----- ---- -------<br>--- --- -- ----- -- --- ---- -- --- ---- -- ------ ------<br>--- ----- -- ----,768834,768833.600000143,768545.53,768550.2000000477,768562.154,768845.368,,19,partner
screen,html.Screen,2_1_0_1_20,2022-05-02T15:28:21.374Z,,,,,,,,,,,,,,,,,53,,,,,,,,,,,,,,405.53200009535067,,response,,,,99,,,,,,,Space,keypress(Space),,,,,,,,---- -- ----- -- ------ - ------- --- ----------<br>------------- ------ ------ ---- ---- ------- ----- -- ----<br>-------- ------- is ---------- --- - --- ----- ----- ----<br>---- --- --- ----- --- ---- ---- ------- ----- ---- -------<br>--- --- -- ----- -- --- ---- -- --- ---- -- ------ ------<br>--- ----- -- ----,769251.3000001907,769250.9000000954,768828.86,768834.100000143,768845.368,769262.245,,20,is
screen,html.Screen,2_1_0_1_21,2022-05-02T15:28:21.738Z,,,,,,,,,,,,,,,,,53,,,,,,,,,,,,,,352.0550001907395,,response,,,,99,,,,,,,Space,keypress(Space),,,,,,,,---- -- ----- -- ------ - ------- --- ----------<br>------------- ------ ------ ---- ---- ------- ----- -- ----<br>-------- ------- -- paramount. --- - --- ----- ----- ----<br>---- --- --- ----- --- ---- ---- ------- ----- ---- -------<br>--- --- -- ----- -- --- ---- -- --- ---- -- ------ ------<br>--- ----- -- ----,769614.9000000954,769614.3000001907,769245.53,769251.4000000954,769262.245,769628.854,,21,paramount.
screen,html.Screen,2_1_0_1_22,2022-05-02T15:28:22.085Z,,,,,,,,,,,,,,,,,53,,,,,,,,,,,,,,332.54600009531714,,response,,,,99,,,,,,,Space,keypress(Space),,,,,,,,---- -- ----- -- ------ - ------- --- ----------<br>------------- ------ ------ ---- ---- ------- ----- -- ----<br>-------- ------- -- ---------- But - --- ----- ----- ----<br>---- --- --- ----- --- ---- ---- ------- ----- ---- -------<br>--- --- -- ----- -- --- ---- -- --- ---- -- ------ ------<br>--- ----- -- ----,769961.9000000954,769961.4000000954,769612.19,769615,769628.854,769978.863,,22,But
screen,html.Screen,2_1_0_1_23,2022-05-02T15:28:22.427Z,,,,,,,,,,,,,,,,,53,,,,,,,,,,,,,,324.5370000953553,,response,,,,99,,,,,,,Space,keypress(Space),,,,,,,,---- -- ----- -- ------ - ------- --- ----------<br>------------- ------ ------ ---- ---- ------- ----- -- ----<br>-------- ------- -- ---------- --- a --- ----- ----- ----<br>---- --- --- ----- --- ---- ---- ------- ----- ---- -------<br>--- --- -- ----- -- --- ---- -- --- ---- -- ------ ------<br>--- ----- -- ----,770303.8000001907,770303.4000000954,769962.196,769962,769978.863,770312.201,,23,a
screen,html.Screen,2_1_0_1_24,2022-05-02T15:28:22.797Z,,,,,,,,,,,,,,,,,53,,,,,,,,,,,,,,361.29899999999907,,response,,,,99,,,,,,,Space,keypress(Space),,,,,,,,---- -- ----- -- ------ - ------- --- ----------<br>------------- ------ ------ ---- ---- ------- ----- -- ----<br>-------- ------- -- ---------- --- - new ----- ----- ----<br>---- --- --- ----- --- ---- ---- ------- ----- ---- -------<br>--- --- -- ----- -- --- ---- -- --- ---- -- ------ ------<br>--- ----- -- ----,770674,770673.5,770295.49,770303.8000001907,770312.201,770678.742,,24,new
screen,html.Screen,2_1_0_1_25,2022-05-02T15:28:23.128Z,,,,,,,,,,,,,,,,,53,,,,,,,,,,,,,,325.3580001430819,,response,,,,99,,,,,,,Space,keypress(Space),,,,,,,,---- -- ----- -- ------ - ------- --- ----------<br>------------- ------ ------ ---- ---- ------- ----- -- ----<br>-------- ------- -- ---------- --- - --- study ----- ----<br>---- --- --- ----- --- ---- ---- ------- ----- ---- -------<br>--- --- -- ----- -- --- ---- -- --- ---- -- ------ ------<br>--- ----- -- ----,771004.600000143,771004.100000143,770662.179,770674.100000143,770678.742,771012.193,,25,study
screen,html.Screen,2_1_0_1_26,2022-05-02T15:28:23.456Z,,,,,,,,,,,,,,,,,53,,,,,,,,,,,,,,320.10700019076467,,response,,,,99,,,,,,,Space,keypress(Space),,,,,,,,---- -- ----- -- ------ - ------- --- ----------<br>------------- ------ ------ ---- ---- ------- ----- -- ----<br>-------- ------- -- ---------- --- - --- ----- finds ----<br>---- --- --- ----- --- ---- ---- ------- ----- ---- -------<br>--- --- -- ----- -- --- ---- -- --- ---- -- ------ ------<br>--- ----- -- ----,771332.8000001907,771332.3000001907,770995.435,771004.7000000477,771012.193,771345.513,,26,finds
screen,html.Screen,2_1_0_1_27,2022-05-02T15:28:23.815Z,,,,,,,,,,,,,,,,,53,,,,,,,,,,,,,,346.4869999999646,,response,,,,99,,,,,,,Space,keypress(Space),,,,,,,,---- -- ----- -- ------ - ------- --- ----------<br>------------- ------ ------ ---- ---- ------- ----- -- ----<br>-------- ------- -- ---------- --- - --- ----- ----- that<br>---- --- --- ----- --- ---- ---- ------- ----- ---- -------<br>--- --- -- ----- -- --- ---- -- --- ---- -- ------ ------<br>--- ----- -- ----,771692.3000001907,771692,771328.642,771333,771345.513,771695.323,,27,that
screen,html.Screen,2_1_0_1_28,2022-05-02T15:28:24.131Z,,,,,,,,,,,,,,,,,53,,,,,,,,,,,,,,312.0770000953926,,response,,,,99,,,,,,,Space,keypress(Space),,,,,,,,---- -- ----- -- ------ - ------- --- ----------<br>------------- ------ ------ ---- ---- ------- ----- -- ----<br>-------- ------- -- ---------- --- - --- ----- ----- ----<br>it's --- --- ----- --- ---- ---- ------- ----- ---- -------<br>--- --- -- ----- -- --- ---- -- --- ---- -- ------ ------<br>--- ----- -- ----,772007.9000000954,772007.4000000954,771678.612,771692.4000000954,771695.323,772012.038,,28,it's
screen,html.Screen,2_1_0_1_29,2022-05-02T15:28:24.453Z,,,,,,,,,,,,,,,,,53,,,,,,,,,,,,,,317.7620001907926,,response,,,,99,,,,,,,Space,keypress(Space),,,,,,,,---- -- ----- -- ------ - ------- --- ----------<br>------------- ------ ------ ---- ---- ------- ----- -- ----<br>-------- ------- -- ---------- --- - --- ----- ----- ----<br>---- not --- ----- --- ---- ---- ------- ----- ---- -------<br>--- --- -- ----- -- --- ---- -- --- ---- -- ------ ------<br>--- ----- -- ----,772330.2000000477,772329.8000001907,771995.329,772008,772012.038,772345.26,,29,not
screen,html.Screen,2_1_0_1_30,2022-05-02T15:28:24.781Z,,,,,,,,,,,,,,,,,53,,,,,,,,,,,,,,312.4400000476744,,response,,,,99,,,,,,,Space,keypress(Space),,,,,,,,---- -- ----- -- ------ - ------- --- ----------<br>------------- ------ ------ ---- ---- ------- ----- -- ----<br>-------- ------- -- ---------- --- - --- ----- ----- ----<br>---- --- how ----- --- ---- ---- ------- ----- ---- -------<br>--- --- -- ----- -- --- ---- -- --- ---- -- ------ ------<br>--- ----- -- ----,772658.3000001907,772657.7000000477,772328.628,772330.3000001907,772345.26,772661.98,,30,how
screen,html.Screen,2_1_0_1_31,2022-05-02T15:28:25.126Z,,,,,,,,,,,,,,,,,53,,,,,,,,,,,,,,340.22000004770234,,response,,,,99,,,,,,,Space,keypress(Space),,,,,,,,---- -- ----- -- ------ - ------- --- ----------<br>------------- ------ ------ ---- ---- ------- ----- -- ----<br>-------- ------- -- ---------- --- - --- ----- ----- ----<br>---- --- --- close --- ---- ---- ------- ----- ---- -------<br>--- --- -- ----- -- --- ---- -- --- ---- -- ------ ------<br>--- ----- -- ----,773002.8000001907,773002.2000000477,772645.246,772658.4000000954,772661.98,773011.869,,31,close
screen,html.Screen,2_1_0_1_32,2022-05-02T15:28:25.425Z,,,,,,,,,,,,,,,,,53,,,,,,,,,,,,,,289.63100000005215,,response,,,,99,,,,,,,Space,keypress(Space),,,,,,,,---- -- ----- -- ------ - ------- --- ----------<br>------------- ------ ------ ---- ---- ------- ----- -- ----<br>-------- ------- -- ---------- --- - --- ----- ----- ----<br>---- --- --- ----- you ---- ---- ------- ----- ---- -------<br>--- --- -- ----- -- --- ---- -- --- ---- -- ------ ------<br>--- ----- -- ----,773302.100000143,773301.5,772995.266,773002.8000001907,773011.869,773311.832,,32,you
screen,html.Screen,2_1_0_1_33,2022-05-02T15:28:25.753Z,,,,,,,,,,,,,,,,,53,,,,,,,,,,,,,,317.86800004763063,,response,,,,99,,,,,,,Space,keypress(Space),,,,,,,,---- -- ----- -- ------ - ------- --- ----------<br>------------- ------ ------ ---- ---- ------- ----- -- ----<br>-------- ------- -- ---------- --- - --- ----- ----- ----<br>---- --- --- ----- --- feel ---- ------- ----- ---- -------<br>--- --- -- ----- -- --- ---- -- --- ---- -- ------ ------<br>--- ----- -- ----,773630.3000001907,773629.7000000477,773295.236,773302.100000143,773311.832,773645.187,,33,feel
screen,html.Screen,2_1_0_1_34,2022-05-02T15:28:26.044Z,,,,,,,,,,,,,,,,,53,,,,,,,,,,,,,,275.81299999996554,,response,,,,99,,,,,,,Space,keypress(Space),,,,,,,,---- -- ----- -- ------ - ------- --- ----------<br>------------- ------ ------ ---- ---- ------- ----- -- ----<br>-------- ------- -- ---------- --- - --- ----- ----- ----<br>---- --- --- ----- --- ---- that ------- ----- ---- -------<br>--- --- -- ----- -- --- ---- -- --- ---- -- ------ ------<br>--- ----- -- ----,773921.4000000954,773921,773628.407,773630.5,773645.187,773928.483,,34,that
screen,html.Screen,2_1_0_1_35,2022-05-02T15:28:26.319Z,,,,,,,,,,,,,,,,,53,,,,,,,,,,,,,,267.1170001430437,,response,,,,99,,,,,,,Space,keypress(Space),,,,,,,,---- -- ----- -- ------ - ------- --- ----------<br>------------- ------ ------ ---- ---- ------- ----- -- ----<br>-------- ------- -- ---------- --- - --- ----- ----- ----<br>---- --- --- ----- --- ---- ---- matters ----- ---- -------<br>--- --- -- ----- -- --- ---- -- --- ---- -- ------ ------<br>--- ----- -- ----,774195.9000000954,774195.600000143,773912.082,773921.5,773928.483,774211.897,,35,matters
screen,html.Screen,2_1_0_1_36,2022-05-02T15:28:26.596Z,,,,,,,,,,,,,,,,,53,,,,,,,,,,,,,,260.6030000000028,,response,,,,99,,,,,,,Space,keypress(Space),,,,,,,,"---- -- ----- -- ------ - ------- --- ----------<br>------------- ------ ------ ---- ---- ------- ----- -- ----<br>-------- ------- -- ---------- --- - --- ----- ----- ----<br>---- --- --- ----- --- ---- ---- ------- most, ---- -------<br>--- --- -- ----- -- --- ---- -- --- ---- -- ------ ------<br>--- ----- -- ----",774473.100000143,774472.5,774195.385,774195.9000000954,774211.897,774478.547,,36,"most,"
screen,html.Screen,2_1_0_1_37,2022-05-02T15:28:26.954Z,,,,,,,,,,,,,,,,,53,,,,,,,,,,,,,,351.35300009534694,,response,,,,99,,,,,,,Space,keypress(Space),,,,,,,,---- -- ----- -- ------ - ------- --- ----------<br>------------- ------ ------ ---- ---- ------- ----- -- ----<br>-------- ------- -- ---------- --- - --- ----- ----- ----<br>---- --- --- ----- --- ---- ---- ------- ----- it's -------<br>--- --- -- ----- -- --- ---- -- --- ---- -- ------ ------<br>--- ----- -- ----,774830.600000143,774829.9000000954,774462.037,774473.2000000477,774478.547,774845.376,,37,it's
screen,html.Screen,2_1_0_1_38,2022-05-02T15:28:27.391Z,,,,,,,,,,,,,,,,,53,,,,,,,,,,,,,,421.72400014300365,,response,,,,99,,,,,,,Space,keypress(Space),,,,,,,,---- -- ----- -- ------ - ------- --- ----------<br>------------- ------ ------ ---- ---- ------- ----- -- ----<br>-------- ------- -- ---------- --- - --- ----- ----- ----<br>---- --- --- ----- --- ---- ---- ------- ----- ---- whether<br>--- --- -- ----- -- --- ---- -- --- ---- -- ------ ------<br>--- ----- -- ----,775267.600000143,775267.100000143,774828.692,774830.7000000477,774845.376,775278.433,,38,whether
screen,html.Screen,2_1_0_1_39,2022-05-02T15:28:27.746Z,,,,,,,,,,,,,,,,,53,,,,,,,,,,,,,,344.26700004772283,,response,,,,99,,,,,,,Space,keypress(Space),,,,,,,,---- -- ----- -- ------ - ------- --- ----------<br>------------- ------ ------ ---- ---- ------- ----- -- ----<br>-------- ------- -- ---------- --- - --- ----- ----- ----<br>---- --- --- ----- --- ---- ---- ------- ----- ---- -------<br>you --- -- ----- -- --- ---- -- --- ---- -- ------ ------<br>--- ----- -- ----,775623.100000143,775622.7000000477,775262.04,775267.7000000477,775278.433,775628.348,,39,you
screen,html.Screen,2_1_0_1_40,2022-05-02T15:28:28.032Z,,,,,,,,,,,,,,,,,53,,,,,,,,,,,,,,279.752000143053,,response,,,,99,,,,,,,Space,keypress(Space),,,,,,,,---- -- ----- -- ------ - ------- --- ----------<br>------------- ------ ------ ---- ---- ------- ----- -- ----<br>-------- ------- -- ---------- --- - --- ----- ----- ----<br>---- --- --- ----- --- ---- ---- ------- ----- ---- -------<br>--- are -- ----- -- --- ---- -- --- ---- -- ------ ------<br>--- ----- -- ----,775908.600000143,775908.100000143,775611.985,775623.2000000477,775628.348,775911.879,,40,are
screen,html.Screen,2_1_0_1_41,2022-05-02T15:28:28.385Z,,,,,,,,,,,,,,,,,53,,,,,,,,,,,,,,349.9210001907777,,response,,,,99,,,,,,,Space,keypress(Space),,,,,,,,---- -- ----- -- ------ - ------- --- ----------<br>------------- ------ ------ ---- ---- ------- ----- -- ----<br>-------- ------- -- ---------- --- - --- ----- ----- ----<br>---- --- --- ----- --- ---- ---- ------- ----- ---- -------<br>--- --- as ----- -- --- ---- -- --- ---- -- ------ ------<br>--- ----- -- ----,776262.2000000477,776261.8000001907,775895.083,775908.7000000477,775911.879,776278.586,,41,as
screen,html.Screen,2_1_0_1_42,2022-05-02T15:28:28.668Z,,,,,,,,,,,,,,,,,53,,,,,,,,,,,,,,266.2140001907246,,response,,,,99,,,,,,,Space,keypress(Space),,,,,,,,---- -- ----- -- ------ - ------- --- ----------<br>------------- ------ ------ ---- ---- ------- ----- -- ----<br>-------- ------- -- ---------- --- - --- ----- ----- ----<br>---- --- --- ----- --- ---- ---- ------- ----- ---- -------<br>--- --- -- close -- --- ---- -- --- ---- -- ------ ------<br>--- ----- -- ----,776545.4000000954,776544.8000001907,776261.809,776262.3000001907,776278.586,776561.765,,42,close
screen,html.Screen,2_1_0_1_43,2022-05-02T15:28:29.004Z,,,,,,,,,,,,,,,,,53,,,,,,,,,,,,,,318.43500004766975,,response,,,,99,,,,,,,Space,keypress(Space),,,,,,,,---- -- ----- -- ------ - ------- --- ----------<br>------------- ------ ------ ---- ---- ------- ----- -- ----<br>-------- ------- -- ---------- --- - --- ----- ----- ----<br>---- --- --- ----- --- ---- ---- ------- ----- ---- -------<br>--- --- -- ----- as --- ---- -- --- ---- -- ------ ------<br>--- ----- -- ----,776880.9000000954,776880.2000000477,776545.298,776545.4000000954,776561.765,776895.313,,43,as
screen,html.Screen,2_1_0_1_44,2022-05-02T15:28:29.310Z,,,,,,,,,,,,,,,,,53,,,,,,,,,,,,,,291.68700000003446,,response,,,,99,,,,,,,Space,keypress(Space),,,,,,,,---- -- ----- -- ------ - ------- --- ----------<br>------------- ------ ------ ---- ---- ------- ----- -- ----<br>-------- ------- -- ---------- --- - --- ----- ----- ----<br>---- --- --- ----- --- ---- ---- ------- ----- ---- -------<br>--- --- -- ----- -- you ---- -- --- ---- -- ------ ------<br>--- ----- -- ----,777187.5,777187,776878.475,776880.9000000954,776895.313,777195.335,,44,you
screen,html.Screen,2_1_0_1_45,2022-05-02T15:28:29.624Z,,,,,,,,,,,,,,,,,53,,,,,,,,,,,,,,305.16500000003725,,response,,,,99,,,,,,,Space,keypress(Space),,,,,,,,---- -- ----- -- ------ - ------- --- ----------<br>------------- ------ ------ ---- ---- ------- ----- -- ----<br>-------- ------- -- ---------- --- - --- ----- ----- ----<br>---- --- --- ----- --- ---- ---- ------- ----- ---- -------<br>--- --- -- ----- -- --- want -- --- ---- -- ------ ------<br>--- ----- -- ----,777501,777500.5,777178.65,777187.600000143,777195.335,777512.011,,45,want
screen,html.Screen,2_1_0_1_46,2022-05-02T15:28:29.964Z,,,,,,,,,,,,,,,,,53,,,,,,,,,,,,,,328.28900019067805,,response,,,,99,,,,,,,Space,keypress(Space),,,,,,,,---- -- ----- -- ------ - ------- --- ----------<br>------------- ------ ------ ---- ---- ------- ----- -- ----<br>-------- ------- -- ---------- --- - --- ----- ----- ----<br>---- --- --- ----- --- ---- ---- ------- ----- ---- -------<br>--- --- -- ----- -- --- ---- to --- ---- -- ------ ------<br>--- ----- -- ----,777840.8000001907,777840.3000001907,777495.288,777501.100000143,777512.011,777845.225,,46,to
screen,html.Screen,2_1_0_1_47,2022-05-02T15:28:30.230Z,,,,,,,,,,,,,,,,,53,,,,,,,,,,,,,,261.87500014307443,,response,,,,99,,,,,,,Space,keypress(Space),,,,,,,,"---- -- ----- -- ------ - ------- --- ----------<br>------------- ------ ------ ---- ---- ------- ----- -- ----<br>-------- ------- -- ---------- --- - --- ----- ----- ----<br>---- --- --- ----- --- ---- ---- ------- ----- ---- -------<br>--- --- -- ----- -- --- ---- -- be, ---- -- ------ ------<br>--- ----- -- ----",778107.600000143,778107.100000143,777828.604,777840.9000000954,777845.225,778111.811,,47,"be,"
screen,html.Screen,2_1_0_1_48,2022-05-02T15:28:30.517Z,,,,,,,,,,,,,,,,,53,,,,,,,,,,,,,,281.2890001430642,,response,,,,99,,,,,,,Space,keypress(Space),,,,,,,,---- -- ----- -- ------ - ------- --- ----------<br>------------- ------ ------ ---- ---- ------- ----- -- ----<br>-------- ------- -- ---------- --- - --- ----- ----- ----<br>---- --- --- ----- --- ---- ---- ------- ----- ---- -------<br>--- --- -- ----- -- --- ---- -- --- even -- ------ ------<br>--- ----- -- ----,778393.7000000477,778393.100000143,778095.246,778107.7000000477,778111.811,778427.676,,48,even
screen,html.Screen,2_1_0_1_49,2022-05-02T15:28:30.875Z,,,,,,,,,,,,,,,,,53,,,,,,,,,,,,,,323.7240000953898,,response,,,,99,,,,,,,Space,keypress(Space),,,,,,,,---- -- ----- -- ------ - ------- --- ----------<br>------------- ------ ------ ---- ---- ------- ----- -- ----<br>-------- ------- -- ---------- --- - --- ----- ----- ----<br>---- --- --- ----- --- ---- ---- ------- ----- ---- -------<br>--- --- -- ----- -- --- ---- -- --- ---- if ------ ------<br>--- ----- -- ----,778751.9000000954,778751.4000000954,778378.542,778393.7000000477,778427.676,778761.653,,49,if
screen,html.Screen,2_1_0_1_50,2022-05-02T15:28:31.152Z,,,,,,,,,,,,,,,,,53,,,,,,,,,,,,,,266.84699999995064,,response,,,,99,,,,,,,Space,keypress(Space),,,,,,,,---- -- ----- -- ------ - ------- --- ----------<br>------------- ------ ------ ---- ---- ------- ----- -- ----<br>-------- ------- -- ---------- --- - --- ----- ----- ----<br>---- --- --- ----- --- ---- ---- ------- ----- ---- -------<br>--- --- -- ----- -- --- ---- -- --- ---- -- that's ------<br>--- ----- -- ----,779028.9000000954,779028.5,778745.152,778752,778761.653,779045.287,,50,that's
screen,html.Screen,2_1_0_1_51,2022-05-02T15:28:31.491Z,,,,,,,,,,,,,,,,,53,,,,,,,,,,,,,,322.5130001907237,,response,,,,99,,,,,,,Space,keypress(Space),,,,,,,,---- -- ----- -- ------ - ------- --- ----------<br>------------- ------ ------ ---- ---- ------- ----- -- ----<br>-------- ------- -- ---------- --- - --- ----- ----- ----<br>---- --- --- ----- --- ---- ---- ------- ----- ---- -------<br>--- --- -- ----- -- --- ---- -- --- ---- -- ------ really<br>--- ----- -- ----,779368.4000000954,779367.8000001907,779028.594,779029.100000143,779045.287,779378.41,,51,really
screen,html.Screen,2_1_0_1_52,2022-05-02T15:28:31.865Z,,,,,,,,,,,,,,,,,53,,,,,,,,,,,,,,362.89000019070227,,response,,,,99,,,,,,,Space,keypress(Space),,,,,,,,---- -- ----- -- ------ - ------- --- ----------<br>------------- ------ ------ ---- ---- ------- ----- -- ----<br>-------- ------- -- ---------- --- - --- ----- ----- ----<br>---- --- --- ----- --- ---- ---- ------- ----- ---- -------<br>--- --- -- ----- -- --- ---- -- --- ---- -- ------ ------<br>not ----- -- ----,779741.7000000477,779741.3000001907,779361.898,779368.4000000954,779378.41,779745.065,,52,not
screen,html.Screen,2_1_0_1_53,2022-05-02T15:28:32.192Z,,,,,,,,,,,,,,,,,53,,,,,,,,,,,,,,323.6350000477396,,response,,,,99,,,,,,,Space,keypress(Space),,,,,,,,---- -- ----- -- ------ - ------- --- ----------<br>------------- ------ ------ ---- ---- ------- ----- -- ----<br>-------- ------- -- ---------- --- - --- ----- ----- ----<br>---- --- --- ----- --- ---- ---- ------- ----- ---- -------<br>--- --- -- ----- -- --- ---- -- --- ---- -- ------ ------<br>--- close -- ----,780069.4000000954,780068.7000000477,779728.485,779741.8000001907,779745.065,780078.385,,53,close
screen,html.Screen,2_1_0_1_54,2022-05-02T15:28:32.546Z,,,,,,,,,,,,,,,,,53,,,,,,,,,,,,,,344.1149999999907,,response,,,,99,,,,,,,Space,keypress(Space),,,,,,,,---- -- ----- -- ------ - ------- --- ----------<br>------------- ------ ------ ---- ---- ------- ----- -- ----<br>-------- ------- -- ---------- --- - --- ----- ----- ----<br>---- --- --- ----- --- ---- ---- ------- ----- ---- -------<br>--- --- -- ----- -- --- ---- -- --- ---- -- ------ ------<br>--- ----- at ----,780423,780422.5,780061.805,780069.4000000954,780078.385,780428.397,,54,at
screen,html.Screen,2_1_0_1_55,2022-05-02T15:28:32.982Z,,,,,,,,,,,,,,,,,53,,,,,,,,,,,,,,429.70300014305394,,response,,,,99,,,,,,,Space,keypress(Space),,,,,,,,---- -- ----- -- ------ - ------- --- ----------<br>------------- ------ ------ ---- ---- ------- ----- -- ----<br>-------- ------- -- ---------- --- - --- ----- ----- ----<br>---- --- --- ----- --- ---- ---- ------- ----- ---- -------<br>--- --- -- ----- -- --- ---- -- --- ---- -- ------ ------<br>--- ----- -- all.,780858.7000000477,780858.100000143,780411.85,780423.100000143,780428.397,780861.682,,55,all.
Item 99,flow.Loop,2_1_0_1,2022-05-02T15:28:32.982Z,,,,,,,,,,,,,,,,,,,,,,,,,,,,,,,20512.375000143074,,completion,,,,,G,,,,,,,,,,,silence,,,,,780858.8000001907,780858.100000143,760329.124,760329.8000001907,760345.725,780861.682,,,
Question 1,html.Screen,2_1_0_2,2022-05-02T15:28:47.120Z,,,,,,,,,,,,,,,,,,,,,,,,,,,,true,FALSE,,14131.118000190705,,response,,,,99,G,,,,,,FALSE,click #choice-2,,,,silence,,,,,794993.7000000477,794992.8000001907,780845.202,780858.8000001907,780861.682,794994.649,,,
Question 2,html.Screen,2_1_0_3,2022-05-02T15:28:57.458Z,,,,,,,,,,,,,,,,,,,,,,,,,,,,true,TRUE,,10335.651000190759,,response,,,,99,G,,,,,,TRUE,click #choice-1,,,,silence,,,,,805331,805330.3000001907,794978.141,794993.8000001907,794994.649,805344.457,,,
Item 99,flow.Sequence,2_1_0,2022-05-02T15:28:57.458Z,,,,,,,,,,,,,,,,,,,,,,,,,,,,,,,54984.472000190755,,completion,,,,,,,,,,,,,,,,,,,,,805331.100000143,805330.3000001907,750329.195,750324.2000000477,750345.828,805344.457,,,
Holding screen,html.Screen,2_1_1_0,2022-05-02T15:29:07.455Z,,,,,,,,,,,,,,,,,,,,,,,,,,,,,,,9999.80999999994,,timeout,,,,,,,,,,,,,,,,,,,,,815328.5,815327.545,805327.924,805331.2000000477,805344.457,815344.267,,,
screen,html.Screen,2_1_1_1_0,2022-05-02T15:29:10.078Z,,,,,,,,,,,,,,,,,54,,,,,,,,,,,,,,2606.433000047691,,response,,,,100,,,,,,,Space,keypress(Space),,,,,,,,At --- ---- --- ------ ----- ------- ---- -- --- ------- --<br>------- ---------- ------ -- ----- -- ----- -- ---- ------<br>--- ----- --- --- ------ -------- ----- --- ------ ----- --<br>----- ----- ---------- --- --- ------ ------ ---- -- ------<br>------- --- ------ ----- --- ---- ------- -- ---- --- --<br>------- ------,817951.2000000477,817950.7000000477,815327.545,815328.600000143,815344.267,817960.575,,0,At
screen,html.Screen,2_1_1_1_1,2022-05-02T15:29:10.504Z,,,,,,,,,,,,,,,,,54,,,,,,,,,,,,,,416.5250001430977,,response,,,,100,,,,,,,Space,keypress(Space),,,,,,,,-- the ---- --- ------ ----- ------- ---- -- --- ------- --<br>------- ---------- ------ -- ----- -- ----- -- ---- ------<br>--- ----- --- --- ------ -------- ----- --- ------ ----- --<br>----- ----- ---------- --- --- ------ ------ ---- -- ------<br>------- --- ------ ----- --- ---- ------- -- ---- --- --<br>------- ------,818377.7000000477,818377.100000143,817944.258,817951.3000001907,817960.575,818394.168,,1,the
screen,html.Screen,2_1_1_1_2,2022-05-02T15:29:10.897Z,,,,,,,,,,,,,,,,,54,,,,,,,,,,,,,,375.5320000477368,,response,,,,100,,,,,,,Space,keypress(Space),,,,,,,,-- --- time --- ------ ----- ------- ---- -- --- ------- --<br>------- ---------- ------ -- ----- -- ----- -- ---- ------<br>--- ----- --- --- ------ -------- ----- --- ------ ----- --<br>----- ----- ---------- --- --- ------ ------ ---- -- ------<br>------- --- ------ ----- --- ---- ------- -- ---- --- --<br>------- ------,818770.2000000477,818769.7000000477,818377.48,818377.8000001907,818394.168,818777.269,,2,time
screen,html.Screen,2_1_1_1_3,2022-05-02T15:29:11.293Z,,,,,,,,,,,,,,,,,54,,,,,,,,,,,,,,388.1310000953963,,response,,,,100,,,,,,,Space,keypress(Space),,,,,,,,-- --- ---- the ------ ----- ------- ---- -- --- ------- --<br>------- ---------- ------ -- ----- -- ----- -- ---- ------<br>--- ----- --- --- ------ -------- ----- --- ------ ----- --<br>----- ----- ---------- --- --- ------ ------ ---- -- ------<br>------- --- ------ ----- --- ---- ------- -- ---- --- --<br>------- ------,819165.9000000954,819165.4000000954,818760.764,818770.3000001907,818777.269,819177.302,,3,the
screen,html.Screen,2_1_1_1_4,2022-05-02T15:29:11.615Z,,,,,,,,,,,,,,,,,54,,,,,,,,,,,,,,309.9980001907097,,response,,,,100,,,,,,,Space,keypress(Space),,,,,,,,-- --- ---- --- French ----- ------- ---- -- --- ------- --<br>------- ---------- ------ -- ----- -- ----- -- ---- ------<br>--- ----- --- --- ------ -------- ----- --- ------ ----- --<br>----- ----- ---------- --- --- ------ ------ ---- -- ------<br>------- --- ------ ----- --- ---- ------- -- ---- --- --<br>------- ------,819488,819487.3000001907,819160.745,819166,819177.302,819494.068,,4,French
screen,html.Screen,2_1_1_1_5,2022-05-02T15:29:11.991Z,,,,,,,,,,,,,,,,,54,,,,,,,,,,,,,,370.03200014308095,,response,,,,100,,,,,,,Space,keypress(Space),,,,,,,,-- --- ---- --- ------ crown ------- ---- -- --- ------- --<br>------- ---------- ------ -- ----- -- ----- -- ---- ------<br>--- ----- --- --- ------ -------- ----- --- ------ ----- --<br>----- ----- ---------- --- --- ------ ------ ---- -- ------<br>------- --- ------ ----- --- ---- ------- -- ---- --- --<br>------- ------,819864.600000143,819864.100000143,819477.387,819488,819494.068,819877.483,,5,crown
screen,html.Screen,2_1_1_1_6,2022-05-02T15:29:12.351Z,,,,,,,,,,,,,,,,,54,,,,,,,,,,,,,,345.91700009536,,response,,,,100,,,,,,,Space,keypress(Space),,,,,,,,-- --- ---- --- ------ ----- secured ---- -- --- ------- --<br>------- ---------- ------ -- ----- -- ----- -- ---- ------<br>--- ----- --- --- ------ -------- ----- --- ------ ----- --<br>----- ----- ---------- --- --- ------ ------ ---- -- ------<br>------- --- ------ ----- --- ---- ------- -- ---- --- --<br>------- ------,820223.7000000477,820223.4000000954,819860.777,819864.7000000477,819877.483,820227.284,,6,secured
screen,html.Screen,2_1_1_1_7,2022-05-02T15:29:12.706Z,,,,,,,,,,,,,,,,,54,,,,,,,,,,,,,,351.2160000000149,,response,,,,100,,,,,,,Space,keypress(Space),,,,,,,,-- --- ---- --- ------ ----- ------- much -- --- ------- --<br>------- ---------- ------ -- ----- -- ----- -- ---- ------<br>--- ----- --- --- ------ -------- ----- --- ------ ----- --<br>----- ----- ---------- --- --- ------ ------ ---- -- ------<br>------- --- ------ ----- --- ---- ------- -- ---- --- --<br>------- ------,820579.2000000477,820578.5,820210.489,820223.8000001907,820227.284,820594.099,,7,much
screen,html.Screen,2_1_1_1_8,2022-05-02T15:29:13.071Z,,,,,,,,,,,,,,,,,54,,,,,,,,,,,,,,349.8010000953218,,response,,,,100,,,,,,,Space,keypress(Space),,,,,,,,-- --- ---- --- ------ ----- ------- ---- of --- ------- --<br>------- ---------- ------ -- ----- -- ----- -- ---- ------<br>--- ----- --- --- ------ -------- ----- --- ------ ----- --<br>----- ----- ---------- --- --- ------ ------ ---- -- ------<br>------- --- ------ ----- --- ---- ------- -- ---- --- --<br>------- ------,820944.4000000954,820943.9000000954,820577.39,820579.3000001907,820594.099,820960.545,,8,of
screen,html.Screen,2_1_1_1_9,2022-05-02T15:29:13.362Z,,,,,,,,,,,,,,,,,54,,,,,,,,,,,,,,274.4549999999581,,response,,,,100,,,,,,,Space,keypress(Space),,,,,,,,-- --- ---- --- ------ ----- ------- ---- -- its ------- --<br>------- ---------- ------ -- ----- -- ----- -- ---- ------<br>--- ----- --- --- ------ -------- ----- --- ------ ----- --<br>----- ----- ---------- --- --- ------ ------ ---- -- ------<br>------- --- ------ ----- --- ---- ------- -- ---- --- --<br>------- ------,821235.4000000954,821235,820944.101,820944.5,820960.545,821243.864,,9,its
screen,html.Screen,2_1_1_1_10,2022-05-02T15:29:13.635Z,,,,,,,,,,,,,,,,,54,,,,,,,,,,,,,,264.23600014310796,,response,,,,100,,,,,,,Space,keypress(Space),,,,,,,,-- --- ---- --- ------ ----- ------- ---- -- --- revenue --<br>------- ---------- ------ -- ----- -- ----- -- ---- ------<br>--- ----- --- --- ------ -------- ----- --- ------ ----- --<br>----- ----- ---------- --- --- ------ ------ ---- -- ------<br>------- --- ------ ----- --- ---- ------- -- ---- --- --<br>------- ------,821508.600000143,821508.100000143,821227.387,821235.4000000954,821243.864,821510.43,,10,revenue
screen,html.Screen,2_1_1_1_11,2022-05-02T15:29:14.051Z,,,,,,,,,,,,,,,,,54,,,,,,,,,,,,,,413.4700000953162,,response,,,,100,,,,,,,Space,keypress(Space),,,,,,,,-- --- ---- --- ------ ----- ------- ---- -- --- ------- by<br>------- ---------- ------ -- ----- -- ----- -- ---- ------<br>--- ----- --- --- ------ -------- ----- --- ------ ----- --<br>----- ----- ---------- --- --- ------ ------ ---- -- ------<br>------- --- ------ ----- --- ---- ------- -- ---- --- --<br>------- ------,821924.4000000954,821923.9000000954,821493.737,821508.600000143,821510.43,821927.299,,11,by
screen,html.Screen,2_1_1_1_12,2022-05-02T15:29:14.380Z,,,,,,,,,,,,,,,,,54,,,,,,,,,,,,,,324.8010001430521,,response,,,,100,,,,,,,Space,keypress(Space),,,,,,,,-- --- ---- --- ------ ----- ------- ---- -- --- ------- --<br>issuing ---------- ------ -- ----- -- ----- -- ---- ------<br>--- ----- --- --- ------ -------- ----- --- ------ ----- --<br>----- ----- ---------- --- --- ------ ------ ---- -- ------<br>------- --- ------ ----- --- ---- ------- -- ---- --- --<br>------- ------,822252.8000001907,822252.100000143,821910.664,821924.4000000954,821927.299,822260.741,,12,issuing
screen,html.Screen,2_1_1_1_13,2022-05-02T15:29:14.824Z,,,,,,,,,,,,,,,,,54,,,,,,,,,,,,,,435.85900014301296,,response,,,,100,,,,,,,Space,keypress(Space),,,,,,,,-- --- ---- --- ------ ----- ------- ---- -- --- ------- --<br>------- government ------ -- ----- -- ----- -- ---- ------<br>--- ----- --- --- ------ -------- ----- --- ------ ----- --<br>----- ----- ---------- --- --- ------ ------ ---- -- ------<br>------- --- ------ ----- --- ---- ------- -- ---- --- --<br>------- ------,822697.100000143,822696.600000143,822243.944,822252.9000000954,822260.741,822710.715,,13,government
screen,html.Screen,2_1_1_1_14,2022-05-02T15:29:15.394Z,,,,,,,,,,,,,,,,,54,,,,,,,,,,,,,,555.5850001907675,,response,,,,100,,,,,,,Space,keypress(Space),,,,,,,,-- --- ---- --- ------ ----- ------- ---- -- --- ------- --<br>------- ---------- bonds. -- ----- -- ----- -- ---- ------<br>--- ----- --- --- ------ -------- ----- --- ------ ----- --<br>----- ----- ---------- --- --- ------ ------ ---- -- ------<br>------- --- ------ ----- --- ---- ------- -- ---- --- --<br>------- ------,823267,823266.3000001907,822694.032,822697.2000000477,822710.715,823277.175,,14,bonds.
screen,html.Screen,2_1_1_1_15,2022-05-02T15:29:15.778Z,,,,,,,,,,,,,,,,,54,,,,,,,,,,,,,,373.4250001430046,,response,,,,100,,,,,,,Space,keypress(Space),,,,,,,,-- --- ---- --- ------ ----- ------- ---- -- --- ------- --<br>------- ---------- ------ In ----- -- ----- -- ---- ------<br>--- ----- --- --- ------ -------- ----- --- ------ ----- --<br>----- ----- ---------- --- --- ------ ------ ---- -- ------<br>------- --- ------ ----- --- ---- ------- -- ---- --- --<br>------- ------,823651.2000000477,823650.600000143,823260.635,823267,823277.175,823660.717,,15,In
screen,html.Screen,2_1_1_1_16,2022-05-02T15:29:16.170Z,,,,,,,,,,,,,,,,,54,,,,,,,,,,,,,,381.68300009542145,,response,,,,100,,,,,,,Space,keypress(Space),,,,,,,,"-- --- ---- --- ------ ----- ------- ---- -- --- ------- --<br>------- ---------- ------ -- 1727, -- ----- -- ---- ------<br>--- ----- --- --- ------ -------- ----- --- ------ ----- --<br>----- ----- ---------- --- --- ------ ------ ---- -- ------<br>------- --- ------ ----- --- ---- ------- -- ---- --- --<br>------- ------",824042.8000001907,824042.4000000954,823643.991,823651.3000001907,823660.717,824070.177,,16,"1727,"
screen,html.Screen,2_1_1_1_17,2022-05-02T15:29:16.912Z,,,,,,,,,,,,,,,,,54,,,,,,,,,,,,,,714.923000143026,,response,,,,100,,,,,,,Space,keypress(Space),,,,,,,,-- --- ---- --- ------ ----- ------- ---- -- --- ------- --<br>------- ---------- ------ -- ----- in ----- -- ---- ------<br>--- ----- --- --- ------ -------- ----- --- ------ ----- --<br>----- ----- ---------- --- --- ------ ------ ---- -- ------<br>------- --- ------ ----- --- ---- ------- -- ---- --- --<br>------- ------,824785.600000143,824785.100000143,824027.059,824042.9000000954,824070.177,824794.017,,17,in
screen,html.Screen,2_1_1_1_18,2022-05-02T15:29:17.409Z,,,,,,,,,,,,,,,,,54,,,,,,,,,,,,,,487.5830001430586,,response,,,,100,,,,,,,Space,keypress(Space),,,,,,,,-- --- ---- --- ------ ----- ------- ---- -- --- ------- --<br>------- ---------- ------ -- ----- -- order -- ---- ------<br>--- ----- --- --- ------ -------- ----- --- ------ ----- --<br>----- ----- ---------- --- --- ------ ------ ---- -- ------<br>------- --- ------ ----- --- ---- ------- -- ---- --- --<br>------- ------,825282,825281.600000143,824777.232,824785.7000000477,824794.017,825293.983,,18,order
screen,html.Screen,2_1_1_1_19,2022-05-02T15:29:17.723Z,,,,,,,,,,,,,,,,,54,,,,,,,,,,,,,,301.3170001907274,,response,,,,100,,,,,,,Space,keypress(Space),,,,,,,,-- --- ---- --- ------ ----- ------- ---- -- --- ------- --<br>------- ---------- ------ -- ----- -- ----- to ---- ------<br>--- ----- --- --- ------ -------- ----- --- ------ ----- --<br>----- ----- ---------- --- --- ------ ------ ---- -- ------<br>------- --- ------ ----- --- ---- ------- -- ---- --- --<br>------- ------,825595.7000000477,825595.3000001907,825277.278,825282.100000143,825293.983,825610.63,,19,to
screen,html.Screen,2_1_1_1_20,2022-05-02T15:29:18.137Z,,,,,,,,,,,,,,,,,54,,,,,,,,,,,,,,399.1700001907302,,response,,,,100,,,,,,,Space,keypress(Space),,,,,,,,-- --- ---- --- ------ ----- ------- ---- -- --- ------- --<br>------- ---------- ------ -- ----- -- ----- -- save ------<br>--- ----- --- --- ------ -------- ----- --- ------ ----- --<br>----- ----- ---------- --- --- ------ ------ ---- -- ------<br>------- --- ------ ----- --- ---- ------- -- ---- --- --<br>------- ------,826010.3000001907,826009.8000001907,825593.968,825595.8000001907,825610.63,826043.962,,20,save
screen,html.Screen,2_1_1_1_21,2022-05-02T15:29:18.481Z,,,,,,,,,,,,,,,,,54,,,,,,,,,,,,,,309.6380001429934,,response,,,,100,,,,,,,Space,keypress(Space),,,,,,,,"-- --- ---- --- ------ ----- ------- ---- -- --- ------- --<br>------- ---------- ------ -- ----- -- ----- -- ---- money,<br>--- ----- --- --- ------ -------- ----- --- ------ ----- --<br>----- ----- ---------- --- --- ------ ------ ---- -- ------<br>------- --- ------ ----- --- ---- ------- -- ---- --- --<br>------- ------",826354.100000143,826353.600000143,826027.142,826010.3000001907,826043.962,826360.384,,21,"money,"
screen,html.Screen,2_1_1_1_22,2022-05-02T15:29:18.914Z,,,,,,,,,,,,,,,,,54,,,,,,,,,,,,,,426.5160000954056,,response,,,,100,,,,,,,Space,keypress(Space),,,,,,,,-- --- ---- --- ------ ----- ------- ---- -- --- ------- --<br>------- ---------- ------ -- ----- -- ----- -- ---- ------<br>the ----- --- --- ------ -------- ----- --- ------ ----- --<br>----- ----- ---------- --- --- ------ ------ ---- -- ------<br>------- --- ------ ----- --- ---- ------- -- ---- --- --<br>------- ------,826787.3000001907,826786.9000000954,826343.948,826354.2000000477,826360.384,826793.694,,22,the
screen,html.Screen,2_1_1_1_23,2022-05-02T15:29:19.196Z,,,,,,,,,,,,,,,,,54,,,,,,,,,,,,,,275.3059999999823,,response,,,,100,,,,,,,Space,keypress(Space),,,,,,,,-- --- ---- --- ------ ----- ------- ---- -- --- ------- --<br>------- ---------- ------ -- ----- -- ----- -- ---- ------<br>--- state --- --- ------ -------- ----- --- ------ ----- --<br>----- ----- ---------- --- --- ------ ------ ---- -- ------<br>------- --- ------ ----- --- ---- ------- -- ---- --- --<br>------- ------,827069.5,827069,826777.072,826787.3000001907,826793.694,827077.245,,23,state
screen,html.Screen,2_1_1_1_24,2022-05-02T15:29:19.549Z,,,,,,,,,,,,,,,,,54,,,,,,,,,,,,,,343.9550000476884,,response,,,,100,,,,,,,Space,keypress(Space),,,,,,,,-- --- ---- --- ------ ----- ------- ---- -- --- ------- --<br>------- ---------- ------ -- ----- -- ----- -- ---- ------<br>--- ----- cut --- ------ -------- ----- --- ------ ----- --<br>----- ----- ---------- --- --- ------ ------ ---- -- ------<br>------- --- ------ ----- --- ---- ------- -- ---- --- --<br>------- ------,827421.8000001907,827421.2000000477,827060.573,827069.5,827077.245,827427.187,,24,cut
screen,html.Screen,2_1_1_1_25,2022-05-02T15:29:19.939Z,,,,,,,,,,,,,,,,,54,,,,,,,,,,,,,,384.213000095333,,response,,,,100,,,,,,,Space,keypress(Space),,,,,,,,-- --- ---- --- ------ ----- ------- ---- -- --- ------- --<br>------- ---------- ------ -- ----- -- ----- -- ---- ------<br>--- ----- --- the ------ -------- ----- --- ------ ----- --<br>----- ----- ---------- --- --- ------ ------ ---- -- ------<br>------- --- ------ ----- --- ---- ------- -- ---- --- --<br>------- ------,827812,827811.4000000954,827410.581,827421.9000000954,827427.187,827827.255,,25,the
screen,html.Screen,2_1_1_1_26,2022-05-02T15:29:20.268Z,,,,,,,,,,,,,,,,,54,,,,,,,,,,,,,,313.74499999999534,,response,,,,100,,,,,,,Space,keypress(Space),,,,,,,,-- --- ---- --- ------ ----- ------- ---- -- --- ------- --<br>------- ---------- ------ -- ----- -- ----- -- ---- ------<br>--- ----- --- --- bonds' -------- ----- --- ------ ----- --<br>----- ----- ---------- --- --- ------ ------ ---- -- ------<br>------- --- ------ ----- --- ---- ------- -- ---- --- --<br>------- ------,828141.4000000954,828141,827810.567,827812,827827.255,828143.53,,26,bonds'
screen,html.Screen,2_1_1_1_27,2022-05-02T15:29:20.632Z,,,,,,,,,,,,,,,,,54,,,,,,,,,,,,,,360.6700000476558,,response,,,,100,,,,,,,Space,keypress(Space),,,,,,,,-- --- ---- --- ------ ----- ------- ---- -- --- ------- --<br>------- ---------- ------ -- ----- -- ----- -- ---- ------<br>--- ----- --- --- ------ interest ----- --- ------ ----- --<br>----- ----- ---------- --- --- ------ ------ ---- -- ------<br>------- --- ------ ----- --- ---- ------- -- ---- --- --<br>------- ------,828504.8000001907,828504.2000000477,828127.222,828141.4000000954,828143.53,828510.463,,27,interest
screen,html.Screen,2_1_1_1_28,2022-05-02T15:29:20.946Z,,,,,,,,,,,,,,,,,54,,,,,,,,,,,,,,307.9370000953786,,response,,,,100,,,,,,,Space,keypress(Space),,,,,,,,-- --- ---- --- ------ ----- ------- ---- -- --- ------- --<br>------- ---------- ------ -- ----- -- ----- -- ---- ------<br>--- ----- --- --- ------ -------- rate. --- ------ ----- --<br>----- ----- ---------- --- --- ------ ------ ---- -- ------<br>------- --- ------ ----- --- ---- ------- -- ---- --- --<br>------- ------,828818.9000000954,828818.4000000954,828493.822,828504.8000001907,828510.463,828827.234,,28,rate.
screen,html.Screen,2_1_1_1_29,2022-05-02T15:29:21.367Z,,,,,,,,,,,,,,,,,54,,,,,,,,,,,,,,412.96600004762877,,response,,,,100,,,,,,,Space,keypress(Space),,,,,,,,-- --- ---- --- ------ ----- ------- ---- -- --- ------- --<br>------- ---------- ------ -- ----- -- ----- -- ---- ------<br>--- ----- --- --- ------ -------- ----- The ------ ----- --<br>----- ----- ---------- --- --- ------ ------ ---- -- ------<br>------- --- ------ ----- --- ---- ------- -- ---- --- --<br>------- ------,829240.7000000477,829240.2000000477,828810.532,828819,828827.234,829243.599,,29,The
screen,html.Screen,2_1_1_1_30,2022-05-02T15:29:21.747Z,,,,,,,,,,,,,,,,,54,,,,,,,,,,,,,,376.70100019068923,,response,,,,100,,,,,,,Space,keypress(Space),,,,,,,,-- --- ---- --- ------ ----- ------- ---- -- --- ------- --<br>------- ---------- ------ -- ----- -- ----- -- ---- ------<br>--- ----- --- --- ------ -------- ----- --- market ----- --<br>----- ----- ---------- --- --- ------ ------ ---- -- ------<br>------- --- ------ ----- --- ---- ------- -- ---- --- --<br>------- ------,829620.7000000477,829620.3000001907,829227.202,829240.7000000477,829243.599,829626.938,,30,market
screen,html.Screen,2_1_1_1_31,2022-05-02T15:29:22.387Z,,,,,,,,,,,,,,,,,54,,,,,,,,,,,,,,633.0620000000345,,response,,,,100,,,,,,,Space,keypress(Space),,,,,,,,-- --- ---- --- ------ ----- ------- ---- -- --- ------- --<br>------- ---------- ------ -- ----- -- ----- -- ---- ------<br>--- ----- --- --- ------ -------- ----- --- ------ value --<br>----- ----- ---------- --- --- ------ ------ ---- -- ------<br>------- --- ------ ----- --- ---- ------- -- ---- --- --<br>------- ------,830260.7000000477,830260,829610.415,829620.8000001907,829626.938,830277.08,,31,value
screen,html.Screen,2_1_1_1_32,2022-05-02T15:29:22.693Z,,,,,,,,,,,,,,,,,54,,,,,,,,,,,,,,288.7200001907768,,response,,,,100,,,,,,,Space,keypress(Space),,,,,,,,-- --- ---- --- ------ ----- ------- ---- -- --- ------- --<br>------- ---------- ------ -- ----- -- ----- -- ---- ------<br>--- ----- --- --- ------ -------- ----- --- ------ ----- of<br>----- ----- ---------- --- --- ------ ------ ---- -- ------<br>------- --- ------ ----- --- ---- ------- -- ---- --- --<br>------- ------,830566.4000000954,830565.8000001907,830260.49,830260.8000001907,830277.08,830577.156,,32,of
screen,html.Screen,2_1_1_1_33,2022-05-02T15:29:23.072Z,,,,,,,,,,,,,,,,,54,,,,,,,,,,,,,,367.7440000954084,,response,,,,100,,,,,,,Space,keypress(Space),,,,,,,,-- --- ---- --- ------ ----- ------- ---- -- --- ------- --<br>------- ---------- ------ -- ----- -- ----- -- ---- ------<br>--- ----- --- --- ------ -------- ----- --- ------ ----- --<br>these ----- ---------- --- --- ------ ------ ---- -- ------<br>------- --- ------ ----- --- ---- ------- -- ---- --- --<br>------- ------,830945.5,830944.9000000954,830560.482,830566.5,830577.156,830960.413,,33,these
screen,html.Screen,2_1_1_1_34,2022-05-02T15:29:23.408Z,,,,,,,,,,,,,,,,,54,,,,,,,,,,,,,,320.08700000005774,,response,,,,100,,,,,,,Space,keypress(Space),,,,,,,,-- --- ---- --- ------ ----- ------- ---- -- --- ------- --<br>------- ---------- ------ -- ----- -- ----- -- ---- ------<br>--- ----- --- --- ------ -------- ----- --- ------ ----- --<br>----- bonds ---------- --- --- ------ ------ ---- -- ------<br>------- --- ------ ----- --- ---- ------- -- ---- --- --<br>------- ------,831280.8000001907,831280.5,830943.793,830945.600000143,830960.413,831293.758,,34,bonds
screen,html.Screen,2_1_1_1_35,2022-05-02T15:29:23.742Z,,,,,,,,,,,,,,,,,54,,,,,,,,,,,,,,321.3420001430204,,response,,,,100,,,,,,,Space,keypress(Space),,,,,,,,"-- --- ---- --- ------ ----- ------- ---- -- --- ------- --<br>------- ---------- ------ -- ----- -- ----- -- ---- ------<br>--- ----- --- --- ------ -------- ----- --- ------ ----- --<br>----- ----- plummeted, --- --- ------ ------ ---- -- ------<br>------- --- ------ ----- --- ---- ------- -- ---- --- --<br>------- ------",831615.600000143,831615.100000143,831277.139,831280.8000001907,831293.758,831626.948,,35,"plummeted,"
screen,html.Screen,2_1_1_1_36,2022-05-02T15:29:24.468Z,,,,,,,,,,,,,,,,,54,,,,,,,,,,,,,,714.2520000477089,,response,,,,100,,,,,,,Space,keypress(Space),,,,,,,,-- --- ---- --- ------ ----- ------- ---- -- --- ------- --<br>------- ---------- ------ -- ----- -- ----- -- ---- ------<br>--- ----- --- --- ------ -------- ----- --- ------ ----- --<br>----- ----- ---------- and --- ------ ------ ---- -- ------<br>------- --- ------ ----- --- ---- ------- -- ---- --- --<br>------- ------,832341.7000000477,832341.2000000477,831610.445,831615.7000000477,831626.948,832374.578,,36,and
screen,html.Screen,2_1_1_1_37,2022-05-02T15:29:24.789Z,,,,,,,,,,,,,,,,,54,,,,,,,,,,,,,,286.8220000953879,,response,,,,100,,,,,,,Space,keypress(Space),,,,,,,,-- --- ---- --- ------ ----- ------- ---- -- --- ------- --<br>------- ---------- ------ -- ----- -- ----- -- ---- ------<br>--- ----- --- --- ------ -------- ----- --- ------ ----- --<br>----- ----- ---------- --- the ------ ------ ---- -- ------<br>------- --- ------ ----- --- ---- ------- -- ---- --- --<br>------- ------,832662.100000143,832661.4000000954,832327.083,832341.8000001907,832374.578,832677.029,,37,the
screen,html.Screen,2_1_1_1_38,2022-05-02T15:29:25.130Z,,,,,,,,,,,,,,,,,54,,,,,,,,,,,,,,325.47100000001956,,response,,,,100,,,,,,,Space,keypress(Space),,,,,,,,-- --- ---- --- ------ ----- ------- ---- -- --- ------- --<br>------- ---------- ------ -- ----- -- ----- -- ---- ------<br>--- ----- --- --- ------ -------- ----- --- ------ ----- --<br>----- ----- ---------- --- --- market ------ ---- -- ------<br>------- --- ------ ----- --- ---- ------- -- ---- --- --<br>------- ------,833003,833002.5,832660.17,832662.2000000477,832677.029,833010.306,,38,market
screen,html.Screen,2_1_1_1_39,2022-05-02T15:29:25.478Z,,,,,,,,,,,,,,,,,54,,,,,,,,,,,,,,340.49400019075256,,response,,,,100,,,,,,,Space,keypress(Space),,,,,,,,-- --- ---- --- ------ ----- ------- ---- -- --- ------- --<br>------- ---------- ------ -- ----- -- ----- -- ---- ------<br>--- ----- --- --- ------ -------- ----- --- ------ ----- --<br>----- ----- ---------- --- --- ------ became ---- -- ------<br>------- --- ------ ----- --- ---- ------- -- ---- --- --<br>------- ------,833351.2000000477,833350.8000001907,832993.725,833003.2000000477,833010.306,833360.417,,39,became
screen,html.Screen,2_1_1_1_40,2022-05-02T15:29:25.793Z,,,,,,,,,,,,,,,,,54,,,,,,,,,,,,,,305.08299999998417,,response,,,,100,,,,,,,Space,keypress(Space),,,,,,,,-- --- ---- --- ------ ----- ------- ---- -- --- ------- --<br>------- ---------- ------ -- ----- -- ----- -- ---- ------<br>--- ----- --- --- ------ -------- ----- --- ------ ----- --<br>----- ----- ---------- --- --- ------ ------ wary -- ------<br>------- --- ------ ----- --- ---- ------- -- ---- --- --<br>------- ------,833666,833665.5,833343.746,833351.3000001907,833360.417,833676.953,,40,wary
screen,html.Screen,2_1_1_1_41,2022-05-02T15:29:26.252Z,,,,,,,,,,,,,,,,,54,,,,,,,,,,,,,,447.84700019075535,,response,,,,100,,,,,,,Space,keypress(Space),,,,,,,,-- --- ---- --- ------ ----- ------- ---- -- --- ------- --<br>------- ---------- ------ -- ----- -- ----- -- ---- ------<br>--- ----- --- --- ------ -------- ----- --- ------ ----- --<br>----- ----- ---------- --- --- ------ ------ ---- of ------<br>------- --- ------ ----- --- ---- ------- -- ---- --- --<br>------- ------,834125.3000001907,834124.8000001907,833660.389,833666.100000143,833676.953,834158.745,,41,of
screen,html.Screen,2_1_1_1_42,2022-05-02T15:29:26.660Z,,,,,,,,,,,,,,,,,54,,,,,,,,,,,,,,373.8550001430558,,response,,,,100,,,,,,,Space,keypress(Space),,,,,,,,-- --- ---- --- ------ ----- ------- ---- -- --- ------- --<br>------- ---------- ------ -- ----- -- ----- -- ---- ------<br>--- ----- --- --- ------ -------- ----- --- ------ ----- --<br>----- ----- ---------- --- --- ------ ------ ---- -- French<br>------- --- ------ ----- --- ---- ------- -- ---- --- --<br>------- ------,834533.100000143,834532.600000143,834110.385,834125.3000001907,834158.745,834543.529,,42,French
screen,html.Screen,2_1_1_1_43,2022-05-02T15:29:27.039Z,,,,,,,,,,,,,,,,,54,,,,,,,,,,,,,,368.5710001430707,,response,,,,100,,,,,,,Space,keypress(Space),,,,,,,,-- --- ---- --- ------ ----- ------- ---- -- --- ------- --<br>------- ---------- ------ -- ----- -- ----- -- ---- ------<br>--- ----- --- --- ------ -------- ----- --- ------ ----- --<br>----- ----- ---------- --- --- ------ ------ ---- -- ------<br>credit. --- ------ ----- --- ---- ------- -- ---- --- --<br>------- ------,834912.4000000954,834912.100000143,834527.012,834533.2000000477,834543.529,834926.772,,43,credit.
screen,html.Screen,2_1_1_1_44,2022-05-02T15:29:27.362Z,,,,,,,,,,,,,,,,,54,,,,,,,,,,,,,,307.82800014305394,,response,,,,100,,,,,,,Space,keypress(Space),,,,,,,,-- --- ---- --- ------ ----- ------- ---- -- --- ------- --<br>------- ---------- ------ -- ----- -- ----- -- ---- ------<br>--- ----- --- --- ------ -------- ----- --- ------ ----- --<br>----- ----- ---------- --- --- ------ ------ ---- -- ------<br>------- The ------ ----- --- ---- ------- -- ---- --- --<br>------- ------,835235.100000143,835234.600000143,834910.342,834912.5,834926.772,835243.703,,44,The
screen,html.Screen,2_1_1_1_45,2022-05-02T15:29:27.678Z,,,,,,,,,,,,,,,,,54,,,,,,,,,,,,,,306.89700014307164,,response,,,,100,,,,,,,Space,keypress(Space),,,,,,,,-- --- ---- --- ------ ----- ------- ---- -- --- ------- --<br>------- ---------- ------ -- ----- -- ----- -- ---- ------<br>--- ----- --- --- ------ -------- ----- --- ------ ----- --<br>----- ----- ---------- --- --- ------ ------ ---- -- ------<br>------- --- French ----- --- ---- ------- -- ---- --- --<br>------- ------,835551,835550.600000143,835227.008,835235.100000143,835243.703,835560.397,,45,French
screen,html.Screen,2_1_1_1_46,2022-05-02T15:29:27.977Z,,,,,,,,,,,,,,,,,54,,,,,,,,,,,,,,289.20300014305394,,response,,,,100,,,,,,,Space,keypress(Space),,,,,,,,-- --- ---- --- ------ ----- ------- ---- -- --- ------- --<br>------- ---------- ------ -- ----- -- ----- -- ---- ------<br>--- ----- --- --- ------ -------- ----- --- ------ ----- --<br>----- ----- ---------- --- --- ------ ------ ---- -- ------<br>------- --- ------ state --- ---- ------- -- ---- --- --<br>------- ------,835850.100000143,835849.600000143,835543.602,835551.100000143,835560.397,835860.391,,46,state
screen,html.Screen,2_1_1_1_47,2022-05-02T15:29:28.291Z,,,,,,,,,,,,,,,,,54,,,,,,,,,,,,,,303.7090001431061,,response,,,,100,,,,,,,Space,keypress(Space),,,,,,,,-- --- ---- --- ------ ----- ------- ---- -- --- ------- --<br>------- ---------- ------ -- ----- -- ----- -- ---- ------<br>--- ----- --- --- ------ -------- ----- --- ------ ----- --<br>----- ----- ---------- --- --- ------ ------ ---- -- ------<br>------- --- ------ ----- was ---- ------- -- ---- --- --<br>------- ------,836164.600000143,836164.100000143,835843.714,835850.2000000477,835860.391,836176.678,,47,was
screen,html.Screen,2_1_1_1_48,2022-05-02T15:29:28.596Z,,,,,,,,,,,,,,,,,54,,,,,,,,,,,,,,292.4220001430949,,response,,,,100,,,,,,,Space,keypress(Space),,,,,,,,-- --- ---- --- ------ ----- ------- ---- -- --- ------- --<br>------- ---------- ------ -- ----- -- ----- -- ---- ------<br>--- ----- --- --- ------ -------- ----- --- ------ ----- --<br>----- ----- ---------- --- --- ------ ------ ---- -- ------<br>------- --- ------ ----- --- left ------- -- ---- --- --<br>------- ------,836469.600000143,836469.100000143,836160.279,836164.7000000477,836176.678,836476.804,,48,left
screen,html.Screen,2_1_1_1_49,2022-05-02T15:29:28.874Z,,,,,,,,,,,,,,,,,54,,,,,,,,,,,,,,269.6959999999963,,response,,,,100,,,,,,,Space,keypress(Space),,,,,,,,-- --- ---- --- ------ ----- ------- ---- -- --- ------- --<br>------- ---------- ------ -- ----- -- ----- -- ---- ------<br>--- ----- --- --- ------ -------- ----- --- ------ ----- --<br>----- ----- ---------- --- --- ------ ------ ---- -- ------<br>------- --- ------ ----- --- ---- without -- ---- --- --<br>------- ------,836746.9000000954,836746.5,836460.148,836469.7000000477,836476.804,836760.346,,49,without
screen,html.Screen,2_1_1_1_50,2022-05-02T15:29:29.174Z,,,,,,,,,,,,,,,,,54,,,,,,,,,,,,,,286.4540001907153,,response,,,,100,,,,,,,Space,keypress(Space),,,,,,,,-- --- ---- --- ------ ----- ------- ---- -- --- ------- --<br>------- ---------- ------ -- ----- -- ----- -- ---- ------<br>--- ----- --- --- ------ -------- ----- --- ------ ----- --<br>----- ----- ---------- --- --- ------ ------ ---- -- ------<br>------- --- ------ ----- --- ---- ------- an ---- --- --<br>------- ------,837047.3000001907,837046.8000001907,836743.37,836746.9000000954,836760.346,837060.308,,50,an
screen,html.Screen,2_1_1_1_51,2022-05-02T15:29:29.470Z,,,,,,,,,,,,,,,,,54,,,,,,,,,,,,,,282.09200009540655,,response,,,,100,,,,,,,Space,keypress(Space),,,,,,,,-- --- ---- --- ------ ----- ------- ---- -- --- ------- --<br>------- ---------- ------ -- ----- -- ----- -- ---- ------<br>--- ----- --- --- ------ -------- ----- --- ------ ----- --<br>----- ----- ---------- --- --- ------ ------ ---- -- ------<br>------- --- ------ ----- --- ---- ------- -- easy --- --<br>------- ------,837343.100000143,837342.4000000954,837043.46,837047.4000000954,837060.308,837360.304,,51,easy
screen,html.Screen,2_1_1_1_52,2022-05-02T15:29:29.878Z,,,,,,,,,,,,,,,,,54,,,,,,,,,,,,,,390.1959999999963,,response,,,,100,,,,,,,Space,keypress(Space),,,,,,,,-- --- ---- --- ------ ----- ------- ---- -- --- ------- --<br>------- ---------- ------ -- ----- -- ----- -- ---- ------<br>--- ----- --- --- ------ -------- ----- --- ------ ----- --<br>----- ----- ---------- --- --- ------ ------ ---- -- ------<br>------- --- ------ ----- --- ---- ------- -- ---- way --<br>------- ------,837751,837750.5,837326.943,837343.100000143,837360.304,837760.313,,52,way
screen,html.Screen,2_1_1_1_53,2022-05-02T15:29:30.201Z,,,,,,,,,,,,,,,,,54,,,,,,,,,,,,,,313.2870001430856,,response,,,,100,,,,,,,Space,keypress(Space),,,,,,,,-- --- ---- --- ------ ----- ------- ---- -- --- ------- --<br>------- ---------- ------ -- ----- -- ----- -- ---- ------<br>--- ----- --- --- ------ -------- ----- --- ------ ----- --<br>----- ----- ---------- --- --- ------ ------ ---- -- ------<br>------- --- ------ ----- --- ---- ------- -- ---- --- of<br>------- ------,838074,838073.600000143,837743.571,837751,837760.313,838076.724,,53,of
screen,html.Screen,2_1_1_1_54,2022-05-02T15:29:30.616Z,,,,,,,,,,,,,,,,,54,,,,,,,,,,,,,,412.3760001430055,,response,,,,100,,,,,,,Space,keypress(Space),,,,,,,,-- --- ---- --- ------ ----- ------- ---- -- --- ------- --<br>------- ---------- ------ -- ----- -- ----- -- ---- ------<br>--- ----- --- --- ------ -------- ----- --- ------ ----- --<br>----- ----- ---------- --- --- ------ ------ ---- -- ------<br>------- --- ------ ----- --- ---- ------- -- ---- --- --<br>raising ------,838489.5,838489.100000143,838060.25,838074,838076.724,838493.521,,54,raising
screen,html.Screen,2_1_1_1_55,2022-05-02T15:29:31.741Z,,,,,,,,,,,,,,,,,54,,,,,,,,,,,,,,1119.8790000954177,,response,,,,100,,,,,,,Space,keypress(Space),,,,,,,,-- --- ---- --- ------ ----- ------- ---- -- --- ------- --<br>------- ---------- ------ -- ----- -- ----- -- ---- ------<br>--- ----- --- --- ------ -------- ----- --- ------ ----- --<br>----- ----- ---------- --- --- ------ ------ ---- -- ------<br>------- --- ------ ----- --- ---- ------- -- ---- --- --<br>------- money.,839614,839613.4000000954,838476.789,838489.5,838493.521,839626.885,,55,money.
Item 100,flow.Loop,2_1_1_1,2022-05-02T15:29:31.741Z,,,,,,,,,,,,,,,,,,,,,,,,,,,,,,,24269.133000095375,,completion,,,,,G,,,,,,,,,,,silence,,,,,839614.100000143,839613.4000000954,815327.545,815328.600000143,815344.267,839626.885,,,
Question 1,html.Screen,2_1_1_2,2022-05-02T15:29:35.128Z,,,,,,,,,,,,,,,,,,,,,,,,,,,,true,TRUE,,3380.015000095358,,response,,,,100,G,,,,,,TRUE,click #choice-1,,,,silence,,,,,843007.600000143,843006.9000000954,839610.13,839614.100000143,839626.885,843009.858,,,
Question 2,html.Screen,2_1_1_3,2022-05-02T15:29:39.574Z,,,,,,,,,,,,,,,,,,,,,,,,,,,,true,FALSE,,4443.942000190727,,response,,,,100,G,,,,,,FALSE,click #choice-2,,,,silence,,,,,847454.5,847453.8000001907,842993.421,843007.7000000477,843009.858,847459.905,,,
Item 100,flow.Sequence,2_1_1,2022-05-02T15:29:39.575Z,,,,,,,,,,,,,,,,,,,,,,,,,,,,,,,42109.34300019068,,completion,,,,,,,,,,,,,,,,,,,,,847454.7000000477,847453.8000001907,805327.924,805331.100000143,805344.457,847459.905,,,
End of Practice,html.Page,2_1_2,2022-05-02T15:29:59.563Z,,,,,,,,,,,,,,,,,,,,,,,,,,,,,,,19999.206999999937,,timeout,,,,,,,,,,,,,,,,,,,,,867443.100000143,867442.525,847443.243,847454.7000000477,847459.905,867459.112,,,
Practice,flow.Sequence,2_1,2022-05-02T15:29:59.563Z,,,,,,,,,,,,,,,,,,,,,,,,,,,,,,,117096.69700000004,,completion,,,,,,,,,,,,,,,,,,,,,867443.100000143,867442.525,750329.195,750324.100000143,750345.828,867459.112,,,
Trap_instruction,html.Page,2_2_0,2022-05-02T15:30:03.720Z,,,,,,,,,,,,,,,,,,,,,,,,,,,,,,,4140.388000000035,,form submission,,,,,,,,,,,,,,,,,,,,,871599.600000143,871599.5,867442.525,867443.2000000477,867459.112,871608.99,,,
trap_trial,html.Screen,2_2_1,2022-05-02T15:30:07.676Z,,,,,,,,,,,,,,,,,,,,,,,,,,,,true,1,,3946.4100000953767,,response,,,,,,,,,,,1,click #choice-1,,,,,,,,,875556.2000000477,875555.4000000954,871592.588,871599.7000000477,871608.99,875559.002,,,
end of trap trial,html.Page,2_2_2,2022-05-02T15:30:09.537Z,,,,,,,,,,,,,,,,,,,,,,,,,,,,,,,1858.2980001907563,,form submission,,,,,,,,,,,,,,,,,,,,,877417.600000143,877417.3000001907,875542.456,875556.2000000477,875559.002,877425.681,,,
Trap 1,flow.Sequence,2_2,2022-05-02T15:30:09.538Z,,,,,,,,,,,,,,,,,,,,,,,,,,,,,,,9958.18800019077,,completion,,,,,,,,,,,,,,,,,,,,,877417.600000143,877417.3000001907,867442.525,867443.100000143,867459.112,877425.681,,,
Standby,html.Page,2_3_0,2022-05-02T15:30:17.529Z,,,,,,,,,,,,,,,,,,,,,,,,,,,,,,,7999.856000000029,,timeout,,,,,,,,,,,,,,,,,,,,,885409.5,885408.926,877408.904,877417.7000000477,877425.681,885425.537,,,
Holding screen,html.Screen,2_3_1_0_0,2022-05-02T15:30:24.529Z,,,,,,,,,,,,,,,,,,,,,,,,,,,,,,,6999.712999999989,,timeout,,,,,,,,,,,,,,,,,,,,,892409.5,892408.713,885408.926,885409.600000143,885425.537,892425.25,,,
screen,html.Screen,2_3_1_0_1_0,2022-05-02T15:30:31.529Z,,,,,,,,,,,,,,,,,51,,,,,,,,,,,,,,6999.976000000024,,timeout,,,,13,G,,,,,,,,,,,instrumental,,,,American -------- --- --- ---- --- --- ------ -- --------<br>---- --------- --- ------- ------------ ---------- ---------<br>--- ---------- ------- ---------- ------- -- -------- ----<br>---- --- ------ ----- ------ -- ---- --- ----- -- - -------<br>-------- -- --- --- -- ----- ----------- ----- -----------<br>---- --- ---------- --- ---- --- -- ----------,899409.2000000477,899408.479,892408.713,892409.600000143,892425.25,899425.226,,0,American
screen,html.Screen,2_3_1_0_1_1,2022-05-02T15:30:33.268Z,,,,,,,,,,,,,,,,,51,,,,,,,,,,,,,,1722.0740001907106,,response,,,,13,G,,,,,,Space,keypress(Space),,,,instrumental,,,,-------- industry --- --- ---- --- --- ------ -- --------<br>---- --------- --- ------- ------------ ---------- ---------<br>--- ---------- ------- ---------- ------- -- -------- ----<br>---- --- ------ ----- ------ -- ---- --- ----- -- - -------<br>-------- -- --- --- -- ----- ----------- ----- -----------<br>---- --- ---------- --- ---- --- -- ----------,901147.8000001907,901147.3000001907,899408.479,899409.3000001907,899425.226,901158.305,,1,industry
screen,html.Screen,2_3_1_0_1_2,2022-05-02T15:30:33.763Z,,,,,,,,,,,,,,,,,51,,,,,,,,,,,,,,484.5950000953162,,response,,,,13,G,,,,,,Space,keypress(Space),,,,instrumental,,,,-------- -------- may --- ---- --- --- ------ -- --------<br>---- --------- --- ------- ------------ ---------- ---------<br>--- ---------- ------- ---------- ------- -- -------- ----<br>---- --- ------ ----- ------ -- ---- --- ----- -- - -------<br>-------- -- --- --- -- ----- ----------- ----- -----------<br>---- --- ---------- --- ---- --- -- ----------,901643.5,901642.9000000954,901141.711,901147.9000000954,901158.305,901658.449,,2,may
screen,html.Screen,2_3_1_0_1_3,2022-05-02T15:30:34.366Z,,,,,,,,,,,,,,,,,51,,,,,,,,,,,,,,587.5509999999776,,response,,,,13,G,,,,,,Space,keypress(Space),,,,instrumental,,,,-------- -------- --- not ---- --- --- ------ -- --------<br>---- --------- --- ------- ------------ ---------- ---------<br>--- ---------- ------- ---------- ------- -- -------- ----<br>---- --- ------ ----- ------ -- ---- --- ----- -- - -------<br>-------- -- --- --- -- ----- ----------- ----- -----------<br>---- --- ---------- --- ---- --- -- ----------,902246.5,902246,901641.707,901643.5,901658.449,902258.448,,3,not
screen,html.Screen,2_3_1_0_1_4,2022-05-02T15:30:34.768Z,,,,,,,,,,,,,,,,,51,,,,,,,,,,,,,,389.1520001430763,,response,,,,13,G,,,,,,Space,keypress(Space),,,,instrumental,,,,-------- -------- --- --- know --- --- ------ -- --------<br>---- --------- --- ------- ------------ ---------- ---------<br>--- ---------- ------- ---------- ------- -- -------- ----<br>---- --- ------ ----- ------ -- ---- --- ----- -- - -------<br>-------- -- --- --- -- ----- ----------- ----- -----------<br>---- --- ---------- --- ---- --- -- ----------,902648.100000143,902647.600000143,902241.734,902246.600000143,902258.448,902658.383,,4,know
screen,html.Screen,2_3_1_0_1_5,2022-05-02T15:30:35.144Z,,,,,,,,,,,,,,,,,51,,,,,,,,,,,,,,359.817000047653,,response,,,,13,G,,,,,,Space,keypress(Space),,,,instrumental,,,,"-------- -------- --- --- ---- it, --- ------ -- --------<br>---- --------- --- ------- ------------ ---------- ---------<br>--- ---------- ------- ---------- ------- -- -------- ----<br>---- --- ------ ----- ------ -- ---- --- ----- -- - -------<br>-------- -- --- --- -- ----- ----------- ----- -----------<br>---- --- ---------- --- ---- --- -- ----------",903018.600000143,903018.2000000477,902641.719,902648.2000000477,902658.383,903024.879,,5,"it,"
screen,html.Screen,2_3_1_0_1_6,2022-05-02T15:30:35.596Z,,,,,,,,,,,,,,,,,51,,,,,,,,,,,,,,445.0210000954103,,response,,,,13,G,,,,,,Space,keypress(Space),,,,instrumental,,,,-------- -------- --- --- ---- --- but ------ -- --------<br>---- --------- --- ------- ------------ ---------- ---------<br>--- ---------- ------- ---------- ------- -- -------- ----<br>---- --- ------ ----- ------ -- ---- --- ----- -- - -------<br>-------- -- --- --- -- ----- ----------- ----- -----------<br>---- --- ---------- --- ---- --- -- ----------,903470.4000000954,903469.9000000954,903008.415,903018.600000143,903024.879,903475.018,,6,but
screen,html.Screen,2_3_1_0_1_7,2022-05-02T15:30:35.979Z,,,,,,,,,,,,,,,,,51,,,,,,,,,,,,,,378.2820001906948,,response,,,,13,G,,,,,,Space,keypress(Space),,,,instrumental,,,,-------- -------- --- --- ---- --- --- debate -- --------<br>---- --------- --- ------- ------------ ---------- ---------<br>--- ---------- ------- ---------- ------- -- -------- ----<br>---- --- ------ ----- ------ -- ---- --- ----- -- - -------<br>-------- -- --- --- -- ----- ----------- ----- -----------<br>---- --- ---------- --- ---- --- -- ----------,903853.8000001907,903853.3000001907,903458.213,903470.5,903475.018,903858.312,,7,debate
screen,html.Screen,2_3_1_0_1_8,2022-05-02T15:30:36.383Z,,,,,,,,,,,,,,,,,51,,,,,,,,,,,,,,398.9880001907004,,response,,,,13,G,,,,,,Space,keypress(Space),,,,instrumental,,,,-------- -------- --- --- ---- --- --- ------ in --------<br>---- --------- --- ------- ------------ ---------- ---------<br>--- ---------- ------- ---------- ------- -- -------- ----<br>---- --- ------ ----- ------ -- ---- --- ----- -- - -------<br>-------- -- --- --- -- ----- ----------- ----- -----------<br>---- --- ---------- --- ---- --- -- ----------,904257.7000000477,904257.3000001907,903841.65,903853.8000001907,903858.312,904275.067,,8,in
screen,html.Screen,2_3_1_0_1_9,2022-05-02T15:30:36.858Z,,,,,,,,,,,,,,,,,51,,,,,,,,,,,,,,457.03300014301203,,response,,,,13,G,,,,,,Space,keypress(Space),,,,instrumental,,,,-------- -------- --- --- ---- --- --- ------ -- Congress<br>---- --------- --- ------- ------------ ---------- ---------<br>--- ---------- ------- ---------- ------- -- -------- ----<br>---- --- ------ ----- ------ -- ---- --- ----- -- - -------<br>-------- -- --- --- -- ----- ----------- ----- -----------<br>---- --- ---------- --- ---- --- -- ----------,904732.7000000477,904732.100000143,904241.496,904257.8000001907,904275.067,904741.661,,9,Congress
screen,html.Screen,2_3_1_0_1_10,2022-05-02T15:30:37.351Z,,,,,,,,,,,,,,,,,51,,,,,,,,,,,,,,483.53900004772004,,response,,,,13,G,,,,,,Space,keypress(Space),,,,instrumental,,,,-------- -------- --- --- ---- --- --- ------ -- --------<br>over --------- --- ------- ------------ ---------- ---------<br>--- ---------- ------- ---------- ------- -- -------- ----<br>---- --- ------ ----- ------ -- ---- --- ----- -- - -------<br>-------- -- --- --- -- ----- ----------- ----- -----------<br>---- --- ---------- --- ---- --- -- ----------,905225.7000000477,905225.2000000477,904724.982,904732.7000000477,904741.661,905241.7,,10,over
screen,html.Screen,2_3_1_0_1_11,2022-05-02T15:30:37.728Z,,,,,,,,,,,,,,,,,51,,,,,,,,,,,,,,360.4000001430977,,response,,,,13,G,,,,,,Space,keypress(Space),,,,instrumental,,,,-------- -------- --- --- ---- --- --- ------ -- --------<br>---- reforming --- ------- ------------ ---------- ---------<br>--- ---------- ------- ---------- ------- -- -------- ----<br>---- --- ------ ----- ------ -- ---- --- ----- -- - -------<br>-------- -- --- --- -- ----- ----------- ----- -----------<br>---- --- ---------- --- ---- --- -- ----------,905602.7000000477,905602.100000143,905225.011,905225.8000001907,905241.7,905608.279,,11,reforming
screen,html.Screen,2_3_1_0_1_12,2022-05-02T15:30:38.108Z,,,,,,,,,,,,,,,,,51,,,,,,,,,,,,,,373.5210001907544,,response,,,,13,G,,,,,,Space,keypress(Space),,,,instrumental,,,,-------- -------- --- --- ---- --- --- ------ -- --------<br>---- --------- the ------- ------------ ---------- ---------<br>--- ---------- ------- ---------- ------- -- -------- ----<br>---- --- ------ ----- ------ -- ---- --- ----- -- - -------<br>-------- -- --- --- -- ----- ----------- ----- -----------<br>---- --- ---------- --- ---- --- -- ----------,905982.3000001907,905981.8000001907,905591.657,905602.8000001907,905608.279,905991.658,,12,the
screen,html.Screen,2_3_1_0_1_13,2022-05-02T15:30:38.527Z,,,,,,,,,,,,,,,,,51,,,,,,,,,,,,,,408.841999999946,,response,,,,13,G,,,,,,Space,keypress(Space),,,,instrumental,,,,-------- -------- --- --- ---- --- --- ------ -- --------<br>---- --------- --- federal ------------ ---------- ---------<br>--- ---------- ------- ---------- ------- -- -------- ----<br>---- --- ------ ----- ------ -- ---- --- ----- -- - -------<br>-------- -- --- --- -- ----- ----------- ----- -----------<br>---- --- ---------- --- ---- --- -- ----------,906401,906400.5,905974.919,905982.3000001907,905991.658,906408.34,,13,federal
screen,html.Screen,2_3_1_0_1_14,2022-05-02T15:30:39.085Z,,,,,,,,,,,,,,,,,51,,,,,,,,,,,,,,550.0600000954,,response,,,,13,G,,,,,,Space,keypress(Space),,,,instrumental,,,,-------- -------- --- --- ---- --- --- ------ -- --------<br>---- --------- --- ------- government's ---------- ---------<br>--- ---------- ------- ---------- ------- -- -------- ----<br>---- --- ------ ----- ------ -- ---- --- ----- -- - -------<br>-------- -- --- --- -- ----- ----------- ----- -----------<br>---- --- ---------- --- ---- --- -- ----------,906958.9000000954,906958.4000000954,906391.574,906401.100000143,906408.34,906974.966,,14,government's
screen,html.Screen,2_3_1_0_1_15,2022-05-02T15:30:39.538Z,,,,,,,,,,,,,,,,,51,,,,,,,,,,,,,,437.0339999999851,,response,,,,13,G,,,,,,Space,keypress(Space),,,,instrumental,,,,-------- -------- --- --- ---- --- --- ------ -- --------<br>---- --------- --- ------- ------------ regulatory ---------<br>--- ---------- ------- ---------- ------- -- -------- ----<br>---- --- ------ ----- ------ -- ---- --- ----- -- - -------<br>-------- -- --- --- -- ----- ----------- ----- -----------<br>---- --- ---------- --- ---- --- -- ----------,907412.5,907412,906958.265,906958.9000000954,906974.966,907424.928,,15,regulatory
screen,html.Screen,2_3_1_0_1_16,2022-05-02T15:30:40.048Z,,,,,,,,,,,,,,,,,51,,,,,,,,,,,,,,497.2720000477275,,response,,,,13,G,,,,,,Space,keypress(Space),,,,instrumental,,,,-------- -------- --- --- ---- --- --- ------ -- --------<br>---- --------- --- ------- ------------ ---------- apparatus<br>--- ---------- ------- ---------- ------- -- -------- ----<br>---- --- ------ ----- ------ -- ---- --- ----- -- - -------<br>-------- -- --- --- -- ----- ----------- ----- -----------<br>---- --- ---------- --- ---- --- -- ----------,907922.8000001907,907922.2000000477,907408.21,907412.600000143,907424.928,907924.7,,16,apparatus
screen,html.Screen,2_3_1_0_1_17,2022-05-02T15:30:40.594Z,,,,,,,,,,,,,,,,,51,,,,,,,,,,,,,,543.6000001907814,,response,,,,13,G,,,,,,Space,keypress(Space),,,,instrumental,,,,-------- -------- --- --- ---- --- --- ------ -- --------<br>---- --------- --- ------- ------------ ---------- ---------<br>may ---------- ------- ---------- ------- -- -------- ----<br>---- --- ------ ----- ------ -- ---- --- ----- -- - -------<br>-------- -- --- --- -- ----- ----------- ----- -----------<br>---- --- ---------- --- ---- --- -- ----------,908468.9000000954,908468.3000001907,907908.154,907922.8000001907,907924.7,908474.715,,17,may
screen,html.Screen,2_3_1_0_1_18,2022-05-02T15:30:41.005Z,,,,,,,,,,,,,,,,,51,,,,,,,,,,,,,,403.7850000000326,,response,,,,13,G,,,,,,Space,keypress(Space),,,,instrumental,,,,-------- -------- --- --- ---- --- --- ------ -- --------<br>---- --------- --- ------- ------------ ---------- ---------<br>--- profoundly ------- ---------- ------- -- -------- ----<br>---- --- ------ ----- ------ -- ---- --- ----- -- - -------<br>-------- -- --- --- -- ----- ----------- ----- -----------<br>---- --- ---------- --- ---- --- -- ----------,908878.9000000954,908878.5,908458.21,908468.9000000954,908474.715,908891.582,,18,profoundly
screen,html.Screen,2_3_1_0_1_19,2022-05-02T15:30:41.549Z,,,,,,,,,,,,,,,,,51,,,,,,,,,,,,,,530.8180000953143,,response,,,,13,G,,,,,,Space,keypress(Space),,,,instrumental,,,,-------- -------- --- --- ---- --- --- ------ -- --------<br>---- --------- --- ------- ------------ ---------- ---------<br>--- ---------- improve ---------- ------- -- -------- ----<br>---- --- ------ ----- ------ -- ---- --- ----- -- - -------<br>-------- -- --- --- -- ----- ----------- ----- -----------<br>---- --- ---------- --- ---- --- -- ----------,909423,909422.4000000954,908874.869,908879,908891.582,909445.451,,19,improve
screen,html.Screen,2_3_1_0_1_20,2022-05-02T15:30:42.105Z,,,,,,,,,,,,,,,,,51,,,,,,,,,,,,,,533.7490000476828,,response,,,,13,G,,,,,,Space,keypress(Space),,,,instrumental,,,,-------- -------- --- --- ---- --- --- ------ -- --------<br>---- --------- --- ------- ------------ ---------- ---------<br>--- ---------- ------- companies' ------- -- -------- ----<br>---- --- ------ ----- ------ -- ---- --- ----- -- - -------<br>-------- -- --- --- -- ----- ----------- ----- -----------<br>---- --- ---------- --- ---- --- -- ----------,909979.8000001907,909979.2000000477,909408.209,909423.100000143,909445.451,909991.571,,20,companies'
screen,html.Screen,2_3_1_0_1_21,2022-05-02T15:30:42.806Z,,,,,,,,,,,,,,,,,51,,,,,,,,,,,,,,688.1290000476874,,response,,,,13,G,,,,,,Space,keypress(Space),,,,instrumental,,,,-------- -------- --- --- ---- --- --- ------ -- --------<br>---- --------- --- ------- ------------ ---------- ---------<br>--- ---------- ------- ---------- ability -- -------- ----<br>---- --- ------ ----- ------ -- ---- --- ----- -- - -------<br>-------- -- --- --- -- ----- ----------- ----- -----------<br>---- --- ---------- --- ---- --- -- ----------,910680.2000000477,910679.7000000477,909974.855,909979.8000001907,909991.571,910691.523,,21,ability
screen,html.Screen,2_3_1_0_1_22,2022-05-02T15:30:43.642Z,,,,,,,,,,,,,,,,,51,,,,,,,,,,,,,,824.2770001906902,,response,,,,13,G,,,,,,Space,keypress(Space),,,,instrumental,,,,-------- -------- --- --- ---- --- --- ------ -- --------<br>---- --------- --- ------- ------------ ---------- ---------<br>--- ---------- ------- ---------- ------- to -------- ----<br>---- --- ------ ----- ------ -- ---- --- ----- -- - -------<br>-------- -- --- --- -- ----- ----------- ----- -----------<br>---- --- ---------- --- ---- --- -- ----------,911516.3000001907,911515.8000001907,910674.753,910680.3000001907,910691.523,911524.839,,22,to
screen,html.Screen,2_3_1_0_1_23,2022-05-02T15:30:44.067Z,,,,,,,,,,,,,,,,,51,,,,,,,,,,,,,,416.0610000953311,,response,,,,13,G,,,,,,Space,keypress(Space),,,,instrumental,,,,-------- -------- --- --- ---- --- --- ------ -- --------<br>---- --------- --- ------- ------------ ---------- ---------<br>--- ---------- ------- ---------- ------- -- survive. ----<br>---- --- ------ ----- ------ -- ---- --- ----- -- - -------<br>-------- -- --- --- -- ----- ----------- ----- -----------<br>---- --- ---------- --- ---- --- -- ----------,911941.4000000954,911940.9000000954,911508.099,911516.4000000954,911524.839,911958.146,,23,survive.
screen,html.Screen,2_3_1_0_1_24,2022-05-02T15:30:44.661Z,,,,,,,,,,,,,,,,,51,,,,,,,,,,,,,,576.7540000954177,,response,,,,13,G,,,,,,Space,keypress(Space),,,,instrumental,,,,-------- -------- --- --- ---- --- --- ------ -- --------<br>---- --------- --- ------- ------------ ---------- ---------<br>--- ---------- ------- ---------- ------- -- -------- This<br>---- --- ------ ----- ------ -- ---- --- ----- -- - -------<br>-------- -- --- --- -- ----- ----------- ----- -----------<br>---- --- ---------- --- ---- --- -- ----------,912535.5,912534.9000000954,911941.476,911941.5,911958.146,912541.507,,24,This
screen,html.Screen,2_3_1_0_1_25,2022-05-02T15:30:45.151Z,,,,,,,,,,,,,,,,,51,,,,,,,,,,,,,,482.99300000001676,,response,,,,13,G,,,,,,Space,keypress(Space),,,,instrumental,,,,-------- -------- --- --- ---- --- --- ------ -- --------<br>---- --------- --- ------- ------------ ---------- ---------<br>--- ---------- ------- ---------- ------- -- -------- ----<br>week --- ------ ----- ------ -- ---- --- ----- -- - -------<br>-------- -- --- --- -- ----- ----------- ----- -----------<br>---- --- ---------- --- ---- --- -- ----------,913025.100000143,913024.5,912524.776,912535.600000143,912541.507,913041.488,,25,week
screen,html.Screen,2_3_1_0_1_26,2022-05-02T15:30:45.787Z,,,,,,,,,,,,,,,,,51,,,,,,,,,,,,,,618.9120000953553,,response,,,,13,G,,,,,,Space,keypress(Space),,,,instrumental,,,,-------- -------- --- --- ---- --- --- ------ -- --------<br>---- --------- --- ------- ------------ ---------- ---------<br>--- ---------- ------- ---------- ------- -- -------- ----<br>---- the ------ ----- ------ -- ---- --- ----- -- - -------<br>-------- -- --- --- -- ----- ----------- ----- -----------<br>---- --- ---------- --- ---- --- -- ----------,913660.9000000954,913660.4000000954,913024.703,913025.100000143,913041.488,913674.785,,26,the
screen,html.Screen,2_3_1_0_1_27,2022-05-02T15:30:46.179Z,,,,,,,,,,,,,,,,,51,,,,,,,,,,,,,,377.81500014301855,,response,,,,13,G,,,,,,Space,keypress(Space),,,,instrumental,,,,-------- -------- --- --- ---- --- --- ------ -- --------<br>---- --------- --- ------- ------------ ---------- ---------<br>--- ---------- ------- ---------- ------- -- -------- ----<br>---- --- Senate ----- ------ -- ---- --- ----- -- - -------<br>-------- -- --- --- -- ----- ----------- ----- -----------<br>---- --- ---------- --- ---- --- -- ----------,914053.100000143,914052.600000143,913658.006,913660.9000000954,913674.785,914057.925,,27,Senate
screen,html.Screen,2_3_1_0_1_28,2022-05-02T15:30:46.558Z,,,,,,,,,,,,,,,,,51,,,,,,,,,,,,,,373.57499999995343,,response,,,,13,G,,,,,,Space,keypress(Space),,,,instrumental,,,,-------- -------- --- --- ---- --- --- ------ -- --------<br>---- --------- --- ------- ------------ ---------- ---------<br>--- ---------- ------- ---------- ------- -- -------- ----<br>---- --- ------ seems ------ -- ---- --- ----- -- - -------<br>-------- -- --- --- -- ----- ----------- ----- -----------<br>---- --- ---------- --- ---- --- -- ----------,914431.9000000954,914431.5,914041.366,914053.100000143,914057.925,914441.445,,28,seems
screen,html.Screen,2_3_1_0_1_29,2022-05-02T15:30:46.957Z,,,,,,,,,,,,,,,,,51,,,,,,,,,,,,,,388.95500009541865,,response,,,,13,G,,,,,,Space,keypress(Space),,,,instrumental,,,,-------- -------- --- --- ---- --- --- ------ -- --------<br>---- --------- --- ------- ------------ ---------- ---------<br>--- ---------- ------- ---------- ------- -- -------- ----<br>---- --- ------ ----- poised -- ---- --- ----- -- - -------<br>-------- -- --- --- -- ----- ----------- ----- -----------<br>---- --- ---------- --- ---- --- -- ----------,914830.9000000954,914830.4000000954,914424.746,914432,914441.445,914841.431,,29,poised
screen,html.Screen,2_3_1_0_1_30,2022-05-02T15:30:47.411Z,,,,,,,,,,,,,,,,,51,,,,,,,,,,,,,,443.0690000000177,,response,,,,13,G,,,,,,Space,keypress(Space),,,,instrumental,,,,-------- -------- --- --- ---- --- --- ------ -- --------<br>---- --------- --- ------- ------------ ---------- ---------<br>--- ---------- ------- ---------- ------- -- -------- ----<br>---- --- ------ ----- ------ to ---- --- ----- -- - -------<br>-------- -- --- --- -- ----- ----------- ----- -----------<br>---- --- ---------- --- ---- --- -- ----------,915284.9000000954,915284.5,914824.773,914831.100000143,914841.431,915291.414,,30,to
screen,html.Screen,2_3_1_0_1_31,2022-05-02T15:30:47.856Z,,,,,,,,,,,,,,,,,51,,,,,,,,,,,,,,437.9860000953777,,response,,,,13,G,,,,,,Space,keypress(Space),,,,instrumental,,,,-------- -------- --- --- ---- --- --- ------ -- --------<br>---- --------- --- ------- ------------ ---------- ---------<br>--- ---------- ------- ---------- ------- -- -------- ----<br>---- --- ------ ----- ------ -- join --- ----- -- - -------<br>-------- -- --- --- -- ----- ----------- ----- -----------<br>---- --- ---------- --- ---- --- -- ----------,915730,915729.4000000954,915274.702,915285,915291.414,915741.356,,31,join
screen,html.Screen,2_3_1_0_1_32,2022-05-02T15:30:48.273Z,,,,,,,,,,,,,,,,,51,,,,,,,,,,,,,,405.2440001430223,,response,,,,13,G,,,,,,Space,keypress(Space),,,,instrumental,,,,-------- -------- --- --- ---- --- --- ------ -- --------<br>---- --------- --- ------- ------------ ---------- ---------<br>--- ---------- ------- ---------- ------- -- -------- ----<br>---- --- ------ ----- ------ -- ---- the ----- -- - -------<br>-------- -- --- --- -- ----- ----------- ----- -----------<br>---- --- ---------- --- ---- --- -- ----------,916147.100000143,916146.600000143,915724.654,915730,915741.356,916157.85,,32,the
screen,html.Screen,2_3_1_0_1_33,2022-05-02T15:30:48.637Z,,,,,,,,,,,,,,,,,51,,,,,,,,,,,,,,353.25000014307443,,response,,,,13,G,,,,,,Space,keypress(Space),,,,instrumental,,,,-------- -------- --- --- ---- --- --- ------ -- --------<br>---- --------- --- ------- ------------ ---------- ---------<br>--- ---------- ------- ---------- ------- -- -------- ----<br>---- --- ------ ----- ------ -- ---- --- House -- - -------<br>-------- -- --- --- -- ----- ----------- ----- -----------<br>---- --- ---------- --- ---- --- -- ----------,916511.600000143,916511.100000143,916141.247,916147.100000143,916157.85,916524.712,,33,House
screen,html.Screen,2_3_1_0_1_34,2022-05-02T15:30:48.956Z,,,,,,,,,,,,,,,,,51,,,,,,,,,,,,,,305.488000047626,,response,,,,13,G,,,,,,Space,keypress(Space),,,,instrumental,,,,-------- -------- --- --- ---- --- --- ------ -- --------<br>---- --------- --- ------- ------------ ---------- ---------<br>--- ---------- ------- ---------- ------- -- -------- ----<br>---- --- ------ ----- ------ -- ---- --- ----- in - -------<br>-------- -- --- --- -- ----- ----------- ----- -----------<br>---- --- ---------- --- ---- --- -- ----------,916830.8000001907,916830.2000000477,916507.982,916511.7000000477,916524.712,916841.386,,34,in
screen,html.Screen,2_3_1_0_1_35,2022-05-02T15:30:49.220Z,,,,,,,,,,,,,,,,,51,,,,,,,,,,,,,,252.1139999999432,,response,,,,13,G,,,,,,Space,keypress(Space),,,,instrumental,,,,-------- -------- --- --- ---- --- --- ------ -- --------<br>---- --------- --- ------- ------------ ---------- ---------<br>--- ---------- ------- ---------- ------- -- -------- ----<br>---- --- ------ ----- ------ -- ---- --- ----- -- a -------<br>-------- -- --- --- -- ----- ----------- ----- -----------<br>---- --- ---------- --- ---- --- -- ----------,917094,917093.5,916824.533,916830.8000001907,916841.386,917107.988,,35,a
screen,html.Screen,2_3_1_0_1_36,2022-05-02T15:30:49.624Z,,,,,,,,,,,,,,,,,51,,,,,,,,,,,,,,389.61200014303904,,response,,,,13,G,,,,,,Space,keypress(Space),,,,instrumental,,,,-------- -------- --- --- ---- --- --- ------ -- --------<br>---- --------- --- ------- ------------ ---------- ---------<br>--- ---------- ------- ---------- ------- -- -------- ----<br>---- --- ------ ----- ------ -- ---- --- ----- -- - massive<br>-------- -- --- --- -- ----- ----------- ----- -----------<br>---- --- ---------- --- ---- --- -- ----------,917498.100000143,917497.600000143,917091.252,917094.100000143,917107.988,917507.961,,36,massive
screen,html.Screen,2_3_1_0_1_37,2022-05-02T15:30:49.984Z,,,,,,,,,,,,,,,,,51,,,,,,,,,,,,,,349.73900004767347,,response,,,,13,G,,,,,,Space,keypress(Space),,,,instrumental,,,,-------- -------- --- --- ---- --- --- ------ -- --------<br>---- --------- --- ------- ------------ ---------- ---------<br>--- ---------- ------- ---------- ------- -- -------- ----<br>---- --- ------ ----- ------ -- ---- --- ----- -- - -------<br>overhaul -- --- --- -- ----- ----------- ----- -----------<br>---- --- ---------- --- ---- --- -- ----------,917858.3000001907,917857.7000000477,917491.266,917498.2000000477,917507.961,917874.67,,37,overhaul
screen,html.Screen,2_3_1_0_1_38,2022-05-02T15:30:50.360Z,,,,,,,,,,,,,,,,,51,,,,,,,,,,,,,,359.13000019069295,,response,,,,13,G,,,,,,Space,keypress(Space),,,,instrumental,,,,-------- -------- --- --- ---- --- --- ------ -- --------<br>---- --------- --- ------- ------------ ---------- ---------<br>--- ---------- ------- ---------- ------- -- -------- ----<br>---- --- ------ ----- ------ -- ---- --- ----- -- - -------<br>-------- of --- --- -- ----- ----------- ----- -----------<br>---- --- ---------- --- ---- --- -- ----------,918234.3000001907,918233.8000001907,917857.847,917858.3000001907,917874.67,918241.112,,38,of
screen,html.Screen,2_3_1_0_1_39,2022-05-02T15:30:50.683Z,,,,,,,,,,,,,,,,,51,,,,,,,,,,,,,,316.18800019077025,,response,,,,13,G,,,,,,Space,keypress(Space),,,,instrumental,,,,-------- -------- --- --- ---- --- --- ------ -- --------<br>---- --------- --- ------- ------------ ---------- ---------<br>--- ---------- ------- ---------- ------- -- -------- ----<br>---- --- ------ ----- ------ -- ---- --- ----- -- - -------<br>-------- -- the --- -- ----- ----------- ----- -----------<br>---- --- ---------- --- ---- --- -- ----------,918557.9000000954,918557.3000001907,918224.563,918234.4000000954,918241.112,918574.568,,39,the
