sender,sender_type,sender_id,timestamp,meta,,Blues,Classical,Country,Dance,Electronic,Folk,Gospel,Hip-Hop,Jazz,Latin,Musical/Film,New-age,Pop,Prolific_id,Provo_ID,R&B,Rap,Reggae,Religious,Rock,Soul,Swing,Traditional,age,artist_name,correct,correctResponse,distraction,duration,education,ended_on,familiarity,gender,headphone_check_performance,item,list,music_frequency,offensiveness,pleasantness,position_correct,preference,response,response_action,snippet_file,song_name,song_rating,sound,stimulus_1,stimulus_2,stimulus_3,text,time_commit,time_end,time_render,time_run,time_show,time_switch,url,word,word_ID
Prolific ID,html.Form,0,2022-05-09T12:38:31.727Z,"{""labjs_version"":""20.2.2"",""labjs_build"":{""flavor"":""production"",""commit"":""a25486e0c714a0ae2ce03ff94b7bb6896854dcfa""},""location"":""https://run.pavlovia.org/mvasilev/prolific3_music_f/"",""userAgent"":""Mozilla/5.0 (Windows NT 10.0; Win64; x64) AppleWebKit/537.36 (KHTML, like Gecko) Chrome/101.0.4951.54 Safari/537.36 Edg/101.0.1210.39"",""platform"":""Win32"",""language"":""en-GB"",""locale"":""en-GB"",""timeZone"":""Europe/London"",""timezoneOffset"":-60,""screen_width"":1680,""screen_height"":1050,""scroll_width"":1344,""scroll_height"":678,""window_innerWidth"":1344,""window_innerHeight"":726,""devicePixelRatio"":1.25}",,,,,,,,,,,,,,,5d95dfca33f8930017e85486,,,,,,,,,,,,,,,6141.423000000046,,form submission,,,,,,,,,,,,,,,,,,,,,40969.80000000005,40969.30000000005,34794.545,34801.5,34827.877,40979.935,{},,
Introduction,html.Screen,1_0,2022-05-09T12:38:40.623Z,,,,,,,,,,,,,,,,,,,,,,,,,,,,,,,8883.665000000095,,response,,,,,,,,,,,continue,click button,,,,,,,,,49866,49863.60000000009,40963.269,40970,40979.935,49868.704,,,
Volume calibration,html.Screen,1_1,2022-05-09T12:39:03.835Z,,,,,,,,,,,,,,,,,,,,,,,,,,,,,,,23205.696000000025,,response,,,,,,,,,,,continue,click button,,,,,,,,,73077.80000000005,73074.40000000002,49852.038,49866.10000000009,49868.704,73089.508,,,
Task instructions,html.Screen,1_2,2022-05-09T12:39:12.339Z,,,,,,,,,,,,,,,,,,,,,,,,,,,,,,,8490.692000000068,,response,,,,,,,,,,,continue,click button,,,,,,,,,81580.90000000002,81580.20000000007,73072.842,73077.90000000002,73089.508,81596.176,,,
Sounds,html.Screen,1_3_0_0,2022-05-09T12:39:16.591Z,,,,,,,,,,,,,,,,,,,,,,,,,,,,,,,4250.838999999993,,timeout,,,,,,,,,2,,,,,,,,O,S,I,,85833.30000000005,85830.349,81579.51,81581.1000000001,81596.176,85847.015,,,
Judgement,html.Screen,1_3_0_1,2022-05-09T12:39:18.219Z,,,,,,,,,,,,,,,,,,,,,,,,,,,,true,2,,1613.1850000000704,,response,,,,,,,,,2,,2,click #choice-2,,,,,O,S,I,,87461.1000000001,87460.20000000007,85830.349,85833.40000000002,85847.015,87467.402,,,
Trial,flow.Sequence,1_3_0,2022-05-09T12:39:18.219Z,,,,,,,,,,,,,,,,,,,,,,,,,,,,,,,5864.024000000063,,completion,,,,,,,,,2,,,,,,,,O,S,I,,87461.5,87460.20000000007,81579.51,81581.1000000001,81596.176,87467.402,,,
Sounds,html.Screen,1_3_1_0,2022-05-09T12:39:22.460Z,,,,,,,,,,,,,,,,,,,,,,,,,,,,,,,4250.229999999996,,timeout,,,,,,,,,3,,,,,,,,O,I,S,,91702.80000000005,91700.966,87450.736,87461.6000000001,87467.402,91717.632,,,
Judgement,html.Screen,1_3_1_1,2022-05-09T12:39:23.700Z,,,,,,,,,,,,,,,,,,,,,,,,,,,,true,3,,1223.6680000000488,,response,,,,,,,,,3,,3,click #choice-3,,,,,O,I,S,,92942.30000000005,92941.30000000005,91700.966,91703.1000000001,91717.632,92955.357,,,
Trial,flow.Sequence,1_3_1,2022-05-09T12:39:23.700Z,,,,,,,,,,,,,,,,,,,,,,,,,,,,,,,5473.898000000045,,completion,,,,,,,,,3,,,,,,,,O,I,S,,92942.6000000001,92941.30000000005,87450.736,87461.6000000001,87467.402,92955.357,,,
Sounds,html.Screen,1_3_2_0,2022-05-09T12:39:27.948Z,,,,,,,,,,,,,,,,,,,,,,,,,,,,,,,4250.307000000001,,timeout,,,,,,,,,3,,,,,,,,I,O,S,,97190.40000000002,97188.998,92938.691,92942.70000000007,92955.357,97205.664,,,
Judgement,html.Screen,1_3_2_1,2022-05-09T12:39:29.229Z,,,,,,,,,,,,,,,,,,,,,,,,,,,,true,3,,1264.4360000000888,,response,,,,,,,,,3,,3,click #choice-3,,,,,I,O,S,,98471.20000000007,98470.1000000001,97188.998,97190.70000000007,97205.664,98475.41,,,
Trial,flow.Sequence,1_3_2,2022-05-09T12:39:29.229Z,,,,,,,,,,,,,,,,,,,,,,,,,,,,,,,5514.7430000000895,,completion,,,,,,,,,3,,,,,,,,I,O,S,,98471.6000000001,98470.1000000001,92938.691,92942.70000000007,92955.357,98475.41,,,
Sounds,html.Screen,1_3_3_0,2022-05-09T12:39:33.469Z,,,,,,,,,,,,,,,,,,,,,,,,,,,,,,,4250.91399999999,,timeout,,,,,,,,,2,,,,,,,,I,S,O,,102711.30000000005,102709.658,98458.744,98471.80000000005,98475.41,102726.324,,,
Judgement,html.Screen,1_3_3_1,2022-05-09T12:39:34.997Z,,,,,,,,,,,,,,,,,,,,,,,,,,,,true,2,,1511.8760000000766,,response,,,,,,,,,2,,2,click #choice-2,,,,,I,S,O,,104239,104238.20000000007,102709.658,102711.6000000001,102726.324,104247.544,,,
Trial,flow.Sequence,1_3_3,2022-05-09T12:39:34.997Z,,,,,,,,,,,,,,,,,,,,,,,,,,,,,,,5762.790000000066,,completion,,,,,,,,,2,,,,,,,,I,S,O,,104239.20000000007,104238.20000000007,98458.744,98471.70000000007,98475.41,104247.544,,,
Sounds,html.Screen,1_3_4_0,2022-05-09T12:39:39.240Z,,,,,,,,,,,,,,,,,,,,,,,,,,,,,,,4250.37000000001,,timeout,,,,,,,,,1,,,,,,,,S,I,O,,108482.70000000007,108481.248,104230.878,104239.30000000005,104247.544,108497.914,,,
Judgement,html.Screen,1_3_4_1,2022-05-09T12:39:39.998Z,,,,,,,,,,,,,,,,,,,,,,,,,,,,true,1,,741.1860000000888,,response,,,,,,,,,1,,1,click #choice-1,,,,,S,I,O,,109240.1000000001,109239.1000000001,108481.248,108482.80000000005,108497.914,109251.266,,,
Trial,flow.Sequence,1_3_4,2022-05-09T12:39:39.998Z,,,,,,,,,,,,,,,,,,,,,,,,,,,,,,,4991.556000000099,,completion,,,,,,,,,1,,,,,,,,S,I,O,,109240.40000000002,109239.1000000001,104230.878,104239.30000000005,104247.544,109251.266,,,
Sounds,html.Screen,1_3_5_0,2022-05-09T12:39:44.244Z,,,,,,,,,,,,,,,,,,,,,,,,,,,,,,,4250.853999999992,,timeout,,,,,,,,,1,,,,,,,,S,O,I,,113486.40000000002,113485.454,109234.6,109240.6000000001,109251.266,113502.12,,,
Judgement,html.Screen,1_3_5_1,2022-05-09T12:39:45.199Z,,,,,,,,,,,,,,,,,,,,,,,,,,,,true,1,,937.9800000000978,,response,,,,,,,,,1,,1,click #choice-1,,,,,S,O,I,,114441.1000000001,114440.1000000001,113485.454,113486.6000000001,113502.12,114454.139,,,
Trial,flow.Sequence,1_3_5,2022-05-09T12:39:45.199Z,,,,,,,,,,,,,,,,,,,,,,,,,,,,,,,5188.83400000009,,completion,,,,,,,,,1,,,,,,,,S,O,I,,114441.20000000007,114440.1000000001,109234.6,109240.6000000001,109251.266,114454.139,,,
Task,flow.Loop,1_3,2022-05-09T12:39:45.203Z,,,,,,,,,,,,,,,,,,,,,,,,,,,,,,,32843.92400000009,,completion,,,1,,,,,,,,,,,,,,,,,,114445.6000000001,114440.1000000001,81579.51,81581.1000000001,81596.176,114454.139,,,
Trap,html.Screen,1_4,2022-05-09T12:39:45.210Z,,,,,,,,,,,,,,,,,,,,,,,,,,,,,,,NaN,,skipped,,,,,,,,,,,,,,,,,,,,,114452,114440.1000000001,,114451.90000000002,,114454.139,,,
Thanks,html.Screen,1_5,2022-05-09T12:39:50.062Z,,,,,,,,,,,,,,,,,,,,,,,,,,,,,,,4849.861000000004,,response,,,,,,,,,,,continue,click button,,,,,,,,,119304.90000000002,119304,114437.473,114452.1000000001,114454.139,123460.539,,,
Headphone screening,flow.Sequence,1,2022-05-09T12:39:50.063Z,,,,,,,,,,,,,,,,,,,,,,,,,,,,,,,78324.065,,completion,,,,,,,,,,,,,,,,,,,,,119305,119304,40963.269,40970,40979.935,123460.539,,,
Instructions,html.Page,2_0,2022-05-09T12:40:18.708Z,,,,,,,,,,,,,,,,,,,,,,,,,,,,,,,24489.460999999996,,form submission,,,,,,,,,,,,,,,,,,,,,147950.20000000007,147950,123443.873,123459.6000000001,123460.539,147965.873,,,
Holding screen,html.Screen,2_1_0_0,2022-05-09T12:40:28.717Z,,,,,,,,,,,,,,,,,,,,,,,,,,,,,,,10007.906000000017,,timeout,,,,,,,,,,,,,,,,,,,,,157958.90000000002,157957.113,147949.207,147950.5,147965.873,157973.779,,,
screen,html.Screen,2_1_0_1_0,2022-05-09T12:40:29.682Z,,,,,,,,,,,,,,,,,53,,,,,,,,,,,,,,948.4210000000603,,response,,,,99,,,,,,,Space,keypress(Space),,,,,,,,When -- ----- -- ------ - ------- --- ----------<br>------------- ------ ------ ---- ---- ------- ----- -- ----<br>-------- ------- -- ---------- --- - --- ----- ----- ----<br>---- --- --- ----- --- ---- ---- ------- ----- ---- -------<br>--- --- -- ----- -- --- ---- -- --- ---- -- ------ ------<br>--- ----- -- ----,158924.20000000007,158922.20000000007,157957.113,157959.1000000001,157973.779,158924.365,,0,When
screen,html.Screen,2_1_0_1_1,2022-05-09T12:40:30.079Z,,,,,,,,,,,,,,,,,53,,,,,,,,,,,,,,396.5350000000326,,response,,,,99,,,,,,,Space,keypress(Space),,,,,,,,---- it ----- -- ------ - ------- --- ----------<br>------------- ------ ------ ---- ---- ------- ----- -- ----<br>-------- ------- -- ---------- --- - --- ----- ----- ----<br>---- --- --- ----- --- ---- ---- ------- ----- ---- -------<br>--- --- -- ----- -- --- ---- -- --- ---- -- ------ ------<br>--- ----- -- ----,159321.5,159320.90000000002,158907.699,158924.40000000002,158924.365,159325.323,,1,it
screen,html.Screen,2_1_0_1_2,2022-05-09T12:40:30.447Z,,,,,,,,,,,,,,,,,53,,,,,,,,,,,,,,363.8770000000659,,response,,,,99,,,,,,,Space,keypress(Space),,,,,,,,---- -- comes -- ------ - ------- --- ----------<br>------------- ------ ------ ---- ---- ------- ----- -- ----<br>-------- ------- -- ---------- --- - --- ----- ----- ----<br>---- --- --- ----- --- ---- ---- ------- ----- ---- -------<br>--- --- -- ----- -- --- ---- -- --- ---- -- ------ ------<br>--- ----- -- ----,159689.90000000002,159689.20000000007,159308.657,159321.6000000001,159325.323,159692.78,,2,comes
screen,html.Screen,2_1_0_1_3,2022-05-09T12:40:30.815Z,,,,,,,,,,,,,,,,,53,,,,,,,,,,,,,,364.420000000071,,response,,,,99,,,,,,,Space,keypress(Space),,,,,,,,---- -- ----- to ------ - ------- --- ----------<br>------------- ------ ------ ---- ---- ------- ----- -- ----<br>-------- ------- -- ---------- --- - --- ----- ----- ----<br>---- --- --- ----- --- ---- ---- ------- ----- ---- -------<br>--- --- -- ----- -- --- ---- -- --- ---- -- ------ ------<br>--- ----- -- ----,160057.70000000007,160057.20000000007,159676.114,159689.90000000002,159692.78,160059.782,,3,to
screen,html.Screen,2_1_0_1_4,2022-05-09T12:40:31.272Z,,,,,,,,,,,,,,,,,53,,,,,,,,,,,,,,453.61800000001676,,response,,,,99,,,,,,,Space,keypress(Space),,,,,,,,---- -- ----- -- having - ------- --- ----------<br>------------- ------ ------ ---- ---- ------- ----- -- ----<br>-------- ------- -- ---------- --- - --- ----- ----- ----<br>---- --- --- ----- --- ---- ---- ------- ----- ---- -------<br>--- --- -- ----- -- --- ---- -- --- ---- -- ------ ------<br>--- ----- -- ----,160514.1000000001,160513.40000000002,160043.116,160057.80000000005,160059.782,160526.443,,4,having
screen,html.Screen,2_1_0_1_5,2022-05-09T12:40:31.664Z,,,,,,,,,,,,,,,,,53,,,,,,,,,,,,,,378.957000000024,,response,,,,99,,,,,,,Space,keypress(Space),,,,,,,,---- -- ----- -- ------ a ------- --- ----------<br>------------- ------ ------ ---- ---- ------- ----- -- ----<br>-------- ------- -- ---------- --- - --- ----- ----- ----<br>---- --- --- ----- --- ---- ---- ------- ----- ---- -------<br>--- --- -- ----- -- --- ---- -- --- ---- -- ------ ------<br>--- ----- -- ----,160906,160905.40000000002,160509.777,160514.1000000001,160526.443,160910.157,,5,a
screen,html.Screen,2_1_0_1_6,2022-05-09T12:40:32.080Z,,,,,,,,,,,,,,,,,53,,,,,,,,,,,,,,411.14300000004005,,response,,,,99,,,,,,,Space,keypress(Space),,,,,,,,---- -- ----- -- ------ - lasting --- ----------<br>------------- ------ ------ ---- ---- ------- ----- -- ----<br>-------- ------- -- ---------- --- - --- ----- ----- ----<br>---- --- --- ----- --- ---- ---- ------- ----- ---- -------<br>--- --- -- ----- -- --- ---- -- --- ---- -- ------ ------<br>--- ----- -- ----,161321.90000000002,161321.30000000005,160893.491,160906.20000000007,160910.157,161327.595,,6,lasting
screen,html.Screen,2_1_0_1_7,2022-05-09T12:40:32.432Z,,,,,,,,,,,,,,,,,53,,,,,,,,,,,,,,345.8050000000221,,response,,,,99,,,,,,,Space,keypress(Space),,,,,,,,---- -- ----- -- ------ - ------- and ----------<br>------------- ------ ------ ---- ---- ------- ----- -- ----<br>-------- ------- -- ---------- --- - --- ----- ----- ----<br>---- --- --- ----- --- ---- ---- ------- ----- ---- -------<br>--- --- -- ----- -- --- ---- -- --- ---- -- ------ ------<br>--- ----- -- ----,161673.90000000002,161673.40000000002,161310.929,161322,161327.595,161677.481,,7,and
screen,html.Screen,2_1_0_1_8,2022-05-09T12:40:32.847Z,,,,,,,,,,,,,,,,,53,,,,,,,,,,,,,,411.7190000000701,,response,,,,99,,,,,,,Space,keypress(Space),,,,,,,,---- -- ----- -- ------ - ------- --- fulfilling<br>------------- ------ ------ ---- ---- ------- ----- -- ----<br>-------- ------- -- ---------- --- - --- ----- ----- ----<br>---- --- --- ----- --- ---- ---- ------- ----- ---- -------<br>--- --- -- ----- -- --- ---- -- --- ---- -- ------ ------<br>--- ----- -- ----,162089.70000000007,162089.20000000007,161660.815,161674,161677.481,162094.995,,8,fulfilling
screen,html.Screen,2_1_0_1_9,2022-05-09T12:40:33.575Z,,,,,,,,,,,,,,,,,53,,,,,,,,,,,,,,722.1050000000978,,response,,,,99,,,,,,,Space,keypress(Space),,,,,,,,"---- -- ----- -- ------ - ------- --- ----------<br>relationship, ------ ------ ---- ---- ------- ----- -- ----<br>-------- ------- -- ---------- --- - --- ----- ----- ----<br>---- --- --- ----- --- ---- ---- ------- ----- ---- -------<br>--- --- -- ----- -- --- ---- -- --- ---- -- ------ ------<br>--- ----- -- ----",162817.70000000007,162817.1000000001,162078.329,162089.80000000005,162094.995,162828.194,,9,"relationship,"
screen,html.Screen,2_1_0_1_10,2022-05-09T12:40:34.216Z,,,,,,,,,,,,,,,,,53,,,,,,,,,,,,,,629.106000000058,,response,,,,99,,,,,,,Space,keypress(Space),,,,,,,,---- -- ----- -- ------ - ------- --- ----------<br>------------- common ------ ---- ---- ------- ----- -- ----<br>-------- ------- -- ---------- --- - --- ----- ----- ----<br>---- --- --- ----- --- ---- ---- ------- ----- ---- -------<br>--- --- -- ----- -- --- ---- -- --- ---- -- ------ ------<br>--- ----- -- ----,163458,163457.30000000005,162811.528,162817.80000000005,162828.194,163462.159,,10,common
screen,html.Screen,2_1_0_1_11,2022-05-09T12:40:34.567Z,,,,,,,,,,,,,,,,,53,,,,,,,,,,,,,,346.64100000003236,,response,,,,99,,,,,,,Space,keypress(Space),,,,,,,,---- -- ----- -- ------ - ------- --- ----------<br>------------- ------ wisdom ---- ---- ------- ----- -- ----<br>-------- ------- -- ---------- --- - --- ----- ----- ----<br>---- --- --- ----- --- ---- ---- ------- ----- ---- -------<br>--- --- -- ----- -- --- ---- -- --- ---- -- ------ ------<br>--- ----- -- ----,163809.40000000002,163808.80000000005,163445.493,163458.1000000001,163462.159,163812.191,,11,wisdom
screen,html.Screen,2_1_0_1_12,2022-05-09T12:40:34.935Z,,,,,,,,,,,,,,,,,53,,,,,,,,,,,,,,364.9090000001015,,response,,,,99,,,,,,,Space,keypress(Space),,,,,,,,---- -- ----- -- ------ - ------- --- ----------<br>------------- ------ ------ says ---- ------- ----- -- ----<br>-------- ------- -- ---------- --- - --- ----- ----- ----<br>---- --- --- ----- --- ---- ---- ------- ----- ---- -------<br>--- --- -- ----- -- --- ---- -- --- ---- -- ------ ------<br>--- ----- -- ----,164177.80000000005,164177.1000000001,163795.525,163809.5,163812.191,164179.631,,12,says
screen,html.Screen,2_1_0_1_13,2022-05-09T12:40:35.303Z,,,,,,,,,,,,,,,,,53,,,,,,,,,,,,,,365.36900000000605,,response,,,,99,,,,,,,Space,keypress(Space),,,,,,,,---- -- ----- -- ------ - ------- --- ----------<br>------------- ------ ------ ---- that ------- ----- -- ----<br>-------- ------- -- ---------- --- - --- ----- ----- ----<br>---- --- --- ----- --- ---- ---- ------- ----- ---- -------<br>--- --- -- ----- -- --- ---- -- --- ---- -- ------ ------<br>--- ----- -- ----,164545.6000000001,164545,164162.965,164177.90000000002,164179.631,164546.724,,13,that
screen,html.Screen,2_1_0_1_14,2022-05-09T12:40:35.695Z,,,,,,,,,,,,,,,,,53,,,,,,,,,,,,,,390.67600000003586,,response,,,,99,,,,,,,Space,keypress(Space),,,,,,,,---- -- ----- -- ------ - ------- --- ----------<br>------------- ------ ------ ---- ---- feeling ----- -- ----<br>-------- ------- -- ---------- --- - --- ----- ----- ----<br>---- --- --- ----- --- ---- ---- ------- ----- ---- -------<br>--- --- -- ----- -- --- ---- -- --- ---- -- ------ ------<br>--- ----- -- ----,164937.90000000002,164937.40000000002,164530.058,164545.70000000007,164546.724,164947.065,,14,feeling
screen,html.Screen,2_1_0_1_15,2022-05-09T12:40:36.183Z,,,,,,,,,,,,,,,,,53,,,,,,,,,,,,,,478.1350000000675,,response,,,,99,,,,,,,Space,keypress(Space),,,,,,,,---- -- ----- -- ------ - ------- --- ----------<br>------------- ------ ------ ---- ---- ------- close -- ----<br>-------- ------- -- ---------- --- - --- ----- ----- ----<br>---- --- --- ----- --- ---- ---- ------- ----- ---- -------<br>--- --- -- ----- -- --- ---- -- --- ---- -- ------ ------<br>--- ----- -- ----,165425.70000000007,165425.20000000007,164930.399,164937.90000000002,164947.065,165430.706,,15,close
screen,html.Screen,2_1_0_1_16,2022-05-09T12:40:36.535Z,,,,,,,,,,,,,,,,,53,,,,,,,,,,,,,,346.2939999999944,,response,,,,99,,,,,,,Space,keypress(Space),,,,,,,,---- -- ----- -- ------ - ------- --- ----------<br>------------- ------ ------ ---- ---- ------- ----- to ----<br>-------- ------- -- ---------- --- - --- ----- ----- ----<br>---- --- --- ----- --- ---- ---- ------- ----- ---- -------<br>--- --- -- ----- -- --- ---- -- --- ---- -- ------ ------<br>--- ----- -- ----,165777.6000000001,165777,165414.04,165425.80000000005,165430.706,165780.805,,16,to
screen,html.Screen,2_1_0_1_17,2022-05-09T12:40:37.008Z,,,,,,,,,,,,,,,,,53,,,,,,,,,,,,,,468.2950000001001,,response,,,,99,,,,,,,Space,keypress(Space),,,,,,,,---- -- ----- -- ------ - ------- --- ----------<br>------------- ------ ------ ---- ---- ------- ----- -- your<br>-------- ------- -- ---------- --- - --- ----- ----- ----<br>---- --- --- ----- --- ---- ---- ------- ----- ---- -------<br>--- --- -- ----- -- --- ---- -- --- ---- -- ------ ------<br>--- ----- -- ----,166249.90000000002,166249.1000000001,165764.139,165777.90000000002,165780.805,166264.674,,17,your
screen,html.Screen,2_1_0_1_18,2022-05-09T12:40:37.367Z,,,,,,,,,,,,,,,,,53,,,,,,,,,,,,,,344.5260000000708,,response,,,,99,,,,,,,Space,keypress(Space),,,,,,,,---- -- ----- -- ------ - ------- --- ----------<br>------------- ------ ------ ---- ---- ------- ----- -- ----<br>romantic ------- -- ---------- --- - --- ----- ----- ----<br>---- --- --- ----- --- ---- ---- ------- ----- ---- -------<br>--- --- -- ----- -- --- ---- -- --- ---- -- ------ ------<br>--- ----- -- ----,166609.70000000007,166609.20000000007,166248.008,166250,166264.674,166615.018,,18,romantic
screen,html.Screen,2_1_0_1_19,2022-05-09T12:40:37.783Z,,,,,,,,,,,,,,,,,53,,,,,,,,,,,,,,409.98199999998906,,response,,,,99,,,,,,,Space,keypress(Space),,,,,,,,---- -- ----- -- ------ - ------- --- ----------<br>------------- ------ ------ ---- ---- ------- ----- -- ----<br>-------- partner -- ---------- --- - --- ----- ----- ----<br>---- --- --- ----- --- ---- ---- ------- ----- ---- -------<br>--- --- -- ----- -- --- ---- -- --- ---- -- ------ ------<br>--- ----- -- ----,167025.5,167025,166598.352,166609.80000000005,166615.018,167032.054,,19,partner
screen,html.Screen,2_1_0_1_20,2022-05-09T12:40:38.175Z,,,,,,,,,,,,,,,,,53,,,,,,,,,,,,,,384.9459999999963,,response,,,,99,,,,,,,Space,keypress(Space),,,,,,,,---- -- ----- -- ------ - ------- --- ----------<br>------------- ------ ------ ---- ---- ------- ----- -- ----<br>-------- ------- is ---------- --- - --- ----- ----- ----<br>---- --- --- ----- --- ---- ---- ------- ----- ---- -------<br>--- --- -- ----- -- --- ---- -- --- ---- -- ------ ------<br>--- ----- -- ----,167417.6000000001,167417,167015.388,167025.6000000001,167032.054,167432.045,,20,is
screen,html.Screen,2_1_0_1_21,2022-05-09T12:40:38.663Z,,,,,,,,,,,,,,,,,53,,,,,,,,,,,,,,472.8550000000105,,response,,,,99,,,,,,,Space,keypress(Space),,,,,,,,---- -- ----- -- ------ - ------- --- ----------<br>------------- ------ ------ ---- ---- ------- ----- -- ----<br>-------- ------- -- paramount. --- - --- ----- ----- ----<br>---- --- --- ----- --- ---- ---- ------- ----- ---- -------<br>--- --- -- ----- -- --- ---- -- --- ---- -- ------ ------<br>--- ----- -- ----,167905.5,167904.90000000002,167415.379,167417.6000000001,167432.045,167915.809,,21,paramount.
screen,html.Screen,2_1_0_1_22,2022-05-09T12:40:39.688Z,,,,,,,,,,,,,,,,,53,,,,,,,,,,,,,,1014.4910000000382,,response,,,,99,,,,,,,Space,keypress(Space),,,,,,,,---- -- ----- -- ------ - ------- --- ----------<br>------------- ------ ------ ---- ---- ------- ----- -- ----<br>-------- ------- -- ---------- But - --- ----- ----- ----<br>---- --- --- ----- --- ---- ---- ------- ----- ---- -------<br>--- --- -- ----- -- --- ---- -- --- ---- -- ------ ------<br>--- ----- -- ----,168930.80000000005,168930.30000000005,167899.143,167905.5,167915.809,168933.113,,22,But
screen,html.Screen,2_1_0_1_23,2022-05-09T12:40:40.031Z,,,,,,,,,,,,,,,,,53,,,,,,,,,,,,,,339.987000000081,,response,,,,99,,,,,,,Space,keypress(Space),,,,,,,,---- -- ----- -- ------ - ------- --- ----------<br>------------- ------ ------ ---- ---- ------- ----- -- ----<br>-------- ------- -- ---------- --- a --- ----- ----- ----<br>---- --- --- ----- --- ---- ---- ------- ----- ---- -------<br>--- --- -- ----- -- --- ---- -- --- ---- -- ------ ------<br>--- ----- -- ----,169273.6000000001,169273.1000000001,168916.447,168930.90000000002,168933.113,169283.112,,23,a
screen,html.Screen,2_1_0_1_24,2022-05-09T12:40:40.263Z,,,,,,,,,,,,,,,,,53,,,,,,,,,,,,,,222.08800000007614,,response,,,,99,,,,,,,Space,keypress(Space),,,,,,,,---- -- ----- -- ------ - ------- --- ----------<br>------------- ------ ------ ---- ---- ------- ----- -- ----<br>-------- ------- -- ---------- --- - new ----- ----- ----<br>---- --- --- ----- --- ---- ---- ------- ----- ---- -------<br>--- --- -- ----- -- --- ---- -- --- ---- -- ------ ------<br>--- ----- -- ----,169505.80000000005,169505.20000000007,169266.446,169273.6000000001,169283.112,169517.893,,24,new
screen,html.Screen,2_1_0_1_25,2022-05-09T12:40:40.575Z,,,,,,,,,,,,,,,,,53,,,,,,,,,,,,,,299.2070000000822,,response,,,,99,,,,,,,Space,keypress(Space),,,,,,,,---- -- ----- -- ------ - ------- --- ----------<br>------------- ------ ------ ---- ---- ------- ----- -- ----<br>-------- ------- -- ---------- --- - --- study ----- ----<br>---- --- --- ----- --- ---- ---- ------- ----- ---- -------<br>--- --- -- ----- -- --- ---- -- --- ---- -- ------ ------<br>--- ----- -- ----,169817.70000000007,169817.1000000001,169501.227,169505.90000000002,169517.893,169834.364,,25,study
screen,html.Screen,2_1_0_1_26,2022-05-09T12:40:40.903Z,,,,,,,,,,,,,,,,,53,,,,,,,,,,,,,,310.5360000000219,,response,,,,99,,,,,,,Space,keypress(Space),,,,,,,,---- -- ----- -- ------ - ------- --- ----------<br>------------- ------ ------ ---- ---- ------- ----- -- ----<br>-------- ------- -- ---------- --- - --- ----- finds ----<br>---- --- --- ----- --- ---- ---- ------- ----- ---- -------<br>--- --- -- ----- -- --- ---- -- --- ---- -- ------ ------<br>--- ----- -- ----,170145.40000000002,170144.90000000002,169817.698,169817.80000000005,169834.364,170151.452,,26,finds
screen,html.Screen,2_1_0_1_27,2022-05-09T12:40:41.264Z,,,,,,,,,,,,,,,,,53,,,,,,,,,,,,,,353.84800000005635,,response,,,,99,,,,,,,Space,keypress(Space),,,,,,,,---- -- ----- -- ------ - ------- --- ----------<br>------------- ------ ------ ---- ---- ------- ----- -- ----<br>-------- ------- -- ---------- --- - --- ----- ----- that<br>---- --- --- ----- --- ---- ---- ------- ----- ---- -------<br>--- --- -- ----- -- --- ---- -- --- ---- -- ------ ------<br>--- ----- -- ----,170505.90000000002,170505.30000000005,170134.786,170145.5,170151.452,170517.918,,27,that
screen,html.Screen,2_1_0_1_28,2022-05-09T12:40:41.767Z,,,,,,,,,,,,,,,,,53,,,,,,,,,,,,,,491.0819999999949,,response,,,,99,,,,,,,Space,keypress(Space),,,,,,,,---- -- ----- -- ------ - ------- --- ----------<br>------------- ------ ------ ---- ---- ------- ----- -- ----<br>-------- ------- -- ---------- --- - --- ----- ----- ----<br>it's --- --- ----- --- ---- ---- ------- ----- ---- -------<br>--- --- -- ----- -- --- ---- -- --- ---- -- ------ ------<br>--- ----- -- ----,171009.5,171009,170501.252,170506,170517.918,171018.403,,28,it's
screen,html.Screen,2_1_0_1_29,2022-05-09T12:40:42.167Z,,,,,,,,,,,,,,,,,53,,,,,,,,,,,,,,390.697000000102,,response,,,,99,,,,,,,Space,keypress(Space),,,,,,,,---- -- ----- -- ------ - ------- --- ----------<br>------------- ------ ------ ---- ---- ------- ----- -- ----<br>-------- ------- -- ---------- --- - --- ----- ----- ----<br>---- not --- ----- --- ---- ---- ------- ----- ---- -------<br>--- --- -- ----- -- --- ---- -- --- ---- -- ------ ------<br>--- ----- -- ----,171409.6000000001,171409.1000000001,171001.737,171009.6000000001,171018.403,171418.86,,29,not
screen,html.Screen,2_1_0_1_30,2022-05-09T12:40:42.367Z,,,,,,,,,,,,,,,,,53,,,,,,,,,,,,,,190.34000000008382,,response,,,,99,,,,,,,Space,keypress(Space),,,,,,,,---- -- ----- -- ------ - ------- --- ----------<br>------------- ------ ------ ---- ---- ------- ----- -- ----<br>-------- ------- -- ---------- --- - --- ----- ----- ----<br>---- --- how ----- --- ---- ---- ------- ----- ---- -------<br>--- --- -- ----- -- --- ---- -- --- ---- -- ------ ------<br>--- ----- -- ----,171609.80000000005,171609.20000000007,171402.194,171409.70000000007,171418.86,171619.25,,30,how
screen,html.Screen,2_1_0_1_31,2022-05-09T12:40:42.719Z,,,,,,,,,,,,,,,,,53,,,,,,,,,,,,,,341.75,,response,,,,99,,,,,,,Space,keypress(Space),,,,,,,,---- -- ----- -- ------ - ------- --- ----------<br>------------- ------ ------ ---- ---- ------- ----- -- ----<br>-------- ------- -- ---------- --- - --- ----- ----- ----<br>---- --- --- close --- ---- ---- ------- ----- ---- -------<br>--- --- -- ----- -- --- ---- -- --- ---- -- ------ ------<br>--- ----- -- ----,171961.70000000007,171961,171602.584,171609.90000000002,171619.25,171969.611,,31,close
screen,html.Screen,2_1_0_1_32,2022-05-09T12:40:43.119Z,,,,,,,,,,,,,,,,,53,,,,,,,,,,,,,,391.68900000004214,,response,,,,99,,,,,,,Space,keypress(Space),,,,,,,,---- -- ----- -- ------ - ------- --- ----------<br>------------- ------ ------ ---- ---- ------- ----- -- ----<br>-------- ------- -- ---------- --- - --- ----- ----- ----<br>---- --- --- ----- you ---- ---- ------- ----- ---- -------<br>--- --- -- ----- -- --- ---- -- --- ---- -- ------ ------<br>--- ----- -- ----,172361.80000000005,172361.30000000005,171952.945,171961.80000000005,171969.611,172369.575,,32,you
screen,html.Screen,2_1_0_1_33,2022-05-09T12:40:43.359Z,,,,,,,,,,,,,,,,,53,,,,,,,,,,,,,,231.42499999998836,,response,,,,99,,,,,,,Space,keypress(Space),,,,,,,,---- -- ----- -- ------ - ------- --- ----------<br>------------- ------ ------ ---- ---- ------- ----- -- ----<br>-------- ------- -- ---------- --- - --- ----- ----- ----<br>---- --- --- ----- --- feel ---- ------- ----- ---- -------<br>--- --- -- ----- -- --- ---- -- --- ---- -- ------ ------<br>--- ----- -- ----,172601.6000000001,172601,172352.909,172362,172369.575,172603.323,,33,feel
screen,html.Screen,2_1_0_1_34,2022-05-09T12:40:43.760Z,,,,,,,,,,,,,,,,,53,,,,,,,,,,,,,,397.9770000000426,,response,,,,99,,,,,,,Space,keypress(Space),,,,,,,,---- -- ----- -- ------ - ------- --- ----------<br>------------- ------ ------ ---- ---- ------- ----- -- ----<br>-------- ------- -- ---------- --- - --- ----- ----- ----<br>---- --- --- ----- --- ---- that ------- ----- ---- -------<br>--- --- -- ----- -- --- ---- -- --- ---- -- ------ ------<br>--- ----- -- ----,173001.90000000002,173001.30000000005,172586.657,172601.70000000007,172603.323,173003.685,,34,that
screen,html.Screen,2_1_0_1_35,2022-05-09T12:40:44.239Z,,,,,,,,,,,,,,,,,53,,,,,,,,,,,,,,477.2150000000256,,response,,,,99,,,,,,,Space,keypress(Space),,,,,,,,---- -- ----- -- ------ - ------- --- ----------<br>------------- ------ ------ ---- ---- ------- ----- -- ----<br>-------- ------- -- ---------- --- - --- ----- ----- ----<br>---- --- --- ----- --- ---- ---- matters ----- ---- -------<br>--- --- -- ----- -- --- ---- -- --- ---- -- ------ ------<br>--- ----- -- ----,173481.40000000002,173480.90000000002,172987.019,173002,173003.685,173487.189,,35,matters
screen,html.Screen,2_1_0_1_36,2022-05-09T12:40:44.615Z,,,,,,,,,,,,,,,,,53,,,,,,,,,,,,,,369.6110000000335,,response,,,,99,,,,,,,Space,keypress(Space),,,,,,,,"---- -- ----- -- ------ - ------- --- ----------<br>------------- ------ ------ ---- ---- ------- ----- -- ----<br>-------- ------- -- ---------- --- - --- ----- ----- ----<br>---- --- --- ----- --- ---- ---- ------- most, ---- -------<br>--- --- -- ----- -- --- ---- -- --- ---- -- ------ ------<br>--- ----- -- ----",173857.30000000005,173856.80000000005,173470.523,173481.6000000001,173487.189,173870.583,,36,"most,"
screen,html.Screen,2_1_0_1_37,2022-05-09T12:40:45.351Z,,,,,,,,,,,,,,,,,53,,,,,,,,,,,,,,722.2170000000333,,response,,,,99,,,,,,,Space,keypress(Space),,,,,,,,---- -- ----- -- ------ - ------- --- ----------<br>------------- ------ ------ ---- ---- ------- ----- -- ----<br>-------- ------- -- ---------- --- - --- ----- ----- ----<br>---- --- --- ----- --- ---- ---- ------- ----- it's -------<br>--- --- -- ----- -- --- ---- -- --- ---- -- ------ ------<br>--- ----- -- ----,174593.40000000002,174592.80000000005,173853.917,173857.5,173870.583,174604.376,,37,it's
screen,html.Screen,2_1_0_1_38,2022-05-09T12:40:45.615Z,,,,,,,,,,,,,,,,,53,,,,,,,,,,,,,,252.82400000008056,,response,,,,99,,,,,,,Space,keypress(Space),,,,,,,,---- -- ----- -- ------ - ------- --- ----------<br>------------- ------ ------ ---- ---- ------- ----- -- ----<br>-------- ------- -- ---------- --- - --- ----- ----- ----<br>---- --- --- ----- --- ---- ---- ------- ----- ---- whether<br>--- --- -- ----- -- --- ---- -- --- ---- -- ------ ------<br>--- ----- -- ----,174857.80000000005,174857.20000000007,174587.71,174593.6000000001,174604.376,174871.668,,38,whether
screen,html.Screen,2_1_0_1_39,2022-05-09T12:40:46.015Z,,,,,,,,,,,,,,,,,53,,,,,,,,,,,,,,385.432000000088,,response,,,,99,,,,,,,Space,keypress(Space),,,,,,,,---- -- ----- -- ------ - ------- --- ----------<br>------------- ------ ------ ---- ---- ------- ----- -- ----<br>-------- ------- -- ---------- --- - --- ----- ----- ----<br>---- --- --- ----- --- ---- ---- ------- ----- ---- -------<br>you --- -- ----- -- --- ---- -- --- ---- -- ------ ------<br>--- ----- -- ----,175257.6000000001,175257.1000000001,174855.002,174857.90000000002,174871.668,175271.91,,39,you
screen,html.Screen,2_1_0_1_40,2022-05-09T12:40:46.311Z,,,,,,,,,,,,,,,,,53,,,,,,,,,,,,,,281.29000000006636,,response,,,,99,,,,,,,Space,keypress(Space),,,,,,,,---- -- ----- -- ------ - ------- --- ----------<br>------------- ------ ------ ---- ---- ------- ----- -- ----<br>-------- ------- -- ---------- --- - --- ----- ----- ----<br>---- --- --- ----- --- ---- ---- ------- ----- ---- -------<br>--- are -- ----- -- --- ---- -- --- ---- -- ------ ------<br>--- ----- -- ----,175553.80000000005,175553.20000000007,175255.244,175257.80000000005,175271.91,175555.977,,40,are
screen,html.Screen,2_1_0_1_41,2022-05-09T12:40:46.559Z,,,,,,,,,,,,,,,,,53,,,,,,,,,,,,,,245.0229999999865,,response,,,,99,,,,,,,Space,keypress(Space),,,,,,,,---- -- ----- -- ------ - ------- --- ----------<br>------------- ------ ------ ---- ---- ------- ----- -- ----<br>-------- ------- -- ---------- --- - --- ----- ----- ----<br>---- --- --- ----- --- ---- ---- ------- ----- ---- -------<br>--- --- as ----- -- --- ---- -- --- ---- -- ------ ------<br>--- ----- -- ----,175801.6000000001,175801,175539.311,175553.90000000002,175555.977,175805.882,,41,as
screen,html.Screen,2_1_0_1_42,2022-05-09T12:40:47.015Z,,,,,,,,,,,,,,,,,53,,,,,,,,,,,,,,451.2180000000808,,response,,,,99,,,,,,,Space,keypress(Space),,,,,,,,---- -- ----- -- ------ - ------- --- ----------<br>------------- ------ ------ ---- ---- ------- ----- -- ----<br>-------- ------- -- ---------- --- - --- ----- ----- ----<br>---- --- --- ----- --- ---- ---- ------- ----- ---- -------<br>--- --- -- close -- --- ---- -- --- ---- -- ------ ------<br>--- ----- -- ----,176257.70000000007,176257.1000000001,175789.216,175801.70000000007,175805.882,176273.01,,42,close
screen,html.Screen,2_1_0_1_43,2022-05-09T12:40:47.375Z,,,,,,,,,,,,,,,,,53,,,,,,,,,,,,,,344.29000000003725,,response,,,,99,,,,,,,Space,keypress(Space),,,,,,,,---- -- ----- -- ------ - ------- --- ----------<br>------------- ------ ------ ---- ---- ------- ----- -- ----<br>-------- ------- -- ---------- --- - --- ----- ----- ----<br>---- --- --- ----- --- ---- ---- ------- ----- ---- -------<br>--- --- -- ----- as --- ---- -- --- ---- -- ------ ------<br>--- ----- -- ----,176617.80000000005,176617.30000000005,176256.344,176257.80000000005,176273.01,176622.821,,43,as
screen,html.Screen,2_1_0_1_44,2022-05-09T12:40:47.711Z,,,,,,,,,,,,,,,,,53,,,,,,,,,,,,,,330.27900000009686,,response,,,,99,,,,,,,Space,keypress(Space),,,,,,,,---- -- ----- -- ------ - ------- --- ----------<br>------------- ------ ------ ---- ---- ------- ----- -- ----<br>-------- ------- -- ---------- --- - --- ----- ----- ----<br>---- --- --- ----- --- ---- ---- ------- ----- ---- -------<br>--- --- -- ----- -- you ---- -- --- ---- -- ------ ------<br>--- ----- -- ----,176953.70000000007,176953.1000000001,176606.155,176618,176622.821,176956.689,,44,you
screen,html.Screen,2_1_0_1_45,2022-05-09T12:40:47.959Z,,,,,,,,,,,,,,,,,53,,,,,,,,,,,,,,244.4110000000801,,response,,,,99,,,,,,,Space,keypress(Space),,,,,,,,---- -- ----- -- ------ - ------- --- ----------<br>------------- ------ ------ ---- ---- ------- ----- -- ----<br>-------- ------- -- ---------- --- - --- ----- ----- ----<br>---- --- --- ----- --- ---- ---- ------- ----- ---- -------<br>--- --- -- ----- -- --- want -- --- ---- -- ------ ------<br>--- ----- -- ----,177201.70000000007,177201.1000000001,176940.023,176953.80000000005,176956.689,177207.102,,45,want
screen,html.Screen,2_1_0_1_46,2022-05-09T12:40:48.327Z,,,,,,,,,,,,,,,,,53,,,,,,,,,,,,,,361.7980000000098,,response,,,,99,,,,,,,Space,keypress(Space),,,,,,,,---- -- ----- -- ------ - ------- --- ----------<br>------------- ------ ------ ---- ---- ------- ----- -- ----<br>-------- ------- -- ---------- --- - --- ----- ----- ----<br>---- --- --- ----- --- ---- ---- ------- ----- ---- -------<br>--- --- -- ----- -- --- ---- to --- ---- -- ------ ------<br>--- ----- -- ----,177569.6000000001,177568.90000000002,177190.436,177201.80000000005,177207.102,177574.125,,46,to
screen,html.Screen,2_1_0_1_47,2022-05-09T12:40:48.679Z,,,,,,,,,,,,,,,,,53,,,,,,,,,,,,,,346.67500000004657,,response,,,,99,,,,,,,Space,keypress(Space),,,,,,,,"---- -- ----- -- ------ - ------- --- ----------<br>------------- ------ ------ ---- ---- ------- ----- -- ----<br>-------- ------- -- ---------- --- - --- ----- ----- ----<br>---- --- --- ----- --- ---- ---- ------- ----- ---- -------<br>--- --- -- ----- -- --- ---- -- be, ---- -- ------ ------<br>--- ----- -- ----",177921.40000000002,177920.80000000005,177557.459,177569.80000000005,177574.125,177924.283,,47,"be,"
screen,html.Screen,2_1_0_1_48,2022-05-09T12:40:49.343Z,,,,,,,,,,,,,,,,,53,,,,,,,,,,,,,,661.0170000000508,,response,,,,99,,,,,,,Space,keypress(Space),,,,,,,,---- -- ----- -- ------ - ------- --- ----------<br>------------- ------ ------ ---- ---- ------- ----- -- ----<br>-------- ------- -- ---------- --- - --- ----- ----- ----<br>---- --- --- ----- --- ---- ---- ------- ----- ---- -------<br>--- --- -- ----- -- --- ---- -- --- even -- ------ ------<br>--- ----- -- ----,178585.90000000002,178585.30000000005,177907.617,177921.40000000002,177924.283,178591.055,,48,even
screen,html.Screen,2_1_0_1_49,2022-05-09T12:40:49.607Z,,,,,,,,,,,,,,,,,53,,,,,,,,,,,,,,257.84500000003027,,response,,,,99,,,,,,,Space,keypress(Space),,,,,,,,---- -- ----- -- ------ - ------- --- ----------<br>------------- ------ ------ ---- ---- ------- ----- -- ----<br>-------- ------- -- ---------- --- - --- ----- ----- ----<br>---- --- --- ----- --- ---- ---- ------- ----- ---- -------<br>--- --- -- ----- -- --- ---- -- --- ---- if ------ ------<br>--- ----- -- ----,178849.5,178848.90000000002,178574.389,178586,178591.055,178858.148,,49,if
screen,html.Screen,2_1_0_1_50,2022-05-09T12:40:49.848Z,,,,,,,,,,,,,,,,,53,,,,,,,,,,,,,,231.95200000010664,,response,,,,99,,,,,,,Space,keypress(Space),,,,,,,,---- -- ----- -- ------ - ------- --- ----------<br>------------- ------ ------ ---- ---- ------- ----- -- ----<br>-------- ------- -- ---------- --- - --- ----- ----- ----<br>---- --- --- ----- --- ---- ---- ------- ----- ---- -------<br>--- --- -- ----- -- --- ---- -- --- ---- -- that's ------<br>--- ----- -- ----,179090.80000000005,179090.1000000001,178841.482,178849.6000000001,178858.148,179092.057,,50,that's
screen,html.Screen,2_1_0_1_51,2022-05-09T12:40:50.184Z,,,,,,,,,,,,,,,,,53,,,,,,,,,,,,,,333.14300000006915,,response,,,,99,,,,,,,Space,keypress(Space),,,,,,,,---- -- ----- -- ------ - ------- --- ----------<br>------------- ------ ------ ---- ---- ------- ----- -- ----<br>-------- ------- -- ---------- --- - --- ----- ----- ----<br>---- --- --- ----- --- ---- ---- ------- ----- ---- -------<br>--- --- -- ----- -- --- ---- -- --- ---- -- ------ really<br>--- ----- -- ----,179425.90000000002,179425.20000000007,179075.391,179090.80000000005,179092.057,179442.265,,51,really
screen,html.Screen,2_1_0_1_52,2022-05-09T12:40:50.679Z,,,,,,,,,,,,,,,,,53,,,,,,,,,,,,,,478.6350000000093,,response,,,,99,,,,,,,Space,keypress(Space),,,,,,,,---- -- ----- -- ------ - ------- --- ----------<br>------------- ------ ------ ---- ---- ------- ----- -- ----<br>-------- ------- -- ---------- --- - --- ----- ----- ----<br>---- --- --- ----- --- ---- ---- ------- ----- ---- -------<br>--- --- -- ----- -- --- ---- -- --- ---- -- ------ ------<br>not ----- -- ----,179921.40000000002,179920.90000000002,179425.599,179426,179442.265,179925.552,,52,not
screen,html.Screen,2_1_0_1_53,2022-05-09T12:40:51.055Z,,,,,,,,,,,,,,,,,53,,,,,,,,,,,,,,371.44800000000396,,response,,,,99,,,,,,,Space,keypress(Space),,,,,,,,---- -- ----- -- ------ - ------- --- ----------<br>------------- ------ ------ ---- ---- ------- ----- -- ----<br>-------- ------- -- ---------- --- - --- ----- ----- ----<br>---- --- --- ----- --- ---- ---- ------- ----- ---- -------<br>--- --- -- ----- -- --- ---- -- --- ---- -- ------ ------<br>--- close -- ----,180297.5,180297,179908.886,179921.5,179925.552,180309.222,,53,close
screen,html.Screen,2_1_0_1_54,2022-05-09T12:40:51.495Z,,,,,,,,,,,,,,,,,53,,,,,,,,,,,,,,427.67800000001444,,response,,,,99,,,,,,,Space,keypress(Space),,,,,,,,---- -- ----- -- ------ - ------- --- ----------<br>------------- ------ ------ ---- ---- ------- ----- -- ----<br>-------- ------- -- ---------- --- - --- ----- ----- ----<br>---- --- --- ----- --- ---- ---- ------- ----- ---- -------<br>--- --- -- ----- -- --- ---- -- --- ---- -- ------ ------<br>--- ----- at ----,180737.40000000002,180736.90000000002,180292.556,180297.6000000001,180309.222,180743.256,,54,at
screen,html.Screen,2_1_0_1_55,2022-05-09T12:40:52.048Z,,,,,,,,,,,,,,,,,53,,,,,,,,,,,,,,546.0440000000526,,response,,,,99,,,,,,,Space,keypress(Space),,,,,,,,---- -- ----- -- ------ - ------- --- ----------<br>------------- ------ ------ ---- ---- ------- ----- -- ----<br>-------- ------- -- ---------- --- - --- ----- ----- ----<br>---- --- --- ----- --- ---- ---- ------- ----- ---- -------<br>--- --- -- ----- -- --- ---- -- --- ---- -- ------ ------<br>--- ----- -- all.,181289.90000000002,181289.30000000005,180726.59,180737.5,180743.256,181293.192,,55,all.
Item 99,flow.Loop,2_1_0_1,2022-05-09T12:40:52.048Z,,,,,,,,,,,,,,,,,,,,,,,,,,,,,,,23315.521000000037,,completion,,,,,F,,,,,,,,,,,silence,,,,,181290.1000000001,181289.30000000005,157957.113,157959,157973.779,181293.192,,,
Question 1,html.Screen,2_1_0_2,2022-05-09T12:40:57.255Z,,,,,,,,,,,,,,,,,,,,,,,,,,,,false,FALSE,,5203.408000000083,,response,,,,99,F,,,,,,TRUE,click #choice-1,,,,silence,,,,,186497.5,186496.6000000001,181276.526,181290.20000000007,181293.192,186497.486,,,
Question 2,html.Screen,2_1_0_3,2022-05-09T12:41:03.794Z,,,,,,,,,,,,,,,,,,,,,,,,,,,,true,TRUE,,6537.114000000089,,response,,,,99,F,,,,,,TRUE,click #choice-1,,,,silence,,,,,193035.6000000001,193034.6000000001,186480.82,186497.70000000007,186497.486,193036.123,,,
Item 99,flow.Sequence,2_1_0,2022-05-09T12:41:03.794Z,,,,,,,,,,,,,,,,,,,,,,,,,,,,,,,45068.7270000001,,completion,,,,,,,,,,,,,,,,,,,,,193035.80000000005,193034.6000000001,147949.207,147950.5,147965.873,193036.123,,,
Holding screen,html.Screen,2_1_1_0,2022-05-09T12:41:13.786Z,,,,,,,,,,,,,,,,,,,,,,,,,,,,,,,10007.436000000016,,timeout,,,,,,,,,,,,,,,,,,,,,203028.30000000005,203026.893,193019.457,193035.90000000002,193036.123,203043.559,,,
screen,html.Screen,2_1_1_1_0,2022-05-09T12:41:15.232Z,,,,,,,,,,,,,,,,,54,,,,,,,,,,,,,,1430.341000000015,,response,,,,100,,,,,,,Space,keypress(Space),,,,,,,,At --- ---- --- ------ ----- ------- ---- -- --- ------- --<br>------- ---------- ------ -- ----- -- ----- -- ---- ------<br>--- ----- --- --- ------ -------- ----- --- ------ ----- --<br>----- ----- ---------- --- --- ------ ------ ---- -- ------<br>------- --- ------ ----- --- ---- ------- -- ---- --- --<br>------- ------,204474.5,204473.90000000002,203026.893,203028.5,203043.559,204477.771,,0,At
screen,html.Screen,2_1_1_1_1,2022-05-09T12:41:15.535Z,,,,,,,,,,,,,,,,,54,,,,,,,,,,,,,,299.02900000003865,,response,,,,100,,,,,,,Space,keypress(Space),,,,,,,,-- the ---- --- ------ ----- ------- ---- -- --- ------- --<br>------- ---------- ------ -- ----- -- ----- -- ---- ------<br>--- ----- --- --- ------ -------- ----- --- ------ ----- --<br>----- ----- ---------- --- --- ------ ------ ---- -- ------<br>------- --- ------ ----- --- ---- ------- -- ---- --- --<br>------- ------,204777.5,204776.80000000005,204461.105,204474.6000000001,204477.771,204778.513,,1,the
screen,html.Screen,2_1_1_1_2,2022-05-09T12:41:15.823Z,,,,,,,,,,,,,,,,,54,,,,,,,,,,,,,,286.2870000000403,,response,,,,100,,,,,,,Space,keypress(Space),,,,,,,,-- --- time --- ------ ----- ------- ---- -- --- ------- --<br>------- ---------- ------ -- ----- -- ----- -- ---- ------<br>--- ----- --- --- ------ -------- ----- --- ------ ----- --<br>----- ----- ---------- --- --- ------ ------ ---- -- ------<br>------- --- ------ ----- --- ---- ------- -- ---- --- --<br>------- ------,205065.40000000002,205064.80000000005,204761.847,204777.6000000001,204778.513,205079.493,,2,time
screen,html.Screen,2_1_1_1_3,2022-05-09T12:41:16.391Z,,,,,,,,,,,,,,,,,54,,,,,,,,,,,,,,553.4070000000356,,response,,,,100,,,,,,,Space,keypress(Space),,,,,,,,-- --- ---- the ------ ----- ------- ---- -- --- ------- --<br>------- ---------- ------ -- ----- -- ----- -- ---- ------<br>--- ----- --- --- ------ -------- ----- --- ------ ----- --<br>----- ----- ---------- --- --- ------ ------ ---- -- ------<br>------- --- ------ ----- --- ---- ------- -- ---- --- --<br>------- ------,205633.5,205632.90000000002,205062.827,205065.5,205079.493,205646.469,,3,the
screen,html.Screen,2_1_1_1_4,2022-05-09T12:41:16.615Z,,,,,,,,,,,,,,,,,54,,,,,,,,,,,,,,210.53099999998813,,response,,,,100,,,,,,,Space,keypress(Space),,,,,,,,-- --- ---- --- French ----- ------- ---- -- --- ------- --<br>------- ---------- ------ -- ----- -- ----- -- ---- ------<br>--- ----- --- --- ------ -------- ----- --- ------ ----- --<br>----- ----- ---------- --- --- ------ ------ ---- -- ------<br>------- --- ------ ----- --- ---- ------- -- ---- --- --<br>------- ------,205857.70000000007,205857,205629.803,205633.6000000001,205646.469,205863.558,,4,French
screen,html.Screen,2_1_1_1_5,2022-05-09T12:41:17.167Z,,,,,,,,,,,,,,,,,54,,,,,,,,,,,,,,545.44200000001,,response,,,,100,,,,,,,Space,keypress(Space),,,,,,,,-- --- ---- --- ------ crown ------- ---- -- --- ------- --<br>------- ---------- ------ -- ----- -- ----- -- ---- ------<br>--- ----- --- --- ------ -------- ----- --- ------ ----- --<br>----- ----- ---------- --- --- ------ ------ ---- -- ------<br>------- --- ------ ----- --- ---- ------- -- ---- --- --<br>------- ------,206409.5,206409,205846.892,205857.70000000007,205863.558,206413.821,,5,crown
screen,html.Screen,2_1_1_1_6,2022-05-09T12:41:17.687Z,,,,,,,,,,,,,,,,,54,,,,,,,,,,,,,,514.9790000000503,,response,,,,100,,,,,,,Space,keypress(Space),,,,,,,,-- --- ---- --- ------ ----- secured ---- -- --- ------- --<br>------- ---------- ------ -- ----- -- ----- -- ---- ------<br>--- ----- --- --- ------ -------- ----- --- ------ ----- --<br>----- ----- ---------- --- --- ------ ------ ---- -- ------<br>------- --- ------ ----- --- ---- ------- -- ---- --- --<br>------- ------,206929.30000000005,206928.80000000005,206397.155,206409.6000000001,206413.821,206931,,6,secured
screen,html.Screen,2_1_1_1_7,2022-05-09T12:41:18.288Z,,,,,,,,,,,,,,,,,54,,,,,,,,,,,,,,598.1000000000931,,response,,,,100,,,,,,,Space,keypress(Space),,,,,,,,-- --- ---- --- ------ ----- ------- much -- --- ------- --<br>------- ---------- ------ -- ----- -- ----- -- ---- ------<br>--- ----- --- --- ------ -------- ----- --- ------ ----- --<br>----- ----- ---------- --- --- ------ ------ ---- -- ------<br>------- --- ------ ----- --- ---- ------- -- ---- --- --<br>------- ------,207529.6000000001,207529.1000000001,206914.334,206929.40000000002,206931,207531.147,,7,much
screen,html.Screen,2_1_1_1_8,2022-05-09T12:41:18.639Z,,,,,,,,,,,,,,,,,54,,,,,,,,,,,,,,349.55300000007264,,response,,,,100,,,,,,,Space,keypress(Space),,,,,,,,-- --- ---- --- ------ ----- ------- ---- of --- ------- --<br>------- ---------- ------ -- ----- -- ----- -- ---- ------<br>--- ----- --- --- ------ -------- ----- --- ------ ----- --<br>----- ----- ---------- --- --- ------ ------ ---- -- ------<br>------- --- ------ ----- --- ---- ------- -- ---- --- --<br>------- ------,207881.20000000007,207880.70000000007,207514.481,207529.80000000005,207531.147,207898.422,,8,of
screen,html.Screen,2_1_1_1_9,2022-05-09T12:41:18.847Z,,,,,,,,,,,,,,,,,54,,,,,,,,,,,,,,190.37800000005518,,response,,,,100,,,,,,,Space,keypress(Space),,,,,,,,-- --- ---- --- ------ ----- ------- ---- -- its ------- --<br>------- ---------- ------ -- ----- -- ----- -- ---- ------<br>--- ----- --- --- ------ -------- ----- --- ------ ----- --<br>----- ----- ---------- --- --- ------ ------ ---- -- ------<br>------- --- ------ ----- --- ---- ------- -- ---- --- --<br>------- ------,208089.30000000005,208088.80000000005,207881.756,207881.40000000002,207898.422,208098.555,,9,its
screen,html.Screen,2_1_1_1_10,2022-05-09T12:41:19.271Z,,,,,,,,,,,,,,,,,54,,,,,,,,,,,,,,413.945000000007,,response,,,,100,,,,,,,Space,keypress(Space),,,,,,,,-- --- ---- --- ------ ----- ------- ---- -- --- revenue --<br>------- ---------- ------ -- ----- -- ----- -- ---- ------<br>--- ----- --- --- ------ -------- ----- --- ------ ----- --<br>----- ----- ---------- --- --- ------ ------ ---- -- ------<br>------- --- ------ ----- --- ---- ------- -- ---- --- --<br>------- ------,208513.1000000001,208512.5,208081.889,208089.40000000002,208098.555,208515.786,,10,revenue
screen,html.Screen,2_1_1_1_11,2022-05-09T12:41:19.991Z,,,,,,,,,,,,,,,,,54,,,,,,,,,,,,,,717.0140000000538,,response,,,,100,,,,,,,Space,keypress(Space),,,,,,,,-- --- ---- --- ------ ----- ------- ---- -- --- ------- by<br>------- ---------- ------ -- ----- -- ----- -- ---- ------<br>--- ----- --- --- ------ -------- ----- --- ------ ----- --<br>----- ----- ---------- --- --- ------ ------ ---- -- ------<br>------- --- ------ ----- --- ---- ------- -- ---- --- --<br>------- ------,209233.40000000002,209232.80000000005,208499.12,208513.20000000007,208515.786,209249.28,,11,by
screen,html.Screen,2_1_1_1_12,2022-05-09T12:41:20.551Z,,,,,,,,,,,,,,,,,54,,,,,,,,,,,,,,543.7200000000012,,response,,,,100,,,,,,,Space,keypress(Space),,,,,,,,-- --- ---- --- ------ ----- ------- ---- -- --- ------- --<br>issuing ---------- ------ -- ----- -- ----- -- ---- ------<br>--- ----- --- --- ------ -------- ----- --- ------ ----- --<br>----- ----- ---------- --- --- ------ ------ ---- -- ------<br>------- --- ------ ----- --- ---- ------- -- ---- --- --<br>------- ------,209793.5,209793,209232.614,209233.6000000001,209249.28,209799.628,,12,issuing
screen,html.Screen,2_1_1_1_13,2022-05-09T12:41:20.808Z,,,,,,,,,,,,,,,,,54,,,,,,,,,,,,,,249.37200000000303,,response,,,,100,,,,,,,Space,keypress(Space),,,,,,,,-- --- ---- --- ------ ----- ------- ---- -- --- ------- --<br>------- government ------ -- ----- -- ----- -- ---- ------<br>--- ----- --- --- ------ -------- ----- --- ------ ----- --<br>----- ----- ---------- --- --- ------ ------ ---- -- ------<br>------- --- ------ ----- --- ---- ------- -- ---- --- --<br>------- ------,210049.6000000001,210049,209782.962,209793.6000000001,209799.628,210066.975,,13,government
screen,html.Screen,2_1_1_1_14,2022-05-09T12:41:22.287Z,,,,,,,,,,,,,,,,,54,,,,,,,,,,,,,,1461.8250000000407,,response,,,,100,,,,,,,Space,keypress(Space),,,,,,,,-- --- ---- --- ------ ----- ------- ---- -- --- ------- --<br>------- ---------- bonds. -- ----- -- ----- -- ---- ------<br>--- ----- --- --- ------ -------- ----- --- ------ ----- --<br>----- ----- ---------- --- --- ------ ------ ---- -- ------<br>------- --- ------ ----- --- ---- ------- -- ---- --- --<br>------- ------,211529.40000000002,211528.80000000005,210050.309,210049.80000000005,210066.975,211533.86,,14,bonds.
screen,html.Screen,2_1_1_1_15,2022-05-09T12:41:22.855Z,,,,,,,,,,,,,,,,,54,,,,,,,,,,,,,,562.9400000000605,,response,,,,100,,,,,,,Space,keypress(Space),,,,,,,,-- --- ---- --- ------ ----- ------- ---- -- --- ------- --<br>------- ---------- ------ In ----- -- ----- -- ---- ------<br>--- ----- --- --- ------ -------- ----- --- ------ ----- --<br>----- ----- ---------- --- --- ------ ------ ---- -- ------<br>------- --- ------ ----- --- ---- ------- -- ---- --- --<br>------- ------,212097.30000000005,212096.80000000005,211517.194,211529.40000000002,211533.86,212100.824,,15,In
screen,html.Screen,2_1_1_1_16,2022-05-09T12:41:23.127Z,,,,,,,,,,,,,,,,,54,,,,,,,,,,,,,,268.07600000003004,,response,,,,100,,,,,,,Space,keypress(Space),,,,,,,,"-- --- ---- --- ------ ----- ------- ---- -- --- ------- --<br>------- ---------- ------ -- 1727, -- ----- -- ---- ------<br>--- ----- --- --- ------ -------- ----- --- ------ ----- --<br>----- ----- ---------- --- --- ------ ------ ---- -- ------<br>------- --- ------ ----- --- ---- ------- -- ---- --- --<br>------- ------",212369.30000000005,212368.90000000002,212084.158,212097.40000000002,212100.824,212385.52,,16,"1727,"
screen,html.Screen,2_1_1_1_17,2022-05-09T12:41:24.319Z,,,,,,,,,,,,,,,,,54,,,,,,,,,,,,,,1175.4800000000105,,response,,,,100,,,,,,,Space,keypress(Space),,,,,,,,-- --- ---- --- ------ ----- ------- ---- -- --- ------- --<br>------- ---------- ------ -- ----- in ----- -- ---- ------<br>--- ----- --- --- ------ -------- ----- --- ------ ----- --<br>----- ----- ---------- --- --- ------ ------ ---- -- ------<br>------- --- ------ ----- --- ---- ------- -- ---- --- --<br>------- ------,213561.70000000007,213561,212368.854,212369.5,212385.52,213569.176,,17,in
screen,html.Screen,2_1_1_1_18,2022-05-09T12:41:25.031Z,,,,,,,,,,,,,,,,,54,,,,,,,,,,,,,,703.6240000000398,,response,,,,100,,,,,,,Space,keypress(Space),,,,,,,,-- --- ---- --- ------ ----- ------- ---- -- --- ------- --<br>------- ---------- ------ -- ----- -- order -- ---- ------<br>--- ----- --- --- ------ -------- ----- --- ------ ----- --<br>----- ----- ---------- --- --- ------ ------ ---- -- ------<br>------- --- ------ ----- --- ---- ------- -- ---- --- --<br>------- ------,214273.5,214272.80000000005,213552.51,213561.70000000007,213569.176,214285.885,,18,order
screen,html.Screen,2_1_1_1_19,2022-05-09T12:41:25.408Z,,,,,,,,,,,,,,,,,54,,,,,,,,,,,,,,363.51500000001397,,response,,,,100,,,,,,,Space,keypress(Space),,,,,,,,-- --- ---- --- ------ ----- ------- ---- -- --- ------- --<br>------- ---------- ------ -- ----- -- ----- to ---- ------<br>--- ----- --- --- ------ -------- ----- --- ------ ----- --<br>----- ----- ---------- --- --- ------ ------ ---- -- ------<br>------- --- ------ ----- --- ---- ------- -- ---- --- --<br>------- ------,214650.1000000001,214649.40000000002,214269.219,214273.70000000007,214285.885,214653.555,,19,to
screen,html.Screen,2_1_1_1_20,2022-05-09T12:41:25.751Z,,,,,,,,,,,,,,,,,54,,,,,,,,,,,,,,339.14500000007683,,response,,,,100,,,,,,,Space,keypress(Space),,,,,,,,-- --- ---- --- ------ ----- ------- ---- -- --- ------- --<br>------- ---------- ------ -- ----- -- ----- -- save ------<br>--- ----- --- --- ------ -------- ----- --- ------ ----- --<br>----- ----- ---------- --- --- ------ ------ ---- -- ------<br>------- --- ------ ----- --- ---- ------- -- ---- --- --<br>------- ------,214993.20000000007,214992.70000000007,214636.889,214650.20000000007,214653.555,215004.381,,20,save
screen,html.Screen,2_1_1_1_21,2022-05-09T12:41:26.399Z,,,,,,,,,,,,,,,,,54,,,,,,,,,,,,,,636.619000000006,,response,,,,100,,,,,,,Space,keypress(Space),,,,,,,,"-- --- ---- --- ------ ----- ------- ---- -- --- ------- --<br>------- ---------- ------ -- ----- -- ----- -- ---- money,<br>--- ----- --- --- ------ -------- ----- --- ------ ----- --<br>----- ----- ---------- --- --- ------ ------ ---- -- ------<br>------- --- ------ ----- --- ---- ------- -- ---- --- --<br>------- ------",215641.6000000001,215641,214987.715,214993.40000000002,215004.381,215654.489,,21,"money,"
screen,html.Screen,2_1_1_1_22,2022-05-09T12:41:27.007Z,,,,,,,,,,,,,,,,,54,,,,,,,,,,,,,,594.3110000000452,,response,,,,100,,,,,,,Space,keypress(Space),,,,,,,,-- --- ---- --- ------ ----- ------- ---- -- --- ------- --<br>------- ---------- ------ -- ----- -- ----- -- ---- ------<br>the ----- --- --- ------ -------- ----- --- ------ ----- --<br>----- ----- ---------- --- --- ------ ------ ---- -- ------<br>------- --- ------ ----- --- ---- ------- -- ---- --- --<br>------- ------,216249.5,216248.80000000005,215637.823,215641.70000000007,215654.489,216255.044,,22,the
screen,html.Screen,2_1_1_1_23,2022-05-09T12:41:27.672Z,,,,,,,,,,,,,,,,,54,,,,,,,,,,,,,,657.8560000000289,,response,,,,100,,,,,,,Space,keypress(Space),,,,,,,,-- --- ---- --- ------ ----- ------- ---- -- --- ------- --<br>------- ---------- ------ -- ----- -- ----- -- ---- ------<br>--- state --- --- ------ -------- ----- --- ------ ----- --<br>----- ----- ---------- --- --- ------ ------ ---- -- ------<br>------- --- ------ ----- --- ---- ------- -- ---- --- --<br>------- ------,216913.70000000007,216912.90000000002,216238.378,216249.6000000001,216255.044,216922.013,,23,state
screen,html.Screen,2_1_1_1_24,2022-05-09T12:41:27.879Z,,,,,,,,,,,,,,,,,54,,,,,,,,,,,,,,198.887000000017,,response,,,,100,,,,,,,Space,keypress(Space),,,,,,,,-- --- ---- --- ------ ----- ------- ---- -- --- ------- --<br>------- ---------- ------ -- ----- -- ----- -- ---- ------<br>--- ----- cut --- ------ -------- ----- --- ------ ----- --<br>----- ----- ---------- --- --- ------ ------ ---- -- ------<br>------- --- ------ ----- --- ---- ------- -- ---- --- --<br>------- ------,217121.5,217120.90000000002,216905.347,216913.90000000002,216922.013,217122.653,,24,cut
screen,html.Screen,2_1_1_1_25,2022-05-09T12:41:28.199Z,,,,,,,,,,,,,,,,,54,,,,,,,,,,,,,,318.0470000000787,,response,,,,100,,,,,,,Space,keypress(Space),,,,,,,,-- --- ---- --- ------ ----- ------- ---- -- --- ------- --<br>------- ---------- ------ -- ----- -- ----- -- ---- ------<br>--- ----- --- the ------ -------- ----- --- ------ ----- --<br>----- ----- ---------- --- --- ------ ------ ---- -- ------<br>------- --- ------ ----- --- ---- ------- -- ---- --- --<br>------- ------,217441.30000000005,217440.70000000007,217105.987,217121.6000000001,217122.653,217456.191,,25,the
screen,html.Screen,2_1_1_1_26,2022-05-09T12:41:29.015Z,,,,,,,,,,,,,,,,,54,,,,,,,,,,,,,,800.7090000000317,,response,,,,100,,,,,,,Space,keypress(Space),,,,,,,,-- --- ---- --- ------ ----- ------- ---- -- --- ------- --<br>------- ---------- ------ -- ----- -- ----- -- ---- ------<br>--- ----- --- --- bonds' -------- ----- --- ------ ----- --<br>----- ----- ---------- --- --- ------ ------ ---- -- ------<br>------- --- ------ ----- --- ---- ------- -- ---- --- --<br>------- ------,218257.5,218256.90000000002,217439.525,217441.5,217456.191,218273.306,,26,bonds'
screen,html.Screen,2_1_1_1_27,2022-05-09T12:41:29.927Z,,,,,,,,,,,,,,,,,54,,,,,,,,,,,,,,895.2940000000817,,response,,,,100,,,,,,,Space,keypress(Space),,,,,,,,-- --- ---- --- ------ ----- ------- ---- -- --- ------- --<br>------- ---------- ------ -- ----- -- ----- -- ---- ------<br>--- ----- --- --- ------ interest ----- --- ------ ----- --<br>----- ----- ---------- --- --- ------ ------ ---- -- ------<br>------- --- ------ ----- --- ---- ------- -- ---- --- --<br>------- ------,219169.20000000007,219168.6000000001,218256.64,218257.6000000001,218273.306,219173.486,,27,interest
screen,html.Screen,2_1_1_1_28,2022-05-09T12:41:31.416Z,,,,,,,,,,,,,,,,,54,,,,,,,,,,,,,,1483.4140000000189,,response,,,,100,,,,,,,Space,keypress(Space),,,,,,,,-- --- ---- --- ------ ----- ------- ---- -- --- ------- --<br>------- ---------- ------ -- ----- -- ----- -- ---- ------<br>--- ----- --- --- ------ -------- rate. --- ------ ----- --<br>----- ----- ---------- --- --- ------ ------ ---- -- ------<br>------- --- ------ ----- --- ---- ------- -- ---- --- --<br>------- ------,220657.70000000007,220656.90000000002,219156.82,219169.30000000005,219173.486,220674.115,,28,rate.
screen,html.Screen,2_1_1_1_29,2022-05-09T12:41:32.023Z,,,,,,,,,,,,,,,,,54,,,,,,,,,,,,,,590.7850000000326,,response,,,,100,,,,,,,Space,keypress(Space),,,,,,,,-- --- ---- --- ------ ----- ------- ---- -- --- ------- --<br>------- ---------- ------ -- ----- -- ----- -- ---- ------<br>--- ----- --- --- ------ -------- ----- The ------ ----- --<br>----- ----- ---------- --- --- ------ ------ ---- -- ------<br>------- --- ------ ----- --- ---- ------- -- ---- --- --<br>------- ------,221265.5,221264.90000000002,220657.449,220657.80000000005,220674.115,221274.94,,29,The
screen,html.Screen,2_1_1_1_30,2022-05-09T12:41:32.351Z,,,,,,,,,,,,,,,,,54,,,,,,,,,,,,,,317.86000000004424,,response,,,,100,,,,,,,Space,keypress(Space),,,,,,,,-- --- ---- --- ------ ----- ------- ---- -- --- ------- --<br>------- ---------- ------ -- ----- -- ----- -- ---- ------<br>--- ----- --- --- ------ -------- ----- --- market ----- --<br>----- ----- ---------- --- --- ------ ------ ---- -- ------<br>------- --- ------ ----- --- ---- ------- -- ---- --- --<br>------- ------,221593.40000000002,221592.80000000005,221258.274,221265.6000000001,221274.94,221609.36,,30,market
screen,html.Screen,2_1_1_1_31,2022-05-09T12:41:32.583Z,,,,,,,,,,,,,,,,,54,,,,,,,,,,,,,,215.64000000001397,,response,,,,100,,,,,,,Space,keypress(Space),,,,,,,,-- --- ---- --- ------ ----- ------- ---- -- --- ------- --<br>------- ---------- ------ -- ----- -- ----- -- ---- ------<br>--- ----- --- --- ------ -------- ----- --- ------ value --<br>----- ----- ---------- --- --- ------ ------ ---- -- ------<br>------- --- ------ ----- --- ---- ------- -- ---- --- --<br>------- ------,221825.6000000001,221825,221592.694,221593.5,221609.36,221826.629,,31,value
screen,html.Screen,2_1_1_1_32,2022-05-09T12:41:32.991Z,,,,,,,,,,,,,,,,,54,,,,,,,,,,,,,,405.87100000001374,,response,,,,100,,,,,,,Space,keypress(Space),,,,,,,,-- --- ---- --- ------ ----- ------- ---- -- --- ------- --<br>------- ---------- ------ -- ----- -- ----- -- ---- ------<br>--- ----- --- --- ------ -------- ----- --- ------ ----- of<br>----- ----- ---------- --- --- ------ ------ ---- -- ------<br>------- --- ------ ----- --- ---- ------- -- ---- --- --<br>------- ------,222233.1000000001,222232.5,221809.963,221825.70000000007,221826.629,222243.737,,32,of
screen,html.Screen,2_1_1_1_33,2022-05-09T12:41:33.423Z,,,,,,,,,,,,,,,,,54,,,,,,,,,,,,,,421.06300000005285,,response,,,,100,,,,,,,Space,keypress(Space),,,,,,,,-- --- ---- --- ------ ----- ------- ---- -- --- ------- --<br>------- ---------- ------ -- ----- -- ----- -- ---- ------<br>--- ----- --- --- ------ -------- ----- --- ------ ----- --<br>these ----- ---------- --- --- ------ ------ ---- -- ------<br>------- --- ------ ----- --- ---- ------- -- ---- --- --<br>------- ------,222665.40000000002,222664.80000000005,222227.071,222233.30000000005,222243.737,222677.11,,33,these
screen,html.Screen,2_1_1_1_34,2022-05-09T12:41:33.839Z,,,,,,,,,,,,,,,,,54,,,,,,,,,,,,,,403.9900000001071,,response,,,,100,,,,,,,Space,keypress(Space),,,,,,,,-- --- ---- --- ------ ----- ------- ---- -- --- ------- --<br>------- ---------- ------ -- ----- -- ----- -- ---- ------<br>--- ----- --- --- ------ -------- ----- --- ------ ----- --<br>----- bonds ---------- --- --- ------ ------ ---- -- ------<br>------- --- ------ ----- --- ---- ------- -- ---- --- --<br>------- ------,223081.6000000001,223081.1000000001,222660.444,222665.5,222677.11,223093.914,,34,bonds
screen,html.Screen,2_1_1_1_35,2022-05-09T12:41:34.623Z,,,,,,,,,,,,,,,,,54,,,,,,,,,,,,,,771.0860000000102,,response,,,,100,,,,,,,Space,keypress(Space),,,,,,,,"-- --- ---- --- ------ ----- ------- ---- -- --- ------- --<br>------- ---------- ------ -- ----- -- ----- -- ---- ------<br>--- ----- --- --- ------ -------- ----- --- ------ ----- --<br>----- ----- plummeted, --- --- ------ ------ ---- -- ------<br>------- --- ------ ----- --- ---- ------- -- ---- --- --<br>------- ------",223865.6000000001,223865,223077.248,223081.70000000007,223093.914,223877.659,,35,"plummeted,"
screen,html.Screen,2_1_1_1_36,2022-05-09T12:41:35.544Z,,,,,,,,,,,,,,,,,54,,,,,,,,,,,,,,908.2410000000091,,response,,,,100,,,,,,,Space,keypress(Space),,,,,,,,-- --- ---- --- ------ ----- ------- ---- -- --- ------- --<br>------- ---------- ------ -- ----- -- ----- -- ---- ------<br>--- ----- --- --- ------ -------- ----- --- ------ ----- --<br>----- ----- ---------- and --- ------ ------ ---- -- ------<br>------- --- ------ ----- --- ---- ------- -- ---- --- --<br>------- ------,224786.6000000001,224785.90000000002,223860.993,223865.70000000007,223877.659,224794.805,,36,and
screen,html.Screen,2_1_1_1_37,2022-05-09T12:41:35.983Z,,,,,,,,,,,,,,,,,54,,,,,,,,,,,,,,429.89500000007683,,response,,,,100,,,,,,,Space,keypress(Space),,,,,,,,-- --- ---- --- ------ ----- ------- ---- -- --- ------- --<br>------- ---------- ------ -- ----- -- ----- -- ---- ------<br>--- ----- --- --- ------ -------- ----- --- ------ ----- --<br>----- ----- ---------- --- the ------ ------ ---- -- ------<br>------- --- ------ ----- --- ---- ------- -- ---- --- --<br>------- ------,225225.5,225224.70000000007,224778.139,224786.70000000007,224794.805,225228.597,,37,the
screen,html.Screen,2_1_1_1_38,2022-05-09T12:41:36.135Z,,,,,,,,,,,,,,,,,54,,,,,,,,,,,,,,148.00300000008428,,response,,,,100,,,,,,,Space,keypress(Space),,,,,,,,-- --- ---- --- ------ ----- ------- ---- -- --- ------- --<br>------- ---------- ------ -- ----- -- ----- -- ---- ------<br>--- ----- --- --- ------ -------- ----- --- ------ ----- --<br>----- ----- ---------- --- --- market ------ ---- -- ------<br>------- --- ------ ----- --- ---- ------- -- ---- --- --<br>------- ------,225377.30000000005,225376.6000000001,225211.931,225225.70000000007,225228.597,225379.729,,38,market
screen,html.Screen,2_1_1_1_39,2022-05-09T12:41:36.983Z,,,,,,,,,,,,,,,,,54,,,,,,,,,,,,,,845.2710000000079,,response,,,,100,,,,,,,Space,keypress(Space),,,,,,,,-- --- ---- --- ------ ----- ------- ---- -- --- ------- --<br>------- ---------- ------ -- ----- -- ----- -- ---- ------<br>--- ----- --- --- ------ -------- ----- --- ------ ----- --<br>----- ----- ---------- --- --- ------ became ---- -- ------<br>------- --- ------ ----- --- ---- ------- -- ---- --- --<br>------- ------,226225.6000000001,226225,225363.063,225377.5,225379.729,226229.746,,39,became
screen,html.Screen,2_1_1_1_40,2022-05-09T12:41:37.759Z,,,,,,,,,,,,,,,,,54,,,,,,,,,,,,,,770.7539999999863,,response,,,,100,,,,,,,Space,keypress(Space),,,,,,,,-- --- ---- --- ------ ----- ------- ---- -- --- ------- --<br>------- ---------- ------ -- ----- -- ----- -- ---- ------<br>--- ----- --- --- ------ -------- ----- --- ------ ----- --<br>----- ----- ---------- --- --- ------ ------ wary -- ------<br>------- --- ------ ----- --- ---- ------- -- ---- --- --<br>------- ------,227001.20000000007,227000.5,226213.08,226225.70000000007,226229.746,227013.346,,40,wary
screen,html.Screen,2_1_1_1_41,2022-05-09T12:41:38.303Z,,,,,,,,,,,,,,,,,54,,,,,,,,,,,,,,531.3540000000794,,response,,,,100,,,,,,,Space,keypress(Space),,,,,,,,-- --- ---- --- ------ ----- ------- ---- -- --- ------- --<br>------- ---------- ------ -- ----- -- ----- -- ---- ------<br>--- ----- --- --- ------ -------- ----- --- ------ ----- --<br>----- ----- ---------- --- --- ------ ------ ---- of ------<br>------- --- ------ ----- --- ---- ------- -- ---- --- --<br>------- ------,227545.30000000005,227544.70000000007,226996.68,227001.30000000005,227013.346,227547.065,,41,of
screen,html.Screen,2_1_1_1_42,2022-05-09T12:41:38.943Z,,,,,,,,,,,,,,,,,54,,,,,,,,,,,,,,637.8350000001374,,response,,,,100,,,,,,,Space,keypress(Space),,,,,,,,-- --- ---- --- ------ ----- ------- ---- -- --- ------- --<br>------- ---------- ------ -- ----- -- ----- -- ---- ------<br>--- ----- --- --- ------ -------- ----- --- ------ ----- --<br>----- ----- ---------- --- --- ------ ------ ---- -- French<br>------- --- ------ ----- --- ---- ------- -- ---- --- --<br>------- ------,228185.5,228184.90000000014,227530.399,227545.40000000002,227547.065,228197.925,,42,French
screen,html.Screen,2_1_1_1_43,2022-05-09T12:41:40.223Z,,,,,,,,,,,,,,,,,54,,,,,,,,,,,,,,1266.5750000000116,,response,,,,100,,,,,,,Space,keypress(Space),,,,,,,,-- --- ---- --- ------ ----- ------- ---- -- --- ------- --<br>------- ---------- ------ -- ----- -- ----- -- ---- ------<br>--- ----- --- --- ------ -------- ----- --- ------ ----- --<br>----- ----- ---------- --- --- ------ ------ ---- -- ------<br>credit. --- ------ ----- --- ---- ------- -- ---- --- --<br>------- ------,229465.1000000001,229464.5,228181.259,228185.6000000001,228197.925,229481.743,,43,credit.
screen,html.Screen,2_1_1_1_44,2022-05-09T12:41:41.215Z,,,,,,,,,,,,,,,,,54,,,,,,,,,,,,,,975.0570000000589,,response,,,,100,,,,,,,Space,keypress(Space),,,,,,,,-- --- ---- --- ------ ----- ------- ---- -- --- ------- --<br>------- ---------- ------ -- ----- -- ----- -- ---- ------<br>--- ----- --- --- ------ -------- ----- --- ------ ----- --<br>----- ----- ---------- --- --- ------ ------ ---- -- ------<br>------- The ------ ----- --- ---- ------- -- ---- --- --<br>------- ------,230457.40000000014,230456.80000000005,229465.077,229465.1000000001,229481.743,230465.546,,44,The
screen,html.Screen,2_1_1_1_45,2022-05-09T12:41:41.623Z,,,,,,,,,,,,,,,,,54,,,,,,,,,,,,,,399.15399999995134,,response,,,,100,,,,,,,Space,keypress(Space),,,,,,,,-- --- ---- --- ------ ----- ------- ---- -- --- ------- --<br>------- ---------- ------ -- ----- -- ----- -- ---- ------<br>--- ----- --- --- ------ -------- ----- --- ------ ----- --<br>----- ----- ---------- --- --- ------ ------ ---- -- ------<br>------- --- French ----- --- ---- ------- -- ---- --- --<br>------- ------,230865.30000000005,230864.69999999995,230448.88,230457.6000000001,230465.546,230866.613,,45,French
screen,html.Screen,2_1_1_1_46,2022-05-09T12:41:41.991Z,,,,,,,,,,,,,,,,,54,,,,,,,,,,,,,,365.987000000081,,response,,,,100,,,,,,,Space,keypress(Space),,,,,,,,-- --- ---- --- ------ ----- ------- ---- -- --- ------- --<br>------- ---------- ------ -- ----- -- ----- -- ---- ------<br>--- ----- --- --- ------ -------- ----- --- ------ ----- --<br>----- ----- ---------- --- --- ------ ------ ---- -- ------<br>------- --- ------ state --- ---- ------- -- ---- --- --<br>------- ------,231233.19999999995,231232.6000000001,230849.947,230866.1000000001,230866.613,231234.015,,46,state
screen,html.Screen,2_1_1_1_47,2022-05-09T12:41:42.479Z,,,,,,,,,,,,,,,,,54,,,,,,,,,,,,,,486.48499999998603,,response,,,,100,,,,,,,Space,keypress(Space),,,,,,,,-- --- ---- --- ------ ----- ------- ---- -- --- ------- --<br>------- ---------- ------ -- ----- -- ----- -- ---- ------<br>--- ----- --- --- ------ -------- ----- --- ------ ----- --<br>----- ----- ---------- --- --- ------ ------ ---- -- ------<br>------- --- ------ ----- was ---- ------- -- ---- --- --<br>------- ------,231721.1000000001,231720.5,231217.349,231233.40000000014,231234.015,231734.448,,47,was
screen,html.Screen,2_1_1_1_48,2022-05-09T12:41:43.223Z,,,,,,,,,,,,,,,,,54,,,,,,,,,,,,,,730.4520000001357,,response,,,,100,,,,,,,Space,keypress(Space),,,,,,,,-- --- ---- --- ------ ----- ------- ---- -- --- ------- --<br>------- ---------- ------ -- ----- -- ----- -- ---- ------<br>--- ----- --- --- ------ -------- ----- --- ------ ----- --<br>----- ----- ---------- --- --- ------ ------ ---- -- ------<br>------- --- ------ ----- --- left ------- -- ---- --- --<br>------- ------,232465.5,232464.90000000014,231717.782,231721.19999999995,231734.448,232468.143,,48,left
screen,html.Screen,2_1_1_1_49,2022-05-09T12:41:43.623Z,,,,,,,,,,,,,,,,,54,,,,,,,,,,,,,,396.6570000000356,,response,,,,100,,,,,,,Space,keypress(Space),,,,,,,,-- --- ---- --- ------ ----- ------- ---- -- --- ------- --<br>------- ---------- ------ -- ----- -- ----- -- ---- ------<br>--- ----- --- --- ------ -------- ----- --- ------ ----- --<br>----- ----- ---------- --- --- ------ ------ ---- -- ------<br>------- --- ------ ----- --- ---- without -- ---- --- --<br>------- ------,232865.30000000005,232864.80000000005,232451.477,232465.6000000001,232468.143,232868.449,,49,without
screen,html.Screen,2_1_1_1_50,2022-05-09T12:41:43.807Z,,,,,,,,,,,,,,,,,54,,,,,,,,,,,,,,180.2509999999602,,response,,,,100,,,,,,,Space,keypress(Space),,,,,,,,-- --- ---- --- ------ ----- ------- ---- -- --- ------- --<br>------- ---------- ------ -- ----- -- ----- -- ---- ------<br>--- ----- --- --- ------ -------- ----- --- ------ ----- --<br>----- ----- ---------- --- --- ------ ------ ---- -- ------<br>------- --- ------ ----- --- ---- ------- an ---- --- --<br>------- ------,233049.30000000005,233048.69999999995,232851.783,232865.5,232868.449,233052.228,,50,an
screen,html.Screen,2_1_1_1_51,2022-05-09T12:41:44.191Z,,,,,,,,,,,,,,,,,54,,,,,,,,,,,,,,380.2719999999972,,response,,,,100,,,,,,,Space,keypress(Space),,,,,,,,-- --- ---- --- ------ ----- ------- ---- -- --- ------- --<br>------- ---------- ------ -- ----- -- ----- -- ---- ------<br>--- ----- --- --- ------ -------- ----- --- ------ ----- --<br>----- ----- ---------- --- --- ------ ------ ---- -- ------<br>------- --- ------ ----- --- ---- ------- -- easy --- --<br>------- ------,233433.1000000001,233432.5,233035.562,233049.5,233052.228,233435.973,,51,easy
screen,html.Screen,2_1_1_1_52,2022-05-09T12:41:44.567Z,,,,,,,,,,,,,,,,,54,,,,,,,,,,,,,,372.82700000004843,,response,,,,100,,,,,,,Space,keypress(Space),,,,,,,,-- --- ---- --- ------ ----- ------- ---- -- --- ------- --<br>------- ---------- ------ -- ----- -- ----- -- ---- ------<br>--- ----- --- --- ------ -------- ----- --- ------ ----- --<br>----- ----- ---------- --- --- ------ ------ ---- -- ------<br>------- --- ------ ----- --- ---- ------- -- ---- way --<br>------- ------,233809.40000000014,233808.80000000005,233419.307,233433.19999999995,233435.973,233819.619,,52,way
screen,html.Screen,2_1_1_1_53,2022-05-09T12:41:44.967Z,,,,,,,,,,,,,,,,,54,,,,,,,,,,,,,,389.1810000000405,,response,,,,100,,,,,,,Space,keypress(Space),,,,,,,,-- --- ---- --- ------ ----- ------- ---- -- --- ------- --<br>------- ---------- ------ -- ----- -- ----- -- ---- ------<br>--- ----- --- --- ------ -------- ----- --- ------ ----- --<br>----- ----- ---------- --- --- ------ ------ ---- -- ------<br>------- --- ------ ----- --- ---- ------- -- ---- --- of<br>------- ------,234209.30000000005,234208.80000000005,233802.953,233809.6000000001,233819.619,234219.705,,53,of
screen,html.Screen,2_1_1_1_54,2022-05-09T12:41:45.447Z,,,,,,,,,,,,,,,,,54,,,,,,,,,,,,,,469.1950000001525,,response,,,,100,,,,,,,Space,keypress(Space),,,,,,,,-- --- ---- --- ------ ----- ------- ---- -- --- ------- --<br>------- ---------- ------ -- ----- -- ----- -- ---- ------<br>--- ----- --- --- ------ -------- ----- --- ------ ----- --<br>----- ----- ---------- --- --- ------ ------ ---- -- ------<br>------- --- ------ ----- --- ---- ------- -- ---- --- --<br>raising ------,234689.5,234688.90000000014,234203.039,234209.5,234219.705,234703.641,,54,raising
screen,html.Screen,2_1_1_1_55,2022-05-09T12:41:46.328Z,,,,,,,,,,,,,,,,,54,,,,,,,,,,,,,,865.7590000001364,,response,,,,100,,,,,,,Space,keypress(Space),,,,,,,,-- --- ---- --- ------ ----- ------- ---- -- --- ------- --<br>------- ---------- ------ -- ----- -- ----- -- ---- ------<br>--- ----- --- --- ------ -------- ----- --- ------ ----- --<br>----- ----- ---------- --- --- ------ ------ ---- -- ------<br>------- --- ------ ----- --- ---- ------- -- ---- --- --<br>------- money.,235570.1000000001,235569.40000000014,234686.975,234689.6000000001,234703.641,235587.046,,55,money.
Item 100,flow.Loop,2_1_1_1,2022-05-09T12:41:46.328Z,,,,,,,,,,,,,,,,,,,,,,,,,,,,,,,32525.84100000013,,completion,,,,,F,,,,,,,,,,,silence,,,,,235570.40000000014,235569.40000000014,203026.893,203028.5,203043.559,235587.046,,,
Question 1,html.Screen,2_1_1_2,2022-05-09T12:41:48.718Z,,,,,,,,,,,,,,,,,,,,,,,,,,,,true,TRUE,,2372.2540000000445,,response,,,,100,F,,,,,,TRUE,click #choice-1,,,,silence,,,,,237960.19999999995,237959.30000000005,235570.38,235570.5,235587.046,237972.351,,,
Question 2,html.Screen,2_1_1_3,2022-05-09T12:41:51.999Z,,,,,,,,,,,,,,,,,,,,,,,,,,,,true,FALSE,,3267.9490000000515,,response,,,,100,F,,,,,,FALSE,click #choice-2,,,,silence,,,,,241241.30000000005,241240.30000000005,237955.685,237960.30000000005,237972.351,241242.417,,,
Item 100,flow.Sequence,2_1_1,2022-05-09T12:41:51.999Z,,,,,,,,,,,,,,,,,,,,,,,,,,,,,,,48204.177000000054,,completion,,,,,,,,,,,,,,,,,,,,,241241.30000000005,241240.30000000005,193019.457,193035.90000000002,193036.123,241242.417,,,
End of Practice,html.Page,2_1_2,2022-05-09T12:41:56.616Z,,,,,,,,,,,,,,,,,,,,,,,,,,,,,,,4615.782999999967,,form submission,,,,,,,,,,,,,,,,,,,,,245858.40000000014,245858.19999999995,241225.751,241241.40000000014,241242.417,245862.31,,,
Practice,flow.Sequence,2_1,2022-05-09T12:41:56.617Z,,,,,,,,,,,,,,,,,,,,,,,,,,,,,,,97892.32699999996,,completion,,,,,,,,,,,,,,,,,,,,,245858.5,245858.19999999995,147949.207,147950.30000000005,147965.873,245862.31,,,
Trap_instruction,html.Page,2_2_0,2022-05-09T12:42:01.040Z,,,,,,,,,,,,,,,,,,,,,,,,,,,,,,,4419.889999999956,,form submission,,,,,,,,,,,,,,,,,,,,,250282.5,250282.19999999995,245845.644,245858.69999999995,245862.31,250282.913,,,
trap_trial,html.Screen,2_2_1,2022-05-09T12:42:04.408Z,,,,,,,,,,,,,,,,,,,,,,,,,,,,true,1,,3366.1870000000927,,response,,,,,,,,,,,1,click #choice-1,,,,,,,,,253650.1000000001,253649.1000000001,250266.247,250282.6000000001,250282.913,253649.929,,,
end of trap trial,html.Page,2_2_2,2022-05-09T12:42:07.648Z,,,,,,,,,,,,,,,,,,,,,,,,,,,,,,,3240.1710000000894,,form submission,,,,,,,,,,,,,,,,,,,,,256890.30000000005,256890.1000000001,253633.263,253650.19999999995,253649.929,256904.103,,,
Trap 1,flow.Sequence,2_2,2022-05-09T12:42:07.648Z,,,,,,,,,,,,,,,,,,,,,,,,,,,,,,,11027.790000000095,,completion,,,,,,,,,,,,,,,,,,,,,256890.5,256890.1000000001,245845.644,245858.69999999995,245862.31,256904.103,,,
Standby,html.Page,2_3_0,2022-05-09T12:42:15.648Z,,,,,,,,,,,,,,,,,,,,,,,,,,,,,,,8001.173999999999,,timeout,,,,,,,,,,,,,,,,,,,,,264889.69999999995,264888.611,256887.437,256890.5,256904.103,264905.277,,,
Holding screen,html.Screen,2_3_1_0_0,2022-05-09T12:42:22.642Z,,,,,,,,,,,,,,,,,,,,,,,,,,,,,,,6994.108000000007,,timeout,,,,,,,,,,,,,,,,,,,,,271884,271882.719,264888.611,264889.90000000014,264905.277,271899.385,,,
screen,html.Screen,2_3_1_0_1_0,2022-05-09T12:42:29.360Z,,,,,,,,,,,,,,,,,12,,,,,,,,,,,,,,6702.114999999991,,response,,,,5,F,,,,,,Space,keypress(Space),,,,lyrical,,,,Some ------ ------ ------- ------ --- ------- -----------<br>-- ----- --- ---- -- --- ------ ---- - ---- -- ----------<br>-- ------ ---- --- ---- --- --- --- ----- -- -------- ---<br>------ ------- -------- --- ---- -- ------- ------------ --<br>------ -- ---- -- --- ---- -- -------- -- --- ------ ------,278602.19999999995,278601.5,271882.719,271884.1000000001,271899.385,278616.7,,0,Some
screen,html.Screen,2_3_1_0_1_1,2022-05-09T12:42:29.735Z,,,,,,,,,,,,,,,,,12,,,,,,,,,,,,,,359.4000000000815,,response,,,,5,F,,,,,,Space,keypress(Space),,,,lyrical,,,,---- months ------ ------- ------ --- ------- -----------<br>-- ----- --- ---- -- --- ------ ---- - ---- -- ----------<br>-- ------ ---- --- ---- --- --- --- ----- -- -------- ---<br>------ ------- -------- --- ---- -- ------- ------------ --<br>------ -- ---- -- --- ---- -- -------- -- --- ------ ------,278976.6000000001,278976.1000000001,278600.034,278602.30000000005,278616.7,278984.12,,1,months
screen,html.Screen,2_3_1_0_1_2,2022-05-09T12:42:29.975Z,,,,,,,,,,,,,,,,,12,,,,,,,,,,,,,,232.18000000005122,,response,,,,5,F,,,,,,Space,keypress(Space),,,,lyrical,,,,"---- ------ later, ------- ------ --- ------- -----------<br>-- ----- --- ---- -- --- ------ ---- - ---- -- ----------<br>-- ------ ---- --- ---- --- --- --- ----- -- -------- ---<br>------ ------- -------- --- ---- -- ------- ------------ --<br>------ -- ---- -- --- ---- -- -------- -- --- ------ ------",279217,279216.30000000005,278967.454,278976.80000000005,278984.12,279223.174,,2,"later,"
screen,html.Screen,2_3_1_0_1_3,2022-05-09T12:42:30.687Z,,,,,,,,,,,,,,,,,12,,,,,,,,,,,,,,705.4260000000941,,response,,,,5,F,,,,,,Space,keypress(Space),,,,lyrical,,,,---- ------ ------ Michael ------ --- ------- -----------<br>-- ----- --- ---- -- --- ------ ---- - ---- -- ----------<br>-- ------ ---- --- ---- --- --- --- ----- -- -------- ---<br>------ ------- -------- --- ---- -- ------- ------------ --<br>------ -- ---- -- --- ---- -- -------- -- --- ------ ------,279929.19999999995,279928.6000000001,279206.508,279217.1000000001,279223.174,279939.879,,3,Michael
screen,html.Screen,2_3_1_0_1_4,2022-05-09T12:42:31.223Z,,,,,,,,,,,,,,,,,12,,,,,,,,,,,,,,524.5210000001243,,response,,,,5,F,,,,,,Space,keypress(Space),,,,lyrical,,,,---- ------ ------ ------- Larson --- ------- -----------<br>-- ----- --- ---- -- --- ------ ---- - ---- -- ----------<br>-- ------ ---- --- ---- --- --- --- ----- -- -------- ---<br>------ ------- -------- --- ---- -- ------- ------------ --<br>------ -- ---- -- --- ---- -- -------- -- --- ------ ------,280465.1000000001,280464.40000000014,279923.213,279929.30000000005,279939.879,280473.589,,4,Larson
screen,html.Screen,2_3_1_0_1_5,2022-05-09T12:42:31.695Z,,,,,,,,,,,,,,,,,12,,,,,,,,,,,,,,462.8110000001616,,response,,,,5,F,,,,,,Space,keypress(Space),,,,lyrical,,,,---- ------ ------ ------- ------ saw ------- -----------<br>-- ----- --- ---- -- --- ------ ---- - ---- -- ----------<br>-- ------ ---- --- ---- --- --- --- ----- -- -------- ---<br>------ ------- -------- --- ---- -- ------- ------------ --<br>------ -- ---- -- --- ---- -- -------- -- --- ------ ------,280937,280936.40000000014,280456.923,280465.30000000005,280473.589,280941.201,,5,saw
screen,html.Screen,2_3_1_0_1_6,2022-05-09T12:42:31.919Z,,,,,,,,,,,,,,,,,12,,,,,,,,,,,,,,218.9989999999525,,response,,,,5,F,,,,,,Space,keypress(Space),,,,lyrical,,,,---- ------ ------ ------- ------ --- another -----------<br>-- ----- --- ---- -- --- ------ ---- - ---- -- ----------<br>-- ------ ---- --- ---- --- --- --- ----- -- -------- ---<br>------ ------- -------- --- ---- -- ------- ------------ --<br>------ -- ---- -- --- ---- -- -------- -- --- ------ ------,281160.90000000014,281160.19999999995,280924.535,280937.1000000001,280941.201,281174.324,,6,another
screen,html.Screen,2_3_1_0_1_7,2022-05-09T12:42:32.311Z,,,,,,,,,,,,,,,,,12,,,,,,,,,,,,,,377.9760000000242,,response,,,,5,F,,,,,,Space,keypress(Space),,,,lyrical,,,,---- ------ ------ ------- ------ --- ------- opportunity<br>-- ----- --- ---- -- --- ------ ---- - ---- -- ----------<br>-- ------ ---- --- ---- --- --- --- ----- -- -------- ---<br>------ ------- -------- --- ---- -- ------- ------------ --<br>------ -- ---- -- --- ---- -- -------- -- --- ------ ------,281552.80000000005,281552.30000000005,281157.658,281161,281174.324,281558.393,,7,opportunity
screen,html.Screen,2_3_1_0_1_8,2022-05-09T12:42:33.767Z,,,,,,,,,,,,,,,,,12,,,,,,,,,,,,,,1450.0070000001579,,response,,,,5,F,,,,,,Space,keypress(Space),,,,lyrical,,,,---- ------ ------ ------- ------ --- ------- -----------<br>to ----- --- ---- -- --- ------ ---- - ---- -- ----------<br>-- ------ ---- --- ---- --- --- --- ----- -- -------- ---<br>------ ------- -------- --- ---- -- ------- ------------ --<br>------ -- ---- -- --- ---- -- -------- -- --- ------ ------,283009,283008.40000000014,281541.727,281553,281558.393,283025.344,,8,to
screen,html.Screen,2_3_1_0_1_9,2022-05-09T12:42:34.367Z,,,,,,,,,,,,,,,,,12,,,,,,,,,,,,,,583.2560000001104,,response,,,,5,F,,,,,,Space,keypress(Space),,,,lyrical,,,,---- ------ ------ ------- ------ --- ------- -----------<br>-- stack --- ---- -- --- ------ ---- - ---- -- ----------<br>-- ------ ---- --- ---- --- --- --- ----- -- -------- ---<br>------ ------- -------- --- ---- -- ------- ------------ --<br>------ -- ---- -- --- ---- -- -------- -- --- ------ ------,283609.1000000001,283608.6000000001,283008.678,283009.1000000001,283025.344,283625.522,,9,stack
screen,html.Screen,2_3_1_0_1_10,2022-05-09T12:42:34.751Z,,,,,,,,,,,,,,,,,12,,,,,,,,,,,,,,366.77800000004936,,response,,,,5,F,,,,,,Space,keypress(Space),,,,lyrical,,,,---- ------ ------ ------- ------ --- ------- -----------<br>-- ----- the ---- -- --- ------ ---- - ---- -- ----------<br>-- ------ ---- --- ---- --- --- --- ----- -- -------- ---<br>------ ------- -------- --- ---- -- ------- ------------ --<br>------ -- ---- -- --- ---- -- -------- -- --- ------ ------,283993,283992.30000000005,283608.856,283609.19999999995,283625.522,284010.076,,10,the
screen,html.Screen,2_3_1_0_1_11,2022-05-09T12:42:34.959Z,,,,,,,,,,,,,,,,,12,,,,,,,,,,,,,,190.42399999999907,,response,,,,5,F,,,,,,Space,keypress(Space),,,,lyrical,,,,---- ------ ------ ------- ------ --- ------- -----------<br>-- ----- --- odds -- --- ------ ---- - ---- -- ----------<br>-- ------ ---- --- ---- --- --- --- ----- -- -------- ---<br>------ ------- -------- --- ---- -- ------- ------------ --<br>------ -- ---- -- --- ---- -- -------- -- --- ------ ------,284201.1000000001,284200.5,283993.41,283993.19999999995,284010.076,284210.521,,11,odds
screen,html.Screen,2_3_1_0_1_12,2022-05-09T12:42:35.423Z,,,,,,,,,,,,,,,,,12,,,,,,,,,,,,,,453.8790000001318,,response,,,,5,F,,,,,,Space,keypress(Space),,,,lyrical,,,,---- ------ ------ ------- ------ --- ------- -----------<br>-- ----- --- ---- in --- ------ ---- - ---- -- ----------<br>-- ------ ---- --- ---- --- --- --- ----- -- -------- ---<br>------ ------- -------- --- ---- -- ------- ------------ --<br>------ -- ---- -- --- ---- -- -------- -- --- ------ ------,284665,284664.40000000014,284193.855,284201.30000000005,284210.521,284677.337,,12,in
screen,html.Screen,2_3_1_0_1_13,2022-05-09T12:42:35.703Z,,,,,,,,,,,,,,,,,12,,,,,,,,,,,,,,267.06300000014016,,response,,,,5,F,,,,,,Space,keypress(Space),,,,lyrical,,,,---- ------ ------ ------- ------ --- ------- -----------<br>-- ----- --- ---- -- his ------ ---- - ---- -- ----------<br>-- ------ ---- --- ---- --- --- --- ----- -- -------- ---<br>------ ------- -------- --- ---- -- ------- ------------ --<br>------ -- ---- -- --- ---- -- -------- -- --- ------ ------,284945.1000000001,284944.40000000014,284660.671,284665.19999999995,284677.337,284961.042,,13,his
screen,html.Screen,2_3_1_0_1_14,2022-05-09T12:42:36.079Z,,,,,,,,,,,,,,,,,12,,,,,,,,,,,,,,359.45799999998417,,response,,,,5,F,,,,,,Space,keypress(Space),,,,lyrical,,,,---- ------ ------ ------- ------ --- ------- -----------<br>-- ----- --- ---- -- --- favour ---- - ---- -- ----------<br>-- ------ ---- --- ---- --- --- --- ----- -- -------- ---<br>------ ------- -------- --- ---- -- ------- ------------ --<br>------ -- ---- -- --- ---- -- -------- -- --- ------ ------,285321,285320.5,284944.376,284945.19999999995,284961.042,285328.074,,14,favour
screen,html.Screen,2_3_1_0_1_15,2022-05-09T12:42:36.535Z,,,,,,,,,,,,,,,,,12,,,,,,,,,,,,,,448.5260000000708,,response,,,,5,F,,,,,,Space,keypress(Space),,,,lyrical,,,,---- ------ ------ ------- ------ --- ------- -----------<br>-- ----- --- ---- -- --- ------ with - ---- -- ----------<br>-- ------ ---- --- ---- --- --- --- ----- -- -------- ---<br>------ ------- -------- --- ---- -- ------- ------------ --<br>------ -- ---- -- --- ---- -- -------- -- --- ------ ------,285777.1000000001,285776.6000000001,285311.408,285321.1000000001,285328.074,285778.282,,15,with
screen,html.Screen,2_3_1_0_1_16,2022-05-09T12:42:36.887Z,,,,,,,,,,,,,,,,,12,,,,,,,,,,,,,,350.1180000001332,,response,,,,5,F,,,,,,Space,keypress(Space),,,,lyrical,,,,---- ------ ------ ------- ------ --- ------- -----------<br>-- ----- --- ---- -- --- ------ ---- a ---- -- ----------<br>-- ------ ---- --- ---- --- --- --- ----- -- -------- ---<br>------ ------- -------- --- ---- -- ------- ------------ --<br>------ -- ---- -- --- ---- -- -------- -- --- ------ ------,286129,286128.40000000014,285761.616,285777.19999999995,285778.282,286145.376,,16,a
screen,html.Screen,2_3_1_0_1_17,2022-05-09T12:42:37.175Z,,,,,,,,,,,,,,,,,12,,,,,,,,,,,,,,270.9240000000573,,response,,,,5,F,,,,,,Space,keypress(Space),,,,lyrical,,,,---- ------ ------ ------- ------ --- ------- -----------<br>-- ----- --- ---- -- --- ------ ---- - dash -- ----------<br>-- ------ ---- --- ---- --- --- --- ----- -- -------- ---<br>------ ------- -------- --- ---- -- ------- ------------ --<br>------ -- ---- -- --- ---- -- -------- -- --- ------ ------,286416.90000000014,286416.30000000005,286128.71,286129.1000000001,286145.376,286428.995,,17,dash
screen,html.Screen,2_3_1_0_1_18,2022-05-09T12:42:38.239Z,,,,,,,,,,,,,,,,,12,,,,,,,,,,,,,,1051.5050000000047,,response,,,,5,F,,,,,,Space,keypress(Space),,,,lyrical,,,,---- ------ ------ ------- ------ --- ------- -----------<br>-- ----- --- ---- -- --- ------ ---- - ---- of ----------<br>-- ------ ---- --- ---- --- --- --- ----- -- -------- ---<br>------ ------- -------- --- ---- -- ------- ------------ --<br>------ -- ---- -- --- ---- -- -------- -- --- ------ ------,287481.1000000001,287480.5,286412.329,286416.90000000014,286428.995,287495.928,,18,of
screen,html.Screen,2_3_1_0_1_19,2022-05-09T12:42:39.055Z,,,,,,,,,,,,,,,,,12,,,,,,,,,,,,,,800.271999999939,,response,,,,5,F,,,,,,Space,keypress(Space),,,,lyrical,,,,---- ------ ------ ------- ------ --- ------- -----------<br>-- ----- --- ---- -- --- ------ ---- - ---- -- ingenuity.<br>-- ------ ---- --- ---- --- --- --- ----- -- -------- ---<br>------ ------- -------- --- ---- -- ------- ------------ --<br>------ -- ---- -- --- ---- -- -------- -- --- ------ ------,288296.80000000005,288296.19999999995,287479.262,287481.19999999995,287495.928,288312.586,,19,ingenuity.
screen,html.Screen,2_3_1_0_1_20,2022-05-09T12:42:39.680Z,,,,,,,,,,,,,,,,,12,,,,,,,,,,,,,,608.5140000000829,,response,,,,5,F,,,,,,Space,keypress(Space),,,,lyrical,,,,---- ------ ------ ------- ------ --- ------- -----------<br>-- ----- --- ---- -- --- ------ ---- - ---- -- ----------<br>He ------ ---- --- ---- --- --- --- ----- -- -------- ---<br>------ ------- -------- --- ---- -- ------- ------------ --<br>------ -- ---- -- --- ---- -- -------- -- --- ------ ------,288921.6000000001,288921.1000000001,288295.92,288296.90000000014,288312.586,288930.301,,20,He
screen,html.Screen,2_3_1_0_1_21,2022-05-09T12:42:39.943Z,,,,,,,,,,,,,,,,,12,,,,,,,,,,,,,,254.29900000011548,,response,,,,5,F,,,,,,Space,keypress(Space),,,,lyrical,,,,---- ------ ------ ------- ------ --- ------- -----------<br>-- ----- --- ---- -- --- ------ ---- - ---- -- ----------<br>-- walked ---- --- ---- --- --- --- ----- -- -------- ---<br>------ ------- -------- --- ---- -- ------- ------------ --<br>------ -- ---- -- --- ---- -- -------- -- --- ------ ------,289185.1000000001,289184.6000000001,288913.635,288921.80000000005,288930.301,289197.927,,21,walked
screen,html.Screen,2_3_1_0_1_22,2022-05-09T12:42:40.247Z,,,,,,,,,,,,,,,,,12,,,,,,,,,,,,,,290.2729999999283,,response,,,,5,F,,,,,,Space,keypress(Space),,,,lyrical,,,,---- ------ ------ ------- ------ --- ------- -----------<br>-- ----- --- ---- -- --- ------ ---- - ---- -- ----------<br>-- ------ into --- ---- --- --- --- ----- -- -------- ---<br>------ ------- -------- --- ---- -- ------- ------------ --<br>------ -- ---- -- --- ---- -- -------- -- --- ------ ------,289488.80000000005,289488.19999999995,289181.261,289185.19999999995,289197.927,289497.92,,22,into
screen,html.Screen,2_3_1_0_1_23,2022-05-09T12:42:40.463Z,,,,,,,,,,,,,,,,,12,,,,,,,,,,,,,,206.38000000006286,,response,,,,5,F,,,,,,Space,keypress(Space),,,,lyrical,,,,---- ------ ------ ------- ------ --- ------- -----------<br>-- ----- --- ---- -- --- ------ ---- - ---- -- ----------<br>-- ------ ---- his ---- --- --- --- ----- -- -------- ---<br>------ ------- -------- --- ---- -- ------- ------------ --<br>------ -- ---- -- --- ---- -- -------- -- --- ------ ------,289704.90000000014,289704.30000000005,289481.254,289488.90000000014,289497.92,289715.084,,23,his
screen,html.Screen,2_3_1_0_1_24,2022-05-09T12:42:40.831Z,,,,,,,,,,,,,,,,,12,,,,,,,,,,,,,,357.31600000016624,,response,,,,5,F,,,,,,Space,keypress(Space),,,,lyrical,,,,---- ------ ------ ------- ------ --- ------- -----------<br>-- ----- --- ---- -- --- ------ ---- - ---- -- ----------<br>-- ------ ---- --- bank --- --- --- ----- -- -------- ---<br>------ ------- -------- --- ---- -- ------- ------------ --<br>------ -- ---- -- --- ---- -- -------- -- --- ------ ------,290073.1000000001,290072.40000000014,289698.418,289704.90000000014,289715.084,290082.122,,24,bank
screen,html.Screen,2_3_1_0_1_25,2022-05-09T12:42:41.207Z,,,,,,,,,,,,,,,,,12,,,,,,,,,,,,,,366.2780000001658,,response,,,,5,F,,,,,,Space,keypress(Space),,,,lyrical,,,,---- ------ ------ ------- ------ --- ------- -----------<br>-- ----- --- ---- -- --- ------ ---- - ---- -- ----------<br>-- ------ ---- --- ---- one --- --- ----- -- -------- ---<br>------ ------- -------- --- ---- -- ------- ------------ --<br>------ -- ---- -- --- ---- -- -------- -- --- ------ ------,290449,290448.40000000014,290065.456,290073.1000000001,290082.122,290465.518,,25,one
screen,html.Screen,2_3_1_0_1_26,2022-05-09T12:42:41.535Z,,,,,,,,,,,,,,,,,12,,,,,,,,,,,,,,310.88200000015786,,response,,,,5,F,,,,,,Space,keypress(Space),,,,lyrical,,,,---- ------ ------ ------- ------ --- ------- -----------<br>-- ----- --- ---- -- --- ------ ---- - ---- -- ----------<br>-- ------ ---- --- ---- --- day --- ----- -- -------- ---<br>------ ------- -------- --- ---- -- ------- ------------ --<br>------ -- ---- -- --- ---- -- -------- -- --- ------ ------,290777,290776.40000000014,290448.852,290449.19999999995,290465.518,290782.474,,26,day
screen,html.Screen,2_3_1_0_1_27,2022-05-09T12:42:41.847Z,,,,,,,,,,,,,,,,,12,,,,,,,,,,,,,,305.82600000005914,,response,,,,5,F,,,,,,Space,keypress(Space),,,,lyrical,,,,---- ------ ------ ------- ------ --- ------- -----------<br>-- ----- --- ---- -- --- ------ ---- - ---- -- ----------<br>-- ------ ---- --- ---- --- --- and ----- -- -------- ---<br>------ ------- -------- --- ---- -- ------- ------------ --<br>------ -- ---- -- --- ---- -- -------- -- --- ------ ------,291089,291088.30000000005,290765.808,290777.19999999995,290782.474,291099.42,,27,and
screen,html.Screen,2_3_1_0_1_28,2022-05-09T12:42:42.127Z,,,,,,,,,,,,,,,,,12,,,,,,,,,,,,,,268.88000000006286,,response,,,,5,F,,,,,,Space,keypress(Space),,,,lyrical,,,,---- ------ ------ ------- ------ --- ------- -----------<br>-- ----- --- ---- -- --- ------ ---- - ---- -- ----------<br>-- ------ ---- --- ---- --- --- --- asked -- -------- ---<br>------ ------- -------- --- ---- -- ------- ------------ --<br>------ -- ---- -- --- ---- -- -------- -- --- ------ ------,291368.90000000014,291368.30000000005,291082.754,291089,291099.42,291382.856,,28,asked
screen,html.Screen,2_3_1_0_1_29,2022-05-09T12:42:42.455Z,,,,,,,,,,,,,,,,,12,,,,,,,,,,,,,,313.4440000000177,,response,,,,5,F,,,,,,Space,keypress(Space),,,,lyrical,,,,---- ------ ------ ------- ------ --- ------- -----------<br>-- ----- --- ---- -- --- ------ ---- - ---- -- ----------<br>-- ------ ---- --- ---- --- --- --- ----- to -------- ---<br>------ ------- -------- --- ---- -- ------- ------------ --<br>------ -- ---- -- --- ---- -- -------- -- --- ------ ------,291696.90000000014,291696.30000000005,291366.19,291369,291382.856,291699.916,,29,to
screen,html.Screen,2_3_1_0_1_30,2022-05-09T12:42:42.975Z,,,,,,,,,,,,,,,,,12,,,,,,,,,,,,,,516.2839999999269,,response,,,,5,F,,,,,,Space,keypress(Space),,,,lyrical,,,,---- ------ ------ ------- ------ --- ------- -----------<br>-- ----- --- ---- -- --- ------ ---- - ---- -- ----------<br>-- ------ ---- --- ---- --- --- --- ----- -- withdraw ---<br>------ ------- -------- --- ---- -- ------- ------------ --<br>------ -- ---- -- --- ---- -- -------- -- --- ------ ------,292216.90000000014,292216.19999999995,291683.25,291697.40000000014,291699.916,292233.513,,30,withdraw
screen,html.Screen,2_3_1_0_1_31,2022-05-09T12:42:43.327Z,,,,,,,,,,,,,,,,,12,,,,,,,,,,,,,,334.7870000000694,,response,,,,5,F,,,,,,Space,keypress(Space),,,,lyrical,,,,---- ------ ------ ------- ------ --- ------- -----------<br>-- ----- --- ---- -- --- ------ ---- - ---- -- ----------<br>-- ------ ---- --- ---- --- --- --- ----- -- -------- his<br>------ ------- -------- --- ---- -- ------- ------------ --<br>------ -- ---- -- --- ---- -- -------- -- --- ------ ------,292568.90000000014,292568.30000000005,292216.847,292216.90000000014,292233.513,292583.749,,31,his
screen,html.Screen,2_3_1_0_1_32,2022-05-09T12:42:43.895Z,,,,,,,,,,,,,,,,,12,,,,,,,,,,,,,,552.651000000129,,response,,,,5,F,,,,,,Space,keypress(Space),,,,lyrical,,,,---- ------ ------ ------- ------ --- ------- -----------<br>-- ----- --- ---- -- --- ------ ---- - ---- -- ----------<br>-- ------ ---- --- ---- --- --- --- ----- -- -------- ---<br>entire ------- -------- --- ---- -- ------- ------------ --<br>------ -- ---- -- --- ---- -- -------- -- --- ------ ------,293137,293136.40000000014,292567.083,292569,292583.749,293150.958,,32,entire
screen,html.Screen,2_3_1_0_1_33,2022-05-09T12:42:44.143Z,,,,,,,,,,,,,,,,,12,,,,,,,,,,,,,,233.44200000015553,,response,,,,5,F,,,,,,Space,keypress(Space),,,,lyrical,,,,---- ------ ------ ------- ------ --- ------- -----------<br>-- ----- --- ---- -- --- ------ ---- - ---- -- ----------<br>-- ------ ---- --- ---- --- --- --- ----- -- -------- ---<br>------ account -------- --- ---- -- ------- ------------ --<br>------ -- ---- -- --- ---- -- -------- -- --- ------ ------,293385,293384.40000000014,293134.292,293137.1000000001,293150.958,293401.14,,33,account
screen,html.Screen,2_3_1_0_1_34,2022-05-09T12:42:44.631Z,,,,,,,,,,,,,,,,,12,,,,,,,,,,,,,,471.26000000012573,,response,,,,5,F,,,,,,Space,keypress(Space),,,,lyrical,,,,"---- ------ ------ ------- ------ --- ------- -----------<br>-- ----- --- ---- -- --- ------ ---- - ---- -- ----------<br>-- ------ ---- --- ---- --- --- --- ----- -- -------- ---<br>------ ------- balance, --- ---- -- ------- ------------ --<br>------ -- ---- -- --- ---- -- -------- -- --- ------ ------",293873.1000000001,293872.40000000014,293384.474,293385,293401.14,293884.939,,34,"balance,"
screen,html.Screen,2_3_1_0_1_35,2022-05-09T12:42:45.439Z,,,,,,,,,,,,,,,,,12,,,,,,,,,,,,,,795.560999999987,,response,,,,5,F,,,,,,Space,keypress(Space),,,,lyrical,,,,---- ------ ------ ------- ------ --- ------- -----------<br>-- ----- --- ---- -- --- ------ ---- - ---- -- ----------<br>-- ------ ---- --- ---- --- --- --- ----- -- -------- ---<br>------ ------- -------- but ---- -- ------- ------------ --<br>------ -- ---- -- --- ---- -- -------- -- --- ------ ------,294681.1000000001,294680.5,293868.273,293873.19999999995,293884.939,294684.976,,35,but
screen,html.Screen,2_3_1_0_1_36,2022-05-09T12:42:45.751Z,,,,,,,,,,,,,,,,,12,,,,,,,,,,,,,,307.32400000002235,,response,,,,5,F,,,,,,Space,keypress(Space),,,,lyrical,,,,---- ------ ------ ------- ------ --- ------- -----------<br>-- ----- --- ---- -- --- ------ ---- - ---- -- ----------<br>-- ------ ---- --- ---- --- --- --- ----- -- -------- ---<br>------ ------- -------- --- with -- ------- ------------ --<br>------ -- ---- -- --- ---- -- -------- -- --- ------ ------,294993,294992.30000000005,294668.31,294681.30000000005,294684.976,295002.197,,36,with
screen,html.Screen,2_3_1_0_1_37,2022-05-09T12:42:46.047Z,,,,,,,,,,,,,,,,,12,,,,,,,,,,,,,,286.103000000061,,response,,,,5,F,,,,,,Space,keypress(Space),,,,lyrical,,,,---- ------ ------ ------- ------ --- ------- -----------<br>-- ----- --- ---- -- --- ------ ---- - ---- -- ----------<br>-- ------ ---- --- ---- --- --- --- ----- -- -------- ---<br>------ ------- -------- --- ---- an ------- ------------ --<br>------ -- ---- -- --- ---- -- -------- -- --- ------ ------,295288.90000000014,295288.30000000005,294985.531,294993.1000000001,295002.197,295303.129,,37,an
screen,html.Screen,2_3_1_0_1_38,2022-05-09T12:42:46.295Z,,,,,,,,,,,,,,,,,12,,,,,,,,,,,,,,233.27100000012433,,response,,,,5,F,,,,,,Space,keypress(Space),,,,lyrical,,,,---- ------ ------ ------- ------ --- ------- -----------<br>-- ----- --- ---- -- --- ------ ---- - ---- -- ----------<br>-- ------ ---- --- ---- --- --- --- ----- -- -------- ---<br>------ ------- -------- --- ---- -- unusual ------------ --<br>------ -- ---- -- --- ---- -- -------- -- --- ------ ------,295537.1000000001,295536.40000000014,295286.463,295289,295303.129,295552.841,,38,unusual
screen,html.Screen,2_3_1_0_1_39,2022-05-09T12:42:46.535Z,,,,,,,,,,,,,,,,,12,,,,,,,,,,,,,,223.45900000003166,,response,,,,5,F,,,,,,Space,keypress(Space),,,,lyrical,,,,---- ------ ------ ------- ------ --- ------- -----------<br>-- ----- --- ---- -- --- ------ ---- - ---- -- ----------<br>-- ------ ---- --- ---- --- --- --- ----- -- -------- ---<br>------ ------- -------- --- ---- -- ------- stipulation: --<br>------ -- ---- -- --- ---- -- -------- -- --- ------ ------,295776.90000000014,295776.30000000005,295536.175,295537.30000000005,295552.841,295786.656,,39,stipulation:
screen,html.Screen,2_3_1_0_1_40,2022-05-09T12:42:47.255Z,,,,,,,,,,,,,,,,,12,,,,,,,,,,,,,,709.5439999999362,,response,,,,5,F,,,,,,Space,keypress(Space),,,,lyrical,,,,---- ------ ------ ------- ------ --- ------- -----------<br>-- ----- --- ---- -- --- ------ ---- - ---- -- ----------<br>-- ------ ---- --- ---- --- --- --- ----- -- -------- ---<br>------ ------- -------- --- ---- -- ------- ------------ He<br>------ -- ---- -- --- ---- -- -------- -- --- ------ ------,296496.80000000005,296496.19999999995,295769.99,295777,295786.656,296503.687,,40,He
screen,html.Screen,2_3_1_0_1_41,2022-05-09T12:42:47.679Z,,,,,,,,,,,,,,,,,12,,,,,,,,,,,,,,416.71300000016345,,response,,,,5,F,,,,,,Space,keypress(Space),,,,lyrical,,,,---- ------ ------ ------- ------ --- ------- -----------<br>-- ----- --- ---- -- --- ------ ---- - ---- -- ----------<br>-- ------ ---- --- ---- --- --- --- ----- -- -------- ---<br>------ ------- -------- --- ---- -- ------- ------------ --<br>wanted -- ---- -- --- ---- -- -------- -- --- ------ ------,296920.90000000014,296920.40000000014,296487.021,296496.80000000005,296503.687,296937.115,,41,wanted
screen,html.Screen,2_3_1_0_1_42,2022-05-09T12:42:47.895Z,,,,,,,,,,,,,,,,,12,,,,,,,,,,,,,,199.08499999996275,,response,,,,5,F,,,,,,Space,keypress(Space),,,,lyrical,,,,---- ------ ------ ------- ------ --- ------- -----------<br>-- ----- --- ---- -- --- ------ ---- - ---- -- ----------<br>-- ------ ---- --- ---- --- --- --- ----- -- -------- ---<br>------ ------- -------- --- ---- -- ------- ------------ --<br>------ as ---- -- --- ---- -- -------- -- --- ------ ------,297136.80000000005,297136.19999999995,296920.449,296921.1000000001,296937.115,297137.669,,42,as
