sender,sender_type,sender_id,timestamp,meta,,Blues,Classical,Country,Dance,Electronic,Folk,Gospel,Hip-Hop,Jazz,Latin,Musical/Film,New-age,Pop,Prolific_id,Provo_ID,R&B,Rap,Reggae,Religious,Rock,Soul,Swing,Traditional,age,artist_name,correct,correctResponse,distraction,duration,education,ended_on,familiarity,gender,headphone_check_performance,item,list,music_frequency,offensiveness,pleasantness,position_correct,preference,response,response_action,snippet_file,song_name,song_rating,sound,stimulus_1,stimulus_2,stimulus_3,text,time_commit,time_end,time_render,time_run,time_show,time_switch,url,word,word_ID
Prolific ID,html.Form,0,2022-05-02T10:54:40.307Z,"{""labjs_version"":""20.2.2"",""labjs_build"":{""flavor"":""production"",""commit"":""a25486e0c714a0ae2ce03ff94b7bb6896854dcfa""},""location"":""https://run.pavlovia.org/mvasilev/prolific3_music_e/"",""userAgent"":""Mozilla/5.0 (X11; CrOS x86_64 14526.89.0) AppleWebKit/537.36 (KHTML, like Gecko) Chrome/100.0.4896.133 Safari/537.36"",""platform"":""Linux x86_64"",""language"":""en-GB"",""locale"":""en-GB"",""timeZone"":""Europe/London"",""timezoneOffset"":-60,""screen_width"":1920,""screen_height"":1080,""scroll_width"":1920,""scroll_height"":881,""window_innerWidth"":1920,""window_innerHeight"":929,""devicePixelRatio"":1}",,,,,,,,,,,,,,,543e85adfdf99b7356902e90,,,,,,,,,,,,,,,4520.497000000372,,form submission,,,,,,,,,,,,,,,,,,,,,15837.700000000186,15836.400000000373,11299.23,11299.100000000093,11315.903,15867.663,{},,
Introduction,html.Screen,1_0,2022-05-02T10:54:47.088Z,,,,,,,,,,,,,,,,,,,,,,,,,,,,,,,6747.137000000279,,response,,,,,,,,,,,continue,click button,,,,,,,,,22618.5,22614.80000000028,15817.644,15838.400000000373,15867.663,22620.244,,,
Volume calibration,html.Screen,1_1,2022-05-02T10:55:09.907Z,,,,,,,,,,,,,,,,,,,,,,,,,,,,,,,22802.256,,response,,,,,,,,,,,continue,click button,,,,,,,,,45437.90000000037,45422.5,22603.571,22618.700000000186,22620.244,45445.645,,,
Task instructions,html.Screen,1_2,2022-05-02T10:55:25.556Z,,,,,,,,,,,,,,,,,,,,,,,,,,,,,,,15634.855000000003,,response,,,,,,,,,,,continue,click button,,,,,,,,,61086.80000000028,61080.5,45412.299,45438.200000000186,45445.645,61084.964,,,
Sounds,html.Screen,1_3_0_0,2022-05-02T10:55:29.799Z,,,,,,,,,,,,,,,,,,,,,,,,,,,,,,,4251.610999999997,,timeout,,,,,,,,,3,,,,,,,,I,O,S,,65329.80000000028,65319.902,61068.291,61087.200000000186,61084.964,65336.575,,,
Judgement,html.Screen,1_3_0_1,2022-05-02T10:55:31.639Z,,,,,,,,,,,,,,,,,,,,,,,,,,,,true,3,,1828.8250000003754,,response,,,,,,,,,3,,3,click #choice-3,,,,,I,O,S,,67169.6000000001,67165.40000000037,65319.902,65330.10000000009,65336.575,67170.618,,,
Trial,flow.Sequence,1_3_0,2022-05-02T10:55:31.639Z,,,,,,,,,,,,,,,,,,,,,,,,,,,,,,,6080.436000000373,,completion,,,,,,,,,3,,,,,,,,I,O,S,,67170.30000000028,67165.40000000037,61068.291,61087.10000000009,61084.964,67170.618,,,
Sounds,html.Screen,1_3_1_0,2022-05-02T10:55:35.876Z,,,,,,,,,,,,,,,,,,,,,,,,,,,,,,,4251.622999999992,,timeout,,,,,,,,,1,,,,,,,,S,O,I,,71406.80000000028,71405.568,67153.945,67171,67170.618,71422.241,,,
Judgement,html.Screen,1_3_1_1,2022-05-02T10:55:36.727Z,,,,,,,,,,,,,,,,,,,,,,,,,,,,true,1,,828.9590000001917,,response,,,,,,,,,1,,1,click #choice-1,,,,,S,O,I,,72257.70000000019,72251.20000000019,71405.568,71407.1000000001,71422.241,72255.896,,,
Trial,flow.Sequence,1_3_1,2022-05-02T10:55:36.727Z,,,,,,,,,,,,,,,,,,,,,,,,,,,,,,,5080.582000000184,,completion,,,,,,,,,1,,,,,,,,S,O,I,,72258.20000000019,72251.20000000019,67153.945,67170.6000000001,67170.618,72255.896,,,
Sounds,html.Screen,1_3_2_0,2022-05-02T10:55:40.962Z,,,,,,,,,,,,,,,,,,,,,,,,,,,,,,,4251.615000000005,,timeout,,,,,,,,,1,,,,,,,,S,I,O,,76493,76490.838,72239.223,72258.6000000001,72255.896,76507.511,,,
Judgement,html.Screen,1_3_2_1,2022-05-02T10:55:42.957Z,,,,,,,,,,,,,,,,,,,,,,,,,,,,true,1,,1975.9890000000014,,response,,,,,,,,,1,,1,click #choice-1,,,,,S,I,O,,78487.70000000019,78483.5,76490.838,76493.30000000028,76507.511,78491.621,,,
Trial,flow.Sequence,1_3_2,2022-05-02T10:55:42.957Z,,,,,,,,,,,,,,,,,,,,,,,,,,,,,,,6227.604000000007,,completion,,,,,,,,,1,,,,,,,,S,I,O,,78488.5,78483.5,72239.223,72258.5,72255.896,78491.621,,,
Sounds,html.Screen,1_3_3_0,2022-05-02T10:55:47.197Z,,,,,,,,,,,,,,,,,,,,,,,,,,,,,,,4251.619999999995,,timeout,,,,,,,,,2,,,,,,,,I,S,O,,82727.90000000037,82726.568,78474.948,78488.90000000037,78491.621,82743.241,,,
Judgement,html.Screen,1_3_3_1,2022-05-02T10:55:48.033Z,,,,,,,,,,,,,,,,,,,,,,,,,,,,true,2,,815.5590000002849,,response,,,,,,,,,2,,2,click #choice-2,,,,,I,S,O,,83564.30000000028,83558.80000000028,82726.568,82728.1000000001,82743.241,83576.899,,,
Trial,flow.Sequence,1_3_3,2022-05-02T10:55:48.034Z,,,,,,,,,,,,,,,,,,,,,,,,,,,,,,,5067.17900000028,,completion,,,,,,,,,2,,,,,,,,I,S,O,,83564.80000000028,83558.80000000028,78474.948,78488.70000000019,78491.621,83576.899,,,
Sounds,html.Screen,1_3_4_0,2022-05-02T10:55:52.283Z,,,,,,,,,,,,,,,,,,,,,,,,,,,,,,,4251.616999999998,,timeout,,,,,,,,,3,,,,,,,,O,I,S,,87814.1000000001,87811.843,83560.226,83565,83576.899,87828.516,,,
Judgement,html.Screen,1_3_4_1,2022-05-02T10:55:53.245Z,,,,,,,,,,,,,,,,,,,,,,,,,,,,true,3,,943.0840000000899,,response,,,,,,,,,3,,3,click #choice-3,,,,,O,I,S,,88776.1000000001,88771.6000000001,87811.843,87814.30000000028,87828.516,88778.893,,,
Trial,flow.Sequence,1_3_4,2022-05-02T10:55:53.245Z,,,,,,,,,,,,,,,,,,,,,,,,,,,,,,,5194.701000000088,,completion,,,,,,,,,3,,,,,,,,O,I,S,,88776.40000000037,88771.6000000001,83560.226,83564.90000000037,83576.899,88778.893,,,
Sounds,html.Screen,1_3_5_0,2022-05-02T10:55:57.484Z,,,,,,,,,,,,,,,,,,,,,,,,,,,,,,,4251.615000000005,,timeout,,,,,,,,,2,,,,,,,,O,S,I,,93015.5,93013.835,88762.22,88776.70000000019,88778.893,93030.508,,,
Judgement,html.Screen,1_3_5_1,2022-05-02T10:55:58.106Z,,,,,,,,,,,,,,,,,,,,,,,,,,,,true,2,,601.5920000000915,,response,,,,,,,,,2,,2,click #choice-2,,,,,O,S,I,,93637,93632.1000000001,93013.835,93015.80000000028,93030.508,93647.422,,,
Trial,flow.Sequence,1_3_5,2022-05-02T10:55:58.106Z,,,,,,,,,,,,,,,,,,,,,,,,,,,,,,,4853.207000000097,,completion,,,,,,,,,2,,,,,,,,O,S,I,,93637.5,93632.1000000001,88762.22,88776.6000000001,88778.893,93647.422,,,
Task,flow.Loop,1_3,2022-05-02T10:55:58.120Z,,,,,,,,,,,,,,,,,,,,,,,,,,,,,,,32547.136000000093,,completion,,,1,,,,,,,,,,,,,,,,,,93651.1000000001,93632.1000000001,61068.291,61087,61084.964,93647.422,,,
Trap,html.Screen,1_4,2022-05-02T10:55:58.123Z,,,,,,,,,,,,,,,,,,,,,,,,,,,,,,,NaN,,skipped,,,,,,,,,,,,,,,,,,,,,93654.20000000019,93632.1000000001,,93653.80000000028,,93647.422,,,
Thanks,html.Screen,1_5,2022-05-02T10:56:03.153Z,,,,,,,,,,,,,,,,,,,,,,,,,,,,,,,5030.77800000018,,response,,,,,,,,,,,continue,click button,,,,,,,,,98683.70000000019,98678.20000000019,93630.749,93654.40000000037,93647.422,103117.7,,,
Headphone screening,flow.Sequence,1,2022-05-02T10:56:03.153Z,,,,,,,,,,,,,,,,,,,,,,,,,,,,,,,82810.53700000019,,completion,,,,,,,,,,,,,,,,,,,,,98684.30000000028,98678.20000000019,15817.644,15838.400000000373,15867.663,103117.7,,,
Instructions,html.Page,2_0,2022-05-02T10:56:27.355Z,,,,,,,,,,,,,,,,,,,,,,,,,,,,,,,19768.00000000019,,form submission,,,,,,,,,,,,,,,,,,,,,122886.40000000037,122885.70000000019,103101.027,103117.1000000001,103117.7,122891.94,,,
Holding screen,html.Screen,2_1_0_0,2022-05-02T10:56:37.349Z,,,,,,,,,,,,,,,,,,,,,,,,,,,,,,,10020.502000000008,,timeout,,,,,,,,,,,,,,,,,,,,,132880.40000000037,132879.096,122875.267,122886.80000000028,122891.94,132912.442,,,
screen,html.Screen,2_1_0_1_0,2022-05-02T10:56:38.650Z,,,,,,,,,,,,,,,,,53,,,,,,,,,,,,,,1262.7580000001763,,response,,,,99,,,,,,,Space,keypress(Space),,,,,,,,When -- ----- -- ------ - ------- --- ----------<br>------------- ------ ------ ---- ---- ------- ----- -- ----<br>-------- ------- -- ---------- --- - --- ----- ----- ----<br>---- --- --- ----- --- ---- ---- ------- ----- ---- -------<br>--- --- -- ----- -- --- ---- -- --- ---- -- ------ ------<br>--- ----- -- ----,134181.5,134175.2000000002,132879.096,132880.80000000028,132912.442,134179.591,,0,When
screen,html.Screen,2_1_0_1_1,2022-05-02T10:56:39.804Z,,,,,,,,,,,,,,,,,53,,,,,,,,,,,,,,1153.4090000000142,,response,,,,99,,,,,,,Space,keypress(Space),,,,,,,,---- it ----- -- ------ - ------- --- ----------<br>------------- ------ ------ ---- ---- ------- ----- -- ----<br>-------- ------- -- ---------- --- - --- ----- ----- ----<br>---- --- --- ----- --- ---- ---- ------- ----- ---- -------<br>--- --- -- ----- -- --- ---- -- --- ---- -- ------ ------<br>--- ----- -- ----,135335.1000000001,135333,134162.918,134181.6000000001,134179.591,135346.692,,1,it
screen,html.Screen,2_1_0_1_2,2022-05-02T10:56:41.041Z,,,,,,,,,,,,,,,,,53,,,,,,,,,,,,,,1223.5080000001763,,response,,,,99,,,,,,,Space,keypress(Space),,,,,,,,---- -- comes -- ------ - ------- --- ----------<br>------------- ------ ------ ---- ---- ------- ----- -- ----<br>-------- ------- -- ---------- --- - --- ----- ----- ----<br>---- --- --- ----- --- ---- ---- ------- ----- ---- -------<br>--- --- -- ----- -- --- ---- -- --- ---- -- ------ ------<br>--- ----- -- ----,136572.2000000002,136570.2000000002,135330.019,135335.40000000037,135346.692,136580.497,,2,comes
screen,html.Screen,2_1_0_1_3,2022-05-02T10:56:42.263Z,,,,,,,,,,,,,,,,,53,,,,,,,,,,,,,,1212.2030000001832,,response,,,,99,,,,,,,Space,keypress(Space),,,,,,,,---- -- ----- to ------ - ------- --- ----------<br>------------- ------ ------ ---- ---- ------- ----- -- ----<br>-------- ------- -- ---------- --- - --- ----- ----- ----<br>---- --- --- ----- --- ---- ---- ------- ----- ---- -------<br>--- --- -- ----- -- --- ---- -- --- ---- -- ------ ------<br>--- ----- -- ----,137794,137792.7000000002,136563.824,136572.5,136580.497,137797.642,,3,to
screen,html.Screen,2_1_0_1_4,2022-05-02T10:56:43.017Z,,,,,,,,,,,,,,,,,53,,,,,,,,,,,,,,748.1580000002868,,response,,,,99,,,,,,,Space,keypress(Space),,,,,,,,---- -- ----- -- having - ------- --- ----------<br>------------- ------ ------ ---- ---- ------- ----- -- ----<br>-------- ------- -- ---------- --- - --- ----- ----- ----<br>---- --- --- ----- --- ---- ---- ------- ----- ---- -------<br>--- --- -- ----- -- --- ---- -- --- ---- -- ------ ------<br>--- ----- -- ----,138548,138545.80000000028,137780.969,137794.1000000001,137797.642,138564.602,,4,having
screen,html.Screen,2_1_0_1_5,2022-05-02T10:56:43.465Z,,,,,,,,,,,,,,,,,53,,,,,,,,,,,,,,429.3979999999865,,response,,,,99,,,,,,,Space,keypress(Space),,,,,,,,---- -- ----- -- ------ a ------- --- ----------<br>------------- ------ ------ ---- ---- ------- ----- -- ----<br>-------- ------- -- ---------- --- - --- ----- ----- ----<br>---- --- --- ----- --- ---- ---- ------- ----- ---- -------<br>--- --- -- ----- -- --- ---- -- --- ---- -- ------ ------<br>--- ----- -- ----,138996.30000000028,138994,138547.929,138548.2000000002,138564.602,138998.092,,5,a
screen,html.Screen,2_1_0_1_6,2022-05-02T10:56:44.080Z,,,,,,,,,,,,,,,,,53,,,,,,,,,,,,,,610.9079999999958,,response,,,,99,,,,,,,Space,keypress(Space),,,,,,,,---- -- ----- -- ------ - lasting --- ----------<br>------------- ------ ------ ---- ---- ------- ----- -- ----<br>-------- ------- -- ---------- --- - --- ----- ----- ----<br>---- --- --- ----- --- ---- ---- ------- ----- ---- -------<br>--- --- -- ----- -- --- ---- -- --- ---- -- ------ ------<br>--- ----- -- ----,139611.1000000001,139609,138981.419,138996.6000000001,138998.092,139615.002,,6,lasting
screen,html.Screen,2_1_0_1_7,2022-05-02T10:56:44.553Z,,,,,,,,,,,,,,,,,53,,,,,,,,,,,,,,466.59800000008545,,response,,,,99,,,,,,,Space,keypress(Space),,,,,,,,---- -- ----- -- ------ - ------- and ----------<br>------------- ------ ------ ---- ---- ------- ----- -- ----<br>-------- ------- -- ---------- --- - --- ----- ----- ----<br>---- --- --- ----- --- ---- ---- ------- ----- ---- -------<br>--- --- -- ----- -- --- ---- -- --- ---- -- ------ ------<br>--- ----- -- ----,140083.80000000028,140081.6000000001,139598.329,139611.30000000028,139615.002,140098.525,,7,and
screen,html.Screen,2_1_0_1_8,2022-05-02T10:56:45.260Z,,,,,,,,,,,,,,,,,53,,,,,,,,,,,,,,686.8750000003783,,response,,,,99,,,,,,,Space,keypress(Space),,,,,,,,---- -- ----- -- ------ - ------- --- fulfilling<br>------------- ------ ------ ---- ---- ------- ----- -- ----<br>-------- ------- -- ---------- --- - --- ----- ----- ----<br>---- --- --- ----- --- ---- ---- ------- ----- ---- -------<br>--- --- -- ----- -- --- ---- -- --- ---- -- ------ ------<br>--- ----- -- ----,140790.6000000001,140785.40000000037,140081.852,140084.1000000001,140098.525,140798.785,,8,fulfilling
screen,html.Screen,2_1_0_1_9,2022-05-02T10:56:46.734Z,,,,,,,,,,,,,,,,,53,,,,,,,,,,,,,,1464.7149999999965,,response,,,,99,,,,,,,Space,keypress(Space),,,,,,,,"---- -- ----- -- ------ - ------- --- ----------<br>relationship, ------ ------ ---- ---- ------- ----- -- ----<br>-------- ------- -- ---------- --- - --- ----- ----- ----<br>---- --- --- ----- --- ---- ---- ------- ----- ---- -------<br>--- --- -- ----- -- --- ---- -- --- ---- -- ------ ------<br>--- ----- -- ----",142265.40000000037,142263.5,140782.112,140791.2000000002,140798.785,142282.681,,9,"relationship,"
screen,html.Screen,2_1_0_1_10,2022-05-02T10:56:47.340Z,,,,,,,,,,,,,,,,,53,,,,,,,,,,,,,,587.0190000001749,,response,,,,99,,,,,,,Space,keypress(Space),,,,,,,,---- -- ----- -- ------ - ------- --- ----------<br>------------- common ------ ---- ---- ------- ----- -- ----<br>-------- ------- -- ---------- --- - --- ----- ----- ----<br>---- --- --- ----- --- ---- ---- ------- ----- ---- -------<br>--- --- -- ----- -- --- ---- -- --- ---- -- ------ ------<br>--- ----- -- ----,142870.80000000028,142869.7000000002,142266.008,142265.90000000037,142282.681,142882.912,,10,common
screen,html.Screen,2_1_0_1_11,2022-05-02T10:56:48.030Z,,,,,,,,,,,,,,,,,53,,,,,,,,,,,,,,676.3880000002682,,response,,,,99,,,,,,,Space,keypress(Space),,,,,,,,---- -- ----- -- ------ - ------- --- ----------<br>------------- ------ wisdom ---- ---- ------- ----- -- ----<br>-------- ------- -- ---------- --- - --- ----- ----- ----<br>---- --- --- ----- --- ---- ---- ------- ----- ---- -------<br>--- --- -- ----- -- --- ---- -- --- ---- -- ------ ------<br>--- ----- -- ----,143561.40000000037,143559.30000000028,142866.239,142870.90000000037,142882.912,143566.511,,11,wisdom
screen,html.Screen,2_1_0_1_12,2022-05-02T10:56:49.382Z,,,,,,,,,,,,,,,,,53,,,,,,,,,,,,,,1342.6890000001877,,response,,,,99,,,,,,,Space,keypress(Space),,,,,,,,---- -- ----- -- ------ - ------- --- ----------<br>------------- ------ ------ says ---- ------- ----- -- ----<br>-------- ------- -- ---------- --- - --- ----- ----- ----<br>---- --- --- ----- --- ---- ---- ------- ----- ---- -------<br>--- --- -- ----- -- --- ---- -- --- ---- -- ------ ------<br>--- ----- -- ----,144912.7000000002,144909.2000000002,143549.838,143561.7000000002,143566.511,144917.028,,12,says
screen,html.Screen,2_1_0_1_13,2022-05-02T10:56:49.892Z,,,,,,,,,,,,,,,,,53,,,,,,,,,,,,,,503.77200000028824,,response,,,,99,,,,,,,Space,keypress(Space),,,,,,,,---- -- ----- -- ------ - ------- --- ----------<br>------------- ------ ------ ---- that ------- ----- -- ----<br>-------- ------- -- ---------- --- - --- ----- ----- ----<br>---- --- --- ----- --- ---- ---- ------- ----- ---- -------<br>--- --- -- ----- -- --- ---- -- --- ---- -- ------ ------<br>--- ----- -- ----,145423.1000000001,145420.80000000028,144900.355,144913,144917.028,145433.892,,13,that
screen,html.Screen,2_1_0_1_14,2022-05-02T10:56:50.349Z,,,,,,,,,,,,,,,,,53,,,,,,,,,,,,,,444.2080000001006,,response,,,,99,,,,,,,Space,keypress(Space),,,,,,,,---- -- ----- -- ------ - ------- --- ----------<br>------------- ------ ------ ---- ---- feeling ----- -- ----<br>-------- ------- -- ---------- --- - --- ----- ----- ----<br>---- --- --- ----- --- ---- ---- ------- ----- ---- -------<br>--- --- -- ----- -- --- ---- -- --- ---- -- ------ ------<br>--- ----- -- ----,145880.1000000001,145878.1000000001,145417.219,145423.30000000028,145433.892,145884.06,,14,feeling
screen,html.Screen,2_1_0_1_15,2022-05-02T10:56:50.886Z,,,,,,,,,,,,,,,,,53,,,,,,,,,,,,,,530.1400000001886,,response,,,,99,,,,,,,Space,keypress(Space),,,,,,,,---- -- ----- -- ------ - ------- --- ----------<br>------------- ------ ------ ---- ---- ------- close -- ----<br>-------- ------- -- ---------- --- - --- ----- ----- ----<br>---- --- --- ----- --- ---- ---- ------- ----- ---- -------<br>--- --- -- ----- -- --- ---- -- --- ---- -- ------ ------<br>--- ----- -- ----,146416.6000000001,146414.2000000002,145867.387,145880.40000000037,145884.06,146434.298,,15,close
screen,html.Screen,2_1_0_1_16,2022-05-02T10:56:51.220Z,,,,,,,,,,,,,,,,,53,,,,,,,,,,,,,,314.2019999999902,,response,,,,99,,,,,,,Space,keypress(Space),,,,,,,,---- -- ----- -- ------ - ------- --- ----------<br>------------- ------ ------ ---- ---- ------- ----- to ----<br>-------- ------- -- ---------- --- - --- ----- ----- ----<br>---- --- --- ----- --- ---- ---- ------- ----- ---- -------<br>--- --- -- ----- -- --- ---- -- --- ---- -- ------ ------<br>--- ----- -- ----,146751,146748.5,146417.625,146416.90000000037,146434.298,146767.738,,16,to
screen,html.Screen,2_1_0_1_17,2022-05-02T10:56:51.670Z,,,,,,,,,,,,,,,,,53,,,,,,,,,,,,,,430.862000000081,,response,,,,99,,,,,,,Space,keypress(Space),,,,,,,,---- -- ----- -- ------ - ------- --- ----------<br>------------- ------ ------ ---- ---- ------- ----- -- your<br>-------- ------- -- ---------- --- - --- ----- ----- ----<br>---- --- --- ----- --- ---- ---- ------- ----- ---- -------<br>--- --- -- ----- -- --- ---- -- --- ---- -- ------ ------<br>--- ----- -- ----,147200.6000000001,147198.6000000001,146751.065,146751.30000000028,146767.738,147217.902,,17,your
screen,html.Screen,2_1_0_1_18,2022-05-02T10:56:52.402Z,,,,,,,,,,,,,,,,,53,,,,,,,,,,,,,,712.7980000001844,,response,,,,99,,,,,,,Space,keypress(Space),,,,,,,,---- -- ----- -- ------ - ------- --- ----------<br>------------- ------ ------ ---- ---- ------- ----- -- ----<br>romantic ------- -- ---------- --- - --- ----- ----- ----<br>---- --- --- ----- --- ---- ---- ------- ----- ---- -------<br>--- --- -- ----- -- --- ---- -- --- ---- -- ------ ------<br>--- ----- -- ----,147932.7000000002,147930.7000000002,147201.229,147200.90000000037,147217.902,147934.846,,18,romantic
screen,html.Screen,2_1_0_1_19,2022-05-02T10:56:52.836Z,,,,,,,,,,,,,,,,,53,,,,,,,,,,,,,,430.15400000000955,,response,,,,99,,,,,,,Space,keypress(Space),,,,,,,,---- -- ----- -- ------ - ------- --- ----------<br>------------- ------ ------ ---- ---- ------- ----- -- ----<br>-------- partner -- ---------- --- - --- ----- ----- ----<br>---- --- --- ----- --- ---- ---- ------- ----- ---- -------<br>--- --- -- ----- -- --- ---- -- --- ---- -- ------ ------<br>--- ----- -- ----,148367.1000000001,148365,147918.173,147932.90000000037,147934.846,148385.02,,19,partner
screen,html.Screen,2_1_0_1_20,2022-05-02T10:56:53.303Z,,,,,,,,,,,,,,,,,53,,,,,,,,,,,,,,446.380000000383,,response,,,,99,,,,,,,Space,keypress(Space),,,,,,,,---- -- ----- -- ------ - ------- --- ----------<br>------------- ------ ------ ---- ---- ------- ----- -- ----<br>-------- ------- is ---------- --- - --- ----- ----- ----<br>---- --- --- ----- --- ---- ---- ------- ----- ---- -------<br>--- --- -- ----- -- --- ---- -- --- ---- -- ------ ------<br>--- ----- -- ----,148833.6000000001,148831.40000000037,148368.347,148367.2000000002,148385.02,148835.201,,20,is
screen,html.Screen,2_1_0_1_21,2022-05-02T10:56:53.907Z,,,,,,,,,,,,,,,,,53,,,,,,,,,,,,,,600.8990000000922,,response,,,,99,,,,,,,Space,keypress(Space),,,,,,,,---- -- ----- -- ------ - ------- --- ----------<br>------------- ------ ------ ---- ---- ------- ----- -- ----<br>-------- ------- -- paramount. --- - --- ----- ----- ----<br>---- --- --- ----- --- ---- ---- ------- ----- ---- -------<br>--- --- -- ----- -- --- ---- -- --- ---- -- ------ ------<br>--- ----- -- ----,149438.5,149436.1000000001,148818.528,148833.80000000028,148835.201,149452.1,,21,paramount.
screen,html.Screen,2_1_0_1_22,2022-05-02T10:56:55.503Z,,,,,,,,,,,,,,,,,53,,,,,,,,,,,,,,1578.8000000003667,,response,,,,99,,,,,,,Space,keypress(Space),,,,,,,,---- -- ----- -- ------ - ------- --- ----------<br>------------- ------ ------ ---- ---- ------- ----- -- ----<br>-------- ------- -- ---------- But - --- ----- ----- ----<br>---- --- --- ----- --- ---- ---- ------- ----- ---- -------<br>--- --- -- ----- -- --- ---- -- --- ---- -- ------ ------<br>--- ----- -- ----,151034.2000000002,151030.90000000037,149435.427,149438.80000000028,149452.1,151036.032,,22,But
screen,html.Screen,2_1_0_1_23,2022-05-02T10:56:55.988Z,,,,,,,,,,,,,,,,,53,,,,,,,,,,,,,,480.66800000017975,,response,,,,99,,,,,,,Space,keypress(Space),,,,,,,,---- -- ----- -- ------ - ------- --- ----------<br>------------- ------ ------ ---- ---- ------- ----- -- ----<br>-------- ------- -- ---------- --- a --- ----- ----- ----<br>---- --- --- ----- --- ---- ---- ------- ----- ---- -------<br>--- --- -- ----- -- --- ---- -- --- ---- -- ------ ------<br>--- ----- -- ----,151518.90000000037,151516.7000000002,151019.359,151034.5,151036.032,151536.23,,23,a
screen,html.Screen,2_1_0_1_24,2022-05-02T10:56:56.341Z,,,,,,,,,,,,,,,,,53,,,,,,,,,,,,,,333.9700000001758,,response,,,,99,,,,,,,Space,keypress(Space),,,,,,,,---- -- ----- -- ------ - ------- --- ----------<br>------------- ------ ------ ---- ---- ------- ----- -- ----<br>-------- ------- -- ---------- --- - new ----- ----- ----<br>---- --- --- ----- --- ---- ---- ------- ----- ---- -------<br>--- --- -- ----- -- --- ---- -- --- ---- -- ------ ------<br>--- ----- -- ----,151872.1000000001,151870.2000000002,151519.557,151519.1000000001,151536.23,151886.36,,24,new
screen,html.Screen,2_1_0_1_25,2022-05-02T10:56:56.789Z,,,,,,,,,,,,,,,,,53,,,,,,,,,,,,,,431.64000000001397,,response,,,,99,,,,,,,Space,keypress(Space),,,,,,,,---- -- ----- -- ------ - ------- --- ----------<br>------------- ------ ------ ---- ---- ------- ----- -- ----<br>-------- ------- -- ---------- --- - --- study ----- ----<br>---- --- --- ----- --- ---- ---- ------- ----- ---- -------<br>--- --- -- ----- -- --- ---- -- --- ---- -- ------ ------<br>--- ----- -- ----,152320.30000000028,152318,151869.687,151872.40000000037,151886.36,152336.527,,25,study
screen,html.Screen,2_1_0_1_26,2022-05-02T10:56:57.304Z,,,,,,,,,,,,,,,,,53,,,,,,,,,,,,,,494.97299999999814,,response,,,,99,,,,,,,Space,keypress(Space),,,,,,,,---- -- ----- -- ------ - ------- --- ----------<br>------------- ------ ------ ---- ---- ------- ----- -- ----<br>-------- ------- -- ---------- --- - --- ----- finds ----<br>---- --- --- ----- --- ---- ---- ------- ----- ---- -------<br>--- --- -- ----- -- --- ---- -- --- ---- -- ------ ------<br>--- ----- -- ----,152834.6000000001,152831.5,152319.854,152320.6000000001,152336.527,152836.718,,26,finds
screen,html.Screen,2_1_0_1_27,2022-05-02T10:56:57.832Z,,,,,,,,,,,,,,,,,53,,,,,,,,,,,,,,523.4820000001928,,response,,,,99,,,,,,,Space,keypress(Space),,,,,,,,---- -- ----- -- ------ - ------- --- ----------<br>------------- ------ ------ ---- ---- ------- ----- -- ----<br>-------- ------- -- ---------- --- - --- ----- ----- that<br>---- --- --- ----- --- ---- ---- ------- ----- ---- -------<br>--- --- -- ----- -- --- ---- -- --- ---- -- ------ ------<br>--- ----- -- ----,153362.80000000028,153360.2000000002,152820.045,152834.80000000028,152836.718,153370.268,,27,that
screen,html.Screen,2_1_0_1_28,2022-05-02T10:56:58.374Z,,,,,,,,,,,,,,,,,53,,,,,,,,,,,,,,531.8320000000822,,response,,,,99,,,,,,,Space,keypress(Space),,,,,,,,---- -- ----- -- ------ - ------- --- ----------<br>------------- ------ ------ ---- ---- ------- ----- -- ----<br>-------- ------- -- ---------- --- - --- ----- ----- ----<br>it's --- --- ----- --- ---- ---- ------- ----- ---- -------<br>--- --- -- ----- -- --- ---- -- --- ---- -- ------ ------<br>--- ----- -- ----,153904.7000000002,153902.1000000001,153353.595,153363,153370.268,153920.476,,28,it's
screen,html.Screen,2_1_0_1_29,2022-05-02T10:56:58.855Z,,,,,,,,,,,,,,,,,53,,,,,,,,,,,,,,462.22400000019115,,response,,,,99,,,,,,,Space,keypress(Space),,,,,,,,---- -- ----- -- ------ - ------- --- ----------<br>------------- ------ ------ ---- ---- ------- ----- -- ----<br>-------- ------- -- ---------- --- - --- ----- ----- ----<br>---- not --- ----- --- ---- ---- ------- ----- ---- -------<br>--- --- -- ----- -- --- ---- -- --- ---- -- ------ ------<br>--- ----- -- ----,154385.90000000037,154382.7000000002,153903.803,153905,153920.476,154403.985,,29,not
screen,html.Screen,2_1_0_1_30,2022-05-02T10:56:59.249Z,,,,,,,,,,,,,,,,,53,,,,,,,,,,,,,,374.21500000020023,,response,,,,99,,,,,,,Space,keypress(Space),,,,,,,,---- -- ----- -- ------ - ------- --- ----------<br>------------- ------ ------ ---- ---- ------- ----- -- ----<br>-------- ------- -- ---------- --- - --- ----- ----- ----<br>---- --- how ----- --- ---- ---- ------- ----- ---- -------<br>--- --- -- ----- -- --- ---- -- --- ---- -- ------ ------<br>--- ----- -- ----,154780.1000000001,154778.2000000002,154387.312,154386.2000000002,154403.985,154787.468,,30,how
screen,html.Screen,2_1_0_1_31,2022-05-02T10:56:59.651Z,,,,,,,,,,,,,,,,,53,,,,,,,,,,,,,,390.93200000037905,,response,,,,99,,,,,,,Space,keypress(Space),,,,,,,,---- -- ----- -- ------ - ------- --- ----------<br>------------- ------ ------ ---- ---- ------- ----- -- ----<br>-------- ------- -- ---------- --- - --- ----- ----- ----<br>---- --- --- close --- ---- ---- ------- ----- ---- -------<br>--- --- -- ----- -- --- ---- -- --- ---- -- ------ ------<br>--- ----- -- ----,155181.80000000028,155178.40000000037,154770.795,154780.30000000028,154787.468,155187.625,,31,close
screen,html.Screen,2_1_0_1_32,2022-05-02T10:57:00.041Z,,,,,,,,,,,,,,,,,53,,,,,,,,,,,,,,381.6750000002794,,response,,,,99,,,,,,,Space,keypress(Space),,,,,,,,---- -- ----- -- ------ - ------- --- ----------<br>------------- ------ ------ ---- ---- ------- ----- -- ----<br>-------- ------- -- ---------- --- - --- ----- ----- ----<br>---- --- --- ----- you ---- ---- ------- ----- ---- -------<br>--- --- -- ----- -- --- ---- -- --- ---- -- ------ ------<br>--- ----- -- ----,155572,155569.30000000028,155170.952,155182,155187.625,155587.779,,32,you
screen,html.Screen,2_1_0_1_33,2022-05-02T10:57:00.487Z,,,,,,,,,,,,,,,,,53,,,,,,,,,,,,,,427.9210000001767,,response,,,,99,,,,,,,Space,keypress(Space),,,,,,,,---- -- ----- -- ------ - ------- --- ----------<br>------------- ------ ------ ---- ---- ------- ----- -- ----<br>-------- ------- -- ---------- --- - --- ----- ----- ----<br>---- --- --- ----- --- feel ---- ------- ----- ---- -------<br>--- --- -- ----- -- --- ---- -- --- ---- -- ------ ------<br>--- ----- -- ----,156018.40000000037,156015.7000000002,155571.106,155572.2000000002,155587.779,156021.278,,33,feel
screen,html.Screen,2_1_0_1_34,2022-05-02T10:57:00.854Z,,,,,,,,,,,,,,,,,53,,,,,,,,,,,,,,360.4220000001951,,response,,,,99,,,,,,,Space,keypress(Space),,,,,,,,---- -- ----- -- ------ - ------- --- ----------<br>------------- ------ ------ ---- ---- ------- ----- -- ----<br>-------- ------- -- ---------- --- - --- ----- ----- ----<br>---- --- --- ----- --- ---- that ------- ----- ---- -------<br>--- --- -- ----- -- --- ---- -- --- ---- -- ------ ------<br>--- ----- -- ----,156384.90000000037,156381.7000000002,156004.605,156018.7000000002,156021.278,156388.087,,34,that
screen,html.Screen,2_1_0_1_35,2022-05-02T10:57:01.207Z,,,,,,,,,,,,,,,,,53,,,,,,,,,,,,,,347.813000000373,,response,,,,99,,,,,,,Space,keypress(Space),,,,,,,,---- -- ----- -- ------ - ------- --- ----------<br>------------- ------ ------ ---- ---- ------- ----- -- ----<br>-------- ------- -- ---------- --- - --- ----- ----- ----<br>---- --- --- ----- --- ---- ---- matters ----- ---- -------<br>--- --- -- ----- -- --- ---- -- --- ---- -- ------ ------<br>--- ----- -- ----,156738.40000000037,156735.90000000037,156371.414,156385,156388.087,156754.884,,35,matters
screen,html.Screen,2_1_0_1_36,2022-05-02T10:57:01.760Z,,,,,,,,,,,,,,,,,53,,,,,,,,,,,,,,534.1160000000091,,response,,,,99,,,,,,,Space,keypress(Space),,,,,,,,"---- -- ----- -- ------ - ------- --- ----------<br>------------- ------ ------ ---- ---- ------- ----- -- ----<br>-------- ------- -- ---------- --- - --- ----- ----- ----<br>---- --- --- ----- --- ---- ---- ------- most, ---- -------<br>--- --- -- ----- -- --- ---- -- --- ---- -- ------ ------<br>--- ----- -- ----",157290.80000000028,157289,156738.211,156738.7000000002,156754.884,157305.106,,36,"most,"
screen,html.Screen,2_1_0_1_37,2022-05-02T10:57:02.272Z,,,,,,,,,,,,,,,,,53,,,,,,,,,,,,,,495.89400000000023,,response,,,,99,,,,,,,Space,keypress(Space),,,,,,,,---- -- ----- -- ------ - ------- --- ----------<br>------------- ------ ------ ---- ---- ------- ----- -- ----<br>-------- ------- -- ---------- --- - --- ----- ----- ----<br>---- --- --- ----- --- ---- ---- ------- ----- it's -------<br>--- --- -- ----- -- --- ---- -- --- ---- -- ------ ------<br>--- ----- -- ----,157802.90000000037,157801,157288.433,157291,157305.106,157805.292,,37,it's
screen,html.Screen,2_1_0_1_38,2022-05-02T10:57:02.744Z,,,,,,,,,,,,,,,,,53,,,,,,,,,,,,,,468.3080000001064,,response,,,,99,,,,,,,Space,keypress(Space),,,,,,,,---- -- ----- -- ------ - ------- --- ----------<br>------------- ------ ------ ---- ---- ------- ----- -- ----<br>-------- ------- -- ---------- --- - --- ----- ----- ----<br>---- --- --- ----- --- ---- ---- ------- ----- ---- whether<br>--- --- -- ----- -- --- ---- -- --- ---- -- ------ ------<br>--- ----- -- ----,158275.40000000037,158273.6000000001,157788.619,157803.1000000001,157805.292,158288.811,,38,whether
screen,html.Screen,2_1_0_1_39,2022-05-02T10:57:03.230Z,,,,,,,,,,,,,,,,,53,,,,,,,,,,,,,,469.78900000010617,,response,,,,99,,,,,,,Space,keypress(Space),,,,,,,,---- -- ----- -- ------ - ------- --- ----------<br>------------- ------ ------ ---- ---- ------- ----- -- ----<br>-------- ------- -- ---------- --- - --- ----- ----- ----<br>---- --- --- ----- --- ---- ---- ------- ----- ---- -------<br>you --- -- ----- -- --- ---- -- --- ---- -- ------ ------<br>--- ----- -- ----,158761,158758.6000000001,158272.138,158275.6000000001,158288.811,158772.33,,39,you
screen,html.Screen,2_1_0_1_40,2022-05-02T10:57:03.600Z,,,,,,,,,,,,,,,,,53,,,,,,,,,,,,,,355.9700000002922,,response,,,,99,,,,,,,Space,keypress(Space),,,,,,,,---- -- ----- -- ------ - ------- --- ----------<br>------------- ------ ------ ---- ---- ------- ----- -- ----<br>-------- ------- -- ---------- --- - --- ----- ----- ----<br>---- --- --- ----- --- ---- ---- ------- ----- ---- -------<br>--- are -- ----- -- --- ---- -- --- ---- -- ------ ------<br>--- ----- -- ----,159130.7000000002,159128.30000000028,158755.657,158761.2000000002,158772.33,159139.14,,40,are
screen,html.Screen,2_1_0_1_41,2022-05-02T10:57:03.937Z,,,,,,,,,,,,,,,,,53,,,,,,,,,,,,,,326.35999999998603,,response,,,,99,,,,,,,Space,keypress(Space),,,,,,,,---- -- ----- -- ------ - ------- --- ----------<br>------------- ------ ------ ---- ---- ------- ----- -- ----<br>-------- ------- -- ---------- --- - --- ----- ----- ----<br>---- --- --- ----- --- ---- ---- ------- ----- ---- -------<br>--- --- as ----- -- --- ---- -- --- ---- -- ------ ------<br>--- ----- -- ----,159467.90000000037,159465.5,159122.467,159130.80000000028,159139.14,159472.597,,41,as
screen,html.Screen,2_1_0_1_42,2022-05-02T10:57:04.396Z,,,,,,,,,,,,,,,,,53,,,,,,,,,,,,,,452.5030000000843,,response,,,,99,,,,,,,Space,keypress(Space),,,,,,,,---- -- ----- -- ------ - ------- --- ----------<br>------------- ------ ------ ---- ---- ------- ----- -- ----<br>-------- ------- -- ---------- --- - --- ----- ----- ----<br>---- --- --- ----- --- ---- ---- ------- ----- ---- -------<br>--- --- -- close -- --- ---- -- --- ---- -- ------ ------<br>--- ----- -- ----,159927.5,159925.1000000001,159455.924,159468.1000000001,159472.597,159939.448,,42,close
screen,html.Screen,2_1_0_1_43,2022-05-02T10:57:04.784Z,,,,,,,,,,,,,,,,,53,,,,,,,,,,,,,,373.95200000036857,,response,,,,99,,,,,,,Space,keypress(Space),,,,,,,,---- -- ----- -- ------ - ------- --- ----------<br>------------- ------ ------ ---- ---- ------- ----- -- ----<br>-------- ------- -- ---------- --- - --- ----- ----- ----<br>---- --- --- ----- --- ---- ---- ------- ----- ---- -------<br>--- --- -- ----- as --- ---- -- --- ---- -- ------ ------<br>--- ----- -- ----,160315.30000000028,160313.40000000037,159922.775,159927.80000000028,159939.448,160322.927,,43,as
screen,html.Screen,2_1_0_1_44,2022-05-02T10:57:04.990Z,,,,,,,,,,,,,,,,,53,,,,,,,,,,,,,,196.57300000000396,,response,,,,99,,,,,,,Space,keypress(Space),,,,,,,,---- -- ----- -- ------ - ------- --- ----------<br>------------- ------ ------ ---- ---- ------- ----- -- ----<br>-------- ------- -- ---------- --- - --- ----- ----- ----<br>---- --- --- ----- --- ---- ---- ------- ----- ---- -------<br>--- --- -- ----- -- you ---- -- --- ---- -- ------ ------<br>--- ----- -- ----,160521.30000000028,160519.5,160306.254,160315.6000000001,160322.927,160523.005,,44,you
screen,html.Screen,2_1_0_1_45,2022-05-02T10:57:05.363Z,,,,,,,,,,,,,,,,,53,,,,,,,,,,,,,,368.99499999999534,,response,,,,99,,,,,,,Space,keypress(Space),,,,,,,,---- -- ----- -- ------ - ------- --- ----------<br>------------- ------ ------ ---- ---- ------- ----- -- ----<br>-------- ------- -- ---------- --- - --- ----- ----- ----<br>---- --- --- ----- --- ---- ---- ------- ----- ---- -------<br>--- --- -- ----- -- --- want -- --- ---- -- ------ ------<br>--- ----- -- ----,160894.1000000001,160892,160506.332,160521.5,160523.005,160906.474,,45,want
screen,html.Screen,2_1_0_1_46,2022-05-02T10:57:05.749Z,,,,,,,,,,,,,,,,,53,,,,,,,,,,,,,,371.6260000001057,,response,,,,99,,,,,,,Space,keypress(Space),,,,,,,,---- -- ----- -- ------ - ------- --- ----------<br>------------- ------ ------ ---- ---- ------- ----- -- ----<br>-------- ------- -- ---------- --- - --- ----- ----- ----<br>---- --- --- ----- --- ---- ---- ------- ----- ---- -------<br>--- --- -- ----- -- --- ---- to --- ---- -- ------ ------<br>--- ----- -- ----,161280.40000000037,161278.1000000001,160889.801,160894.40000000037,160906.474,161289.964,,46,to
screen,html.Screen,2_1_0_1_47,2022-05-02T10:57:06.328Z,,,,,,,,,,,,,,,,,53,,,,,,,,,,,,,,565.9360000003653,,response,,,,99,,,,,,,Space,keypress(Space),,,,,,,,"---- -- ----- -- ------ - ------- --- ----------<br>------------- ------ ------ ---- ---- ------- ----- -- ----<br>-------- ------- -- ---------- --- - --- ----- ----- ----<br>---- --- --- ----- --- ---- ---- ------- ----- ---- -------<br>--- --- -- ----- -- --- ---- -- be, ---- -- ------ ------<br>--- ----- -- ----",161858.80000000028,161855.90000000037,161273.291,161280.7000000002,161289.964,161873.515,,47,"be,"
screen,html.Screen,2_1_0_1_48,2022-05-02T10:57:06.898Z,,,,,,,,,,,,,,,,,53,,,,,,,,,,,,,,553.8850000003586,,response,,,,99,,,,,,,Space,keypress(Space),,,,,,,,---- -- ----- -- ------ - ------- --- ----------<br>------------- ------ ------ ---- ---- ------- ----- -- ----<br>-------- ------- -- ---------- --- - --- ----- ----- ----<br>---- --- --- ----- --- ---- ---- ------- ----- ---- -------<br>--- --- -- ----- -- --- ---- -- --- even -- ------ ------<br>--- ----- -- ----,162429.1000000001,162427.40000000037,161856.842,161859,161873.515,162440.396,,48,even
screen,html.Screen,2_1_0_1_49,2022-05-02T10:57:07.297Z,,,,,,,,,,,,,,,,,53,,,,,,,,,,,,,,385.4040000002715,,response,,,,99,,,,,,,Space,keypress(Space),,,,,,,,---- -- ----- -- ------ - ------- --- ----------<br>------------- ------ ------ ---- ---- ------- ----- -- ----<br>-------- ------- -- ---------- --- - --- ----- ----- ----<br>---- --- --- ----- --- ---- ---- ------- ----- ---- -------<br>--- --- -- ----- -- --- ---- -- --- ---- if ------ ------<br>--- ----- -- ----,162827.80000000028,162825.80000000028,162423.723,162429.40000000037,162440.396,162840.55,,49,if
screen,html.Screen,2_1_0_1_50,2022-05-02T10:57:07.794Z,,,,,,,,,,,,,,,,,53,,,,,,,,,,,,,,482.45000000001164,,response,,,,99,,,,,,,Space,keypress(Space),,,,,,,,---- -- ----- -- ------ - ------- --- ----------<br>------------- ------ ------ ---- ---- ------- ----- -- ----<br>-------- ------- -- ---------- --- - --- ----- ----- ----<br>---- --- --- ----- --- ---- ---- ------- ----- ---- -------<br>--- --- -- ----- -- --- ---- -- --- ---- -- that's ------<br>--- ----- -- ----,163324.90000000037,163323,162823.877,162828,162840.55,163340.748,,50,that's
screen,html.Screen,2_1_0_1_51,2022-05-02T10:57:08.263Z,,,,,,,,,,,,,,,,,53,,,,,,,,,,,,,,450.3520000001008,,response,,,,99,,,,,,,Space,keypress(Space),,,,,,,,---- -- ----- -- ------ - ------- --- ----------<br>------------- ------ ------ ---- ---- ------- ----- -- ----<br>-------- ------- -- ---------- --- - --- ----- ----- ----<br>---- --- --- ----- --- ---- ---- ------- ----- ---- -------<br>--- --- -- ----- -- --- ---- -- --- ---- -- ------ really<br>--- ----- -- ----,163793.6000000001,163791.1000000001,163324.075,163325.2000000002,163340.748,163807.584,,51,really
screen,html.Screen,2_1_0_1_52,2022-05-02T10:57:08.709Z,,,,,,,,,,,,,,,,,53,,,,,,,,,,,,,,431.1160000001837,,response,,,,99,,,,,,,Space,keypress(Space),,,,,,,,---- -- ----- -- ------ - ------- --- ----------<br>------------- ------ ------ ---- ---- ------- ----- -- ----<br>-------- ------- -- ---------- --- - --- ----- ----- ----<br>---- --- --- ----- --- ---- ---- ------- ----- ---- -------<br>--- --- -- ----- -- --- ---- -- --- ---- -- ------ ------<br>not ----- -- ----,164240.5,164238.7000000002,163790.911,163793.7000000002,163807.584,164257.761,,52,not
screen,html.Screen,2_1_0_1_53,2022-05-02T10:57:09.037Z,,,,,,,,,,,,,,,,,53,,,,,,,,,,,,,,307.93900000018766,,response,,,,99,,,,,,,Space,keypress(Space),,,,,,,,---- -- ----- -- ------ - ------- --- ----------<br>------------- ------ ------ ---- ---- ------- ----- -- ----<br>-------- ------- -- ---------- --- - --- ----- ----- ----<br>---- --- --- ----- --- ---- ---- ------- ----- ---- -------<br>--- --- -- ----- -- --- ---- -- --- ---- -- ------ ------<br>--- close -- ----,164567.90000000037,164565.7000000002,164241.088,164240.7000000002,164257.761,164574.554,,53,close
screen,html.Screen,2_1_0_1_54,2022-05-02T10:57:09.391Z,,,,,,,,,,,,,,,,,53,,,,,,,,,,,,,,346.0460000000894,,response,,,,99,,,,,,,Space,keypress(Space),,,,,,,,---- -- ----- -- ------ - ------- --- ----------<br>------------- ------ ------ ---- ---- ------- ----- -- ----<br>-------- ------- -- ---------- --- - --- ----- ----- ----<br>---- --- --- ----- --- ---- ---- ------- ----- ---- -------<br>--- --- -- ----- -- --- ---- -- --- ---- -- ------ ------<br>--- ----- at ----,164922.40000000037,164920.6000000001,164557.881,164568.2000000002,164574.554,164924.687,,54,at
screen,html.Screen,2_1_0_1_55,2022-05-02T10:57:10.252Z,,,,,,,,,,,,,,,,,53,,,,,,,,,,,,,,855.0130000001809,,response,,,,99,,,,,,,Space,keypress(Space),,,,,,,,---- -- ----- -- ------ - ------- --- ----------<br>------------- ------ ------ ---- ---- ------- ----- -- ----<br>-------- ------- -- ---------- --- - --- ----- ----- ----<br>---- --- --- ----- --- ---- ---- ------- ----- ---- -------<br>--- --- -- ----- -- --- ---- -- --- ---- -- ------ ------<br>--- ----- -- all.,165782.80000000028,165779.7000000002,164908.014,164922.7000000002,164924.687,165791.687,,55,all.
Item 99,flow.Loop,2_1_0_1,2022-05-02T10:57:10.252Z,,,,,,,,,,,,,,,,,,,,,,,,,,,,,,,32867.258000000176,,completion,,,,,E,,,,,,,,,,,silence,,,,,165783.40000000037,165779.7000000002,132879.096,132880.7000000002,132912.442,165791.687,,,
Question 1,html.Screen,2_1_0_2,2022-05-02T10:57:17.533Z,,,,,,,,,,,,,,,,,,,,,,,,,,,,false,FALSE,,7268.413000000088,,response,,,,99,E,,,,,,TRUE,click #choice-1,,,,silence,,,,,173063.7000000002,173060.1000000001,165775.014,165783.7000000002,165791.687,173077.797,,,
Question 2,html.Screen,2_1_0_3,2022-05-02T10:57:21.317Z,,,,,,,,,,,,,,,,,,,,,,,,,,,,true,TRUE,,3765.003000000288,,response,,,,99,E,,,,,,TRUE,click #choice-1,,,,silence,,,,,176847.80000000028,176842.80000000028,173061.124,173063.90000000037,173077.797,176862.576,,,
Item 99,flow.Sequence,2_1_0,2022-05-02T10:57:21.317Z,,,,,,,,,,,,,,,,,,,,,,,,,,,,,,,53950.86000000028,,completion,,,,,,,,,,,,,,,,,,,,,176848.2000000002,176842.80000000028,122875.267,122886.80000000028,122891.94,176862.576,,,
Holding screen,html.Screen,2_1_1_0,2022-05-02T10:57:31.320Z,,,,,,,,,,,,,,,,,,,,,,,,,,,,,,,10003.837,,timeout,,,,,,,,,,,,,,,,,,,,,186851.1000000001,186849.74,176845.903,176848.5,176862.576,186866.413,,,
screen,html.Screen,2_1_1_1_0,2022-05-02T10:57:32.380Z,,,,,,,,,,,,,,,,,54,,,,,,,,,,,,,,1040.487000000372,,response,,,,100,,,,,,,Space,keypress(Space),,,,,,,,At --- ---- --- ------ ----- ------- ---- -- --- ------- --<br>------- ---------- ------ -- ----- -- ----- -- ---- ------<br>--- ----- --- --- ------ -------- ----- --- ------ ----- --<br>----- ----- ---------- --- --- ------ ------ ---- -- ------<br>------- --- ------ ----- --- ---- ------- -- ---- --- --<br>------- ------,187911.2000000002,187906.90000000037,186849.74,186851.40000000037,186866.413,187916.809,,0,At
screen,html.Screen,2_1_1_1_1,2022-05-02T10:57:32.777Z,,,,,,,,,,,,,,,,,54,,,,,,,,,,,,,,389.09100000036415,,response,,,,100,,,,,,,Space,keypress(Space),,,,,,,,-- the ---- --- ------ ----- ------- ---- -- --- ------- --<br>------- ---------- ------ -- ----- -- ----- -- ---- ------<br>--- ----- --- --- ------ -------- ----- --- ------ ----- --<br>----- ----- ---------- --- --- ------ ------ ---- -- ------<br>------- --- ------ ----- --- ---- ------- -- ---- --- --<br>------- ------,188308,188305.90000000037,187900.136,187911.40000000037,187916.809,188316.958,,1,the
screen,html.Screen,2_1_1_1_2,2022-05-02T10:57:33.241Z,,,,,,,,,,,,,,,,,54,,,,,,,,,,,,,,453.04199999998673,,response,,,,100,,,,,,,Space,keypress(Space),,,,,,,,-- --- time --- ------ ----- ------- ---- -- --- ------- --<br>------- ---------- ------ -- ----- -- ----- -- ---- ------<br>--- ----- --- --- ------ -------- ----- --- ------ ----- --<br>----- ----- ---------- --- --- ------ ------ ---- -- ------<br>------- --- ------ ----- --- ---- ------- -- ---- --- --<br>------- ------,188771.80000000028,188770,188300.285,188308.2000000002,188316.958,188783.808,,2,time
screen,html.Screen,2_1_1_1_3,2022-05-02T10:57:33.797Z,,,,,,,,,,,,,,,,,54,,,,,,,,,,,,,,541.8920000001963,,response,,,,100,,,,,,,Space,keypress(Space),,,,,,,,-- --- ---- the ------ ----- ------- ---- -- --- ------- --<br>------- ---------- ------ -- ----- -- ----- -- ---- ------<br>--- ----- --- --- ------ -------- ----- --- ------ ----- --<br>----- ----- ---------- --- --- ------ ------ ---- -- ------<br>------- --- ------ ----- --- ---- ------- -- ---- --- --<br>------- ------,189327.7000000002,189325.7000000002,188767.135,188772,188783.808,189334.013,,3,the
screen,html.Screen,2_1_1_1_4,2022-05-02T10:57:34.469Z,,,,,,,,,,,,,,,,,54,,,,,,,,,,,,,,663.8870000003662,,response,,,,100,,,,,,,Space,keypress(Space),,,,,,,,-- --- ---- --- French ----- ------- ---- -- --- ------- --<br>------- ---------- ------ -- ----- -- ----- -- ---- ------<br>--- ----- --- --- ------ -------- ----- --- ------ ----- --<br>----- ----- ---------- --- --- ------ ------ ---- -- ------<br>------- --- ------ ----- --- ---- ------- -- ---- --- --<br>------- ------,190000.1000000001,189997.90000000037,189317.34,189327.90000000037,189334.013,190017.615,,4,French
screen,html.Screen,2_1_1_1_5,2022-05-02T10:57:34.983Z,,,,,,,,,,,,,,,,,54,,,,,,,,,,,,,,494.48500000010245,,response,,,,100,,,,,,,Space,keypress(Space),,,,,,,,-- --- ---- --- ------ crown ------- ---- -- --- ------- --<br>------- ---------- ------ -- ----- -- ----- -- ---- ------<br>--- ----- --- --- ------ -------- ----- --- ------ ----- --<br>----- ----- ---------- --- --- ------ ------ ---- -- ------<br>------- --- ------ ----- --- ---- ------- -- ---- --- --<br>------- ------,190513.80000000028,190512.1000000001,190000.942,190000.30000000028,190017.615,190517.803,,5,crown
screen,html.Screen,2_1_1_1_6,2022-05-02T10:57:35.497Z,,,,,,,,,,,,,,,,,54,,,,,,,,,,,,,,507.89700000017183,,response,,,,100,,,,,,,Space,keypress(Space),,,,,,,,-- --- ---- --- ------ ----- secured ---- -- --- ------- --<br>------- ---------- ------ -- ----- -- ----- -- ---- ------<br>--- ----- --- --- ------ -------- ----- --- ------ ----- --<br>----- ----- ---------- --- --- ------ ------ ---- -- ------<br>------- --- ------ ----- --- ---- ------- -- ---- --- --<br>------- ------,191027.7000000002,191025.7000000002,190501.13,190514,190517.803,191034.675,,6,secured
screen,html.Screen,2_1_1_1_7,2022-05-02T10:57:35.873Z,,,,,,,,,,,,,,,,,54,,,,,,,,,,,,,,367.0250000001979,,response,,,,100,,,,,,,Space,keypress(Space),,,,,,,,-- --- ---- --- ------ ----- ------- much -- --- ------- --<br>------- ---------- ------ -- ----- -- ----- -- ---- ------<br>--- ----- --- --- ------ -------- ----- --- ------ ----- --<br>----- ----- ---------- --- --- ------ ------ ---- -- ------<br>------- --- ------ ----- --- ---- ------- -- ---- --- --<br>------- ------,191403.90000000037,191401.7000000002,191018.002,191028,191034.675,191418.152,,7,much
screen,html.Screen,2_1_1_1_8,2022-05-02T10:57:36.314Z,,,,,,,,,,,,,,,,,54,,,,,,,,,,,,,,425.14800000027753,,response,,,,100,,,,,,,Space,keypress(Space),,,,,,,,-- --- ---- --- ------ ----- ------- ---- of --- ------- --<br>------- ---------- ------ -- ----- -- ----- -- ---- ------<br>--- ----- --- --- ------ -------- ----- --- ------ ----- --<br>----- ----- ---------- --- --- ------ ------ ---- -- ------<br>------- --- ------ ----- --- ---- ------- -- ---- --- --<br>------- ------,191844.7000000002,191843.30000000028,191401.479,191404.1000000001,191418.152,191851.645,,8,of
screen,html.Screen,2_1_1_1_9,2022-05-02T10:57:36.723Z,,,,,,,,,,,,,,,,,54,,,,,,,,,,,,,,400.05500000019674,,response,,,,100,,,,,,,Space,keypress(Space),,,,,,,,-- --- ---- --- ------ ----- ------- ---- -- its ------- --<br>------- ---------- ------ -- ----- -- ----- -- ---- ------<br>--- ----- --- --- ------ -------- ----- --- ------ ----- --<br>----- ----- ---------- --- --- ------ ------ ---- -- ------<br>------- --- ------ ----- --- ---- ------- -- ---- --- --<br>------- ------,192253.90000000037,192251.7000000002,191834.972,191844.7000000002,191851.645,192268.472,,9,its
screen,html.Screen,2_1_1_1_10,2022-05-02T10:57:37.144Z,,,,,,,,,,,,,,,,,54,,,,,,,,,,,,,,403.9280000003637,,response,,,,100,,,,,,,Space,keypress(Space),,,,,,,,-- --- ---- --- ------ ----- ------- ---- -- --- revenue --<br>------- ---------- ------ -- ----- -- ----- -- ---- ------<br>--- ----- --- --- ------ -------- ----- --- ------ ----- --<br>----- ----- ---------- --- --- ------ ------ ---- -- ------<br>------- --- ------ ----- --- ---- ------- -- ---- --- --<br>------- ------,192675,192672.40000000037,192251.799,192254.2000000002,192268.472,192685.297,,10,revenue
screen,html.Screen,2_1_1_1_11,2022-05-02T10:57:37.979Z,,,,,,,,,,,,,,,,,54,,,,,,,,,,,,,,823.003000000288,,response,,,,100,,,,,,,Space,keypress(Space),,,,,,,,-- --- ---- --- ------ ----- ------- ---- -- --- ------- by<br>------- ---------- ------ -- ----- -- ----- -- ---- ------<br>--- ----- --- --- ------ -------- ----- --- ------ ----- --<br>----- ----- ---------- --- --- ------ ------ ---- -- ------<br>------- --- ------ ----- --- ---- ------- -- ---- --- --<br>------- ------,193509.6000000001,193508.30000000028,192668.624,192675.2000000002,192685.297,193518.961,,11,by
screen,html.Screen,2_1_1_1_12,2022-05-02T10:57:38.460Z,,,,,,,,,,,,,,,,,54,,,,,,,,,,,,,,470.4390000003623,,response,,,,100,,,,,,,Space,keypress(Space),,,,,,,,-- --- ---- --- ------ ----- ------- ---- -- --- ------- --<br>issuing ---------- ------ -- ----- -- ----- -- ---- ------<br>--- ----- --- --- ------ -------- ----- --- ------ ----- --<br>----- ----- ---------- --- --- ------ ------ ---- -- ------<br>------- --- ------ ----- --- ---- ------- -- ---- --- --<br>------- ------,193991.2000000002,193989.40000000037,193502.288,193509.7000000002,193518.961,194002.472,,12,issuing
screen,html.Screen,2_1_1_1_13,2022-05-02T10:57:38.823Z,,,,,,,,,,,,,,,,,54,,,,,,,,,,,,,,349.9280000003637,,response,,,,100,,,,,,,Space,keypress(Space),,,,,,,,-- --- ---- --- ------ ----- ------- ---- -- --- ------- --<br>------- government ------ -- ----- -- ----- -- ---- ------<br>--- ----- --- --- ------ -------- ----- --- ------ ----- --<br>----- ----- ---------- --- --- ------ ------ ---- -- ------<br>------- --- ------ ----- --- ---- ------- -- ---- --- --<br>------- ------,194354.5,194352.40000000037,193985.799,193991.5,194002.472,194369.287,,13,government
screen,html.Screen,2_1_1_1_14,2022-05-02T10:57:39.171Z,,,,,,,,,,,,,,,,,54,,,,,,,,,,,,,,330.31300000008196,,response,,,,100,,,,,,,Space,keypress(Space),,,,,,,,-- --- ---- --- ------ ----- ------- ---- -- --- ------- --<br>------- ---------- bonds. -- ----- -- ----- -- ---- ------<br>--- ----- --- --- ------ -------- ----- --- ------ ----- --<br>----- ----- ---------- --- --- ------ ------ ---- -- ------<br>------- --- ------ ----- --- ---- ------- -- ---- --- --<br>------- ------,194702.2000000002,194699.6000000001,194352.614,194354.7000000002,194369.287,194719.411,,14,bonds.
screen,html.Screen,2_1_1_1_15,2022-05-02T10:57:41.823Z,,,,,,,,,,,,,,,,,54,,,,,,,,,,,,,,2631.8890000002866,,response,,,,100,,,,,,,Space,keypress(Space),,,,,,,,-- --- ---- --- ------ ----- ------- ---- -- --- ------- --<br>------- ---------- ------ In ----- -- ----- -- ---- ------<br>--- ----- --- --- ------ -------- ----- --- ------ ----- --<br>----- ----- ---------- --- --- ------ ------ ---- -- ------<br>------- --- ------ ----- --- ---- ------- -- ---- --- --<br>------- ------,197354.1000000001,197351.30000000028,194702.738,194702.40000000037,194719.411,197370.416,,15,In
screen,html.Screen,2_1_1_1_16,2022-05-02T10:57:43.816Z,,,,,,,,,,,,,,,,,54,,,,,,,,,,,,,,1972.384000000282,,response,,,,100,,,,,,,Space,keypress(Space),,,,,,,,"-- --- ---- --- ------ ----- ------- ---- -- --- ------- --<br>------- ---------- ------ -- 1727, -- ----- -- ---- ------<br>--- ----- --- --- ------ -------- ----- --- ------ ----- --<br>----- ----- ---------- --- --- ------ ------ ---- -- ------<br>------- --- ------ ----- --- ---- ------- -- ---- --- --<br>------- ------",199346.90000000037,199342.80000000028,197353.743,197354.30000000028,197370.416,199354.515,,16,"1727,"
screen,html.Screen,2_1_1_1_17,2022-05-02T10:57:44.207Z,,,,,,,,,,,,,,,,,54,,,,,,,,,,,,,,381.98499999998603,,response,,,,100,,,,,,,Space,keypress(Space),,,,,,,,-- --- ---- --- ------ ----- ------- ---- -- --- ------- --<br>------- ---------- ------ -- ----- in ----- -- ---- ------<br>--- ----- --- --- ------ -------- ----- --- ------ ----- --<br>----- ----- ---------- --- --- ------ ------ ---- -- ------<br>------- --- ------ ----- --- ---- ------- -- ---- --- --<br>------- ------,199738.5,199736.5,199337.842,199347.1000000001,199354.515,199754.669,,17,in
screen,html.Screen,2_1_1_1_18,2022-05-02T10:57:44.555Z,,,,,,,,,,,,,,,,,54,,,,,,,,,,,,,,328.631000000285,,response,,,,100,,,,,,,Space,keypress(Space),,,,,,,,-- --- ---- --- ------ ----- ------- ---- -- --- ------- --<br>------- ---------- ------ -- ----- -- order -- ---- ------<br>--- ----- --- --- ------ -------- ----- --- ------ ----- --<br>----- ----- ---------- --- --- ------ ------ ---- -- ------<br>------- --- ------ ----- --- ---- ------- -- ---- --- --<br>------- ------,200085.90000000037,200083.30000000028,199737.996,199738.7000000002,199754.669,200088.128,,18,order
screen,html.Screen,2_1_1_1_19,2022-05-02T10:57:44.941Z,,,,,,,,,,,,,,,,,54,,,,,,,,,,,,,,381.77200000037556,,response,,,,100,,,,,,,Space,keypress(Space),,,,,,,,-- --- ---- --- ------ ----- ------- ---- -- --- ------- --<br>------- ---------- ------ -- ----- -- ----- to ---- ------<br>--- ----- --- --- ------ -------- ----- --- ------ ----- --<br>----- ----- ---------- --- --- ------ ------ ---- -- ------<br>------- --- ------ ----- --- ---- ------- -- ---- --- --<br>------- ------,200471.90000000037,200469.90000000037,200071.455,200086.2000000002,200088.128,200488.291,,19,to
screen,html.Screen,2_1_1_1_20,2022-05-02T10:57:45.267Z,,,,,,,,,,,,,,,,,54,,,,,,,,,,,,,,307.6090000003751,,response,,,,100,,,,,,,Space,keypress(Space),,,,,,,,-- --- ---- --- ------ ----- ------- ---- -- --- ------- --<br>------- ---------- ------ -- ----- -- ----- -- save ------<br>--- ----- --- --- ------ -------- ----- --- ------ ----- --<br>----- ----- ---------- --- --- ------ ------ ---- -- ------<br>------- --- ------ ----- --- ---- ------- -- ---- --- --<br>------- ------,200798.2000000002,200795.90000000037,200471.618,200472.1000000001,200488.291,200805.073,,20,save
screen,html.Screen,2_1_1_1_21,2022-05-02T10:57:46.185Z,,,,,,,,,,,,,,,,,54,,,,,,,,,,,,,,908.6270000001823,,response,,,,100,,,,,,,Space,keypress(Space),,,,,,,,"-- --- ---- --- ------ ----- ------- ---- -- --- ------- --<br>------- ---------- ------ -- ----- -- ----- -- ---- money,<br>--- ----- --- --- ------ -------- ----- --- ------ ----- --<br>----- ----- ---------- --- --- ------ ------ ---- -- ------<br>------- --- ------ ----- --- ---- ------- -- ---- --- --<br>------- ------",201715.6000000001,201713.7000000002,200788.4,200798.5,200805.073,201722.099,,21,"money,"
screen,html.Screen,2_1_1_1_22,2022-05-02T10:57:46.663Z,,,,,,,,,,,,,,,,,54,,,,,,,,,,,,,,469.70100000029197,,response,,,,100,,,,,,,Space,keypress(Space),,,,,,,,-- --- ---- --- ------ ----- ------- ---- -- --- ------- --<br>------- ---------- ------ -- ----- -- ----- -- ---- ------<br>the ----- --- --- ------ -------- ----- --- ------ ----- --<br>----- ----- ---------- --- --- ------ ------ ---- -- ------<br>------- --- ------ ----- --- ---- ------- -- ---- --- --<br>------- ------,202194.5,202191.80000000028,201705.426,201715.80000000028,201722.099,202205.606,,22,the
screen,html.Screen,2_1_1_1_23,2022-05-02T10:57:47.053Z,,,,,,,,,,,,,,,,,54,,,,,,,,,,,,,,376.0940000001865,,response,,,,100,,,,,,,Space,keypress(Space),,,,,,,,-- --- ---- --- ------ ----- ------- ---- -- --- ------- --<br>------- ---------- ------ -- ----- -- ----- -- ---- ------<br>--- state --- --- ------ -------- ----- --- ------ ----- --<br>----- ----- ---------- --- --- ------ ------ ---- -- ------<br>------- --- ------ ----- --- ---- ------- -- ---- --- --<br>------- ------,202584.40000000037,202581.7000000002,202188.933,202194.7000000002,202205.606,202589.092,,23,state
screen,html.Screen,2_1_1_1_24,2022-05-02T10:57:47.424Z,,,,,,,,,,,,,,,,,54,,,,,,,,,,,,,,363.9079999999958,,response,,,,100,,,,,,,Space,keypress(Space),,,,,,,,-- --- ---- --- ------ ----- ------- ---- -- --- ------- --<br>------- ---------- ------ -- ----- -- ----- -- ---- ------<br>--- ----- cut --- ------ -------- ----- --- ------ ----- --<br>----- ----- ---------- --- --- ------ ------ ---- -- ------<br>------- --- ------ ----- --- ---- ------- -- ---- --- --<br>------- ------,202954.80000000028,202953,202572.419,202584.7000000002,202589.092,202972.573,,24,cut
screen,html.Screen,2_1_1_1_25,2022-05-02T10:57:47.792Z,,,,,,,,,,,,,,,,,54,,,,,,,,,,,,,,348.22700000027544,,response,,,,100,,,,,,,Space,keypress(Space),,,,,,,,-- --- ---- --- ------ ----- ------- ---- -- --- ------- --<br>------- ---------- ------ -- ----- -- ----- -- ---- ------<br>--- ----- --- the ------ -------- ----- --- ------ ----- --<br>----- ----- ---------- --- --- ------ ------ ---- -- ------<br>------- --- ------ ----- --- ---- ------- -- ---- --- --<br>------- ------,203322.7000000002,203320.80000000028,202955.9,202955.1000000001,202972.573,203339.38,,25,the
screen,html.Screen,2_1_1_1_26,2022-05-02T10:57:48.244Z,,,,,,,,,,,,,,,,,54,,,,,,,,,,,,,,432.61999999999534,,response,,,,100,,,,,,,Space,keypress(Space),,,,,,,,-- --- ---- --- ------ ----- ------- ---- -- --- ------- --<br>------- ---------- ------ -- ----- -- ----- -- ---- ------<br>--- ----- --- --- bonds' -------- ----- --- ------ ----- --<br>----- ----- ---------- --- --- ------ ------ ---- -- ------<br>------- --- ------ ----- --- ---- ------- -- ---- --- --<br>------- ------,203774.6000000001,203772,203322.707,203322.90000000037,203339.38,203789.545,,26,bonds'
screen,html.Screen,2_1_1_1_27,2022-05-02T10:57:48.663Z,,,,,,,,,,,,,,,,,54,,,,,,,,,,,,,,402.8550000003597,,response,,,,100,,,,,,,Space,keypress(Space),,,,,,,,-- --- ---- --- ------ ----- ------- ---- -- --- ------- --<br>------- ---------- ------ -- ----- -- ----- -- ---- ------<br>--- ----- --- --- ------ interest ----- --- ------ ----- --<br>----- ----- ---------- --- --- ------ ------ ---- -- ------<br>------- --- ------ ----- --- ---- ------- -- ---- --- --<br>------- ------,204194.30000000028,204192.40000000037,203772.872,203774.90000000037,203789.545,204206.37,,27,interest
screen,html.Screen,2_1_1_1_28,2022-05-02T10:57:49.080Z,,,,,,,,,,,,,,,,,54,,,,,,,,,,,,,,401.63000000000466,,response,,,,100,,,,,,,Space,keypress(Space),,,,,,,,-- --- ---- --- ------ ----- ------- ---- -- --- ------- --<br>------- ---------- ------ -- ----- -- ----- -- ---- ------<br>--- ----- --- --- ------ -------- rate. --- ------ ----- --<br>----- ----- ---------- --- --- ------ ------ ---- -- ------<br>------- --- ------ ----- --- ---- ------- -- ---- --- --<br>------- ------,204611,204608,204189.697,204194.5,204206.37,204623.205,,28,rate.
screen,html.Screen,2_1_1_1_29,2022-05-02T10:57:50.818Z,,,,,,,,,,,,,,,,,54,,,,,,,,,,,,,,1724.2950000000128,,response,,,,100,,,,,,,Space,keypress(Space),,,,,,,,-- --- ---- --- ------ ----- ------- ---- -- --- ------- --<br>------- ---------- ------ -- ----- -- ----- -- ---- ------<br>--- ----- --- --- ------ -------- ----- The ------ ----- --<br>----- ----- ---------- --- --- ------ ------ ---- -- ------<br>------- --- ------ ----- --- ---- ------- -- ---- --- --<br>------- ------,206349.40000000037,206347.5,204606.532,204611.2000000002,204623.205,206357.2,,29,The
screen,html.Screen,2_1_1_1_30,2022-05-02T10:57:51.248Z,,,,,,,,,,,,,,,,,54,,,,,,,,,,,,,,419.79999999998836,,response,,,,100,,,,,,,Space,keypress(Space),,,,,,,,-- --- ---- --- ------ ----- ------- ---- -- --- ------- --<br>------- ---------- ------ -- ----- -- ----- -- ---- ------<br>--- ----- --- --- ------ -------- ----- --- market ----- --<br>----- ----- ---------- --- --- ------ ------ ---- -- ------<br>------- --- ------ ----- --- ---- ------- -- ---- --- --<br>------- ------,206778.80000000028,206777,206340.527,206349.7000000002,206357.2,206790.696,,30,market
screen,html.Screen,2_1_1_1_31,2022-05-02T10:57:51.610Z,,,,,,,,,,,,,,,,,54,,,,,,,,,,,,,,348.50400000019,,response,,,,100,,,,,,,Space,keypress(Space),,,,,,,,-- --- ---- --- ------ ----- ------- ---- -- --- ------- --<br>------- ---------- ------ -- ----- -- ----- -- ---- ------<br>--- ----- --- --- ------ -------- ----- --- ------ value --<br>----- ----- ---------- --- --- ------ ------ ---- -- ------<br>------- --- ------ ----- --- ---- ------- -- ---- --- --<br>------- ------,207141.1000000001,207139.2000000002,206774.023,206779.1000000001,206790.696,207157.509,,31,value
screen,html.Screen,2_1_1_1_32,2022-05-02T10:57:52.060Z,,,,,,,,,,,,,,,,,54,,,,,,,,,,,,,,431.0910000001022,,response,,,,100,,,,,,,Space,keypress(Space),,,,,,,,-- --- ---- --- ------ ----- ------- ---- -- --- ------- --<br>------- ---------- ------ -- ----- -- ----- -- ---- ------<br>--- ----- --- --- ------ -------- ----- --- ------ ----- of<br>----- ----- ---------- --- --- ------ ------ ---- -- ------<br>------- --- ------ ----- --- ---- ------- -- ---- --- --<br>------- ------,207590.90000000037,207588.6000000001,207140.836,207141.40000000037,207157.509,207607.682,,32,of
screen,html.Screen,2_1_1_1_33,2022-05-02T10:57:52.487Z,,,,,,,,,,,,,,,,,54,,,,,,,,,,,,,,408.3179999999993,,response,,,,100,,,,,,,Space,keypress(Space),,,,,,,,-- --- ---- --- ------ ----- ------- ---- -- --- ------- --<br>------- ---------- ------ -- ----- -- ----- -- ---- ------<br>--- ----- --- --- ------ -------- ----- --- ------ ----- --<br>these ----- ---------- --- --- ------ ------ ---- -- ------<br>------- --- ------ ----- --- ---- ------- -- ---- --- --<br>------- ------,208017.90000000037,208016,207591.009,207591.1000000001,207607.682,208024.505,,33,these
screen,html.Screen,2_1_1_1_34,2022-05-02T10:57:52.848Z,,,,,,,,,,,,,,,,,54,,,,,,,,,,,,,,352.1950000001816,,response,,,,100,,,,,,,Space,keypress(Space),,,,,,,,-- --- ---- --- ------ ----- ------- ---- -- --- ------- --<br>------- ---------- ------ -- ----- -- ----- -- ---- ------<br>--- ----- --- --- ------ -------- ----- --- ------ ----- --<br>----- bonds ---------- --- --- ------ ------ ---- -- ------<br>------- --- ------ ----- --- ---- ------- -- ---- --- --<br>------- ------,208378.90000000037,208376.7000000002,208007.832,208018.30000000028,208024.505,208391.314,,34,bonds
screen,html.Screen,2_1_1_1_35,2022-05-02T10:57:53.296Z,,,,,,,,,,,,,,,,,54,,,,,,,,,,,,,,433.5860000003595,,response,,,,100,,,,,,,Space,keypress(Space),,,,,,,,"-- --- ---- --- ------ ----- ------- ---- -- --- ------- --<br>------- ---------- ------ -- ----- -- ----- -- ---- ------<br>--- ----- --- --- ------ -------- ----- --- ------ ----- --<br>----- ----- plummeted, --- --- ------ ------ ---- -- ------<br>------- --- ------ ----- --- ---- ------- -- ---- --- --<br>------- ------",208826.7000000002,208824.90000000037,208374.641,208379.2000000002,208391.314,208841.479,,35,"plummeted,"
screen,html.Screen,2_1_1_1_36,2022-05-02T10:57:54.522Z,,,,,,,,,,,,,,,,,54,,,,,,,,,,,,,,1207.3210000002873,,response,,,,100,,,,,,,Space,keypress(Space),,,,,,,,-- --- ---- --- ------ ----- ------- ---- -- --- ------- --<br>------- ---------- ------ -- ----- -- ----- -- ---- ------<br>--- ----- --- --- ------ -------- ----- --- ------ ----- --<br>----- ----- ---------- and --- ------ ------ ---- -- ------<br>------- --- ------ ----- --- ---- ------- -- ---- --- --<br>------- ------,210052.7000000002,210048.80000000028,208824.806,208827,208841.479,210058.608,,36,and
screen,html.Screen,2_1_1_1_37,2022-05-02T10:57:54.916Z,,,,,,,,,,,,,,,,,54,,,,,,,,,,,,,,386.19200000027195,,response,,,,100,,,,,,,Space,keypress(Space),,,,,,,,-- --- ---- --- ------ ----- ------- ---- -- --- ------- --<br>------- ---------- ------ -- ----- -- ----- -- ---- ------<br>--- ----- --- --- ------ -------- ----- --- ------ ----- --<br>----- ----- ---------- --- the ------ ------ ---- -- ------<br>------- --- ------ ----- --- ---- ------- -- ---- --- --<br>------- ------,210446.7000000002,210444.80000000028,210041.935,210053,210058.608,210458.773,,37,the
screen,html.Screen,2_1_1_1_38,2022-05-02T10:57:55.304Z,,,,,,,,,,,,,,,,,54,,,,,,,,,,,,,,373.92700000019977,,response,,,,100,,,,,,,Space,keypress(Space),,,,,,,,-- --- ---- --- ------ ----- ------- ---- -- --- ------- --<br>------- ---------- ------ -- ----- -- ----- -- ---- ------<br>--- ----- --- --- ------ -------- ----- --- ------ ----- --<br>----- ----- ---------- --- --- market ------ ---- -- ------<br>------- --- ------ ----- --- ---- ------- -- ---- --- --<br>------- ------,210835.5,210832.7000000002,210442.1,210446.90000000037,210458.773,210842.242,,38,market
screen,html.Screen,2_1_1_1_39,2022-05-02T10:57:55.635Z,,,,,,,,,,,,,,,,,54,,,,,,,,,,,,,,321.35800000009476,,response,,,,100,,,,,,,Space,keypress(Space),,,,,,,,-- --- ---- --- ------ ----- ------- ---- -- --- ------- --<br>------- ---------- ------ -- ----- -- ----- -- ---- ------<br>--- ----- --- --- ------ -------- ----- --- ------ ----- --<br>----- ----- ---------- --- --- ------ became ---- -- ------<br>------- --- ------ ----- --- ---- ------- -- ---- --- --<br>------- ------,211165.90000000037,211163.6000000001,210825.569,210835.7000000002,210842.242,211175.702,,39,became
screen,html.Screen,2_1_1_1_40,2022-05-02T10:57:56.001Z,,,,,,,,,,,,,,,,,54,,,,,,,,,,,,,,353.8980000001029,,response,,,,100,,,,,,,Space,keypress(Space),,,,,,,,-- --- ---- --- ------ ----- ------- ---- -- --- ------- --<br>------- ---------- ------ -- ----- -- ----- -- ---- ------<br>--- ----- --- --- ------ -------- ----- --- ------ ----- --<br>----- ----- ---------- --- --- ------ ------ wary -- ------<br>------- --- ------ ----- --- ---- ------- -- ---- --- --<br>------- ------,211532.2000000002,211529.6000000001,211159.029,211166.2000000002,211175.702,211542.512,,40,wary
screen,html.Screen,2_1_1_1_41,2022-05-02T10:57:56.355Z,,,,,,,,,,,,,,,,,54,,,,,,,,,,,,,,340.6880000001984,,response,,,,100,,,,,,,Space,keypress(Space),,,,,,,,-- --- ---- --- ------ ----- ------- ---- -- --- ------- --<br>------- ---------- ------ -- ----- -- ----- -- ---- ------<br>--- ----- --- --- ------ -------- ----- --- ------ ----- --<br>----- ----- ---------- --- --- ------ ------ ---- of ------<br>------- --- ------ ----- --- ---- ------- -- ---- --- --<br>------- ------,211886,211883.2000000002,211525.839,211532.40000000037,211542.512,211892.648,,41,of
screen,html.Screen,2_1_1_1_42,2022-05-02T10:57:56.899Z,,,,,,,,,,,,,,,,,54,,,,,,,,,,,,,,535.752000000386,,response,,,,100,,,,,,,Space,keypress(Space),,,,,,,,-- --- ---- --- ------ ----- ------- ---- -- --- ------- --<br>------- ---------- ------ -- ----- -- ----- -- ---- ------<br>--- ----- --- --- ------ -------- ----- --- ------ ----- --<br>----- ----- ---------- --- --- ------ ------ ---- -- French<br>------- --- ------ ----- --- ---- ------- -- ---- --- --<br>------- ------,212430.5,212428.40000000037,211875.975,211886.2000000002,211892.648,212442.863,,42,French
screen,html.Screen,2_1_1_1_43,2022-05-02T10:57:58.949Z,,,,,,,,,,,,,,,,,54,,,,,,,,,,,,,,2035.3370000001742,,response,,,,100,,,,,,,Space,keypress(Space),,,,,,,,-- --- ---- --- ------ ----- ------- ---- -- --- ------- --<br>------- ---------- ------ -- ----- -- ----- -- ---- ------<br>--- ----- --- --- ------ -------- ----- --- ------ ----- --<br>----- ----- ---------- --- --- ------ ------ ---- -- ------<br>credit. --- ------ ----- --- ---- ------- -- ---- --- --<br>------- ------,214480.1000000001,214478.2000000002,212426.19,212430.7000000002,212442.863,214493.644,,43,credit.
screen,html.Screen,2_1_1_1_44,2022-05-02T10:57:59.700Z,,,,,,,,,,,,,,,,,54,,,,,,,,,,,,,,734.8559999999998,,response,,,,100,,,,,,,Space,keypress(Space),,,,,,,,-- --- ---- --- ------ ----- ------- ---- -- --- ------- --<br>------- ---------- ------ -- ----- -- ----- -- ---- ------<br>--- ----- --- --- ------ -------- ----- --- ------ ----- --<br>----- ----- ---------- --- --- ------ ------ ---- -- ------<br>------- The ------ ----- --- ---- ------- -- ---- --- --<br>------- ------,215231,215228.5,214476.971,214480.40000000037,214493.644,215243.936,,44,The
screen,html.Screen,2_1_1_1_45,2022-05-02T10:58:00.223Z,,,,,,,,,,,,,,,,,54,,,,,,,,,,,,,,507.86400000029244,,response,,,,100,,,,,,,Space,keypress(Space),,,,,,,,-- --- ---- --- ------ ----- ------- ---- -- --- ------- --<br>------- ---------- ------ -- ----- -- ----- -- ---- ------<br>--- ----- --- --- ------ -------- ----- --- ------ ----- --<br>----- ----- ---------- --- --- ------ ------ ---- -- ------<br>------- --- French ----- --- ---- ------- -- ---- --- --<br>------- ------,215753.7000000002,215751.80000000028,215227.263,215231.1000000001,215243.936,215760.803,,45,French
screen,html.Screen,2_1_1_1_46,2022-05-02T10:58:00.642Z,,,,,,,,,,,,,,,,,54,,,,,,,,,,,,,,409.99700000026496,,response,,,,100,,,,,,,Space,keypress(Space),,,,,,,,-- --- ---- --- ------ ----- ------- ---- -- --- ------- --<br>------- ---------- ------ -- ----- -- ----- -- ---- ------<br>--- ----- --- --- ------ -------- ----- --- ------ ----- --<br>----- ----- ---------- --- --- ------ ------ ---- -- ------<br>------- --- ------ state --- ---- ------- -- ---- --- --<br>------- ------,216172.7000000002,216170.80000000028,215744.13,215754,215760.803,216177.629,,46,state
screen,html.Screen,2_1_1_1_47,2022-05-02T10:58:00.982Z,,,,,,,,,,,,,,,,,54,,,,,,,,,,,,,,333.37100000001374,,response,,,,100,,,,,,,Space,keypress(Space),,,,,,,,-- --- ---- --- ------ ----- ------- ---- -- --- ------- --<br>------- ---------- ------ -- ----- -- ----- -- ---- ------<br>--- ----- --- --- ------ -------- ----- --- ------ ----- --<br>----- ----- ---------- --- --- ------ ------ ---- -- ------<br>------- --- ------ ----- was ---- ------- -- ---- --- --<br>------- ------,216512.80000000028,216511,216160.956,216172.90000000037,216177.629,216527.754,,47,was
screen,html.Screen,2_1_1_1_48,2022-05-02T10:58:01.377Z,,,,,,,,,,,,,,,,,54,,,,,,,,,,,,,,378.9460000002,,response,,,,100,,,,,,,Space,keypress(Space),,,,,,,,-- --- ---- --- ------ ----- ------- ---- -- --- ------- --<br>------- ---------- ------ -- ----- -- ----- -- ---- ------<br>--- ----- --- --- ------ -------- ----- --- ------ ----- --<br>----- ----- ---------- --- --- ------ ------ ---- -- ------<br>------- --- ------ ----- --- left ------- -- ---- --- --<br>------- ------,216908.40000000037,216906.7000000002,216511.081,216513,216527.754,216911.238,,48,left
screen,html.Screen,2_1_1_1_49,2022-05-02T10:58:01.771Z,,,,,,,,,,,,,,,,,54,,,,,,,,,,,,,,389.362000000081,,response,,,,100,,,,,,,Space,keypress(Space),,,,,,,,-- --- ---- --- ------ ----- ------- ---- -- --- ------- --<br>------- ---------- ------ -- ----- -- ----- -- ---- ------<br>--- ----- --- --- ------ -------- ----- --- ------ ----- --<br>----- ----- ---------- --- --- ------ ------ ---- -- ------<br>------- --- ------ ----- --- ---- without -- ---- --- --<br>------- ------,217302.40000000037,217300.6000000001,216894.565,216908.7000000002,216911.238,217311.387,,49,without
screen,html.Screen,2_1_1_1_50,2022-05-02T10:58:02.080Z,,,,,,,,,,,,,,,,,54,,,,,,,,,,,,,,297.6130000000121,,response,,,,100,,,,,,,Space,keypress(Space),,,,,,,,-- --- ---- --- ------ ----- ------- ---- -- --- ------- --<br>------- ---------- ------ -- ----- -- ----- -- ---- ------<br>--- ----- --- --- ------ -------- ----- --- ------ ----- --<br>----- ----- ---------- --- --- ------ ------ ---- -- ------<br>------- --- ------ ----- --- ---- ------- an ---- --- --<br>------- ------,217610.90000000037,217609,217294.714,217302.7000000002,217311.387,217628.171,,50,an
screen,html.Screen,2_1_1_1_51,2022-05-02T10:58:02.421Z,,,,,,,,,,,,,,,,,54,,,,,,,,,,,,,,320.6290000002773,,response,,,,100,,,,,,,Space,keypress(Space),,,,,,,,-- --- ---- --- ------ ----- ------- ---- -- --- ------- --<br>------- ---------- ------ -- ----- -- ----- -- ---- ------<br>--- ----- --- --- ------ -------- ----- --- ------ ----- --<br>----- ----- ---------- --- --- ------ ------ ---- -- ------<br>------- --- ------ ----- --- ---- ------- -- easy --- --<br>------- ------,217951.80000000028,217948.80000000028,217611.498,217611.1000000001,217628.171,217961.641,,51,easy
screen,html.Screen,2_1_1_1_52,2022-05-02T10:58:02.788Z,,,,,,,,,,,,,,,,,54,,,,,,,,,,,,,,355.4590000000899,,response,,,,100,,,,,,,Space,keypress(Space),,,,,,,,-- --- ---- --- ------ ----- ------- ---- -- --- ------- --<br>------- ---------- ------ -- ----- -- ----- -- ---- ------<br>--- ----- --- --- ------ -------- ----- --- ------ ----- --<br>----- ----- ---------- --- --- ------ ------ ---- -- ------<br>------- --- ------ ----- --- ---- ------- -- ---- way --<br>------- ------,218319.40000000037,218317.1000000001,217944.968,217952,217961.641,218328.451,,52,way
screen,html.Screen,2_1_1_1_53,2022-05-02T10:58:03.214Z,,,,,,,,,,,,,,,,,54,,,,,,,,,,,,,,414.24900000018533,,response,,,,100,,,,,,,Space,keypress(Space),,,,,,,,-- --- ---- --- ------ ----- ------- ---- -- --- ------- --<br>------- ---------- ------ -- ----- -- ----- -- ---- ------<br>--- ----- --- --- ------ -------- ----- --- ------ ----- --<br>----- ----- ---------- --- --- ------ ------ ---- -- ------<br>------- --- ------ ----- --- ---- ------- -- ---- --- of<br>------- ------,218744.7000000002,218742.7000000002,218311.778,218319.6000000001,218328.451,218761.947,,53,of
screen,html.Screen,2_1_1_1_54,2022-05-02T10:58:03.555Z,,,,,,,,,,,,,,,,,54,,,,,,,,,,,,,,321.95300000038696,,response,,,,100,,,,,,,Space,keypress(Space),,,,,,,,-- --- ---- --- ------ ----- ------- ---- -- --- ------- --<br>------- ---------- ------ -- ----- -- ----- -- ---- ------<br>--- ----- --- --- ------ -------- ----- --- ------ ----- --<br>----- ----- ---------- --- --- ------ ------ ---- -- ------<br>------- --- ------ ----- --- ---- ------- -- ---- --- --<br>raising ------,219085.90000000037,219083.90000000037,218745.274,218744.90000000037,218761.947,219095.412,,54,raising
screen,html.Screen,2_1_1_1_55,2022-05-02T10:58:04.357Z,,,,,,,,,,,,,,,,,54,,,,,,,,,,,,,,790.688000000082,,response,,,,100,,,,,,,Space,keypress(Space),,,,,,,,-- --- ---- --- ------ ----- ------- ---- -- --- ------- --<br>------- ---------- ------ -- ----- -- ----- -- ---- ------<br>--- ----- --- --- ------ -------- ----- --- ------ ----- --<br>----- ----- ---------- --- --- ------ ------ ---- -- ------<br>------- --- ------ ----- --- ---- ------- -- ---- --- --<br>------- money.,219888.5,219886.1000000001,219078.739,219086.1000000001,219095.412,219895.713,,55,money.
Item 100,flow.Loop,2_1_1_1,2022-05-02T10:58:04.358Z,,,,,,,,,,,,,,,,,,,,,,,,,,,,,,,33019.68700000009,,completion,,,,,E,,,,,,,,,,,silence,,,,,219889,219886.1000000001,186849.74,186851.30000000028,186866.413,219895.713,,,
Question 1,html.Screen,2_1_1_2,2022-05-02T10:58:06.721Z,,,,,,,,,,,,,,,,,,,,,,,,,,,,true,TRUE,,2351.8870000001043,,response,,,,100,E,,,,,,TRUE,click #choice-1,,,,silence,,,,,222252.5,222247.6000000001,219879.04,219889.1000000001,219895.713,222263.288,,,
Question 2,html.Screen,2_1_1_3,2022-05-02T10:58:09.444Z,,,,,,,,,,,,,,,,,,,,,,,,,,,,true,FALSE,,2707.612000000372,,response,,,,100,E,,,,,,FALSE,click #choice-2,,,,silence,,,,,224974.90000000037,224970.90000000037,222246.615,222252.7000000002,222263.288,224980.994,,,
Item 100,flow.Sequence,2_1_1,2022-05-02T10:58:09.444Z,,,,,,,,,,,,,,,,,,,,,,,,,,,,,,,48108.32400000037,,completion,,,,,,,,,,,,,,,,,,,,,224975.30000000028,224970.90000000037,176845.903,176848.40000000037,176862.576,224980.994,,,
End of Practice,html.Page,2_1_2,2022-05-02T10:58:15.735Z,,,,,,,,,,,,,,,,,,,,,,,,,,,,,,,6285.005999999994,,form submission,,,,,,,,,,,,,,,,,,,,,231266.5,231266,224964.321,224975.5,224980.994,231266.729,,,
Practice,flow.Sequence,2_1,2022-05-02T10:58:15.736Z,,,,,,,,,,,,,,,,,,,,,,,,,,,,,,,108374.06,,completion,,,,,,,,,,,,,,,,,,,,,231266.90000000037,231266,122875.267,122886.80000000028,122891.94,231266.729,,,
Trap_instruction,html.Page,2_2_0,2022-05-02T10:58:21.203Z,,,,,,,,,,,,,,,,,,,,,,,,,,,,,,,5466.571000000287,,form submission,,,,,,,,,,,,,,,,,,,,,236733.80000000028,236733.30000000028,231250.056,231267.30000000028,231266.729,236785.506,,,
trap_trial,html.Screen,2_2_1,2022-05-02T10:58:24.943Z,,,,,,,,,,,,,,,,,,,,,,,,,,,,true,1,,3684.994000000006,,response,,,,,,,,,,,1,click #choice-1,,,,,,,,,240474.40000000037,240470.5,236718.814,236734.1000000001,236785.506,240486.917,,,
end of trap trial,html.Page,2_2_2,2022-05-02T10:58:27.913Z,,,,,,,,,,,,,,,,,,,,,,,,,,,,,,,2956.5830000000133,,form submission,,,,,,,,,,,,,,,,,,,,,243444.1000000001,243443.5,240470.244,240474.6000000001,240486.917,243454.724,,,
Trap 1,flow.Sequence,2_2,2022-05-02T10:58:27.913Z,,,,,,,,,,,,,,,,,,,,,,,,,,,,,,,12176.771000000008,,completion,,,,,,,,,,,,,,,,,,,,,243444.30000000028,243443.5,231250.056,231267.2000000002,231266.729,243454.724,,,
Standby,html.Page,2_3_0,2022-05-02T10:58:35.911Z,,,,,,,,,,,,,,,,,,,,,,,,,,,,,,,8003.037000000011,,timeout,,,,,,,,,,,,,,,,,,,,,251442.40000000037,251441.088,243438.051,243444.6000000001,243454.724,251457.761,,,
Holding screen,html.Screen,2_3_1_0_0,2022-05-02T10:58:42.914Z,,,,,,,,,,,,,,,,,,,,,,,,,,,,,,,7002.698999999993,,timeout,,,,,,,,,,,,,,,,,,,,,258445.1000000001,258443.787,251441.088,251442.90000000037,251457.761,258460.46,,,
screen,html.Screen,2_3_1_0_1_0,2022-05-02T10:58:44.169Z,,,,,,,,,,,,,,,,,12,,,,,,,,,,,,,,1235.3400000002875,,response,,,,5,E,,,,,,Space,keypress(Space),,,,silence,,,,Some ------ ------ ------- ------ --- ------- -----------<br>-- ----- --- ---- -- --- ------ ---- - ---- -- ----------<br>-- ------ ---- --- ---- --- --- --- ----- -- -------- ---<br>------ ------- -------- --- ---- -- ------- ------------ --<br>------ -- ---- -- --- ---- -- -------- -- --- ------ ------,259699.6000000001,259695.80000000028,258443.787,258445.5,258460.46,259710.941,,0,Some
screen,html.Screen,2_3_1_0_1_1,2022-05-02T10:58:44.613Z,,,,,,,,,,,,,,,,,12,,,,,,,,,,,,,,430.6590000001015,,response,,,,5,E,,,,,,Space,keypress(Space),,,,silence,,,,---- months ------ ------- ------ --- ------- -----------<br>-- ----- --- ---- -- --- ------ ---- - ---- -- ----------<br>-- ------ ---- --- ---- --- --- --- ----- -- -------- ---<br>------ ------- -------- --- ---- -- ------- ------------ --<br>------ -- ---- -- --- ---- -- -------- -- --- ------ ------,260143.6000000001,260141.6000000001,259694.268,259699.90000000037,259710.941,260161.109,,1,months
screen,html.Screen,2_3_1_0_1_2,2022-05-02T10:58:45.100Z,,,,,,,,,,,,,,,,,12,,,,,,,,,,,,,,467.9910000000964,,response,,,,5,E,,,,,,Space,keypress(Space),,,,silence,,,,"---- ------ later, ------- ------ --- ------- -----------<br>-- ----- --- ---- -- --- ------ ---- - ---- -- ----------<br>-- ------ ---- --- ---- --- --- --- ----- -- -------- ---<br>------ ------- -------- --- ---- -- ------- ------------ --<br>------ -- ---- -- --- ---- -- -------- -- --- ------ ------",260631,260629.1000000001,260144.436,260143.90000000037,260161.109,260644.634,,2,"later,"
screen,html.Screen,2_3_1_0_1_3,2022-05-02T10:58:46.572Z,,,,,,,,,,,,,,,,,12,,,,,,,,,,,,,,1456.6660000002885,,response,,,,5,E,,,,,,Space,keypress(Space),,,,silence,,,,---- ------ ------ Michael ------ --- ------- -----------<br>-- ----- --- ---- -- --- ------ ---- - ---- -- ----------<br>-- ------ ---- --- ---- --- --- --- ----- -- -------- ---<br>------ ------- -------- --- ---- -- ------- ------------ --<br>------ -- ---- -- --- ---- -- -------- -- --- ------ ------,262103.40000000037,262101.30000000028,260627.961,260631.30000000028,260644.634,262111.86,,3,Michael
screen,html.Screen,2_3_1_0_1_4,2022-05-02T10:58:47.062Z,,,,,,,,,,,,,,,,,12,,,,,,,,,,,,,,478.64000000001397,,response,,,,5,E,,,,,,Space,keypress(Space),,,,silence,,,,---- ------ ------ ------- Larson --- ------- -----------<br>-- ----- --- ---- -- --- ------ ---- - ---- -- ----------<br>-- ------ ---- --- ---- --- --- --- ----- -- -------- ---<br>------ ------- -------- --- ---- -- ------- ------------ --<br>------ -- ---- -- --- ---- -- -------- -- --- ------ ------,262592.6000000001,262590.5,262095.187,262103.7000000002,262111.86,262595.376,,4,Larson
screen,html.Screen,2_3_1_0_1_5,2022-05-02T10:58:47.678Z,,,,,,,,,,,,,,,,,12,,,,,,,,,,,,,,611.1240000000107,,response,,,,5,E,,,,,,Space,keypress(Space),,,,silence,,,,---- ------ ------ ------- ------ saw ------- -----------<br>-- ----- --- ---- -- --- ------ ---- - ---- -- ----------<br>-- ------ ---- --- ---- --- --- --- ----- -- -------- ---<br>------ ------- -------- --- ---- -- ------- ------------ --<br>------ -- ---- -- --- ---- -- -------- -- --- ------ ------,263208.8000000003,263206.5,262578.703,262592.8000000003,262595.376,263212.278,,5,saw
screen,html.Screen,2_3_1_0_1_6,2022-05-02T10:58:48.197Z,,,,,,,,,,,,,,,,,12,,,,,,,,,,,,,,514.0220000002882,,response,,,,5,E,,,,,,Space,keypress(Space),,,,silence,,,,---- ------ ------ ------- ------ --- another -----------<br>-- ----- --- ---- -- --- ------ ---- - ---- -- ----------<br>-- ------ ---- --- ---- --- --- --- ----- -- -------- ---<br>------ ------- -------- --- ---- -- ------- ------------ --<br>------ -- ---- -- --- ---- -- -------- -- --- ------ ------,263728.3000000003,263726.3000000003,263195.605,263209.1000000001,263212.278,263745.822,,6,another
screen,html.Screen,2_3_1_0_1_7,2022-05-02T10:58:48.793Z,,,,,,,,,,,,,,,,,12,,,,,,,,,,,,,,575.9780000002938,,response,,,,5,E,,,,,,Space,keypress(Space),,,,silence,,,,---- ------ ------ ------- ------ --- ------- opportunity<br>-- ----- --- ---- -- --- ------ ---- - ---- -- ----------<br>-- ------ ---- --- ---- --- --- --- ----- -- -------- ---<br>------ ------- -------- --- ---- -- ------- ------------ --<br>------ -- ---- -- --- ---- -- -------- -- --- ------ ------,264323.6000000001,264321.8000000003,263729.149,263728.4000000004,263745.822,264329.369,,7,opportunity
screen,html.Screen,2_3_1_0_1_8,2022-05-02T10:58:49.226Z,,,,,,,,,,,,,,,,,12,,,,,,,,,,,,,,425.0310000003665,,response,,,,5,E,,,,,,Space,keypress(Space),,,,silence,,,,---- ------ ------ ------- ------ --- ------- -----------<br>to ----- --- ---- -- --- ------ ---- - ---- -- ----------<br>-- ------ ---- --- ---- --- --- --- ----- -- -------- ---<br>------ ------- -------- --- ---- -- ------- ------------ --<br>------ -- ---- -- --- ---- -- -------- -- --- ------ ------,264756.9000000004,264754.4000000004,264312.696,264323.8000000003,264329.369,264762.88,,8,to
screen,html.Screen,2_3_1_0_1_9,2022-05-02T10:58:49.894Z,,,,,,,,,,,,,,,,,12,,,,,,,,,,,,,,659.9200000002747,,response,,,,5,E,,,,,,Space,keypress(Space),,,,silence,,,,---- ------ ------ ------- ------ --- ------- -----------<br>-- stack --- ---- -- --- ------ ---- - ---- -- ----------<br>-- ------ ---- --- ---- --- --- --- ----- -- -------- ---<br>------ ------- -------- --- ---- -- ------- ------------ --<br>------ -- ---- -- --- ---- -- -------- -- --- ------ ------,265424.8000000003,265422.8000000003,264746.207,264757.1000000001,264762.88,265429.797,,9,stack
screen,html.Screen,2_3_1_0_1_10,2022-05-02T10:58:50.379Z,,,,,,,,,,,,,,,,,12,,,,,,,,,,,,,,477.80300000007264,,response,,,,5,E,,,,,,Space,keypress(Space),,,,silence,,,,---- ------ ------ ------- ------ --- ------- -----------<br>-- ----- the ---- -- --- ------ ---- - ---- -- ----------<br>-- ------ ---- --- ---- --- --- --- ----- -- -------- ---<br>------ ------- -------- --- ---- -- ------- ------------ --<br>------ -- ---- -- --- ---- -- -------- -- --- ------ ------,265909.7000000002,265907.6000000001,265413.124,265425.1000000001,265429.797,265913.316,,10,the
screen,html.Screen,2_3_1_0_1_11,2022-05-02T10:58:50.812Z,,,,,,,,,,,,,,,,,12,,,,,,,,,,,,,,427.38400000019465,,response,,,,5,E,,,,,,Space,keypress(Space),,,,silence,,,,---- ------ ------ ------- ------ --- ------- -----------<br>-- ----- --- odds -- --- ------ ---- - ---- -- ----------<br>-- ------ ---- --- ---- --- --- --- ----- -- -------- ---<br>------ ------- -------- --- ---- -- ------- ------------ --<br>------ -- ---- -- --- ---- -- -------- -- --- ------ ------,266342.6000000001,266340.7000000002,265896.643,265910,265913.316,266346.82,,11,odds
screen,html.Screen,2_3_1_0_1_12,2022-05-02T10:58:51.208Z,,,,,,,,,,,,,,,,,12,,,,,,,,,,,,,,389.9800000002724,,response,,,,5,E,,,,,,Space,keypress(Space),,,,silence,,,,---- ------ ------ ------- ------ --- ------- -----------<br>-- ----- --- ---- in --- ------ ---- - ---- -- ----------<br>-- ------ ---- --- ---- --- --- --- ----- -- -------- ---<br>------ ------- -------- --- ---- -- ------- ------------ --<br>------ -- ---- -- --- ---- -- -------- -- --- ------ ------,266739.1000000001,266736.8000000003,266330.147,266342.9000000004,266346.82,266746.968,,12,in
screen,html.Screen,2_3_1_0_1_13,2022-05-02T10:58:51.549Z,,,,,,,,,,,,,,,,,12,,,,,,,,,,,,,,331.3320000002859,,response,,,,5,E,,,,,,Space,keypress(Space),,,,silence,,,,---- ------ ------ ------- ------ --- ------- -----------<br>-- ----- --- ---- -- his ------ ---- - ---- -- ----------<br>-- ------ ---- --- ---- --- --- --- ----- -- -------- ---<br>------ ------- -------- --- ---- -- ------- ------------ --<br>------ -- ---- -- --- ---- -- -------- -- --- ------ ------,267080.2000000002,267078.3000000003,266730.295,266739.4000000004,266746.968,267097.102,,13,his
screen,html.Screen,2_3_1_0_1_14,2022-05-02T10:58:52.421Z,,,,,,,,,,,,,,,,,12,,,,,,,,,,,,,,852.3979999999865,,response,,,,5,E,,,,,,Space,keypress(Space),,,,silence,,,,---- ------ ------ ------- ------ --- ------- -----------<br>-- ----- --- ---- -- --- favour ---- - ---- -- ----------<br>-- ------ ---- --- ---- --- --- --- ----- -- -------- ---<br>------ ------- -------- --- ---- -- ------- ------------ --<br>------ -- ---- -- --- ---- -- -------- -- --- ------ ------,267951.8000000003,267949.5,267080.429,267080.4000000004,267097.102,267964.096,,14,favour
screen,html.Screen,2_3_1_0_1_15,2022-05-02T10:58:52.894Z,,,,,,,,,,,,,,,,,12,,,,,,,,,,,,,,459.40399999998044,,response,,,,5,E,,,,,,Space,keypress(Space),,,,silence,,,,---- ------ ------ ------- ------ --- ------- -----------<br>-- ----- --- ---- -- --- ------ with - ---- -- ----------<br>-- ------ ---- --- ---- --- --- --- ----- -- -------- ---<br>------ ------- -------- --- ---- -- ------- ------------ --<br>------ -- ---- -- --- ---- -- -------- -- --- ------ ------,268425.5,268423.5,267947.423,267952,267964.096,268430.945,,15,with
screen,html.Screen,2_3_1_0_1_16,2022-05-02T10:58:53.193Z,,,,,,,,,,,,,,,,,12,,,,,,,,,,,,,,290.45500000036554,,response,,,,5,E,,,,,,Space,keypress(Space),,,,silence,,,,---- ------ ------ ------- ------ --- ------- -----------<br>-- ----- --- ---- -- --- ------ ---- a ---- -- ----------<br>-- ------ ---- --- ---- --- --- --- ----- -- -------- ---<br>------ ------- -------- --- ---- -- ------- ------------ --<br>------ -- ---- -- --- ---- -- -------- -- --- ------ ------,268723.8000000003,268721.4000000004,268414.272,268425.8000000003,268430.945,268731.056,,16,a
screen,html.Screen,2_3_1_0_1_17,2022-05-02T10:58:53.682Z,,,,,,,,,,,,,,,,,12,,,,,,,,,,,,,,479.64400000020396,,response,,,,5,E,,,,,,Space,keypress(Space),,,,silence,,,,---- ------ ------ ------- ------ --- ------- -----------<br>-- ----- --- ---- -- --- ------ ---- - dash -- ----------<br>-- ------ ---- --- ---- --- --- --- ----- -- -------- ---<br>------ ------- -------- --- ---- -- ------- ------------ --<br>------ -- ---- -- --- ---- -- -------- -- --- ------ ------,269213.2000000002,269210.7000000002,268714.383,268724,268731.056,269214.573,,17,dash
screen,html.Screen,2_3_1_0_1_18,2022-05-02T10:58:54.186Z,,,,,,,,,,,,,,,,,12,,,,,,,,,,,,,,499.0270000001183,,response,,,,5,E,,,,,,Space,keypress(Space),,,,silence,,,,---- ------ ------ ------- ------ --- ------- -----------<br>-- ----- --- ---- -- --- ------ ---- - ---- of ----------<br>-- ------ ---- --- ---- --- --- --- ----- -- -------- ---<br>------ ------- -------- --- ---- -- ------- ------------ --<br>------ -- ---- -- --- ---- -- -------- -- --- ------ ------,269717.3000000003,269713.6000000001,269197.9,269213.4000000004,269214.573,269731.447,,18,of
screen,html.Screen,2_3_1_0_1_19,2022-05-02T10:58:56.287Z,,,,,,,,,,,,,,,,,12,,,,,,,,,,,,,,2083.2530000002007,,response,,,,5,E,,,,,,Space,keypress(Space),,,,silence,,,,---- ------ ------ ------- ------ --- ------- -----------<br>-- ----- --- ---- -- --- ------ ---- - ---- -- ingenuity.<br>-- ------ ---- --- ---- --- --- --- ----- -- -------- ---<br>------ ------- -------- --- ---- -- ------- ------------ --<br>------ -- ---- -- --- ---- -- -------- -- --- ------ ------,271817.8000000003,271814.7000000002,269714.774,269717.5,269731.447,271832.245,,19,ingenuity.
screen,html.Screen,2_3_1_0_1_20,2022-05-02T10:58:56.602Z,,,,,,,,,,,,,,,,,12,,,,,,,,,,,,,,298.55500000028405,,response,,,,5,E,,,,,,Space,keypress(Space),,,,silence,,,,---- ------ ------ ------- ------ --- ------- -----------<br>-- ----- --- ---- -- --- ------ ---- - ---- -- ----------<br>He ------ ---- --- ---- --- --- --- ----- -- -------- ---<br>------ ------- -------- --- ---- -- ------- ------------ --<br>------ -- ---- -- --- ---- -- -------- -- --- ------ ------,272133.2000000002,272130.8000000003,271815.572,271818.1000000001,271832.245,272149.032,,20,He
screen,html.Screen,2_3_1_0_1_21,2022-05-02T10:58:56.763Z,,,,,,,,,,,,,,,,,12,,,,,,,,,,,,,,142.96799999999348,,response,,,,5,E,,,,,,Space,keypress(Space),,,,silence,,,,---- ------ ------ ------- ------ --- ------- -----------<br>-- ----- --- ---- -- --- ------ ---- - ---- -- ----------<br>-- walked ---- --- ---- --- --- --- ----- -- -------- ---<br>------ ------- -------- --- ---- -- ------- ------------ --<br>------ -- ---- -- --- ---- -- -------- -- --- ------ ------,272294.3000000003,272292,272132.359,272133.5,272149.032,272299.086,,21,walked
screen,html.Screen,2_3_1_0_1_22,2022-05-02T10:58:57.228Z,,,,,,,,,,,,,,,,,12,,,,,,,,,,,,,,457.5140000000829,,response,,,,5,E,,,,,,Space,keypress(Space),,,,silence,,,,---- ------ ------ ------- ------ --- ------- -----------<br>-- ----- --- ---- -- --- ------ ---- - ---- -- ----------<br>-- ------ into --- ---- --- --- --- ----- -- -------- ---<br>------ ------- -------- --- ---- -- ------- ------------ --<br>------ -- ---- -- --- ---- -- -------- -- --- ------ ------,272758.7000000002,272756.6000000001,272282.413,272294.5,272299.086,272765.94,,22,into
screen,html.Screen,2_3_1_0_1_23,2022-05-02T10:58:57.554Z,,,,,,,,,,,,,,,,,12,,,,,,,,,,,,,,316.76000000018394,,response,,,,5,E,,,,,,Space,keypress(Space),,,,silence,,,,---- ------ ------ ------- ------ --- ------- -----------<br>-- ----- --- ---- -- --- ------ ---- - ---- -- ----------<br>-- ------ ---- his ---- --- --- --- ----- -- -------- ---<br>------ ------- -------- --- ---- -- ------- ------------ --<br>------ -- ---- -- --- ---- -- -------- -- --- ------ ------,273084.6000000001,273082.7000000002,272749.267,272758.9000000004,272765.94,273099.393,,23,his
screen,html.Screen,2_3_1_0_1_24,2022-05-02T10:58:57.853Z,,,,,,,,,,,,,,,,,12,,,,,,,,,,,,,,282.8070000002044,,response,,,,5,E,,,,,,Space,keypress(Space),,,,silence,,,,---- ------ ------ ------- ------ --- ------- -----------<br>-- ----- --- ---- -- --- ------ ---- - ---- -- ----------<br>-- ------ ---- --- bank --- --- --- ----- -- -------- ---<br>------ ------- -------- --- ---- -- ------- ------------ --<br>------ -- ---- -- --- ---- -- -------- -- --- ------ ------,273384.3000000003,273382.2000000002,273082.72,273084.8000000003,273099.393,273399.513,,24,bank
screen,html.Screen,2_3_1_0_1_25,2022-05-02T10:58:58.203Z,,,,,,,,,,,,,,,,,12,,,,,,,,,,,,,,332.7870000003022,,response,,,,5,E,,,,,,Space,keypress(Space),,,,silence,,,,---- ------ ------ ------- ------ --- ------- -----------<br>-- ----- --- ---- -- --- ------ ---- - ---- -- ----------<br>-- ------ ---- --- ---- one --- --- ----- -- -------- ---<br>------ ------- -------- --- ---- -- ------- ------------ --<br>------ -- ---- -- --- ---- -- -------- -- --- ------ ------,273734.4000000004,273732.3000000003,273382.84,273384.4000000004,273399.513,273749.653,,25,one
screen,html.Screen,2_3_1_0_1_26,2022-05-02T10:58:58.467Z,,,,,,,,,,,,,,,,,12,,,,,,,,,,,,,,246.0470000001951,,response,,,,5,E,,,,,,Space,keypress(Space),,,,silence,,,,---- ------ ------ ------- ------ --- ------- -----------<br>-- ----- --- ---- -- --- ------ ---- - ---- -- ----------<br>-- ------ ---- --- ---- --- day --- ----- -- -------- ---<br>------ ------- -------- --- ---- -- ------- ------------ --<br>------ -- ---- -- --- ---- -- -------- -- --- ------ ------,273997.9000000004,273995.7000000002,273732.98,273734.7000000002,273749.653,273999.741,,26,day
screen,html.Screen,2_3_1_0_1_27,2022-05-02T10:58:58.883Z,,,,,,,,,,,,,,,,,12,,,,,,,,,,,,,,411.75900000002,,response,,,,5,E,,,,,,Space,keypress(Space),,,,silence,,,,---- ------ ------ ------- ------ --- ------- -----------<br>-- ----- --- ---- -- --- ------ ---- - ---- -- ----------<br>-- ------ ---- --- ---- --- --- and ----- -- -------- ---<br>------ ------- -------- --- ---- -- ------- ------------ --<br>------ -- ---- -- --- ---- -- -------- -- --- ------ ------,274414.2000000002,274411.5,273983.068,273998,273999.741,274416.572,,27,and
screen,html.Screen,2_3_1_0_1_28,2022-05-02T10:58:59.354Z,,,,,,,,,,,,,,,,,12,,,,,,,,,,,,,,466.1280000002007,,response,,,,5,E,,,,,,Space,keypress(Space),,,,silence,,,,---- ------ ------ ------- ------ --- ------- -----------<br>-- ----- --- ---- -- --- ------ ---- - ---- -- ----------<br>-- ------ ---- --- ---- --- --- --- asked -- -------- ---<br>------ ------- -------- --- ---- -- ------- ------------ --<br>------ -- ---- -- --- ---- -- -------- -- --- ------ ------,274885.3000000003,274882.7000000002,274399.899,274414.4000000004,274416.572,274900.084,,28,asked
screen,html.Screen,2_3_1_0_1_29,2022-05-02T10:58:59.508Z,,,,,,,,,,,,,,,,,12,,,,,,,,,,,,,,136.21600000030594,,response,,,,5,E,,,,,,Space,keypress(Space),,,,silence,,,,---- ------ ------ ------- ------ --- ------- -----------<br>-- ----- --- ---- -- --- ------ ---- - ---- -- ----------<br>-- ------ ---- --- ---- --- --- --- ----- to -------- ---<br>------ ------- -------- --- ---- -- ------- ------------ --<br>------ -- ---- -- --- ---- -- -------- -- --- ------ ------,275038.8000000003,275036.3000000003,274883.411,274885.6000000001,274900.084,275050.139,,29,to
screen,html.Screen,2_3_1_0_1_30,2022-05-02T10:58:59.632Z,,,,,,,,,,,,,,,,,12,,,,,,,,,,,,,,110.16100000025472,,response,,,,5,E,,,,,,Space,keypress(Space),,,,silence,,,,---- ------ ------ ------- ------ --- ------- -----------<br>-- ----- --- ---- -- --- ------ ---- - ---- -- ----------<br>-- ------ ---- --- ---- --- --- --- ----- -- withdraw ---<br>------ ------- -------- --- ---- -- ------- ------------ --<br>------ -- ---- -- --- ---- -- -------- -- --- ------ ------,275163,275160.3000000003,275033.466,275039.1000000001,275050.139,275166.857,,30,withdraw
screen,html.Screen,2_3_1_0_1_31,2022-05-02T10:59:00.274Z,,,,,,,,,,,,,,,,,12,,,,,,,,,,,,,,635.743000000075,,response,,,,5,E,,,,,,Space,keypress(Space),,,,silence,,,,---- ------ ------ ------- ------ --- ------- -----------<br>-- ----- --- ---- -- --- ------ ---- - ---- -- ----------<br>-- ------ ---- --- ---- --- --- --- ----- -- -------- his<br>------ ------- -------- --- ---- -- ------- ------------ --<br>------ -- ---- -- --- ---- -- -------- -- --- ------ ------,275805.2000000002,275802.6000000001,275150.184,275163.2000000002,275166.857,275817.1,,31,his
screen,html.Screen,2_3_1_0_1_32,2022-05-02T10:59:00.877Z,,,,,,,,,,,,,,,,,12,,,,,,,,,,,,,,588.8000000003958,,response,,,,5,E,,,,,,Space,keypress(Space),,,,silence,,,,---- ------ ------ ------- ------ --- ------- -----------<br>-- ----- --- ---- -- --- ------ ---- - ---- -- ----------<br>-- ------ ---- --- ---- --- --- --- ----- -- -------- ---<br>entire ------- -------- --- ---- -- ------- ------------ --<br>------ -- ---- -- --- ---- -- -------- -- --- ------ ------,276408.3000000003,276405.9000000004,275800.427,275805.5,275817.1,276417.335,,32,entire
screen,html.Screen,2_3_1_0_1_33,2022-05-02T10:59:01.238Z,,,,,,,,,,,,,,,,,12,,,,,,,,,,,,,,349.66499999997905,,response,,,,5,E,,,,,,Space,keypress(Space),,,,silence,,,,---- ------ ------ ------- ------ --- ------- -----------<br>-- ----- --- ---- -- --- ------ ---- - ---- -- ----------<br>-- ------ ---- --- ---- --- --- --- ----- -- -------- ---<br>------ account -------- --- ---- -- ------- ------------ --<br>------ -- ---- -- --- ---- -- -------- -- --- ------ ------,276769.2000000002,276767,276400.662,276408.6000000001,276417.335,276784.146,,33,account
screen,html.Screen,2_3_1_0_1_34,2022-05-02T10:59:01.386Z,,,,,,,,,,,,,,,,,12,,,,,,,,,,,,,,130.65400000027148,,response,,,,5,E,,,,,,Space,keypress(Space),,,,silence,,,,"---- ------ ------ ------- ------ --- ------- -----------<br>-- ----- --- ---- -- --- ------ ---- - ---- -- ----------<br>-- ------ ---- --- ---- --- --- --- ----- -- -------- ---<br>------ ------- balance, --- ---- -- ------- ------------ --<br>------ -- ---- -- --- ---- -- -------- -- --- ------ ------",276916.9000000004,276914.8000000003,276767.473,276769.6000000001,276784.146,276934.195,,34,"balance,"
screen,html.Screen,2_3_1_0_1_35,2022-05-02T10:59:02.117Z,,,,,,,,,,,,,,,,,12,,,,,,,,,,,,,,711.5050000001793,,response,,,,5,E,,,,,,Space,keypress(Space),,,,silence,,,,---- ------ ------ ------- ------ --- ------- -----------<br>-- ----- --- ---- -- --- ------ ---- - ---- -- ----------<br>-- ------ ---- --- ---- --- --- --- ----- -- -------- ---<br>------ ------- -------- but ---- -- ------- ------------ --<br>------ -- ---- -- --- ---- -- -------- -- --- ------ ------,277647.6000000001,277645.7000000002,276917.522,276917.1000000001,276934.195,277651.133,,35,but
screen,html.Screen,2_3_1_0_1_36,2022-05-02T10:59:02.428Z,,,,,,,,,,,,,,,,,12,,,,,,,,,,,,,,305.9670000001206,,response,,,,5,E,,,,,,Space,keypress(Space),,,,silence,,,,---- ------ ------ ------- ------ --- ------- -----------<br>-- ----- --- ---- -- --- ------ ---- - ---- -- ----------<br>-- ------ ---- --- ---- --- --- --- ----- -- -------- ---<br>------ ------- -------- --- with -- ------- ------------ --<br>------ -- ---- -- --- ---- -- -------- -- --- ------ ------,277959.4000000004,277957.1000000001,277634.46,277647.9000000004,277651.133,277967.929,,36,with
screen,html.Screen,2_3_1_0_1_37,2022-05-02T10:59:02.602Z,,,,,,,,,,,,,,,,,12,,,,,,,,,,,,,,162.37100000027567,,response,,,,5,E,,,,,,Space,keypress(Space),,,,silence,,,,---- ------ ------ ------- ------ --- ------- -----------<br>-- ----- --- ---- -- --- ------ ---- - ---- -- ----------<br>-- ------ ---- --- ---- --- --- --- ----- -- -------- ---<br>------ ------- -------- --- ---- an ------- ------------ --<br>------ -- ---- -- --- ---- -- -------- -- --- ------ ------,278132.9000000004,278130.3000000003,277951.256,277959.7000000002,277967.929,278134.652,,37,an
screen,html.Screen,2_3_1_0_1_38,2022-05-02T10:59:02.739Z,,,,,,,,,,,,,,,,,12,,,,,,,,,,,,,,133.34799999999814,,response,,,,5,E,,,,,,Space,keypress(Space),,,,silence,,,,---- ------ ------ ------- ------ --- ------- -----------<br>-- ----- --- ---- -- --- ------ ---- - ---- -- ----------<br>-- ------ ---- --- ---- --- --- --- ----- -- -------- ---<br>------ ------- -------- --- ---- -- unusual ------------ --<br>------ -- ---- -- --- ---- -- -------- -- --- ------ ------,278270.6000000001,278268,278117.979,278133.1000000001,278134.652,278284.71,,38,unusual
screen,html.Screen,2_3_1_0_1_39,2022-05-02T10:59:04.328Z,,,,,,,,,,,,,,,,,12,,,,,,,,,,,,,,1570.0900000002584,,response,,,,5,E,,,,,,Space,keypress(Space),,,,silence,,,,---- ------ ------ ------- ------ --- ------- -----------<br>-- ----- --- ---- -- --- ------ ---- - ---- -- ----------<br>-- ------ ---- --- ---- --- --- --- ----- -- -------- ---<br>------ ------- -------- --- ---- -- ------- stipulation: --<br>------ -- ---- -- --- ---- -- -------- -- --- ------ ------,279858.7000000002,279854.8000000003,278268.037,278270.8000000003,278284.71,279868.645,,39,stipulation:
screen,html.Screen,2_3_1_0_1_40,2022-05-02T10:59:04.735Z,,,,,,,,,,,,,,,,,12,,,,,,,,,,,,,,394.7550000003539,,response,,,,5,E,,,,,,Space,keypress(Space),,,,silence,,,,---- ------ ------ ------- ------ --- ------- -----------<br>-- ----- --- ---- -- --- ------ ---- - ---- -- ----------<br>-- ------ ---- --- ---- --- --- --- ----- -- -------- ---<br>------ ------- -------- --- ---- -- ------- ------------ He<br>------ -- ---- -- --- ---- -- -------- -- --- ------ ------,280266.6000000001,280263.4000000004,279851.972,279858.8000000003,279868.645,280268.809,,40,He
screen,html.Screen,2_3_1_0_1_41,2022-05-02T10:59:05.205Z,,,,,,,,,,,,,,,,,12,,,,,,,,,,,,,,465.29100000008475,,response,,,,5,E,,,,,,Space,keypress(Space),,,,silence,,,,---- ------ ------ ------- ------ --- ------- -----------<br>-- ----- --- ---- -- --- ------ ---- - ---- -- ----------<br>-- ------ ---- --- ---- --- --- --- ----- -- -------- ---<br>------ ------- -------- --- ---- -- ------- ------------ --<br>wanted -- ---- -- --- ---- -- -------- -- --- ------ ------,280736.5,280734.1000000001,280252.136,280266.8000000003,280268.809,280752.32,,41,wanted
screen,html.Screen,2_3_1_0_1_42,2022-05-02T10:59:05.585Z,,,,,,,,,,,,,,,,,12,,,,,,,,,,,,,,360.8800000001793,,response,,,,5,E,,,,,,Space,keypress(Space),,,,silence,,,,---- ------ ------ ------- ------ --- ------- -----------<br>-- ----- --- ---- -- --- ------ ---- - ---- -- ----------<br>-- ------ ---- --- ---- --- --- --- ----- -- -------- ---<br>------ ------- -------- --- ---- -- ------- ------------ --<br>------ as ---- -- --- ---- -- -------- -- --- ------ ------,281115.8000000003,281113.2000000002,280735.647,280736.8000000003,280752.32,281119.132,,42,as
screen,html.Screen,2_3_1_0_1_43,2022-05-02T10:59:05.935Z,,,,,,,,,,,,,,,,,12,,,,,,,,,,,,,,344.4680000001099,,response,,,,5,E,,,,,,Space,keypress(Space),,,,silence,,,,---- ------ ------ ------- ------ --- ------- -----------<br>-- ----- --- ---- -- --- ------ ---- - ---- -- ----------<br>-- ------ ---- --- ---- --- --- --- ----- -- -------- ---<br>------ ------- -------- --- ---- -- ------- ------------ --<br>------ -- much -- --- ---- -- -------- -- --- ------ ------,281466.2000000002,281463.6000000001,281102.459,281115.9000000004,281119.132,281469.261,,43,much
