sender,sender_type,sender_id,timestamp,meta,,Blues,Classical,Country,Dance,Electronic,Folk,Gospel,Hip-Hop,Jazz,Latin,Musical/Film,New-age,Pop,Prolific_id,Provo_ID,R&B,Rap,Reggae,Religious,Rock,Soul,Swing,Traditional,age,artist_name,correct,correctResponse,distraction,duration,education,ended_on,familiarity,gender,headphone_check_performance,item,list,music_frequency,offensiveness,pleasantness,position_correct,preference,response,response_action,snippet_file,song_name,song_rating,sound,stimulus_1,stimulus_2,stimulus_3,text,time_commit,time_end,time_render,time_run,time_show,time_switch,url,word,word_ID
Prolific ID,html.Form,0,2022-05-10T13:47:34.455Z,"{""labjs_version"":""20.2.2"",""labjs_build"":{""flavor"":""production"",""commit"":""a25486e0c714a0ae2ce03ff94b7bb6896854dcfa""},""location"":""https://run.pavlovia.org/mvasilev/prolific3_music_b/"",""userAgent"":""Mozilla/5.0 (Windows NT 10.0; Win64; x64; rv:100.0) Gecko/20100101 Firefox/100.0"",""platform"":""Win32"",""language"":""en-GB"",""locale"":""en-GB"",""timeZone"":""Europe/London"",""timezoneOffset"":-60,""screen_width"":1920,""screen_height"":1080,""scroll_width"":1920,""scroll_height"":907,""window_innerWidth"":1920,""window_innerHeight"":955,""devicePixelRatio"":1}",,,,,,,,,,,,,,,58945874b5496d00018cfe1c,,,,,,,,,,,,,,,11289.68,,form submission,,,,,,,,,,,,,,,,,,,,,24712,24709,13349.58,13349,13419.32,24712.74,{},,
Introduction,html.Screen,1_0,2022-05-10T13:47:38.155Z,,,,,,,,,,,,,,,,,,,,,,,,,,,,,,,3684.2599999999984,,response,,,,,,,,,,,continue,click button,,,,,,,,,28410,28397,24695.4,24714,24712.74,28412.68,,,
Volume calibration,html.Screen,1_1,2022-05-10T13:48:05.895Z,,,,,,,,,,,,,,,,,,,,,,,,,,,,,,,27734.32,,response,,,,,,,,,,,continue,click button,,,,,,,,,56150,56147,28408.02,28410,28412.68,56161.52,,,
Task instructions,html.Screen,1_2,2022-05-10T13:48:17.314Z,,,,,,,,,,,,,,,,,,,,,,,,,,,,,,,11391.480000000003,,response,,,,,,,,,,,continue,click button,,,,,,,,,67570,67553,56148.48,56151,56161.52,67577.86,,,
Sounds,html.Screen,1_3_0_0,2022-05-10T13:48:21.558Z,,,,,,,,,,,,,,,,,,,,,,,,,,,,,,,4249.759999999995,,timeout,,,,,,,,,1,,,,,,,,S,O,I,,71813,71810.96,67568.12,67571,67577.86,71827.62,,,
Judgement,html.Screen,1_3_0_1,2022-05-10T13:48:22.483Z,,,,,,,,,,,,,,,,,,,,,,,,,,,,false,1,,896.3800000000047,,response,,,,,,,,,1,,3,click #choice-3,,,,,S,O,I,,72739,72724,71810.96,71813,71827.62,72744.18,,,
Trial,flow.Sequence,1_3_0,2022-05-10T13:48:22.485Z,,,,,,,,,,,,,,,,,,,,,,,,,,,,,,,5146.139999999999,,completion,,,,,,,,,1,,,,,,,,S,O,I,,72741,72724,67568.12,67571,67577.86,72744.18,,,
Sounds,html.Screen,1_3_1_0,2022-05-10T13:48:26.726Z,,,,,,,,,,,,,,,,,,,,,,,,,,,,,,,4249.820000000007,,timeout,,,,,,,,,2,,,,,,,,I,S,O,,76983,76977.34,72737.24,72743,72744.18,76994,,,
Judgement,html.Screen,1_3_1_1,2022-05-10T13:48:27.276Z,,,,,,,,,,,,,,,,,,,,,,,,,,,,true,2,,527,,response,,,,,,,,,2,,2,click #choice-2,,,,,I,S,O,,77532,77521,76977.34,76986,76994,77543.98,,,
Trial,flow.Sequence,1_3_1,2022-05-10T13:48:27.279Z,,,,,,,,,,,,,,,,,,,,,,,,,,,,,,,4776.820000000007,,completion,,,,,,,,,2,,,,,,,,I,S,O,,77534,77521,72737.24,72742,72744.18,77543.98,,,
Sounds,html.Screen,1_3_2_0,2022-05-10T13:48:31.525Z,,,,,,,,,,,,,,,,,,,,,,,,,,,,,,,4249.900000000009,,timeout,,,,,,,,,3,,,,,,,,O,I,S,,81780,81777.28,77528.02,77535,77543.98,81793.88,,,
Judgement,html.Screen,1_3_2_1,2022-05-10T13:48:32.117Z,,,,,,,,,,,,,,,,,,,,,,,,,,,,true,3,,570.1199999999953,,response,,,,,,,,,3,,3,click #choice-3,,,,,O,I,S,,82373,82364,81777.28,81782,81793.88,82377.22,,,
Trial,flow.Sequence,1_3_2,2022-05-10T13:48:32.118Z,,,,,,,,,,,,,,,,,,,,,,,,,,,,,,,4820.020000000004,,completion,,,,,,,,,3,,,,,,,,O,I,S,,82373,82364,77528.02,77535,77543.98,82377.22,,,
Sounds,html.Screen,1_3_3_0,2022-05-10T13:48:36.357Z,,,,,,,,,,,,,,,,,,,,,,,,,,,,,,,4249.800000000003,,timeout,,,,,,,,,3,,,,,,,,I,O,S,,86613,86610.36,82370.98,82375,82377.22,86627.02,,,
Judgement,html.Screen,1_3_3_1,2022-05-10T13:48:36.901Z,,,,,,,,,,,,,,,,,,,,,,,,,,,,true,3,,519.9799999999959,,response,,,,,,,,,3,,3,click #choice-3,,,,,I,O,S,,87157,87147,86610.36,86614,86627.02,87160.4,,,
Trial,flow.Sequence,1_3_3,2022-05-10T13:48:36.902Z,,,,,,,,,,,,,,,,,,,,,,,,,,,,,,,4769.779999999999,,completion,,,,,,,,,3,,,,,,,,I,O,S,,87157,87147,82370.98,82375,82377.22,87160.4,,,
Sounds,html.Screen,1_3_4_0,2022-05-10T13:48:41.140Z,,,,,,,,,,,,,,,,,,,,,,,,,,,,,,,4249.820000000007,,timeout,,,,,,,,,2,,,,,,,,O,S,I,,91396,91393.56,87155.58,87159,87160.4,91410.22,,,
Judgement,html.Screen,1_3_4_1,2022-05-10T13:48:41.671Z,,,,,,,,,,,,,,,,,,,,,,,,,,,,true,2,,500.77999999999884,,response,,,,,,,,,2,,2,click #choice-2,,,,,O,S,I,,91927,91911,91393.56,91396,91410.22,91926.84,,,
Trial,flow.Sequence,1_3_4,2022-05-10T13:48:41.672Z,,,,,,,,,,,,,,,,,,,,,,,,,,,,,,,4750.600000000006,,completion,,,,,,,,,2,,,,,,,,O,S,I,,91928,91911,87155.58,87158,87160.4,91926.84,,,
Sounds,html.Screen,1_3_5_0,2022-05-10T13:48:45.906Z,,,,,,,,,,,,,,,,,,,,,,,,,,,,,,,4249.720000000001,,timeout,,,,,,,,,1,,,,,,,,S,I,O,,96162,96159.96,91925.28,91929,91926.84,96176.56,,,
Judgement,html.Screen,1_3_5_1,2022-05-10T13:48:46.466Z,,,,,,,,,,,,,,,,,,,,,,,,,,,,true,1,,530.4400000000023,,response,,,,,,,,,1,,1,click #choice-1,,,,,S,I,O,,96722,96707,96159.96,96162,96176.56,96726.68,,,
Trial,flow.Sequence,1_3_5,2022-05-10T13:48:46.467Z,,,,,,,,,,,,,,,,,,,,,,,,,,,,,,,4780.1600000000035,,completion,,,,,,,,,1,,,,,,,,S,I,O,,96723,96707,91925.28,91928,91926.84,96726.68,,,
Task,flow.Loop,1_3,2022-05-10T13:48:46.469Z,,,,,,,,,,,,,,,,,,,,,,,,,,,,,,,29129.14,,completion,,,0.8333333333333334,,,,,,,,,,,,,,,,,,96724,96707,67568.12,67571,67577.86,96726.68,,,
Trap,html.Screen,1_4,2022-05-10T13:48:46.475Z,,,,,,,,,,,,,,,,,,,,,,,,,,,,,,,NaN,,skipped,,,,,,,,,,,,,,,,,,,,,96730,96707,,96730,,96726.68,,,
Thanks,html.Screen,1_5,2022-05-10T13:48:50.274Z,,,,,,,,,,,,,,,,,,,,,,,,,,,,,,,3794.320000000007,,response,,,,,,,,,,,continue,click button,,,,,,,,,100530,100521,96720.32,96731,96726.68,104259.6,,,
Headphone screening,flow.Sequence,1,2022-05-10T13:48:50.275Z,,,,,,,,,,,,,,,,,,,,,,,,,,,,,,,75808.26,,completion,,,,,,,,,,,,,,,,,,,,,100530,100521,24695.4,24714,24712.74,104259.6,,,
Instructions,html.Page,2_0,2022-05-10T13:51:45.850Z,,,,,,,,,,,,,,,,,,,,,,,,,,,,,,,171845.4,,form submission,,,,,,,,,,,,,,,,,,,,,276106,276105,104243.98,104241,104259.6,276102.84,,,
Holding screen,html.Screen,2_1_0_0,2022-05-10T13:51:55.832Z,,,,,,,,,,,,,,,,,,,,,,,,,,,,,,,9999.559999999998,,timeout,,,,,,,,,,,,,,,,,,,,,286087,286085.76,276097.62,276107,276102.84,286102.4,,,
screen,html.Screen,2_1_0_1_0,2022-05-10T13:51:56.626Z,,,,,,,,,,,,,,,,,53,,,,,,,,,,,,,,761.5999999999767,,response,,,,99,,,,,,,Space,keypress(Space),,,,,,,,When -- ----- -- ------ - ------- --- ----------<br>------------- ------ ------ ---- ---- ------- ----- -- ----<br>-------- ------- -- ---------- --- - --- ----- ----- ----<br>---- --- --- ----- --- ---- ---- ------- ----- ---- -------<br>--- --- -- ----- -- --- ---- -- --- ---- -- ------ ------<br>--- ----- -- ----,286881,286864,286085.76,286088,286102.4,286882.4,,0,When
screen,html.Screen,2_1_0_1_1,2022-05-10T13:51:56.976Z,,,,,,,,,,,,,,,,,53,,,,,,,,,,,,,,341.5999999999767,,response,,,,99,,,,,,,Space,keypress(Space),,,,,,,,---- it ----- -- ------ - ------- --- ----------<br>------------- ------ ------ ---- ---- ------- ----- -- ----<br>-------- ------- -- ---------- --- - --- ----- ----- ----<br>---- --- --- ----- --- ---- ---- ------- ----- ---- -------<br>--- --- -- ----- -- --- ---- -- --- ---- -- ------ ------<br>--- ----- -- ----,287232,287224,286881.94,286882,286882.4,287232.78,,1,it
screen,html.Screen,2_1_0_1_2,2022-05-10T13:51:57.241Z,,,,,,,,,,,,,,,,,53,,,,,,,,,,,,,,256.21999999997206,,response,,,,99,,,,,,,Space,keypress(Space),,,,,,,,---- -- comes -- ------ - ------- --- ----------<br>------------- ------ ------ ---- ---- ------- ----- -- ----<br>-------- ------- -- ---------- --- - --- ----- ----- ----<br>---- --- --- ----- --- ---- ---- ------- ----- ---- -------<br>--- --- -- ----- -- --- ---- -- --- ---- -- ------ ------<br>--- ----- -- ----,287497,287489,287232.18,287232,287232.78,287498.3,,2,comes
screen,html.Screen,2_1_0_1_3,2022-05-10T13:51:57.506Z,,,,,,,,,,,,,,,,,53,,,,,,,,,,,,,,256.70000000001164,,response,,,,99,,,,,,,Space,keypress(Space),,,,,,,,---- -- ----- to ------ - ------- --- ----------<br>------------- ------ ------ ---- ---- ------- ----- -- ----<br>-------- ------- -- ---------- --- - --- ----- ----- ----<br>---- --- --- ----- --- ---- ---- ------- ----- ---- -------<br>--- --- -- ----- -- --- ---- -- --- ---- -- ------ ------<br>--- ----- -- ----,287761,287755,287497.7,287498,287498.3,287762.34,,3,to
screen,html.Screen,2_1_0_1_4,2022-05-10T13:51:57.769Z,,,,,,,,,,,,,,,,,53,,,,,,,,,,,,,,258.6599999999744,,response,,,,99,,,,,,,Space,keypress(Space),,,,,,,,---- -- ----- -- having - ------- --- ----------<br>------------- ------ ------ ---- ---- ------- ----- -- ----<br>-------- ------- -- ---------- --- - --- ----- ----- ----<br>---- --- --- ----- --- ---- ---- ------- ----- ---- -------<br>--- --- -- ----- -- --- ---- -- --- ---- -- ------ ------<br>--- ----- -- ----,288024,288021,287761.84,287762,287762.34,288025.54,,4,having
screen,html.Screen,2_1_0_1_5,2022-05-10T13:51:58.045Z,,,,,,,,,,,,,,,,,53,,,,,,,,,,,,,,260.46000000002095,,response,,,,99,,,,,,,Space,keypress(Space),,,,,,,,---- -- ----- -- ------ a ------- --- ----------<br>------------- ------ ------ ---- ---- ------- ----- -- ----<br>-------- ------- -- ---------- --- - --- ----- ----- ----<br>---- --- --- ----- --- ---- ---- ------- ----- ---- -------<br>--- --- -- ----- -- --- ---- -- --- ---- -- ------ ------<br>--- ----- -- ----,288301,288286,288024.92,288024,288025.54,288302.34,,5,a
screen,html.Screen,2_1_0_1_6,2022-05-10T13:51:58.262Z,,,,,,,,,,,,,,,,,53,,,,,,,,,,,,,,202.6599999999744,,response,,,,99,,,,,,,Space,keypress(Space),,,,,,,,---- -- ----- -- ------ - lasting --- ----------<br>------------- ------ ------ ---- ---- ------- ----- -- ----<br>-------- ------- -- ---------- --- - --- ----- ----- ----<br>---- --- --- ----- --- ---- ---- ------- ----- ---- -------<br>--- --- -- ----- -- --- ---- -- --- ---- -- ------ ------<br>--- ----- -- ----,288518,288505,288301.72,288302,288302.34,288518.92,,6,lasting
screen,html.Screen,2_1_0_1_7,2022-05-10T13:51:58.537Z,,,,,,,,,,,,,,,,,53,,,,,,,,,,,,,,267.0800000000163,,response,,,,99,,,,,,,Space,keypress(Space),,,,,,,,---- -- ----- -- ------ - ------- and ----------<br>------------- ------ ------ ---- ---- ------- ----- -- ----<br>-------- ------- -- ---------- --- - --- ----- ----- ----<br>---- --- --- ----- --- ---- ---- ------- ----- ---- -------<br>--- --- -- ----- -- --- ---- -- --- ---- -- ------ ------<br>--- ----- -- ----,288793,288786,288518.24,288518,288518.92,288793.58,,7,and
screen,html.Screen,2_1_0_1_8,2022-05-10T13:51:58.822Z,,,,,,,,,,,,,,,,,53,,,,,,,,,,,,,,274.4199999999837,,response,,,,99,,,,,,,Space,keypress(Space),,,,,,,,---- -- ----- -- ------ - ------- --- fulfilling<br>------------- ------ ------ ---- ---- ------- ----- -- ----<br>-------- ------- -- ---------- --- - --- ----- ----- ----<br>---- --- --- ----- --- ---- ---- ------- ----- ---- -------<br>--- --- -- ----- -- --- ---- -- --- ---- -- ------ ------<br>--- ----- -- ----,289078,289068,288793.02,288793,288793.58,289078.98,,8,fulfilling
screen,html.Screen,2_1_0_1_9,2022-05-10T13:51:59.399Z,,,,,,,,,,,,,,,,,53,,,,,,,,,,,,,,567.0200000000186,,response,,,,99,,,,,,,Space,keypress(Space),,,,,,,,"---- -- ----- -- ------ - ------- --- ----------<br>relationship, ------ ------ ---- ---- ------- ----- -- ----<br>-------- ------- -- ---------- --- - --- ----- ----- ----<br>---- --- --- ----- --- ---- ---- ------- ----- ---- -------<br>--- --- -- ----- -- --- ---- -- --- ---- -- ------ ------<br>--- ----- -- ----",289654,289646,289078.34,289078,289078.98,289655.44,,9,"relationship,"
screen,html.Screen,2_1_0_1_10,2022-05-10T13:51:59.766Z,,,,,,,,,,,,,,,,,53,,,,,,,,,,,,,,349.5599999999977,,response,,,,99,,,,,,,Space,keypress(Space),,,,,,,,---- -- ----- -- ------ - ------- --- ----------<br>------------- common ------ ---- ---- ------- ----- -- ----<br>-------- ------- -- ---------- --- - --- ----- ----- ----<br>---- --- --- ----- --- ---- ---- ------- ----- ---- -------<br>--- --- -- ----- -- --- ---- -- --- ---- -- ------ ------<br>--- ----- -- ----,290021,290005,289654.82,289654,289655.44,290022.46,,10,common
screen,html.Screen,2_1_0_1_11,2022-05-10T13:52:00.107Z,,,,,,,,,,,,,,,,,53,,,,,,,,,,,,,,326.53999999997905,,response,,,,99,,,,,,,Space,keypress(Space),,,,,,,,---- -- ----- -- ------ - ------- --- ----------<br>------------- ------ wisdom ---- ---- ------- ----- -- ----<br>-------- ------- -- ---------- --- - --- ----- ----- ----<br>---- --- --- ----- --- ---- ---- ------- ----- ---- -------<br>--- --- -- ----- -- --- ---- -- --- ---- -- ------ ------<br>--- ----- -- ----,290362,290349,290021.88,290021,290022.46,290363.18,,11,wisdom
screen,html.Screen,2_1_0_1_12,2022-05-10T13:52:00.438Z,,,,,,,,,,,,,,,,,53,,,,,,,,,,,,,,328.820000000007,,response,,,,99,,,,,,,Space,keypress(Space),,,,,,,,---- -- ----- -- ------ - ------- --- ----------<br>------------- ------ ------ says ---- ------- ----- -- ----<br>-------- ------- -- ---------- --- - --- ----- ----- ----<br>---- --- --- ----- --- ---- ---- ------- ----- ---- -------<br>--- --- -- ----- -- --- ---- -- --- ---- -- ------ ------<br>--- ----- -- ----,290693,290692,290362.58,290363,290363.18,290694,,12,says
screen,html.Screen,2_1_0_1_13,2022-05-10T13:52:00.735Z,,,,,,,,,,,,,,,,,53,,,,,,,,,,,,,,279,,response,,,,99,,,,,,,Space,keypress(Space),,,,,,,,---- -- ----- -- ------ - ------- --- ----------<br>------------- ------ ------ ---- that ------- ----- -- ----<br>-------- ------- -- ---------- --- - --- ----- ----- ----<br>---- --- --- ----- --- ---- ---- ------- ----- ---- -------<br>--- --- -- ----- -- --- ---- -- --- ---- -- ------ ------<br>--- ----- -- ----,290991,290973,290693.72,290693,290694,290992.08,,13,that
screen,html.Screen,2_1_0_1_14,2022-05-10T13:52:00.985Z,,,,,,,,,,,,,,,,,53,,,,,,,,,,,,,,231.9199999999837,,response,,,,99,,,,,,,Space,keypress(Space),,,,,,,,---- -- ----- -- ------ - ------- --- ----------<br>------------- ------ ------ ---- ---- feeling ----- -- ----<br>-------- ------- -- ---------- --- - --- ----- ----- ----<br>---- --- --- ----- --- ---- ---- ------- ----- ---- -------<br>--- --- -- ----- -- --- ---- -- --- ---- -- ------ ------<br>--- ----- -- ----,291241,291224,290991.48,290991,290992.08,291241.7,,14,feeling
screen,html.Screen,2_1_0_1_15,2022-05-10T13:52:01.289Z,,,,,,,,,,,,,,,,,53,,,,,,,,,,,,,,293.29999999998836,,response,,,,99,,,,,,,Space,keypress(Space),,,,,,,,---- -- ----- -- ------ - ------- --- ----------<br>------------- ------ ------ ---- ---- ------- close -- ----<br>-------- ------- -- ---------- --- - --- ----- ----- ----<br>---- --- --- ----- --- ---- ---- ------- ----- ---- -------<br>--- --- -- ----- -- --- ---- -- --- ---- -- ------ ------<br>--- ----- -- ----,291544,291535,291241,291241,291241.7,291545.24,,15,close
screen,html.Screen,2_1_0_1_16,2022-05-10T13:52:01.574Z,,,,,,,,,,,,,,,,,53,,,,,,,,,,,,,,271.7600000000093,,response,,,,99,,,,,,,Space,keypress(Space),,,,,,,,---- -- ----- -- ------ - ------- --- ----------<br>------------- ------ ------ ---- ---- ------- ----- to ----<br>-------- ------- -- ---------- --- - --- ----- ----- ----<br>---- --- --- ----- --- ---- ---- ------- ----- ---- -------<br>--- --- -- ----- -- --- ---- -- --- ---- -- ------ ------<br>--- ----- -- ----,291830,291817,291544.62,291545,291545.24,291830.02,,16,to
screen,html.Screen,2_1_0_1_17,2022-05-10T13:52:01.878Z,,,,,,,,,,,,,,,,,53,,,,,,,,,,,,,,298.9799999999814,,response,,,,99,,,,,,,Space,keypress(Space),,,,,,,,---- -- ----- -- ------ - ------- --- ----------<br>------------- ------ ------ ---- ---- ------- ----- -- your<br>-------- ------- -- ---------- --- - --- ----- ----- ----<br>---- --- --- ----- --- ---- ---- ------- ----- ---- -------<br>--- --- -- ----- -- --- ---- -- --- ---- -- ------ ------<br>--- ----- -- ----,292133,292129,291829.68,291830,291830.02,292133.94,,17,your
screen,html.Screen,2_1_0_1_18,2022-05-10T13:52:02.178Z,,,,,,,,,,,,,,,,,53,,,,,,,,,,,,,,292.0599999999977,,response,,,,99,,,,,,,Space,keypress(Space),,,,,,,,---- -- ----- -- ------ - ------- --- ----------<br>------------- ------ ------ ---- ---- ------- ----- -- ----<br>romantic ------- -- ---------- --- - --- ----- ----- ----<br>---- --- --- ----- --- ---- ---- ------- ----- ---- -------<br>--- --- -- ----- -- --- ---- -- --- ---- -- ------ ------<br>--- ----- -- ----,292434,292426,292133.34,292133,292133.94,292434.82,,18,romantic
screen,html.Screen,2_1_0_1_19,2022-05-10T13:52:02.484Z,,,,,,,,,,,,,,,,,53,,,,,,,,,,,,,,288.179999999993,,response,,,,99,,,,,,,Space,keypress(Space),,,,,,,,---- -- ----- -- ------ - ------- --- ----------<br>------------- ------ ------ ---- ---- ------- ----- -- ----<br>-------- partner -- ---------- --- - --- ----- ----- ----<br>---- --- --- ----- --- ---- ---- ------- ----- ---- -------<br>--- --- -- ----- -- --- ---- -- --- ---- -- ------ ------<br>--- ----- -- ----,292739,292723,292434.2,292434,292434.82,292739.84,,19,partner
screen,html.Screen,2_1_0_1_20,2022-05-10T13:52:02.843Z,,,,,,,,,,,,,,,,,53,,,,,,,,,,,,,,342.1599999999744,,response,,,,99,,,,,,,Space,keypress(Space),,,,,,,,---- -- ----- -- ------ - ------- --- ----------<br>------------- ------ ------ ---- ---- ------- ----- -- ----<br>-------- ------- is ---------- --- - --- ----- ----- ----<br>---- --- --- ----- --- ---- ---- ------- ----- ---- -------<br>--- --- -- ----- -- --- ---- -- --- ---- -- ------ ------<br>--- ----- -- ----,293098,293082,292739.28,292739,292739.84,293100.26,,20,is
screen,html.Screen,2_1_0_1_21,2022-05-10T13:52:03.071Z,,,,,,,,,,,,,,,,,53,,,,,,,,,,,,,,216.7399999999907,,response,,,,99,,,,,,,Space,keypress(Space),,,,,,,,---- -- ----- -- ------ - ------- --- ----------<br>------------- ------ ------ ---- ---- ------- ----- -- ----<br>-------- ------- -- paramount. --- - --- ----- ----- ----<br>---- --- --- ----- --- ---- ---- ------- ----- ---- -------<br>--- --- -- ----- -- --- ---- -- --- ---- -- ------ ------<br>--- ----- -- ----,293326,293317,293099.7,293099,293100.26,293327.48,,21,paramount.
screen,html.Screen,2_1_0_1_22,2022-05-10T13:52:03.618Z,,,,,,,,,,,,,,,,,53,,,,,,,,,,,,,,535.5200000000186,,response,,,,99,,,,,,,Space,keypress(Space),,,,,,,,---- -- ----- -- ------ - ------- --- ----------<br>------------- ------ ------ ---- ---- ------- ----- -- ----<br>-------- ------- -- ---------- But - --- ----- ----- ----<br>---- --- --- ----- --- ---- ---- ------- ----- ---- -------<br>--- --- -- ----- -- --- ---- -- --- ---- -- ------ ------<br>--- ----- -- ----,293874,293863,293326.94,293327,293327.48,293874.94,,22,But
screen,html.Screen,2_1_0_1_23,2022-05-10T13:52:03.963Z,,,,,,,,,,,,,,,,,53,,,,,,,,,,,,,,333.0599999999977,,response,,,,99,,,,,,,Space,keypress(Space),,,,,,,,---- -- ----- -- ------ - ------- --- ----------<br>------------- ------ ------ ---- ---- ------- ----- -- ----<br>-------- ------- -- ---------- --- a --- ----- ----- ----<br>---- --- --- ----- --- ---- ---- ------- ----- ---- -------<br>--- --- -- ----- -- --- ---- -- --- ---- -- ------ ------<br>--- ----- -- ----,294219,294208,293874.34,293875,293874.94,294219.92,,23,a
screen,html.Screen,2_1_0_1_24,2022-05-10T13:52:04.293Z,,,,,,,,,,,,,,,,,53,,,,,,,,,,,,,,315.0800000000163,,response,,,,99,,,,,,,Space,keypress(Space),,,,,,,,---- -- ----- -- ------ - ------- --- ----------<br>------------- ------ ------ ---- ---- ------- ----- -- ----<br>-------- ------- -- ---------- --- - new ----- ----- ----<br>---- --- --- ----- --- ---- ---- ------- ----- ---- -------<br>--- --- -- ----- -- --- ---- -- --- ---- -- ------ ------<br>--- ----- -- ----,294549,294535,294219.3,294219,294219.92,294549.66,,24,new
screen,html.Screen,2_1_0_1_25,2022-05-10T13:52:04.660Z,,,,,,,,,,,,,,,,,53,,,,,,,,,,,,,,360.3400000000256,,response,,,,99,,,,,,,Space,keypress(Space),,,,,,,,---- -- ----- -- ------ - ------- --- ----------<br>------------- ------ ------ ---- ---- ------- ----- -- ----<br>-------- ------- -- ---------- --- - --- study ----- ----<br>---- --- --- ----- --- ---- ---- ------- ----- ---- -------<br>--- --- -- ----- -- --- ---- -- --- ---- -- ------ ------<br>--- ----- -- ----,294915,294910,294549.04,294549,294549.66,294918.72,,25,study
screen,html.Screen,2_1_0_1_26,2022-05-10T13:52:04.990Z,,,,,,,,,,,,,,,,,53,,,,,,,,,,,,,,320.28000000002794,,response,,,,99,,,,,,,Space,keypress(Space),,,,,,,,---- -- ----- -- ------ - ------- --- ----------<br>------------- ------ ------ ---- ---- ------- ----- -- ----<br>-------- ------- -- ---------- --- - --- ----- finds ----<br>---- --- --- ----- --- ---- ---- ------- ----- ---- -------<br>--- --- -- ----- -- --- ---- -- --- ---- -- ------ ------<br>--- ----- -- ----,295245,295239,294916.02,294916,294918.72,295246.28,,26,finds
screen,html.Screen,2_1_0_1_27,2022-05-10T13:52:05.304Z,,,,,,,,,,,,,,,,,53,,,,,,,,,,,,,,304.71999999997206,,response,,,,99,,,,,,,Space,keypress(Space),,,,,,,,---- -- ----- -- ------ - ------- --- ----------<br>------------- ------ ------ ---- ---- ------- ----- -- ----<br>-------- ------- -- ---------- --- - --- ----- ----- that<br>---- --- --- ----- --- ---- ---- ------- ----- ---- -------<br>--- --- -- ----- -- --- ---- -- --- ---- -- ------ ------<br>--- ----- -- ----,295560,295551,295245.66,295246,295246.28,295560.92,,27,that
screen,html.Screen,2_1_0_1_28,2022-05-10T13:52:05.619Z,,,,,,,,,,,,,,,,,53,,,,,,,,,,,,,,302.0800000000163,,response,,,,99,,,,,,,Space,keypress(Space),,,,,,,,---- -- ----- -- ------ - ------- --- ----------<br>------------- ------ ------ ---- ---- ------- ----- -- ----<br>-------- ------- -- ---------- --- - --- ----- ----- ----<br>it's --- --- ----- --- ---- ---- ------- ----- ---- -------<br>--- --- -- ----- -- --- ---- -- --- ---- -- ------ ------<br>--- ----- -- ----,295876,295863,295560.36,295561,295560.92,295875.8,,28,it's
screen,html.Screen,2_1_0_1_29,2022-05-10T13:52:05.846Z,,,,,,,,,,,,,,,,,53,,,,,,,,,,,,,,222.20000000001164,,response,,,,99,,,,,,,Space,keypress(Space),,,,,,,,---- -- ----- -- ------ - ------- --- ----------<br>------------- ------ ------ ---- ---- ------- ----- -- ----<br>-------- ------- -- ---------- --- - --- ----- ----- ----<br>---- not --- ----- --- ---- ---- ------- ----- ---- -------<br>--- --- -- ----- -- --- ---- -- --- ---- -- ------ ------<br>--- ----- -- ----,296102,296098,295875.42,295876,295875.8,296103.14,,29,not
screen,html.Screen,2_1_0_1_30,2022-05-10T13:52:06.097Z,,,,,,,,,,,,,,,,,53,,,,,,,,,,,,,,244.85999999998603,,response,,,,99,,,,,,,Space,keypress(Space),,,,,,,,---- -- ----- -- ------ - ------- --- ----------<br>------------- ------ ------ ---- ---- ------- ----- -- ----<br>-------- ------- -- ---------- --- - --- ----- ----- ----<br>---- --- how ----- --- ---- ---- ------- ----- ---- -------<br>--- --- -- ----- -- --- ---- -- --- ---- -- ------ ------<br>--- ----- -- ----,296352,296348,296102.56,296102,296103.14,296353.36,,30,how
screen,html.Screen,2_1_0_1_31,2022-05-10T13:52:06.339Z,,,,,,,,,,,,,,,,,53,,,,,,,,,,,,,,229.64000000001397,,response,,,,99,,,,,,,Space,keypress(Space),,,,,,,,---- -- ----- -- ------ - ------- --- ----------<br>------------- ------ ------ ---- ---- ------- ----- -- ----<br>-------- ------- -- ---------- --- - --- ----- ----- ----<br>---- --- --- close --- ---- ---- ------- ----- ---- -------<br>--- --- -- ----- -- --- ---- -- --- ---- -- ------ ------<br>--- ----- -- ----,296594,296583,296352.74,296353,296353.36,296595.22,,31,close
screen,html.Screen,2_1_0_1_32,2022-05-10T13:52:06.521Z,,,,,,,,,,,,,,,,,53,,,,,,,,,,,,,,174.78000000002794,,response,,,,99,,,,,,,Space,keypress(Space),,,,,,,,---- -- ----- -- ------ - ------- --- ----------<br>------------- ------ ------ ---- ---- ------- ----- -- ----<br>-------- ------- -- ---------- --- - --- ----- ----- ----<br>---- --- --- ----- you ---- ---- ------- ----- ---- -------<br>--- --- -- ----- -- --- ---- -- --- ---- -- ------ ------<br>--- ----- -- ----,296776,296770,296594.62,296594,296595.22,296785.32,,32,you
screen,html.Screen,2_1_0_1_33,2022-05-10T13:52:06.720Z,,,,,,,,,,,,,,,,,53,,,,,,,,,,,,,,187.67999999999302,,response,,,,99,,,,,,,Space,keypress(Space),,,,,,,,---- -- ----- -- ------ - ------- --- ----------<br>------------- ------ ------ ---- ---- ------- ----- -- ----<br>-------- ------- -- ---------- --- - --- ----- ----- ----<br>---- --- --- ----- --- feel ---- ------- ----- ---- -------<br>--- --- -- ----- -- --- ---- -- --- ---- -- ------ ------<br>--- ----- -- ----,296977,296973,296776.46,296777,296785.32,296985.3,,33,feel
screen,html.Screen,2_1_0_1_34,2022-05-10T13:52:06.874Z,,,,,,,,,,,,,,,,,53,,,,,,,,,,,,,,127.70000000001164,,response,,,,99,,,,,,,Space,keypress(Space),,,,,,,,---- -- ----- -- ------ - ------- --- ----------<br>------------- ------ ------ ---- ---- ------- ----- -- ----<br>-------- ------- -- ---------- --- - --- ----- ----- ----<br>---- --- --- ----- --- ---- that ------- ----- ---- -------<br>--- --- -- ----- -- --- ---- -- --- ---- -- ------ ------<br>--- ----- -- ----,297130,297113,296976.64,296977,296985.3,297135.3,,34,that
screen,html.Screen,2_1_0_1_35,2022-05-10T13:52:07.138Z,,,,,,,,,,,,,,,,,53,,,,,,,,,,,,,,243.70000000001164,,response,,,,99,,,,,,,Space,keypress(Space),,,,,,,,---- -- ----- -- ------ - ------- --- ----------<br>------------- ------ ------ ---- ---- ------- ----- -- ----<br>-------- ------- -- ---------- --- - --- ----- ----- ----<br>---- --- --- ----- --- ---- ---- matters ----- ---- -------<br>--- --- -- ----- -- --- ---- -- --- ---- -- ------ ------<br>--- ----- -- ----,297393,297379,297130.76,297130,297135.3,297394.4,,35,matters
screen,html.Screen,2_1_0_1_36,2022-05-10T13:52:07.371Z,,,,,,,,,,,,,,,,,53,,,,,,,,,,,,,,218.59999999997672,,response,,,,99,,,,,,,Space,keypress(Space),,,,,,,,"---- -- ----- -- ------ - ------- --- ----------<br>------------- ------ ------ ---- ---- ------- ----- -- ----<br>-------- ------- -- ---------- --- - --- ----- ----- ----<br>---- --- --- ----- --- ---- ---- ------- most, ---- -------<br>--- --- -- ----- -- --- ---- -- --- ---- -- ------ ------<br>--- ----- -- ----",297627,297613,297393.76,297394,297394.4,297627.48,,36,"most,"
screen,html.Screen,2_1_0_1_37,2022-05-10T13:52:07.663Z,,,,,,,,,,,,,,,,,53,,,,,,,,,,,,,,282.5200000000186,,response,,,,99,,,,,,,Space,keypress(Space),,,,,,,,---- -- ----- -- ------ - ------- --- ----------<br>------------- ------ ------ ---- ---- ------- ----- -- ----<br>-------- ------- -- ---------- --- - --- ----- ----- ----<br>---- --- --- ----- --- ---- ---- ------- ----- it's -------<br>--- --- -- ----- -- --- ---- -- --- ---- -- ------ ------<br>--- ----- -- ----,297918,297910,297626.92,297627,297627.48,297919.26,,37,it's
screen,html.Screen,2_1_0_1_38,2022-05-10T13:52:07.843Z,,,,,,,,,,,,,,,,,53,,,,,,,,,,,,,,162.7399999999907,,response,,,,99,,,,,,,Space,keypress(Space),,,,,,,,---- -- ----- -- ------ - ------- --- ----------<br>------------- ------ ------ ---- ---- ------- ----- -- ----<br>-------- ------- -- ---------- --- - --- ----- ----- ----<br>---- --- --- ----- --- ---- ---- ------- ----- ---- whether<br>--- --- -- ----- -- --- ---- -- --- ---- -- ------ ------<br>--- ----- -- ----,298098,298082,297918.64,297918,297919.26,298101.86,,38,whether
screen,html.Screen,2_1_0_1_39,2022-05-10T13:52:08.153Z,,,,,,,,,,,,,,,,,53,,,,,,,,,,,,,,293.14000000001397,,response,,,,99,,,,,,,Space,keypress(Space),,,,,,,,---- -- ----- -- ------ - ------- --- ----------<br>------------- ------ ------ ---- ---- ------- ----- -- ----<br>-------- ------- -- ---------- --- - --- ----- ----- ----<br>---- --- --- ----- --- ---- ---- ------- ----- ---- -------<br>you --- -- ----- -- --- ---- -- --- ---- -- ------ ------<br>--- ----- -- ----,298408,298395,298098.9,298099,298101.86,298408.88,,39,you
screen,html.Screen,2_1_0_1_40,2022-05-10T13:52:08.406Z,,,,,,,,,,,,,,,,,53,,,,,,,,,,,,,,236.11999999999534,,response,,,,99,,,,,,,Space,keypress(Space),,,,,,,,---- -- ----- -- ------ - ------- --- ----------<br>------------- ------ ------ ---- ---- ------- ----- -- ----<br>-------- ------- -- ---------- --- - --- ----- ----- ----<br>---- --- --- ----- --- ---- ---- ------- ----- ---- -------<br>--- are -- ----- -- --- ---- -- --- ---- -- ------ ------<br>--- ----- -- ----,298662,298645,298408.6,298409,298408.88,298662.68,,40,are
screen,html.Screen,2_1_0_1_41,2022-05-10T13:52:08.599Z,,,,,,,,,,,,,,,,,53,,,,,,,,,,,,,,185.32000000000698,,response,,,,99,,,,,,,Space,keypress(Space),,,,,,,,---- -- ----- -- ------ - ------- --- ----------<br>------------- ------ ------ ---- ---- ------- ----- -- ----<br>-------- ------- -- ---------- --- - --- ----- ----- ----<br>---- --- --- ----- --- ---- ---- ------- ----- ---- -------<br>--- --- as ----- -- --- ---- -- --- ---- -- ------ ------<br>--- ----- -- ----,298855,298848,298662.14,298663,298662.68,298868.54,,41,as
screen,html.Screen,2_1_0_1_42,2022-05-10T13:52:08.833Z,,,,,,,,,,,,,,,,,53,,,,,,,,,,,,,,213.46000000002095,,response,,,,99,,,,,,,Space,keypress(Space),,,,,,,,---- -- ----- -- ------ - ------- --- ----------<br>------------- ------ ------ ---- ---- ------- ----- -- ----<br>-------- ------- -- ---------- --- - --- ----- ----- ----<br>---- --- --- ----- --- ---- ---- ------- ----- ---- -------<br>--- --- -- close -- --- ---- -- --- ---- -- ------ ------<br>--- ----- -- ----,299088,299082,298855.78,298856,298868.54,299101.86,,42,close
screen,html.Screen,2_1_0_1_43,2022-05-10T13:52:09.035Z,,,,,,,,,,,,,,,,,53,,,,,,,,,,,,,,183.14000000001397,,response,,,,99,,,,,,,Space,keypress(Space),,,,,,,,---- -- ----- -- ------ - ------- --- ----------<br>------------- ------ ------ ---- ---- ------- ----- -- ----<br>-------- ------- -- ---------- --- - --- ----- ----- ----<br>---- --- --- ----- --- ---- ---- ------- ----- ---- -------<br>--- --- -- ----- as --- ---- -- --- ---- -- ------ ------<br>--- ----- -- ----,299291,299285,299088.68,299088,299101.86,299301.86,,43,as
screen,html.Screen,2_1_0_1_44,2022-05-10T13:52:09.255Z,,,,,,,,,,,,,,,,,53,,,,,,,,,,,,,,202.14000000001397,,response,,,,99,,,,,,,Space,keypress(Space),,,,,,,,---- -- ----- -- ------ - ------- --- ----------<br>------------- ------ ------ ---- ---- ------- ----- -- ----<br>-------- ------- -- ---------- --- - --- ----- ----- ----<br>---- --- --- ----- --- ---- ---- ------- ----- ---- -------<br>--- --- -- ----- -- you ---- -- --- ---- -- ------ ------<br>--- ----- -- ----,299510,299504,299291.08,299291,299301.86,299510.5,,44,you
screen,html.Screen,2_1_0_1_45,2022-05-10T13:52:09.433Z,,,,,,,,,,,,,,,,,53,,,,,,,,,,,,,,165.5,,response,,,,99,,,,,,,Space,keypress(Space),,,,,,,,---- -- ----- -- ------ - ------- --- ----------<br>------------- ------ ------ ---- ---- ------- ----- -- ----<br>-------- ------- -- ---------- --- - --- ----- ----- ----<br>---- --- --- ----- --- ---- ---- ------- ----- ---- -------<br>--- --- -- ----- -- --- want -- --- ---- -- ------ ------<br>--- ----- -- ----,299687,299676,299510.24,299511,299510.5,299701.86,,45,want
screen,html.Screen,2_1_0_1_46,2022-05-10T13:52:09.635Z,,,,,,,,,,,,,,,,,53,,,,,,,,,,,,,,177.14000000001397,,response,,,,99,,,,,,,Space,keypress(Space),,,,,,,,---- -- ----- -- ------ - ------- --- ----------<br>------------- ------ ------ ---- ---- ------- ----- -- ----<br>-------- ------- -- ---------- --- - --- ----- ----- ----<br>---- --- --- ----- --- ---- ---- ------- ----- ---- -------<br>--- --- -- ----- -- --- ---- to --- ---- -- ------ ------<br>--- ----- -- ----,299890,299879,299688.08,299688,299701.86,299901.84,,46,to
screen,html.Screen,2_1_0_1_47,2022-05-10T13:52:09.846Z,,,,,,,,,,,,,,,,,53,,,,,,,,,,,,,,196.1599999999744,,response,,,,99,,,,,,,Space,keypress(Space),,,,,,,,"---- -- ----- -- ------ - ------- --- ----------<br>------------- ------ ------ ---- ---- ------- ----- -- ----<br>-------- ------- -- ---------- --- - --- ----- ----- ----<br>---- --- --- ----- --- ---- ---- ------- ----- ---- -------<br>--- --- -- ----- -- --- ---- -- be, ---- -- ------ ------<br>--- ----- -- ----",300102,300098,299890.76,299890,299901.84,300118.5,,47,"be,"
screen,html.Screen,2_1_0_1_48,2022-05-10T13:52:09.993Z,,,,,,,,,,,,,,,,,53,,,,,,,,,,,,,,120.5,,response,,,,99,,,,,,,Space,keypress(Space),,,,,,,,---- -- ----- -- ------ - ------- --- ----------<br>------------- ------ ------ ---- ---- ------- ----- -- ----<br>-------- ------- -- ---------- --- - --- ----- ----- ----<br>---- --- --- ----- --- ---- ---- ------- ----- ---- -------<br>--- --- -- ----- -- --- ---- -- --- even -- ------ ------<br>--- ----- -- ----,300250,300239,300102.1,300102,300118.5,300251.84,,48,even
screen,html.Screen,2_1_0_1_49,2022-05-10T13:52:10.242Z,,,,,,,,,,,,,,,,,53,,,,,,,,,,,,,,236.1599999999744,,response,,,,99,,,,,,,Space,keypress(Space),,,,,,,,---- -- ----- -- ------ - ------- --- ----------<br>------------- ------ ------ ---- ---- ------- ----- -- ----<br>-------- ------- -- ---------- --- - --- ----- ----- ----<br>---- --- --- ----- --- ---- ---- ------- ----- ---- -------<br>--- --- -- ----- -- --- ---- -- --- ---- if ------ ------<br>--- ----- -- ----,300498,300488,300249.52,300250,300251.84,300498.42,,49,if
screen,html.Screen,2_1_0_1_50,2022-05-10T13:52:10.448Z,,,,,,,,,,,,,,,,,53,,,,,,,,,,,,,,193.5800000000163,,response,,,,99,,,,,,,Space,keypress(Space),,,,,,,,---- -- ----- -- ------ - ------- --- ----------<br>------------- ------ ------ ---- ---- ------- ----- -- ----<br>-------- ------- -- ---------- --- - --- ----- ----- ----<br>---- --- --- ----- --- ---- ---- ------- ----- ---- -------<br>--- --- -- ----- -- --- ---- -- --- ---- -- that's ------<br>--- ----- -- ----,300704,300692,300497.86,300498,300498.42,300704.84,,50,that's
screen,html.Screen,2_1_0_1_51,2022-05-10T13:52:10.636Z,,,,,,,,,,,,,,,,,53,,,,,,,,,,,,,,175.1599999999744,,response,,,,99,,,,,,,Space,keypress(Space),,,,,,,,---- -- ----- -- ------ - ------- --- ----------<br>------------- ------ ------ ---- ---- ------- ----- -- ----<br>-------- ------- -- ---------- --- - --- ----- ----- ----<br>---- --- --- ----- --- ---- ---- ------- ----- ---- -------<br>--- --- -- ----- -- --- ---- -- --- ---- -- ------ really<br>--- ----- -- ----,300892,300880,300704.2,300704,300704.84,300901.76,,51,really
screen,html.Screen,2_1_0_1_52,2022-05-10T13:52:10.880Z,,,,,,,,,,,,,,,,,53,,,,,,,,,,,,,,227.2399999999907,,response,,,,99,,,,,,,Space,keypress(Space),,,,,,,,---- -- ----- -- ------ - ------- --- ----------<br>------------- ------ ------ ---- ---- ------- ----- -- ----<br>-------- ------- -- ---------- --- - --- ----- ----- ----<br>---- --- --- ----- --- ---- ---- ------- ----- ---- -------<br>--- --- -- ----- -- --- ---- -- --- ---- -- ------ ------<br>not ----- -- ----,301136,301129,300892.14,300892,300901.76,301137.44,,52,not
screen,html.Screen,2_1_0_1_53,2022-05-10T13:52:11.110Z,,,,,,,,,,,,,,,,,53,,,,,,,,,,,,,,210.55999999999767,,response,,,,99,,,,,,,Space,keypress(Space),,,,,,,,---- -- ----- -- ------ - ------- --- ----------<br>------------- ------ ------ ---- ---- ------- ----- -- ----<br>-------- ------- -- ---------- --- - --- ----- ----- ----<br>---- --- --- ----- --- ---- ---- ------- ----- ---- -------<br>--- --- -- ----- -- --- ---- -- --- ---- -- ------ ------<br>--- close -- ----,301365,301348,301136.86,301137,301137.44,301366.5,,53,close
screen,html.Screen,2_1_0_1_54,2022-05-10T13:52:11.291Z,,,,,,,,,,,,,,,,,53,,,,,,,,,,,,,,168.5,,response,,,,99,,,,,,,Space,keypress(Space),,,,,,,,---- -- ----- -- ------ - ------- --- ----------<br>------------- ------ ------ ---- ---- ------- ----- -- ----<br>-------- ------- -- ---------- --- - --- ----- ----- ----<br>---- --- --- ----- --- ---- ---- ------- ----- ---- -------<br>--- --- -- ----- -- --- ---- -- --- ---- -- ------ ------<br>--- ----- at ----,301547,301535,301365.88,301366,301366.5,301551.76,,54,at
screen,html.Screen,2_1_0_1_55,2022-05-10T13:52:11.751Z,,,,,,,,,,,,,,,,,53,,,,,,,,,,,,,,437.2399999999907,,response,,,,99,,,,,,,Space,keypress(Space),,,,,,,,---- -- ----- -- ------ - ------- --- ----------<br>------------- ------ ------ ---- ---- ------- ----- -- ----<br>-------- ------- -- ---------- --- - --- ----- ----- ----<br>---- --- --- ----- --- ---- ---- ------- ----- ---- -------<br>--- --- -- ----- -- --- ---- -- --- ---- -- ------ ------<br>--- ----- -- all.,302006,301989,301547.48,301547,301551.76,302008.06,,55,all.
Item 99,flow.Loop,2_1_0_1,2022-05-10T13:52:11.752Z,,,,,,,,,,,,,,,,,,,,,,,,,,,,,,,15886.599999999977,,completion,,,,,B,,,,,,,,,,,silence,,,,,302007,301989,286085.76,286088,286102.4,302008.06,,,
Question 1,html.Screen,2_1_0_2,2022-05-10T13:52:18.353Z,,,,,,,,,,,,,,,,,,,,,,,,,,,,false,FALSE,,6589.940000000002,,response,,,,99,B,,,,,,TRUE,click #choice-1,,,,silence,,,,,308608,308598,302007.52,302007,302008.06,308618.16,,,
Question 2,html.Screen,2_1_0_3,2022-05-10T13:52:24.068Z,,,,,,,,,,,,,,,,,,,,,,,,,,,,true,TRUE,,5698.840000000026,,response,,,,99,B,,,,,,TRUE,click #choice-1,,,,silence,,,,,314323,314317,308606.92,308610,308618.16,314334.62,,,
Item 99,flow.Sequence,2_1_0,2022-05-10T13:52:24.068Z,,,,,,,,,,,,,,,,,,,,,,,,,,,,,,,38214.159999999974,,completion,,,,,,,,,,,,,,,,,,,,,314324,314317,276097.62,276107,276102.84,314334.62,,,
Holding screen,html.Screen,2_1_1_0,2022-05-10T13:52:34.064Z,,,,,,,,,,,,,,,,,,,,,,,,,,,,,,,9999.599999999977,,timeout,,,,,,,,,,,,,,,,,,,,,324319,324317.56,314321.92,314324,314334.62,324334.22,,,
screen,html.Screen,2_1_1_1_0,2022-05-10T13:52:34.486Z,,,,,,,,,,,,,,,,,54,,,,,,,,,,,,,,403.78000000002794,,response,,,,100,,,,,,,Space,keypress(Space),,,,,,,,At --- ---- --- ------ ----- ------- ---- -- --- ------- --<br>------- ---------- ------ -- ----- -- ----- -- ---- ------<br>--- ----- --- --- ------ -------- ----- --- ------ ----- --<br>----- ----- ---------- --- --- ------ ------ ---- -- ------<br>------- --- ------ ----- --- ---- ------- -- ---- --- --<br>------- ------,324741,324738,324317.56,324319,324334.22,324742.24,,0,At
screen,html.Screen,2_1_1_1_1,2022-05-10T13:52:34.804Z,,,,,,,,,,,,,,,,,54,,,,,,,,,,,,,,308.7600000000093,,response,,,,100,,,,,,,Space,keypress(Space),,,,,,,,-- the ---- --- ------ ----- ------- ---- -- --- ------- --<br>------- ---------- ------ -- ----- -- ----- -- ---- ------<br>--- ----- --- --- ------ -------- ----- --- ------ ----- --<br>----- ----- ---------- --- --- ------ ------ ---- -- ------<br>------- --- ------ ----- --- ---- ------- -- ---- --- --<br>------- ------,325060,325051,324741.88,324742,324742.24,325060.76,,1,the
screen,html.Screen,2_1_1_1_2,2022-05-10T13:52:34.973Z,,,,,,,,,,,,,,,,,54,,,,,,,,,,,,,,162.2399999999907,,response,,,,100,,,,,,,Space,keypress(Space),,,,,,,,-- --- time --- ------ ----- ------- ---- -- --- ------- --<br>------- ---------- ------ -- ----- -- ----- -- ---- ------<br>--- ----- --- --- ------ -------- ----- --- ------ ----- --<br>----- ----- ---------- --- --- ------ ------ ---- -- ------<br>------- --- ------ ----- --- ---- ------- -- ---- --- --<br>------- ------,325229,325223,325060.2,325060,325060.76,325234.14,,2,time
screen,html.Screen,2_1_1_1_3,2022-05-10T13:52:35.152Z,,,,,,,,,,,,,,,,,54,,,,,,,,,,,,,,160.85999999998603,,response,,,,100,,,,,,,Space,keypress(Space),,,,,,,,-- --- ---- the ------ ----- ------- ---- -- --- ------- --<br>------- ---------- ------ -- ----- -- ----- -- ---- ------<br>--- ----- --- --- ------ -------- ----- --- ------ ----- --<br>----- ----- ---------- --- --- ------ ------ ---- -- ------<br>------- --- ------ ----- --- ---- ------- -- ---- --- --<br>------- ------,325408,325395,325228.86,325229,325234.14,325417.46,,3,the
screen,html.Screen,2_1_1_1_4,2022-05-10T13:52:35.348Z,,,,,,,,,,,,,,,,,54,,,,,,,,,,,,,,180.53999999997905,,response,,,,100,,,,,,,Space,keypress(Space),,,,,,,,-- --- ---- --- French ----- ------- ---- -- --- ------- --<br>------- ---------- ------ -- ----- -- ----- -- ---- ------<br>--- ----- --- --- ------ -------- ----- --- ------ ----- --<br>----- ----- ---------- --- --- ------ ------ ---- -- ------<br>------- --- ------ ----- --- ---- ------- -- ---- --- --<br>------- ------,325604,325598,325407.84,325408,325417.46,325617.46,,4,French
screen,html.Screen,2_1_1_1_5,2022-05-10T13:52:35.846Z,,,,,,,,,,,,,,,,,54,,,,,,,,,,,,,,480.53999999997905,,response,,,,100,,,,,,,Space,keypress(Space),,,,,,,,-- --- ---- --- ------ crown ------- ---- -- --- ------- --<br>------- ---------- ------ -- ----- -- ----- -- ---- ------<br>--- ----- --- --- ------ -------- ----- --- ------ ----- --<br>----- ----- ---------- --- --- ------ ------ ---- -- ------<br>------- --- ------ ----- --- ---- ------- -- ---- --- --<br>------- ------,326102,326098,325604.04,325604,325617.46,326102.78,,5,crown
screen,html.Screen,2_1_1_1_6,2022-05-10T13:52:36.185Z,,,,,,,,,,,,,,,,,54,,,,,,,,,,,,,,323.21999999997206,,response,,,,100,,,,,,,Space,keypress(Space),,,,,,,,-- --- ---- --- ------ ----- secured ---- -- --- ------- --<br>------- ---------- ------ -- ----- -- ----- -- ---- ------<br>--- ----- --- --- ------ -------- ----- --- ------ ----- --<br>----- ----- ---------- --- --- ------ ------ ---- -- ------<br>------- --- ------ ----- --- ---- ------- -- ---- --- --<br>------- ------,326441,326426,326102.18,326102,326102.78,326441.96,,6,secured
screen,html.Screen,2_1_1_1_7,2022-05-10T13:52:36.724Z,,,,,,,,,,,,,,,,,54,,,,,,,,,,,,,,531.039999999979,,response,,,,100,,,,,,,Space,keypress(Space),,,,,,,,-- --- ---- --- ------ ----- ------- much -- --- ------- --<br>------- ---------- ------ -- ----- -- ----- -- ---- ------<br>--- ----- --- --- ------ -------- ----- --- ------ ----- --<br>----- ----- ---------- --- --- ------ ------ ---- -- ------<br>------- --- ------ ----- --- ---- ------- -- ---- --- --<br>------- ------,326979,326973,326441.44,326442,326441.96,326980.66,,7,much
screen,html.Screen,2_1_1_1_8,2022-05-10T13:52:37.026Z,,,,,,,,,,,,,,,,,54,,,,,,,,,,,,,,289.3400000000256,,response,,,,100,,,,,,,Space,keypress(Space),,,,,,,,-- --- ---- --- ------ ----- ------- ---- of --- ------- --<br>------- ---------- ------ -- ----- -- ----- -- ---- ------<br>--- ----- --- --- ------ -------- ----- --- ------ ----- --<br>----- ----- ---------- --- --- ------ ------ ---- -- ------<br>------- --- ------ ----- --- ---- ------- -- ---- --- --<br>------- ------,327281,327270,326980.34,326980,326980.66,327284.14,,8,of
screen,html.Screen,2_1_1_1_9,2022-05-10T13:52:37.302Z,,,,,,,,,,,,,,,,,54,,,,,,,,,,,,,,266.85999999998603,,response,,,,100,,,,,,,Space,keypress(Space),,,,,,,,-- --- ---- --- ------ ----- ------- ---- -- its ------- --<br>------- ---------- ------ -- ----- -- ----- -- ---- ------<br>--- ----- --- --- ------ -------- ----- --- ------ ----- --<br>----- ----- ---------- --- --- ------ ------ ---- -- ------<br>------- --- ------ ----- --- ---- ------- -- ---- --- --<br>------- ------,327557,327551,327282.2,327282,327284.14,327558.36,,9,its
screen,html.Screen,2_1_1_1_10,2022-05-10T13:52:37.506Z,,,,,,,,,,,,,,,,,54,,,,,,,,,,,,,,195.64000000001397,,response,,,,100,,,,,,,Space,keypress(Space),,,,,,,,-- --- ---- --- ------ ----- ------- ---- -- --- revenue --<br>------- ---------- ------ -- ----- -- ----- -- ---- ------<br>--- ----- --- --- ------ -------- ----- --- ------ ----- --<br>----- ----- ---------- --- --- ------ ------ ---- -- ------<br>------- --- ------ ----- --- ---- ------- -- ---- --- --<br>------- ------,327762,327754,327557.8,327558,327558.36,327767.38,,10,revenue
screen,html.Screen,2_1_1_1_11,2022-05-10T13:52:37.722Z,,,,,,,,,,,,,,,,,54,,,,,,,,,,,,,,205.61999999999534,,response,,,,100,,,,,,,Space,keypress(Space),,,,,,,,-- --- ---- --- ------ ----- ------- ---- -- --- ------- by<br>------- ---------- ------ -- ----- -- ----- -- ---- ------<br>--- ----- --- --- ------ -------- ----- --- ------ ----- --<br>----- ----- ---------- --- --- ------ ------ ---- -- ------<br>------- --- ------ ----- --- ---- ------- -- ---- --- --<br>------- ------,327978,327973,327763.1,327763,327767.38,327978.84,,11,by
screen,html.Screen,2_1_1_1_12,2022-05-10T13:52:38.108Z,,,,,,,,,,,,,,,,,54,,,,,,,,,,,,,,369.1599999999744,,response,,,,100,,,,,,,Space,keypress(Space),,,,,,,,-- --- ---- --- ------ ----- ------- ---- -- --- ------- --<br>issuing ---------- ------ -- ----- -- ----- -- ---- ------<br>--- ----- --- --- ------ -------- ----- --- ------ ----- --<br>----- ----- ---------- --- --- ------ ------ ---- -- ------<br>------- --- ------ ----- --- ---- ------- -- ---- --- --<br>------- ------,328364,328348,327978.26,327978,327978.84,328364.5,,12,issuing
screen,html.Screen,2_1_1_1_13,2022-05-10T13:52:38.310Z,,,,,,,,,,,,,,,,,54,,,,,,,,,,,,,,187.5,,response,,,,100,,,,,,,Space,keypress(Space),,,,,,,,-- --- ---- --- ------ ----- ------- ---- -- --- ------- --<br>------- government ------ -- ----- -- ----- -- ---- ------<br>--- ----- --- --- ------ -------- ----- --- ------ ----- --<br>----- ----- ---------- --- --- ------ ------ ---- -- ------<br>------- --- ------ ----- --- ---- ------- -- ---- --- --<br>------- ------,328565,328552,328363.94,328364,328364.5,328567.38,,13,government
screen,html.Screen,2_1_1_1_14,2022-05-10T13:52:38.499Z,,,,,,,,,,,,,,,,,54,,,,,,,,,,,,,,170.61999999999534,,response,,,,100,,,,,,,Space,keypress(Space),,,,,,,,-- --- ---- --- ------ ----- ------- ---- -- --- ------- --<br>------- ---------- bonds. -- ----- -- ----- -- ---- ------<br>--- ----- --- --- ------ -------- ----- --- ------ ----- --<br>----- ----- ---------- --- --- ------ ------ ---- -- ------<br>------- --- ------ ----- --- ---- ------- -- ---- --- --<br>------- ------,328754,328738,328565.88,328565,328567.38,328755.58,,14,bonds.
screen,html.Screen,2_1_1_1_15,2022-05-10T13:52:39.000Z,,,,,,,,,,,,,,,,,54,,,,,,,,,,,,,,482.4199999999837,,response,,,,100,,,,,,,Space,keypress(Space),,,,,,,,-- --- ---- --- ------ ----- ------- ---- -- --- ------- --<br>------- ---------- ------ In ----- -- ----- -- ---- ------<br>--- ----- --- --- ------ -------- ----- --- ------ ----- --<br>----- ----- ---------- --- --- ------ ------ ---- -- ------<br>------- --- ------ ----- --- ---- ------- -- ---- --- --<br>------- ------,329256,329238,328755.02,328755,328755.58,329256.88,,15,In
screen,html.Screen,2_1_1_1_16,2022-05-10T13:52:39.307Z,,,,,,,,,,,,,,,,,54,,,,,,,,,,,,,,294.11999999999534,,response,,,,100,,,,,,,Space,keypress(Space),,,,,,,,"-- --- ---- --- ------ ----- ------- ---- -- --- ------- --<br>------- ---------- ------ -- 1727, -- ----- -- ---- ------<br>--- ----- --- --- ------ -------- ----- --- ------ ----- --<br>----- ----- ---------- --- --- ------ ------ ---- -- ------<br>------- --- ------ ----- --- ---- ------- -- ---- --- --<br>------- ------",329562,329551,329256.32,329256,329256.88,329563.44,,16,"1727,"
screen,html.Screen,2_1_1_1_17,2022-05-10T13:52:39.678Z,,,,,,,,,,,,,,,,,54,,,,,,,,,,,,,,362.5599999999977,,response,,,,100,,,,,,,Space,keypress(Space),,,,,,,,-- --- ---- --- ------ ----- ------- ---- -- --- ------- --<br>------- ---------- ------ -- ----- in ----- -- ---- ------<br>--- ----- --- --- ------ -------- ----- --- ------ ----- --<br>----- ----- ---------- --- --- ------ ------ ---- -- ------<br>------- --- ------ ----- --- ---- ------- -- ---- --- --<br>------- ------,329933,329926,329562.88,329563,329563.44,329934.46,,17,in
screen,html.Screen,2_1_1_1_18,2022-05-10T13:52:39.950Z,,,,,,,,,,,,,,,,,54,,,,,,,,,,,,,,257.53999999997905,,response,,,,100,,,,,,,Space,keypress(Space),,,,,,,,-- --- ---- --- ------ ----- ------- ---- -- --- ------- --<br>------- ---------- ------ -- ----- -- order -- ---- ------<br>--- ----- --- --- ------ -------- ----- --- ------ ----- --<br>----- ----- ---------- --- --- ------ ------ ---- -- ------<br>------- --- ------ ----- --- ---- ------- -- ---- --- --<br>------- ------,330206,330192,329933.78,329933,329934.46,330206.32,,18,order
screen,html.Screen,2_1_1_1_19,2022-05-10T13:52:40.191Z,,,,,,,,,,,,,,,,,54,,,,,,,,,,,,,,235.67999999999302,,response,,,,100,,,,,,,Space,keypress(Space),,,,,,,,-- --- ---- --- ------ ----- ------- ---- -- --- ------- --<br>------- ---------- ------ -- ----- -- ----- to ---- ------<br>--- ----- --- --- ------ -------- ----- --- ------ ----- --<br>----- ----- ---------- --- --- ------ ------ ---- -- ------<br>------- --- ------ ----- --- ---- ------- -- ---- --- --<br>------- ------,330446,330442,330206.02,330206,330206.32,330447.84,,19,to
screen,html.Screen,2_1_1_1_20,2022-05-10T13:52:40.411Z,,,,,,,,,,,,,,,,,54,,,,,,,,,,,,,,212.1599999999744,,response,,,,100,,,,,,,Space,keypress(Space),,,,,,,,-- --- ---- --- ------ ----- ------- ---- -- --- ------- --<br>------- ---------- ------ -- ----- -- ----- -- save ------<br>--- ----- --- --- ------ -------- ----- --- ------ ----- --<br>----- ----- ---------- --- --- ------ ------ ---- -- ------<br>------- --- ------ ----- --- ---- ------- -- ---- --- --<br>------- ------,330666,330660,330447.16,330447,330447.84,330667.24,,20,save
screen,html.Screen,2_1_1_1_21,2022-05-10T13:52:40.650Z,,,,,,,,,,,,,,,,,54,,,,,,,,,,,,,,228.7600000000093,,response,,,,100,,,,,,,Space,keypress(Space),,,,,,,,"-- --- ---- --- ------ ----- ------- ---- -- --- ------- --<br>------- ---------- ------ -- ----- -- ----- -- ---- money,<br>--- ----- --- --- ------ -------- ----- --- ------ ----- --<br>----- ----- ---------- --- --- ------ ------ ---- -- ------<br>------- --- ------ ----- --- ---- ------- -- ---- --- --<br>------- ------",330906,330896,330666.38,330666,330667.24,330906.32,,21,"money,"
screen,html.Screen,2_1_1_1_22,2022-05-10T13:52:41.019Z,,,,,,,,,,,,,,,,,54,,,,,,,,,,,,,,363.679999999993,,response,,,,100,,,,,,,Space,keypress(Space),,,,,,,,-- --- ---- --- ------ ----- ------- ---- -- --- ------- --<br>------- ---------- ------ -- ----- -- ----- -- ---- ------<br>the ----- --- --- ------ -------- ----- --- ------ ----- --<br>----- ----- ---------- --- --- ------ ------ ---- -- ------<br>------- --- ------ ----- --- ---- ------- -- ---- --- --<br>------- ------,331274,331270,330905.7,330906,330906.32,331275.56,,22,the
screen,html.Screen,2_1_1_1_23,2022-05-10T13:52:41.237Z,,,,,,,,,,,,,,,,,54,,,,,,,,,,,,,,212.44000000000233,,response,,,,100,,,,,,,Space,keypress(Space),,,,,,,,-- --- ---- --- ------ ----- ------- ---- -- --- ------- --<br>------- ---------- ------ -- ----- -- ----- -- ---- ------<br>--- state --- --- ------ -------- ----- --- ------ ----- --<br>----- ----- ---------- --- --- ------ ------ ---- -- ------<br>------- --- ------ ----- --- ---- ------- -- ---- --- --<br>------- ------,331493,331488,331275.04,331275,331275.56,331493.84,,23,state
screen,html.Screen,2_1_1_1_24,2022-05-10T13:52:41.460Z,,,,,,,,,,,,,,,,,54,,,,,,,,,,,,,,213.1599999999744,,response,,,,100,,,,,,,Space,keypress(Space),,,,,,,,-- --- ---- --- ------ ----- ------- ---- -- --- ------- --<br>------- ---------- ------ -- ----- -- ----- -- ---- ------<br>--- ----- cut --- ------ -------- ----- --- ------ ----- --<br>----- ----- ---------- --- --- ------ ------ ---- -- ------<br>------- --- ------ ----- --- ---- ------- -- ---- --- --<br>------- ------,331716,331707,331493.28,331493,331493.84,331716.54,,24,cut
screen,html.Screen,2_1_1_1_25,2022-05-10T13:52:41.636Z,,,,,,,,,,,,,,,,,54,,,,,,,,,,,,,,162.46000000002095,,response,,,,100,,,,,,,Space,keypress(Space),,,,,,,,-- --- ---- --- ------ ----- ------- ---- -- --- ------- --<br>------- ---------- ------ -- ----- -- ----- -- ---- ------<br>--- ----- --- the ------ -------- ----- --- ------ ----- --<br>----- ----- ---------- --- --- ------ ------ ---- -- ------<br>------- --- ------ ----- --- ---- ------- -- ---- --- --<br>------- ------,331891,331879,331715.96,331716,331716.54,331900.58,,25,the
screen,html.Screen,2_1_1_1_26,2022-05-10T13:52:41.835Z,,,,,,,,,,,,,,,,,54,,,,,,,,,,,,,,181.4199999999837,,response,,,,100,,,,,,,Space,keypress(Space),,,,,,,,-- --- ---- --- ------ ----- ------- ---- -- --- ------- --<br>------- ---------- ------ -- ----- -- ----- -- ---- ------<br>--- ----- --- --- bonds' -------- ----- --- ------ ----- --<br>----- ----- ---------- --- --- ------ ------ ---- -- ------<br>------- --- ------ ----- --- ---- ------- -- ---- --- --<br>------- ------,332091,332082,331891.54,331891,331900.58,332100.58,,26,bonds'
screen,html.Screen,2_1_1_1_27,2022-05-10T13:52:42.073Z,,,,,,,,,,,,,,,,,54,,,,,,,,,,,,,,216.4199999999837,,response,,,,100,,,,,,,Space,keypress(Space),,,,,,,,-- --- ---- --- ------ ----- ------- ---- -- --- ------- --<br>------- ---------- ------ -- ----- -- ----- -- ---- ------<br>--- ----- --- --- ------ interest ----- --- ------ ----- --<br>----- ----- ---------- --- --- ------ ------ ---- -- ------<br>------- --- ------ ----- --- ---- ------- -- ---- --- --<br>------- ------,332328,332317,332091.84,332092,332100.58,332329.2,,27,interest
screen,html.Screen,2_1_1_1_28,2022-05-10T13:52:42.292Z,,,,,,,,,,,,,,,,,54,,,,,,,,,,,,,,205.79999999998836,,response,,,,100,,,,,,,Space,keypress(Space),,,,,,,,-- --- ---- --- ------ ----- ------- ---- -- --- ------- --<br>------- ---------- ------ -- ----- -- ----- -- ---- ------<br>--- ----- --- --- ------ -------- rate. --- ------ ----- --<br>----- ----- ---------- --- --- ------ ------ ---- -- ------<br>------- --- ------ ----- --- ---- ------- -- ---- --- --<br>------- ------,332547,332535,332328.6,332328,332329.2,332548.58,,28,rate.
screen,html.Screen,2_1_1_1_29,2022-05-10T13:52:42.521Z,,,,,,,,,,,,,,,,,54,,,,,,,,,,,,,,221.4199999999837,,response,,,,100,,,,,,,Space,keypress(Space),,,,,,,,-- --- ---- --- ------ ----- ------- ---- -- --- ------- --<br>------- ---------- ------ -- ----- -- ----- -- ---- ------<br>--- ----- --- --- ------ -------- ----- The ------ ----- --<br>----- ----- ---------- --- --- ------ ------ ---- -- ------<br>------- --- ------ ----- --- ---- ------- -- ---- --- --<br>------- ------,332776,332770,332548,332548,332548.58,332776.72,,29,The
screen,html.Screen,2_1_1_1_30,2022-05-10T13:52:42.726Z,,,,,,,,,,,,,,,,,54,,,,,,,,,,,,,,196.28000000002794,,response,,,,100,,,,,,,Space,keypress(Space),,,,,,,,-- --- ---- --- ------ ----- ------- ---- -- --- ------- --<br>------- ---------- ------ -- ----- -- ----- -- ---- ------<br>--- ----- --- --- ------ -------- ----- --- market ----- --<br>----- ----- ---------- --- --- ------ ------ ---- -- ------<br>------- --- ------ ----- --- ---- ------- -- ---- --- --<br>------- ------,332982,332973,332776.16,332776,332776.72,332983.84,,30,market
screen,html.Screen,2_1_1_1_31,2022-05-10T13:52:42.958Z,,,,,,,,,,,,,,,,,54,,,,,,,,,,,,,,223.1599999999744,,response,,,,100,,,,,,,Space,keypress(Space),,,,,,,,-- --- ---- --- ------ ----- ------- ---- -- --- ------- --<br>------- ---------- ------ -- ----- -- ----- -- ---- ------<br>--- ----- --- --- ------ -------- ----- --- ------ value --<br>----- ----- ---------- --- --- ------ ------ ---- -- ------<br>------- --- ------ ----- --- ---- ------- -- ---- --- --<br>------- ------,333213,333207,332982.1,332982,332983.84,333214.68,,31,value
screen,html.Screen,2_1_1_1_32,2022-05-10T13:52:43.228Z,,,,,,,,,,,,,,,,,54,,,,,,,,,,,,,,258.320000000007,,response,,,,100,,,,,,,Space,keypress(Space),,,,,,,,-- --- ---- --- ------ ----- ------- ---- -- --- ------- --<br>------- ---------- ------ -- ----- -- ----- -- ---- ------<br>--- ----- --- --- ------ -------- ----- --- ------ ----- of<br>----- ----- ---------- --- --- ------ ------ ---- -- ------<br>------- --- ------ ----- --- ---- ------- -- ---- --- --<br>------- ------,333484,333473,333214,333214,333214.68,333484.8,,32,of
screen,html.Screen,2_1_1_1_33,2022-05-10T13:52:43.446Z,,,,,,,,,,,,,,,,,54,,,,,,,,,,,,,,208.20000000001164,,response,,,,100,,,,,,,Space,keypress(Space),,,,,,,,-- --- ---- --- ------ ----- ------- ---- -- --- ------- --<br>------- ---------- ------ -- ----- -- ----- -- ---- ------<br>--- ----- --- --- ------ -------- ----- --- ------ ----- --<br>these ----- ---------- --- --- ------ ------ ---- -- ------<br>------- --- ------ ----- --- ---- ------- -- ---- --- --<br>------- ------,333702,333693,333484.22,333484,333484.8,333702.92,,33,these
screen,html.Screen,2_1_1_1_34,2022-05-10T13:52:43.803Z,,,,,,,,,,,,,,,,,54,,,,,,,,,,,,,,348.0800000000163,,response,,,,100,,,,,,,Space,keypress(Space),,,,,,,,-- --- ---- --- ------ ----- ------- ---- -- --- ------- --<br>------- ---------- ------ -- ----- -- ----- -- ---- ------<br>--- ----- --- --- ------ -------- ----- --- ------ ----- --<br>----- bonds ---------- --- --- ------ ------ ---- -- ------<br>------- --- ------ ----- --- ---- ------- -- ---- --- --<br>------- ------,334059,334051,333702.28,333703,333702.92,334059.48,,34,bonds
screen,html.Screen,2_1_1_1_35,2022-05-10T13:52:43.974Z,,,,,,,,,,,,,,,,,54,,,,,,,,,,,,,,163.52000000001863,,response,,,,100,,,,,,,Space,keypress(Space),,,,,,,,"-- --- ---- --- ------ ----- ------- ---- -- --- ------- --<br>------- ---------- ------ -- ----- -- ----- -- ---- ------<br>--- ----- --- --- ------ -------- ----- --- ------ ----- --<br>----- ----- plummeted, --- --- ------ ------ ---- -- ------<br>------- --- ------ ----- --- ---- ------- -- ---- --- --<br>------- ------",334230,334223,334058.9,334059,334059.48,334233.82,,35,"plummeted,"
screen,html.Screen,2_1_1_1_36,2022-05-10T13:52:44.149Z,,,,,,,,,,,,,,,,,54,,,,,,,,,,,,,,161.17999999999302,,response,,,,100,,,,,,,Space,keypress(Space),,,,,,,,-- --- ---- --- ------ ----- ------- ---- -- --- ------- --<br>------- ---------- ------ -- ----- -- ----- -- ---- ------<br>--- ----- --- --- ------ -------- ----- --- ------ ----- --<br>----- ----- ---------- and --- ------ ------ ---- -- ------<br>------- --- ------ ----- --- ---- ------- -- ---- --- --<br>------- ------,334405,334395,334230.02,334230,334233.82,334417.14,,36,and
screen,html.Screen,2_1_1_1_37,2022-05-10T13:52:44.309Z,,,,,,,,,,,,,,,,,54,,,,,,,,,,,,,,133.85999999998603,,response,,,,100,,,,,,,Space,keypress(Space),,,,,,,,-- --- ---- --- ------ ----- ------- ---- -- --- ------- --<br>------- ---------- ------ -- ----- -- ----- -- ---- ------<br>--- ----- --- --- ------ -------- ----- --- ------ ----- --<br>----- ----- ---------- --- the ------ ------ ---- -- ------<br>------- --- ------ ----- --- ---- ------- -- ---- --- --<br>------- ------,334564,334551,334405.36,334405,334417.14,334567.12,,37,the
screen,html.Screen,2_1_1_1_38,2022-05-10T13:52:44.534Z,,,,,,,,,,,,,,,,,54,,,,,,,,,,,,,,217.88000000000466,,response,,,,100,,,,,,,Space,keypress(Space),,,,,,,,-- --- ---- --- ------ ----- ------- ---- -- --- ------- --<br>------- ---------- ------ -- ----- -- ----- -- ---- ------<br>--- ----- --- --- ------ -------- ----- --- ------ ----- --<br>----- ----- ---------- --- --- market ------ ---- -- ------<br>------- --- ------ ----- --- ---- ------- -- ---- --- --<br>------- ------,334790,334785,334564.98,334565,334567.12,334791.12,,38,market
screen,html.Screen,2_1_1_1_39,2022-05-10T13:52:44.737Z,,,,,,,,,,,,,,,,,54,,,,,,,,,,,,,,196.88000000000466,,response,,,,100,,,,,,,Space,keypress(Space),,,,,,,,-- --- ---- --- ------ ----- ------- ---- -- --- ------- --<br>------- ---------- ------ -- ----- -- ----- -- ---- ------<br>--- ----- --- --- ------ -------- ----- --- ------ ----- --<br>----- ----- ---------- --- --- ------ became ---- -- ------<br>------- --- ------ ----- --- ---- ------- -- ---- --- --<br>------- ------,334992,334988,334790.62,334791,334791.12,335000.46,,39,became
screen,html.Screen,2_1_1_1_40,2022-05-10T13:52:44.896Z,,,,,,,,,,,,,,,,,54,,,,,,,,,,,,,,144.53999999997905,,response,,,,100,,,,,,,Space,keypress(Space),,,,,,,,-- --- ---- --- ------ ----- ------- ---- -- --- ------- --<br>------- ---------- ------ -- ----- -- ----- -- ---- ------<br>--- ----- --- --- ------ -------- ----- --- ------ ----- --<br>----- ----- ---------- --- --- ------ ------ wary -- ------<br>------- --- ------ ----- --- ---- ------- -- ---- --- --<br>------- ------,335151,335145,334992.86,334993,335000.46,335167.06,,40,wary
screen,html.Screen,2_1_1_1_41,2022-05-10T13:52:45.109Z,,,,,,,,,,,,,,,,,54,,,,,,,,,,,,,,180.94000000000233,,response,,,,100,,,,,,,Space,keypress(Space),,,,,,,,-- --- ---- --- ------ ----- ------- ---- -- --- ------- --<br>------- ---------- ------ -- ----- -- ----- -- ---- ------<br>--- ----- --- --- ------ -------- ----- --- ------ ----- --<br>----- ----- ---------- --- --- ------ ------ ---- of ------<br>------- --- ------ ----- --- ---- ------- -- ---- --- --<br>------- ------,335365,335348,335151.66,335151,335167.06,335367.06,,41,of
screen,html.Screen,2_1_1_1_42,2022-05-10T13:52:45.345Z,,,,,,,,,,,,,,,,,54,,,,,,,,,,,,,,214.94000000000233,,response,,,,100,,,,,,,Space,keypress(Space),,,,,,,,-- --- ---- --- ------ ----- ------- ---- -- --- ------- --<br>------- ---------- ------ -- ----- -- ----- -- ---- ------<br>--- ----- --- --- ------ -------- ----- --- ------ ----- --<br>----- ----- ---------- --- --- ------ ------ ---- -- French<br>------- --- ------ ----- --- ---- ------- -- ---- --- --<br>------- ------,335601,335582,335364.68,335365,335367.06,335601.58,,42,French
screen,html.Screen,2_1_1_1_43,2022-05-10T13:52:45.624Z,,,,,,,,,,,,,,,,,54,,,,,,,,,,,,,,261.4199999999837,,response,,,,100,,,,,,,Space,keypress(Space),,,,,,,,-- --- ---- --- ------ ----- ------- ---- -- --- ------- --<br>------- ---------- ------ -- ----- -- ----- -- ---- ------<br>--- ----- --- --- ------ -------- ----- --- ------ ----- --<br>----- ----- ---------- --- --- ------ ------ ---- -- ------<br>credit. --- ------ ----- --- ---- ------- -- ---- --- --<br>------- ------,335880,335863,335600.98,335601,335601.58,335880.62,,43,credit.
screen,html.Screen,2_1_1_1_44,2022-05-10T13:52:45.843Z,,,,,,,,,,,,,,,,,54,,,,,,,,,,,,,,202.38000000000466,,response,,,,100,,,,,,,Space,keypress(Space),,,,,,,,-- --- ---- --- ------ ----- ------- ---- -- --- ------- --<br>------- ---------- ------ -- ----- -- ----- -- ---- ------<br>--- ----- --- --- ------ -------- ----- --- ------ ----- --<br>----- ----- ---------- --- --- ------ ------ ---- -- ------<br>------- The ------ ----- --- ---- ------- -- ---- --- --<br>------- ------,336099,336083,335879.94,335880,335880.62,336100.42,,44,The
screen,html.Screen,2_1_1_1_45,2022-05-10T13:52:46.080Z,,,,,,,,,,,,,,,,,54,,,,,,,,,,,,,,217.5800000000163,,response,,,,100,,,,,,,Space,keypress(Space),,,,,,,,-- --- ---- --- ------ ----- ------- ---- -- --- ------- --<br>------- ---------- ------ -- ----- -- ----- -- ---- ------<br>--- ----- --- --- ------ -------- ----- --- ------ ----- --<br>----- ----- ---------- --- --- ------ ------ ---- -- ------<br>------- --- French ----- --- ---- ------- -- ---- --- --<br>------- ------,336335,336318,336099.42,336099,336100.42,336336.02,,45,French
screen,html.Screen,2_1_1_1_46,2022-05-10T13:52:46.281Z,,,,,,,,,,,,,,,,,54,,,,,,,,,,,,,,183.97999999998137,,response,,,,100,,,,,,,Space,keypress(Space),,,,,,,,-- --- ---- --- ------ ----- ------- ---- -- --- ------- --<br>------- ---------- ------ -- ----- -- ----- -- ---- ------<br>--- ----- --- --- ------ -------- ----- --- ------ ----- --<br>----- ----- ---------- --- --- ------ ------ ---- -- ------<br>------- --- ------ state --- ---- ------- -- ---- --- --<br>------- ------,336537,336520,336335.4,336335,336336.02,336550.4,,46,state
screen,html.Screen,2_1_1_1_47,2022-05-10T13:52:46.465Z,,,,,,,,,,,,,,,,,54,,,,,,,,,,,,,,156.59999999997672,,response,,,,100,,,,,,,Space,keypress(Space),,,,,,,,-- --- ---- --- ------ ----- ------- ---- -- --- ------- --<br>------- ---------- ------ -- ----- -- ----- -- ---- ------<br>--- ----- --- --- ------ -------- ----- --- ------ ----- --<br>----- ----- ---------- --- --- ------ ------ ---- -- ------<br>------- --- ------ ----- was ---- ------- -- ---- --- --<br>------- ------,336721,336707,336537.32,336538,336550.4,336733.72,,47,was
screen,html.Screen,2_1_1_1_48,2022-05-10T13:52:46.660Z,,,,,,,,,,,,,,,,,54,,,,,,,,,,,,,,176.28000000002794,,response,,,,100,,,,,,,Space,keypress(Space),,,,,,,,-- --- ---- --- ------ ----- ------- ---- -- --- ------- --<br>------- ---------- ------ -- ----- -- ----- -- ---- ------<br>--- ----- --- --- ------ -------- ----- --- ------ ----- --<br>----- ----- ---------- --- --- ------ ------ ---- -- ------<br>------- --- ------ ----- --- left ------- -- ---- --- --<br>------- ------,336916,336910,336721.12,336721,336733.72,336916.96,,48,left
screen,html.Screen,2_1_1_1_49,2022-05-10T13:52:46.881Z,,,,,,,,,,,,,,,,,54,,,,,,,,,,,,,,212.03999999997905,,response,,,,100,,,,,,,Space,keypress(Space),,,,,,,,-- --- ---- --- ------ ----- ------- ---- -- --- ------- --<br>------- ---------- ------ -- ----- -- ----- -- ---- ------<br>--- ----- --- --- ------ -------- ----- --- ------ ----- --<br>----- ----- ---------- --- --- ------ ------ ---- -- ------<br>------- --- ------ ----- --- ---- without -- ---- --- --<br>------- ------,337136,337129,336916.12,336916,336916.96,337137.26,,49,without
screen,html.Screen,2_1_1_1_50,2022-05-10T13:52:47.101Z,,,,,,,,,,,,,,,,,54,,,,,,,,,,,,,,210.7399999999907,,response,,,,100,,,,,,,Space,keypress(Space),,,,,,,,-- --- ---- --- ------ ----- ------- ---- -- --- ------- --<br>------- ---------- ------ -- ----- -- ----- -- ---- ------<br>--- ----- --- --- ------ -------- ----- --- ------ ----- --<br>----- ----- ---------- --- --- ------ ------ ---- -- ------<br>------- --- ------ ----- --- ---- ------- an ---- --- --<br>------- ------,337356,337348,337136.64,337137,337137.26,337357.42,,50,an
screen,html.Screen,2_1_1_1_51,2022-05-10T13:52:47.315Z,,,,,,,,,,,,,,,,,54,,,,,,,,,,,,,,209.5800000000163,,response,,,,100,,,,,,,Space,keypress(Space),,,,,,,,-- --- ---- --- ------ ----- ------- ---- -- --- ------- --<br>------- ---------- ------ -- ----- -- ----- -- ---- ------<br>--- ----- --- --- ------ -------- ----- --- ------ ----- --<br>----- ----- ---------- --- --- ------ ------ ---- -- ------<br>------- --- ------ ----- --- ---- ------- -- easy --- --<br>------- ------,337569,337567,337356.88,337357,337357.42,337570.76,,51,easy
screen,html.Screen,2_1_1_1_52,2022-05-10T13:52:47.541Z,,,,,,,,,,,,,,,,,54,,,,,,,,,,,,,,214.2399999999907,,response,,,,100,,,,,,,Space,keypress(Space),,,,,,,,-- --- ---- --- ------ ----- ------- ---- -- --- ------- --<br>------- ---------- ------ -- ----- -- ----- -- ---- ------<br>--- ----- --- --- ------ -------- ----- --- ------ ----- --<br>----- ----- ---------- --- --- ------ ------ ---- -- ------<br>------- --- ------ ----- --- ---- ------- -- ---- way --<br>------- ------,337798,337785,337570.28,337570,337570.76,337798.18,,52,way
screen,html.Screen,2_1_1_1_53,2022-05-10T13:52:47.886Z,,,,,,,,,,,,,,,,,54,,,,,,,,,,,,,,330.820000000007,,response,,,,100,,,,,,,Space,keypress(Space),,,,,,,,-- --- ---- --- ------ ----- ------- ---- -- --- ------- --<br>------- ---------- ------ -- ----- -- ----- -- ---- ------<br>--- ----- --- --- ------ -------- ----- --- ------ ----- --<br>----- ----- ---------- --- --- ------ ------ ---- -- ------<br>------- --- ------ ----- --- ---- ------- -- ---- --- of<br>------- ------,338141,338129,337797.76,337798,337798.18,338141.98,,53,of
screen,html.Screen,2_1_1_1_54,2022-05-10T13:52:48.210Z,,,,,,,,,,,,,,,,,54,,,,,,,,,,,,,,315.0200000000186,,response,,,,100,,,,,,,Space,keypress(Space),,,,,,,,-- --- ---- --- ------ ----- ------- ---- -- --- ------- --<br>------- ---------- ------ -- ----- -- ----- -- ---- ------<br>--- ----- --- --- ------ -------- ----- --- ------ ----- --<br>----- ----- ---------- --- --- ------ ------ ---- -- ------<br>------- --- ------ ----- --- ---- ------- -- ---- --- --<br>raising ------,338466,338457,338141.36,338141,338141.98,338466.84,,54,raising
screen,html.Screen,2_1_1_1_55,2022-05-10T13:52:48.520Z,,,,,,,,,,,,,,,,,54,,,,,,,,,,,,,,303.1599999999744,,response,,,,100,,,,,,,Space,keypress(Space),,,,,,,,-- --- ---- --- ------ ----- ------- ---- -- --- ------- --<br>------- ---------- ------ -- ----- -- ----- -- ---- ------<br>--- ----- --- --- ------ -------- ----- --- ------ ----- --<br>----- ----- ---------- --- --- ------ ------ ---- -- ------<br>------- --- ------ ----- --- ---- ------- -- ---- --- --<br>------- money.,338776,338770,338466.24,338466,338466.84,338776.58,,55,money.
Item 100,flow.Loop,2_1_1_1,2022-05-10T13:52:48.520Z,,,,,,,,,,,,,,,,,,,,,,,,,,,,,,,14435.780000000028,,completion,,,,,B,,,,,,,,,,,silence,,,,,338776,338770,324317.56,324319,324334.22,338776.58,,,
Question 1,html.Screen,2_1_1_2,2022-05-10T13:52:51.574Z,,,,,,,,,,,,,,,,,,,,,,,,,,,,true,TRUE,,3040.4199999999837,,response,,,,100,B,,,,,,TRUE,click #choice-1,,,,silence,,,,,341829,341817,338776.02,338776,338776.58,341833.56,,,
Question 2,html.Screen,2_1_1_3,2022-05-10T13:52:53.740Z,,,,,,,,,,,,,,,,,,,,,,,,,,,,true,FALSE,,2154.4400000000023,,response,,,,100,B,,,,,,FALSE,click #choice-2,,,,silence,,,,,343995,343988,341828.58,341830,341833.56,344000,,,
Item 100,flow.Sequence,2_1_1,2022-05-10T13:52:53.740Z,,,,,,,,,,,,,,,,,,,,,,,,,,,,,,,29653.380000000005,,completion,,,,,,,,,,,,,,,,,,,,,343996,343988,314321.92,314324,314334.62,344000,,,
End of Practice,html.Page,2_1_2,2022-05-10T13:52:57.524Z,,,,,,,,,,,,,,,,,,,,,,,,,,,,,,,3779,,form submission,,,,,,,,,,,,,,,,,,,,,347779,347779,343993.9,343996,344000,347783.34,,,
Practice,flow.Sequence,2_1,2022-05-10T13:52:57.524Z,,,,,,,,,,,,,,,,,,,,,,,,,,,,,,,71676.15999999997,,completion,,,,,,,,,,,,,,,,,,,,,347780,347779,276097.62,276107,276102.84,347783.34,,,
Trap_instruction,html.Page,2_2_0,2022-05-10T13:52:59.997Z,,,,,,,,,,,,,,,,,,,,,,,,,,,,,,,2469.6599999999744,,form submission,,,,,,,,,,,,,,,,,,,,,350253,350253,347772.1,347781,347783.34,350299.76,,,
trap_trial,html.Screen,2_2_1,2022-05-10T13:53:03.342Z,,,,,,,,,,,,,,,,,,,,,,,,,,,,true,1,,3283.2399999999907,,response,,,,,,,,,,,1,click #choice-1,,,,,,,,,353598,353583,350247.46,350253,350299.76,353599.64,,,
end of trap trial,html.Page,2_2_2,2022-05-10T13:53:05.136Z,,,,,,,,,,,,,,,,,,,,,,,,,,,,,,,1790.359999999986,,form submission,,,,,,,,,,,,,,,,,,,,,355391,355390,353597.7,353599,353599.64,355399.5,,,
Trap 1,flow.Sequence,2_2,2022-05-10T13:53:05.136Z,,,,,,,,,,,,,,,,,,,,,,,,,,,,,,,7606.659999999974,,completion,,,,,,,,,,,,,,,,,,,,,355391,355390,347772.1,347780,347783.34,355399.5,,,
Standby,html.Page,2_3_0,2022-05-10T13:53:13.128Z,,,,,,,,,,,,,,,,,,,,,,,,,,,,,,,7999.739999999991,,timeout,,,,,,,,,,,,,,,,,,,,,363384,363382.66,355385.48,355392,355399.5,363399.24,,,
Holding screen,html.Screen,2_3_1_0_0,2022-05-10T13:53:20.128Z,,,,,,,,,,,,,,,,,,,,,,,,,,,,,,,6999.780000000028,,timeout,,,,,,,,,,,,,,,,,,,,,370384,370382.34,363382.66,363384,363399.24,370399.02,,,
screen,html.Screen,2_3_1_0_1_0,2022-05-10T13:53:21.478Z,,,,,,,,,,,,,,,,,40,,,,,,,,,,,,,,1323.9799999999814,,response,,,,9,B,,,,,,Space,keypress(Space),,,,lyrical,,,,Police -- ------- ---- ---- ---- - -------- ----- --- --<br>----- ----- ------ -- ---- -- --- - ---- -- - ----- -----<br>------ ---- ------ ---- - -------- ------- -- --- --------<br>-------- ----------- ---- ------ ---- ------ ---- --- ---<br>-------- --- -----,371733,371723,370382.34,370384,370399.02,371733.92,,0,Police
screen,html.Screen,2_3_1_0_1_1,2022-05-10T13:53:21.851Z,,,,,,,,,,,,,,,,,40,,,,,,,,,,,,,,364.0800000000163,,response,,,,9,B,,,,,,Space,keypress(Space),,,,lyrical,,,,------ in ------- ---- ---- ---- - -------- ----- --- --<br>----- ----- ------ -- ---- -- --- - ---- -- - ----- -----<br>------ ---- ------ ---- - -------- ------- -- --- --------<br>-------- ----------- ---- ------ ---- ------ ---- --- ---<br>-------- --- -----,372106,372098,371733.34,371733,371733.92,372107.52,,1,in
screen,html.Screen,2_3_1_0_1_2,2022-05-10T13:53:22.212Z,,,,,,,,,,,,,,,,,40,,,,,,,,,,,,,,349.4799999999814,,response,,,,9,B,,,,,,Space,keypress(Space),,,,lyrical,,,,------ -- Georgia ---- ---- ---- - -------- ----- --- --<br>----- ----- ------ -- ---- -- --- - ---- -- - ----- -----<br>------ ---- ------ ---- - -------- ------- -- --- --------<br>-------- ----------- ---- ------ ---- ------ ---- --- ---<br>-------- --- -----,372468,372457,372106.96,372107,372107.52,372469.04,,2,Georgia
screen,html.Screen,2_3_1_0_1_3,2022-05-10T13:53:22.836Z,,,,,,,,,,,,,,,,,40,,,,,,,,,,,,,,612.960000000021,,response,,,,9,B,,,,,,Space,keypress(Space),,,,lyrical,,,,------ -- ------- have ---- ---- - -------- ----- --- --<br>----- ----- ------ -- ---- -- --- - ---- -- - ----- -----<br>------ ---- ------ ---- - -------- ------- -- --- --------<br>-------- ----------- ---- ------ ---- ------ ---- --- ---<br>-------- --- -----,373091,373082,372468.46,372468,372469.04,373091.78,,3,have
screen,html.Screen,2_3_1_0_1_4,2022-05-10T13:53:23.148Z,,,,,,,,,,,,,,,,,40,,,,,,,,,,,,,,303.21999999997206,,response,,,,9,B,,,,,,Space,keypress(Space),,,,lyrical,,,,------ -- ------- ---- shut ---- - -------- ----- --- --<br>----- ----- ------ -- ---- -- --- - ---- -- - ----- -----<br>------ ---- ------ ---- - -------- ------- -- --- --------<br>-------- ----------- ---- ------ ---- ------ ---- --- ---<br>-------- --- -----,373404,373395,373091.2,373091,373091.78,373404.22,,4,shut
screen,html.Screen,2_3_1_0_1_5,2022-05-10T13:53:23.427Z,,,,,,,,,,,,,,,,,40,,,,,,,,,,,,,,271.78000000002794,,response,,,,9,B,,,,,,Space,keypress(Space),,,,lyrical,,,,------ -- ------- ---- ---- down - -------- ----- --- --<br>----- ----- ------ -- ---- -- --- - ---- -- - ----- -----<br>------ ---- ------ ---- - -------- ------- -- --- --------<br>-------- ----------- ---- ------ ---- ------ ---- --- ---<br>-------- --- -----,373682,373676,373403.96,373404,373404.22,373683.44,,5,down
screen,html.Screen,2_3_1_0_1_6,2022-05-10T13:53:23.744Z,,,,,,,,,,,,,,,,,40,,,,,,,,,,,,,,304.5599999999977,,response,,,,9,B,,,,,,Space,keypress(Space),,,,lyrical,,,,------ -- ------- ---- ---- ---- a -------- ----- --- --<br>----- ----- ------ -- ---- -- --- - ---- -- - ----- -----<br>------ ---- ------ ---- - -------- ------- -- --- --------<br>-------- ----------- ---- ------ ---- ------ ---- --- ---<br>-------- --- -----,374000,373988,373682.82,373682,373683.44,374000.56,,6,a
screen,html.Screen,2_3_1_0_1_7,2022-05-10T13:53:24.415Z,,,,,,,,,,,,,,,,,40,,,,,,,,,,,,,,659.4400000000023,,response,,,,9,B,,,,,,Space,keypress(Space),,,,lyrical,,,,------ -- ------- ---- ---- ---- - lemonade ----- --- --<br>----- ----- ------ -- ---- -- --- - ---- -- - ----- -----<br>------ ---- ------ ---- - -------- ------- -- --- --------<br>-------- ----------- ---- ------ ---- ------ ---- --- ---<br>-------- --- -----,374671,374660,374000.02,374000,374000.56,374672.2,,7,lemonade
screen,html.Screen,2_3_1_0_1_8,2022-05-10T13:53:24.760Z,,,,,,,,,,,,,,,,,40,,,,,,,,,,,,,,331.79999999998836,,response,,,,9,B,,,,,,Space,keypress(Space),,,,lyrical,,,,------ -- ------- ---- ---- ---- - -------- stand --- --<br>----- ----- ------ -- ---- -- --- - ---- -- - ----- -----<br>------ ---- ------ ---- - -------- ------- -- --- --------<br>-------- ----------- ---- ------ ---- ------ ---- --- ---<br>-------- --- -----,375015,375004,374671.6,374672,374672.2,375016.36,,8,stand
screen,html.Screen,2_3_1_0_1_9,2022-05-10T13:53:25.077Z,,,,,,,,,,,,,,,,,40,,,,,,,,,,,,,,300.64000000001397,,response,,,,9,B,,,,,,Space,keypress(Space),,,,lyrical,,,,------ -- ------- ---- ---- ---- - -------- ----- run --<br>----- ----- ------ -- ---- -- --- - ---- -- - ----- -----<br>------ ---- ------ ---- - -------- ------- -- --- --------<br>-------- ----------- ---- ------ ---- ------ ---- --- ---<br>-------- --- -----,375332,375317,375015.74,375016,375016.36,375333.04,,9,run
screen,html.Screen,2_3_1_0_1_10,2022-05-10T13:53:25.350Z,,,,,,,,,,,,,,,,,40,,,,,,,,,,,,,,264.96000000002095,,response,,,,9,B,,,,,,Space,keypress(Space),,,,lyrical,,,,------ -- ------- ---- ---- ---- - -------- ----- --- by<br>----- ----- ------ -- ---- -- --- - ---- -- - ----- -----<br>------ ---- ------ ---- - -------- ------- -- --- --------<br>-------- ----------- ---- ------ ---- ------ ---- --- ---<br>-------- --- -----,375606,375598,375332.44,375332,375333.04,375606.5,,10,by
screen,html.Screen,2_3_1_0_1_11,2022-05-10T13:53:25.690Z,,,,,,,,,,,,,,,,,40,,,,,,,,,,,,,,335.5,,response,,,,9,B,,,,,,Space,keypress(Space),,,,lyrical,,,,------ -- ------- ---- ---- ---- - -------- ----- --- --<br>three ----- ------ -- ---- -- --- - ---- -- - ----- -----<br>------ ---- ------ ---- - -------- ------- -- --- --------<br>-------- ----------- ---- ------ ---- ------ ---- --- ---<br>-------- --- -----,375946,375942,375606.12,375606,375606.5,375946.52,,11,three
screen,html.Screen,2_3_1_0_1_12,2022-05-10T13:53:25.909Z,,,,,,,,,,,,,,,,,40,,,,,,,,,,,,,,213.47999999998137,,response,,,,9,B,,,,,,Space,keypress(Space),,,,lyrical,,,,------ -- ------- ---- ---- ---- - -------- ----- --- --<br>----- girls ------ -- ---- -- --- - ---- -- - ----- -----<br>------ ---- ------ ---- - -------- ------- -- --- --------<br>-------- ----------- ---- ------ ---- ------ ---- --- ---<br>-------- --- -----,376164,376160,375945.96,375946,375946.52,376165.44,,12,girls
screen,html.Screen,2_3_1_0_1_13,2022-05-10T13:53:26.111Z,,,,,,,,,,,,,,,,,40,,,,,,,,,,,,,,197.55999999999767,,response,,,,9,B,,,,,,Space,keypress(Space),,,,lyrical,,,,------ -- ------- ---- ---- ---- - -------- ----- --- --<br>----- ----- trying -- ---- -- --- - ---- -- - ----- -----<br>------ ---- ------ ---- - -------- ------- -- --- --------<br>-------- ----------- ---- ------ ---- ------ ---- --- ---<br>-------- --- -----,376367,376363,376164.76,376164,376165.44,376382.1,,13,trying
screen,html.Screen,2_3_1_0_1_14,2022-05-10T13:53:26.404Z,,,,,,,,,,,,,,,,,40,,,,,,,,,,,,,,262.9000000000233,,response,,,,9,B,,,,,,Space,keypress(Space),,,,lyrical,,,,------ -- ------- ---- ---- ---- - -------- ----- --- --<br>----- ----- ------ to ---- -- --- - ---- -- - ----- -----<br>------ ---- ------ ---- - -------- ------- -- --- --------<br>-------- ----------- ---- ------ ---- ------ ---- --- ---<br>-------- --- -----,376659,376645,376366.76,376367,376382.1,376660.14,,14,to
screen,html.Screen,2_3_1_0_1_15,2022-05-10T13:53:26.613Z,,,,,,,,,,,,,,,,,40,,,,,,,,,,,,,,202.85999999998603,,response,,,,9,B,,,,,,Space,keypress(Space),,,,lyrical,,,,------ -- ------- ---- ---- ---- - -------- ----- --- --<br>----- ----- ------ -- save -- --- - ---- -- - ----- -----<br>------ ---- ------ ---- - -------- ------- -- --- --------<br>-------- ----------- ---- ------ ---- ------ ---- --- ---<br>-------- --- -----,376868,376863,376659.56,376660,376660.14,376869.86,,15,save
screen,html.Screen,2_3_1_0_1_16,2022-05-10T13:53:26.821Z,,,,,,,,,,,,,,,,,40,,,,,,,,,,,,,,197.14000000001397,,response,,,,9,B,,,,,,Space,keypress(Space),,,,lyrical,,,,------ -- ------- ---- ---- ---- - -------- ----- --- --<br>----- ----- ------ -- ---- up --- - ---- -- - ----- -----<br>------ ---- ------ ---- - -------- ------- -- --- --------<br>-------- ----------- ---- ------ ---- ------ ---- --- ---<br>-------- --- -----,377076,377067,376869.3,376869,376869.86,377082.06,,16,up
screen,html.Screen,2_3_1_0_1_17,2022-05-10T13:53:27.037Z,,,,,,,,,,,,,,,,,40,,,,,,,,,,,,,,202.94000000000233,,response,,,,9,B,,,,,,Space,keypress(Space),,,,lyrical,,,,------ -- ------- ---- ---- ---- - -------- ----- --- --<br>----- ----- ------ -- ---- -- for - ---- -- - ----- -----<br>------ ---- ------ ---- - -------- ------- -- --- --------<br>-------- ----------- ---- ------ ---- ------ ---- --- ---<br>-------- --- -----,377293,377285,377076.36,377077,377082.06,377293.94,,17,for
screen,html.Screen,2_3_1_0_1_18,2022-05-10T13:53:27.268Z,,,,,,,,,,,,,,,,,40,,,,,,,,,,,,,,226.05999999999767,,response,,,,9,B,,,,,,Space,keypress(Space),,,,lyrical,,,,------ -- ------- ---- ---- ---- - -------- ----- --- --<br>----- ----- ------ -- ---- -- --- a ---- -- - ----- -----<br>------ ---- ------ ---- - -------- ------- -- --- --------<br>-------- ----------- ---- ------ ---- ------ ---- --- ---<br>-------- --- -----,377524,377520,377293.32,377293,377293.94,377524.5,,18,a
screen,html.Screen,2_3_1_0_1_19,2022-05-10T13:53:27.461Z,,,,,,,,,,,,,,,,,40,,,,,,,,,,,,,,182.5,,response,,,,9,B,,,,,,Space,keypress(Space),,,,lyrical,,,,------ -- ------- ---- ---- ---- - -------- ----- --- --<br>----- ----- ------ -- ---- -- --- - trip -- - ----- -----<br>------ ---- ------ ---- - -------- ------- -- --- --------<br>-------- ----------- ---- ------ ---- ------ ---- --- ---<br>-------- --- -----,377716,377707,377523.88,377524,377524.5,377732.06,,19,trip
screen,html.Screen,2_3_1_0_1_20,2022-05-10T13:53:27.634Z,,,,,,,,,,,,,,,,,40,,,,,,,,,,,,,,146.94000000000233,,response,,,,9,B,,,,,,Space,keypress(Space),,,,lyrical,,,,------ -- ------- ---- ---- ---- - -------- ----- --- --<br>----- ----- ------ -- ---- -- --- - ---- to - ----- -----<br>------ ---- ------ ---- - -------- ------- -- --- --------<br>-------- ----------- ---- ------ ---- ------ ---- --- ---<br>-------- --- -----,377889,377879,377716.38,377717,377732.06,377898.66,,20,to
screen,html.Screen,2_3_1_0_1_21,2022-05-10T13:53:27.805Z,,,,,,,,,,,,,,,,,40,,,,,,,,,,,,,,152.3400000000256,,response,,,,9,B,,,,,,Space,keypress(Space),,,,lyrical,,,,------ -- ------- ---- ---- ---- - -------- ----- --- --<br>----- ----- ------ -- ---- -- --- - ---- -- a ----- -----<br>------ ---- ------ ---- - -------- ------- -- --- --------<br>-------- ----------- ---- ------ ---- ------ ---- --- ---<br>-------- --- -----,378059,378051,377889.4,377889,377898.66,378065.32,,21,a
screen,html.Screen,2_3_1_0_1_22,2022-05-10T13:53:28.040Z,,,,,,,,,,,,,,,,,40,,,,,,,,,,,,,,219.67999999999302,,response,,,,9,B,,,,,,Space,keypress(Space),,,,lyrical,,,,------ -- ------- ---- ---- ---- - -------- ----- --- --<br>----- ----- ------ -- ---- -- --- - ---- -- - water -----<br>------ ---- ------ ---- - -------- ------- -- --- --------<br>-------- ----------- ---- ------ ---- ------ ---- --- ---<br>-------- --- -----,378295,378285,378059.96,378060,378065.32,378296.66,,22,water
screen,html.Screen,2_3_1_0_1_23,2022-05-10T13:53:28.224Z,,,,,,,,,,,,,,,,,40,,,,,,,,,,,,,,176.3400000000256,,response,,,,9,B,,,,,,Space,keypress(Space),,,,lyrical,,,,"------ -- ------- ---- ---- ---- - -------- ----- --- --<br>----- ----- ------ -- ---- -- --- - ---- -- - ----- park,<br>------ ---- ------ ---- - -------- ------- -- --- --------<br>-------- ----------- ---- ------ ---- ------ ---- --- ---<br>-------- --- -----",378479,378473,378295.68,378295,378296.66,378482.06,,23,"park,"
screen,html.Screen,2_3_1_0_1_24,2022-05-10T13:53:28.396Z,,,,,,,,,,,,,,,,,40,,,,,,,,,,,,,,162.94000000000233,,response,,,,9,B,,,,,,Space,keypress(Space),,,,lyrical,,,,------ -- ------- ---- ---- ---- - -------- ----- --- --<br>----- ----- ------ -- ---- -- --- - ---- -- - ----- -----<br>saying ---- ------ ---- - -------- ------- -- --- --------<br>-------- ----------- ---- ------ ---- ------ ---- --- ---<br>-------- --- -----,378652,378645,378479.74,378479,378482.06,378653.06,,24,saying
screen,html.Screen,2_3_1_0_1_25,2022-05-10T13:53:28.588Z,,,,,,,,,,,,,,,,,40,,,,,,,,,,,,,,178.94000000000233,,response,,,,9,B,,,,,,Space,keypress(Space),,,,lyrical,,,,------ -- ------- ---- ---- ---- - -------- ----- --- --<br>----- ----- ------ -- ---- -- --- - ---- -- - ----- -----<br>------ they ------ ---- - -------- ------- -- --- --------<br>-------- ----------- ---- ------ ---- ------ ---- --- ---<br>-------- --- -----,378843,378832,378652.44,378653,378653.06,378848.7,,25,they
screen,html.Screen,2_3_1_0_1_26,2022-05-10T13:53:29.336Z,,,,,,,,,,,,,,,,,40,,,,,,,,,,,,,,733.2999999999884,,response,,,,9,B,,,,,,Space,keypress(Space),,,,lyrical,,,,------ -- ------- ---- ---- ---- - -------- ----- --- --<br>----- ----- ------ -- ---- -- --- - ---- -- - ----- -----<br>------ ---- didn't ---- - -------- ------- -- --- --------<br>-------- ----------- ---- ------ ---- ------ ---- --- ---<br>-------- --- -----,379591,379582,378843.8,378844,378848.7,379591.82,,26,didn't
screen,html.Screen,2_3_1_0_1_27,2022-05-10T13:53:29.598Z,,,,,,,,,,,,,,,,,40,,,,,,,,,,,,,,256.179999999993,,response,,,,9,B,,,,,,Space,keypress(Space),,,,lyrical,,,,------ -- ------- ---- ---- ---- - -------- ----- --- --<br>----- ----- ------ -- ---- -- --- - ---- -- - ----- -----<br>------ ---- ------ have - -------- ------- -- --- --------<br>-------- ----------- ---- ------ ---- ------ ---- --- ---<br>-------- --- -----,379854,379848,379591.22,379591,379591.82,379854.78,,27,have
screen,html.Screen,2_3_1_0_1_28,2022-05-10T13:53:29.811Z,,,,,,,,,,,,,,,,,40,,,,,,,,,,,,,,196.21999999997206,,response,,,,9,B,,,,,,Space,keypress(Space),,,,lyrical,,,,------ -- ------- ---- ---- ---- - -------- ----- --- --<br>----- ----- ------ -- ---- -- --- - ---- -- - ----- -----<br>------ ---- ------ ---- a -------- ------- -- --- --------<br>-------- ----------- ---- ------ ---- ------ ---- --- ---<br>-------- --- -----,380067,380051,379854.16,379854,379854.78,380067.46,,28,a
screen,html.Screen,2_3_1_0_1_29,2022-05-10T13:53:30.045Z,,,,,,,,,,,,,,,,,40,,,,,,,,,,,,,,217.53999999997905,,response,,,,9,B,,,,,,Space,keypress(Space),,,,lyrical,,,,------ -- ------- ---- ---- ---- - -------- ----- --- --<br>----- ----- ------ -- ---- -- --- - ---- -- - ----- -----<br>------ ---- ------ ---- - business ------- -- --- --------<br>-------- ----------- ---- ------ ---- ------ ---- --- ---<br>-------- --- -----,380301,380285,380067.12,380067,380067.46,380301.7,,29,business
screen,html.Screen,2_3_1_0_1_30,2022-05-10T13:53:30.291Z,,,,,,,,,,,,,,,,,40,,,,,,,,,,,,,,233.29999999998836,,response,,,,9,B,,,,,,Space,keypress(Space),,,,lyrical,,,,------ -- ------- ---- ---- ---- - -------- ----- --- --<br>----- ----- ------ -- ---- -- --- - ---- -- - ----- -----<br>------ ---- ------ ---- - -------- license -- --- --------<br>-------- ----------- ---- ------ ---- ------ ---- --- ---<br>-------- --- -----,380546,380535,380301.16,380301,380301.7,380547.24,,30,license
screen,html.Screen,2_3_1_0_1_31,2022-05-10T13:53:30.607Z,,,,,,,,,,,,,,,,,40,,,,,,,,,,,,,,300.7600000000093,,response,,,,9,B,,,,,,Space,keypress(Space),,,,lyrical,,,,------ -- ------- ---- ---- ---- - -------- ----- --- --<br>----- ----- ------ -- ---- -- --- - ---- -- - ----- -----<br>------ ---- ------ ---- - -------- ------- or --- --------<br>-------- ----------- ---- ------ ---- ------ ---- --- ---<br>-------- --- -----,380862,380848,380546.64,380547,380547.24,380862.76,,31,or
screen,html.Screen,2_3_1_0_1_32,2022-05-10T13:53:30.861Z,,,,,,,,,,,,,,,,,40,,,,,,,,,,,,,,250.2399999999907,,response,,,,9,B,,,,,,Space,keypress(Space),,,,lyrical,,,,------ -- ------- ---- ---- ---- - -------- ----- --- --<br>----- ----- ------ -- ---- -- --- - ---- -- - ----- -----<br>------ ---- ------ ---- - -------- ------- -- the --------<br>-------- ----------- ---- ------ ---- ------ ---- --- ---<br>-------- --- -----,381117,381113,380862.18,380862,380862.76,381118.04,,32,the
screen,html.Screen,2_3_1_0_1_33,2022-05-10T13:53:31.056Z,,,,,,,,,,,,,,,,,40,,,,,,,,,,,,,,182.96000000002095,,response,,,,9,B,,,,,,Space,keypress(Space),,,,lyrical,,,,------ -- ------- ---- ---- ---- - -------- ----- --- --<br>----- ----- ------ -- ---- -- --- - ---- -- - ----- -----<br>------ ---- ------ ---- - -------- ------- -- --- required<br>-------- ----------- ---- ------ ---- ------ ---- --- ---<br>-------- --- -----,381311,381301,381117.5,381117,381118.04,381315.22,,33,required
screen,html.Screen,2_3_1_0_1_34,2022-05-10T13:53:31.575Z,,,,,,,,,,,,,,,,,40,,,,,,,,,,,,,,501.78000000002794,,response,,,,9,B,,,,,,Space,keypress(Space),,,,lyrical,,,,------ -- ------- ---- ---- ---- - -------- ----- --- --<br>----- ----- ------ -- ---- -- --- - ---- -- - ----- -----<br>------ ---- ------ ---- - -------- ------- -- --- --------<br>permits. ----------- ---- ------ ---- ------ ---- --- ---<br>-------- --- -----,381831,381817,381311.8,381312,381315.22,381831.94,,34,permits.
screen,html.Screen,2_3_1_0_1_35,2022-05-10T13:53:31.807Z,,,,,,,,,,,,,,,,,40,,,,,,,,,,,,,,219.05999999999767,,response,,,,9,B,,,,,,Space,keypress(Space),,,,lyrical,,,,------ -- ------- ---- ---- ---- - -------- ----- --- --<br>----- ----- ------ -- ---- -- --- - ---- -- - ----- -----<br>------ ---- ------ ---- - -------- ------- -- --- --------<br>-------- Morningstar ---- ------ ---- ------ ---- --- ---<br>-------- --- -----,382062,382051,381831.3,381831,381831.94,382062.92,,35,Morningstar
screen,html.Screen,2_3_1_0_1_36,2022-05-10T13:53:32.150Z,,,,,,,,,,,,,,,,,40,,,,,,,,,,,,,,332.0800000000163,,response,,,,9,B,,,,,,Space,keypress(Space),,,,lyrical,,,,------ -- ------- ---- ---- ---- - -------- ----- --- --<br>----- ----- ------ -- ---- -- --- - ---- -- - ----- -----<br>------ ---- ------ ---- - -------- ------- -- --- --------<br>-------- ----------- says ------ ---- ------ ---- --- ---<br>-------- --- -----,382406,382395,382062.42,382062,382062.92,382410.18,,36,says
screen,html.Screen,2_3_1_0_1_37,2022-05-10T13:53:32.444Z,,,,,,,,,,,,,,,,,40,,,,,,,,,,,,,,281.820000000007,,response,,,,9,B,,,,,,Space,keypress(Space),,,,lyrical,,,,------ -- ------- ---- ---- ---- - -------- ----- --- --<br>----- ----- ------ -- ---- -- --- - ---- -- - ----- -----<br>------ ---- ------ ---- - -------- ------- -- --- --------<br>-------- ----------- ---- police ---- ------ ---- --- ---<br>-------- --- -----,382700,382692,382409.58,382409,382410.18,382701.66,,37,police
screen,html.Screen,2_3_1_0_1_38,2022-05-10T13:53:32.657Z,,,,,,,,,,,,,,,,,40,,,,,,,,,,,,,,208.3400000000256,,response,,,,9,B,,,,,,Space,keypress(Space),,,,lyrical,,,,------ -- ------- ---- ---- ---- - -------- ----- --- --<br>----- ----- ------ -- ---- -- --- - ---- -- - ----- -----<br>------ ---- ------ ---- - -------- ------- -- --- --------<br>-------- ----------- ---- ------ also ------ ---- --- ---<br>-------- --- -----,382913,382910,382701.08,382701,382701.66,382915.14,,38,also
screen,html.Screen,2_3_1_0_1_39,2022-05-10T13:53:32.859Z,,,,,,,,,,,,,,,,,40,,,,,,,,,,,,,,182.85999999998603,,response,,,,9,B,,,,,,Space,keypress(Space),,,,lyrical,,,,------ -- ------- ---- ---- ---- - -------- ----- --- --<br>----- ----- ------ -- ---- -- --- - ---- -- - ----- -----<br>------ ---- ------ ---- - -------- ------- -- --- --------<br>-------- ----------- ---- ------ ---- didn't ---- --- ---<br>-------- --- -----,383114,383098,382913.12,382913,382915.14,383131.8,,39,didn't
screen,html.Screen,2_3_1_0_1_40,2022-05-10T13:53:33.162Z,,,,,,,,,,,,,,,,,40,,,,,,,,,,,,,,278.20000000001164,,response,,,,9,B,,,,,,Space,keypress(Space),,,,lyrical,,,,------ -- ------- ---- ---- ---- - -------- ----- --- --<br>----- ----- ------ -- ---- -- --- - ---- -- - ----- -----<br>------ ---- ------ ---- - -------- ------- -- --- --------<br>-------- ----------- ---- ------ ---- ------ know --- ---<br>-------- --- -----,383418,383410,383116,383116,383131.8,383420,,40,know
screen,html.Screen,2_3_1_0_1_41,2022-05-10T13:53:33.443Z,,,,,,,,,,,,,,,,,40,,,,,,,,,,,,,,272,,response,,,,9,B,,,,,,Space,keypress(Space),,,,lyrical,,,,------ -- ------- ---- ---- ---- - -------- ----- --- --<br>----- ----- ------ -- ---- -- --- - ---- -- - ----- -----<br>------ ---- ------ ---- - -------- ------- -- --- --------<br>-------- ----------- ---- ------ ---- ------ ---- how ---<br>-------- --- -----,383700,383692,383419.2,383419,383420,383700.38,,41,how
screen,html.Screen,2_3_1_0_1_42,2022-05-10T13:53:33.755Z,,,,,,,,,,,,,,,,,40,,,,,,,,,,,,,,303.61999999999534,,response,,,,9,B,,,,,,Space,keypress(Space),,,,lyrical,,,,------ -- ------- ---- ---- ---- - -------- ----- --- --<br>----- ----- ------ -- ---- -- --- - ---- -- - ----- -----<br>------ ---- ------ ---- - -------- ------- -- --- --------<br>-------- ----------- ---- ------ ---- ------ ---- --- the<br>-------- --- -----,384010,384004,383699.88,383700,383700.38,384011.08,,42,the
screen,html.Screen,2_3_1_0_1_43,2022-05-10T13:53:34.099Z,,,,,,,,,,,,,,,,,40,,,,,,,,,,,,,,336.9199999999837,,response,,,,9,B,,,,,,Space,keypress(Space),,,,lyrical,,,,------ -- ------- ---- ---- ---- - -------- ----- --- --<br>----- ----- ------ -- ---- -- --- - ---- -- - ----- -----<br>------ ---- ------ ---- - -------- ------- -- --- --------<br>-------- ----------- ---- ------ ---- ------ ---- --- ---<br>lemonade --- -----,384354,384348,384010.58,384011,384011.08,384356.64,,43,lemonade
screen,html.Screen,2_3_1_0_1_44,2022-05-10T13:53:34.402Z,,,,,,,,,,,,,,,,,40,,,,,,,,,,,,,,288.35999999998603,,response,,,,9,B,,,,,,Space,keypress(Space),,,,lyrical,,,,------ -- ------- ---- ---- ---- - -------- ----- --- --<br>----- ----- ------ -- ---- -- --- - ---- -- - ----- -----<br>------ ---- ------ ---- - -------- ------- -- --- --------<br>-------- ----------- ---- ------ ---- ------ ---- --- ---<br>-------- was -----,384657,384645,384356.06,384355,384356.64,384658.8,,44,was
screen,html.Screen,2_3_1_0_1_45,2022-05-10T13:53:34.785Z,,,,,,,,,,,,,,,,,40,,,,,,,,,,,,,,376.20000000001164,,response,,,,9,B,,,,,,Space,keypress(Space),,,,lyrical,,,,------ -- ------- ---- ---- ---- - -------- ----- --- --<br>----- ----- ------ -- ---- -- --- - ---- -- - ----- -----<br>------ ---- ------ ---- - -------- ------- -- --- --------<br>-------- ----------- ---- ------ ---- ------ ---- --- ---<br>-------- --- made.,385040,385035,384658.18,384658,384658.8,385048.48,,45,made.
Item 9,flow.Loop,2_3_1_0_1,2022-05-10T13:53:34.788Z,,,,,,,,,,,,,,,,,,,,,,,,,,,,,,,14635.979999999981,,completion,,,,,,,,,,,,,,,,,,,,,385043,385035,370382.34,370384,370399.02,385048.48,,,
Question 1,html.Screen,2_3_1_0_2,2022-05-10T13:53:37.541Z,,,,,,,,,,,,,,,,,,,,,,,,,,,,true,FALSE,,2736.5200000000186,,response,,,,9,B,,,,,,FALSE,click #choice-2,,,,lyrical,,,,,387797,387785,385044.82,385045,385048.48,387798.34,,,
Question 2,html.Screen,2_3_1_0_3,2022-05-10T13:53:41.125Z,,,,,,,,,,,,,,,,,,,,,,,,,,,,true,FALSE,,3564.6599999999744,,response,,,,9,B,,,,,,FALSE,click #choice-2,,,,lyrical,,,,,391379,391363,387795.88,387797,387798.34,391381.58,,,
Item 9,flow.Sequence,2_3_1_0,2022-05-10T13:53:41.125Z,,,,,,,,,,,,,,,,,,,,,,,,,,,,,,,27963.76000000001,,completion,,,,,,,,,,,,,,,,,,,,,391381,391363,363382.66,363384,363399.24,391381.58,,,
Holding screen,html.Screen,2_3_1_1_0,2022-05-10T13:53:48.110Z,,,,,,,,,,,,,,,,,,,,,,,,,,,,,,,6999.679999999993,,timeout,,,,,,,,,,,,,,,,,,,,,398366,398364.58,391378.26,391381,391381.58,398381.26,,,
screen,html.Screen,2_3_1_1_1_0,2022-05-10T13:53:50.105Z,,,,,,,,,,,,,,,,,2,,,,,,,,,,,,,,1966.7399999999907,,response,,,,1,B,,,,,,Space,keypress(Space),,,,lyrical,,,,Two ---- ------ --- ------- ---------- ------- ----------<br>--- --------- --- ----------- ------- ----- ------- ---<br>--------- ---- -- --- ---- -- --------- -- ---- -------<br>-- --------- ------ --- ----- ------ ---- --- --------- --<br>------ - ---- -- --- ----------- ------- ---- ----- -----<br>--- -------- - ------ ---- -- ----- ---- --- --- -----------<br>-- -------,400360,400348,398364.58,398366,398381.26,400361.22,,0,Two
screen,html.Screen,2_3_1_1_1_1,2022-05-10T13:53:50.740Z,,,,,,,,,,,,,,,,,2,,,,,,,,,,,,,,626.7800000000279,,response,,,,1,B,,,,,,Space,keypress(Space),,,,lyrical,,,,--- days ------ --- ------- ---------- ------- ----------<br>--- --------- --- ----------- ------- ----- ------- ---<br>--------- ---- -- --- ---- -- --------- -- ---- -------<br>-- --------- ------ --- ----- ------ ---- --- --------- --<br>------ - ---- -- --- ----------- ------- ---- ----- -----<br>--- -------- - ------ ---- -- ----- ---- --- --- -----------<br>-- -------,400995,400988,400360.7,400361,400361.22,400997.82,,1,days
screen,html.Screen,2_3_1_1_1_2,2022-05-10T13:53:51.114Z,,,,,,,,,,,,,,,,,2,,,,,,,,,,,,,,365.179999999993,,response,,,,1,B,,,,,,Space,keypress(Space),,,,lyrical,,,,"--- ---- later, --- ------- ---------- ------- ----------<br>--- --------- --- ----------- ------- ----- ------- ---<br>--------- ---- -- --- ---- -- --------- -- ---- -------<br>-- --------- ------ --- ----- ------ ---- --- --------- --<br>------ - ---- -- --- ----------- ------- ---- ----- -----<br>--- -------- - ------ ---- -- ----- ---- --- --- -----------<br>-- -------",401369,401363,400995.9,400996,400997.82,401370.12,,2,"later,"
screen,html.Screen,2_3_1_1_1_3,2022-05-10T13:53:51.487Z,,,,,,,,,,,,,,,,,2,,,,,,,,,,,,,,367.88000000000466,,response,,,,1,B,,,,,,Space,keypress(Space),,,,lyrical,,,,--- ---- ------ the ------- ---------- ------- ----------<br>--- --------- --- ----------- ------- ----- ------- ---<br>--------- ---- -- --- ---- -- --------- -- ---- -------<br>-- --------- ------ --- ----- ------ ---- --- --------- --<br>------ - ---- -- --- ----------- ------- ---- ----- -----<br>--- -------- - ------ ---- -- ----- ---- --- --- -----------<br>-- -------,401743,401738,401369.56,401369,401370.12,401743.54,,3,the
screen,html.Screen,2_3_1_1_1_4,2022-05-10T13:53:51.779Z,,,,,,,,,,,,,,,,,2,,,,,,,,,,,,,,276.46000000002095,,response,,,,1,B,,,,,,Space,keypress(Space),,,,lyrical,,,,--- ---- ------ --- British ---------- ------- ----------<br>--- --------- --- ----------- ------- ----- ------- ---<br>--------- ---- -- --- ---- -- --------- -- ---- -------<br>-- --------- ------ --- ----- ------ ---- --- --------- --<br>------ - ---- -- --- ----------- ------- ---- ----- -----<br>--- -------- - ------ ---- -- ----- ---- --- --- -----------<br>-- -------,402036,402020,401742.92,401743,401743.54,402036.16,,4,British
screen,html.Screen,2_3_1_1_1_5,2022-05-10T13:53:52.112Z,,,,,,,,,,,,,,,,,2,,,,,,,,,,,,,,326.8400000000256,,response,,,,1,B,,,,,,Space,keypress(Space),,,,lyrical,,,,--- ---- ------ --- ------- astronomer ------- ----------<br>--- --------- --- ----------- ------- ----- ------- ---<br>--------- ---- -- --- ---- -- --------- -- ---- -------<br>-- --------- ------ --- ----- ------ ---- --- --------- --<br>------ - ---- -- --- ----------- ------- ---- ----- -----<br>--- -------- - ------ ---- -- ----- ---- --- --- -----------<br>-- -------,402367,402363,402035.52,402036,402036.16,402368.7,,5,astronomer
screen,html.Screen,2_3_1_1_1_6,2022-05-10T13:53:52.495Z,,,,,,,,,,,,,,,,,2,,,,,,,,,,,,,,369.29999999998836,,response,,,,1,B,,,,,,Space,keypress(Space),,,,lyrical,,,,--- ---- ------ --- ------- ---------- Richard ----------<br>--- --------- --- ----------- ------- ----- ------- ---<br>--------- ---- -- --- ---- -- --------- -- ---- -------<br>-- --------- ------ --- ----- ------ ---- --- --------- --<br>------ - ---- -- --- ----------- ------- ---- ----- -----<br>--- -------- - ------ ---- -- ----- ---- --- --- -----------<br>-- -------,402750,402738,402368.08,402368,402368.7,402751.54,,6,Richard
screen,html.Screen,2_3_1_1_1_7,2022-05-10T13:53:52.983Z,,,,,,,,,,,,,,,,,2,,,,,,,,,,,,,,471.46000000002095,,response,,,,1,B,,,,,,Space,keypress(Space),,,,lyrical,,,,--- ---- ------ --- ------- ---------- ------- Carrington<br>--- --------- --- ----------- ------- ----- ------- ---<br>--------- ---- -- --- ---- -- --------- -- ---- -------<br>-- --------- ------ --- ----- ------ ---- --- --------- --<br>------ - ---- -- --- ----------- ------- ---- ----- -----<br>--- -------- - ------ ---- -- ----- ---- --- --- -----------<br>-- -------,403238,403223,402750.94,402751,402751.54,403239.48,,7,Carrington
screen,html.Screen,2_3_1_1_1_8,2022-05-10T13:53:53.332Z,,,,,,,,,,,,,,,,,2,,,,,,,,,,,,,,341.5200000000186,,response,,,,1,B,,,,,,Space,keypress(Space),,,,lyrical,,,,--- ---- ------ --- ------- ---------- ------- ----------<br>was --------- --- ----------- ------- ----- ------- ---<br>--------- ---- -- --- ---- -- --------- -- ---- -------<br>-- --------- ------ --- ----- ------ ---- --- --------- --<br>------ - ---- -- --- ----------- ------- ---- ----- -----<br>--- -------- - ------ ---- -- ----- ---- --- --- -----------<br>-- -------,403588,403581,403239.04,403238,403239.48,403589.22,,8,was
screen,html.Screen,2_3_1_1_1_9,2022-05-10T13:53:53.665Z,,,,,,,,,,,,,,,,,2,,,,,,,,,,,,,,320.78000000002794,,response,,,,1,B,,,,,,Space,keypress(Space),,,,lyrical,,,,--- ---- ------ --- ------- ---------- ------- ----------<br>--- observing --- ----------- ------- ----- ------- ---<br>--------- ---- -- --- ---- -- --------- -- ---- -------<br>-- --------- ------ --- ----- ------ ---- --- --------- --<br>------ - ---- -- --- ----------- ------- ---- ----- -----<br>--- -------- - ------ ---- -- ----- ---- --- --- -----------<br>-- -------,403921,403910,403588.58,403588,403589.22,403921.98,,9,observing
