sender,sender_type,sender_id,timestamp,meta,,Blues,Classical,Country,Dance,Electronic,Folk,Gospel,Hip-Hop,Jazz,Latin,Musical/Film,New-age,Pop,Prolific_id,Provo_ID,R&B,Rap,Reggae,Religious,Rock,Soul,Swing,Traditional,age,artist_name,correct,correctResponse,distraction,duration,education,ended_on,familiarity,gender,headphone_check_performance,item,list,music_frequency,offensiveness,pleasantness,position_correct,preference,response,response_action,snippet_file,song_name,song_rating,sound,stimulus_1,stimulus_2,stimulus_3,text,time_commit,time_end,time_render,time_run,time_show,time_switch,url,word,word_ID
Prolific ID,html.Form,0,2022-04-27T11:06:35.914Z,"{""labjs_version"":""20.2.2"",""labjs_build"":{""flavor"":""production"",""commit"":""a25486e0c714a0ae2ce03ff94b7bb6896854dcfa""},""location"":""https://run.pavlovia.org/mvasilev/prolific3_music_b/"",""userAgent"":""Mozilla/5.0 (X11; CrOS x86_64 14526.69.0) AppleWebKit/537.36 (KHTML, like Gecko) Chrome/100.0.4896.82 Safari/537.36"",""platform"":""Linux x86_64"",""language"":""en-GB"",""locale"":""en-GB"",""timeZone"":""Europe/London"",""timezoneOffset"":-60,""screen_width"":1366,""screen_height"":768,""scroll_width"":1366,""scroll_height"":720,""window_innerWidth"":1366,""window_innerHeight"":768,""devicePixelRatio"":1}",,,,,,,,,,,,,,,5c4ce29ad7c9720001295e1b,,,,,,,,,,,,,,,4809.888999999253,,form submission,,,,,,,,,,,,,,,,,,,,,24331.29999999702,24330.199999999255,19370.326,19351.599999997765,19520.311,24400.798,{},,
Introduction,html.Screen,1_0,2022-04-27T11:06:42.829Z,,,,,,,,,,,,,,,,,,,,,,,,,,,,,,,6842.202000000001,,response,,,,,,,,,,,continue,click button,,,,,,,,,31246.199999999255,31243,24334.138,24332.199999999255,24400.798,31280.79,,,
Volume calibration,html.Screen,1_1,2022-04-27T11:07:00.558Z,,,,,,,,,,,,,,,,,,,,,,,,,,,,,,,17690.50999999702,,response,,,,,,,,,,,continue,click button,,,,,,,,,48975.199999999255,48971.29999999702,31230.795,31246.39999999851,31280.79,48978.284,,,
Task instructions,html.Screen,1_2,2022-04-27T11:07:09.770Z,,,,,,,,,,,,,,,,,,,,,,,,,,,,,,,9206.415999999255,,response,,,,,,,,,,,continue,click button,,,,,,,,,58187,58184.699999999255,48961.619,48975.39999999851,48978.284,58190.388,,,
Sounds,html.Screen,1_3_0_0,2022-04-27T11:07:14.009Z,,,,,,,,,,,,,,,,,,,,,,,,,,,,,,,4265.171999999999,,timeout,,,,,,,,,3,,,,,,,,I,O,S,,62425.699999999255,62422.23,58173.723,58187.5,58190.388,62455.56,,,
Judgement,html.Screen,1_3_0_1,2022-04-27T11:07:15.955Z,,,,,,,,,,,,,,,,,,,,,,,,,,,,true,3,,1913.739999997022,,response,,,,,,,,,3,,3,click #choice-3,,,,,I,O,S,,64372.099999997765,64369.29999999702,62422.23,62426.29999999702,62455.56,64386.182,,,
Trial,flow.Sequence,1_3_0,2022-04-27T11:07:15.956Z,,,,,,,,,,,,,,,,,,,,,,,,,,,,,,,6178.911999997021,,completion,,,,,,,,,3,,,,,,,,I,O,S,,64372.699999999255,64369.29999999702,58173.723,58187.39999999851,58190.388,64386.182,,,
Sounds,html.Screen,1_3_1_0,2022-04-27T11:07:20.212Z,,,,,,,,,,,,,,,,,,,,,,,,,,,,,,,4257.434999999998,,timeout,,,,,,,,,1,,,,,,,,S,O,I,,68628.89999999851,68626.952,64369.517,64373.199999999255,64386.182,68643.617,,,
Judgement,html.Screen,1_3_1_1,2022-04-27T11:07:21.728Z,,,,,,,,,,,,,,,,,,,,,,,,,,,,true,1,,1498.7829999985115,,response,,,,,,,,,1,,1,click #choice-1,,,,,S,O,I,,70145,70142.39999999851,68626.952,68629.39999999851,68643.617,70149.378,,,
Trial,flow.Sequence,1_3_1,2022-04-27T11:07:21.729Z,,,,,,,,,,,,,,,,,,,,,,,,,,,,,,,5756.217999998509,,completion,,,,,,,,,1,,,,,,,,S,O,I,,70145.79999999702,70142.39999999851,64369.517,64373,64386.182,70149.378,,,
Sounds,html.Screen,1_3_2_0,2022-04-27T11:07:25.967Z,,,,,,,,,,,,,,,,,,,,,,,,,,,,,,,4249.176000000007,,timeout,,,,,,,,,3,,,,,,,,O,I,S,,74384.19999999925,74381.889,70132.713,70146.09999999776,70149.378,74398.554,,,
Judgement,html.Screen,1_3_2_1,2022-04-27T11:07:27.034Z,,,,,,,,,,,,,,,,,,,,,,,,,,,,true,3,,1049.4459999999963,,response,,,,,,,,,3,,3,click #choice-3,,,,,O,I,S,,75450.69999999925,75448,74381.889,74384.39999999851,74398.554,75454.615,,,
Trial,flow.Sequence,1_3_2,2022-04-27T11:07:27.034Z,,,,,,,,,,,,,,,,,,,,,,,,,,,,,,,5298.622000000003,,completion,,,,,,,,,3,,,,,,,,O,I,S,,75451.19999999925,75448,70132.713,70146,70149.378,75454.615,,,
Sounds,html.Screen,1_3_3_0,2022-04-27T11:07:31.274Z,,,,,,,,,,,,,,,,,,,,,,,,,,,,,,,4249.12999999999,,timeout,,,,,,,,,2,,,,,,,,I,S,O,,79691,79687.08,75437.95,75451.39999999851,75454.615,79703.745,,,
Judgement,html.Screen,1_3_3_1,2022-04-27T11:07:32.356Z,,,,,,,,,,,,,,,,,,,,,,,,,,,,true,2,,1067.2550000000047,,response,,,,,,,,,2,,2,click #choice-2,,,,,I,S,O,,80773.5,80771,79687.08,79691.5,79703.745,80776.35,,,
Trial,flow.Sequence,1_3_3,2022-04-27T11:07:32.357Z,,,,,,,,,,,,,,,,,,,,,,,,,,,,,,,5316.384999999995,,completion,,,,,,,,,2,,,,,,,,I,S,O,,80773.79999999702,80771,75437.95,75451.29999999702,75454.615,80776.35,,,
Sounds,html.Screen,1_3_4_0,2022-04-27T11:07:36.594Z,,,,,,,,,,,,,,,,,,,,,,,,,,,,,,,4249.2439999999915,,timeout,,,,,,,,,2,,,,,,,,O,S,I,,85011.29999999702,85008.929,80759.685,80774,80776.35,85025.594,,,
Judgement,html.Screen,1_3_4_1,2022-04-27T11:07:37.630Z,,,,,,,,,,,,,,,,,,,,,,,,,,,,true,2,,1019.8059999985126,,response,,,,,,,,,2,,2,click #choice-2,,,,,O,S,I,,86047.59999999776,86045.39999999851,85008.929,85011.79999999702,85025.594,86048.346,,,
Trial,flow.Sequence,1_3_4,2022-04-27T11:07:37.631Z,,,,,,,,,,,,,,,,,,,,,,,,,,,,,,,5269.049999998504,,completion,,,,,,,,,2,,,,,,,,O,S,I,,86047.79999999702,86045.39999999851,80759.685,80773.89999999851,80776.35,86048.346,,,
Sounds,html.Screen,1_3_5_0,2022-04-27T11:07:41.866Z,,,,,,,,,,,,,,,,,,,,,,,,,,,,,,,4249.1189999999915,,timeout,,,,,,,,,1,,,,,,,,S,I,O,,90282.89999999851,90280.8,86031.681,86048.09999999776,86048.346,90297.465,,,
Judgement,html.Screen,1_3_5_1,2022-04-27T11:07:43.105Z,,,,,,,,,,,,,,,,,,,,,,,,,,,,true,1,,1221.7349999992584,,response,,,,,,,,,1,,1,click #choice-1,,,,,S,I,O,,91521.89999999851,91519.19999999925,90280.8,90283.29999999702,90297.465,91536.689,,,
Trial,flow.Sequence,1_3_5,2022-04-27T11:07:43.105Z,,,,,,,,,,,,,,,,,,,,,,,,,,,,,,,5470.85399999925,,completion,,,,,,,,,1,,,,,,,,S,I,O,,91522.29999999702,91519.19999999925,86031.681,86048,86048.346,91536.689,,,
Task,flow.Loop,1_3,2022-04-27T11:07:43.114Z,,,,,,,,,,,,,,,,,,,,,,,,,,,,,,,33328.811999999256,,completion,,,1,,,,,,,,,,,,,,,,,,91530.79999999702,91519.19999999925,58173.723,58187.29999999702,58190.388,91536.689,,,
Trap,html.Screen,1_4,2022-04-27T11:07:43.117Z,,,,,,,,,,,,,,,,,,,,,,,,,,,,,,,NaN,,skipped,,,,,,,,,,,,,,,,,,,,,91534.19999999925,91519.19999999925,,91533.29999999702,,91536.689,,,
Thanks,html.Screen,1_5,2022-04-27T11:07:47.720Z,,,,,,,,,,,,,,,,,,,,,,,,,,,,,,,4598.210999998511,,response,,,,,,,,,,,continue,click button,,,,,,,,,96137.39999999851,96134.89999999851,91520.024,91535.19999999925,91536.689,99508.248,,,
Headphone screening,flow.Sequence,1,2022-04-27T11:07:47.720Z,,,,,,,,,,,,,,,,,,,,,,,,,,,,,,,71734.10199999851,,completion,,,,,,,,,,,,,,,,,,,,,96137.59999999776,96134.89999999851,24334.138,24332.099999997765,24400.798,99508.248,,,
Instructions,html.Page,2_0,2022-04-27T11:08:04.236Z,,,,,,,,,,,,,,,,,,,,,,,,,,,,,,,13143.151999998503,,form submission,,,,,,,,,,,,,,,,,,,,,112653.09999999776,112651.39999999851,99491.583,99496.79999999702,99508.248,112674.055,,,
Holding screen,html.Screen,2_1_0_0,2022-04-27T11:08:14.237Z,,,,,,,,,,,,,,,,,,,,,,,,,,,,,,,10044.511000000013,,timeout,,,,,,,,,,,,,,,,,,,,,122653.79999999702,122651.906,112640.725,112653.79999999702,112674.055,122718.566,,,
screen,html.Screen,2_1_0_1_0,2022-04-27T11:08:15.145Z,,,,,,,,,,,,,,,,,53,,,,,,,,,,,,,,838.3339999985037,,response,,,,99,,,,,,,Space,keypress(Space),,,,,,,,When -- ----- -- ------ - ------- --- ----------<br>------------- ------ ------ ---- ---- ------- ----- -- ----<br>-------- ------- -- ---------- --- - --- ----- ----- ----<br>---- --- --- ----- --- ---- ---- ------- ----- ---- -------<br>--- --- -- ----- -- --- ---- -- --- ---- -- ------ ------<br>--- ----- -- ----,123562.39999999851,123556.89999999851,122651.906,122654.5,122718.566,123568.075,,0,When
screen,html.Screen,2_1_0_1_1,2022-04-27T11:08:15.724Z,,,,,,,,,,,,,,,,,53,,,,,,,,,,,,,,570.6249999992579,,response,,,,99,,,,,,,Space,keypress(Space),,,,,,,,---- it ----- -- ------ - ------- --- ----------<br>------------- ------ ------ ---- ---- ------- ----- -- ----<br>-------- ------- -- ---------- --- - --- ----- ----- ----<br>---- --- --- ----- --- ---- ---- ------- ----- ---- -------<br>--- --- -- ----- -- --- ---- -- --- ---- -- ------ ------<br>--- ----- -- ----,124141.09999999776,124138.69999999925,123551.41,123562.59999999776,123568.075,124142.575,,1,it
screen,html.Screen,2_1_0_1_2,2022-04-27T11:08:16.118Z,,,,,,,,,,,,,,,,,53,,,,,,,,,,,,,,390.7249999970227,,response,,,,99,,,,,,,Space,keypress(Space),,,,,,,,---- -- comes -- ------ - ------- --- ----------<br>------------- ------ ------ ---- ---- ------- ----- -- ----<br>-------- ------- -- ---------- --- - --- ----- ----- ----<br>---- --- --- ----- --- ---- ---- ------- ----- ---- -------<br>--- --- -- ----- -- --- ---- -- --- ---- -- ------ ------<br>--- ----- -- ----,124535.5,124533.29999999702,124125.91,124141.19999999925,124142.575,124542.267,,2,comes
screen,html.Screen,2_1_0_1_3,2022-04-27T11:08:16.557Z,,,,,,,,,,,,,,,,,53,,,,,,,,,,,,,,429.3329999977577,,response,,,,99,,,,,,,Space,keypress(Space),,,,,,,,---- -- ----- to ------ - ------- --- ----------<br>------------- ------ ------ ---- ---- ------- ----- -- ----<br>-------- ------- -- ---------- --- - --- ----- ----- ----<br>---- --- --- ----- --- ---- ---- ------- ----- ---- -------<br>--- --- -- ----- -- --- ---- -- --- ---- -- ------ ------<br>--- ----- -- ----,124974,124971.59999999776,124525.602,124535.69999999925,124542.267,124992.046,,3,to
screen,html.Screen,2_1_0_1_4,2022-04-27T11:08:16.885Z,,,,,,,,,,,,,,,,,53,,,,,,,,,,,,,,307.65399999925285,,response,,,,99,,,,,,,Space,keypress(Space),,,,,,,,---- -- ----- -- having - ------- --- ----------<br>------------- ------ ------ ---- ---- ------- ----- -- ----<br>-------- ------- -- ---------- --- - --- ----- ----- ----<br>---- --- --- ----- --- ---- ---- ------- ----- ---- -------<br>--- --- -- ----- -- --- ---- -- --- ---- -- ------ ------<br>--- ----- -- ----,125302.5,125299.69999999925,124975.381,124974.19999999925,124992.046,125308.501,,4,having
screen,html.Screen,2_1_0_1_5,2022-04-27T11:08:17.183Z,,,,,,,,,,,,,,,,,53,,,,,,,,,,,,,,289.6989999992511,,response,,,,99,,,,,,,Space,keypress(Space),,,,,,,,---- -- ----- -- ------ a ------- --- ----------<br>------------- ------ ------ ---- ---- ------- ----- -- ----<br>-------- ------- -- ---------- --- - --- ----- ----- ----<br>---- --- --- ----- --- ---- ---- ------- ----- ---- -------<br>--- --- -- ----- -- --- ---- -- --- ---- -- ------ ------<br>--- ----- -- ----,125600.5,125598.19999999925,125291.836,125302.69999999925,125308.501,125608.318,,5,a
screen,html.Screen,2_1_0_1_6,2022-04-27T11:08:17.507Z,,,,,,,,,,,,,,,,,53,,,,,,,,,,,,,,312.38199999925564,,response,,,,99,,,,,,,Space,keypress(Space),,,,,,,,---- -- ----- -- ------ - lasting --- ----------<br>------------- ------ ------ ---- ---- ------- ----- -- ----<br>-------- ------- -- ---------- --- - --- ----- ----- ----<br>---- --- --- ----- --- ---- ---- ------- ----- ---- -------<br>--- --- -- ----- -- --- ---- -- --- ---- -- ------ ------<br>--- ----- -- ----,125924.19999999925,125920.69999999925,125591.653,125600.69999999925,125608.318,125941.479,,6,lasting
screen,html.Screen,2_1_0_1_7,2022-04-27T11:08:17.806Z,,,,,,,,,,,,,,,,,53,,,,,,,,,,,,,,278.92099999850325,,response,,,,99,,,,,,,Space,keypress(Space),,,,,,,,---- -- ----- -- ------ - ------- and ----------<br>------------- ------ ------ ---- ---- ------- ----- -- ----<br>-------- ------- -- ---------- --- - --- ----- ----- ----<br>---- --- --- ----- --- ---- ---- ------- ----- ---- -------<br>--- --- -- ----- -- --- ---- -- --- ---- -- ------ ------<br>--- ----- -- ----,126222.69999999925,126220.39999999851,125924.814,125924.39999999851,125941.479,126224.645,,7,and
screen,html.Screen,2_1_0_1_8,2022-04-27T11:08:18.095Z,,,,,,,,,,,,,,,,,53,,,,,,,,,,,,,,285.05499999925087,,response,,,,99,,,,,,,Space,keypress(Space),,,,,,,,---- -- ----- -- ------ - ------- --- fulfilling<br>------------- ------ ------ ---- ---- ------- ----- -- ----<br>-------- ------- -- ---------- --- - --- ----- ----- ----<br>---- --- --- ----- --- ---- ---- ------- ----- ---- -------<br>--- --- -- ----- -- --- ---- -- --- ---- -- ------ ------<br>--- ----- -- ----,126512.29999999702,126509.69999999925,126207.98,126222.79999999702,126224.645,126524.479,,8,fulfilling
screen,html.Screen,2_1_0_1_9,2022-04-27T11:08:18.591Z,,,,,,,,,,,,,,,,,53,,,,,,,,,,,,,,481.32099999701313,,response,,,,99,,,,,,,Space,keypress(Space),,,,,,,,"---- -- ----- -- ------ - ------- --- ----------<br>relationship, ------ ------ ---- ---- ------- ----- -- ----<br>-------- ------- -- ---------- --- - --- ----- ----- ----<br>---- --- --- ----- --- ---- ---- ------- ----- ---- -------<br>--- --- -- ----- -- --- ---- -- --- ---- -- ------ ------<br>--- ----- -- ----",127008,127005.79999999702,126507.814,126512.5,126524.479,127024.286,,9,"relationship,"
screen,html.Screen,2_1_0_1_10,2022-04-27T11:08:19.114Z,,,,,,,,,,,,,,,,,53,,,,,,,,,,,,,,503.81399999777204,,response,,,,99,,,,,,,Space,keypress(Space),,,,,,,,---- -- ----- -- ------ - ------- --- ----------<br>------------- common ------ ---- ---- ------- ----- -- ----<br>-------- ------- -- ---------- --- - --- ----- ----- ----<br>---- --- --- ----- --- ---- ---- ------- ----- ---- -------<br>--- --- -- ----- -- --- ---- -- --- ---- -- ------ ------<br>--- ----- -- ----,127530.79999999702,127528.09999999776,127007.621,127008.5,127024.286,127540.682,,10,common
screen,html.Screen,2_1_0_1_11,2022-04-27T11:08:19.327Z,,,,,,,,,,,,,,,,,53,,,,,,,,,,,,,,201.51799999925424,,response,,,,99,,,,,,,Space,keypress(Space),,,,,,,,---- -- ----- -- ------ - ------- --- ----------<br>------------- ------ wisdom ---- ---- ------- ----- -- ----<br>-------- ------- -- ---------- --- - --- ----- ----- ----<br>---- --- --- ----- --- ---- ---- ------- ----- ---- -------<br>--- --- -- ----- -- --- ---- -- --- ---- -- ------ ------<br>--- ----- -- ----,127744.39999999851,127742.19999999925,127524.017,127531.09999999776,127540.682,127757.1,,11,wisdom
screen,html.Screen,2_1_0_1_12,2022-04-27T11:08:19.742Z,,,,,,,,,,,,,,,,,53,,,,,,,,,,,,,,399.5999999992491,,response,,,,99,,,,,,,Space,keypress(Space),,,,,,,,---- -- ----- -- ------ - ------- --- ----------<br>------------- ------ ------ says ---- ------- ----- -- ----<br>-------- ------- -- ---------- --- - --- ----- ----- ----<br>---- --- --- ----- --- ---- ---- ------- ----- ---- -------<br>--- --- -- ----- -- --- ---- -- --- ---- -- ------ ------<br>--- ----- -- ----,128158.89999999851,128156.69999999925,127740.435,127744.59999999776,127757.1,128173.631,,12,says
screen,html.Screen,2_1_0_1_13,2022-04-27T11:08:20.001Z,,,,,,,,,,,,,,,,,53,,,,,,,,,,,,,,241.96899999777088,,response,,,,99,,,,,,,Space,keypress(Space),,,,,,,,---- -- ----- -- ------ - ------- --- ----------<br>------------- ------ ------ ---- that ------- ----- -- ----<br>-------- ------- -- ---------- --- - --- ----- ----- ----<br>---- --- --- ----- --- ---- ---- ------- ----- ---- -------<br>--- --- -- ----- -- --- ---- -- --- ---- -- ------ ------<br>--- ----- -- ----,128417.79999999702,128415.59999999776,128156.966,128159.09999999776,128173.631,128423.42,,13,that
screen,html.Screen,2_1_0_1_14,2022-04-27T11:08:20.372Z,,,,,,,,,,,,,,,,,53,,,,,,,,,,,,,,363.3799999970215,,response,,,,99,,,,,,,Space,keypress(Space),,,,,,,,---- -- ----- -- ------ - ------- --- ----------<br>------------- ------ ------ ---- ---- feeling ----- -- ----<br>-------- ------- -- ---------- --- - --- ----- ----- ----<br>---- --- --- ----- --- ---- ---- ------- ----- ---- -------<br>--- --- -- ----- -- --- ---- -- --- ---- -- ------ ------<br>--- ----- -- ----,128789.5,128786.79999999702,128406.755,128420.19999999925,128423.42,128806.602,,14,feeling
screen,html.Screen,2_1_0_1_15,2022-04-27T11:08:20.704Z,,,,,,,,,,,,,,,,,53,,,,,,,,,,,,,,312.1979999970208,,response,,,,99,,,,,,,Space,keypress(Space),,,,,,,,---- -- ----- -- ------ - ------- --- ----------<br>------------- ------ ------ ---- ---- ------- close -- ----<br>-------- ------- -- ---------- --- - --- ----- ----- ----<br>---- --- --- ----- --- ---- ---- ------- ----- ---- -------<br>--- --- -- ----- -- --- ---- -- --- ---- -- ------ ------<br>--- ----- -- ----,129121.29999999702,129118.79999999702,128789.937,128789.69999999925,128806.602,129123.053,,15,close
screen,html.Screen,2_1_0_1_16,2022-04-27T11:08:20.992Z,,,,,,,,,,,,,,,,,53,,,,,,,,,,,,,,283.54699999776494,,response,,,,99,,,,,,,Space,keypress(Space),,,,,,,,---- -- ----- -- ------ - ------- --- ----------<br>------------- ------ ------ ---- ---- ------- ----- to ----<br>-------- ------- -- ---------- --- - --- ----- ----- ----<br>---- --- --- ----- --- ---- ---- ------- ----- ---- -------<br>--- --- -- ----- -- --- ---- -- --- ---- -- ------ ------<br>--- ----- -- ----,129409.09999999776,129406.59999999776,129106.388,129121.39999999851,129123.053,129422.899,,16,to
screen,html.Screen,2_1_0_1_17,2022-04-27T11:08:21.373Z,,,,,,,,,,,,,,,,,53,,,,,,,,,,,,,,362.9009999970149,,response,,,,99,,,,,,,Space,keypress(Space),,,,,,,,---- -- ----- -- ------ - ------- --- ----------<br>------------- ------ ------ ---- ---- ------- ----- -- your<br>-------- ------- -- ---------- --- - --- ----- ----- ----<br>---- --- --- ----- --- ---- ---- ------- ----- ---- -------<br>--- --- -- ----- -- --- ---- -- --- ---- -- ------ ------<br>--- ----- -- ----,129789.69999999925,129785.79999999702,129406.234,129409.29999999702,129422.899,129806.043,,17,your
screen,html.Screen,2_1_0_1_18,2022-04-27T11:08:22.270Z,,,,,,,,,,,,,,,,,53,,,,,,,,,,,,,,878.5569999977597,,response,,,,99,,,,,,,Space,keypress(Space),,,,,,,,---- -- ----- -- ------ - ------- --- ----------<br>------------- ------ ------ ---- ---- ------- ----- -- ----<br>romantic ------- -- ---------- --- - --- ----- ----- ----<br>---- --- --- ----- --- ---- ---- ------- ----- ---- -------<br>--- --- -- ----- -- --- ---- -- --- ---- -- ------ ------<br>--- ----- -- ----,130687.19999999925,130684.59999999776,129789.378,129790.09999999776,129806.043,130689.121,,18,romantic
screen,html.Screen,2_1_0_1_19,2022-04-27T11:08:22.690Z,,,,,,,,,,,,,,,,,53,,,,,,,,,,,,,,415.8790000000008,,response,,,,99,,,,,,,Space,keypress(Space),,,,,,,,---- -- ----- -- ------ - ------- --- ----------<br>------------- ------ ------ ---- ---- ------- ----- -- ----<br>-------- partner -- ---------- --- - --- ----- ----- ----<br>---- --- --- ----- --- ---- ---- ------- ----- ---- -------<br>--- --- -- ----- -- --- ---- -- --- ---- -- ------ ------<br>--- ----- -- ----,131107.3999999985,131105,130672.456,130687.29999999702,130689.121,131122.022,,19,partner
screen,html.Screen,2_1_0_1_20,2022-04-27T11:08:23.104Z,,,,,,,,,,,,,,,,,53,,,,,,,,,,,,,,396.9780000000028,,response,,,,99,,,,,,,Space,keypress(Space),,,,,,,,---- -- ----- -- ------ - ------- --- ----------<br>------------- ------ ------ ---- ---- ------- ----- -- ----<br>-------- ------- is ---------- --- - --- ----- ----- ----<br>---- --- --- ----- --- ---- ---- ------- ----- ---- -------<br>--- --- -- ----- -- --- ---- -- --- ---- -- ------ ------<br>--- ----- -- ----,131521.09999999776,131519,131105.357,131107.59999999776,131122.022,131538.462,,20,is
screen,html.Screen,2_1_0_1_21,2022-04-27T11:08:23.788Z,,,,,,,,,,,,,,,,,53,,,,,,,,,,,,,,664.7379999992554,,response,,,,99,,,,,,,Space,keypress(Space),,,,,,,,---- -- ----- -- ------ - ------- --- ----------<br>------------- ------ ------ ---- ---- ------- ----- -- ----<br>-------- ------- -- paramount. --- - --- ----- ----- ----<br>---- --- --- ----- --- ---- ---- ------- ----- ---- -------<br>--- --- -- ----- -- --- ---- -- --- ---- -- ------ ------<br>--- ----- -- ----,132205.5,132203.19999999925,131521.797,131521.19999999925,131538.462,132221.528,,21,paramount.
screen,html.Screen,2_1_0_1_22,2022-04-27T11:08:24.210Z,,,,,,,,,,,,,,,,,53,,,,,,,,,,,,,,403.0719999977737,,response,,,,99,,,,,,,Space,keypress(Space),,,,,,,,---- -- ----- -- ------ - ------- --- ----------<br>------------- ------ ------ ---- ---- ------- ----- -- ----<br>-------- ------- -- ---------- But - --- ----- ----- ----<br>---- --- --- ----- --- ---- ---- ------- ----- ---- -------<br>--- --- -- ----- -- --- ---- -- --- ---- -- ------ ------<br>--- ----- -- ----,132626.69999999925,132624.59999999776,132204.863,132205.79999999702,132221.528,132637.858,,22,But
screen,html.Screen,2_1_0_1_23,2022-04-27T11:08:24.392Z,,,,,,,,,,,,,,,,,53,,,,,,,,,,,,,,167.74199999775738,,response,,,,99,,,,,,,Space,keypress(Space),,,,,,,,---- -- ----- -- ------ - ------- --- ----------<br>------------- ------ ------ ---- ---- ------- ----- -- ----<br>-------- ------- -- ---------- --- a --- ----- ----- ----<br>---- --- --- ----- --- ---- ---- ------- ----- ---- -------<br>--- --- -- ----- -- --- ---- -- --- ---- -- ------ ------<br>--- ----- -- ----,132808.8999999985,132805.59999999776,132621.193,132626.79999999702,132637.858,132820.975,,23,a
screen,html.Screen,2_1_0_1_24,2022-04-27T11:08:24.758Z,,,,,,,,,,,,,,,,,53,,,,,,,,,,,,,,351.7249999992491,,response,,,,99,,,,,,,Space,keypress(Space),,,,,,,,---- -- ----- -- ------ - ------- --- ----------<br>------------- ------ ------ ---- ---- ------- ----- -- ----<br>-------- ------- -- ---------- --- - new ----- ----- ----<br>---- --- --- ----- --- ---- ---- ------- ----- ---- -------<br>--- --- -- ----- -- --- ---- -- --- ---- -- ------ ------<br>--- ----- -- ----,133175.09999999776,133172.69999999925,132804.31,132809.29999999702,132820.975,133187.531,,24,new
screen,html.Screen,2_1_0_1_25,2022-04-27T11:08:25.043Z,,,,,,,,,,,,,,,,,53,,,,,,,,,,,,,,270.1689999992668,,response,,,,99,,,,,,,Space,keypress(Space),,,,,,,,---- -- ----- -- ------ - ------- --- ----------<br>------------- ------ ------ ---- ---- ------- ----- -- ----<br>-------- ------- -- ---------- --- - --- study ----- ----<br>---- --- --- ----- --- ---- ---- ------- ----- ---- -------<br>--- --- -- ----- -- --- ---- -- --- ---- -- ------ ------<br>--- ----- -- ----,133460.29999999702,133457.69999999925,133170.866,133175.29999999702,133187.531,133470.665,,25,study
screen,html.Screen,2_1_0_1_26,2022-04-27T11:08:25.330Z,,,,,,,,,,,,,,,,,53,,,,,,,,,,,,,,274.1349999970116,,response,,,,99,,,,,,,Space,keypress(Space),,,,,,,,---- -- ----- -- ------ - ------- --- ----------<br>------------- ------ ------ ---- ---- ------- ----- -- ----<br>-------- ------- -- ---------- --- - --- ----- finds ----<br>---- --- --- ----- --- ---- ---- ------- ----- ---- -------<br>--- --- -- ----- -- --- ---- -- --- ---- -- ------ ------<br>--- ----- -- ----,133747.3999999985,133744.79999999702,133454,133460.3999999985,133470.665,133753.831,,26,finds
screen,html.Screen,2_1_0_1_27,2022-04-27T11:08:25.726Z,,,,,,,,,,,,,,,,,53,,,,,,,,,,,,,,385.9689999970142,,response,,,,99,,,,,,,Space,keypress(Space),,,,,,,,---- -- ----- -- ------ - ------- --- ----------<br>------------- ------ ------ ---- ---- ------- ----- -- ----<br>-------- ------- -- ---------- --- - --- ----- ----- that<br>---- --- --- ----- --- ---- ---- ------- ----- ---- -------<br>--- --- -- ----- -- --- ---- -- --- ---- -- ------ ------<br>--- ----- -- ----,134143.19999999925,134139.79999999702,133737.166,133747.69999999925,133753.831,134153.679,,27,that
screen,html.Screen,2_1_0_1_28,2022-04-27T11:08:26.337Z,,,,,,,,,,,,,,,,,53,,,,,,,,,,,,,,597.5209999992512,,response,,,,99,,,,,,,Space,keypress(Space),,,,,,,,---- -- ----- -- ------ - ------- --- ----------<br>------------- ------ ------ ---- ---- ------- ----- -- ----<br>-------- ------- -- ---------- --- - --- ----- ----- ----<br>it's --- --- ----- --- ---- ---- ------- ----- ---- -------<br>--- --- -- ----- -- --- ---- -- --- ---- -- ------ ------<br>--- ----- -- ----,134753.79999999702,134751.19999999925,134137.014,134143.3999999985,134153.679,134770.105,,28,it's
screen,html.Screen,2_1_0_1_29,2022-04-27T11:08:26.665Z,,,,,,,,,,,,,,,,,53,,,,,,,,,,,,,,310.2949999984994,,response,,,,99,,,,,,,Space,keypress(Space),,,,,,,,---- -- ----- -- ------ - ------- --- ----------<br>------------- ------ ------ ---- ---- ------- ----- -- ----<br>-------- ------- -- ---------- --- - --- ----- ----- ----<br>---- not --- ----- --- ---- ---- ------- ----- ---- -------<br>--- --- -- ----- -- --- ---- -- --- ---- -- ------ ------<br>--- ----- -- ----,135082.5,135080.3999999985,134753.44,134754.09999999776,134770.105,135086.462,,29,not
screen,html.Screen,2_1_0_1_30,2022-04-27T11:08:26.947Z,,,,,,,,,,,,,,,,,53,,,,,,,,,,,,,,276.1379999977653,,response,,,,99,,,,,,,Space,keypress(Space),,,,,,,,---- -- ----- -- ------ - ------- --- ----------<br>------------- ------ ------ ---- ---- ------- ----- -- ----<br>-------- ------- -- ---------- --- - --- ----- ----- ----<br>---- --- how ----- --- ---- ---- ------- ----- ---- -------<br>--- --- -- ----- -- --- ---- -- --- ---- -- ------ ------<br>--- ----- -- ----,135364.5,135362.59999999776,135069.797,135082.59999999776,135086.462,135369.631,,30,how
screen,html.Screen,2_1_0_1_31,2022-04-27T11:08:27.266Z,,,,,,,,,,,,,,,,,53,,,,,,,,,,,,,,310.9689999977709,,response,,,,99,,,,,,,Space,keypress(Space),,,,,,,,---- -- ----- -- ------ - ------- --- ----------<br>------------- ------ ------ ---- ---- ------- ----- -- ----<br>-------- ------- -- ---------- --- - --- ----- ----- ----<br>---- --- --- close --- ---- ---- ------- ----- ---- -------<br>--- --- -- ----- -- --- ---- -- --- ---- -- ------ ------<br>--- ----- -- ----,135682.69999999925,135680.59999999776,135352.966,135364.79999999702,135369.631,135686.133,,31,close
screen,html.Screen,2_1_0_1_32,2022-04-27T11:08:27.561Z,,,,,,,,,,,,,,,,,53,,,,,,,,,,,,,,290.26699999850825,,response,,,,99,,,,,,,Space,keypress(Space),,,,,,,,---- -- ----- -- ------ - ------- --- ----------<br>------------- ------ ------ ---- ---- ------- ----- -- ----<br>-------- ------- -- ---------- --- - --- ----- ----- ----<br>---- --- --- ----- you ---- ---- ------- ----- ---- -------<br>--- --- -- ----- -- --- ---- -- --- ---- -- ------ ------<br>--- ----- -- ----,135978.29999999702,135976.3999999985,135669.468,135682.8999999985,135686.133,135985.953,,32,you
screen,html.Screen,2_1_0_1_33,2022-04-27T11:08:27.854Z,,,,,,,,,,,,,,,,,53,,,,,,,,,,,,,,283.34699999701115,,response,,,,99,,,,,,,Space,keypress(Space),,,,,,,,---- -- ----- -- ------ - ------- --- ----------<br>------------- ------ ------ ---- ---- ------- ----- -- ----<br>-------- ------- -- ---------- --- - --- ----- ----- ----<br>---- --- --- ----- --- feel ---- ------- ----- ---- -------<br>--- --- -- ----- -- --- ---- -- --- ---- -- ------ ------<br>--- ----- -- ----,136271.59999999776,136269.29999999702,135969.288,135978.5,135985.953,136285.792,,33,feel
screen,html.Screen,2_1_0_1_34,2022-04-27T11:08:28.253Z,,,,,,,,,,,,,,,,,53,,,,,,,,,,,,,,382.3079999977781,,response,,,,99,,,,,,,Space,keypress(Space),,,,,,,,---- -- ----- -- ------ - ------- --- ----------<br>------------- ------ ------ ---- ---- ------- ----- -- ----<br>-------- ------- -- ---------- --- - --- ----- ----- ----<br>---- --- --- ----- --- ---- that ------- ----- ---- -------<br>--- --- -- ----- -- --- ---- -- --- ---- -- ------ ------<br>--- ----- -- ----,136670,136668.09999999776,136269.127,136271.69999999925,136285.792,136685.61,,34,that
screen,html.Screen,2_1_0_1_35,2022-04-27T11:08:28.535Z,,,,,,,,,,,,,,,,,53,,,,,,,,,,,,,,264.68999999703374,,response,,,,99,,,,,,,Space,keypress(Space),,,,,,,,---- -- ----- -- ------ - ------- --- ----------<br>------------- ------ ------ ---- ---- ------- ----- -- ----<br>-------- ------- -- ---------- --- - --- ----- ----- ----<br>---- --- --- ----- --- ---- ---- matters ----- ---- -------<br>--- --- -- ----- -- --- ---- -- --- ---- -- ------ ------<br>--- ----- -- ----,136952.3999999985,136950.29999999702,136668.945,136670.29999999702,136685.61,136968.752,,35,matters
screen,html.Screen,2_1_0_1_36,2022-04-27T11:08:28.928Z,,,,,,,,,,,,,,,,,53,,,,,,,,,,,,,,373.94799999924726,,response,,,,99,,,,,,,Space,keypress(Space),,,,,,,,"---- -- ----- -- ------ - ------- --- ----------<br>------------- ------ ------ ---- ---- ------- ----- -- ----<br>-------- ------- -- ---------- --- - --- ----- ----- ----<br>---- --- --- ----- --- ---- ---- ------- most, ---- -------<br>--- --- -- ----- -- --- ---- -- --- ---- -- ------ ------<br>--- ----- -- ----",137345.3999999985,137342.69999999925,136952.087,136952.5,136968.752,137351.928,,36,"most,"
screen,html.Screen,2_1_0_1_37,2022-04-27T11:08:29.562Z,,,,,,,,,,,,,,,,,53,,,,,,,,,,,,,,624.5719999999856,,response,,,,99,,,,,,,Space,keypress(Space),,,,,,,,---- -- ----- -- ------ - ------- --- ----------<br>------------- ------ ------ ---- ---- ------- ----- -- ----<br>-------- ------- -- ---------- --- - --- ----- ----- ----<br>---- --- --- ----- --- ---- ---- ------- ----- it's -------<br>--- --- -- ----- -- --- ---- -- --- ---- -- ------ ------<br>--- ----- -- ----,137979.29999999702,137976.5,137335.263,137345.5,137351.928,137985.005,,37,it's
screen,html.Screen,2_1_0_1_38,2022-04-27T11:08:29.855Z,,,,,,,,,,,,,,,,,53,,,,,,,,,,,,,,284.59499999776017,,response,,,,99,,,,,,,Space,keypress(Space),,,,,,,,---- -- ----- -- ------ - ------- --- ----------<br>------------- ------ ------ ---- ---- ------- ----- -- ----<br>-------- ------- -- ---------- --- - --- ----- ----- ----<br>---- --- --- ----- --- ---- ---- ------- ----- ---- whether<br>--- --- -- ----- -- --- ---- -- --- ---- -- ------ ------<br>--- ----- -- ----,138272.19999999925,138269.59999999776,137968.34,137979.3999999985,137985.005,138284.705,,38,whether
screen,html.Screen,2_1_0_1_39,2022-04-27T11:08:30.177Z,,,,,,,,,,,,,,,,,53,,,,,,,,,,,,,,306.89499999777763,,response,,,,99,,,,,,,Space,keypress(Space),,,,,,,,---- -- ----- -- ------ - ------- --- ----------<br>------------- ------ ------ ---- ---- ------- ----- -- ----<br>-------- ------- -- ---------- --- - --- ----- ----- ----<br>---- --- --- ----- --- ---- ---- ------- ----- ---- -------<br>you --- -- ----- -- --- ---- -- --- ---- -- ------ ------<br>--- ----- -- ----,138594.19999999925,138591.59999999776,138268.04,138272.3999999985,138284.705,138601.213,,39,you
screen,html.Screen,2_1_0_1_40,2022-04-27T11:08:30.392Z,,,,,,,,,,,,,,,,,53,,,,,,,,,,,,,,206.28700000001118,,response,,,,99,,,,,,,Space,keypress(Space),,,,,,,,---- -- ----- -- ------ - ------- --- ----------<br>------------- ------ ------ ---- ---- ------- ----- -- ----<br>-------- ------- -- ---------- --- - --- ----- ----- ----<br>---- --- --- ----- --- ---- ---- ------- ----- ---- -------<br>--- are -- ----- -- --- ---- -- --- ---- -- ------ ------<br>--- ----- -- ----,138809.5,138807.5,138584.548,138594.5,138601.213,138817.71,,40,are
screen,html.Screen,2_1_0_1_41,2022-04-27T11:08:30.659Z,,,,,,,,,,,,,,,,,53,,,,,,,,,,,,,,255.58999999702792,,response,,,,99,,,,,,,Space,keypress(Space),,,,,,,,---- -- ----- -- ------ - ------- --- ----------<br>------------- ------ ------ ---- ---- ------- ----- -- ----<br>-------- ------- -- ---------- --- - --- ----- ----- ----<br>---- --- --- ----- --- ---- ---- ------- ----- ---- -------<br>--- --- as ----- -- --- ---- -- --- ---- -- ------ ------<br>--- ----- -- ----,139076,139073.29999999702,138801.045,138809.69999999925,138817.71,139084.243,,41,as
screen,html.Screen,2_1_0_1_42,2022-04-27T11:08:31.004Z,,,,,,,,,,,,,,,,,53,,,,,,,,,,,,,,334.1569999985222,,response,,,,99,,,,,,,Space,keypress(Space),,,,,,,,---- -- ----- -- ------ - ------- --- ----------<br>------------- ------ ------ ---- ---- ------- ----- -- ----<br>-------- ------- -- ---------- --- - --- ----- ----- ----<br>---- --- --- ----- --- ---- ---- ------- ----- ---- -------<br>--- --- -- close -- --- ---- -- --- ---- -- ------ ------<br>--- ----- -- ----,139421,139418.3999999985,139067.578,139076.09999999776,139084.243,139434.099,,42,close
screen,html.Screen,2_1_0_1_43,2022-04-27T11:08:31.364Z,,,,,,,,,,,,,,,,,53,,,,,,,,,,,,,,344.30099999852246,,response,,,,99,,,,,,,Space,keypress(Space),,,,,,,,---- -- ----- -- ------ - ------- --- ----------<br>------------- ------ ------ ---- ---- ------- ----- -- ----<br>-------- ------- -- ---------- --- - --- ----- ----- ----<br>---- --- --- ----- --- ---- ---- ------- ----- ---- -------<br>--- --- -- ----- as --- ---- -- --- ---- -- ------ ------<br>--- ----- -- ----,139780.79999999702,139778.3999999985,139417.434,139421.09999999776,139434.099,139783.9,,43,as
screen,html.Screen,2_1_0_1_44,2022-04-27T11:08:31.603Z,,,,,,,,,,,,,,,,,53,,,,,,,,,,,,,,232.60000000000582,,response,,,,99,,,,,,,Space,keypress(Space),,,,,,,,---- -- ----- -- ------ - ------- --- ----------<br>------------- ------ ------ ---- ---- ------- ----- -- ----<br>-------- ------- -- ---------- --- - --- ----- ----- ----<br>---- --- --- ----- --- ---- ---- ------- ----- ---- -------<br>--- --- -- ----- -- you ---- -- --- ---- -- ------ ------<br>--- ----- -- ----,140019.69999999925,140016.5,139767.235,139781,139783.9,140033.725,,44,you
screen,html.Screen,2_1_0_1_45,2022-04-27T11:08:31.952Z,,,,,,,,,,,,,,,,,53,,,,,,,,,,,,,,332.7749999999942,,response,,,,99,,,,,,,Space,keypress(Space),,,,,,,,---- -- ----- -- ------ - ------- --- ----------<br>------------- ------ ------ ---- ---- ------- ----- -- ----<br>-------- ------- -- ---------- --- - --- ----- ----- ----<br>---- --- --- ----- --- ---- ---- ------- ----- ---- -------<br>--- --- -- ----- -- --- want -- --- ---- -- ------ ------<br>--- ----- -- ----,140369.09999999776,140366.5,140017.06,140019.79999999702,140033.725,140383.584,,45,want
screen,html.Screen,2_1_0_1_46,2022-04-27T11:08:32.374Z,,,,,,,,,,,,,,,,,53,,,,,,,,,,,,,,403.8159999985073,,response,,,,99,,,,,,,Space,keypress(Space),,,,,,,,---- -- ----- -- ------ - ------- --- ----------<br>------------- ------ ------ ---- ---- ------- ----- -- ----<br>-------- ------- -- ---------- --- - --- ----- ----- ----<br>---- --- --- ----- --- ---- ---- ------- ----- ---- -------<br>--- --- -- ----- -- --- ---- to --- ---- -- ------ ------<br>--- ----- -- ----,140791,140787.3999999985,140366.919,140369.19999999925,140383.584,140800.052,,46,to
screen,html.Screen,2_1_0_1_47,2022-04-27T11:08:32.698Z,,,,,,,,,,,,,,,,,53,,,,,,,,,,,,,,312.5479999977688,,response,,,,99,,,,,,,Space,keypress(Space),,,,,,,,"---- -- ----- -- ------ - ------- --- ----------<br>------------- ------ ------ ---- ---- ------- ----- -- ----<br>-------- ------- -- ---------- --- - --- ----- ----- ----<br>---- --- --- ----- --- ---- ---- ------- ----- ---- -------<br>--- --- -- ----- -- --- ---- -- be, ---- -- ------ ------<br>--- ----- -- ----",141114.79999999702,141112.59999999776,140783.387,140791.19999999925,140800.052,141116.476,,47,"be,"
screen,html.Screen,2_1_0_1_48,2022-04-27T11:08:33.083Z,,,,,,,,,,,,,,,,,53,,,,,,,,,,,,,,381.9239999985148,,response,,,,99,,,,,,,Space,keypress(Space),,,,,,,,---- -- ----- -- ------ - ------- --- ----------<br>------------- ------ ------ ---- ---- ------- ----- -- ----<br>-------- ------- -- ---------- --- - --- ----- ----- ----<br>---- --- --- ----- --- ---- ---- ------- ----- ---- -------<br>--- --- -- ----- -- --- ---- -- --- even -- ------ ------<br>--- ----- -- ----,141500.5,141498.3999999985,141099.811,141115,141116.476,141516.296,,48,even
screen,html.Screen,2_1_0_1_49,2022-04-27T11:08:33.294Z,,,,,,,,,,,,,,,,,53,,,,,,,,,,,,,,193.00399999701767,,response,,,,99,,,,,,,Space,keypress(Space),,,,,,,,---- -- ----- -- ------ - ------- --- ----------<br>------------- ------ ------ ---- ---- ------- ----- -- ----<br>-------- ------- -- ---------- --- - --- ----- ----- ----<br>---- --- --- ----- --- ---- ---- ------- ----- ---- -------<br>--- --- -- ----- -- --- ---- -- --- ---- if ------ ------<br>--- ----- -- ----,141711.59999999776,141709.29999999702,141499.631,141500.69999999925,141516.296,141716.11,,49,if
screen,html.Screen,2_1_0_1_50,2022-04-27T11:08:33.482Z,,,,,,,,,,,,,,,,,53,,,,,,,,,,,,,,180.39000000001397,,response,,,,99,,,,,,,Space,keypress(Space),,,,,,,,---- -- ----- -- ------ - ------- --- ----------<br>------------- ------ ------ ---- ---- ------- ----- -- ----<br>-------- ------- -- ---------- --- - --- ----- ----- ----<br>---- --- --- ----- --- ---- ---- ------- ----- ---- -------<br>--- --- -- ----- -- --- ---- -- --- ---- -- that's ------<br>--- ----- -- ----,141899.19999999925,141896.5,141699.445,141711.69999999925,141716.11,141916.004,,50,that's
screen,html.Screen,2_1_0_1_51,2022-04-27T11:08:33.868Z,,,,,,,,,,,,,,,,,53,,,,,,,,,,,,,,367.6959999992687,,response,,,,99,,,,,,,Space,keypress(Space),,,,,,,,---- -- ----- -- ------ - ------- --- ----------<br>------------- ------ ------ ---- ---- ------- ----- -- ----<br>-------- ------- -- ---------- --- - --- ----- ----- ----<br>---- --- --- ----- --- ---- ---- ------- ----- ---- -------<br>--- --- -- ----- -- --- ---- -- --- ---- -- ------ really<br>--- ----- -- ----,142285.5,142283.69999999925,141899.339,141899.79999999702,141916.004,142299.208,,51,really
screen,html.Screen,2_1_0_1_52,2022-04-27T11:08:34.230Z,,,,,,,,,,,,,,,,,53,,,,,,,,,,,,,,345.1919999984966,,response,,,,99,,,,,,,Space,keypress(Space),,,,,,,,---- -- ----- -- ------ - ------- --- ----------<br>------------- ------ ------ ---- ---- ------- ----- -- ----<br>-------- ------- -- ---------- --- - --- ----- ----- ----<br>---- --- --- ----- --- ---- ---- ------- ----- ---- -------<br>--- --- -- ----- -- --- ---- -- --- ---- -- ------ ------<br>not ----- -- ----,142647,142644.3999999985,142282.543,142285.79999999702,142299.208,142648.99,,52,not
screen,html.Screen,2_1_0_1_53,2022-04-27T11:08:34.494Z,,,,,,,,,,,,,,,,,53,,,,,,,,,,,,,,259.70999999926426,,response,,,,99,,,,,,,Space,keypress(Space),,,,,,,,---- -- ----- -- ------ - ------- --- ----------<br>------------- ------ ------ ---- ---- ------- ----- -- ----<br>-------- ------- -- ---------- --- - --- ----- ----- ----<br>---- --- --- ----- --- ---- ---- ------- ----- ---- -------<br>--- --- -- ----- -- --- ---- -- --- ---- -- ------ ------<br>--- close -- ----,142911.19999999925,142908.69999999925,142632.325,142647.19999999925,142648.99,142915.483,,53,close
screen,html.Screen,2_1_0_1_54,2022-04-27T11:08:34.885Z,,,,,,,,,,,,,,,,,53,,,,,,,,,,,,,,383.8169999970123,,response,,,,99,,,,,,,Space,keypress(Space),,,,,,,,---- -- ----- -- ------ - ------- --- ----------<br>------------- ------ ------ ---- ---- ------- ----- -- ----<br>-------- ------- -- ---------- --- - --- ----- ----- ----<br>---- --- --- ----- --- ---- ---- ------- ----- ---- -------<br>--- --- -- ----- -- --- ---- -- --- ---- -- ------ ------<br>--- ----- at ----,143302.19999999925,143299.29999999702,142898.818,142911.29999999702,142915.483,143315.326,,54,at
screen,html.Screen,2_1_0_1_55,2022-04-27T11:08:35.322Z,,,,,,,,,,,,,,,,,53,,,,,,,,,,,,,,421.47399999701884,,response,,,,99,,,,,,,Space,keypress(Space),,,,,,,,---- -- ----- -- ------ - ------- --- ----------<br>------------- ------ ------ ---- ---- ------- ----- -- ----<br>-------- ------- -- ---------- --- - --- ----- ----- ----<br>---- --- --- ----- --- ---- ---- ------- ----- ---- -------<br>--- --- -- ----- -- --- ---- -- --- ---- -- ------ ------<br>--- ----- -- all.,143739.5,143736.79999999702,143298.661,143302.29999999702,143315.326,143748.42,,55,all.
Item 99,flow.Loop,2_1_0_1,2022-04-27T11:08:35.323Z,,,,,,,,,,,,,,,,,,,,,,,,,,,,,,,21018.233999997014,,completion,,,,,B,,,,,,,,,,,silence,,,,,143739.8999999985,143736.79999999702,122651.906,122654.19999999925,122718.566,143748.42,,,
Question 1,html.Screen,2_1_0_2,2022-04-27T11:08:42.191Z,,,,,,,,,,,,,,,,,,,,,,,,,,,,true,FALSE,,6857.479999998497,,response,,,,99,B,,,,,,FALSE,click #choice-2,,,,silence,,,,,150608.09999999776,150605.8999999985,143731.755,143740.19999999925,143748.42,150628.191,,,
Question 2,html.Screen,2_1_0_3,2022-04-27T11:08:50.674Z,,,,,,,,,,,,,,,,,,,,,,,,,,,,false,TRUE,,8460.208999998518,,response,,,,99,B,,,,,,FALSE,click #choice-2,,,,silence,,,,,159090.79999999702,159088.3999999985,150594.861,150608.19999999925,150628.191,159106.707,,,
Item 99,flow.Sequence,2_1_0,2022-04-27T11:08:50.674Z,,,,,,,,,,,,,,,,,,,,,,,,,,,,,,,46414.34499999852,,completion,,,,,,,,,,,,,,,,,,,,,159091.19999999925,159088.3999999985,112640.725,112653.69999999925,112674.055,159106.707,,,
Holding screen,html.Screen,2_1_1_0,2022-04-27T11:09:00.678Z,,,,,,,,,,,,,,,,,,,,,,,,,,,,,,,10003.068,,timeout,,,,,,,,,,,,,,,,,,,,,169094.8999999985,169093.11,159073.377,159091.3999999985,159106.707,169109.775,,,
screen,html.Screen,2_1_1_1_0,2022-04-27T11:09:01.307Z,,,,,,,,,,,,,,,,,54,,,,,,,,,,,,,,611.4249999992608,,response,,,,100,,,,,,,Space,keypress(Space),,,,,,,,At --- ---- --- ------ ----- ------- ---- -- --- ------- --<br>------- ---------- ------ -- ----- -- ----- -- ---- ------<br>--- ----- --- --- ------ -------- ----- --- ------ ----- --<br>----- ----- ---------- --- --- ------ ------ ---- -- ------<br>------- --- ------ ----- --- ---- ------- -- ---- --- --<br>------- ------,169724.29999999702,169721.19999999925,169093.11,169095.3999999985,169109.775,169725.935,,0,At
screen,html.Screen,2_1_1_1_1,2022-04-27T11:09:01.717Z,,,,,,,,,,,,,,,,,54,,,,,,,,,,,,,,405.3649999970221,,response,,,,100,,,,,,,Space,keypress(Space),,,,,,,,-- the ---- --- ------ ----- ------- ---- -- --- ------- --<br>------- ---------- ------ -- ----- -- ----- -- ---- ------<br>--- ----- --- --- ------ -------- ----- --- ------ ----- --<br>----- ----- ---------- --- --- ------ ------ ---- -- ------<br>------- --- ------ ----- --- ---- ------- -- ---- --- --<br>------- ------,170133.69999999925,170131.29999999702,169709.27,169724.5,169725.935,170150.608,,1,the
screen,html.Screen,2_1_1_1_2,2022-04-27T11:09:01.933Z,,,,,,,,,,,,,,,,,54,,,,,,,,,,,,,,196.89199999999255,,response,,,,100,,,,,,,Space,keypress(Space),,,,,,,,-- --- time --- ------ ----- ------- ---- -- --- ------- --<br>------- ---------- ------ -- ----- -- ----- -- ---- ------<br>--- ----- --- --- ------ -------- ----- --- ------ ----- --<br>----- ----- ---------- --- --- ------ ------ ---- -- ------<br>------- --- ------ ----- --- ---- ------- -- ---- --- --<br>------- ------,170349.79999999702,170347.5,170133.943,170134,170150.608,170367.068,,2,time
screen,html.Screen,2_1_1_1_3,2022-04-27T11:09:02.299Z,,,,,,,,,,,,,,,,,54,,,,,,,,,,,,,,346.4320000000007,,response,,,,100,,,,,,,Space,keypress(Space),,,,,,,,-- --- ---- the ------ ----- ------- ---- -- --- ------- --<br>------- ---------- ------ -- ----- -- ----- -- ---- ------<br>--- ----- --- --- ------ -------- ----- --- ------ ----- --<br>----- ----- ---------- --- --- ------ ------ ---- -- ------<br>------- --- ------ ----- --- ---- ------- -- ---- --- --<br>------- ------,170716.29999999702,170713.5,170350.403,170350,170367.068,170733.609,,3,the
screen,html.Screen,2_1_1_1_4,2022-04-27T11:09:02.586Z,,,,,,,,,,,,,,,,,54,,,,,,,,,,,,,,266.690999997023,,response,,,,100,,,,,,,Space,keypress(Space),,,,,,,,-- --- ---- --- French ----- ------- ---- -- --- ------- --<br>------- ---------- ------ -- ----- -- ----- -- ---- ------<br>--- ----- --- --- ------ -------- ----- --- ------ ----- --<br>----- ----- ---------- --- --- ------ ------ ---- -- ------<br>------- --- ------ ----- --- ---- ------- -- ---- --- --<br>------- ------,171003.09999999776,171000.29999999702,170716.944,170716.5,170733.609,171016.744,,4,French
screen,html.Screen,2_1_1_1_5,2022-04-27T11:09:02.908Z,,,,,,,,,,,,,,,,,54,,,,,,,,,,,,,,306.0559999970137,,response,,,,100,,,,,,,Space,keypress(Space),,,,,,,,-- --- ---- --- ------ crown ------- ---- -- --- ------- --<br>------- ---------- ------ -- ----- -- ----- -- ---- ------<br>--- ----- --- --- ------ -------- ----- --- ------ ----- --<br>----- ----- ---------- --- --- ------ ------ ---- -- ------<br>------- --- ------ ----- --- ---- ------- -- ---- --- --<br>------- ------,171324.79999999702,171322.79999999702,171000.079,171003.19999999925,171016.744,171333.26,,5,crown
screen,html.Screen,2_1_1_1_6,2022-04-27T11:09:03.264Z,,,,,,,,,,,,,,,,,54,,,,,,,,,,,,,,345.93999999924563,,response,,,,100,,,,,,,Space,keypress(Space),,,,,,,,-- --- ---- --- ------ ----- secured ---- -- --- ------- --<br>------- ---------- ------ -- ----- -- ----- -- ---- ------<br>--- ----- --- --- ------ -------- ----- --- ------ ----- --<br>----- ----- ---------- --- --- ------ ------ ---- -- ------<br>------- --- ------ ----- --- ---- ------- -- ---- --- --<br>------- ------,171681.3999999985,171679.19999999925,171316.595,171325.09999999776,171333.26,171683.072,,6,secured
screen,html.Screen,2_1_1_1_7,2022-04-27T11:09:03.818Z,,,,,,,,,,,,,,,,,54,,,,,,,,,,,,,,550.3279999985243,,response,,,,100,,,,,,,Space,keypress(Space),,,,,,,,-- --- ---- --- ------ ----- ------- much -- --- ------- --<br>------- ---------- ------ -- ----- -- ----- -- ---- ------<br>--- ----- --- --- ------ -------- ----- --- ------ ----- --<br>----- ----- ---------- --- --- ------ ------ ---- -- ------<br>------- --- ------ ----- --- ---- ------- -- ---- --- --<br>------- ------,172235.5,172233.3999999985,171666.407,171681.5,171683.072,172249.533,,7,much
screen,html.Screen,2_1_1_1_8,2022-04-27T11:09:04.324Z,,,,,,,,,,,,,,,,,54,,,,,,,,,,,,,,489.16699999925913,,response,,,,100,,,,,,,Space,keypress(Space),,,,,,,,-- --- ---- --- ------ ----- ------- ---- of --- ------- --<br>------- ---------- ------ -- ----- -- ----- -- ---- ------<br>--- ----- --- --- ------ -------- ----- --- ------ ----- --<br>----- ----- ---------- --- --- ------ ------ ---- -- ------<br>------- --- ------ ----- --- ---- ------- -- ---- --- --<br>------- ------,172741.09999999776,172738.69999999925,172232.868,172235.59999999776,172249.533,172749.237,,8,of
screen,html.Screen,2_1_1_1_9,2022-04-27T11:09:04.796Z,,,,,,,,,,,,,,,,,54,,,,,,,,,,,,,,461.2630000000063,,response,,,,100,,,,,,,Space,keypress(Space),,,,,,,,-- --- ---- --- ------ ----- ------- ---- -- its ------- --<br>------- ---------- ------ -- ----- -- ----- -- ---- ------<br>--- ----- --- --- ------ -------- ----- --- ------ ----- --<br>----- ----- ---------- --- --- ------ ------ ---- -- ------<br>------- --- ------ ----- --- ---- ------- -- ---- --- --<br>------- ------,173212.69999999925,173210.5,172732.572,172741.19999999925,172749.237,173215.622,,9,its
screen,html.Screen,2_1_1_1_10,2022-04-27T11:09:05.151Z,,,,,,,,,,,,,,,,,54,,,,,,,,,,,,,,350.5779999992519,,response,,,,100,,,,,,,Space,keypress(Space),,,,,,,,-- --- ---- --- ------ ----- ------- ---- -- --- revenue --<br>------- ---------- ------ -- ----- -- ----- -- ---- ------<br>--- ----- --- --- ------ -------- ----- --- ------ ----- --<br>----- ----- ---------- --- --- ------ ------ ---- -- ------<br>------- --- ------ ----- --- ---- ------- -- ---- --- --<br>------- ------,173568.3999999985,173566.19999999925,173198.957,173212.8999999985,173215.622,173582.042,,10,revenue
screen,html.Screen,2_1_1_1_11,2022-04-27T11:09:05.574Z,,,,,,,,,,,,,,,,,54,,,,,,,,,,,,,,406.25799999703304,,response,,,,100,,,,,,,Space,keypress(Space),,,,,,,,-- --- ---- --- ------ ----- ------- ---- -- --- ------- by<br>------- ---------- ------ -- ----- -- ----- -- ---- ------<br>--- ----- --- --- ------ -------- ----- --- ------ ----- --<br>----- ----- ---------- --- --- ------ ------ ---- -- ------<br>------- --- ------ ----- --- ---- ------- -- ---- --- --<br>------- ------,173990.59999999776,173988.29999999702,173565.377,173568.59999999776,173582.042,173998.513,,11,by
screen,html.Screen,2_1_1_1_12,2022-04-27T11:09:05.983Z,,,,,,,,,,,,,,,,,54,,,,,,,,,,,,,,399.18699999924866,,response,,,,100,,,,,,,Space,keypress(Space),,,,,,,,-- --- ---- --- ------ ----- ------- ---- -- --- ------- --<br>issuing ---------- ------ -- ----- -- ----- -- ---- ------<br>--- ----- --- --- ------ -------- ----- --- ------ ----- --<br>----- ----- ---------- --- --- ------ ------ ---- -- ------<br>------- --- ------ ----- --- ---- ------- -- ---- --- --<br>------- ------,174399.8999999985,174397.69999999925,173981.848,173990.79999999702,173998.513,174414.933,,12,issuing
screen,html.Screen,2_1_1_1_13,2022-04-27T11:09:06.315Z,,,,,,,,,,,,,,,,,54,,,,,,,,,,,,,,315.06700000001,,response,,,,100,,,,,,,Space,keypress(Space),,,,,,,,-- --- ---- --- ------ ----- ------- ---- -- --- ------- --<br>------- government ------ -- ----- -- ----- -- ---- ------<br>--- ----- --- --- ------ -------- ----- --- ------ ----- --<br>----- ----- ---------- --- --- ------ ------ ---- -- ------<br>------- --- ------ ----- --- ---- ------- -- ---- --- --<br>------- ------,174732.5,174730,174398.268,174400.29999999702,174414.933,174748.065,,13,government
screen,html.Screen,2_1_1_1_14,2022-04-27T11:09:06.695Z,,,,,,,,,,,,,,,,,54,,,,,,,,,,,,,,361.83499999850756,,response,,,,100,,,,,,,Space,keypress(Space),,,,,,,,-- --- ---- --- ------ ----- ------- ---- -- --- ------- --<br>------- ---------- bonds. -- ----- -- ----- -- ---- ------<br>--- ----- --- --- ------ -------- ----- --- ------ ----- --<br>----- ----- ---------- --- --- ------ ------ ---- -- ------<br>------- --- ------ ----- --- ---- ------- -- ---- --- --<br>------- ------,175111.79999999702,175109.8999999985,174731.4,174732.59999999776,174748.065,175114.537,,14,bonds.
screen,html.Screen,2_1_1_1_15,2022-04-27T11:09:07.996Z,,,,,,,,,,,,,,,,,54,,,,,,,,,,,,,,1296.3629999984987,,response,,,,100,,,,,,,Space,keypress(Space),,,,,,,,-- --- ---- --- ------ ----- ------- ---- -- --- ------- --<br>------- ---------- ------ In ----- -- ----- -- ---- ------<br>--- ----- --- --- ------ -------- ----- --- ------ ----- --<br>----- ----- ---------- --- --- ------ ------ ---- -- ------<br>------- --- ------ ----- --- ---- ------- -- ---- --- --<br>------- ------,176413,176410.8999999985,175097.872,175112.09999999776,175114.537,176430.91,,15,In
screen,html.Screen,2_1_1_1_16,2022-04-27T11:09:08.979Z,,,,,,,,,,,,,,,,,54,,,,,,,,,,,,,,962.5899999999965,,response,,,,100,,,,,,,Space,keypress(Space),,,,,,,,"-- --- ---- --- ------ ----- ------- ---- -- --- ------- --<br>------- ---------- ------ -- 1727, -- ----- -- ---- ------<br>--- ----- --- --- ------ -------- ----- --- ------ ----- --<br>----- ----- ---------- --- --- ------ ------ ---- -- ------<br>------- --- ------ ----- --- ---- ------- -- ---- --- --<br>------- ------",177395.69999999925,177393.5,176414.245,176413.29999999702,176430.91,177413.604,,16,"1727,"
screen,html.Screen,2_1_1_1_17,2022-04-27T11:09:09.544Z,,,,,,,,,,,,,,,,,54,,,,,,,,,,,,,,545.5959999992629,,response,,,,100,,,,,,,Space,keypress(Space),,,,,,,,-- --- ---- --- ------ ----- ------- ---- -- --- ------- --<br>------- ---------- ------ -- ----- in ----- -- ---- ------<br>--- ----- --- --- ------ -------- ----- --- ------ ----- --<br>----- ----- ---------- --- --- ------ ------ ---- -- ------<br>------- --- ------ ----- --- ---- ------- -- ---- --- --<br>------- ------,177961.19999999925,177959.19999999925,177396.939,177395.8999999985,177413.604,177971.374,,17,in
screen,html.Screen,2_1_1_1_18,2022-04-27T11:09:09.899Z,,,,,,,,,,,,,,,,,54,,,,,,,,,,,,,,342.82599999924423,,response,,,,100,,,,,,,Space,keypress(Space),,,,,,,,-- --- ---- --- ------ ----- ------- ---- -- --- ------- --<br>------- ---------- ------ -- ----- -- order -- ---- ------<br>--- ----- --- --- ------ -------- ----- --- ------ ----- --<br>----- ----- ---------- --- --- ------ ------ ---- -- ------<br>------- --- ------ ----- --- ---- ------- -- ---- --- --<br>------- ------,178316.3999999985,178314.19999999925,177954.709,177961.3999999985,177971.374,178321.082,,18,order
screen,html.Screen,2_1_1_1_19,2022-04-27T11:09:10.387Z,,,,,,,,,,,,,,,,,54,,,,,,,,,,,,,,480.51799999776995,,response,,,,100,,,,,,,Space,keypress(Space),,,,,,,,-- --- ---- --- ------ ----- ------- ---- -- --- ------- --<br>------- ---------- ------ -- ----- -- ----- to ---- ------<br>--- ----- --- --- ------ -------- ----- --- ------ ----- --<br>----- ----- ---------- --- --- ------ ------ ---- -- ------<br>------- --- ------ ----- --- ---- ------- -- ---- --- --<br>------- ------,178803.59999999776,178801.59999999776,178304.417,178316.5,178321.082,178820.879,,19,to
screen,html.Screen,2_1_1_1_20,2022-04-27T11:09:10.860Z,,,,,,,,,,,,,,,,,54,,,,,,,,,,,,,,454.12100000001374,,response,,,,100,,,,,,,Space,keypress(Space),,,,,,,,-- --- ---- --- ------ ----- ------- ---- -- --- ------- --<br>------- ---------- ------ -- ----- -- ----- -- save ------<br>--- ----- --- --- ------ -------- ----- --- ------ ----- --<br>----- ----- ---------- --- --- ------ ------ ---- -- ------<br>------- --- ------ ----- --- ---- ------- -- ---- --- --<br>------- ------,179277.29999999702,179275,178804.214,178803.79999999702,178820.879,179287.273,,20,save
screen,html.Screen,2_1_1_1_21,2022-04-27T11:09:11.318Z,,,,,,,,,,,,,,,,,54,,,,,,,,,,,,,,445.32699999777833,,response,,,,100,,,,,,,Space,keypress(Space),,,,,,,,"-- --- ---- --- ------ ----- ------- ---- -- --- ------- --<br>------- ---------- ------ -- ----- -- ----- -- ---- money,<br>--- ----- --- --- ------ -------- ----- --- ------ ----- --<br>----- ----- ---------- --- --- ------ ------ ---- -- ------<br>------- --- ------ ----- --- ---- ------- -- ---- --- --<br>------- ------",179735,179732.59999999776,179270.608,179277.3999999985,179287.273,179737.017,,21,"money,"
screen,html.Screen,2_1_1_1_22,2022-04-27T11:09:12.045Z,,,,,,,,,,,,,,,,,54,,,,,,,,,,,,,,723.0829999977723,,response,,,,100,,,,,,,Space,keypress(Space),,,,,,,,-- --- ---- --- ------ ----- ------- ---- -- --- ------- --<br>------- ---------- ------ -- ----- -- ----- -- ---- ------<br>the ----- --- --- ------ -------- ----- --- ------ ----- --<br>----- ----- ---------- --- --- ------ ------ ---- -- ------<br>------- --- ------ ----- --- ---- ------- -- ---- --- --<br>------- ------,180462.09999999776,180460.09999999776,179720.352,179735.29999999702,179737.017,180470.069,,22,the
screen,html.Screen,2_1_1_1_23,2022-04-27T11:09:12.460Z,,,,,,,,,,,,,,,,,54,,,,,,,,,,,,,,404.03099999777623,,response,,,,100,,,,,,,Space,keypress(Space),,,,,,,,-- --- ---- --- ------ ----- ------- ---- -- --- ------- --<br>------- ---------- ------ -- ----- -- ----- -- ---- ------<br>--- state --- --- ------ -------- ----- --- ------ ----- --<br>----- ----- ---------- --- --- ------ ------ ---- -- ------<br>------- --- ------ ----- --- ---- ------- -- ---- --- --<br>------- ------,180876.69999999925,180874.09999999776,180453.404,180462.19999999925,180470.069,180886.357,,23,state
screen,html.Screen,2_1_1_1_24,2022-04-27T11:09:12.914Z,,,,,,,,,,,,,,,,,54,,,,,,,,,,,,,,442.24299999777577,,response,,,,100,,,,,,,Space,keypress(Space),,,,,,,,-- --- ---- --- ------ ----- ------- ---- -- --- ------- --<br>------- ---------- ------ -- ----- -- ----- -- ---- ------<br>--- ----- cut --- ------ -------- ----- --- ------ ----- --<br>----- ----- ---------- --- --- ------ ------ ---- -- ------<br>------- --- ------ ----- --- ---- ------- -- ---- --- --<br>------- ------,181330.79999999702,181328.59999999776,180869.692,180877,180886.357,181336.129,,24,cut
screen,html.Screen,2_1_1_1_25,2022-04-27T11:09:13.524Z,,,,,,,,,,,,,,,,,54,,,,,,,,,,,,,,603.0709999992687,,response,,,,100,,,,,,,Space,keypress(Space),,,,,,,,-- --- ---- --- ------ ----- ------- ---- -- --- ------- --<br>------- ---------- ------ -- ----- -- ----- -- ---- ------<br>--- ----- --- the ------ -------- ----- --- ------ ----- --<br>----- ----- ---------- --- --- ------ ------ ---- -- ------<br>------- --- ------ ----- --- ---- ------- -- ---- --- --<br>------- ------,181941.09999999776,181939.19999999925,181319.464,181330.8999999985,181336.129,181952.529,,25,the
screen,html.Screen,2_1_1_1_26,2022-04-27T11:09:13.989Z,,,,,,,,,,,,,,,,,54,,,,,,,,,,,,,,451.1709999992454,,response,,,,100,,,,,,,Space,keypress(Space),,,,,,,,-- --- ---- --- ------ ----- ------- ---- -- --- ------- --<br>------- ---------- ------ -- ----- -- ----- -- ---- ------<br>--- ----- --- --- bonds' -------- ----- --- ------ ----- --<br>----- ----- ---------- --- --- ------ ------ ---- -- ------<br>------- --- ------ ----- --- ---- ------- -- ---- --- --<br>------- ------,182406.19999999925,182403.69999999925,181935.864,181941.19999999925,181952.529,182418.891,,26,bonds'
screen,html.Screen,2_1_1_1_27,2022-04-27T11:09:14.403Z,,,,,,,,,,,,,,,,,54,,,,,,,,,,,,,,399.20899999776157,,response,,,,100,,,,,,,Space,keypress(Space),,,,,,,,-- --- ---- --- ------ ----- ------- ---- -- --- ------- --<br>------- ---------- ------ -- ----- -- ----- -- ---- ------<br>--- ----- --- --- ------ interest ----- --- ------ ----- --<br>----- ----- ---------- --- --- ------ ------ ---- -- ------<br>------- --- ------ ----- --- ---- ------- -- ---- --- --<br>------- ------,182820.5,182818.09999999776,182402.226,182406.29999999702,182418.891,182835.303,,27,interest
screen,html.Screen,2_1_1_1_28,2022-04-27T11:09:15.197Z,,,,,,,,,,,,,,,,,54,,,,,,,,,,,,,,776.7969999977504,,response,,,,100,,,,,,,Space,keypress(Space),,,,,,,,-- --- ---- --- ------ ----- ------- ---- -- --- ------- --<br>------- ---------- ------ -- ----- -- ----- -- ---- ------<br>--- ----- --- --- ------ -------- rate. --- ------ ----- --<br>----- ----- ---------- --- --- ------ ------ ---- -- ------<br>------- --- ------ ----- --- ---- ------- -- ---- --- --<br>------- ------,183614.09999999776,183612.09999999776,182818.638,182820.79999999702,182835.303,183618.366,,28,rate.
screen,html.Screen,2_1_1_1_29,2022-04-27T11:09:15.912Z,,,,,,,,,,,,,,,,,54,,,,,,,,,,,,,,708.5339999985008,,response,,,,100,,,,,,,Space,keypress(Space),,,,,,,,-- --- ---- --- ------ ----- ------- ---- -- --- ------- --<br>------- ---------- ------ -- ----- -- ----- -- ---- ------<br>--- ----- --- --- ------ -------- ----- The ------ ----- --<br>----- ----- ---------- --- --- ------ ------ ---- -- ------<br>------- --- ------ ----- --- ---- ------- -- ---- --- --<br>------- ------,184329.09999999776,184326.8999999985,183601.701,183614.29999999702,183618.366,184334.6,,29,The
screen,html.Screen,2_1_1_1_30,2022-04-27T11:09:16.357Z,,,,,,,,,,,,,,,,,54,,,,,,,,,,,,,,436.0999999992491,,response,,,,100,,,,,,,Space,keypress(Space),,,,,,,,-- --- ---- --- ------ ----- ------- ---- -- --- ------- --<br>------- ---------- ------ -- ----- -- ----- -- ---- ------<br>--- ----- --- --- ------ -------- ----- --- market ----- --<br>----- ----- ---------- --- --- ------ ------ ---- -- ------<br>------- --- ------ ----- --- ---- ------- -- ---- --- --<br>------- ------,184773.69999999925,184770.69999999925,184317.935,184329.19999999925,184334.6,184784.238,,30,market
screen,html.Screen,2_1_1_1_31,2022-04-27T11:09:16.700Z,,,,,,,,,,,,,,,,,54,,,,,,,,,,,,,,330.7619999999879,,response,,,,100,,,,,,,Space,keypress(Space),,,,,,,,-- --- ---- --- ------ ----- ------- ---- -- --- ------- --<br>------- ---------- ------ -- ----- -- ----- -- ---- ------<br>--- ----- --- --- ------ -------- ----- --- ------ value --<br>----- ----- ---------- --- --- ------ ------ ---- -- ------<br>------- --- ------ ----- --- ---- ------- -- ---- --- --<br>------- ------,185117,185115,184767.573,184774.29999999702,184784.238,185134.004,,31,value
screen,html.Screen,2_1_1_1_32,2022-04-27T11:09:17.108Z,,,,,,,,,,,,,,,,,54,,,,,,,,,,,,,,388.99600000001374,,response,,,,100,,,,,,,Space,keypress(Space),,,,,,,,-- --- ---- --- ------ ----- ------- ---- -- --- ------- --<br>------- ---------- ------ -- ----- -- ----- -- ---- ------<br>--- ----- --- --- ------ -------- ----- --- ------ ----- of<br>----- ----- ---------- --- --- ------ ------ ---- -- ------<br>------- --- ------ ----- --- ---- ------- -- ---- --- --<br>------- ------,185525.19999999925,185523,185117.339,185117.29999999702,185134.004,185533.822,,32,of
screen,html.Screen,2_1_1_1_33,2022-04-27T11:09:17.523Z,,,,,,,,,,,,,,,,,54,,,,,,,,,,,,,,403.3779999992694,,response,,,,100,,,,,,,Space,keypress(Space),,,,,,,,-- --- ---- --- ------ ----- ------- ---- -- --- ------- --<br>------- ---------- ------ -- ----- -- ----- -- ---- ------<br>--- ----- --- --- ------ -------- ----- --- ------ ----- --<br>these ----- ---------- --- --- ------ ------ ---- -- ------<br>------- --- ------ ----- --- ---- ------- -- ---- --- --<br>------- ------,185939.59999999776,185937.19999999925,185517.157,185525.3999999985,185533.822,185950.258,,33,these
screen,html.Screen,2_1_1_1_34,2022-04-27T11:09:17.885Z,,,,,,,,,,,,,,,,,54,,,,,,,,,,,,,,349.8419999977632,,response,,,,100,,,,,,,Space,keypress(Space),,,,,,,,-- --- ---- --- ------ ----- ------- ---- -- --- ------- --<br>------- ---------- ------ -- ----- -- ----- -- ---- ------<br>--- ----- --- --- ------ -------- ----- --- ------ ----- --<br>----- bonds ---------- --- --- ------ ------ ---- -- ------<br>------- --- ------ ----- --- ---- ------- -- ---- --- --<br>------- ------,186302.09999999776,186300.09999999776,185933.593,185939.79999999702,185950.258,186316.693,,34,bonds
screen,html.Screen,2_1_1_1_35,2022-04-27T11:09:18.535Z,,,,,,,,,,,,,,,,,54,,,,,,,,,,,,,,632.7069999985106,,response,,,,100,,,,,,,Space,keypress(Space),,,,,,,,"-- --- ---- --- ------ ----- ------- ---- -- --- ------- --<br>------- ---------- ------ -- ----- -- ----- -- ---- ------<br>--- ----- --- --- ------ -------- ----- --- ------ ----- --<br>----- ----- plummeted, --- --- ------ ------ ---- -- ------<br>------- --- ------ ----- --- ---- ------- -- ---- --- --<br>------- ------",186951.59999999776,186949.3999999985,186300.028,186302.19999999925,186316.693,186966.47,,35,"plummeted,"
screen,html.Screen,2_1_1_1_36,2022-04-27T11:09:19.085Z,,,,,,,,,,,,,,,,,54,,,,,,,,,,,,,,531.6299999977637,,response,,,,100,,,,,,,Space,keypress(Space),,,,,,,,-- --- ---- --- ------ ----- ------- ---- -- --- ------- --<br>------- ---------- ------ -- ----- -- ----- -- ---- ------<br>--- ----- --- --- ------ -------- ----- --- ------ ----- --<br>----- ----- ---------- and --- ------ ------ ---- -- ------<br>------- --- ------ ----- --- ---- ------- -- ---- --- --<br>------- ------,187502.3999999985,187498.09999999776,186949.805,186951.79999999702,186966.47,187516.131,,36,and
screen,html.Screen,2_1_1_1_37,2022-04-27T11:09:19.542Z,,,,,,,,,,,,,,,,,54,,,,,,,,,,,,,,440.1689999970258,,response,,,,100,,,,,,,Space,keypress(Space),,,,,,,,-- --- ---- --- ------ ----- ------- ---- -- --- ------- --<br>------- ---------- ------ -- ----- -- ----- -- ---- ------<br>--- ----- --- --- ------ -------- ----- --- ------ ----- --<br>----- ----- ---------- --- the ------ ------ ---- -- ------<br>------- --- ------ ----- --- ---- ------- -- ---- --- --<br>------- ------,187959.3999999985,187956.29999999702,187499.466,187502.79999999702,187516.131,187965.842,,37,the
screen,html.Screen,2_1_1_1_38,2022-04-27T11:09:19.930Z,,,,,,,,,,,,,,,,,54,,,,,,,,,,,,,,378.75799999776063,,response,,,,100,,,,,,,Space,keypress(Space),,,,,,,,-- --- ---- --- ------ ----- ------- ---- -- --- ------- --<br>------- ---------- ------ -- ----- -- ----- -- ---- ------<br>--- ----- --- --- ------ -------- ----- --- ------ ----- --<br>----- ----- ---------- --- --- market ------ ---- -- ------<br>------- --- ------ ----- --- ---- ------- -- ---- --- --<br>------- ------,188347,188344.59999999776,187949.177,187959.79999999702,187965.842,188348.929,,38,market
screen,html.Screen,2_1_1_1_39,2022-04-27T11:09:20.291Z,,,,,,,,,,,,,,,,,54,,,,,,,,,,,,,,356.7709999992512,,response,,,,100,,,,,,,Space,keypress(Space),,,,,,,,-- --- ---- --- ------ ----- ------- ---- -- --- ------- --<br>------- ---------- ------ -- ----- -- ----- -- ---- ------<br>--- ----- --- --- ------ -------- ----- --- ------ ----- --<br>----- ----- ---------- --- --- ------ became ---- -- ------<br>------- --- ------ ----- --- ---- ------- -- ---- --- --<br>------- ------,188708.09999999776,188705.69999999925,188332.264,188347.19999999925,188348.929,188715.376,,39,became
screen,html.Screen,2_1_1_1_40,2022-04-27T11:09:20.868Z,,,,,,,,,,,,,,,,,54,,,,,,,,,,,,,,567.0239999985206,,response,,,,100,,,,,,,Space,keypress(Space),,,,,,,,-- --- ---- --- ------ ----- ------- ---- -- --- ------- --<br>------- ---------- ------ -- ----- -- ----- -- ---- ------<br>--- ----- --- --- ------ -------- ----- --- ------ ----- --<br>----- ----- ---------- --- --- ------ ------ wary -- ------<br>------- --- ------ ----- --- ---- ------- -- ---- --- --<br>------- ------,189284.69999999925,189282.3999999985,188698.711,188708.29999999702,188715.376,189298.487,,40,wary
screen,html.Screen,2_1_1_1_41,2022-04-27T11:09:21.456Z,,,,,,,,,,,,,,,,,54,,,,,,,,,,,,,,571.9129999985162,,response,,,,100,,,,,,,Space,keypress(Space),,,,,,,,-- --- ---- --- ------ ----- ------- ---- -- --- ------- --<br>------- ---------- ------ -- ----- -- ----- -- ---- ------<br>--- ----- --- --- ------ -------- ----- --- ------ ----- --<br>----- ----- ---------- --- --- ------ ------ ---- of ------<br>------- --- ------ ----- --- ---- ------- -- ---- --- --<br>------- ------,189873.19999999925,189870.3999999985,189281.822,189285,189298.487,189881.521,,41,of
screen,html.Screen,2_1_1_1_42,2022-04-27T11:09:21.843Z,,,,,,,,,,,,,,,,,54,,,,,,,,,,,,,,376.5789999977569,,response,,,,100,,,,,,,Space,keypress(Space),,,,,,,,-- --- ---- --- ------ ----- ------- ---- -- --- ------- --<br>------- ---------- ------ -- ----- -- ----- -- ---- ------<br>--- ----- --- --- ------ -------- ----- --- ------ ----- --<br>----- ----- ---------- --- --- ------ ------ ---- -- French<br>------- --- ------ ----- --- ---- ------- -- ---- --- --<br>------- ------,190260.29999999702,190258.09999999776,189864.856,189873.3999999985,189881.521,190264.54,,42,French
screen,html.Screen,2_1_1_1_43,2022-04-27T11:09:22.282Z,,,,,,,,,,,,,,,,,54,,,,,,,,,,,,,,431.7599999970116,,response,,,,100,,,,,,,Space,keypress(Space),,,,,,,,-- --- ---- --- ------ ----- ------- ---- -- --- ------- --<br>------- ---------- ------ -- ----- -- ----- -- ---- ------<br>--- ----- --- --- ------ -------- ----- --- ------ ----- --<br>----- ----- ---------- --- --- ------ ------ ---- -- ------<br>credit. --- ------ ----- --- ---- ------- -- ---- --- --<br>------- ------,190698.69999999925,190696.29999999702,190247.875,190260.5,190264.54,190714.328,,43,credit.
screen,html.Screen,2_1_1_1_44,2022-04-27T11:09:22.892Z,,,,,,,,,,,,,,,,,54,,,,,,,,,,,,,,591.9719999970112,,response,,,,100,,,,,,,Space,keypress(Space),,,,,,,,-- --- ---- --- ------ ----- ------- ---- -- --- ------- --<br>------- ---------- ------ -- ----- -- ----- -- ---- ------<br>--- ----- --- --- ------ -------- ----- --- ------ ----- --<br>----- ----- ---------- --- --- ------ ------ ---- -- ------<br>------- The ------ ----- --- ---- ------- -- ---- --- --<br>------- ------,191308.79999999702,191306.29999999702,190697.663,190698.8999999985,190714.328,191314.075,,44,The
screen,html.Screen,2_1_1_1_45,2022-04-27T11:09:23.386Z,,,,,,,,,,,,,,,,,54,,,,,,,,,,,,,,486.82499999849824,,response,,,,100,,,,,,,Space,keypress(Space),,,,,,,,-- --- ---- --- ------ ----- ------- ---- -- --- ------- --<br>------- ---------- ------ -- ----- -- ----- -- ---- ------<br>--- ----- --- --- ------ -------- ----- --- ------ ----- --<br>----- ----- ---------- --- --- ------ ------ ---- -- ------<br>------- --- French ----- --- ---- ------- -- ---- --- --<br>------- ------,191803.5,191800.8999999985,191297.41,191309,191314.075,191813.741,,45,French
screen,html.Screen,2_1_1_1_46,2022-04-27T11:09:23.757Z,,,,,,,,,,,,,,,,,54,,,,,,,,,,,,,,358.1589999985008,,response,,,,100,,,,,,,Space,keypress(Space),,,,,,,,-- --- ---- --- ------ ----- ------- ---- -- --- ------- --<br>------- ---------- ------ -- ----- -- ----- -- ---- ------<br>--- ----- --- --- ------ -------- ----- --- ------ ----- --<br>----- ----- ---------- --- --- ------ ------ ---- -- ------<br>------- --- ------ state --- ---- ------- -- ---- --- --<br>------- ------,192174.19999999925,192171.8999999985,191797.076,191803.69999999925,191813.741,192180.154,,46,state
screen,html.Screen,2_1_1_1_47,2022-04-27T11:09:24.069Z,,,,,,,,,,,,,,,,,54,,,,,,,,,,,,,,303.9459999977553,,response,,,,100,,,,,,,Space,keypress(Space),,,,,,,,-- --- ---- --- ------ ----- ------- ---- -- --- ------- --<br>------- ---------- ------ -- ----- -- ----- -- ---- ------<br>--- ----- --- --- ------ -------- ----- --- ------ ----- --<br>----- ----- ---------- --- --- ------ ------ ---- -- ------<br>------- --- ------ ----- was ---- ------- -- ---- --- --<br>------- ------,192486,192484.09999999776,192163.489,192174.3999999985,192180.154,192496.617,,47,was
screen,html.Screen,2_1_1_1_48,2022-04-27T11:09:24.456Z,,,,,,,,,,,,,,,,,54,,,,,,,,,,,,,,373.7829999985115,,response,,,,100,,,,,,,Space,keypress(Space),,,,,,,,-- --- ---- --- ------ ----- ------- ---- -- --- ------- --<br>------- ---------- ------ -- ----- -- ----- -- ---- ------<br>--- ----- --- --- ------ -------- ----- --- ------ ----- --<br>----- ----- ---------- --- --- ------ ------ ---- -- ------<br>------- --- ------ ----- --- left ------- -- ---- --- --<br>------- ------,192872.8999999985,192870.3999999985,192479.952,192486.19999999925,192496.617,192879.775,,48,left
screen,html.Screen,2_1_1_1_49,2022-04-27T11:09:24.916Z,,,,,,,,,,,,,,,,,54,,,,,,,,,,,,,,451.42499999926076,,response,,,,100,,,,,,,Space,keypress(Space),,,,,,,,-- --- ---- --- ------ ----- ------- ---- -- --- ------- --<br>------- ---------- ------ -- ----- -- ----- -- ---- ------<br>--- ----- --- --- ------ -------- ----- --- ------ ----- --<br>----- ----- ---------- --- --- ------ ------ ---- -- ------<br>------- --- ------ ----- --- ---- without -- ---- --- --<br>------- ------,193333.3999999985,193331.19999999925,192863.11,192873.09999999776,192879.775,193346.23,,49,without
screen,html.Screen,2_1_1_1_50,2022-04-27T11:09:25.576Z,,,,,,,,,,,,,,,,,54,,,,,,,,,,,,,,644.9699999992445,,response,,,,100,,,,,,,Space,keypress(Space),,,,,,,,-- --- ---- --- ------ ----- ------- ---- -- --- ------- --<br>------- ---------- ------ -- ----- -- ----- -- ---- ------<br>--- ----- --- --- ------ -------- ----- --- ------ ----- --<br>----- ----- ---------- --- --- ------ ------ ---- -- ------<br>------- --- ------ ----- --- ---- ------- an ---- --- --<br>------- ------,193993.5,193991.19999999925,193329.565,193333.59999999776,193346.23,193995.947,,50,an
screen,html.Screen,2_1_1_1_51,2022-04-27T11:09:25.968Z,,,,,,,,,,,,,,,,,54,,,,,,,,,,,,,,387.4529999985243,,response,,,,100,,,,,,,Space,keypress(Space),,,,,,,,-- --- ---- --- ------ ----- ------- ---- -- --- ------- --<br>------- ---------- ------ -- ----- -- ----- -- ---- ------<br>--- ----- --- --- ------ -------- ----- --- ------ ----- --<br>----- ----- ---------- --- --- ------ ------ ---- -- ------<br>------- --- ------ ----- --- ---- ------- -- easy --- --<br>------- ------,194385.3999999985,194383.3999999985,193979.282,193993.69999999925,193995.947,194395.619,,51,easy
screen,html.Screen,2_1_1_1_52,2022-04-27T11:09:26.335Z,,,,,,,,,,,,,,,,,54,,,,,,,,,,,,,,353.88099999999395,,response,,,,100,,,,,,,Space,keypress(Space),,,,,,,,-- --- ---- --- ------ ----- ------- ---- -- --- ------- --<br>------- ---------- ------ -- ----- -- ----- -- ---- ------<br>--- ----- --- --- ------ -------- ----- --- ------ ----- --<br>----- ----- ---------- --- --- ------ ------ ---- -- ------<br>------- --- ------ ----- --- ---- ------- -- ---- way --<br>------- ------,194751.69999999925,194749.5,194378.954,194385.5,194395.619,194762.078,,52,way
screen,html.Screen,2_1_1_1_53,2022-04-27T11:09:26.753Z,,,,,,,,,,,,,,,,,54,,,,,,,,,,,,,,405.72199999701115,,response,,,,100,,,,,,,Space,keypress(Space),,,,,,,,-- --- ---- --- ------ ----- ------- ---- -- --- ------- --<br>------- ---------- ------ -- ----- -- ----- -- ---- ------<br>--- ----- --- --- ------ -------- ----- --- ------ ----- --<br>----- ----- ---------- --- --- ------ ------ ---- -- ------<br>------- --- ------ ----- --- ---- ------- -- ---- --- of<br>------- ------,195170.59999999776,195167.79999999702,194745.413,194751.8999999985,194762.078,195178.52,,53,of
screen,html.Screen,2_1_1_1_54,2022-04-27T11:09:27.260Z,,,,,,,,,,,,,,,,,54,,,,,,,,,,,,,,495.9800000000105,,response,,,,100,,,,,,,Space,keypress(Space),,,,,,,,-- --- ---- --- ------ ----- ------- ---- -- --- ------- --<br>------- ---------- ------ -- ----- -- ----- -- ---- ------<br>--- ----- --- --- ------ -------- ----- --- ------ ----- --<br>----- ----- ---------- --- --- ------ ------ ---- -- ------<br>------- --- ------ ----- --- ---- ------- -- ---- --- --<br>raising ------,195677.09999999776,195674.5,195161.855,195170.79999999702,195178.52,195694.952,,54,raising
screen,html.Screen,2_1_1_1_55,2022-04-27T11:09:28.077Z,,,,,,,,,,,,,,,,,54,,,,,,,,,,,,,,797.0480000000098,,response,,,,100,,,,,,,Space,keypress(Space),,,,,,,,-- --- ---- --- ------ ----- ------- ---- -- --- ------- --<br>------- ---------- ------ -- ----- -- ----- -- ---- ------<br>--- ----- --- --- ------ -------- ----- --- ------ ----- --<br>----- ----- ---------- --- --- ------ ------ ---- -- ------<br>------- --- ------ ----- --- ---- ------- -- ---- --- --<br>------- money.,196494.09999999776,196492,195678.287,195677.29999999702,195694.952,196511.31,,55,money.
Item 100,flow.Loop,2_1_1_1,2022-04-27T11:09:28.077Z,,,,,,,,,,,,,,,,,,,,,,,,,,,,,,,27382.225000000006,,completion,,,,,B,,,,,,,,,,,silence,,,,,196494.29999999702,196492,169093.11,169095.29999999702,169109.775,196511.31,,,
Question 1,html.Screen,2_1_1_2,2022-04-27T11:09:31.158Z,,,,,,,,,,,,,,,,,,,,,,,,,,,,true,TRUE,,3061.6900000000023,,response,,,,100,B,,,,,,TRUE,click #choice-1,,,,silence,,,,,199574.59999999776,199573,196494.645,196494.5,196511.31,199575.97,,,
Question 2,html.Screen,2_1_1_3,2022-04-27T11:09:33.369Z,,,,,,,,,,,,,,,,,,,,,,,,,,,,true,FALSE,,2208.1299999977637,,response,,,,100,B,,,,,,FALSE,click #choice-2,,,,silence,,,,,201786.29999999702,201784.09999999776,199559.305,199574.79999999702,199575.97,201791.482,,,
Item 100,flow.Sequence,2_1_1,2022-04-27T11:09:33.369Z,,,,,,,,,,,,,,,,,,,,,,,,,,,,,,,42677.39299999777,,completion,,,,,,,,,,,,,,,,,,,,,201786.59999999776,201784.09999999776,159073.377,159091.29999999702,159106.707,201791.482,,,
End of Practice,html.Page,2_1_2,2022-04-27T11:09:37.626Z,,,,,,,,,,,,,,,,,,,,,,,,,,,,,,,4250.018000000011,,form submission,,,,,,,,,,,,,,,,,,,,,206042.69999999925,206041.5,201774.817,201786.79999999702,201791.482,206047.918,,,
Practice,flow.Sequence,2_1,2022-04-27T11:09:37.626Z,,,,,,,,,,,,,,,,,,,,,,,,,,,,,,,93367.445,,completion,,,,,,,,,,,,,,,,,,,,,206043.09999999776,206041.5,112640.725,112653.59999999776,112674.055,206047.918,,,
Trap_instruction,html.Page,2_2_0,2022-04-27T11:09:41.103Z,,,,,,,,,,,,,,,,,,,,,,,,,,,,,,,3470.6819999977597,,form submission,,,,,,,,,,,,,,,,,,,,,209519.69999999925,209518.59999999776,206031.253,206043.29999999702,206047.918,209580.194,,,
trap_trial,html.Screen,2_2_1,2022-04-27T11:09:44.841Z,,,,,,,,,,,,,,,,,,,,,,,,,,,,true,1,,3674.3060000000114,,response,,,,,,,,,,,1,click #choice-1,,,,,,,,,213257.79999999702,213254.5,209513.534,209519.8999999985,209580.194,213269.635,,,
end of trap trial,html.Page,2_2_2,2022-04-27T11:09:47.338Z,,,,,,,,,,,,,,,,,,,,,,,,,,,,,,,2484.8649999999907,,form submission,,,,,,,,,,,,,,,,,,,,,215755.19999999925,215754.5,213252.97,213258.3999999985,213269.635,215758.659,,,
Trap 1,flow.Sequence,2_2,2022-04-27T11:09:47.338Z,,,,,,,,,,,,,,,,,,,,,,,,,,,,,,,9706.581999999995,,completion,,,,,,,,,,,,,,,,,,,,,215755.59999999776,215754.5,206031.253,206043.29999999702,206047.918,215758.659,,,
Standby,html.Page,2_3_0,2022-04-27T11:09:55.334Z,,,,,,,,,,,,,,,,,,,,,,,,,,,,,,,8007.065999999992,,timeout,,,,,,,,,,,,,,,,,,,,,223751.19999999925,223749.06,215741.994,215755.69999999925,215758.659,223765.725,,,
Holding screen,html.Screen,2_3_1_0_0,2022-04-27T11:10:02.335Z,,,,,,,,,,,,,,,,,,,,,,,,,,,,,,,7000.861000000004,,timeout,,,,,,,,,,,,,,,,,,,,,230751.79999999702,230749.921,223749.06,223751.79999999702,223765.725,230766.586,,,
screen,html.Screen,2_3_1_0_1_0,2022-04-27T11:10:03.193Z,,,,,,,,,,,,,,,,,19,,,,,,,,,,,,,,839.1139999992447,,response,,,,17,B,,,,,,Space,keypress(Space),,,,lyrical,,,,"Interestingly, --- -------- -------- ---------- ---- -------<br>-- ---------- -- --- ----- ------ ----- ---- --------- ----<br>------- ------ -------- -- ------ ---------- ------ ---<br>------ -- -- ---- -- ---------- -------- ------ ---- -------<br>---- --- --------- ------- ----- --------- ---- ----- --<br>------ -------- -- ------ -- ---- ------------",231609.69999999925,231605.69999999925,230749.921,230752.3999999985,230766.586,231616.11,,0,"Interestingly,"
screen,html.Screen,2_3_1_0_1_1,2022-04-27T11:10:03.798Z,,,,,,,,,,,,,,,,,19,,,,,,,,,,,,,,596.4899999977788,,response,,,,17,B,,,,,,Space,keypress(Space),,,,lyrical,,,,-------------- the -------- -------- ---------- ---- -------<br>-- ---------- -- --- ----- ------ ----- ---- --------- ----<br>------- ------ -------- -- ------ ---------- ------ ---<br>------ -- -- ---- -- ---------- -------- ------ ---- -------<br>---- --- --------- ------- ----- --------- ---- ----- --<br>------ -------- -- ------ -- ---- ------------,232215,232212.59999999776,231599.445,231609.8999999985,231616.11,232223.929,,1,the
screen,html.Screen,2_3_1_0_1_2,2022-04-27T11:10:04.321Z,,,,,,,,,,,,,,,,,19,,,,,,,,,,,,,,511.37099999701604,,response,,,,17,B,,,,,,Space,keypress(Space),,,,lyrical,,,,-------------- --- heaviest -------- ---------- ---- -------<br>-- ---------- -- --- ----- ------ ----- ---- --------- ----<br>------- ------ -------- -- ------ ---------- ------ ---<br>------ -- -- ---- -- ---------- -------- ------ ---- -------<br>---- --- --------- ------- ----- --------- ---- ----- --<br>------ -------- -- ------ -- ---- ------------,232737.8999999985,232735.29999999702,232207.264,232215.29999999702,232223.929,232740.275,,2,heaviest
screen,html.Screen,2_3_1_0_1_3,2022-04-27T11:10:04.629Z,,,,,,,,,,,,,,,,,19,,,,,,,,,,,,,,303.42499999926076,,response,,,,17,B,,,,,,Space,keypress(Space),,,,lyrical,,,,-------------- --- -------- isotopes ---------- ---- -------<br>-- ---------- -- --- ----- ------ ----- ---- --------- ----<br>------- ------ -------- -- ------ ---------- ------ ---<br>------ -- -- ---- -- ---------- -------- ------ ---- -------<br>---- --- --------- ------- ----- --------- ---- ----- --<br>------ -------- -- ------ -- ---- ------------,233046.19999999925,233043.69999999925,232723.61,232738.09999999776,232740.275,233056.684,,3,isotopes
screen,html.Screen,2_3_1_0_1_4,2022-04-27T11:10:05.175Z,,,,,,,,,,,,,,,,,19,,,,,,,,,,,,,,532.1159999970114,,response,,,,17,B,,,,,,Space,keypress(Space),,,,lyrical,,,,-------------- --- -------- -------- physicists ---- -------<br>-- ---------- -- --- ----- ------ ----- ---- --------- ----<br>------- ------ -------- -- ------ ---------- ------ ---<br>------ -- -- ---- -- ---------- -------- ------ ---- -------<br>---- --- --------- ------- ----- --------- ---- ----- --<br>------ -------- -- ------ -- ---- ------------,233591.59999999776,233588.79999999702,233040.019,233046.3999999985,233056.684,233606.482,,4,physicists
screen,html.Screen,2_3_1_0_1_5,2022-04-27T11:10:05.512Z,,,,,,,,,,,,,,,,,19,,,,,,,,,,,,,,320.61799999777577,,response,,,,17,B,,,,,,Space,keypress(Space),,,,lyrical,,,,-------------- --- -------- -------- ---------- have -------<br>-- ---------- -- --- ----- ------ ----- ---- --------- ----<br>------- ------ -------- -- ------ ---------- ------ ---<br>------ -- -- ---- -- ---------- -------- ------ ---- -------<br>---- --- --------- ------- ----- --------- ---- ----- --<br>------ -------- -- ------ -- ---- ------------,233929.19999999925,233927.09999999776,233589.817,233591.79999999702,233606.482,233939.538,,5,have
screen,html.Screen,2_3_1_0_1_6,2022-04-27T11:10:05.965Z,,,,,,,,,,,,,,,,,19,,,,,,,,,,,,,,440.1619999992545,,response,,,,17,B,,,,,,Space,keypress(Space),,,,lyrical,,,,-------------- --- -------- -------- ---------- ---- managed<br>-- ---------- -- --- ----- ------ ----- ---- --------- ----<br>------- ------ -------- -- ------ ---------- ------ ---<br>------ -- -- ---- -- ---------- -------- ------ ---- -------<br>---- --- --------- ------- ----- --------- ---- ----- --<br>------ -------- -- ------ -- ---- ------------,234382,234379.69999999925,233922.873,233929.3999999985,233939.538,234389.341,,6,managed
screen,html.Screen,2_3_1_0_1_7,2022-04-27T11:10:06.345Z,,,,,,,,,,,,,,,,,19,,,,,,,,,,,,,,370.5589999985241,,response,,,,17,B,,,,,,Space,keypress(Space),,,,lyrical,,,,-------------- --- -------- -------- ---------- ---- -------<br>to ---------- -- --- ----- ------ ----- ---- --------- ----<br>------- ------ -------- -- ------ ---------- ------ ---<br>------ -- -- ---- -- ---------- -------- ------ ---- -------<br>---- --- --------- ------- ----- --------- ---- ----- --<br>------ -------- -- ------ -- ---- ------------,234762.5,234759.8999999985,234372.676,234382.19999999925,234389.341,234772.434,,7,to
screen,html.Screen,2_3_1_0_1_8,2022-04-27T11:10:06.546Z,,,,,,,,,,,,,,,,,19,,,,,,,,,,,,,,187.76599999924656,,response,,,,17,B,,,,,,Space,keypress(Space),,,,lyrical,,,,-------------- --- -------- -------- ---------- ---- -------<br>-- synthesize -- --- ----- ------ ----- ---- --------- ----<br>------- ------ -------- -- ------ ---------- ------ ---<br>------ -- -- ---- -- ---------- -------- ------ ---- -------<br>---- --- --------- ------- ----- --------- ---- ----- --<br>------ -------- -- ------ -- ---- ------------,234962.69999999925,234960.19999999925,234755.769,234762.69999999925,234772.434,234972.256,,8,synthesize
screen,html.Screen,2_3_1_0_1_9,2022-04-27T11:10:07.065Z,,,,,,,,,,,,,,,,,19,,,,,,,,,,,,,,507.14399999851594,,response,,,,17,B,,,,,,Space,keypress(Space),,,,lyrical,,,,-------------- --- -------- -------- ---------- ---- -------<br>-- ---------- so --- ----- ------ ----- ---- --------- ----<br>------- ------ -------- -- ------ ---------- ------ ---<br>------ -- -- ---- -- ---------- -------- ------ ---- -------<br>---- --- --------- ------- ----- --------- ---- ----- --<br>------ -------- -- ------ -- ---- ------------,235481.8999999985,235479.3999999985,234955.591,234962.79999999702,234972.256,235488.765,,9,so
screen,html.Screen,2_3_1_0_1_10,2022-04-27T11:10:07.448Z,,,,,,,,,,,,,,,,,19,,,,,,,,,,,,,,374.434999999241,,response,,,,17,B,,,,,,Space,keypress(Space),,,,lyrical,,,,-------------- --- -------- -------- ---------- ---- -------<br>-- ---------- -- far ----- ------ ----- ---- --------- ----<br>------- ------ -------- -- ------ ---------- ------ ---<br>------ -- -- ---- -- ---------- -------- ------ ---- -------<br>---- --- --------- ------- ----- --------- ---- ----- --<br>------ -------- -- ------ -- ---- ------------,235865.3999999985,235863.19999999925,235472.1,235482.09999999776,235488.765,235871.842,,10,far
screen,html.Screen,2_3_1_0_1_11,2022-04-27T11:10:07.996Z,,,,,,,,,,,,,,,,,19,,,,,,,,,,,,,,539.4579999970156,,response,,,,17,B,,,,,,Space,keypress(Space),,,,lyrical,,,,-------------- --- -------- -------- ---------- ---- -------<br>-- ---------- -- --- don't ------ ----- ---- --------- ----<br>------- ------ -------- -- ------ ---------- ------ ---<br>------ -- -- ---- -- ---------- -------- ------ ---- -------<br>---- --- --------- ------- ----- --------- ---- ----- --<br>------ -------- -- ------ -- ---- ------------,236413.5,236411.29999999702,235855.177,235865.59999999776,235871.842,236421.608,,11,don't
screen,html.Screen,2_3_1_0_1_12,2022-04-27T11:10:08.273Z,,,,,,,,,,,,,,,,,19,,,,,,,,,,,,,,266.29199999850243,,response,,,,17,B,,,,,,Space,keypress(Space),,,,lyrical,,,,-------------- --- -------- -------- ---------- ---- -------<br>-- ---------- -- --- ----- behave ----- ---- --------- ----<br>------- ------ -------- -- ------ ---------- ------ ---<br>------ -- -- ---- -- ---------- -------- ------ ---- -------<br>---- --- --------- ------- ----- --------- ---- ----- --<br>------ -------- -- ------ -- ---- ------------,236690.19999999925,236687.8999999985,236404.943,236413.69999999925,236421.608,236704.67,,12,behave
screen,html.Screen,2_3_1_0_1_13,2022-04-27T11:10:08.671Z,,,,,,,,,,,,,,,,,19,,,,,,,,,,,,,,379.929999997752,,response,,,,17,B,,,,,,Space,keypress(Space),,,,lyrical,,,,-------------- --- -------- -------- ---------- ---- -------<br>-- ---------- -- --- ----- ------ quite ---- --------- ----<br>------- ------ -------- -- ------ ---------- ------ ---<br>------ -- -- ---- -- ---------- -------- ------ ---- -------<br>---- --- --------- ------- ----- --------- ---- ----- --<br>------ -------- -- ------ -- ---- ------------,237088.09999999776,237084.59999999776,236688.005,236690.3999999985,236704.67,237104.499,,13,quite
screen,html.Screen,2_3_1_0_1_14,2022-04-27T11:10:08.963Z,,,,,,,,,,,,,,,,,19,,,,,,,,,,,,,,273.1009999977541,,response,,,,17,B,,,,,,Space,keypress(Space),,,,lyrical,,,,-------------- --- -------- -------- ---------- ---- -------<br>-- ---------- -- --- ----- ------ ----- like --------- ----<br>------- ------ -------- -- ------ ---------- ------ ---<br>------ -- -- ---- -- ---------- -------- ------ ---- -------<br>---- --- --------- ------- ----- --------- ---- ----- --<br>------ -------- -- ------ -- ---- ------------,237380.09999999776,237377.59999999776,237087.834,237088.29999999702,237104.499,237387.624,,14,like
screen,html.Screen,2_3_1_0_1_15,2022-04-27T11:10:09.366Z,,,,,,,,,,,,,,,,,19,,,,,,,,,,,,,,392.3759999999893,,response,,,,17,B,,,,,,Space,keypress(Space),,,,lyrical,,,,-------------- --- -------- -------- ---------- ---- -------<br>-- ---------- -- --- ----- ------ ----- ---- science's ----<br>------- ------ -------- -- ------ ---------- ------ ---<br>------ -- -- ---- -- ---------- -------- ------ ---- -------<br>---- --- --------- ------- ----- --------- ---- ----- --<br>------ -------- -- ------ -- ---- ------------,237782.59999999776,237780,237370.959,237380.19999999925,237387.624,237787.465,,15,science's
screen,html.Screen,2_3_1_0_1_16,2022-04-27T11:10:09.790Z,,,,,,,,,,,,,,,,,19,,,,,,,,,,,,,,416.73499999925843,,response,,,,17,B,,,,,,Space,keypress(Space),,,,lyrical,,,,-------------- --- -------- -------- ---------- ---- -------<br>-- ---------- -- --- ----- ------ ----- ---- --------- best<br>------- ------ -------- -- ------ ---------- ------ ---<br>------ -- -- ---- -- ---------- -------- ------ ---- -------<br>---- --- --------- ------- ----- --------- ---- ----- --<br>------ -------- -- ------ -- ---- ------------,238207,238204.19999999925,237770.8,237782.79999999702,237787.465,238220.56,,16,best
screen,html.Screen,2_3_1_0_1_17,2022-04-27T11:10:10.309Z,,,,,,,,,,,,,,,,,19,,,,,,,,,,,,,,502.8399999985122,,response,,,,17,B,,,,,,Space,keypress(Space),,,,lyrical,,,,-------------- --- -------- -------- ---------- ---- -------<br>-- ---------- -- --- ----- ------ ----- ---- --------- ----<br>current ------ -------- -- ------ ---------- ------ ---<br>------ -- -- ---- -- ---------- -------- ------ ---- -------<br>---- --- --------- ------- ----- --------- ---- ----- --<br>------ -------- -- ------ -- ---- ------------,238725.79999999702,238723.3999999985,238203.895,238207.19999999925,238220.56,238736.99,,17,current
screen,html.Screen,2_3_1_0_1_18,2022-04-27T11:10:10.689Z,,,,,,,,,,,,,,,,,19,,,,,,,,,,,,,,366.70999999926426,,response,,,,17,B,,,,,,Space,keypress(Space),,,,lyrical,,,,-------------- --- -------- -------- ---------- ---- -------<br>-- ---------- -- --- ----- ------ ----- ---- --------- ----<br>------- models -------- -- ------ ---------- ------ ---<br>------ -- -- ---- -- ---------- -------- ------ ---- -------<br>---- --- --------- ------- ----- --------- ---- ----- --<br>------ -------- -- ------ -- ---- ------------,239106.09999999776,239103.69999999925,238720.325,238726,238736.99,239120.05,,18,models
screen,html.Screen,2_3_1_0_1_19,2022-04-27T11:10:11.599Z,,,,,,,,,,,,,,,,,19,,,,,,,,,,,,,,893.5499999977765,,response,,,,17,B,,,,,,Space,keypress(Space),,,,lyrical,,,,"-------------- --- -------- -------- ---------- ---- -------<br>-- ---------- -- --- ----- ------ ----- ---- --------- ----<br>------- ------ predict, -- ------ ---------- ------ ---<br>------ -- -- ---- -- ---------- -------- ------ ---- -------<br>---- --- --------- ------- ----- --------- ---- ----- --<br>------ -------- -- ------ -- ---- ------------",240016.09999999776,240013.59999999776,239103.385,239106.29999999702,239120.05,240019.797,,19,"predict,"
screen,html.Screen,2_3_1_0_1_20,2022-04-27T11:10:12.257Z,,,,,,,,,,,,,,,,,19,,,,,,,,,,,,,,652.6029999985185,,response,,,,17,B,,,,,,Space,keypress(Space),,,,lyrical,,,,-------------- --- -------- -------- ---------- ---- -------<br>-- ---------- -- --- ----- ------ ----- ---- --------- ----<br>------- ------ -------- so ------ ---------- ------ ---<br>------ -- -- ---- -- ---------- -------- ------ ---- -------<br>---- --- --------- ------- ----- --------- ---- ----- --<br>------ -------- -- ------ -- ---- ------------,240674.5,240672.3999999985,240003.132,240016.29999999702,240019.797,240685.988,,20,so
screen,html.Screen,2_3_1_0_1_21,2022-04-27T11:10:12.710Z,,,,,,,,,,,,,,,,,19,,,,,,,,,,,,,,438.71199999924283,,response,,,,17,B,,,,,,Space,keypress(Space),,,,lyrical,,,,-------------- --- -------- -------- ---------- ---- -------<br>-- ---------- -- --- ----- ------ ----- ---- --------- ----<br>------- ------ -------- -- stable ---------- ------ ---<br>------ -- -- ---- -- ---------- -------- ------ ---- -------<br>---- --- --------- ------- ----- --------- ---- ----- --<br>------ -------- -- ------ -- ---- ------------,241126.69999999925,241124.69999999925,240669.323,240674.69999999925,240685.988,241135.639,,21,stable
screen,html.Screen,2_3_1_0_1_22,2022-04-27T11:10:13.295Z,,,,,,,,,,,,,,,,,19,,,,,,,,,,,,,,572.8610000000044,,response,,,,17,B,,,,,,Space,keypress(Space),,,,lyrical,,,,-------------- --- -------- -------- ---------- ---- -------<br>-- ---------- -- --- ----- ------ ----- ---- --------- ----<br>------- ------ -------- -- ------ superheavy ------ ---<br>------ -- -- ---- -- ---------- -------- ------ ---- -------<br>---- --- --------- ------- ----- --------- ---- ----- --<br>------ -------- -- ------ -- ---- ------------,241711.59999999776,241708.5,241118.974,241127.29999999702,241135.639,241718.721,,22,superheavy
screen,html.Screen,2_3_1_0_1_23,2022-04-27T11:10:13.696Z,,,,,,,,,,,,,,,,,19,,,,,,,,,,,,,,391.77900000000955,,response,,,,17,B,,,,,,Space,keypress(Space),,,,lyrical,,,,-------------- --- -------- -------- ---------- ---- -------<br>-- ---------- -- --- ----- ------ ----- ---- --------- ----<br>------- ------ -------- -- ------ ---------- nuclei ---<br>------ -- -- ---- -- ---------- -------- ------ ---- -------<br>---- --- --------- ------- ----- --------- ---- ----- --<br>------ -------- -- ------ -- ---- ------------,242113.09999999776,242110.5,241702.056,241711.79999999702,241718.721,242118.417,,23,nuclei
screen,html.Screen,2_3_1_0_1_24,2022-04-27T11:10:14.124Z,,,,,,,,,,,,,,,,,19,,,,,,,,,,,,,,419.88299999703304,,response,,,,17,B,,,,,,Space,keypress(Space),,,,lyrical,,,,-------------- --- -------- -------- ---------- ---- -------<br>-- ---------- -- --- ----- ------ ----- ---- --------- ----<br>------- ------ -------- -- ------ ---------- ------ are<br>------ -- -- ---- -- ---------- -------- ------ ---- -------<br>---- --- --------- ------- ----- --------- ---- ----- --<br>------ -------- -- ------ -- ---- ------------,242540.79999999702,242538.29999999702,242101.752,242113.19999999925,242118.417,242551.53,,24,are
screen,html.Screen,2_3_1_0_1_25,2022-04-27T11:10:14.581Z,,,,,,,,,,,,,,,,,19,,,,,,,,,,,,,,444.47000000000116,,response,,,,17,B,,,,,,Space,keypress(Space),,,,lyrical,,,,-------------- --- -------- -------- ---------- ---- -------<br>-- ---------- -- --- ----- ------ ----- ---- --------- ----<br>------- ------ -------- -- ------ ---------- ------ ---<br>likely -- -- ---- -- ---------- -------- ------ ---- -------<br>---- --- --------- ------- ----- --------- ---- ----- --<br>------ -------- -- ------ -- ---- ------------,242998.19999999925,242996,242534.865,242541.09999999776,242551.53,243001.291,,25,likely
screen,html.Screen,2_3_1_0_1_26,2022-04-27T11:10:15.149Z,,,,,,,,,,,,,,,,,19,,,,,,,,,,,,,,562.1089999985124,,response,,,,17,B,,,,,,Space,keypress(Space),,,,lyrical,,,,-------------- --- -------- -------- ---------- ---- -------<br>-- ---------- -- --- ----- ------ ----- ---- --------- ----<br>------- ------ -------- -- ------ ---------- ------ ---<br>------ to -- ---- -- ---------- -------- ------ ---- -------<br>---- --- --------- ------- ----- --------- ---- ----- --<br>------ -------- -- ------ -- ---- ------------,243565.59999999776,243563.3999999985,242984.626,242998.29999999702,243001.291,243567.703,,26,to
screen,html.Screen,2_3_1_0_1_27,2022-04-27T11:10:15.793Z,,,,,,,,,,,,,,,,,19,,,,,,,,,,,,,,640.2969999999914,,response,,,,17,B,,,,,,Space,keypress(Space),,,,lyrical,,,,-------------- --- -------- -------- ---------- ---- -------<br>-- ---------- -- --- ----- ------ ----- ---- --------- ----<br>------- ------ -------- -- ------ ---------- ------ ---<br>------ -- be ---- -- ---------- -------- ------ ---- -------<br>---- --- --------- ------- ----- --------- ---- ----- --<br>------ -------- -- ------ -- ---- ------------,244210.29999999702,244208,243551.038,243565.79999999702,243567.703,244217.378,,27,be
screen,html.Screen,2_3_1_0_1_28,2022-04-27T11:10:16.213Z,,,,,,,,,,,,,,,,,19,,,,,,,,,,,,,,409.9219999970228,,response,,,,17,B,,,,,,Space,keypress(Space),,,,lyrical,,,,-------------- --- -------- -------- ---------- ---- -------<br>-- ---------- -- --- ----- ------ ----- ---- --------- ----<br>------- ------ -------- -- ------ ---------- ------ ---<br>------ -- -- full -- ---------- -------- ------ ---- -------<br>---- --- --------- ------- ----- --------- ---- ----- --<br>------ -------- -- ------ -- ---- ------------,244629.59999999776,244627.29999999702,244200.713,244210.5,244217.378,244633.71,,28,full
screen,html.Screen,2_3_1_0_1_29,2022-04-27T11:10:16.942Z,,,,,,,,,,,,,,,,,19,,,,,,,,,,,,,,722.9899999992631,,response,,,,17,B,,,,,,Space,keypress(Space),,,,lyrical,,,,-------------- --- -------- -------- ---------- ---- -------<br>-- ---------- -- --- ----- ------ ----- ---- --------- ----<br>------- ------ -------- -- ------ ---------- ------ ---<br>------ -- -- ---- of ---------- -------- ------ ---- -------<br>---- --- --------- ------- ----- --------- ---- ----- --<br>------ -------- -- ------ -- ---- ------------,245359.19999999925,245356.69999999925,244617.045,244629.79999999702,244633.71,245366.783,,29,of
screen,html.Screen,2_3_1_0_1_30,2022-04-27T11:10:17.323Z,,,,,,,,,,,,,,,,,19,,,,,,,,,,,,,,371.2170000000042,,response,,,,17,B,,,,,,Space,keypress(Space),,,,lyrical,,,,-------------- --- -------- -------- ---------- ---- -------<br>-- ---------- -- --- ----- ------ ----- ---- --------- ----<br>------- ------ -------- -- ------ ---------- ------ ---<br>------ -- -- ---- -- surprises. -------- ------ ---- -------<br>---- --- --------- ------- ----- --------- ---- ----- --<br>------ -------- -- ------ -- ---- ------------,245740.3999999985,245738,245350.118,245359.59999999776,245366.783,245749.756,,30,surprises.
screen,html.Screen,2_3_1_0_1_31,2022-04-27T11:10:17.872Z,,,,,,,,,,,,,,,,,19,,,,,,,,,,,,,,537.0439999970258,,response,,,,17,B,,,,,,Space,keypress(Space),,,,lyrical,,,,-------------- --- -------- -------- ---------- ---- -------<br>-- ---------- -- --- ----- ------ ----- ---- --------- ----<br>------- ------ -------- -- ------ ---------- ------ ---<br>------ -- -- ---- -- ---------- Chemists ------ ---- -------<br>---- --- --------- ------- ----- --------- ---- ----- --<br>------ -------- -- ------ -- ---- ------------,246289.19999999925,246286.79999999702,245733.091,245740.59999999776,245749.756,246299.531,,31,Chemists
screen,html.Screen,2_3_1_0_1_32,2022-04-27T11:10:18.248Z,,,,,,,,,,,,,,,,,19,,,,,,,,,,,,,,363.36899999852176,,response,,,,17,B,,,,,,Space,keypress(Space),,,,lyrical,,,,-------------- --- -------- -------- ---------- ---- -------<br>-- ---------- -- --- ----- ------ ----- ---- --------- ----<br>------- ------ -------- -- ------ ---------- ------ ---<br>------ -- -- ---- -- ---------- -------- cannot ---- -------<br>---- --- --------- ------- ----- --------- ---- ----- --<br>------ -------- -- ------ -- ---- ------------,246665.09999999776,246662.8999999985,246282.866,246289.29999999702,246299.531,246682.565,,32,cannot
screen,html.Screen,2_3_1_0_1_33,2022-04-27T11:10:18.726Z,,,,,,,,,,,,,,,,,19,,,,,,,,,,,,,,457.4349999999977,,response,,,,17,B,,,,,,Space,keypress(Space),,,,lyrical,,,,-------------- --- -------- -------- ---------- ---- -------<br>-- ---------- -- --- ----- ------ ----- ---- --------- ----<br>------- ------ -------- -- ------ ---------- ------ ---<br>------ -- -- ---- -- ---------- -------- ------ even -------<br>---- --- --------- ------- ----- --------- ---- ----- --<br>------ -------- -- ------ -- ---- ------------,247142.59999999776,247140,246665.9,246665.29999999702,246682.565,247149.021,,33,even
screen,html.Screen,2_3_1_0_1_34,2022-04-27T11:10:19.348Z,,,,,,,,,,,,,,,,,19,,,,,,,,,,,,,,611.4789999999921,,response,,,,17,B,,,,,,Space,keypress(Space),,,,lyrical,,,,-------------- --- -------- -------- ---------- ---- -------<br>-- ---------- -- --- ----- ------ ----- ---- --------- ----<br>------- ------ -------- -- ------ ---------- ------ ---<br>------ -- -- ---- -- ---------- -------- ------ ---- predict<br>---- --- --------- ------- ----- --------- ---- ----- --<br>------ -------- -- ------ -- ---- ------------,247764.69999999925,247760.5,247132.356,247142.79999999702,247149.021,247782.081,,34,predict
screen,html.Screen,2_3_1_0_1_35,2022-04-27T11:10:20.035Z,,,,,,,,,,,,,,,,,19,,,,,,,,,,,,,,668.0189999977592,,response,,,,17,B,,,,,,Space,keypress(Space),,,,lyrical,,,,-------------- --- -------- -------- ---------- ---- -------<br>-- ---------- -- --- ----- ------ ----- ---- --------- ----<br>------- ------ -------- -- ------ ---------- ------ ---<br>------ -- -- ---- -- ---------- -------- ------ ---- -------<br>with --- --------- ------- ----- --------- ---- ----- --<br>------ -------- -- ------ -- ---- ------------,248452.59999999776,248450.09999999776,247765.416,247764.8999999985,247782.081,248465.062,,35,with
screen,html.Screen,2_3_1_0_1_36,2022-04-27T11:10:20.367Z,,,,,,,,,,,,,,,,,19,,,,,,,,,,,,,,316.93799999999464,,response,,,,17,B,,,,,,Space,keypress(Space),,,,lyrical,,,,-------------- --- -------- -------- ---------- ---- -------<br>-- ---------- -- --- ----- ------ ----- ---- --------- ----<br>------- ------ -------- -- ------ ---------- ------ ---<br>------ -- -- ---- -- ---------- -------- ------ ---- -------<br>---- any --------- ------- ----- --------- ---- ----- --<br>------ -------- -- ------ -- ---- ------------,248784.3999999985,248782,248448.397,248452.69999999925,248465.062,248798.064,,36,any
screen,html.Screen,2_3_1_0_1_37,2022-04-27T11:10:20.810Z,,,,,,,,,,,,,,,,,19,,,,,,,,,,,,,,427.1359999992419,,response,,,,17,B,,,,,,Space,keypress(Space),,,,lyrical,,,,-------------- --- -------- -------- ---------- ---- -------<br>-- ---------- -- --- ----- ------ ----- ---- --------- ----<br>------- ------ -------- -- ------ ---------- ------ ---<br>------ -- -- ---- -- ---------- -------- ------ ---- -------<br>---- --- certainty ------- ----- --------- ---- ----- --<br>------ -------- -- ------ -- ---- ------------,249227.3999999985,249225.19999999925,248781.399,248784.59999999776,248798.064,249231.199,,37,certainty
screen,html.Screen,2_3_1_0_1_38,2022-04-27T11:10:21.848Z,,,,,,,,,,,,,,,,,19,,,,,,,,,,,,,,1031.9009999977716,,response,,,,17,B,,,,,,Space,keypress(Space),,,,lyrical,,,,-------------- --- -------- -------- ---------- ---- -------<br>-- ---------- -- --- ----- ------ ----- ---- --------- ----<br>------- ------ -------- -- ------ ---------- ------ ---<br>------ -- -- ---- -- ---------- -------- ------ ---- -------<br>---- --- --------- whether ----- --------- ---- ----- --<br>------ -------- -- ------ -- ---- ------------,250265.3999999985,250263.09999999776,249214.534,249227.59999999776,249231.199,250280.909,,38,whether
screen,html.Screen,2_3_1_0_1_39,2022-04-27T11:10:22.551Z,,,,,,,,,,,,,,,,,19,,,,,,,,,,,,,,685.0909999999858,,response,,,,17,B,,,,,,Space,keypress(Space),,,,lyrical,,,,-------------- --- -------- -------- ---------- ---- -------<br>-- ---------- -- --- ----- ------ ----- ---- --------- ----<br>------- ------ -------- -- ------ ---------- ------ ---<br>------ -- -- ---- -- ---------- -------- ------ ---- -------<br>---- --- --------- ------- these --------- ---- ----- --<br>------ -------- -- ------ -- ---- ------------,250968.19999999925,250966,250264.244,250265.59999999776,250280.909,250972.086,,39,these
