sender,sender_type,sender_id,timestamp,meta,,Blues,Classical,Country,Dance,Electronic,Folk,Gospel,Hip-Hop,Jazz,Latin,Musical/Film,New-age,Pop,Prolific_id,Provo_ID,R&B,Rap,Reggae,Religious,Rock,Soul,Swing,Traditional,age,artist_name,correct,correctResponse,distraction,duration,education,ended_on,familiarity,gender,headphone_check_performance,item,list,music_frequency,offensiveness,pleasantness,position_correct,preference,response,response_action,snippet_file,song_name,song_rating,sound,stimulus_1,stimulus_2,stimulus_3,text,time_commit,time_end,time_render,time_run,time_show,time_switch,url,word,word_ID
Prolific ID,html.Form,0,2022-05-03T10:27:05.220Z,"{""labjs_version"":""20.2.2"",""labjs_build"":{""flavor"":""production"",""commit"":""a25486e0c714a0ae2ce03ff94b7bb6896854dcfa""},""location"":""https://run.pavlovia.org/mvasilev/prolific3_music_h/"",""userAgent"":""Mozilla/5.0 (Windows NT 10.0; Win64; x64) AppleWebKit/537.36 (KHTML, like Gecko) Chrome/100.0.4896.60 Safari/537.36 Edg/100.0.1185.29"",""platform"":""Win32"",""language"":""en-US"",""locale"":""en-US"",""timeZone"":""Europe/London"",""timezoneOffset"":-60,""screen_width"":1536,""screen_height"":864,""scroll_width"":1536,""scroll_height"":706,""window_innerWidth"":1536,""window_innerHeight"":754,""devicePixelRatio"":1.25}",,,,,,,,,,,,,,,5f8453fff0d4290809876070,,,,,,,,,,,,,,,16348.239000000001,,form submission,,,,,,,,,,,,,,,,,,,,,42968.7000002861,42966.5,26551.475,26556,26618.261,42983.952,{},,
Introduction,html.Screen,1_0,2022-05-03T10:27:08.756Z,,,,,,,,,,,,,,,,,,,,,,,,,,,,,,,3512.248000286105,,response,,,,,,,,,,,continue,click button,,,,,,,,,46504.5,46496.2000002861,42950.617,42969.40000009537,42983.952,46533.724,,,
Volume calibration,html.Screen,1_1,2022-05-03T10:27:23.660Z,,,,,,,,,,,,,,,,,,,,,,,,,,,,,,,14862.576000190733,,response,,,,,,,,,,,continue,click button,,,,,,,,,61408.40000009537,61396.300000190735,46483.777,46505,46533.724,61416.301,,,
Task instructions,html.Screen,1_2,2022-05-03T10:27:28.057Z,,,,,,,,,,,,,,,,,,,,,,,,,,,,,,,4387.29900038147,,response,,,,,,,,,,,continue,click button,,,,,,,,,65804.90000009537,65803.60000038147,61382.914,61408.800000190735,61416.301,65815.877,,,
Sounds,html.Screen,1_3_0_0,2022-05-03T10:27:32.309Z,,,,,,,,,,,,,,,,,,,,,,,,,,,,,,,4250.177000000011,,timeout,,,,,,,,,2,,,,,,,,I,S,O,,70056.90000009537,70049.074,65799.273,65805.10000038147,65815.877,70066.054,,,
Judgement,html.Screen,1_3_0_1,2022-05-03T10:27:35.809Z,,,,,,,,,,,,,,,,,,,,,,,,,,,,true,2,,3488.546000381466,,response,,,,,,,,,2,,2,click #choice-2,,,,,I,S,O,,73557,73554.60000038147,70049.074,70057.40000009537,70066.054,73565.534,,,
Trial,flow.Sequence,1_3_0,2022-05-03T10:27:35.815Z,,,,,,,,,,,,,,,,,,,,,,,,,,,,,,,7738.723000381477,,completion,,,,,,,,,2,,,,,,,,I,S,O,,73563,73554.60000038147,65799.273,65805,65815.877,73565.534,,,
Sounds,html.Screen,1_3_1_0,2022-05-03T10:27:40.051Z,,,,,,,,,,,,,,,,,,,,,,,,,,,,,,,4249.676999999996,,timeout,,,,,,,,,3,,,,,,,,I,O,S,,77799.40000009537,77798.537,73548.876,73563.60000038147,73565.534,77815.211,,,
Judgement,html.Screen,1_3_1_1,2022-05-03T10:27:41.536Z,,,,,,,,,,,,,,,,,,,,,,,,,,,,true,3,,1467.6890000953717,,response,,,,,,,,,3,,3,click #choice-3,,,,,I,O,S,,79283.90000009537,79282.90000009537,77798.537,77799.7000002861,77815.211,79298.487,,,
Trial,flow.Sequence,1_3_1,2022-05-03T10:27:41.536Z,,,,,,,,,,,,,,,,,,,,,,,,,,,,,,,5717.366000095368,,completion,,,,,,,,,3,,,,,,,,I,O,S,,79284.2000002861,79282.90000009537,73548.876,73563.40000009537,73565.534,79298.487,,,
Sounds,html.Screen,1_3_2_0,2022-05-03T10:27:45.786Z,,,,,,,,,,,,,,,,,,,,,,,,,,,,,,,4249.767000000007,,timeout,,,,,,,,,1,,,,,,,,S,O,I,,83533.80000019073,83531.627,79281.792,79284.40000009537,79298.487,83548.254,,,
Judgement,html.Screen,1_3_2_1,2022-05-03T10:27:47.698Z,,,,,,,,,,,,,,,,,,,,,,,,,,,,false,1,,1896.046000190734,,response,,,,,,,,,1,,2,click #choice-2,,,,,S,O,I,,85446.10000038147,85444.30000019073,83531.627,83534.40000009537,83548.254,85448.18,,,
Trial,flow.Sequence,1_3_2,2022-05-03T10:27:47.698Z,,,,,,,,,,,,,,,,,,,,,,,,,,,,,,,6145.813000190741,,completion,,,,,,,,,1,,,,,,,,S,O,I,,85446.30000019073,85444.30000019073,79281.792,79284.40000009537,79298.487,85448.18,,,
Sounds,html.Screen,1_3_3_0,2022-05-03T10:27:51.934Z,,,,,,,,,,,,,,,,,,,,,,,,,,,,,,,4249.676000000007,,timeout,,,,,,,,,3,,,,,,,,O,I,S,,89682.5,89681.189,85431.627,85446.5,85448.18,89697.856,,,
Judgement,html.Screen,1_3_3_1,2022-05-03T10:27:52.452Z,,,,,,,,,,,,,,,,,,,,,,,,,,,,true,3,,500.74400038146996,,response,,,,,,,,,3,,3,click #choice-3,,,,,O,I,S,,90199.90000009537,90198.60000038147,89681.189,89682.60000038147,89697.856,90214.5,,,
Trial,flow.Sequence,1_3_3,2022-05-03T10:27:52.452Z,,,,,,,,,,,,,,,,,,,,,,,,,,,,,,,4750.420000381477,,completion,,,,,,,,,3,,,,,,,,O,I,S,,90200,90198.60000038147,85431.627,85446.5,85448.18,90214.5,,,
Sounds,html.Screen,1_3_4_0,2022-05-03T10:27:56.700Z,,,,,,,,,,,,,,,,,,,,,,,,,,,,,,,4249.748999999996,,timeout,,,,,,,,,1,,,,,,,,S,I,O,,94448.7000002861,94447.557,90197.847,90200.2000002861,90214.5,94464.249,,,
Judgement,html.Screen,1_3_4_1,2022-05-03T10:27:57.331Z,,,,,,,,,,,,,,,,,,,,,,,,,,,,true,1,,612.8510003814736,,response,,,,,,,,,1,,1,click #choice-1,,,,,S,I,O,,95079.30000019073,95077.10000038147,94447.557,94448.80000019073,94464.249,95080.946,,,
Trial,flow.Sequence,1_3_4,2022-05-03T10:27:57.332Z,,,,,,,,,,,,,,,,,,,,,,,,,,,,,,,4862.60000038147,,completion,,,,,,,,,1,,,,,,,,S,I,O,,95080,95077.10000038147,90197.847,90200.10000038147,90214.5,95080.946,,,
Sounds,html.Screen,1_3_5_0,2022-05-03T10:28:01.567Z,,,,,,,,,,,,,,,,,,,,,,,,,,,,,,,4249.650999999998,,timeout,,,,,,,,,2,,,,,,,,O,S,I,,99315,99313.949,95064.345,95080.40000009537,95080.946,99330.597,,,
Judgement,html.Screen,1_3_5_1,2022-05-03T10:28:02.063Z,,,,,,,,,,,,,,,,,,,,,,,,,,,,true,2,,477.80300009537314,,response,,,,,,,,,2,,2,click #choice-2,,,,,O,S,I,,99810.90000009537,99808.40000009537,99313.949,99315.2000002861,99330.597,99830.682,,,
Trial,flow.Sequence,1_3_5,2022-05-03T10:28:02.063Z,,,,,,,,,,,,,,,,,,,,,,,,,,,,,,,4727.454000095371,,completion,,,,,,,,,2,,,,,,,,O,S,I,,99811.40000009537,99808.40000009537,95064.345,95080.30000019073,95080.946,99830.682,,,
Task,flow.Loop,1_3,2022-05-03T10:28:02.077Z,,,,,,,,,,,,,,,,,,,,,,,,,,,,,,,33992.523000095374,,completion,,,0.8333333333333334,,,,,,,,,,,,,,,,,,99825.60000038147,99808.40000009537,65799.273,65805,65815.877,99830.682,,,
Trap,html.Screen,1_4,2022-05-03T10:28:02.081Z,,,,,,,,,,,,,,,,,,,,,,,,,,,,,,,NaN,,skipped,,,,,,,,,,,,,,,,,,,,,99829.60000038147,99808.40000009537,,99829.2000002861,,99830.682,,,
Thanks,html.Screen,1_5,2022-05-03T10:28:05.395Z,,,,,,,,,,,,,,,,,,,,,,,,,,,,,,,3310.8179999999993,,response,,,,,,,,,,,continue,click button,,,,,,,,,103143.60000038147,103141.5,99797.308,99830,99830.682,105763.703,,,
Headphone screening,flow.Sequence,1,2022-05-03T10:28:05.396Z,,,,,,,,,,,,,,,,,,,,,,,,,,,,,,,60157.548,,completion,,,,,,,,,,,,,,,,,,,,,103144.2000002861,103141.5,42950.617,42969.300000190735,42983.952,105763.703,,,
Instructions,html.Page,2_0,2022-05-03T10:28:13.518Z,,,,,,,,,,,,,,,,,,,,,,,,,,,,,,,5500.997000286108,,form submission,,,,,,,,,,,,,,,,,,,,,111265.80000019073,111264.7000002861,105730.322,105751.60000038147,105763.703,111279.992,,,
Holding screen,html.Screen,2_1_0_0,2022-05-03T10:28:23.516Z,,,,,,,,,,,,,,,,,,,,,,,,,,,,,,,10016.020000000004,,timeout,,,,,,,,,,,,,,,,,,,,,121264.40000009537,121262.73,111246.655,111266.60000038147,111279.992,121296.012,,,
screen,html.Screen,2_1_0_1_0,2022-05-03T10:28:24.683Z,,,,,,,,,,,,,,,,,53,,,,,,,,,,,,,,1132.0880003814673,,response,,,,99,,,,,,,Space,keypress(Space),,,,,,,,When -- ----- -- ------ - ------- --- ----------<br>------------- ------ ------ ---- ---- ------- ----- -- ----<br>-------- ------- -- ---------- --- - --- ----- ----- ----<br>---- --- --- ----- --- ---- ---- ------- ----- ---- -------<br>--- --- -- ----- -- --- ---- -- --- ---- -- ------ ------<br>--- ----- -- ----,122430.7000002861,122428.10000038147,121262.73,121265,121296.012,122446.035,,0,When
screen,html.Screen,2_1_0_1_1,2022-05-03T10:28:25.304Z,,,,,,,,,,,,,,,,,53,,,,,,,,,,,,,,604.4649999999965,,response,,,,99,,,,,,,Space,keypress(Space),,,,,,,,---- it ----- -- ------ - ------- --- ----------<br>------------- ------ ------ ---- ---- ------- ----- -- ----<br>-------- ------- -- ---------- --- - --- ----- ----- ----<br>---- --- --- ----- --- ---- ---- ------- ----- ---- -------<br>--- --- -- ----- -- --- ---- -- --- ---- -- ------ ------<br>--- ----- -- ----,123052,123050.5,122429.257,122431,122446.035,123062.628,,1,it
screen,html.Screen,2_1_0_1_2,2022-05-03T10:28:25.838Z,,,,,,,,,,,,,,,,,53,,,,,,,,,,,,,,522.1720001907379,,response,,,,99,,,,,,,Space,keypress(Space),,,,,,,,---- -- comes -- ------ - ------- --- ----------<br>------------- ------ ------ ---- ---- ------- ----- -- ----<br>-------- ------- -- ---------- --- - --- ----- ----- ----<br>---- --- --- ----- --- ---- ---- ------- ----- ---- -------<br>--- --- -- ----- -- --- ---- -- --- ---- -- ------ ------<br>--- ----- -- ----,123585.80000019073,123584.80000019073,123045.902,123052.40000009537,123062.628,123595.839,,2,comes
screen,html.Screen,2_1_0_1_3,2022-05-03T10:28:27.199Z,,,,,,,,,,,,,,,,,53,,,,,,,,,,,,,,1349.1609999999928,,response,,,,99,,,,,,,Space,keypress(Space),,,,,,,,---- -- ----- to ------ - ------- --- ----------<br>------------- ------ ------ ---- ---- ------- ----- -- ----<br>-------- ------- -- ---------- --- - --- ----- ----- ----<br>---- --- --- ----- --- ---- ---- ------- ----- ---- -------<br>--- --- -- ----- -- --- ---- -- --- ---- -- ------ ------<br>--- ----- -- ----,124946.60000038147,124945,123579.269,123585.90000009537,123595.839,124962.638,,3,to
screen,html.Screen,2_1_0_1_4,2022-05-03T10:28:27.672Z,,,,,,,,,,,,,,,,,53,,,,,,,,,,,,,,455.8619999999937,,response,,,,99,,,,,,,Space,keypress(Space),,,,,,,,---- -- ----- -- having - ------- --- ----------<br>------------- ------ ------ ---- ---- ------- ----- -- ----<br>-------- ------- -- ---------- --- - --- ----- ----- ----<br>---- --- --- ----- --- ---- ---- ------- ----- ---- -------<br>--- --- -- ----- -- --- ---- -- --- ---- -- ------ ------<br>--- ----- -- ----,125420,125418.5,124945.738,124947,124962.638,125429.141,,4,having
screen,html.Screen,2_1_0_1_5,2022-05-03T10:28:28.163Z,,,,,,,,,,,,,,,,,53,,,,,,,,,,,,,,481.45900038146647,,response,,,,99,,,,,,,Space,keypress(Space),,,,,,,,---- -- ----- -- ------ a ------- --- ----------<br>------------- ------ ------ ---- ---- ------- ----- -- ----<br>-------- ------- -- ---------- --- - --- ----- ----- ----<br>---- --- --- ----- --- ---- ---- ------- ----- ---- -------<br>--- --- -- ----- -- --- ---- -- --- ---- -- ------ ------<br>--- ----- -- ----,125911.30000019073,125910.60000038147,125412.611,125420.30000019073,125429.141,125912.398,,5,a
screen,html.Screen,2_1_0_1_6,2022-05-03T10:28:28.695Z,,,,,,,,,,,,,,,,,53,,,,,,,,,,,,,,529.101999999999,,response,,,,99,,,,,,,Space,keypress(Space),,,,,,,,---- -- ----- -- ------ - lasting --- ----------<br>------------- ------ ------ ---- ---- ------- ----- -- ----<br>-------- ------- -- ---------- --- - --- ----- ----- ----<br>---- --- --- ----- --- ---- ---- ------- ----- ---- -------<br>--- --- -- ----- -- --- ---- -- --- ---- -- ------ ------<br>--- ----- -- ----,126443.10000038147,126441.5,125895.916,125911.5,125912.398,126445.744,,6,lasting
screen,html.Screen,2_1_0_1_7,2022-05-03T10:28:29.197Z,,,,,,,,,,,,,,,,,53,,,,,,,,,,,,,,498.25599999999395,,response,,,,99,,,,,,,Space,keypress(Space),,,,,,,,---- -- ----- -- ------ - ------- and ----------<br>------------- ------ ------ ---- ---- ------- ----- -- ----<br>-------- ------- -- ---------- --- - --- ----- ----- ----<br>---- --- --- ----- --- ---- ---- ------- ----- ---- -------<br>--- --- -- ----- -- --- ---- -- --- ---- -- ------ ------<br>--- ----- -- ----,126945.40000009537,126944,126429.03,126443.60000038147,126445.744,126962.518,,7,and
screen,html.Screen,2_1_0_1_8,2022-05-03T10:28:29.653Z,,,,,,,,,,,,,,,,,53,,,,,,,,,,,,,,438.08200038147334,,response,,,,99,,,,,,,Space,keypress(Space),,,,,,,,---- -- ----- -- ------ - ------- --- fulfilling<br>------------- ------ ------ ---- ---- ------- ----- -- ----<br>-------- ------- -- ---------- --- - --- ----- ----- ----<br>---- --- --- ----- --- ---- ---- ------- ----- ---- -------<br>--- --- -- ----- -- --- ---- -- --- ---- -- ------ ------<br>--- ----- -- ----,127401.30000019073,127400.60000038147,126945.81,126945.80000019073,126962.518,127412.283,,8,fulfilling
screen,html.Screen,2_1_0_1_9,2022-05-03T10:28:30.093Z,,,,,,,,,,,,,,,,,53,,,,,,,,,,,,,,426.2170000000042,,response,,,,99,,,,,,,Space,keypress(Space),,,,,,,,"---- -- ----- -- ------ - ------- --- ----------<br>relationship, ------ ------ ---- ---- ------- ----- -- ----<br>-------- ------- -- ---------- --- - --- ----- ----- ----<br>---- --- --- ----- --- ---- ---- ------- ----- ---- -------<br>--- --- -- ----- -- --- ---- -- --- ---- -- ------ ------<br>--- ----- -- ----",127840.60000038147,127838.5,127395.802,127401.5,127412.283,127845.643,,9,"relationship,"
screen,html.Screen,2_1_0_1_10,2022-05-03T10:28:30.532Z,,,,,,,,,,,,,,,,,53,,,,,,,,,,,,,,433.1570001907385,,response,,,,99,,,,,,,Space,keypress(Space),,,,,,,,---- -- ----- -- ------ - ------- --- ----------<br>------------- common ------ ---- ---- ------- ----- -- ----<br>-------- ------- -- ---------- --- - --- ----- ----- ----<br>---- --- --- ----- --- ---- ---- ------- ----- ---- -------<br>--- --- -- ----- -- --- ---- -- --- ---- -- ------ ------<br>--- ----- -- ----,128280.40000009537,128278.80000019073,127828.93,127840.90000009537,127845.643,128295.774,,10,common
screen,html.Screen,2_1_0_1_11,2022-05-03T10:28:30.915Z,,,,,,,,,,,,,,,,,53,,,,,,,,,,,,,,365.82600038146484,,response,,,,99,,,,,,,Space,keypress(Space),,,,,,,,---- -- ----- -- ------ - ------- --- ----------<br>------------- ------ wisdom ---- ---- ------- ----- -- ----<br>-------- ------- -- ---------- --- - --- ----- ----- ----<br>---- --- --- ----- --- ---- ---- ------- ----- ---- -------<br>--- --- -- ----- -- --- ---- -- --- ---- -- ------ ------<br>--- ----- -- ----,128663.2000002861,128661.60000038147,128278.907,128280.80000019073,128295.774,128678.967,,11,wisdom
screen,html.Screen,2_1_0_1_12,2022-05-03T10:28:31.310Z,,,,,,,,,,,,,,,,,53,,,,,,,,,,,,,,376.93300009536324,,response,,,,99,,,,,,,Space,keypress(Space),,,,,,,,---- -- ----- -- ------ - ------- --- ----------<br>------------- ------ ------ says ---- ------- ----- -- ----<br>-------- ------- -- ---------- --- - --- ----- ----- ----<br>---- --- --- ----- --- ---- ---- ------- ----- ---- -------<br>--- --- -- ----- -- --- ---- -- --- ---- -- ------ ------<br>--- ----- -- ----,129057.5,129055.90000009537,128662.276,128663.5,128678.967,129062.306,,12,says
screen,html.Screen,2_1_0_1_13,2022-05-03T10:28:31.668Z,,,,,,,,,,,,,,,,,53,,,,,,,,,,,,,,352.69400000000314,,response,,,,99,,,,,,,Space,keypress(Space),,,,,,,,---- -- ----- -- ------ - ------- --- ----------<br>------------- ------ ------ ---- that ------- ----- -- ----<br>-------- ------- -- ---------- --- - --- ----- ----- ----<br>---- --- --- ----- --- ---- ---- ------- ----- ---- -------<br>--- --- -- ----- -- --- ---- -- --- ---- -- ------ ------<br>--- ----- -- ----,129416.40000009537,129415,129045.693,129057.90000009537,129062.306,129428.924,,13,that
screen,html.Screen,2_1_0_1_14,2022-05-03T10:28:32.034Z,,,,,,,,,,,,,,,,,53,,,,,,,,,,,,,,351.67600038147066,,response,,,,99,,,,,,,Space,keypress(Space),,,,,,,,---- -- ----- -- ------ - ------- --- ----------<br>------------- ------ ------ ---- ---- feeling ----- -- ----<br>-------- ------- -- ---------- --- - --- ----- ----- ----<br>---- --- --- ----- --- ---- ---- ------- ----- ---- -------<br>--- --- -- ----- -- --- ---- -- --- ---- -- ------ ------<br>--- ----- -- ----,129782.2000002861,129780.60000038147,129412.258,129416.7000002861,129428.924,129795.589,,14,feeling
screen,html.Screen,2_1_0_1_15,2022-05-03T10:28:32.393Z,,,,,,,,,,,,,,,,,53,,,,,,,,,,,,,,343.6110002860951,,response,,,,99,,,,,,,Space,keypress(Space),,,,,,,,---- -- ----- -- ------ - ------- --- ----------<br>------------- ------ ------ ---- ---- ------- close -- ----<br>-------- ------- -- ---------- --- - --- ----- ----- ----<br>---- --- --- ----- --- ---- ---- ------- ----- ---- -------<br>--- --- -- ----- -- --- ---- -- --- ---- -- ------ ------<br>--- ----- -- ----,130140.60000038147,130139.2000002861,129779.014,129782.60000038147,129795.589,130145.535,,15,close
screen,html.Screen,2_1_0_1_16,2022-05-03T10:28:32.740Z,,,,,,,,,,,,,,,,,53,,,,,,,,,,,,,,340.9649999999965,,response,,,,99,,,,,,,Space,keypress(Space),,,,,,,,---- -- ----- -- ------ - ------- --- ----------<br>------------- ------ ------ ---- ---- ------- ----- to ----<br>-------- ------- -- ---------- --- - --- ----- ----- ----<br>---- --- --- ----- --- ---- ---- ------- ----- ---- -------<br>--- --- -- ----- -- --- ---- -- --- ---- -- ------ ------<br>--- ----- -- ----,130488.10000038147,130486.5,130128.933,130140.90000009537,130145.535,130495.538,,16,to
screen,html.Screen,2_1_0_1_17,2022-05-03T10:28:33.077Z,,,,,,,,,,,,,,,,,53,,,,,,,,,,,,,,327.46199999999953,,response,,,,99,,,,,,,Space,keypress(Space),,,,,,,,---- -- ----- -- ------ - ------- --- ----------<br>------------- ------ ------ ---- ---- ------- ----- -- your<br>-------- ------- -- ---------- --- - --- ----- ----- ----<br>---- --- --- ----- --- ---- ---- ------- ----- ---- -------<br>--- --- -- ----- -- --- ---- -- --- ---- -- ------ ------<br>--- ----- -- ----,130824.40000009537,130823,130478.894,130488.5,130495.538,130828.823,,17,your
screen,html.Screen,2_1_0_1_18,2022-05-03T10:28:33.396Z,,,,,,,,,,,,,,,,,53,,,,,,,,,,,,,,313.4770001907309,,response,,,,99,,,,,,,Space,keypress(Space),,,,,,,,---- -- ----- -- ------ - ------- --- ----------<br>------------- ------ ------ ---- ---- ------- ----- -- ----<br>romantic ------- -- ---------- --- - --- ----- ----- ----<br>---- --- --- ----- --- ---- ---- ------- ----- ---- -------<br>--- --- -- ----- -- --- ---- -- --- ---- -- ------ ------<br>--- ----- -- ----,131143.80000019073,131142.30000019073,130812.235,130824.80000019073,130828.823,131162.154,,18,romantic
screen,html.Screen,2_1_0_1_19,2022-05-03T10:28:33.713Z,,,,,,,,,,,,,,,,,53,,,,,,,,,,,,,,297.4460003814602,,response,,,,99,,,,,,,Space,keypress(Space),,,,,,,,---- -- ----- -- ------ - ------- --- ----------<br>------------- ------ ------ ---- ---- ------- ----- -- ----<br>-------- partner -- ---------- --- - --- ----- ----- ----<br>---- --- --- ----- --- ---- ---- ------- ----- ---- -------<br>--- --- -- ----- -- --- ---- -- --- ---- -- ------ ------<br>--- ----- -- ----,131460.90000009537,131459.60000038147,131145.438,131144.2000002861,131162.154,131478.919,,19,partner
screen,html.Screen,2_1_0_1_20,2022-05-03T10:28:34.034Z,,,,,,,,,,,,,,,,,53,,,,,,,,,,,,,,301.88100019074045,,response,,,,99,,,,,,,Space,keypress(Space),,,,,,,,---- -- ----- -- ------ - ------- --- ----------<br>------------- ------ ------ ---- ---- ------- ----- -- ----<br>-------- ------- is ---------- --- - --- ----- ----- ----<br>---- --- --- ----- --- ---- ---- ------- ----- ---- -------<br>--- --- -- ----- -- --- ---- -- --- ---- -- ------ ------<br>--- ----- -- ----,131782.2000002861,131780.80000019073,131462.221,131461.30000019073,131478.919,131795.425,,20,is
screen,html.Screen,2_1_0_1_21,2022-05-03T10:28:34.373Z,,,,,,,,,,,,,,,,,53,,,,,,,,,,,,,,323.77500028611394,,response,,,,99,,,,,,,Space,keypress(Space),,,,,,,,---- -- ----- -- ------ - ------- --- ----------<br>------------- ------ ------ ---- ---- ------- ----- -- ----<br>-------- ------- -- paramount. --- - --- ----- ----- ----<br>---- --- --- ----- --- ---- ---- ------- ----- ---- -------<br>--- --- -- ----- -- --- ---- -- --- ---- -- ------ ------<br>--- ----- -- ----,132120.7000002861,132119.2000002861,131778.698,131782.60000038147,131795.425,132128.78,,21,paramount.
screen,html.Screen,2_1_0_1_22,2022-05-03T10:28:34.752Z,,,,,,,,,,,,,,,,,53,,,,,,,,,,,,,,369.020000190736,,response,,,,99,,,,,,,Space,keypress(Space),,,,,,,,---- -- ----- -- ------ - ------- --- ----------<br>------------- ------ ------ ---- ---- ------- ----- -- ----<br>-------- ------- -- ---------- But - --- ----- ----- ----<br>---- --- --- ----- --- ---- ---- ------- ----- ---- -------<br>--- --- -- ----- -- --- ---- -- --- ---- -- ------ ------<br>--- ----- -- ----,132499.5,132497.80000019073,132112.119,132121.10000038147,132128.78,132512.05,,22,But
screen,html.Screen,2_1_0_1_23,2022-05-03T10:28:35.085Z,,,,,,,,,,,,,,,,,53,,,,,,,,,,,,,,319.55000038148137,,response,,,,99,,,,,,,Space,keypress(Space),,,,,,,,---- -- ----- -- ------ - ------- --- ----------<br>------------- ------ ------ ---- ---- ------- ----- -- ----<br>-------- ------- -- ---------- --- a --- ----- ----- ----<br>---- --- --- ----- --- ---- ---- ------- ----- ---- -------<br>--- --- -- ----- -- --- ---- -- --- ---- -- ------ ------<br>--- ----- -- ----,132833.10000038147,132831.60000038147,132495.435,132499.90000009537,132512.05,132845.344,,23,a
screen,html.Screen,2_1_0_1_24,2022-05-03T10:28:35.444Z,,,,,,,,,,,,,,,,,53,,,,,,,,,,,,,,345.25600038145785,,response,,,,99,,,,,,,Space,keypress(Space),,,,,,,,---- -- ----- -- ------ - ------- --- ----------<br>------------- ------ ------ ---- ---- ------- ----- -- ----<br>-------- ------- -- ---------- --- - new ----- ----- ----<br>---- --- --- ----- --- ---- ---- ------- ----- ---- -------<br>--- --- -- ----- -- --- ---- -- --- ---- -- ------ ------<br>--- ----- -- ----,133192.10000038147,133190.60000038147,132828.756,132833.5,132845.344,133195.358,,24,new
screen,html.Screen,2_1_0_1_25,2022-05-03T10:28:35.831Z,,,,,,,,,,,,,,,,,53,,,,,,,,,,,,,,381.9420001907274,,response,,,,99,,,,,,,Space,keypress(Space),,,,,,,,---- -- ----- -- ------ - ------- --- ----------<br>------------- ------ ------ ---- ---- ------- ----- -- ----<br>-------- ------- -- ---------- --- - --- study ----- ----<br>---- --- --- ----- --- ---- ---- ------- ----- ---- -------<br>--- --- -- ----- -- --- ---- -- --- ---- -- ------ ------<br>--- ----- -- ----,133578.90000009537,133577.30000019073,133178.829,133192.5,133195.358,133595.461,,25,study
screen,html.Screen,2_1_0_1_26,2022-05-03T10:28:36.145Z,,,,,,,,,,,,,,,,,53,,,,,,,,,,,,,,296.3390001907246,,response,,,,99,,,,,,,Space,keypress(Space),,,,,,,,---- -- ----- -- ------ - ------- --- ----------<br>------------- ------ ------ ---- ---- ------- ----- -- ----<br>-------- ------- -- ---------- --- - --- ----- finds ----<br>---- --- --- ----- --- ---- ---- ------- ----- ---- -------<br>--- --- -- ----- -- --- ---- -- --- ---- -- ------ ------<br>--- ----- -- ----,133893.40000009537,133891.80000019073,133578.858,133579.30000019073,133595.461,133895.333,,26,finds
screen,html.Screen,2_1_0_1_27,2022-05-03T10:28:36.436Z,,,,,,,,,,,,,,,,,53,,,,,,,,,,,,,,287.06700009535416,,response,,,,99,,,,,,,Space,keypress(Space),,,,,,,,---- -- ----- -- ------ - ------- --- ----------<br>------------- ------ ------ ---- ---- ------- ----- -- ----<br>-------- ------- -- ---------- --- - --- ----- ----- that<br>---- --- --- ----- --- ---- ---- ------- ----- ---- -------<br>--- --- -- ----- -- --- ---- -- --- ---- -- ------ ------<br>--- ----- -- ----,134183.80000019073,134182.40000009537,133878.675,133893.80000019073,133895.333,134195.364,,27,that
screen,html.Screen,2_1_0_1_28,2022-05-03T10:28:36.746Z,,,,,,,,,,,,,,,,,53,,,,,,,,,,,,,,297.43600019073347,,response,,,,99,,,,,,,Space,keypress(Space),,,,,,,,---- -- ----- -- ------ - ------- --- ----------<br>------------- ------ ------ ---- ---- ------- ----- -- ----<br>-------- ------- -- ---------- --- - --- ----- ----- ----<br>it's --- --- ----- --- ---- ---- ------- ----- ---- -------<br>--- --- -- ----- -- --- ---- -- --- ---- -- ------ ------<br>--- ----- -- ----,134494.2000002861,134492.80000019073,134178.768,134184.10000038147,134195.364,134512.086,,28,it's
screen,html.Screen,2_1_0_1_29,2022-05-03T10:28:37.056Z,,,,,,,,,,,,,,,,,53,,,,,,,,,,,,,,290.41399999998976,,response,,,,99,,,,,,,Space,keypress(Space),,,,,,,,---- -- ----- -- ------ - ------- --- ----------<br>------------- ------ ------ ---- ---- ------- ----- -- ----<br>-------- ------- -- ---------- --- - --- ----- ----- ----<br>---- not --- ----- --- ---- ---- ------- ----- ---- -------<br>--- --- -- ----- -- --- ---- -- --- ---- -- ------ ------<br>--- ----- -- ----,134804,134802.5,134495.313,134494.60000038147,134512.086,134811.961,,29,not
screen,html.Screen,2_1_0_1_30,2022-05-03T10:28:37.312Z,,,,,,,,,,,,,,,,,53,,,,,,,,,,,,,,246.03899999998976,,response,,,,99,,,,,,,Space,keypress(Space),,,,,,,,---- -- ----- -- ------ - ------- --- ----------<br>------------- ------ ------ ---- ---- ------- ----- -- ----<br>-------- ------- -- ---------- --- - --- ----- ----- ----<br>---- --- how ----- --- ---- ---- ------- ----- ---- -------<br>--- --- -- ----- -- --- ---- -- --- ---- -- ------ ------<br>--- ----- -- ----,135059.60000038147,135058,134795.394,134804.40000009537,134811.961,135061.936,,30,how
screen,html.Screen,2_1_0_1_31,2022-05-03T10:28:37.627Z,,,,,,,,,,,,,,,,,53,,,,,,,,,,,,,,311.96400009538047,,response,,,,99,,,,,,,Space,keypress(Space),,,,,,,,---- -- ----- -- ------ - ------- --- ----------<br>------------- ------ ------ ---- ---- ------- ----- -- ----<br>-------- ------- -- ---------- --- - --- ----- ----- ----<br>---- --- --- close --- ---- ---- ------- ----- ---- -------<br>--- --- -- ----- -- --- ---- -- --- ---- -- ------ ------<br>--- ----- -- ----,135375.2000002861,135373.90000009537,135045.385,135059.90000009537,135061.936,135378.576,,31,close
screen,html.Screen,2_1_0_1_32,2022-05-03T10:28:37.945Z,,,,,,,,,,,,,,,,,53,,,,,,,,,,,,,,312.92399999999907,,response,,,,99,,,,,,,Space,keypress(Space),,,,,,,,---- -- ----- -- ------ - ------- --- ----------<br>------------- ------ ------ ---- ---- ------- ----- -- ----<br>-------- ------- -- ---------- --- - --- ----- ----- ----<br>---- --- --- ----- you ---- ---- ------- ----- ---- -------<br>--- --- -- ----- -- --- ---- -- --- ---- -- ------ ------<br>--- ----- -- ----,135693.10000038147,135691.5,135362.032,135375.60000038147,135378.576,135695.21,,32,you
screen,html.Screen,2_1_0_1_33,2022-05-03T10:28:38.221Z,,,,,,,,,,,,,,,,,53,,,,,,,,,,,,,,271.79000000000815,,response,,,,99,,,,,,,Space,keypress(Space),,,,,,,,---- -- ----- -- ------ - ------- --- ----------<br>------------- ------ ------ ---- ---- ------- ----- -- ----<br>-------- ------- -- ---------- --- - --- ----- ----- ----<br>---- --- --- ----- --- feel ---- ------- ----- ---- -------<br>--- --- -- ----- -- --- ---- -- --- ---- -- ------ ------<br>--- ----- -- ----,135968.5,135967,135678.707,135693.40000009537,135695.21,135978.561,,33,feel
screen,html.Screen,2_1_0_1_34,2022-05-03T10:28:38.456Z,,,,,,,,,,,,,,,,,53,,,,,,,,,,,,,,224.03900038148277,,response,,,,99,,,,,,,Space,keypress(Space),,,,,,,,---- -- ----- -- ------ - ------- --- ----------<br>------------- ------ ------ ---- ---- ------- ----- -- ----<br>-------- ------- -- ---------- --- - --- ----- ----- ----<br>---- --- --- ----- --- ---- that ------- ----- ---- -------<br>--- --- -- ----- -- --- ---- -- --- ---- -- ------ ------<br>--- ----- -- ----,136204.10000038147,136202.60000038147,135962.025,135968.90000009537,135978.561,136211.835,,34,that
screen,html.Screen,2_1_0_1_35,2022-05-03T10:28:38.746Z,,,,,,,,,,,,,,,,,53,,,,,,,,,,,,,,280.36500028611044,,response,,,,99,,,,,,,Space,keypress(Space),,,,,,,,---- -- ----- -- ------ - ------- --- ----------<br>------------- ------ ------ ---- ---- ------- ----- -- ----<br>-------- ------- -- ---------- --- - --- ----- ----- ----<br>---- --- --- ----- --- ---- ---- matters ----- ---- -------<br>--- --- -- ----- -- --- ---- -- --- ---- -- ------ ------<br>--- ----- -- ----,136493.80000019073,136492.2000002861,136195.221,136204.5,136211.835,136511.927,,35,matters
screen,html.Screen,2_1_0_1_36,2022-05-03T10:28:39.107Z,,,,,,,,,,,,,,,,,53,,,,,,,,,,,,,,341.3730001907388,,response,,,,99,,,,,,,Space,keypress(Space),,,,,,,,"---- -- ----- -- ------ - ------- --- ----------<br>------------- ------ ------ ---- ---- ------- ----- -- ----<br>-------- ------- -- ---------- --- - --- ----- ----- ----<br>---- --- --- ----- --- ---- ---- ------- most, ---- -------<br>--- --- -- ----- -- --- ---- -- --- ---- -- ------ ------<br>--- ----- -- ----",136854.80000019073,136853.30000019073,136495.302,136494.30000019073,136511.927,136861.806,,36,"most,"
screen,html.Screen,2_1_0_1_37,2022-05-03T10:28:39.425Z,,,,,,,,,,,,,,,,,53,,,,,,,,,,,,,,309.6939999999886,,response,,,,99,,,,,,,Space,keypress(Space),,,,,,,,---- -- ----- -- ------ - ------- --- ----------<br>------------- ------ ------ ---- ---- ------- ----- -- ----<br>-------- ------- -- ---------- --- - --- ----- ----- ----<br>---- --- --- ----- --- ---- ---- ------- ----- it's -------<br>--- --- -- ----- -- --- ---- -- --- ---- -- ------ ------<br>--- ----- -- ----,137172.80000019073,137171.5,136845.286,136855.2000002861,136861.806,137178.488,,37,it's
screen,html.Screen,2_1_0_1_38,2022-05-03T10:28:39.749Z,,,,,,,,,,,,,,,,,53,,,,,,,,,,,,,,316.81200019072276,,response,,,,99,,,,,,,Space,keypress(Space),,,,,,,,---- -- ----- -- ------ - ------- --- ----------<br>------------- ------ ------ ---- ---- ------- ----- -- ----<br>-------- ------- -- ---------- --- - --- ----- ----- ----<br>---- --- --- ----- --- ---- ---- ------- ----- ---- whether<br>--- --- -- ----- -- --- ---- -- --- ---- -- ------ ------<br>--- ----- -- ----,137496.80000019073,137495.30000019073,137161.826,137173.2000002861,137178.488,137511.845,,38,whether
screen,html.Screen,2_1_0_1_39,2022-05-03T10:28:40.105Z,,,,,,,,,,,,,,,,,53,,,,,,,,,,,,,,340.25500038146856,,response,,,,99,,,,,,,Space,keypress(Space),,,,,,,,---- -- ----- -- ------ - ------- --- ----------<br>------------- ------ ------ ---- ---- ------- ----- -- ----<br>-------- ------- -- ---------- --- - --- ----- ----- ----<br>---- --- --- ----- --- ---- ---- ------- ----- ---- -------<br>you --- -- ----- -- --- ---- -- --- ---- -- ------ ------<br>--- ----- -- ----,137852.80000019073,137852.10000038147,137495.234,137497.2000002861,137511.845,137861.758,,39,you
screen,html.Screen,2_1_0_1_40,2022-05-03T10:28:40.414Z,,,,,,,,,,,,,,,,,53,,,,,,,,,,,,,,298.24199999999837,,response,,,,99,,,,,,,Space,keypress(Space),,,,,,,,---- -- ----- -- ------ - ------- --- ----------<br>------------- ------ ------ ---- ---- ------- ----- -- ----<br>-------- ------- -- ---------- --- - --- ----- ----- ----<br>---- --- --- ----- --- ---- ---- ------- ----- ---- -------<br>--- are -- ----- -- --- ---- -- --- ---- -- ------ ------<br>--- ----- -- ----,138161.40000009537,138160,137845.192,137853,137861.758,138178.526,,40,are
screen,html.Screen,2_1_0_1_41,2022-05-03T10:28:40.711Z,,,,,,,,,,,,,,,,,53,,,,,,,,,,,,,,278.57400038145715,,response,,,,99,,,,,,,Space,keypress(Space),,,,,,,,---- -- ----- -- ------ - ------- --- ----------<br>------------- ------ ------ ---- ---- ------- ----- -- ----<br>-------- ------- -- ---------- --- - --- ----- ----- ----<br>---- --- --- ----- --- ---- ---- ------- ----- ---- -------<br>--- --- as ----- -- --- ---- -- --- ---- -- ------ ------<br>--- ----- -- ----,138458.60000038147,138457.10000038147,138161.829,138161.80000019073,138178.526,138461.71,,41,as
screen,html.Screen,2_1_0_1_42,2022-05-03T10:28:41.072Z,,,,,,,,,,,,,,,,,53,,,,,,,,,,,,,,356.99000028611044,,response,,,,99,,,,,,,Space,keypress(Space),,,,,,,,---- -- ----- -- ------ - ------- --- ----------<br>------------- ------ ------ ---- ---- ------- ----- -- ----<br>-------- ------- -- ---------- --- - --- ----- ----- ----<br>---- --- --- ----- --- ---- ---- ------- ----- ---- -------<br>--- --- -- close -- --- ---- -- --- ---- -- ------ ------<br>--- ----- -- ----,138820.30000019073,138818.7000002861,138445.071,138459,138461.71,138828.347,,42,close
screen,html.Screen,2_1_0_1_43,2022-05-03T10:28:41.323Z,,,,,,,,,,,,,,,,,53,,,,,,,,,,,,,,241.45300019072602,,response,,,,99,,,,,,,Space,keypress(Space),,,,,,,,---- -- ----- -- ------ - ------- --- ----------<br>------------- ------ ------ ---- ---- ------- ----- -- ----<br>-------- ------- -- ---------- --- - --- ----- ----- ----<br>---- --- --- ----- --- ---- ---- ------- ----- ---- -------<br>--- --- -- ----- as --- ---- -- --- ---- -- ------ ------<br>--- ----- -- ----,139071.2000002861,139069.80000019073,138811.832,138820.60000038147,138828.347,139095.141,,43,as
screen,html.Screen,2_1_0_1_44,2022-05-03T10:28:41.628Z,,,,,,,,,,,,,,,,,53,,,,,,,,,,,,,,278.95900038146647,,response,,,,99,,,,,,,Space,keypress(Space),,,,,,,,---- -- ----- -- ------ - ------- --- ----------<br>------------- ------ ------ ---- ---- ------- ----- -- ----<br>-------- ------- -- ---------- --- - --- ----- ----- ----<br>---- --- --- ----- --- ---- ---- ------- ----- ---- -------<br>--- --- -- ----- -- you ---- -- --- ---- -- ------ ------<br>--- ----- -- ----,139375.60000038147,139374.10000038147,139061.715,139071.60000038147,139095.141,139378.366,,44,you
screen,html.Screen,2_1_0_1_45,2022-05-03T10:28:41.912Z,,,,,,,,,,,,,,,,,53,,,,,,,,,,,,,,280.1339999999909,,response,,,,99,,,,,,,Space,keypress(Space),,,,,,,,---- -- ----- -- ------ - ------- --- ----------<br>------------- ------ ------ ---- ---- ------- ----- -- ----<br>-------- ------- -- ---------- --- - --- ----- ----- ----<br>---- --- --- ----- --- ---- ---- ------- ----- ---- -------<br>--- --- -- ----- -- --- want -- --- ---- -- ------ ------<br>--- ----- -- ----,139660,139658.5,139361.77,139375.90000009537,139378.366,139678.436,,45,want
screen,html.Screen,2_1_0_1_46,2022-05-03T10:28:42.182Z,,,,,,,,,,,,,,,,,53,,,,,,,,,,,,,,250.3640001907479,,response,,,,99,,,,,,,Space,keypress(Space),,,,,,,,---- -- ----- -- ------ - ------- --- ----------<br>------------- ------ ------ ---- ---- ------- ----- -- ----<br>-------- ------- -- ---------- --- - --- ----- ----- ----<br>---- --- --- ----- --- ---- ---- ------- ----- ---- -------<br>--- --- -- ----- -- --- ---- to --- ---- -- ------ ------<br>--- ----- -- ----,139930.10000038147,139928.80000019073,139661.62,139660.40000009537,139678.436,139945.076,,46,to
screen,html.Screen,2_1_0_1_47,2022-05-03T10:28:42.429Z,,,,,,,,,,,,,,,,,53,,,,,,,,,,,,,,230.0240003814688,,response,,,,99,,,,,,,Space,keypress(Space),,,,,,,,"---- -- ----- -- ------ - ------- --- ----------<br>------------- ------ ------ ---- ---- ------- ----- -- ----<br>-------- ------- -- ---------- --- - --- ----- ----- ----<br>---- --- --- ----- --- ---- ---- ------- ----- ---- -------<br>--- --- -- ----- -- --- ---- -- be, ---- -- ------ ------<br>--- ----- -- ----",140176.60000038147,140175.10000038147,139928.321,139930.5,139945.076,140178.268,,47,"be,"
screen,html.Screen,2_1_0_1_48,2022-05-03T10:28:42.684Z,,,,,,,,,,,,,,,,,53,,,,,,,,,,,,,,252.03200019072392,,response,,,,99,,,,,,,Space,keypress(Space),,,,,,,,---- -- ----- -- ------ - ------- --- ----------<br>------------- ------ ------ ---- ---- ------- ----- -- ----<br>-------- ------- -- ---------- --- - --- ----- ----- ----<br>---- --- --- ----- --- ---- ---- ------- ----- ---- -------<br>--- --- -- ----- -- --- ---- -- --- even -- ------ ------<br>--- ----- -- ----,140432,140430.30000019073,140161.707,140176.90000009537,140178.268,140444.883,,48,even
screen,html.Screen,2_1_0_1_49,2022-05-03T10:28:42.947Z,,,,,,,,,,,,,,,,,53,,,,,,,,,,,,,,248.31700028610067,,response,,,,99,,,,,,,Space,keypress(Space),,,,,,,,---- -- ----- -- ------ - ------- --- ----------<br>------------- ------ ------ ---- ---- ------- ----- -- ----<br>-------- ------- -- ---------- --- - --- ----- ----- ----<br>---- --- --- ----- --- ---- ---- ------- ----- ---- -------<br>--- --- -- ----- -- --- ---- -- --- ---- if ------ ------<br>--- ----- -- ----,140694.7000002861,140693.2000002861,140428.318,140432.40000009537,140444.883,140711.601,,49,if
screen,html.Screen,2_1_0_1_50,2022-05-03T10:28:43.234Z,,,,,,,,,,,,,,,,,53,,,,,,,,,,,,,,268.69900019073975,,response,,,,99,,,,,,,Space,keypress(Space),,,,,,,,---- -- ----- -- ------ - ------- --- ----------<br>------------- ------ ------ ---- ---- ------- ----- -- ----<br>-------- ------- -- ---------- --- - --- ----- ----- ----<br>---- --- --- ----- --- ---- ---- ------- ----- ---- -------<br>--- --- -- ----- -- --- ---- -- --- ---- -- that's ------<br>--- ----- -- ----,140981.7000002861,140980.30000019073,140695.06,140695,140711.601,140995.029,,50,that's
screen,html.Screen,2_1_0_1_51,2022-05-03T10:28:43.516Z,,,,,,,,,,,,,,,,,53,,,,,,,,,,,,,,267.2710001907253,,response,,,,99,,,,,,,Space,keypress(Space),,,,,,,,---- -- ----- -- ------ - ------- --- ----------<br>------------- ------ ------ ---- ---- ------- ----- -- ----<br>-------- ------- -- ---------- --- - --- ----- ----- ----<br>---- --- --- ----- --- ---- ---- ------- ----- ---- -------<br>--- --- -- ----- -- --- ---- -- --- ---- -- ------ really<br>--- ----- -- ----,141263.7000002861,141262.30000019073,140978.361,140982.10000038147,140995.029,141278.219,,51,really
screen,html.Screen,2_1_0_1_52,2022-05-03T10:28:43.887Z,,,,,,,,,,,,,,,,,53,,,,,,,,,,,,,,354.88100038145785,,response,,,,99,,,,,,,Space,keypress(Space),,,,,,,,---- -- ----- -- ------ - ------- --- ----------<br>------------- ------ ------ ---- ---- ------- ----- -- ----<br>-------- ------- -- ---------- --- - --- ----- ----- ----<br>---- --- --- ----- --- ---- ---- ------- ----- ---- -------<br>--- --- -- ----- -- --- ---- -- --- ---- -- ------ ------<br>not ----- -- ----,141634.60000038147,141633.10000038147,141261.564,141264.10000038147,141278.219,141644.916,,52,not
screen,html.Screen,2_1_0_1_53,2022-05-03T10:28:44.242Z,,,,,,,,,,,,,,,,,53,,,,,,,,,,,,,,343.8840001907374,,response,,,,99,,,,,,,Space,keypress(Space),,,,,,,,---- -- ----- -- ------ - ------- --- ----------<br>------------- ------ ------ ---- ---- ------- ----- -- ----<br>-------- ------- -- ---------- --- - --- ----- ----- ----<br>---- --- --- ----- --- ---- ---- ------- ----- ---- -------<br>--- --- -- ----- -- --- ---- -- --- ---- -- ------ ------<br>--- close -- ----,141990.10000038147,141988.80000019073,141628.2,141634.90000009537,141644.916,141994.859,,53,close
screen,html.Screen,2_1_0_1_54,2022-05-03T10:28:44.539Z,,,,,,,,,,,,,,,,,53,,,,,,,,,,,,,,291.0410000953707,,response,,,,99,,,,,,,Space,keypress(Space),,,,,,,,---- -- ----- -- ------ - ------- --- ----------<br>------------- ------ ------ ---- ---- ------- ----- -- ----<br>-------- ------- -- ---------- --- - --- ----- ----- ----<br>---- --- --- ----- --- ---- ---- ------- ----- ---- -------<br>--- --- -- ----- -- --- ---- -- --- ---- -- ------ ------<br>--- ----- at ----,142287.40000009537,142285.90000009537,141978.201,141990.60000038147,141994.859,142294.802,,54,at
screen,html.Screen,2_1_0_1_55,2022-05-03T10:28:44.798Z,,,,,,,,,,,,,,,,,53,,,,,,,,,,,,,,248.99800019073882,,response,,,,99,,,,,,,Space,keypress(Space),,,,,,,,---- -- ----- -- ------ - ------- --- ----------<br>------------- ------ ------ ---- ---- ------- ----- -- ----<br>-------- ------- -- ---------- --- - --- ----- ----- ----<br>---- --- --- ----- --- ---- ---- ------- ----- ---- -------<br>--- --- -- ----- -- --- ---- -- --- ---- -- ------ ------<br>--- ----- -- all.,142545.5,142543.80000019073,142278.175,142287.80000019073,142294.802,142561.483,,55,all.
Item 99,flow.Loop,2_1_0_1,2022-05-03T10:28:44.798Z,,,,,,,,,,,,,,,,,,,,,,,,,,,,,,,21247.788000190732,,completion,,,,,H,,,,,,,,,,,silence,,,,,142546.5,142543.80000019073,121262.73,121264.80000019073,121296.012,142561.483,,,
Question 1,html.Screen,2_1_0_2,2022-05-03T10:28:47.790Z,,,,,,,,,,,,,,,,,,,,,,,,,,,,true,FALSE,,2974.217000286095,,response,,,,99,H,,,,,,FALSE,click #choice-2,,,,silence,,,,,145538.10000038147,145535.7000002861,142544.779,142546.90000009537,142561.483,145544.635,,,
Question 2,html.Screen,2_1_0_3,2022-05-03T10:28:52.100Z,,,,,,,,,,,,,,,,,,,,,,,,,,,,true,TRUE,,4301.46500038146,,response,,,,99,H,,,,,,TRUE,click #choice-1,,,,silence,,,,,149848.30000019073,149846.10000038147,145527.998,145538.5,145544.635,149861.074,,,
Item 99,flow.Sequence,2_1_0,2022-05-03T10:28:52.101Z,,,,,,,,,,,,,,,,,,,,,,,,,,,,,,,38566.10800038147,,completion,,,,,,,,,,,,,,,,,,,,,149849,149846.10000038147,111246.655,111266.60000038147,111279.992,149861.074,,,
Holding screen,html.Screen,2_1_1_0,2022-05-03T10:29:02.098Z,,,,,,,,,,,,,,,,,,,,,,,,,,,,,,,9999.45200000002,,timeout,,,,,,,,,,,,,,,,,,,,,159845.5,159843.811,149844.39,149849.5,149861.074,159860.526,,,
screen,html.Screen,2_1_1_1_0,2022-05-03T10:29:03.145Z,,,,,,,,,,,,,,,,,54,,,,,,,,,,,,,,1031.1740002860897,,response,,,,100,,,,,,,Space,keypress(Space),,,,,,,,At --- ---- --- ------ ----- ------- ---- -- --- ------- --<br>------- ---------- ------ -- ----- -- ----- -- ---- ------<br>--- ----- --- --- ------ -------- ----- --- ------ ----- --<br>----- ----- ---------- --- --- ------ ------ ---- -- ------<br>------- --- ------ ----- --- ---- ------- -- ---- --- --<br>------- ------,160893.2000002861,160891.7000002861,159843.811,159846.10000038147,159860.526,160910.529,,0,At
screen,html.Screen,2_1_1_1_1,2022-05-03T10:29:03.620Z,,,,,,,,,,,,,,,,,54,,,,,,,,,,,,,,456.0710003814602,,response,,,,100,,,,,,,Space,keypress(Space),,,,,,,,-- the ---- --- ------ ----- ------- ---- -- --- ------- --<br>------- ---------- ------ -- ----- -- ----- -- ---- ------<br>--- ----- --- --- ------ -------- ----- --- ------ ----- --<br>----- ----- ---------- --- --- ------ ------ ---- -- ------<br>------- --- ------ ----- --- ---- ------- -- ---- --- --<br>------- ------,161368.10000038147,161366.60000038147,160893.848,160893.60000038147,160910.529,161377.105,,1,the
screen,html.Screen,2_1_1_1_2,2022-05-03T10:29:04.071Z,,,,,,,,,,,,,,,,,54,,,,,,,,,,,,,,440.49500038145925,,response,,,,100,,,,,,,Space,keypress(Space),,,,,,,,-- --- time --- ------ ----- ------- ---- -- --- ------- --<br>------- ---------- ------ -- ----- -- ----- -- ---- ------<br>--- ----- --- --- ------ -------- ----- --- ------ ----- --<br>----- ----- ---------- --- --- ------ ------ ---- -- ------<br>------- --- ------ ----- --- ---- ------- -- ---- --- --<br>------- ------,161819,161817.60000038147,161360.386,161368.5,161377.105,161827.003,,2,time
screen,html.Screen,2_1_1_1_3,2022-05-03T10:29:04.450Z,,,,,,,,,,,,,,,,,54,,,,,,,,,,,,,,369.59700038147275,,response,,,,100,,,,,,,Space,keypress(Space),,,,,,,,-- --- ---- the ------ ----- ------- ---- -- --- ------- --<br>------- ---------- ------ -- ----- -- ----- -- ---- ------<br>--- ----- --- --- ------ -------- ----- --- ------ ----- --<br>----- ----- ---------- --- --- ------ ------ ---- -- ------<br>------- --- ------ ----- --- ---- ------- -- ---- --- --<br>------- ------,162198.10000038147,162196.60000038147,161810.5,161819.40000009537,161827.003,162210.332,,3,the
screen,html.Screen,2_1_1_1_4,2022-05-03T10:29:04.811Z,,,,,,,,,,,,,,,,,54,,,,,,,,,,,,,,347.06800009537255,,response,,,,100,,,,,,,Space,keypress(Space),,,,,,,,-- --- ---- --- French ----- ------- ---- -- --- ------- --<br>------- ---------- ------ -- ----- -- ----- -- ---- ------<br>--- ----- --- --- ------ -------- ----- --- ------ ----- --<br>----- ----- ---------- --- --- ------ ------ ---- -- ------<br>------- --- ------ ----- --- ---- ------- -- ---- --- --<br>------- ------,162559,162557.40000009537,162193.785,162198.5,162210.332,162577.1,,4,French
screen,html.Screen,2_1_1_1_5,2022-05-03T10:29:05.208Z,,,,,,,,,,,,,,,,,54,,,,,,,,,,,,,,377.1000002860965,,response,,,,100,,,,,,,Space,keypress(Space),,,,,,,,-- --- ---- --- ------ crown ------- ---- -- --- ------- --<br>------- ---------- ------ -- ----- -- ----- -- ---- ------<br>--- ----- --- --- ------ -------- ----- --- ------ ----- --<br>----- ----- ---------- --- --- ------ ------ ---- -- ------<br>------- --- ------ ----- --- ---- ------- -- ---- --- --<br>------- ------,162955.60000038147,162954.2000002861,162560.261,162559.40000009537,162577.1,162960.306,,5,crown
screen,html.Screen,2_1_1_1_6,2022-05-03T10:29:05.575Z,,,,,,,,,,,,,,,,,54,,,,,,,,,,,,,,360.8940002860909,,response,,,,100,,,,,,,Space,keypress(Space),,,,,,,,-- --- ---- --- ------ ----- secured ---- -- --- ------- --<br>------- ---------- ------ -- ----- -- ----- -- ---- ------<br>--- ----- --- --- ------ -------- ----- --- ------ ----- --<br>----- ----- ---------- --- --- ------ ------ ---- -- ------<br>------- --- ------ ----- --- ---- ------- -- ---- --- --<br>------- ------,163322.7000002861,163321.2000002861,162943.713,162956,162960.306,163326.921,,6,secured
screen,html.Screen,2_1_1_1_7,2022-05-03T10:29:05.938Z,,,,,,,,,,,,,,,,,54,,,,,,,,,,,,,,357.2790002861002,,response,,,,100,,,,,,,Space,keypress(Space),,,,,,,,-- --- ---- --- ------ ----- ------- much -- --- ------- --<br>------- ---------- ------ -- ----- -- ----- -- ---- ------<br>--- ----- --- --- ------ -------- ----- --- ------ ----- --<br>----- ----- ---------- --- --- ------ ------ ---- -- ------<br>------- --- ------ ----- --- ---- ------- -- ---- --- --<br>------- ------,163685.7000002861,163684.2000002861,163310.303,163323.10000038147,163326.921,163693.56,,7,much
screen,html.Screen,2_1_1_1_8,2022-05-03T10:29:06.279Z,,,,,,,,,,,,,,,,,54,,,,,,,,,,,,,,332.1400002861046,,response,,,,100,,,,,,,Space,keypress(Space),,,,,,,,-- --- ---- --- ------ ----- ------- ---- of --- ------- --<br>------- ---------- ------ -- ----- -- ----- -- ---- ------<br>--- ----- --- --- ------ -------- ----- --- ------ ----- --<br>----- ----- ---------- --- --- ------ ------ ---- -- ------<br>------- --- ------ ----- --- ---- ------- -- ---- --- --<br>------- ------,164027.2000002861,164025.7000002861,163677.086,163686,163693.56,164043.676,,8,of
screen,html.Screen,2_1_1_1_9,2022-05-03T10:29:06.616Z,,,,,,,,,,,,,,,,,54,,,,,,,,,,,,,,319.1240001907281,,response,,,,100,,,,,,,Space,keypress(Space),,,,,,,,-- --- ---- --- ------ ----- ------- ---- -- its ------- --<br>------- ---------- ------ -- ----- -- ----- -- ---- ------<br>--- ----- --- --- ------ -------- ----- --- ------ ----- --<br>----- ----- ---------- --- --- ------ ------ ---- -- ------<br>------- --- ------ ----- --- ---- ------- -- ---- --- --<br>------- ------,164364.40000009537,164362.80000019073,164027.021,164027.7000002861,164043.676,164377.104,,9,its
screen,html.Screen,2_1_1_1_10,2022-05-03T10:29:06.960Z,,,,,,,,,,,,,,,,,54,,,,,,,,,,,,,,329.49600038147764,,response,,,,100,,,,,,,Space,keypress(Space),,,,,,,,-- --- ---- --- ------ ----- ------- ---- -- --- revenue --<br>------- ---------- ------ -- ----- -- ----- -- ---- ------<br>--- ----- --- --- ------ -------- ----- --- ------ ----- --<br>----- ----- ---------- --- --- ------ ------ ---- -- ------<br>------- --- ------ ----- --- ---- ------- -- ---- --- --<br>------- ------,164708.10000038147,164706.60000038147,164360.197,164364.80000019073,164377.104,164710.168,,10,revenue
screen,html.Screen,2_1_1_1_11,2022-05-03T10:29:07.329Z,,,,,,,,,,,,,,,,,54,,,,,,,,,,,,,,365.4320003814646,,response,,,,100,,,,,,,Space,keypress(Space),,,,,,,,-- --- ---- --- ------ ----- ------- ---- -- --- ------- by<br>------- ---------- ------ -- ----- -- ----- -- ---- ------<br>--- ----- --- --- ------ -------- ----- --- ------ ----- --<br>----- ----- ---------- --- --- ------ ------ ---- -- ------<br>------- --- ------ ----- --- ---- ------- -- ---- --- --<br>------- ------,165077.2000002861,165075.60000038147,164693.674,164708.40000009537,164710.168,165093.613,,11,by
screen,html.Screen,2_1_1_1_12,2022-05-03T10:29:07.697Z,,,,,,,,,,,,,,,,,54,,,,,,,,,,,,,,349.4870003814576,,response,,,,100,,,,,,,Space,keypress(Space),,,,,,,,-- --- ---- --- ------ ----- ------- ---- -- --- ------- --<br>issuing ---------- ------ -- ----- -- ----- -- ---- ------<br>--- ----- --- --- ------ -------- ----- --- ------ ----- --<br>----- ----- ---------- --- --- ------ ------ ---- -- ------<br>------- --- ------ ----- --- ---- ------- -- ---- --- --<br>------- ------,165444.80000019073,165443.10000038147,165076.864,165077.60000038147,165093.613,165460.258,,12,issuing
screen,html.Screen,2_1_1_1_13,2022-05-03T10:29:08.084Z,,,,,,,,,,,,,,,,,54,,,,,,,,,,,,,,369.8420003814681,,response,,,,100,,,,,,,Space,keypress(Space),,,,,,,,-- --- ---- --- ------ ----- ------- ---- -- --- ------- --<br>------- government ------ -- ----- -- ----- -- ---- ------<br>--- ----- --- --- ------ -------- ----- --- ------ ----- --<br>----- ----- ---------- --- --- ------ ------ ---- -- ------<br>------- --- ------ ----- --- ---- ------- -- ---- --- --<br>------- ------,165831.60000038147,165830.10000038147,165443.57,165445.10000038147,165460.258,165843.508,,13,government
screen,html.Screen,2_1_1_1_14,2022-05-03T10:29:09.150Z,,,,,,,,,,,,,,,,,54,,,,,,,,,,,,,,1053.2920001907332,,response,,,,100,,,,,,,Space,keypress(Space),,,,,,,,-- --- ---- --- ------ ----- ------- ---- -- --- ------- --<br>------- ---------- bonds. -- ----- -- ----- -- ---- ------<br>--- ----- --- --- ------ -------- ----- --- ------ ----- --<br>----- ----- ---------- --- --- ------ ------ ---- -- ------<br>------- --- ------ ----- --- ---- ------- -- ---- --- --<br>------- ------,166898.30000019073,166896.80000019073,165826.866,165832,165843.508,166910.075,,14,bonds.
screen,html.Screen,2_1_1_1_15,2022-05-03T10:29:09.701Z,,,,,,,,,,,,,,,,,54,,,,,,,,,,,,,,537.7250001907232,,response,,,,100,,,,,,,Space,keypress(Space),,,,,,,,-- --- ---- --- ------ ----- ------- ---- -- --- ------- --<br>------- ---------- ------ In ----- -- ----- -- ---- ------<br>--- ----- --- --- ------ -------- ----- --- ------ ----- --<br>----- ----- ---------- --- --- ------ ------ ---- -- ------<br>------- --- ------ ----- --- ---- ------- -- ---- --- --<br>------- ------,167449.30000019073,167447.80000019073,166893.482,166898.60000038147,166910.075,167460.01,,15,In
screen,html.Screen,2_1_1_1_16,2022-05-03T10:29:10.961Z,,,,,,,,,,,,,,,,,54,,,,,,,,,,,,,,1247.4899999999907,,response,,,,100,,,,,,,Space,keypress(Space),,,,,,,,"-- --- ---- --- ------ ----- ------- ---- -- --- ------- --<br>------- ---------- ------ -- 1727, -- ----- -- ---- ------<br>--- ----- --- --- ------ -------- ----- --- ------ ----- --<br>----- ----- ---------- --- --- ------ ------ ---- -- ------<br>------- --- ------ ----- --- ---- ------- -- ---- --- --<br>------- ------",168709,168707.5,167443.421,167449.7000002861,167460.01,168726.74,,16,"1727,"
screen,html.Screen,2_1_1_1_17,2022-05-03T10:29:11.575Z,,,,,,,,,,,,,,,,,54,,,,,,,,,,,,,,594.6600000953767,,response,,,,100,,,,,,,Space,keypress(Space),,,,,,,,-- --- ---- --- ------ ----- ------- ---- -- --- ------- --<br>------- ---------- ------ -- ----- in ----- -- ---- ------<br>--- ----- --- --- ------ -------- ----- --- ------ ----- --<br>----- ----- ---------- --- --- ------ ------ ---- -- ------<br>------- --- ------ ----- --- ---- ------- -- ---- --- --<br>------- ------,169322.80000019073,169321.40000009537,168710.037,168709.40000009537,168726.74,169326.563,,17,in
screen,html.Screen,2_1_1_1_18,2022-05-03T10:29:12.212Z,,,,,,,,,,,,,,,,,54,,,,,,,,,,,,,,632.2370001907402,,response,,,,100,,,,,,,Space,keypress(Space),,,,,,,,-- --- ---- --- ------ ----- ------- ---- -- --- ------- --<br>------- ---------- ------ -- ----- -- order -- ---- ------<br>--- ----- --- --- ------ -------- ----- --- ------ ----- --<br>----- ----- ---------- --- --- ------ ------ ---- -- ------<br>------- --- ------ ----- --- ---- ------- -- ---- --- --<br>------- ------,169960.30000019073,169958.80000019073,169309.9,169323.2000002861,169326.563,169976.659,,18,order
screen,html.Screen,2_1_1_1_19,2022-05-03T10:29:12.569Z,,,,,,,,,,,,,,,,,54,,,,,,,,,,,,,,338.8409999999858,,response,,,,100,,,,,,,Space,keypress(Space),,,,,,,,-- --- ---- --- ------ ----- ------- ---- -- --- ------- --<br>------- ---------- ------ -- ----- -- ----- to ---- ------<br>--- ----- --- --- ------ -------- ----- --- ------ ----- --<br>----- ----- ---------- --- --- ------ ------ ---- -- ------<br>------- --- ------ ----- --- ---- ------- -- ---- --- --<br>------- ------,170317,170315.5,169959.908,169960.60000038147,169976.659,170326.554,,19,to
screen,html.Screen,2_1_1_1_20,2022-05-03T10:29:12.971Z,,,,,,,,,,,,,,,,,54,,,,,,,,,,,,,,391.046000381466,,response,,,,100,,,,,,,Space,keypress(Space),,,,,,,,-- --- ---- --- ------ ----- ------- ---- -- --- ------- --<br>------- ---------- ------ -- ----- -- ----- -- save ------<br>--- ----- --- --- ------ -------- ----- --- ------ ----- --<br>----- ----- ---------- --- --- ------ ------ ---- -- ------<br>------- --- ------ ----- --- ---- ------- -- ---- --- --<br>------- ------,170719.10000038147,170717.60000038147,170310.009,170317.30000019073,170326.554,170726.483,,20,save
screen,html.Screen,2_1_1_1_21,2022-05-03T10:29:13.458Z,,,,,,,,,,,,,,,,,54,,,,,,,,,,,,,,477.51699999999255,,response,,,,100,,,,,,,Space,keypress(Space),,,,,,,,"-- --- ---- --- ------ ----- ------- ---- -- --- ------- --<br>------- ---------- ------ -- ----- -- ----- -- ---- money,<br>--- ----- --- --- ------ -------- ----- --- ------ ----- --<br>----- ----- ---------- --- --- ------ ------ ---- -- ------<br>------- --- ------ ----- --- ---- ------- -- ---- --- --<br>------- ------",171205.60000038147,171204,170709.959,170719.5,170726.483,171209.792,,21,"money,"
screen,html.Screen,2_1_1_1_22,2022-05-03T10:29:13.833Z,,,,,,,,,,,,,,,,,54,,,,,,,,,,,,,,369.808000381483,,response,,,,100,,,,,,,Space,keypress(Space),,,,,,,,-- --- ---- --- ------ ----- ------- ---- -- --- ------- --<br>------- ---------- ------ -- ----- -- ----- -- ---- ------<br>the ----- --- --- ------ -------- ----- --- ------ ----- --<br>----- ----- ---------- --- --- ------ ------ ---- -- ------<br>------- --- ------ ----- --- ---- ------- -- ---- --- --<br>------- ------,171581.10000038147,171579.60000038147,171193.267,171205.90000009537,171209.792,171593.212,,22,the
screen,html.Screen,2_1_1_1_23,2022-05-03T10:29:14.117Z,,,,,,,,,,,,,,,,,54,,,,,,,,,,,,,,270.58800019073533,,response,,,,100,,,,,,,Space,keypress(Space),,,,,,,,-- --- ---- --- ------ ----- ------- ---- -- --- ------- --<br>------- ---------- ------ -- ----- -- ----- -- ---- ------<br>--- state --- --- ------ -------- ----- --- ------ ----- --<br>----- ----- ---------- --- --- ------ ------ ---- -- ------<br>------- --- ------ ----- --- ---- ------- -- ---- --- --<br>------- ------,171865.2000002861,171863.80000019073,171576.581,171581.5,171593.212,171876.602,,23,state
screen,html.Screen,2_1_1_1_24,2022-05-03T10:29:14.421Z,,,,,,,,,,,,,,,,,54,,,,,,,,,,,,,,290.3979999999865,,response,,,,100,,,,,,,Space,keypress(Space),,,,,,,,-- --- ---- --- ------ ----- ------- ---- -- --- ------- --<br>------- ---------- ------ -- ----- -- ----- -- ---- ------<br>--- ----- cut --- ------ -------- ----- --- ------ ----- --<br>----- ----- ---------- --- --- ------ ------ ---- -- ------<br>------- --- ------ ----- --- ---- ------- -- ---- --- --<br>------- ------,172168.60000038147,172167,171859.854,171865.5,171876.602,172176.4,,24,cut
screen,html.Screen,2_1_1_1_25,2022-05-03T10:29:14.709Z,,,,,,,,,,,,,,,,,54,,,,,,,,,,,,,,279.1000000000058,,response,,,,100,,,,,,,Space,keypress(Space),,,,,,,,-- --- ---- --- ------ ----- ------- ---- -- --- ------- --<br>------- ---------- ------ -- ----- -- ----- -- ---- ------<br>--- ----- --- the ------ -------- ----- --- ------ ----- --<br>----- ----- ---------- --- --- ------ ------ ---- -- ------<br>------- --- ------ ----- --- ---- ------- -- ---- --- --<br>------- ------,172457.2000002861,172455.5,172159.881,172168.90000009537,172176.4,172459.716,,25,the
screen,html.Screen,2_1_1_1_26,2022-05-03T10:29:14.954Z,,,,,,,,,,,,,,,,,54,,,,,,,,,,,,,,240.68400009538163,,response,,,,100,,,,,,,Space,keypress(Space),,,,,,,,-- --- ---- --- ------ ----- ------- ---- -- --- ------- --<br>------- ---------- ------ -- ----- -- ----- -- ---- ------<br>--- ----- --- --- bonds' -------- ----- --- ------ ----- --<br>----- ----- ---------- --- --- ------ ------ ---- -- ------<br>------- --- ------ ----- --- ---- ------- -- ---- --- --<br>------- ------,172701.90000009537,172700.40000009537,172443.116,172457.5,172459.716,172726.502,,26,bonds'
screen,html.Screen,2_1_1_1_27,2022-05-03T10:29:15.304Z,,,,,,,,,,,,,,,,,54,,,,,,,,,,,,,,324.1980002860946,,response,,,,100,,,,,,,Space,keypress(Space),,,,,,,,-- --- ---- --- ------ ----- ------- ---- -- --- ------- --<br>------- ---------- ------ -- ----- -- ----- -- ---- ------<br>--- ----- --- --- ------ interest ----- --- ------ ----- --<br>----- ----- ---------- --- --- ------ ------ ---- -- ------<br>------- --- ------ ----- --- ---- ------- -- ---- --- --<br>------- ------,173052.10000038147,173050.7000002861,172693.179,172702.40000009537,172726.502,173059.685,,27,interest
screen,html.Screen,2_1_1_1_28,2022-05-03T10:29:15.596Z,,,,,,,,,,,,,,,,,54,,,,,,,,,,,,,,282.91500038147205,,response,,,,100,,,,,,,Space,keypress(Space),,,,,,,,-- --- ---- --- ------ ----- ------- ---- -- --- ------- --<br>------- ---------- ------ -- ----- -- ----- -- ---- ------<br>--- ----- --- --- ------ -------- rate. --- ------ ----- --<br>----- ----- ---------- --- --- ------ ------ ---- -- ------<br>------- --- ------ ----- --- ---- ------- -- ---- --- --<br>------- ------,173344.10000038147,173342.60000038147,173043.073,173052.5,173059.685,173359.791,,28,rate.
screen,html.Screen,2_1_1_1_29,2022-05-03T10:29:15.921Z,,,,,,,,,,,,,,,,,54,,,,,,,,,,,,,,307.8090003814723,,response,,,,100,,,,,,,Space,keypress(Space),,,,,,,,-- --- ---- --- ------ ----- ------- ---- -- --- ------- --<br>------- ---------- ------ -- ----- -- ----- -- ---- ------<br>--- ----- --- --- ------ -------- ----- The ------ ----- --<br>----- ----- ---------- --- --- ------ ------ ---- -- ------<br>------- --- ------ ----- --- ---- ------- -- ---- --- --<br>------- ------,173669.2000002861,173667.60000038147,173343.051,173344.40000009537,173359.791,173676.3,,29,The
screen,html.Screen,2_1_1_1_30,2022-05-03T10:29:16.236Z,,,,,,,,,,,,,,,,,54,,,,,,,,,,,,,,306.0000001907465,,response,,,,100,,,,,,,Space,keypress(Space),,,,,,,,-- --- ---- --- ------ ----- ------- ---- -- --- ------- --<br>------- ---------- ------ -- ----- -- ----- -- ---- ------<br>--- ----- --- --- ------ -------- ----- --- market ----- --<br>----- ----- ---------- --- --- ------ ------ ---- -- ------<br>------- --- ------ ----- --- ---- ------- -- ---- --- --<br>------- ------,173983.7000002861,173982.30000019073,173659.664,173669.60000038147,173676.3,173993.057,,30,market
screen,html.Screen,2_1_1_1_31,2022-05-03T10:29:16.566Z,,,,,,,,,,,,,,,,,54,,,,,,,,,,,,,,319.6430002861016,,response,,,,100,,,,,,,Space,keypress(Space),,,,,,,,-- --- ---- --- ------ ----- ------- ---- -- --- ------- --<br>------- ---------- ------ -- ----- -- ----- -- ---- ------<br>--- ----- --- --- ------ -------- ----- --- ------ value --<br>----- ----- ---------- --- --- ------ ------ ---- -- ------<br>------- --- ------ ----- --- ---- ------- -- ---- --- --<br>------- ------,174314.2000002861,174312.7000002861,173976.43,173984.10000038147,173993.057,174326.375,,31,value
screen,html.Screen,2_1_1_1_32,2022-05-03T10:29:16.866Z,,,,,,,,,,,,,,,,,54,,,,,,,,,,,,,,285.625,,response,,,,100,,,,,,,Space,keypress(Space),,,,,,,,-- --- ---- --- ------ ----- ------- ---- -- --- ------- --<br>------- ---------- ------ -- ----- -- ----- -- ---- ------<br>--- ----- --- --- ------ -------- ----- --- ------ ----- of<br>----- ----- ---------- --- --- ------ ------ ---- -- ------<br>------- --- ------ ----- --- ---- ------- -- ---- --- --<br>------- ------,174613.40000009537,174612,174309.752,174314.5,174326.375,174626.378,,32,of
screen,html.Screen,2_1_1_1_33,2022-05-03T10:29:17.199Z,,,,,,,,,,,,,,,,,54,,,,,,,,,,,,,,319.02200009537046,,response,,,,100,,,,,,,Space,keypress(Space),,,,,,,,-- --- ---- --- ------ ----- ------- ---- -- --- ------- --<br>------- ---------- ------ -- ----- -- ----- -- ---- ------<br>--- ----- --- --- ------ -------- ----- --- ------ ----- --<br>these ----- ---------- --- --- ------ ------ ---- -- ------<br>------- --- ------ ----- --- ---- ------- -- ---- --- --<br>------- ------,174946.90000009537,174945.40000009537,174609.739,174613.80000019073,174626.378,174959.699,,33,these
screen,html.Screen,2_1_1_1_34,2022-05-03T10:29:17.489Z,,,,,,,,,,,,,,,,,54,,,,,,,,,,,,,,276.00100028610905,,response,,,,100,,,,,,,Space,keypress(Space),,,,,,,,-- --- ---- --- ------ ----- ------- ---- -- --- ------- --<br>------- ---------- ------ -- ----- -- ----- -- ---- ------<br>--- ----- --- --- ------ -------- ----- --- ------ ----- --<br>----- bonds ---------- --- --- ------ ------ ---- -- ------<br>------- --- ------ ----- --- ---- ------- -- ---- --- --<br>------- ------,175237.10000038147,175235.7000002861,174943.018,174947.30000019073,174959.699,175242.915,,34,bonds
screen,html.Screen,2_1_1_1_35,2022-05-03T10:29:17.754Z,,,,,,,,,,,,,,,,,54,,,,,,,,,,,,,,257.28500028609415,,response,,,,100,,,,,,,Space,keypress(Space),,,,,,,,"-- --- ---- --- ------ ----- ------- ---- -- --- ------- --<br>------- ---------- ------ -- ----- -- ----- -- ---- ------<br>--- ----- --- --- ------ -------- ----- --- ------ ----- --<br>----- ----- plummeted, --- --- ------ ------ ---- -- ------<br>------- --- ------ ----- --- ---- ------- -- ---- --- --<br>------- ------",175501.60000038147,175500.2000002861,175226.233,175237.40000009537,175242.915,175509.53,,35,"plummeted,"
screen,html.Screen,2_1_1_1_36,2022-05-03T10:29:18.010Z,,,,,,,,,,,,,,,,,54,,,,,,,,,,,,,,247.0700003814709,,response,,,,100,,,,,,,Space,keypress(Space),,,,,,,,-- --- ---- --- ------ ----- ------- ---- -- --- ------- --<br>------- ---------- ------ -- ----- -- ----- -- ---- ------<br>--- ----- --- --- ------ -------- ----- --- ------ ----- --<br>----- ----- ---------- and --- ------ ------ ---- -- ------<br>------- --- ------ ----- --- ---- ------- -- ---- --- --<br>------- ------,175758.10000038147,175756.60000038147,175493.02,175502,175509.53,175759.543,,36,and
screen,html.Screen,2_1_1_1_37,2022-05-03T10:29:18.350Z,,,,,,,,,,,,,,,,,54,,,,,,,,,,,,,,336.75700019072974,,response,,,,100,,,,,,,Space,keypress(Space),,,,,,,,-- --- ---- --- ------ ----- ------- ---- -- --- ------- --<br>------- ---------- ------ -- ----- -- ----- -- ---- ------<br>--- ----- --- --- ------ -------- ----- --- ------ ----- --<br>----- ----- ---------- --- the ------ ------ ---- -- ------<br>------- --- ------ ----- --- ---- ------- -- ---- --- --<br>------- ------,176097.80000019073,176096.30000019073,175743.008,175758.5,175759.543,176109.524,,37,the
screen,html.Screen,2_1_1_1_38,2022-05-03T10:29:18.632Z,,,,,,,,,,,,,,,,,54,,,,,,,,,,,,,,269.07600038146484,,response,,,,100,,,,,,,Space,keypress(Space),,,,,,,,-- --- ---- --- ------ ----- ------- ---- -- --- ------- --<br>------- ---------- ------ -- ----- -- ----- -- ---- ------<br>--- ----- --- --- ------ -------- ----- --- ------ ----- --<br>----- ----- ---------- --- --- market ------ ---- -- ------<br>------- --- ------ ----- --- ---- ------- -- ---- --- --<br>------- ------,176380.10000038147,176378.60000038147,176092.98,176098.30000019073,176109.524,176392.951,,38,market
screen,html.Screen,2_1_1_1_39,2022-05-03T10:29:18.899Z,,,,,,,,,,,,,,,,,54,,,,,,,,,,,,,,252.34900019073393,,response,,,,100,,,,,,,Space,keypress(Space),,,,,,,,-- --- ---- --- ------ ----- ------- ---- -- --- ------- --<br>------- ---------- ------ -- ----- -- ----- -- ---- ------<br>--- ----- --- --- ------ -------- ----- --- ------ ----- --<br>----- ----- ---------- --- --- ------ became ---- -- ------<br>------- --- ------ ----- --- ---- ------- -- ---- --- --<br>------- ------,176646.80000019073,176645.30000019073,176376.298,176380.5,176392.951,176659.602,,39,became
screen,html.Screen,2_1_1_1_40,2022-05-03T10:29:19.183Z,,,,,,,,,,,,,,,,,54,,,,,,,,,,,,,,270.0980002860888,,response,,,,100,,,,,,,Space,keypress(Space),,,,,,,,-- --- ---- --- ------ ----- ------- ---- -- --- ------- --<br>------- ---------- ------ -- ----- -- ----- -- ---- ------<br>--- ----- --- --- ------ -------- ----- --- ------ ----- --<br>----- ----- ---------- --- --- ------ ------ wary -- ------<br>------- --- ------ ----- --- ---- ------- -- ---- --- --<br>------- ------,176931.10000038147,176929.7000002861,176642.951,176647.2000002861,176659.602,176942.783,,40,wary
screen,html.Screen,2_1_1_1_41,2022-05-03T10:29:19.441Z,,,,,,,,,,,,,,,,,54,,,,,,,,,,,,,,244.2170000000042,,response,,,,100,,,,,,,Space,keypress(Space),,,,,,,,-- --- ---- --- ------ ----- ------- ---- -- --- ------- --<br>------- ---------- ------ -- ----- -- ----- -- ---- ------<br>--- ----- --- --- ------ -------- ----- --- ------ ----- --<br>----- ----- ---------- --- --- ------ ------ ---- of ------<br>------- --- ------ ----- --- ---- ------- -- ---- --- --<br>------- ------,177188.5,177187,176926.131,176931.40000009537,176942.783,177192.772,,41,of
screen,html.Screen,2_1_1_1_42,2022-05-03T10:29:19.711Z,,,,,,,,,,,,,,,,,54,,,,,,,,,,,,,,265.1280000953702,,response,,,,100,,,,,,,Space,keypress(Space),,,,,,,,-- --- ---- --- ------ ----- ------- ---- -- --- ------- --<br>------- ---------- ------ -- ----- -- ----- -- ---- ------<br>--- ----- --- --- ------ -------- ----- --- ------ ----- --<br>----- ----- ---------- --- --- ------ ------ ---- -- French<br>------- --- ------ ----- --- ---- ------- -- ---- --- --<br>------- ------,177459.5,177457.90000009537,177176.154,177188.90000009537,177192.772,177476.221,,42,French
screen,html.Screen,2_1_1_1_43,2022-05-03T10:29:20.013Z,,,,,,,,,,,,,,,,,54,,,,,,,,,,,,,,283.8790003814793,,response,,,,100,,,,,,,Space,keypress(Space),,,,,,,,-- --- ---- --- ------ ----- ------- ---- -- --- ------- --<br>------- ---------- ------ -- ----- -- ----- -- ---- ------<br>--- ----- --- --- ------ -------- ----- --- ------ ----- --<br>----- ----- ---------- --- --- ------ ------ ---- -- ------<br>credit. --- ------ ----- --- ---- ------- -- ---- --- --<br>------- ------,177761.30000019073,177760.10000038147,177459.48,177460,177476.221,177776.212,,43,credit.
screen,html.Screen,2_1_1_1_44,2022-05-03T10:29:20.292Z,,,,,,,,,,,,,,,,,54,,,,,,,,,,,,,,262.3880003814702,,response,,,,100,,,,,,,Space,keypress(Space),,,,,,,,-- --- ---- --- ------ ----- ------- ---- -- --- ------- --<br>------- ---------- ------ -- ----- -- ----- -- ---- ------<br>--- ----- --- --- ------ -------- ----- --- ------ ----- --<br>----- ----- ---------- --- --- ------ ------ ---- -- ------<br>------- The ------ ----- --- ---- ------- -- ---- --- --<br>------- ------,178040.2000002861,178038.60000038147,177759.746,177761.7000002861,177776.212,178042.724,,44,The
screen,html.Screen,2_1_1_1_45,2022-05-03T10:29:20.554Z,,,,,,,,,,,,,,,,,54,,,,,,,,,,,,,,257.8760003814823,,response,,,,100,,,,,,,Space,keypress(Space),,,,,,,,-- --- ---- --- ------ ----- ------- ---- -- --- ------- --<br>------- ---------- ------ -- ----- -- ----- -- ---- ------<br>--- ----- --- --- ------ -------- ----- --- ------ ----- --<br>----- ----- ---------- --- --- ------ ------ ---- -- ------<br>------- --- French ----- --- ---- ------- -- ---- --- --<br>------- ------,178302,178300.60000038147,178026.041,178040.5,178042.724,178309.398,,45,French
screen,html.Screen,2_1_1_1_46,2022-05-03T10:29:21.283Z,,,,,,,,,,,,,,,,,54,,,,,,,,,,,,,,720.1020000000135,,response,,,,100,,,,,,,Space,keypress(Space),,,,,,,,-- --- ---- --- ------ ----- ------- ---- -- --- ------- --<br>------- ---------- ------ -- ----- -- ----- -- ---- ------<br>--- ----- --- --- ------ -------- ----- --- ------ ----- --<br>----- ----- ---------- --- --- ------ ------ ---- -- ------<br>------- --- ------ state --- ---- ------- -- ---- --- --<br>------- ------,179030.90000009537,179029.5,178292.743,178302.40000009537,178309.398,179042.668,,46,state
screen,html.Screen,2_1_1_1_47,2022-05-03T10:29:21.572Z,,,,,,,,,,,,,,,,,54,,,,,,,,,,,,,,276.2320000953623,,response,,,,100,,,,,,,Space,keypress(Space),,,,,,,,-- --- ---- --- ------ ----- ------- ---- -- --- ------- --<br>------- ---------- ------ -- ----- -- ----- -- ---- ------<br>--- ----- --- --- ------ -------- ----- --- ------ ----- --<br>----- ----- ---------- --- --- ------ ------ ---- -- ------<br>------- --- ------ ----- was ---- ------- -- ---- --- --<br>------- ------,179320.40000009537,179318.90000009537,179026.111,179031.30000019073,179042.668,179326.009,,47,was
screen,html.Screen,2_1_1_1_48,2022-05-03T10:29:21.824Z,,,,,,,,,,,,,,,,,54,,,,,,,,,,,,,,244.69100028611138,,response,,,,100,,,,,,,Space,keypress(Space),,,,,,,,-- --- ---- --- ------ ----- ------- ---- -- --- ------- --<br>------- ---------- ------ -- ----- -- ----- -- ---- ------<br>--- ----- --- --- ------ -------- ----- --- ------ ----- --<br>----- ----- ---------- --- --- ------ ------ ---- -- ------<br>------- --- ------ ----- --- left ------- -- ---- --- --<br>------- ------,179572.2000002861,179570.7000002861,179309.415,179320.7000002861,179326.009,179575.976,,48,left
screen,html.Screen,2_1_1_1_49,2022-05-03T10:29:22.089Z,,,,,,,,,,,,,,,,,54,,,,,,,,,,,,,,259.9240000953723,,response,,,,100,,,,,,,Space,keypress(Space),,,,,,,,-- --- ---- --- ------ ----- ------- ---- -- --- ------- --<br>------- ---------- ------ -- ----- -- ----- -- ---- ------<br>--- ----- --- --- ------ -------- ----- --- ------ ----- --<br>----- ----- ---------- --- --- ------ ------ ---- -- ------<br>------- --- ------ ----- --- ---- without -- ---- --- --<br>------- ------,179837.40000009537,179835.90000009537,179559.45,179572.5,179575.976,179842.631,,49,without
screen,html.Screen,2_1_1_1_50,2022-05-03T10:29:22.336Z,,,,,,,,,,,,,,,,,54,,,,,,,,,,,,,,239.96900038147578,,response,,,,100,,,,,,,Space,keypress(Space),,,,,,,,-- --- ---- --- ------ ----- ------- ---- -- --- ------- --<br>------- ---------- ------ -- ----- -- ----- -- ---- ------<br>--- ----- --- --- ------ -------- ----- --- ------ ----- --<br>----- ----- ---------- --- --- ------ ------ ---- -- ------<br>------- --- ------ ----- --- ---- ------- an ---- --- --<br>------- ------,180084,180082.60000038147,179826.094,179837.7000002861,179842.631,180092.594,,50,an
screen,html.Screen,2_1_1_1_51,2022-05-03T10:29:22.625Z,,,,,,,,,,,,,,,,,54,,,,,,,,,,,,,,278.4059999999881,,response,,,,100,,,,,,,Space,keypress(Space),,,,,,,,-- --- ---- --- ------ ----- ------- ---- -- --- ------- --<br>------- ---------- ------ -- ----- -- ----- -- ---- ------<br>--- ----- --- --- ------ -------- ----- --- ------ ----- --<br>----- ----- ---------- --- --- ------ ------ ---- -- ------<br>------- --- ------ ----- --- ---- ------- -- easy --- --<br>------- ------,180372.7000002861,180371,180075.977,180084.40000009537,180092.594,180375.916,,51,easy
screen,html.Screen,2_1_1_1_52,2022-05-03T10:29:22.844Z,,,,,,,,,,,,,,,,,54,,,,,,,,,,,,,,215.08400000000256,,response,,,,100,,,,,,,Space,keypress(Space),,,,,,,,-- --- ---- --- ------ ----- ------- ---- -- --- ------- --<br>------- ---------- ------ -- ----- -- ----- -- ---- ------<br>--- ----- --- --- ------ -------- ----- --- ------ ----- --<br>----- ----- ---------- --- --- ------ ------ ---- -- ------<br>------- --- ------ ----- --- ---- ------- -- ---- way --<br>------- ------,180592.5,180591,180359.397,180373.10000038147,180375.916,180609.239,,52,way
screen,html.Screen,2_1_1_1_53,2022-05-03T10:29:23.148Z,,,,,,,,,,,,,,,,,54,,,,,,,,,,,,,,285.16100009536603,,response,,,,100,,,,,,,Space,keypress(Space),,,,,,,,-- --- ---- --- ------ ----- ------- ---- -- --- ------- --<br>------- ---------- ------ -- ----- -- ----- -- ---- ------<br>--- ----- --- --- ------ -------- ----- --- ------ ----- --<br>----- ----- ---------- --- --- ------ ------ ---- -- ------<br>------- --- ------ ----- --- ---- ------- -- ---- --- of<br>------- ------,180895.90000009537,180894.40000009537,180592.721,180593,180609.239,180909.354,,53,of
screen,html.Screen,2_1_1_1_54,2022-05-03T10:29:23.512Z,,,,,,,,,,,,,,,,,54,,,,,,,,,,,,,,348.9460001907428,,response,,,,100,,,,,,,Space,keypress(Space),,,,,,,,-- --- ---- --- ------ ----- ------- ---- -- --- ------- --<br>------- ---------- ------ -- ----- -- ----- -- ---- ------<br>--- ----- --- --- ------ -------- ----- --- ------ ----- --<br>----- ----- ---------- --- --- ------ ------ ---- -- ------<br>------- --- ------ ----- --- ---- ------- -- ---- --- --<br>raising ------,181260,181258.30000019073,180892.627,180896.30000019073,180909.354,181275.994,,54,raising
screen,html.Screen,2_1_1_1_55,2022-05-03T10:29:23.839Z,,,,,,,,,,,,,,,,,54,,,,,,,,,,,,,,309.50599999999395,,response,,,,100,,,,,,,Space,keypress(Space),,,,,,,,-- --- ---- --- ------ ----- ------- ---- -- --- ------- --<br>------- ---------- ------ -- ----- -- ----- -- ---- ------<br>--- ----- --- --- ------ -------- ----- --- ------ ----- --<br>----- ----- ---------- --- --- ------ ------ ---- -- ------<br>------- --- ------ ----- --- ---- ------- -- ---- --- --<br>------- money.,181587,181585.5,181259.311,181260.40000009537,181275.994,181592.507,,55,money.
Item 100,flow.Loop,2_1_1_1,2022-05-03T10:29:23.839Z,,,,,,,,,,,,,,,,,,,,,,,,,,,,,,,21724.973999999987,,completion,,,,,H,,,,,,,,,,,silence,,,,,181587.60000038147,181585.5,159843.811,159846,159860.526,181592.507,,,
Question 1,html.Screen,2_1_1_2,2022-05-03T10:29:26.644Z,,,,,,,,,,,,,,,,,,,,,,,,,,,,true,TRUE,,2797.2930001907225,,response,,,,100,H,,,,,,TRUE,click #choice-1,,,,silence,,,,,184392,184389.80000019073,181575.953,181588,181592.507,184392.353,,,
Question 2,html.Screen,2_1_1_3,2022-05-03T10:29:32.611Z,,,,,,,,,,,,,,,,,,,,,,,,,,,,true,FALSE,,5964.747000381467,,response,,,,100,H,,,,,,FALSE,click #choice-2,,,,silence,,,,,190359.60000038147,190357.10000038147,184375.729,184392.30000019073,184392.353,190375.515,,,
Item 100,flow.Sequence,2_1_1,2022-05-03T10:29:32.612Z,,,,,,,,,,,,,,,,,,,,,,,,,,,,,,,40496.02600038148,,completion,,,,,,,,,,,,,,,,,,,,,190360.30000019073,190357.10000038147,149844.39,149849.30000019073,149861.074,190375.515,,,
End of Practice,html.Page,2_1_2,2022-05-03T10:29:37.450Z,,,,,,,,,,,,,,,,,,,,,,,,,,,,,,,4822.185000286088,,form submission,,,,,,,,,,,,,,,,,,,,,195198.5,195197.7000002861,190358.658,190360.60000038147,190375.515,195208.391,,,
Practice,flow.Sequence,2_1,2022-05-03T10:29:37.451Z,,,,,,,,,,,,,,,,,,,,,,,,,,,,,,,83917.7080002861,,completion,,,,,,,,,,,,,,,,,,,,,195199.10000038147,195197.7000002861,111246.655,111266.30000019073,111279.992,195208.391,,,
Trap_instruction,html.Page,2_2_0,2022-05-03T10:29:39.370Z,,,,,,,,,,,,,,,,,,,,,,,,,,,,,,,1908.9090001907316,,form submission,,,,,,,,,,,,,,,,,,,,,197118,197117.30000019073,195191.835,195199.60000038147,195208.391,197174.881,,,
trap_trial,html.Screen,2_2_1,2022-05-03T10:29:43.601Z,,,,,,,,,,,,,,,,,,,,,,,,,,,,true,1,,4172.0190000953735,,response,,,,,,,,,,,1,click #choice-1,,,,,,,,,201348.90000009537,201346.90000009537,197108.386,197118.30000019073,197174.881,201358.016,,,
end of trap trial,html.Page,2_2_2,2022-05-03T10:29:45.899Z,,,,,,,,,,,,,,,,,,,,,,,,,,,,,,,2287.9839999999967,,form submission,,,,,,,,,,,,,,,,,,,,,203646.7000002861,203646,201341.347,201349.2000002861,201358.016,203657.882,,,
Trap 1,flow.Sequence,2_2,2022-05-03T10:29:45.899Z,,,,,,,,,,,,,,,,,,,,,,,,,,,,,,,8437.608999999997,,completion,,,,,,,,,,,,,,,,,,,,,203647.2000002861,203646,195191.835,195199.40000009537,195208.391,203657.882,,,
Standby,html.Page,2_3_0,2022-05-03T10:29:53.895Z,,,,,,,,,,,,,,,,,,,,,,,,,,,,,,,7999.543999999994,,timeout,,,,,,,,,,,,,,,,,,,,,211642.7000002861,211640.863,203641.381,203647.60000038147,203657.882,211657.426,,,
Holding screen,html.Screen,2_3_1_0_0,2022-05-03T10:30:00.894Z,,,,,,,,,,,,,,,,,,,,,,,,,,,,,,,6999.565999999992,,timeout,,,,,,,,,,,,,,,,,,,,,218642.2000002861,218640.368,211640.863,211643.40000009537,211657.426,218656.992,,,
screen,html.Screen,2_3_1_0_1_0,2022-05-03T10:30:03.491Z,,,,,,,,,,,,,,,,,12,,,,,,,,,,,,,,2579.8080001907365,,response,,,,5,H,,,,,,Space,keypress(Space),,,,speech,,,,Some ------ ------ ------- ------ --- ------- -----------<br>-- ----- --- ---- -- --- ------ ---- - ---- -- ----------<br>-- ------ ---- --- ---- --- --- --- ----- -- -------- ---<br>------ ------- -------- --- ---- -- ------- ------------ --<br>------ -- ---- -- --- ---- -- -------- -- --- ------ ------,221238.80000019073,221236.80000019073,218640.368,218642.80000019073,218656.992,221240.187,,0,Some
screen,html.Screen,2_3_1_0_1_1,2022-05-03T10:30:03.901Z,,,,,,,,,,,,,,,,,12,,,,,,,,,,,,,,407.2130000953621,,response,,,,5,H,,,,,,Space,keypress(Space),,,,speech,,,,---- months ------ ------- ------ --- ------- -----------<br>-- ----- --- ---- -- --- ------ ---- - ---- -- ----------<br>-- ------ ---- --- ---- --- --- --- ----- -- -------- ---<br>------ ------- -------- --- ---- -- ------- ------------ --<br>------ -- ---- -- --- ---- -- -------- -- --- ------ ------,221648.80000019073,221647.40000009537,221223.569,221239.2000002861,221240.187,221656.853,,1,months
screen,html.Screen,2_3_1_0_1_2,2022-05-03T10:30:04.212Z,,,,,,,,,,,,,,,,,12,,,,,,,,,,,,,,302.1469999999972,,response,,,,5,H,,,,,,Space,keypress(Space),,,,speech,,,,"---- ------ later, ------- ------ --- ------- -----------<br>-- ----- --- ---- -- --- ------ ---- - ---- -- ----------<br>-- ------ ---- --- ---- --- --- --- ----- -- -------- ---<br>------ ------- -------- --- ---- -- ------- ------------ --<br>------ -- ---- -- --- ---- -- -------- -- --- ------ ------",221960.5,221959,221640.3,221649.2000002861,221656.853,221973.485,,2,"later,"
screen,html.Screen,2_3_1_0_1_3,2022-05-03T10:30:04.469Z,,,,,,,,,,,,,,,,,12,,,,,,,,,,,,,,241.9150000953814,,response,,,,5,H,,,,,,Space,keypress(Space),,,,speech,,,,---- ------ ------ Michael ------ --- ------- -----------<br>-- ----- --- ---- -- --- ------ ---- - ---- -- ----------<br>-- ------ ---- --- ---- --- --- --- ----- -- -------- ---<br>------ ------- -------- --- ---- -- ------- ------------ --<br>------ -- ---- -- --- ---- -- -------- -- --- ------ ------,222216.80000019073,222215.40000009537,221956.923,221960.80000019073,221973.485,222223.503,,3,Michael
screen,html.Screen,2_3_1_0_1_4,2022-05-03T10:30:04.903Z,,,,,,,,,,,,,,,,,12,,,,,,,,,,,,,,426.09700038147275,,response,,,,5,H,,,,,,Space,keypress(Space),,,,speech,,,,---- ------ ------ ------- Larson --- ------- -----------<br>-- ----- --- ---- -- --- ------ ---- - ---- -- ----------<br>-- ------ ---- --- ---- --- --- --- ----- -- -------- ---<br>------ ------- -------- --- ---- -- ------- ------------ --<br>------ -- ---- -- --- ---- -- -------- -- --- ------ ------,222651,222649.60000038147,222206.938,222217.30000019073,222223.503,222656.81,,4,Larson
screen,html.Screen,2_3_1_0_1_5,2022-05-03T10:30:05.435Z,,,,,,,,,,,,,,,,,12,,,,,,,,,,,,,,525.0900000953698,,response,,,,5,H,,,,,,Space,keypress(Space),,,,speech,,,,---- ------ ------ ------- ------ saw ------- -----------<br>-- ----- --- ---- -- --- ------ ---- - ---- -- ----------<br>-- ------ ---- --- ---- --- --- --- ----- -- -------- ---<br>------ ------- -------- --- ---- -- ------- ------------ --<br>------ -- ---- -- --- ---- -- -------- -- --- ------ ------,223183.5,223181.90000009537,222640.132,222651.40000009537,222656.81,223206.866,,5,saw
screen,html.Screen,2_3_1_0_1_6,2022-05-03T10:30:06.097Z,,,,,,,,,,,,,,,,,12,,,,,,,,,,,,,,636.8340002860932,,response,,,,5,H,,,,,,Space,keypress(Space),,,,speech,,,,---- ------ ------ ------- ------ --- another -----------<br>-- ----- --- ---- -- --- ------ ---- - ---- -- ----------<br>-- ------ ---- --- ---- --- --- --- ----- -- -------- ---<br>------ ------- -------- --- ---- -- ------- ------------ --<br>------ -- ---- -- --- ---- -- -------- -- --- ------ ------,223845.2000002861,223843.7000002861,223173.57,223183.90000009537,223206.866,223856.83,,6,another
screen,html.Screen,2_3_1_0_1_7,2022-05-03T10:30:06.550Z,,,,,,,,,,,,,,,,,12,,,,,,,,,,,,,,440.07000009538024,,response,,,,5,H,,,,,,Space,keypress(Space),,,,speech,,,,---- ------ ------ ------- ------ --- ------- opportunity<br>-- ----- --- ---- -- --- ------ ---- - ---- -- ----------<br>-- ------ ---- --- ---- --- --- --- ----- -- -------- ---<br>------ ------- -------- --- ---- -- ------- ------------ --<br>------ -- ---- -- --- ---- -- -------- -- --- ------ ------,224298.40000009537,224296.90000009537,223840.027,223845.5,223856.83,224306.671,,7,opportunity
screen,html.Screen,2_3_1_0_1_8,2022-05-03T10:30:06.909Z,,,,,,,,,,,,,,,,,12,,,,,,,,,,,,,,349.22900009536534,,response,,,,5,H,,,,,,Space,keypress(Space),,,,speech,,,,---- ------ ------ ------- ------ --- ------- -----------<br>to ----- --- ---- -- --- ------ ---- - ---- -- ----------<br>-- ------ ---- --- ---- --- --- --- ----- -- -------- ---<br>------ ------- -------- --- ---- -- ------- ------------ --<br>------ -- ---- -- --- ---- -- -------- -- --- ------ ------,224657.40000009537,224655.90000009537,224290.175,224298.7000002861,224306.671,224673.349,,8,to
screen,html.Screen,2_3_1_0_1_9,2022-05-03T10:30:07.255Z,,,,,,,,,,,,,,,,,12,,,,,,,,,,,,,,328.6510000000126,,response,,,,5,H,,,,,,Space,keypress(Space),,,,speech,,,,---- ------ ------ ------- ------ --- ------- -----------<br>-- stack --- ---- -- --- ------ ---- - ---- -- ----------<br>-- ------ ---- --- ---- --- --- --- ----- -- -------- ---<br>------ ------- -------- --- ---- -- ------- ------------ --<br>------ -- ---- -- --- ---- -- -------- -- --- ------ ------,225003.40000009537,225002,224656.793,224657.80000019073,224673.349,225006.631,,9,stack
screen,html.Screen,2_3_1_0_1_10,2022-05-03T10:30:07.629Z,,,,,,,,,,,,,,,,,12,,,,,,,,,,,,,,369.1690001907409,,response,,,,5,H,,,,,,Space,keypress(Space),,,,speech,,,,---- ------ ------ ------- ------ --- ------- -----------<br>-- ----- the ---- -- --- ------ ---- - ---- -- ----------<br>-- ------ ---- --- ---- --- --- --- ----- -- -------- ---<br>------ ------- -------- --- ---- -- ------- ------------ --<br>------ -- ---- -- --- ---- -- -------- -- --- ------ ------,225377.2000002861,225375.80000019073,224990.078,225003.7000002861,225006.631,225390.098,,10,the
screen,html.Screen,2_3_1_0_1_11,2022-05-03T10:30:07.956Z,,,,,,,,,,,,,,,,,12,,,,,,,,,,,,,,312.7020001907367,,response,,,,5,H,,,,,,Space,keypress(Space),,,,speech,,,,---- ------ ------ ------- ------ --- ------- -----------<br>-- ----- --- odds -- --- ------ ---- - ---- -- ----------<br>-- ------ ---- --- ---- --- --- --- ----- -- -------- ---<br>------ ------- -------- --- ---- -- ------- ------------ --<br>------ -- ---- -- --- ---- -- -------- -- --- ------ ------,225704.30000019073,225702.80000019073,225373.321,225377.60000038147,225390.098,225706.59,,11,odds
screen,html.Screen,2_3_1_0_1_12,2022-05-03T10:30:08.257Z,,,,,,,,,,,,,,,,,12,,,,,,,,,,,,,,297.21000019073836,,response,,,,5,H,,,,,,Space,keypress(Space),,,,speech,,,,---- ------ ------ ------- ------ --- ------- -----------<br>-- ----- --- ---- in --- ------ ---- - ---- -- ----------<br>-- ------ ---- --- ---- --- --- --- ----- -- -------- ---<br>------ ------- -------- --- ---- -- ------- ------------ --<br>------ -- ---- -- --- ---- -- -------- -- --- ------ ------,226005.2000002861,226003.80000019073,225689.929,225704.7000002861,225706.59,226006.547,,12,in
screen,html.Screen,2_3_1_0_1_13,2022-05-03T10:30:08.537Z,,,,,,,,,,,,,,,,,12,,,,,,,,,,,,,,277.35300009537605,,response,,,,5,H,,,,,,Space,keypress(Space),,,,speech,,,,---- ------ ------ ------- ------ --- ------- -----------<br>-- ----- --- ---- -- his ------ ---- - ---- -- ----------<br>-- ------ ---- --- ---- --- --- --- ----- -- -------- ---<br>------ ------- -------- --- ---- -- ------- ------------ --<br>------ -- ---- -- --- ---- -- -------- -- --- ------ ------,226285.2000002861,226283.90000009537,225990.055,226005.5,226006.547,226289.903,,13,his
screen,html.Screen,2_3_1_0_1_14,2022-05-03T10:30:08.775Z,,,,,,,,,,,,,,,,,12,,,,,,,,,,,,,,230.8970001907437,,response,,,,5,H,,,,,,Space,keypress(Space),,,,speech,,,,---- ------ ------ ------- ------ --- ------- -----------<br>-- ----- --- ---- -- --- favour ---- - ---- -- ----------<br>-- ------ ---- --- ---- --- --- --- ----- -- -------- ---<br>------ ------- -------- --- ---- -- ------- ------------ --<br>------ -- ---- -- --- ---- -- -------- -- --- ------ ------,226522.60000038147,226520.80000019073,226273.269,226285.60000038147,226289.903,226540.036,,14,favour
screen,html.Screen,2_3_1_0_1_15,2022-05-03T10:30:09.636Z,,,,,,,,,,,,,,,,,12,,,,,,,,,,,,,,842.564000381477,,response,,,,5,H,,,,,,Space,keypress(Space),,,,speech,,,,---- ------ ------ ------- ------ --- ------- -----------<br>-- ----- --- ---- -- --- ------ with - ---- -- ----------<br>-- ------ ---- --- ---- --- --- --- ----- -- -------- ---<br>------ ------- -------- --- ---- -- ------- ------------ --<br>------ -- ---- -- --- ---- -- -------- -- --- ------ ------,227384.30000019073,227382.60000038147,226523.307,226523,226540.036,227389.831,,15,with
screen,html.Screen,2_3_1_0_1_16,2022-05-03T10:30:10.001Z,,,,,,,,,,,,,,,,,12,,,,,,,,,,,,,,358.06900009536184,,response,,,,5,H,,,,,,Space,keypress(Space),,,,speech,,,,---- ------ ------ ------- ------ --- ------- -----------<br>-- ----- --- ---- -- --- ------ ---- a ---- -- ----------<br>-- ------ ---- --- ---- --- --- --- ----- -- -------- ---<br>------ ------- -------- --- ---- -- ------- ------------ --<br>------ -- ---- -- --- ---- -- -------- -- --- ------ ------,227749.40000009537,227747.90000009537,227373.146,227384.7000002861,227389.831,227756.464,,16,a
screen,html.Screen,2_3_1_0_1_17,2022-05-03T10:30:10.356Z,,,,,,,,,,,,,,,,,12,,,,,,,,,,,,,,345.9360000953602,,response,,,,5,H,,,,,,Space,keypress(Space),,,,speech,,,,---- ------ ------ ------- ------ --- ------- -----------<br>-- ----- --- ---- -- --- ------ ---- - dash -- ----------<br>-- ------ ---- --- ---- --- --- --- ----- -- -------- ---<br>------ ------- -------- --- ---- -- ------- ------------ --<br>------ -- ---- -- --- ---- -- -------- -- --- ------ ------,228104,228102.40000009537,227739.848,227749.7000002861,227756.464,228106.454,,17,dash
screen,html.Screen,2_3_1_0_1_18,2022-05-03T10:30:10.632Z,,,,,,,,,,,,,,,,,12,,,,,,,,,,,,,,271.9460000953695,,response,,,,5,H,,,,,,Space,keypress(Space),,,,speech,,,,---- ------ ------ ------- ------ --- ------- -----------<br>-- ----- --- ---- -- --- ------ ---- - ---- of ----------<br>-- ------ ---- --- ---- --- --- --- ----- -- -------- ---<br>------ ------- -------- --- ---- -- ------- ------------ --<br>------ -- ---- -- --- ---- -- -------- -- --- ------ ------,228380.2000002861,228378.40000009537,228089.83,228104.40000009537,228106.454,228389.829,,18,of
screen,html.Screen,2_3_1_0_1_19,2022-05-03T10:30:10.962Z,,,,,,,,,,,,,,,,,12,,,,,,,,,,,,,,318.5710000953695,,response,,,,5,H,,,,,,Space,keypress(Space),,,,speech,,,,---- ------ ------ ------- ------ --- ------- -----------<br>-- ----- --- ---- -- --- ------ ---- - ---- -- ingenuity.<br>-- ------ ---- --- ---- --- --- --- ----- -- -------- ---<br>------ ------- -------- --- ---- -- ------- ------------ --<br>------ -- ---- -- --- ---- -- -------- -- --- ------ ------,228709.90000009537,228708.40000009537,228373.283,228380.60000038147,228389.829,228723.078,,19,ingenuity.
screen,html.Screen,2_3_1_0_1_20,2022-05-03T10:30:11.396Z,,,,,,,,,,,,,,,,,12,,,,,,,,,,,,,,420.1220002860937,,response,,,,5,H,,,,,,Space,keypress(Space),,,,speech,,,,---- ------ ------ ------- ------ --- ------- -----------<br>-- ----- --- ---- -- --- ------ ---- - ---- -- ----------<br>He ------ ---- --- ---- --- --- --- ----- -- -------- ---<br>------ ------- -------- --- ---- -- ------- ------------ --<br>------ -- ---- -- --- ---- -- -------- -- --- ------ ------,229144.60000038147,229143.2000002861,228706.446,228710.2000002861,228723.078,229156.432,,20,He
screen,html.Screen,2_3_1_0_1_21,2022-05-03T10:30:11.730Z,,,,,,,,,,,,,,,,,12,,,,,,,,,,,,,,320.0679999999993,,response,,,,5,H,,,,,,Space,keypress(Space),,,,speech,,,,---- ------ ------ ------- ------ --- ------- -----------<br>-- ----- --- ---- -- --- ------ ---- - ---- -- ----------<br>-- walked ---- --- ---- --- --- --- ----- -- -------- ---<br>------ ------- -------- --- ---- -- ------- ------------ --<br>------ -- ---- -- --- ---- -- -------- -- --- ------ ------,229478,229476.5,229139.898,229145,229156.432,229489.836,,21,walked
screen,html.Screen,2_3_1_0_1_22,2022-05-03T10:30:12.021Z,,,,,,,,,,,,,,,,,12,,,,,,,,,,,,,,277.66399999998976,,response,,,,5,H,,,,,,Space,keypress(Space),,,,speech,,,,---- ------ ------ ------- ------ --- ------- -----------<br>-- ----- --- ---- -- --- ------ ---- - ---- -- ----------<br>-- ------ into --- ---- --- --- --- ----- -- -------- ---<br>------ ------- -------- --- ---- -- ------- ------------ --<br>------ -- ---- -- --- ---- -- -------- -- --- ------ ------,229769,229767.5,229473.086,229478.40000009537,229489.836,229773.037,,22,into
screen,html.Screen,2_3_1_0_1_23,2022-05-03T10:30:12.413Z,,,,,,,,,,,,,,,,,12,,,,,,,,,,,,,,386.1630002860911,,response,,,,5,H,,,,,,Space,keypress(Space),,,,speech,,,,---- ------ ------ ------- ------ --- ------- -----------<br>-- ----- --- ---- -- --- ------ ---- - ---- -- ----------<br>-- ------ ---- his ---- --- --- --- ----- -- -------- ---<br>------ ------- -------- --- ---- -- ------- ------------ --<br>------ -- ---- -- --- ---- -- -------- -- --- ------ ------,230160.60000038147,230159.2000002861,229756.392,229769.40000009537,229773.037,230172.974,,23,his
screen,html.Screen,2_3_1_0_1_24,2022-05-03T10:30:14.206Z,,,,,,,,,,,,,,,,,12,,,,,,,,,,,,,,1779.1260003814823,,response,,,,5,H,,,,,,Space,keypress(Space),,,,speech,,,,---- ------ ------ ------- ------ --- ------- -----------<br>-- ----- --- ---- -- --- ------ ---- - ---- -- ----------<br>-- ------ ---- --- bank --- --- --- ----- -- -------- ---<br>------ ------- -------- --- ---- -- ------- ------------ --<br>------ -- ---- -- --- ---- -- -------- -- --- ------ ------,231954.10000038147,231952.10000038147,230156.475,230161,230172.974,231956.2,,24,bank
screen,html.Screen,2_3_1_0_1_25,2022-05-03T10:30:14.636Z,,,,,,,,,,,,,,,,,12,,,,,,,,,,,,,,426.50000028609065,,response,,,,5,H,,,,,,Space,keypress(Space),,,,speech,,,,---- ------ ------ ------- ------ --- ------- -----------<br>-- ----- --- ---- -- --- ------ ---- - ---- -- ----------<br>-- ------ ---- --- ---- one --- --- ----- -- -------- ---<br>------ ------- -------- --- ---- -- ------- ------------ --<br>------ -- ---- -- --- ---- -- -------- -- --- ------ ------,232384.30000019073,232382.7000002861,231939.712,231954.40000009537,231956.2,232389.541,,25,one
screen,html.Screen,2_3_1_0_1_26,2022-05-03T10:30:15.038Z,,,,,,,,,,,,,,,,,12,,,,,,,,,,,,,,394.7590001907374,,response,,,,5,H,,,,,,Space,keypress(Space),,,,speech,,,,---- ------ ------ ------- ------ --- ------- -----------<br>-- ----- --- ---- -- --- ------ ---- - ---- -- ----------<br>-- ------ ---- --- ---- --- day --- ----- -- -------- ---<br>------ ------- -------- --- ---- -- ------- ------------ --<br>------ -- ---- -- --- ---- -- -------- -- --- ------ ------,232785.80000019073,232784.30000019073,232373.055,232384.7000002861,232389.541,232789.519,,26,day
screen,html.Screen,2_3_1_0_1_27,2022-05-03T10:30:15.331Z,,,,,,,,,,,,,,,,,12,,,,,,,,,,,,,,288.0810003814695,,response,,,,5,H,,,,,,Space,keypress(Space),,,,speech,,,,---- ------ ------ ------- ------ --- ------- -----------<br>-- ----- --- ---- -- --- ------ ---- - ---- -- ----------<br>-- ------ ---- --- ---- --- --- and ----- -- -------- ---<br>------ ------- -------- --- ---- -- ------- ------------ --<br>------ -- ---- -- --- ---- -- -------- -- --- ------ ------,233079.2000002861,233077.60000038147,232772.874,232786.10000038147,232789.519,233089.492,,27,and
screen,html.Screen,2_3_1_0_1_28,2022-05-03T10:30:15.695Z,,,,,,,,,,,,,,,,,12,,,,,,,,,,,,,,351.90800009536906,,response,,,,5,H,,,,,,Space,keypress(Space),,,,speech,,,,---- ------ ------ ------- ------ --- ------- -----------<br>-- ----- --- ---- -- --- ------ ---- - ---- -- ----------<br>-- ------ ---- --- ---- --- --- --- asked -- -------- ---<br>------ ------- -------- --- ---- -- ------- ------------ --<br>------ -- ---- -- --- ---- -- -------- -- --- ------ ------,233442.80000019073,233441.40000009537,233072.868,233079.5,233089.492,233456.11,,28,asked
screen,html.Screen,2_3_1_0_1_29,2022-05-03T10:30:15.969Z,,,,,,,,,,,,,,,,,12,,,,,,,,,,,,,,259.39000000001397,,response,,,,5,H,,,,,,Space,keypress(Space),,,,speech,,,,---- ------ ------ ------- ------ --- ------- -----------<br>-- ----- --- ---- -- --- ------ ---- - ---- -- ----------<br>-- ------ ---- --- ---- --- --- --- ----- to -------- ---<br>------ ------- -------- --- ---- -- ------- ------------ --<br>------ -- ---- -- --- ---- -- -------- -- --- ------ ------,233717,233715.5,233439.51,233443.2000002861,233456.11,233722.829,,29,to
screen,html.Screen,2_3_1_0_1_30,2022-05-03T10:30:16.305Z,,,,,,,,,,,,,,,,,12,,,,,,,,,,,,,,328.47100019073696,,response,,,,5,H,,,,,,Space,keypress(Space),,,,speech,,,,---- ------ ------ ------- ------ --- ------- -----------<br>-- ----- --- ---- -- --- ------ ---- - ---- -- ----------<br>-- ------ ---- --- ---- --- --- --- ----- -- withdraw ---<br>------ ------- -------- --- ---- -- ------- ------------ --<br>------ -- ---- -- --- ---- -- -------- -- --- ------ ------,234052.80000019073,234051.30000019073,233706.174,233717.5,233722.829,234056.113,,30,withdraw
screen,html.Screen,2_3_1_0_1_31,2022-05-03T10:30:16.673Z,,,,,,,,,,,,,,,,,12,,,,,,,,,,,,,,363.5870002860902,,response,,,,5,H,,,,,,Space,keypress(Space),,,,speech,,,,---- ------ ------ ------- ------ --- ------- -----------<br>-- ----- --- ---- -- --- ------ ---- - ---- -- ----------<br>-- ------ ---- --- ---- --- --- --- ----- -- -------- his<br>------ ------- -------- --- ---- -- ------- ------------ --<br>------ -- ---- -- --- ---- -- -------- -- --- ------ ------,234421.40000009537,234419.7000002861,234039.581,234053.2000002861,234056.113,234422.751,,31,his
screen,html.Screen,2_3_1_0_1_32,2022-05-03T10:30:17.130Z,,,,,,,,,,,,,,,,,12,,,,,,,,,,,,,,454.34900038148044,,response,,,,5,H,,,,,,Space,keypress(Space),,,,speech,,,,---- ------ ------ ------- ------ --- ------- -----------<br>-- ----- --- ---- -- --- ------ ---- - ---- -- ----------<br>-- ------ ---- --- ---- --- --- --- ----- -- -------- ---<br>entire ------- -------- --- ---- -- ------- ------------ --<br>------ -- ---- -- --- ---- -- -------- -- --- ------ ------,234878.5,234877.10000038147,234406.293,234421.7000002861,234422.751,234889.392,,32,entire
screen,html.Screen,2_3_1_0_1_33,2022-05-03T10:30:17.375Z,,,,,,,,,,,,,,,,,12,,,,,,,,,,,,,,232.30800028610975,,response,,,,5,H,,,,,,Space,keypress(Space),,,,speech,,,,---- ------ ------ ------- ------ --- ------- -----------<br>-- ----- --- ---- -- --- ------ ---- - ---- -- ----------<br>-- ------ ---- --- ---- --- --- --- ----- -- -------- ---<br>------ account -------- --- ---- -- ------- ------------ --<br>------ -- ---- -- --- ---- -- -------- -- --- ------ ------,235123.5,235121.7000002861,234872.764,234878.90000009537,234889.392,235139.491,,33,account
screen,html.Screen,2_3_1_0_1_34,2022-05-03T10:30:17.620Z,,,,,,,,,,,,,,,,,12,,,,,,,,,,,,,,226.90900009535835,,response,,,,5,H,,,,,,Space,keypress(Space),,,,speech,,,,"---- ------ ------ ------- ------ --- ------- -----------<br>-- ----- --- ---- -- --- ------ ---- - ---- -- ----------<br>-- ------ ---- --- ---- --- --- --- ----- -- -------- ---<br>------ ------- balance, --- ---- -- ------- ------------ --<br>------ -- ---- -- --- ---- -- -------- -- --- ------ ------",235367.90000009537,235366.40000009537,235122.746,235123.90000009537,235139.491,235372.693,,34,"balance,"
screen,html.Screen,2_3_1_0_1_35,2022-05-03T10:30:17.926Z,,,,,,,,,,,,,,,,,12,,,,,,,,,,,,,,299.3070000000007,,response,,,,5,H,,,,,,Space,keypress(Space),,,,speech,,,,---- ------ ------ ------- ------ --- ------- -----------<br>-- ----- --- ---- -- --- ------ ---- - ---- -- ----------<br>-- ------ ---- --- ---- --- --- --- ----- -- -------- ---<br>------ ------- -------- but ---- -- ------- ------------ --<br>------ -- ---- -- --- ---- -- -------- -- --- ------ ------,235673.7000002861,235672,235356.038,235368.30000019073,235372.693,235689.47,,35,but
screen,html.Screen,2_3_1_0_1_36,2022-05-03T10:30:18.217Z,,,,,,,,,,,,,,,,,12,,,,,,,,,,,,,,273.63000038146856,,response,,,,5,H,,,,,,Space,keypress(Space),,,,speech,,,,---- ------ ------ ------- ------ --- ------- -----------<br>-- ----- --- ---- -- --- ------ ---- - ---- -- ----------<br>-- ------ ---- --- ---- --- --- --- ----- -- -------- ---<br>------ ------- -------- --- with -- ------- ------------ --<br>------ -- ---- -- --- ---- -- -------- -- --- ------ ------,235964.7000002861,235963.10000038147,235672.818,235674.10000038147,235689.47,235972.652,,36,with
screen,html.Screen,2_3_1_0_1_37,2022-05-03T10:30:18.484Z,,,,,,,,,,,,,,,,,12,,,,,,,,,,,,,,257.84799999999814,,response,,,,5,H,,,,,,Space,keypress(Space),,,,speech,,,,---- ------ ------ ------- ------ --- ------- -----------<br>-- ----- --- ---- -- --- ------ ---- - ---- -- ----------<br>-- ------ ---- --- ---- --- --- --- ----- -- -------- ---<br>------ ------- -------- --- ---- an ------- ------------ --<br>------ -- ---- -- --- ---- -- -------- -- --- ------ ------,236231.90000009537,236230.5,235955.998,235965,235972.652,236239.325,,37,an
screen,html.Screen,2_3_1_0_1_38,2022-05-03T10:30:18.849Z,,,,,,,,,,,,,,,,,12,,,,,,,,,,,,,,356.7750003814581,,response,,,,5,H,,,,,,Space,keypress(Space),,,,speech,,,,---- ------ ------ ------- ------ --- ------- -----------<br>-- ----- --- ---- -- --- ------ ---- - ---- -- ----------<br>-- ------ ---- --- ---- --- --- --- ----- -- -------- ---<br>------ ------- -------- --- ---- -- unusual ------------ --<br>------ -- ---- -- --- ---- -- -------- -- --- ------ ------,236597.5,236596.10000038147,236222.787,236232.30000019073,236239.325,236605.946,,38,unusual
screen,html.Screen,2_3_1_0_1_39,2022-05-03T10:30:19.150Z,,,,,,,,,,,,,,,,,12,,,,,,,,,,,,,,290.754000286106,,response,,,,5,H,,,,,,Space,keypress(Space),,,,speech,,,,---- ------ ------ ------- ------ --- ------- -----------<br>-- ----- --- ---- -- --- ------ ---- - ---- -- ----------<br>-- ------ ---- --- ---- --- --- --- ----- -- -------- ---<br>------ ------- -------- --- ---- -- ------- stipulation: --<br>------ -- ---- -- --- ---- -- -------- -- --- ------ ------,236898.2000002861,236896.7000002861,236589.33,236597.80000019073,236605.946,236905.932,,39,stipulation:
screen,html.Screen,2_3_1_0_1_40,2022-05-03T10:30:19.481Z,,,,,,,,,,,,,,,,,12,,,,,,,,,,,,,,321.36800019073416,,response,,,,5,H,,,,,,Space,keypress(Space),,,,speech,,,,---- ------ ------ ------- ------ --- ------- -----------<br>-- ----- --- ---- -- --- ------ ---- - ---- -- ----------<br>-- ------ ---- --- ---- --- --- --- ----- -- -------- ---<br>------ ------- -------- --- ---- -- ------- ------------ He<br>------ -- ---- -- --- ---- -- -------- -- --- ------ ------,237228.90000009537,237227.30000019073,236889.318,236898.60000038147,236905.932,237239.247,,40,He
screen,html.Screen,2_3_1_0_1_41,2022-05-03T10:30:19.837Z,,,,,,,,,,,,,,,,,12,,,,,,,,,,,,,,344.3530003814667,,response,,,,5,H,,,,,,Space,keypress(Space),,,,speech,,,,---- ------ ------ ------- ------ --- ------- -----------<br>-- ----- --- ---- -- --- ------ ---- - ---- -- ----------<br>-- ------ ---- --- ---- --- --- --- ----- -- -------- ---<br>------ ------- -------- --- ---- -- ------- ------------ --<br>wanted -- ---- -- --- ---- -- -------- -- --- ------ ------,237585.30000019073,237583.60000038147,237222.763,237229.30000019073,237239.247,237589.227,,41,wanted
screen,html.Screen,2_3_1_0_1_42,2022-05-03T10:30:20.053Z,,,,,,,,,,,,,,,,,12,,,,,,,,,,,,,,210.67300009535393,,response,,,,5,H,,,,,,Space,keypress(Space),,,,speech,,,,---- ------ ------ ------- ------ --- ------- -----------<br>-- ----- --- ---- -- --- ------ ---- - ---- -- ----------<br>-- ------ ---- --- ---- --- --- --- ----- -- -------- ---<br>------ ------- -------- --- ---- -- ------- ------------ --<br>------ as ---- -- --- ---- -- -------- -- --- ------ ------,237801.60000038147,237799.90000009537,237572.603,237585.7000002861,237589.227,237805.885,,42,as
screen,html.Screen,2_3_1_0_1_43,2022-05-03T10:30:20.635Z,,,,,,,,,,,,,,,,,12,,,,,,,,,,,,,,575.7150003814604,,response,,,,5,H,,,,,,Space,keypress(Space),,,,speech,,,,---- ------ ------ ------- ------ --- ------- -----------<br>-- ----- --- ---- -- --- ------ ---- - ---- -- ----------<br>-- ------ ---- --- ---- --- --- --- ----- -- -------- ---<br>------ ------- -------- --- ---- -- ------- ------------ --<br>------ -- much -- --- ---- -- -------- -- --- ------ ------,238383.30000019073,238381.60000038147,237789.26,237801.90000009537,237805.885,238389.239,,43,much
