sender,sender_type,sender_id,timestamp,meta,,Blues,Classical,Country,Dance,Electronic,Folk,Gospel,Hip-Hop,Jazz,Latin,Musical/Film,New-age,Pop,Prolific_id,Provo_ID,R&B,Rap,Reggae,Religious,Rock,Soul,Swing,Traditional,age,artist_name,correct,correctResponse,distraction,duration,education,ended_on,familiarity,gender,headphone_check_performance,item,list,music_frequency,offensiveness,pleasantness,position_correct,preference,response,response_action,snippet_file,song_name,song_rating,sound,stimulus_1,stimulus_2,stimulus_3,text,time_commit,time_end,time_render,time_run,time_show,time_switch,url,word,word_ID
Prolific ID,html.Form,0,2022-04-25T14:19:16.059Z,"{""labjs_version"":""20.2.2"",""labjs_build"":{""flavor"":""production"",""commit"":""a25486e0c714a0ae2ce03ff94b7bb6896854dcfa""},""location"":""https://run.pavlovia.org/mvasilev/prolific3_music_a/"",""userAgent"":""Mozilla/5.0 (Windows NT 10.0; Win64; x64) AppleWebKit/537.36 (KHTML, like Gecko) Chrome/100.0.4896.127 Safari/537.36"",""platform"":""Win32"",""language"":""en-GB"",""locale"":""en-GB"",""timeZone"":""Europe/London"",""timezoneOffset"":-60,""screen_width"":1536,""screen_height"":864,""scroll_width"":1536,""scroll_height"":698,""window_innerWidth"":1536,""window_innerHeight"":746,""devicePixelRatio"":1.25}",,,,,,,,,,,,,,,5f8332b20ea88a489c36b41a,,,,,,,,,,,,,,,12378.34200000298,,form submission,,,,,,,,,,,,,,,,,,,,,20150.60000000894,20149.20000000298,7738.3,7742.79999999702,7770.858,20159.819,{},,
Introduction,html.Screen,1_0,2022-04-25T14:19:19.162Z,,,,,,,,,,,,,,,,,,,,,,,,,,,,,,,3092.4809999970203,,response,,,,,,,,,,,continue,click button,,,,,,,,,23253.60000000894,23252.29999999702,20142.654,20151,20159.819,23256.367,,,
Volume calibration,html.Screen,1_1,2022-04-25T14:19:34.259Z,,,,,,,,,,,,,,,,,,,,,,,,,,,,,,,15093.432999997021,,response,,,,,,,,,,,continue,click button,,,,,,,,,38351.10000000894,38349.79999999702,23240.082,23253.79999999702,23256.367,38358.823,,,
Task instructions,html.Screen,1_2,2022-04-25T14:19:45.353Z,,,,,,,,,,,,,,,,,,,,,,,,,,,,,,,11084.677000000003,,response,,,,,,,,,,,continue,click button,,,,,,,,,49444.60000000894,49443.5,38342.409,38351.29999999702,38358.823,49448.44,,,
Sounds,html.Screen,1_3_0_0,2022-04-25T14:19:49.588Z,,,,,,,,,,,,,,,,,,,,,,,,,,,,,,,4246.034999999996,,timeout,,,,,,,,,2,,,,,,,,I,S,O,,53679.60000000894,53677.923,49432.047,49444.90000000596,49448.44,53694.475,,,
Judgement,html.Screen,1_3_0_1,2022-04-25T14:19:50.313Z,,,,,,,,,,,,,,,,,,,,,,,,,,,,true,2,,709.2250000029817,,response,,,,,,,,,2,,2,click #choice-2,,,,,I,S,O,,54404.79999999702,54403.70000000298,53677.923,53679.79999999702,53694.475,54410.545,,,
Trial,flow.Sequence,1_3_0,2022-04-25T14:19:50.313Z,,,,,,,,,,,,,,,,,,,,,,,,,,,,,,,4955.260000002978,,completion,,,,,,,,,2,,,,,,,,I,S,O,,54405.10000000894,54403.70000000298,49432.047,49444.79999999702,49448.44,54410.545,,,
Sounds,html.Screen,1_3_1_0,2022-04-25T14:19:54.550Z,,,,,,,,,,,,,,,,,,,,,,,,,,,,,,,4246.178,,timeout,,,,,,,,,1,,,,,,,,S,O,I,,58641.70000000298,58639.934,54394.161,54405.5,54410.545,58656.723,,,
Judgement,html.Screen,1_3_1_1,2022-04-25T14:19:55.128Z,,,,,,,,,,,,,,,,,,,,,,,,,,,,true,1,,561.5769999970216,,response,,,,,,,,,1,,1,click #choice-1,,,,,S,O,I,,59219.5,59218.29999999702,58639.934,58642,58656.723,59222.604,,,
Trial,flow.Sequence,1_3_1,2022-04-25T14:19:55.128Z,,,,,,,,,,,,,,,,,,,,,,,,,,,,,,,4807.7549999970215,,completion,,,,,,,,,1,,,,,,,,S,O,I,,59219.79999999702,59218.29999999702,54394.161,54405.29999999702,54410.545,59222.604,,,
Sounds,html.Screen,1_3_2_0,2022-04-25T14:19:59.363Z,,,,,,,,,,,,,,,,,,,,,,,,,,,,,,,4246.298999999999,,timeout,,,,,,,,,3,,,,,,,,O,I,S,,63454.29999999702,63452.311,59206.972,59220,59222.604,63468.903,,,
Judgement,html.Screen,1_3_2_1,2022-04-25T14:20:00.067Z,,,,,,,,,,,,,,,,,,,,,,,,,,,,true,3,,688.1970000089423,,response,,,,,,,,,3,,3,click #choice-3,,,,,O,I,S,,64158.20000000298,64157.10000000894,63452.311,63455.10000000894,63468.903,64168.026,,,
Trial,flow.Sequence,1_3_2,2022-04-25T14:20:00.067Z,,,,,,,,,,,,,,,,,,,,,,,,,,,,,,,4934.496000008941,,completion,,,,,,,,,3,,,,,,,,O,I,S,,64158.40000000596,64157.10000000894,59206.972,59219.90000000596,59222.604,64168.026,,,
Sounds,html.Screen,1_3_3_0,2022-04-25T14:20:04.307Z,,,,,,,,,,,,,,,,,,,,,,,,,,,,,,,4246.1860000000015,,timeout,,,,,,,,,1,,,,,,,,S,I,O,,68398.20000000298,68397.627,64151.453,64158.60000000894,64168.026,68414.212,,,
Judgement,html.Screen,1_3_3_1,2022-04-25T14:20:04.781Z,,,,,,,,,,,,,,,,,,,,,,,,,,,,true,1,,457.08799999702023,,response,,,,,,,,,1,,1,click #choice-1,,,,,S,I,O,,68872.60000000894,68871.29999999702,68397.627,68398.29999999702,68414.212,68880.52,,,
Trial,flow.Sequence,1_3_3,2022-04-25T14:20:04.782Z,,,,,,,,,,,,,,,,,,,,,,,,,,,,,,,4703.273999997022,,completion,,,,,,,,,1,,,,,,,,S,I,O,,68872.79999999702,68871.29999999702,64151.453,64158.5,64168.026,68880.52,,,
Sounds,html.Screen,1_3_4_0,2022-04-25T14:20:09.020Z,,,,,,,,,,,,,,,,,,,,,,,,,,,,,,,4245.841,,timeout,,,,,,,,,3,,,,,,,,I,O,S,,73111.60000000894,73109.736,68863.968,68873,68880.52,73126.361,,,
Judgement,html.Screen,1_3_4_1,2022-04-25T14:20:09.494Z,,,,,,,,,,,,,,,,,,,,,,,,,,,,true,3,,458.3390000029758,,response,,,,,,,,,3,,3,click #choice-3,,,,,I,O,S,,73585.60000000894,73584.70000000298,73109.736,73111.79999999702,73126.361,73592.712,,,
Trial,flow.Sequence,1_3_4,2022-04-25T14:20:09.495Z,,,,,,,,,,,,,,,,,,,,,,,,,,,,,,,4704.180000002976,,completion,,,,,,,,,3,,,,,,,,I,O,S,,73585.79999999702,73584.70000000298,68863.968,68872.90000000596,68880.52,73592.712,,,
Sounds,html.Screen,1_3_5_0,2022-04-25T14:20:13.732Z,,,,,,,,,,,,,,,,,,,,,,,,,,,,,,,4246.0580000000045,,timeout,,,,,,,,,2,,,,,,,,O,S,I,,77822.90000000596,77822.097,73576.208,73586,73592.712,77838.77,,,
Judgement,html.Screen,1_3_5_1,2022-04-25T14:20:14.254Z,,,,,,,,,,,,,,,,,,,,,,,,,,,,true,2,,504.8300000089366,,response,,,,,,,,,2,,2,click #choice-2,,,,,O,S,I,,78344.70000000298,78343.60000000894,77822.097,77823.20000000298,77838.77,78354.699,,,
Trial,flow.Sequence,1_3_5,2022-04-25T14:20:14.254Z,,,,,,,,,,,,,,,,,,,,,,,,,,,,,,,4750.888000008941,,completion,,,,,,,,,2,,,,,,,,O,S,I,,78344.90000000596,78343.60000000894,73576.208,73585.90000000596,73592.712,78354.699,,,
Task,flow.Loop,1_3,2022-04-25T14:20:14.260Z,,,,,,,,,,,,,,,,,,,,,,,,,,,,,,,28895.16000000894,,completion,,,1,,,,,,,,,,,,,,,,,,78350.70000000298,78343.60000000894,49432.047,49444.79999999702,49448.44,78354.699,,,
Trap,html.Screen,1_4,2022-04-25T14:20:14.261Z,,,,,,,,,,,,,,,,,,,,,,,,,,,,,,,NaN,,skipped,,,,,,,,,,,,,,,,,,,,,78352.29999999702,78343.60000000894,,78352.20000000298,,78354.699,,,
Thanks,html.Screen,1_5,2022-04-25T14:20:17.201Z,,,,,,,,,,,,,,,,,,,,,,,,,,,,,,,2936.4010000089474,,response,,,,,,,,,,,continue,click button,,,,,,,,,81292.20000000298,81291.10000000894,78338.284,78352.40000000596,78354.699,83333.323,,,
Headphone screening,flow.Sequence,1,2022-04-25T14:20:17.201Z,,,,,,,,,,,,,,,,,,,,,,,,,,,,,,,61131.28100000894,,completion,,,,,,,,,,,,,,,,,,,,,81292.40000000596,81291.10000000894,20142.654,20150.90000000596,20159.819,83333.323,,,
Instructions,html.Page,2_0,2022-04-25T14:20:27.451Z,,,,,,,,,,,,,,,,,,,,,,,,,,,,,,,8208.476999997016,,form submission,,,,,,,,,,,,,,,,,,,,,91542.20000000298,91541.79999999702,83316.865,83336.10000000894,83333.323,91542.33,,,
Holding screen,html.Screen,2_1_0_0,2022-04-25T14:20:37.443Z,,,,,,,,,,,,,,,,,,,,,,,,,,,,,,,10023.938999999998,,timeout,,,,,,,,,,,,,,,,,,,,,101534.40000000596,101533.223,91526.014,91542.40000000596,91542.33,101566.269,,,
screen,html.Screen,2_1_0_1_0,2022-04-25T14:20:38.675Z,,,,,,,,,,,,,,,,,53,,,,,,,,,,,,,,1195.7309999999998,,response,,,,99,,,,,,,Space,keypress(Space),,,,,,,,When -- ----- -- ------ - ------- --- ----------<br>------------- ------ ------ ---- ---- ------- ----- -- ----<br>-------- ------- -- ---------- --- - --- ----- ----- ----<br>---- --- --- ----- --- ---- ---- ------- ----- ---- -------<br>--- --- -- ----- -- --- ---- -- --- ---- -- ------ ------<br>--- ----- -- ----,102765.90000000596,102762,101533.223,101534.90000000596,101566.269,102781.888,,0,When
screen,html.Screen,2_1_0_1_1,2022-04-25T14:20:40.098Z,,,,,,,,,,,,,,,,,53,,,,,,,,,,,,,,1406.6119999999937,,response,,,,99,,,,,,,Space,keypress(Space),,,,,,,,---- it ----- -- ------ - ------- --- ----------<br>------------- ------ ------ ---- ---- ------- ----- -- ----<br>-------- ------- -- ---------- --- - --- ----- ----- ----<br>---- --- --- ----- --- ---- ---- ------- ----- ---- -------<br>--- --- -- ----- -- --- ---- -- --- ---- -- ------ ------<br>--- ----- -- ----,104189.20000000298,104188.5,102764.759,102766.29999999702,102781.888,104197.205,,1,it
screen,html.Screen,2_1_0_1_2,2022-04-25T14:20:40.468Z,,,,,,,,,,,,,,,,,53,,,,,,,,,,,,,,360.9950000029785,,response,,,,99,,,,,,,Space,keypress(Space),,,,,,,,---- -- comes -- ------ - ------- --- ----------<br>------------- ------ ------ ---- ---- ------- ----- -- ----<br>-------- ------- -- ---------- --- - --- ----- ----- ----<br>---- --- --- ----- --- ---- ---- ------- ----- ---- -------<br>--- --- -- ----- -- --- ---- -- --- ---- -- ------ ------<br>--- ----- -- ----,104559.29999999702,104558.20000000298,104181.411,104189.5,104197.205,104563.509,,2,comes
screen,html.Screen,2_1_0_1_3,2022-04-25T14:20:40.824Z,,,,,,,,,,,,,,,,,53,,,,,,,,,,,,,,350.7909999970143,,response,,,,99,,,,,,,Space,keypress(Space),,,,,,,,---- -- ----- to ------ - ------- --- ----------<br>------------- ------ ------ ---- ---- ------- ----- -- ----<br>-------- ------- -- ---------- --- - --- ----- ----- ----<br>---- --- --- ----- --- ---- ---- ------- ----- ---- -------<br>--- --- -- ----- -- --- ---- -- --- ---- -- ------ ------<br>--- ----- -- ----,104915.60000000894,104914.29999999702,104546.867,104559.70000000298,104563.509,104929.823,,3,to
screen,html.Screen,2_1_0_1_4,2022-04-25T14:20:41.116Z,,,,,,,,,,,,,,,,,53,,,,,,,,,,,,,,276.27700000893674,,response,,,,99,,,,,,,Space,keypress(Space),,,,,,,,---- -- ----- -- having - ------- --- ----------<br>------------- ------ ------ ---- ---- ------- ----- -- ----<br>-------- ------- -- ---------- --- - --- ----- ----- ----<br>---- --- --- ----- --- ---- ---- ------- ----- ---- -------<br>--- --- -- ----- -- --- ---- -- --- ---- -- ------ ------<br>--- ----- -- ----,105206.79999999702,105206.10000000894,104913.316,104916,104929.823,105212.837,,4,having
screen,html.Screen,2_1_0_1_5,2022-04-25T14:20:41.456Z,,,,,,,,,,,,,,,,,53,,,,,,,,,,,,,,333.3630000029807,,response,,,,99,,,,,,,Space,keypress(Space),,,,,,,,---- -- ----- -- ------ a ------- --- ----------<br>------------- ------ ------ ---- ---- ------- ----- -- ----<br>-------- ------- -- ---------- --- - --- ----- ----- ----<br>---- --- --- ----- --- ---- ---- ------- ----- ---- -------<br>--- --- -- ----- -- --- ---- -- --- ---- -- ------ ------<br>--- ----- -- ----,105547.5,105546.20000000298,105196.467,105207,105212.837,105562.645,,5,a
screen,html.Screen,2_1_0_1_6,2022-04-25T14:20:41.816Z,,,,,,,,,,,,,,,,,53,,,,,,,,,,,,,,343.3549999999959,,response,,,,99,,,,,,,Space,keypress(Space),,,,,,,,---- -- ----- -- ------ - lasting --- ----------<br>------------- ------ ------ ---- ---- ------- ----- -- ----<br>-------- ------- -- ---------- --- - --- ----- ----- ----<br>---- --- --- ----- --- ---- ---- ------- ----- ---- -------<br>--- --- -- ----- -- --- ---- -- --- ---- -- ------ ------<br>--- ----- -- ----,105907.40000000596,105906,105545.918,105547.79999999702,105562.645,105912.288,,6,lasting
screen,html.Screen,2_1_0_1_7,2022-04-25T14:20:42.164Z,,,,,,,,,,,,,,,,,53,,,,,,,,,,,,,,340.91200000297977,,response,,,,99,,,,,,,Space,keypress(Space),,,,,,,,---- -- ----- -- ------ - ------- and ----------<br>------------- ------ ------ ---- ---- ------- ----- -- ----<br>-------- ------- -- ---------- --- - --- ----- ----- ----<br>---- --- --- ----- --- ---- ---- ------- ----- ---- -------<br>--- --- -- ----- -- --- ---- -- --- ---- -- ------ ------<br>--- ----- -- ----,106254.79999999702,106253.20000000298,105895.815,105907.79999999702,105912.288,106261.873,,7,and
screen,html.Screen,2_1_0_1_8,2022-04-25T14:20:42.483Z,,,,,,,,,,,,,,,,,53,,,,,,,,,,,,,,311.2270000089338,,response,,,,99,,,,,,,Space,keypress(Space),,,,,,,,---- -- ----- -- ------ - ------- --- fulfilling<br>------------- ------ ------ ---- ---- ------- ----- -- ----<br>-------- ------- -- ---------- --- - --- ----- ----- ----<br>---- --- --- ----- --- ---- ---- ------- ----- ---- -------<br>--- --- -- ----- -- --- ---- -- --- ---- -- ------ ------<br>--- ----- -- ----,106574.40000000596,106573.10000000894,106245.234,106255.10000000894,106261.873,106578.333,,8,fulfilling
screen,html.Screen,2_1_0_1_9,2022-04-25T14:20:42.858Z,,,,,,,,,,,,,,,,,53,,,,,,,,,,,,,,370.06700000596175,,response,,,,99,,,,,,,Space,keypress(Space),,,,,,,,"---- -- ----- -- ------ - ------- --- ----------<br>relationship, ------ ------ ---- ---- ------- ----- -- ----<br>-------- ------- -- ---------- --- - --- ----- ----- ----<br>---- --- --- ----- --- ---- ---- ------- ----- ---- -------<br>--- --- -- ----- -- --- ---- -- --- ---- -- ------ ------<br>--- ----- -- ----",106949.60000000894,106948.40000000596,106561.886,106574.70000000298,106578.333,106961.319,,9,"relationship,"
screen,html.Screen,2_1_0_1_10,2022-04-25T14:20:43.216Z,,,,,,,,,,,,,,,,,53,,,,,,,,,,,,,,344.4809999970166,,response,,,,99,,,,,,,Space,keypress(Space),,,,,,,,---- -- ----- -- ------ - ------- --- ----------<br>------------- common ------ ---- ---- ------- ----- -- ----<br>-------- ------- -- ---------- --- - --- ----- ----- ----<br>---- --- --- ----- --- ---- ---- ------- ----- ---- -------<br>--- --- -- ----- -- --- ---- -- --- ---- -- ------ ------<br>--- ----- -- ----,107307.5,107305.79999999702,106944.691,106949.79999999702,106961.319,107310.914,,10,common
screen,html.Screen,2_1_0_1_11,2022-04-25T14:20:43.603Z,,,,,,,,,,,,,,,,,53,,,,,,,,,,,,,,381.7860000029759,,response,,,,99,,,,,,,Space,keypress(Space),,,,,,,,---- -- ----- -- ------ - ------- --- ----------<br>------------- ------ wisdom ---- ---- ------- ----- -- ----<br>-------- ------- -- ---------- --- - --- ----- ----- ----<br>---- --- --- ----- --- ---- ---- ------- ----- ---- -------<br>--- --- -- ----- -- --- ---- -- --- ---- -- ------ ------<br>--- ----- -- ----,107694,107692.70000000298,107294.585,107307.79999999702,107310.914,107710.612,,11,wisdom
screen,html.Screen,2_1_0_1_12,2022-04-25T14:20:44.029Z,,,,,,,,,,,,,,,,,53,,,,,,,,,,,,,,408.988000008947,,response,,,,99,,,,,,,Space,keypress(Space),,,,,,,,---- -- ----- -- ------ - ------- --- ----------<br>------------- ------ ------ says ---- ------- ----- -- ----<br>-------- ------- -- ---------- --- - --- ----- ----- ----<br>---- --- --- ----- --- ---- ---- ------- ----- ---- -------<br>--- --- -- ----- -- --- ---- -- --- ---- -- ------ ------<br>--- ----- -- ----,108120.29999999702,108119.60000000894,107693.798,107694.40000000596,107710.612,108126.771,,12,says
screen,html.Screen,2_1_0_1_13,2022-04-25T14:20:44.354Z,,,,,,,,,,,,,,,,,53,,,,,,,,,,,,,,317.6290000059671,,response,,,,99,,,,,,,Space,keypress(Space),,,,,,,,---- -- ----- -- ------ - ------- --- ----------<br>------------- ------ ------ ---- that ------- ----- -- ----<br>-------- ------- -- ---------- --- - --- ----- ----- ----<br>---- --- --- ----- --- ---- ---- ------- ----- ---- -------<br>--- --- -- ----- -- --- ---- -- --- ---- -- ------ ------<br>--- ----- -- ----,108445.5,108444.40000000596,108110.567,108120.40000000596,108126.771,108459.896,,13,that
screen,html.Screen,2_1_0_1_14,2022-04-25T14:20:44.752Z,,,,,,,,,,,,,,,,,53,,,,,,,,,,,,,,381.80400000298687,,response,,,,99,,,,,,,Space,keypress(Space),,,,,,,,---- -- ----- -- ------ - ------- --- ----------<br>------------- ------ ------ ---- ---- feeling ----- -- ----<br>-------- ------- -- ---------- --- - --- ----- ----- ----<br>---- --- --- ----- --- ---- ---- ------- ----- ---- -------<br>--- --- -- ----- -- --- ---- -- --- ---- -- ------ ------<br>--- ----- -- ----,108842.90000000596,108841.70000000298,108443.191,108445.90000000596,108459.896,108859.578,,14,feeling
screen,html.Screen,2_1_0_1_15,2022-04-25T14:20:45.062Z,,,,,,,,,,,,,,,,,53,,,,,,,,,,,,,,292.8220000059664,,response,,,,99,,,,,,,Space,keypress(Space),,,,,,,,---- -- ----- -- ------ - ------- --- ----------<br>------------- ------ ------ ---- ---- ------- close -- ----<br>-------- ------- -- ---------- --- - --- ----- ----- ----<br>---- --- --- ----- --- ---- ---- ------- ----- ---- -------<br>--- --- -- ----- -- --- ---- -- --- ---- -- ------ ------<br>--- ----- -- ----,109153.29999999702,109152.40000000596,108842.671,108843.10000000894,108859.578,109159.233,,15,close
screen,html.Screen,2_1_0_1_16,2022-04-25T14:20:45.361Z,,,,,,,,,,,,,,,,,53,,,,,,,,,,,,,,291.3670000089478,,response,,,,99,,,,,,,Space,keypress(Space),,,,,,,,---- -- ----- -- ------ - ------- --- ----------<br>------------- ------ ------ ---- ---- ------- ----- to ----<br>-------- ------- -- ---------- --- - --- ----- ----- ----<br>---- --- --- ----- --- ---- ---- ------- ----- ---- -------<br>--- --- -- ----- -- --- ---- -- --- ---- -- ------ ------<br>--- ----- -- ----,109451.79999999702,109450.60000000894,109142.672,109153.5,109159.233,109458.961,,16,to
screen,html.Screen,2_1_0_1_17,2022-04-25T14:20:45.686Z,,,,,,,,,,,,,,,,,53,,,,,,,,,,,,,,316.4390000059648,,response,,,,99,,,,,,,Space,keypress(Space),,,,,,,,---- -- ----- -- ------ - ------- --- ----------<br>------------- ------ ------ ---- ---- ------- ----- -- your<br>-------- ------- -- ---------- --- - --- ----- ----- ----<br>---- --- --- ----- --- ---- ---- ------- ----- ---- -------<br>--- --- -- ----- -- --- ---- -- --- ---- -- ------ ------<br>--- ----- -- ----,109776.70000000298,109775.40000000596,109442.153,109452.10000000894,109458.961,109791.995,,17,your
screen,html.Screen,2_1_0_1_18,2022-04-25T14:20:46.142Z,,,,,,,,,,,,,,,,,53,,,,,,,,,,,,,,440.2050000029849,,response,,,,99,,,,,,,Space,keypress(Space),,,,,,,,---- -- ----- -- ------ - ------- --- ----------<br>------------- ------ ------ ---- ---- ------- ----- -- ----<br>romantic ------- -- ---------- --- - --- ----- ----- ----<br>---- --- --- ----- --- ---- ---- ------- ----- ---- -------<br>--- --- -- ----- -- --- ---- -- --- ---- -- ------ ------<br>--- ----- -- ----,110232.70000000298,110232.20000000298,109775.779,109777.10000000894,109791.995,110241.721,,18,romantic
screen,html.Screen,2_1_0_1_19,2022-04-25T14:20:46.936Z,,,,,,,,,,,,,,,,,53,,,,,,,,,,,,,,784.5789999970148,,response,,,,99,,,,,,,Space,keypress(Space),,,,,,,,---- -- ----- -- ------ - ------- --- ----------<br>------------- ------ ------ ---- ---- ------- ----- -- ----<br>-------- partner -- ---------- --- - --- ----- ----- ----<br>---- --- --- ----- --- ---- ---- ------- ----- ---- -------<br>--- --- -- ----- -- --- ---- -- --- ---- -- ------ ------<br>--- ----- -- ----,111027.5,111026.29999999702,110224.909,110232.79999999702,110241.721,111040.798,,19,partner
screen,html.Screen,2_1_0_1_20,2022-04-25T14:20:47.224Z,,,,,,,,,,,,,,,,,53,,,,,,,,,,,,,,273.00199999702454,,response,,,,99,,,,,,,Space,keypress(Space),,,,,,,,---- -- ----- -- ------ - ------- --- ----------<br>------------- ------ ------ ---- ---- ------- ----- -- ----<br>-------- ------- is ---------- --- - --- ----- ----- ----<br>---- --- --- ----- --- ---- ---- ------- ----- ---- -------<br>--- --- -- ----- -- --- ---- -- --- ---- -- ------ ------<br>--- ----- -- ----,111315.40000000596,111313.79999999702,111024.132,111027.90000000596,111040.798,111323.802,,20,is
screen,html.Screen,2_1_0_1_21,2022-04-25T14:20:47.626Z,,,,,,,,,,,,,,,,,53,,,,,,,,,,,,,,391.8980000029842,,response,,,,99,,,,,,,Space,keypress(Space),,,,,,,,---- -- ----- -- ------ - ------- --- ----------<br>------------- ------ ------ ---- ---- ------- ----- -- ----<br>-------- ------- -- paramount. --- - --- ----- ----- ----<br>---- --- --- ----- --- ---- ---- ------- ----- ---- -------<br>--- --- -- ----- -- --- ---- -- --- ---- -- ------ ------<br>--- ----- -- ----,111717.29999999702,111715.70000000298,111307.479,111316.10000000894,111323.802,111723.518,,21,paramount.
screen,html.Screen,2_1_0_1_22,2022-04-25T14:20:49.231Z,,,,,,,,,,,,,,,,,53,,,,,,,,,,,,,,1597.6820000029838,,response,,,,99,,,,,,,Space,keypress(Space),,,,,,,,---- -- ----- -- ------ - ------- --- ----------<br>------------- ------ ------ ---- ---- ------- ----- -- ----<br>-------- ------- -- ---------- But - --- ----- ----- ----<br>---- --- --- ----- --- ---- ---- ------- ----- ---- -------<br>--- --- -- ----- -- --- ---- -- --- ---- -- ------ ------<br>--- ----- -- ----,113322.60000000894,113321.20000000298,111706.892,111717.60000000894,111723.518,113338.702,,22,But
screen,html.Screen,2_1_0_1_23,2022-04-25T14:20:49.576Z,,,,,,,,,,,,,,,,,53,,,,,,,,,,,,,,327.3980000089359,,response,,,,99,,,,,,,Space,keypress(Space),,,,,,,,---- -- ----- -- ------ - ------- --- ----------<br>------------- ------ ------ ---- ---- ------- ----- -- ----<br>-------- ------- -- ---------- --- a --- ----- ----- ----<br>---- --- --- ----- --- ---- ---- ------- ----- ---- -------<br>--- --- -- ----- -- --- ---- -- --- ---- -- ------ ------<br>--- ----- -- ----,113667.5,113666.10000000894,113321.656,113322.90000000596,113338.702,113671.681,,23,a
screen,html.Screen,2_1_0_1_24,2022-04-25T14:20:49.929Z,,,,,,,,,,,,,,,,,53,,,,,,,,,,,,,,347.0190000029834,,response,,,,99,,,,,,,Space,keypress(Space),,,,,,,,---- -- ----- -- ------ - ------- --- ----------<br>------------- ------ ------ ---- ---- ------- ----- -- ----<br>-------- ------- -- ---------- --- - new ----- ----- ----<br>---- --- --- ----- --- ---- ---- ------- ----- ---- -------<br>--- --- -- ----- -- --- ---- -- --- ---- -- ------ ------<br>--- ----- -- ----,114020.10000000894,114018.70000000298,113655.091,113667.70000000298,113671.681,114038.07,,24,new
screen,html.Screen,2_1_0_1_25,2022-04-25T14:20:50.225Z,,,,,,,,,,,,,,,,,53,,,,,,,,,,,,,,277.13000000297325,,response,,,,99,,,,,,,Space,keypress(Space),,,,,,,,---- -- ----- -- ------ - ------- --- ----------<br>------------- ------ ------ ---- ---- ------- ----- -- ----<br>-------- ------- -- ---------- --- - --- study ----- ----<br>---- --- --- ----- --- ---- ---- ------- ----- ---- -------<br>--- --- -- ----- -- --- ---- -- --- ---- -- ------ ------<br>--- ----- -- ----,114316,114315.20000000298,114021.295,114020.40000000596,114038.07,114320.982,,25,study
screen,html.Screen,2_1_0_1_26,2022-04-25T14:20:50.556Z,,,,,,,,,,,,,,,,,53,,,,,,,,,,,,,,324.81799999701616,,response,,,,99,,,,,,,Space,keypress(Space),,,,,,,,---- -- ----- -- ------ - ------- --- ----------<br>------------- ------ ------ ---- ---- ------- ----- -- ----<br>-------- ------- -- ---------- --- - --- ----- finds ----<br>---- --- --- ----- --- ---- ---- ------- ----- ---- -------<br>--- --- -- ----- -- --- ---- -- --- ---- -- ------ ------<br>--- ----- -- ----,114646.90000000596,114645.79999999702,114304.611,114316.29999999702,114320.982,114654.011,,26,finds
screen,html.Screen,2_1_0_1_27,2022-04-25T14:20:50.928Z,,,,,,,,,,,,,,,,,53,,,,,,,,,,,,,,364.38900000596186,,response,,,,99,,,,,,,Space,keypress(Space),,,,,,,,---- -- ----- -- ------ - ------- --- ----------<br>------------- ------ ------ ---- ---- ------- ----- -- ----<br>-------- ------- -- ---------- --- - --- ----- ----- that<br>---- --- --- ----- --- ---- ---- ------- ----- ---- -------<br>--- --- -- ----- -- --- ---- -- --- ---- -- ------ ------<br>--- ----- -- ----,115019,115018.40000000596,114637.863,114647.29999999702,114654.011,115042.772,,27,that
screen,html.Screen,2_1_0_1_28,2022-04-25T14:20:51.268Z,,,,,,,,,,,,,,,,,53,,,,,,,,,,,,,,315.62800000596326,,response,,,,99,,,,,,,Space,keypress(Space),,,,,,,,---- -- ----- -- ------ - ------- --- ----------<br>------------- ------ ------ ---- ---- ------- ----- -- ----<br>-------- ------- -- ---------- --- - --- ----- ----- ----<br>it's --- --- ----- --- ---- ---- ------- ----- ---- -------<br>--- --- -- ----- -- --- ---- -- --- ---- -- ------ ------<br>--- ----- -- ----,115359.20000000298,115358.40000000596,115003.7,115019.20000000298,115042.772,115370.015,,28,it's
screen,html.Screen,2_1_0_1_29,2022-04-25T14:20:51.597Z,,,,,,,,,,,,,,,,,53,,,,,,,,,,,,,,316.9850000000006,,response,,,,99,,,,,,,Space,keypress(Space),,,,,,,,---- -- ----- -- ------ - ------- --- ----------<br>------------- ------ ------ ---- ---- ------- ----- -- ----<br>-------- ------- -- ---------- --- - --- ----- ----- ----<br>---- not --- ----- --- ---- ---- ------- ----- ---- -------<br>--- --- -- ----- -- --- ---- -- --- ---- -- ------ ------<br>--- ----- -- ----,115688.20000000298,115687,115353.889,115359.5,115370.015,115703.289,,29,not
screen,html.Screen,2_1_0_1_30,2022-04-25T14:20:51.926Z,,,,,,,,,,,,,,,,,53,,,,,,,,,,,,,,312.01099999701546,,response,,,,99,,,,,,,Space,keypress(Space),,,,,,,,---- -- ----- -- ------ - ------- --- ----------<br>------------- ------ ------ ---- ---- ------- ----- -- ----<br>-------- ------- -- ---------- --- - --- ----- ----- ----<br>---- --- how ----- --- ---- ---- ------- ----- ---- -------<br>--- --- -- ----- -- --- ---- -- --- ---- -- ------ ------<br>--- ----- -- ----,116016.70000000298,116015.29999999702,115686.625,115688.60000000894,115703.289,116019.369,,30,how
screen,html.Screen,2_1_0_1_31,2022-04-25T14:20:52.259Z,,,,,,,,,,,,,,,,,53,,,,,,,,,,,,,,329.23100000893464,,response,,,,99,,,,,,,Space,keypress(Space),,,,,,,,---- -- ----- -- ------ - ------- --- ----------<br>------------- ------ ------ ---- ---- ------- ----- -- ----<br>-------- ------- -- ---------- --- - --- ----- ----- ----<br>---- --- --- close --- ---- ---- ------- ----- ---- -------<br>--- --- -- ----- -- --- ---- -- --- ---- -- ------ ------<br>--- ----- -- ----,116349.70000000298,116348.60000000894,116002.807,116017,116019.369,116383.865,,31,close
screen,html.Screen,2_1_0_1_32,2022-04-25T14:20:52.561Z,,,,,,,,,,,,,,,,,53,,,,,,,,,,,,,,267.13499999999476,,response,,,,99,,,,,,,Space,keypress(Space),,,,,,,,---- -- ----- -- ------ - ------- --- ----------<br>------------- ------ ------ ---- ---- ------- ----- -- ----<br>-------- ------- -- ---------- --- - --- ----- ----- ----<br>---- --- --- ----- you ---- ---- ------- ----- ---- -------<br>--- --- -- ----- -- --- ---- -- --- ---- -- ------ ------<br>--- ----- -- ----,116652.40000000596,116651,116335.977,116350.10000000894,116383.865,116668.788,,32,you
screen,html.Screen,2_1_0_1_33,2022-04-25T14:20:53.003Z,,,,,,,,,,,,,,,,,53,,,,,,,,,,,,,,424.11200000596,,response,,,,99,,,,,,,Space,keypress(Space),,,,,,,,---- -- ----- -- ------ - ------- --- ----------<br>------------- ------ ------ ---- ---- ------- ----- -- ----<br>-------- ------- -- ---------- --- - --- ----- ----- ----<br>---- --- --- ----- --- feel ---- ------- ----- ---- -------<br>--- --- -- ----- -- --- ---- -- --- ---- -- ------ ------<br>--- ----- -- ----,117093.90000000596,117092.90000000596,116652.107,116652.90000000596,116668.788,117101.73,,33,feel
screen,html.Screen,2_1_0_1_34,2022-04-25T14:20:53.339Z,,,,,,,,,,,,,,,,,53,,,,,,,,,,,,,,327.87000000894477,,response,,,,99,,,,,,,Space,keypress(Space),,,,,,,,---- -- ----- -- ------ - ------- --- ----------<br>------------- ------ ------ ---- ---- ------- ----- -- ----<br>-------- ------- -- ---------- --- - --- ----- ----- ----<br>---- --- --- ----- --- ---- that ------- ----- ---- -------<br>--- --- -- ----- -- --- ---- -- --- ---- -- ------ ------<br>--- ----- -- ----,117430.40000000596,117429.60000000894,117085.463,117094,117101.73,117434.747,,34,that
screen,html.Screen,2_1_0_1_35,2022-04-25T14:20:53.660Z,,,,,,,,,,,,,,,,,53,,,,,,,,,,,,,,315.15300000595744,,response,,,,99,,,,,,,Space,keypress(Space),,,,,,,,---- -- ----- -- ------ - ------- --- ----------<br>------------- ------ ------ ---- ---- ------- ----- -- ----<br>-------- ------- -- ---------- --- - --- ----- ----- ----<br>---- --- --- ----- --- ---- ---- matters ----- ---- -------<br>--- --- -- ----- -- --- ---- -- --- ---- -- ------ ------<br>--- ----- -- ----,117751.10000000894,117749.90000000596,117418.317,117430.60000000894,117434.747,117767.809,,35,matters
screen,html.Screen,2_1_0_1_36,2022-04-25T14:20:54.040Z,,,,,,,,,,,,,,,,,53,,,,,,,,,,,,,,362.3910000029864,,response,,,,99,,,,,,,Space,keypress(Space),,,,,,,,"---- -- ----- -- ------ - ------- --- ----------<br>------------- ------ ------ ---- ---- ------- ----- -- ----<br>-------- ------- -- ---------- --- - --- ----- ----- ----<br>---- --- --- ----- --- ---- ---- ------- most, ---- -------<br>--- --- -- ----- -- --- ---- -- --- ---- -- ------ ------<br>--- ----- -- ----",118130.70000000298,118130.20000000298,117751.374,117751.5,117767.809,118134.036,,36,"most,"
screen,html.Screen,2_1_0_1_37,2022-04-25T14:20:54.309Z,,,,,,,,,,,,,,,,,53,,,,,,,,,,,,,,265.263999997027,,response,,,,99,,,,,,,Space,keypress(Space),,,,,,,,---- -- ----- -- ------ - ------- --- ----------<br>------------- ------ ------ ---- ---- ------- ----- -- ----<br>-------- ------- -- ---------- --- - --- ----- ----- ----<br>---- --- --- ----- --- ---- ---- ------- ----- it's -------<br>--- --- -- ----- -- --- ---- -- --- ---- -- ------ ------<br>--- ----- -- ----,118400.60000000894,118399.29999999702,118117.714,118130.90000000596,118134.036,118417.306,,37,it's
screen,html.Screen,2_1_0_1_38,2022-04-25T14:20:54.520Z,,,,,,,,,,,,,,,,,53,,,,,,,,,,,,,,192.69400000000314,,response,,,,99,,,,,,,Space,keypress(Space),,,,,,,,---- -- ----- -- ------ - ------- --- ----------<br>------------- ------ ------ ---- ---- ------- ----- -- ----<br>-------- ------- -- ---------- --- - --- ----- ----- ----<br>---- --- --- ----- --- ---- ---- ------- ----- ---- whether<br>--- --- -- ----- -- --- ---- -- --- ---- -- ------ ------<br>--- ----- -- ----,118611.10000000894,118610,118400.495,118400.90000000596,118417.306,118617.052,,38,whether
screen,html.Screen,2_1_0_1_39,2022-04-25T14:20:54.897Z,,,,,,,,,,,,,,,,,53,,,,,,,,,,,,,,369.3480000059644,,response,,,,99,,,,,,,Space,keypress(Space),,,,,,,,---- -- ----- -- ------ - ------- --- ----------<br>------------- ------ ------ ---- ---- ------- ----- -- ----<br>-------- ------- -- ---------- --- - --- ----- ----- ----<br>---- --- --- ----- --- ---- ---- ------- ----- ---- -------<br>you --- -- ----- -- --- ---- -- --- ---- -- ------ ------<br>--- ----- -- ----,118987.70000000298,118986.40000000596,118600.456,118611.5,118617.052,118999.992,,39,you
screen,html.Screen,2_1_0_1_40,2022-04-25T14:20:55.209Z,,,,,,,,,,,,,,,,,53,,,,,,,,,,,,,,299.8079999970214,,response,,,,99,,,,,,,Space,keypress(Space),,,,,,,,---- -- ----- -- ------ - ------- --- ----------<br>------------- ------ ------ ---- ---- ------- ----- -- ----<br>-------- ------- -- ---------- --- - --- ----- ----- ----<br>---- --- --- ----- --- ---- ---- ------- ----- ---- -------<br>--- are -- ----- -- --- ---- -- --- ---- -- ------ ------<br>--- ----- -- ----,119300.29999999702,119299.79999999702,118983.42,118988,118999.992,119316.319,,40,are
screen,html.Screen,2_1_0_1_41,2022-04-25T14:20:55.428Z,,,,,,,,,,,,,,,,,53,,,,,,,,,,,,,,201.68099999999686,,response,,,,99,,,,,,,Space,keypress(Space),,,,,,,,---- -- ----- -- ------ - ------- --- ----------<br>------------- ------ ------ ---- ---- ------- ----- -- ----<br>-------- ------- -- ---------- --- - --- ----- ----- ----<br>---- --- --- ----- --- ---- ---- ------- ----- ---- -------<br>--- --- as ----- -- --- ---- -- --- ---- -- ------ ------<br>--- ----- -- ----,119519,119518,119299.754,119300.40000000596,119316.319,119532.795,,41,as
screen,html.Screen,2_1_0_1_42,2022-04-25T14:20:55.684Z,,,,,,,,,,,,,,,,,53,,,,,,,,,,,,,,240.6050000059622,,response,,,,99,,,,,,,Space,keypress(Space),,,,,,,,---- -- ----- -- ------ - ------- --- ----------<br>------------- ------ ------ ---- ---- ------- ----- -- ----<br>-------- ------- -- ---------- --- - --- ----- ----- ----<br>---- --- --- ----- --- ---- ---- ------- ----- ---- -------<br>--- --- -- close -- --- ---- -- --- ---- -- ------ ------<br>--- ----- -- ----,119774.70000000298,119773.40000000596,119516.358,119519.20000000298,119532.795,119782.631,,42,close
screen,html.Screen,2_1_0_1_43,2022-04-25T14:20:55.905Z,,,,,,,,,,,,,,,,,53,,,,,,,,,,,,,,212.26900000596652,,response,,,,99,,,,,,,Space,keypress(Space),,,,,,,,---- -- ----- -- ------ - ------- --- ----------<br>------------- ------ ------ ---- ---- ------- ----- -- ----<br>-------- ------- -- ---------- --- - --- ----- ----- ----<br>---- --- --- ----- --- ---- ---- ------- ----- ---- -------<br>--- --- -- ----- as --- ---- -- --- ---- -- ------ ------<br>--- ----- -- ----,119995.90000000596,119994.90000000596,119766.388,119775,119782.631,119999.14,,43,as
screen,html.Screen,2_1_0_1_44,2022-04-25T14:20:56.311Z,,,,,,,,,,,,,,,,,53,,,,,,,,,,,,,,402.4600000089413,,response,,,,99,,,,,,,Space,keypress(Space),,,,,,,,---- -- ----- -- ------ - ------- --- ----------<br>------------- ------ ------ ---- ---- ------- ----- -- ----<br>-------- ------- -- ---------- --- - --- ----- ----- ----<br>---- --- --- ----- --- ---- ---- ------- ----- ---- -------<br>--- --- -- ----- -- you ---- -- --- ---- -- ------ ------<br>--- ----- -- ----,120402.79999999702,120401.60000000894,119982.633,119996.20000000298,119999.14,120415.335,,44,you
screen,html.Screen,2_1_0_1_45,2022-04-25T14:20:56.566Z,,,,,,,,,,,,,,,,,53,,,,,,,,,,,,,,240.96499999701336,,response,,,,99,,,,,,,Space,keypress(Space),,,,,,,,---- -- ----- -- ------ - ------- --- ----------<br>------------- ------ ------ ---- ---- ------- ----- -- ----<br>-------- ------- -- ---------- --- - --- ----- ----- ----<br>---- --- --- ----- --- ---- ---- ------- ----- ---- -------<br>--- --- -- ----- -- --- want -- --- ---- -- ------ ------<br>--- ----- -- ----,120657.5,120656.29999999702,120399.218,120403.10000000894,120415.335,120665.144,,45,want
screen,html.Screen,2_1_0_1_46,2022-04-25T14:20:56.786Z,,,,,,,,,,,,,,,,,53,,,,,,,,,,,,,,210.95600000894046,,response,,,,99,,,,,,,Space,keypress(Space),,,,,,,,---- -- ----- -- ------ - ------- --- ----------<br>------------- ------ ------ ---- ---- ------- ----- -- ----<br>-------- ------- -- ---------- --- - --- ----- ----- ----<br>---- --- --- ----- --- ---- ---- ------- ----- ---- -------<br>--- --- -- ----- -- --- ---- to --- ---- -- ------ ------<br>--- ----- -- ----,120877.40000000596,120876.10000000894,120648.49,120657.90000000596,120665.144,120881.54,,46,to
screen,html.Screen,2_1_0_1_47,2022-04-25T14:20:57.020Z,,,,,,,,,,,,,,,,,53,,,,,,,,,,,,,,228.4600000000064,,response,,,,99,,,,,,,Space,keypress(Space),,,,,,,,"---- -- ----- -- ------ - ------- --- ----------<br>------------- ------ ------ ---- ---- ------- ----- -- ----<br>-------- ------- -- ---------- --- - --- ----- ----- ----<br>---- --- --- ----- --- ---- ---- ------- ----- ---- -------<br>--- --- -- ----- -- --- ---- -- be, ---- -- ------ ------<br>--- ----- -- ----",121111.29999999702,121110,120865.04,120877.70000000298,120881.54,121114.721,,47,"be,"
screen,html.Screen,2_1_0_1_48,2022-04-25T14:20:57.285Z,,,,,,,,,,,,,,,,,53,,,,,,,,,,,,,,260.278999999995,,response,,,,99,,,,,,,Space,keypress(Space),,,,,,,,---- -- ----- -- ------ - ------- --- ----------<br>------------- ------ ------ ---- ---- ------- ----- -- ----<br>-------- ------- -- ---------- --- - --- ----- ----- ----<br>---- --- --- ----- --- ---- ---- ------- ----- ---- -------<br>--- --- -- ----- -- --- ---- -- --- even -- ------ ------<br>--- ----- -- ----,121376.20000000298,121375,121098.231,121111.5,121114.721,121381.062,,48,even
screen,html.Screen,2_1_0_1_49,2022-04-25T14:20:57.516Z,,,,,,,,,,,,,,,,,53,,,,,,,,,,,,,,225.2379999970144,,response,,,,99,,,,,,,Space,keypress(Space),,,,,,,,---- -- ----- -- ------ - ------- --- ----------<br>------------- ------ ------ ---- ---- ------- ----- -- ----<br>-------- ------- -- ---------- --- - --- ----- ----- ----<br>---- --- --- ----- --- ---- ---- ------- ----- ---- -------<br>--- --- -- ----- -- --- ---- -- --- ---- if ------ ------<br>--- ----- -- ----,121608.10000000894,121606.29999999702,121364.506,121376.70000000298,121381.062,121614.243,,49,if
screen,html.Screen,2_1_0_1_50,2022-04-25T14:20:57.720Z,,,,,,,,,,,,,,,,,53,,,,,,,,,,,,,,195.85700000893848,,response,,,,99,,,,,,,Space,keypress(Space),,,,,,,,---- -- ----- -- ------ - ------- --- ----------<br>------------- ------ ------ ---- ---- ------- ----- -- ----<br>-------- ------- -- ---------- --- - --- ----- ----- ----<br>---- --- --- ----- --- ---- ---- ------- ----- ---- -------<br>--- --- -- ----- -- --- ---- -- --- ---- -- that's ------<br>--- ----- -- ----,121811.40000000596,121810.10000000894,121597.91,121608.5,121614.243,121814.009,,50,that's
screen,html.Screen,2_1_0_1_51,2022-04-25T14:20:57.944Z,,,,,,,,,,,,,,,,,53,,,,,,,,,,,,,,219.99099999999453,,response,,,,99,,,,,,,Space,keypress(Space),,,,,,,,---- -- ----- -- ------ - ------- --- ----------<br>------------- ------ ------ ---- ---- ------- ----- -- ----<br>-------- ------- -- ---------- --- - --- ----- ----- ----<br>---- --- --- ----- --- ---- ---- ------- ----- ---- -------<br>--- --- -- ----- -- --- ---- -- --- ---- -- ------ really<br>--- ----- -- ----,122035.29999999702,122034,121797.457,121811.60000000894,121814.009,122047.06,,51,really
screen,html.Screen,2_1_0_1_52,2022-04-25T14:20:58.195Z,,,,,,,,,,,,,,,,,53,,,,,,,,,,,,,,238.64000000298256,,response,,,,99,,,,,,,Space,keypress(Space),,,,,,,,---- -- ----- -- ------ - ------- --- ----------<br>------------- ------ ------ ---- ---- ------- ----- -- ----<br>-------- ------- -- ---------- --- - --- ----- ----- ----<br>---- --- --- ----- --- ---- ---- ------- ----- ---- -------<br>--- --- -- ----- -- --- ---- -- --- ---- -- ------ ------<br>not ----- -- ----,122286.60000000894,122285.70000000298,122030.403,122035.60000000894,122047.06,122296.805,,52,not
screen,html.Screen,2_1_0_1_53,2022-04-25T14:20:58.463Z,,,,,,,,,,,,,,,,,53,,,,,,,,,,,,,,256.695000000007,,response,,,,99,,,,,,,Space,keypress(Space),,,,,,,,---- -- ----- -- ------ - ------- --- ----------<br>------------- ------ ------ ---- ---- ------- ----- -- ----<br>-------- ------- -- ---------- --- - --- ----- ----- ----<br>---- --- --- ----- --- ---- ---- ------- ----- ---- -------<br>--- --- -- ----- -- --- ---- -- --- ---- -- ------ ------<br>--- close -- ----,122554.29999999702,122553.5,122280.402,122286.90000000596,122296.805,122563.353,,53,close
screen,html.Screen,2_1_0_1_54,2022-04-25T14:20:58.692Z,,,,,,,,,,,,,,,,,53,,,,,,,,,,,,,,219.34700000297744,,response,,,,99,,,,,,,Space,keypress(Space),,,,,,,,---- -- ----- -- ------ - ------- --- ----------<br>------------- ------ ------ ---- ---- ------- ----- -- ----<br>-------- ------- -- ---------- --- - --- ----- ----- ----<br>---- --- --- ----- --- ---- ---- ------- ----- ---- -------<br>--- --- -- ----- -- --- ---- -- --- ---- -- ------ ------<br>--- ----- at ----,122783.79999999702,122782.70000000298,122546.602,122554.40000000596,122563.353,122796.402,,54,at
screen,html.Screen,2_1_0_1_55,2022-04-25T14:20:58.927Z,,,,,,,,,,,,,,,,,53,,,,,,,,,,,,,,220.79800000297837,,response,,,,99,,,,,,,Space,keypress(Space),,,,,,,,---- -- ----- -- ------ - ------- --- ----------<br>------------- ------ ------ ---- ---- ------- ----- -- ----<br>-------- ------- -- ---------- --- - --- ----- ----- ----<br>---- --- --- ----- --- ---- ---- ------- ----- ---- -------<br>--- --- -- ----- -- --- ---- -- --- ---- -- ------ ------<br>--- ----- -- all.,123018.40000000596,123017.20000000298,122779.708,122784.10000000894,122796.402,123029.566,,55,all.
Item 99,flow.Loop,2_1_0_1,2022-04-25T14:20:58.927Z,,,,,,,,,,,,,,,,,,,,,,,,,,,,,,,21450.93100000298,,completion,,,,,A,,,,,,,,,,,silence,,,,,123019,123017.20000000298,101533.223,101534.70000000298,101566.269,123029.566,,,
Question 1,html.Screen,2_1_0_2,2022-04-25T14:21:03.202Z,,,,,,,,,,,,,,,,,,,,,,,,,,,,false,FALSE,,4262.634000002974,,response,,,,99,A,,,,,,TRUE,click #choice-1,,,,silence,,,,,127293.20000000298,127292.20000000298,123013.238,123019.29999999702,123029.566,127309.041,,,
Question 2,html.Screen,2_1_0_3,2022-04-25T14:21:06.813Z,,,,,,,,,,,,,,,,,,,,,,,,,,,,true,TRUE,,3594.859000005963,,response,,,,99,A,,,,,,TRUE,click #choice-1,,,,silence,,,,,130905,130903.90000000596,127292.498,127293.20000000298,127309.041,130922.816,,,
Item 99,flow.Sequence,2_1_0,2022-04-25T14:21:06.814Z,,,,,,,,,,,,,,,,,,,,,,,,,,,,,,,39361.57000000596,,completion,,,,,,,,,,,,,,,,,,,,,130905.20000000298,130903.90000000596,91526.014,91542.29999999702,91542.33,130922.816,,,
Holding screen,html.Screen,2_1_1_0,2022-04-25T14:21:16.826Z,,,,,,,,,,,,,,,,,,,,,,,,,,,,,,,10006.553,,timeout,,,,,,,,,,,,,,,,,,,,,140917.79999999702,140912.796,130888.776,130905.29999999702,130922.816,140929.369,,,
screen,html.Screen,2_1_1_1_0,2022-04-25T14:21:18.170Z,,,,,,,,,,,,,,,,,54,,,,,,,,,,,,,,1330.7310000089346,,response,,,,100,,,,,,,Space,keypress(Space),,,,,,,,At --- ---- --- ------ ----- ------- ---- -- --- ------- --<br>------- ---------- ------ -- ----- -- ----- -- ---- ------<br>--- ----- --- --- ------ -------- ----- --- ------ ----- --<br>----- ----- ---------- --- --- ------ ------ ---- -- ------<br>------- --- ------ ----- --- ---- ------- -- ---- --- --<br>------- ------,142261.60000000894,142260.10000000894,140912.796,140918.20000000298,140929.369,142278.445,,0,At
screen,html.Screen,2_1_1_1_1,2022-04-25T14:21:18.545Z,,,,,,,,,,,,,,,,,54,,,,,,,,,,,,,,357.054999999993,,response,,,,100,,,,,,,Space,keypress(Space),,,,,,,,-- the ---- --- ------ ----- ------- ---- -- --- ------- --<br>------- ---------- ------ -- ----- -- ----- -- ---- ------<br>--- ----- --- --- ------ -------- ----- --- ------ ----- --<br>----- ----- ---------- --- --- ------ ------ ---- -- ------<br>------- --- ------ ----- --- ---- ------- -- ---- --- --<br>------- ------,142636.79999999702,142635.5,142245.412,142261.79999999702,142278.445,142644.505,,1,the
screen,html.Screen,2_1_1_1_2,2022-04-25T14:21:18.943Z,,,,,,,,,,,,,,,,,54,,,,,,,,,,,,,,388.8950000059558,,response,,,,100,,,,,,,Space,keypress(Space),,,,,,,,-- --- time --- ------ ----- ------- ---- -- --- ------- --<br>------- ---------- ------ -- ----- -- ----- -- ---- ------<br>--- ----- --- --- ------ -------- ----- --- ------ ----- --<br>----- ----- ---------- --- --- ------ ------ ---- -- ------<br>------- --- ------ ----- --- ---- ------- -- ---- --- --<br>------- ------,143034.70000000298,143033.40000000596,142628.099,142637.10000000894,142644.505,143044.104,,2,time
screen,html.Screen,2_1_1_1_3,2022-04-25T14:21:19.214Z,,,,,,,,,,,,,,,,,54,,,,,,,,,,,,,,260.4960000089486,,response,,,,100,,,,,,,Space,keypress(Space),,,,,,,,-- --- ---- the ------ ----- ------- ---- -- --- ------- --<br>------- ---------- ------ -- ----- -- ----- -- ---- ------<br>--- ----- --- --- ------ -------- ----- --- ------ ----- --<br>----- ----- ---------- --- --- ------ ------ ---- -- ------<br>------- --- ------ ----- --- ---- ------- -- ---- --- --<br>------- ------,143305.79999999702,143304.60000000894,143027.403,143035,143044.104,143310.482,,3,the
screen,html.Screen,2_1_1_1_4,2022-04-25T14:21:19.501Z,,,,,,,,,,,,,,,,,54,,,,,,,,,,,,,,281.3179999970307,,response,,,,100,,,,,,,Space,keypress(Space),,,,,,,,-- --- ---- --- French ----- ------- ---- -- --- ------- --<br>------- ---------- ------ -- ----- -- ----- -- ---- ------<br>--- ----- --- --- ------ -------- ----- --- ------ ----- --<br>----- ----- ---------- --- --- ------ ------ ---- -- ------<br>------- --- ------ ----- --- ---- ------- -- ---- --- --<br>------- ------,143593,143591.79999999702,143293.801,143306.10000000894,143310.482,143610.335,,4,French
screen,html.Screen,2_1_1_1_5,2022-04-25T14:21:19.850Z,,,,,,,,,,,,,,,,,54,,,,,,,,,,,,,,330.26500000894885,,response,,,,100,,,,,,,Space,keypress(Space),,,,,,,,-- --- ---- --- ------ crown ------- ---- -- --- ------- --<br>------- ---------- ------ -- ----- -- ----- -- ---- ------<br>--- ----- --- --- ------ -------- ----- --- ------ ----- --<br>----- ----- ---------- --- --- ------ ------ ---- -- ------<br>------- --- ------ ----- --- ---- ------- -- ---- --- --<br>------- ------,143941.79999999702,143940.60000000894,143593.864,143593.29999999702,143610.335,143976.841,,5,crown
screen,html.Screen,2_1_1_1_6,2022-04-25T14:21:20.191Z,,,,,,,,,,,,,,,,,54,,,,,,,,,,,,,,304.2590000089549,,response,,,,100,,,,,,,Space,keypress(Space),,,,,,,,-- --- ---- --- ------ ----- secured ---- -- --- ------- --<br>------- ---------- ------ -- ----- -- ----- -- ---- ------<br>--- ----- --- --- ------ -------- ----- --- ------ ----- --<br>----- ----- ---------- --- --- ------ ------ ---- -- ------<br>------- --- ------ ----- --- ---- ------- -- ---- --- --<br>------- ------,144282.40000000596,144281.10000000894,143960.223,143942.10000000894,143976.841,144292.965,,6,secured
screen,html.Screen,2_1_1_1_7,2022-04-25T14:21:20.521Z,,,,,,,,,,,,,,,,,54,,,,,,,,,,,,,,318.83499999702326,,response,,,,100,,,,,,,Space,keypress(Space),,,,,,,,-- --- ---- --- ------ ----- ------- much -- --- ------- --<br>------- ---------- ------ -- ----- -- ----- -- ---- ------<br>--- ----- --- --- ------ -------- ----- --- ------ ----- --<br>----- ----- ---------- --- --- ------ ------ ---- -- ------<br>------- --- ------ ----- --- ---- ------- -- ---- --- --<br>------- ------,144613,144611.79999999702,144276.36,144282.79999999702,144292.965,144625.949,,7,much
screen,html.Screen,2_1_1_1_8,2022-04-25T14:21:20.799Z,,,,,,,,,,,,,,,,,54,,,,,,,,,,,,,,264.251000002987,,response,,,,100,,,,,,,Space,keypress(Space),,,,,,,,-- --- ---- --- ------ ----- ------- ---- of --- ------- --<br>------- ---------- ------ -- ----- -- ----- -- ---- ------<br>--- ----- --- --- ------ -------- ----- --- ------ ----- --<br>----- ----- ---------- --- --- ------ ------ ---- -- ------<br>------- --- ------ ----- --- ---- ------- -- ---- --- --<br>------- ------,144890.60000000894,144890.20000000298,144609.387,144613.29999999702,144625.949,144916.067,,8,of
screen,html.Screen,2_1_1_1_9,2022-04-25T14:21:21.072Z,,,,,,,,,,,,,,,,,54,,,,,,,,,,,,,,246.53300000893068,,response,,,,100,,,,,,,Space,keypress(Space),,,,,,,,-- --- ---- --- ------ ----- ------- ---- -- its ------- --<br>------- ---------- ------ -- ----- -- ----- -- ---- ------<br>--- ----- --- --- ------ -------- ----- --- ------ ----- --<br>----- ----- ---------- --- --- ------ ------ ---- -- ------<br>------- --- ------ ----- --- ---- ------- -- ---- --- --<br>------- ------,145163.70000000298,145162.60000000894,144875.963,144891.20000000298,144916.067,145175.397,,9,its
screen,html.Screen,2_1_1_1_10,2022-04-25T14:21:21.426Z,,,,,,,,,,,,,,,,,54,,,,,,,,,,,,,,341.00300000596326,,response,,,,100,,,,,,,Space,keypress(Space),,,,,,,,-- --- ---- --- ------ ----- ------- ---- -- --- revenue --<br>------- ---------- ------ -- ----- -- ----- -- ---- ------<br>--- ----- --- --- ------ -------- ----- --- ------ ----- --<br>----- ----- ---------- --- --- ------ ------ ---- -- ------<br>------- --- ------ ----- --- ---- ------- -- ---- --- --<br>------- ------,145517.60000000894,145516.40000000596,145159.005,145164,145175.397,145525.053,,10,revenue
screen,html.Screen,2_1_1_1_11,2022-04-25T14:21:21.755Z,,,,,,,,,,,,,,,,,54,,,,,,,,,,,,,,320.54700000892626,,response,,,,100,,,,,,,Space,keypress(Space),,,,,,,,-- --- ---- --- ------ ----- ------- ---- -- --- ------- by<br>------- ---------- ------ -- ----- -- ----- -- ---- ------<br>--- ----- --- --- ------ -------- ----- --- ------ ----- --<br>----- ----- ---------- --- --- ------ ------ ---- -- ------<br>------- --- ------ ----- --- ---- ------- -- ---- --- --<br>------- ------,145846.70000000298,145845.60000000894,145508.473,145518,145525.053,145858.055,,11,by
screen,html.Screen,2_1_1_1_12,2022-04-25T14:21:22.095Z,,,,,,,,,,,,,,,,,54,,,,,,,,,,,,,,327.1450000029872,,response,,,,100,,,,,,,Space,keypress(Space),,,,,,,,-- --- ---- --- ------ ----- ------- ---- -- --- ------- --<br>issuing ---------- ------ -- ----- -- ----- -- ---- ------<br>--- ----- --- --- ------ -------- ----- --- ------ ----- --<br>----- ----- ---------- --- --- ------ ------ ---- -- ------<br>------- --- ------ ----- --- ---- ------- -- ---- --- --<br>------- ------,146186.5,146185.20000000298,145841.616,145847.20000000298,145858.055,146191.147,,12,issuing
screen,html.Screen,2_1_1_1_13,2022-04-25T14:21:22.310Z,,,,,,,,,,,,,,,,,54,,,,,,,,,,,,,,209.25300000596326,,response,,,,100,,,,,,,Space,keypress(Space),,,,,,,,-- --- ---- --- ------ ----- ------- ---- -- --- ------- --<br>------- government ------ -- ----- -- ----- -- ---- ------<br>--- ----- --- --- ------ -------- ----- --- ------ ----- --<br>----- ----- ---------- --- --- ------ ------ ---- -- ------<br>------- --- ------ ----- --- ---- ------- -- ---- --- --<br>------- ------,146401.90000000596,146400.40000000596,146183.012,146187.10000000894,146191.147,146407.635,,13,government
screen,html.Screen,2_1_1_1_14,2022-04-25T14:21:24.988Z,,,,,,,,,,,,,,,,,54,,,,,,,,,,,,,,2670.4650000089314,,response,,,,100,,,,,,,Space,keypress(Space),,,,,,,,-- --- ---- --- ------ ----- ------- ---- -- --- ------- --<br>------- ---------- bonds. -- ----- -- ----- -- ---- ------<br>--- ----- --- --- ------ -------- ----- --- ------ ----- --<br>----- ----- ---------- --- --- ------ ------ ---- -- ------<br>------- --- ------ ----- --- ---- ------- -- ---- --- --<br>------- ------,149079.5,149078.10000000894,146391.091,146402.29999999702,146407.635,149088.379,,14,bonds.
screen,html.Screen,2_1_1_1_15,2022-04-25T14:21:25.410Z,,,,,,,,,,,,,,,,,54,,,,,,,,,,,,,,412.12100000001374,,response,,,,100,,,,,,,Space,keypress(Space),,,,,,,,-- --- ---- --- ------ ----- ------- ---- -- --- ------- --<br>------- ---------- ------ In ----- -- ----- -- ---- ------<br>--- ----- --- --- ------ -------- ----- --- ------ ----- --<br>----- ----- ---------- --- --- ------ ------ ---- -- ------<br>------- --- ------ ----- --- ---- ------- -- ---- --- --<br>------- ------,149501.79999999702,149500.5,149072.628,149079.79999999702,149088.379,149504.64,,15,In
screen,html.Screen,2_1_1_1_16,2022-04-25T14:21:25.978Z,,,,,,,,,,,,,,,,,54,,,,,,,,,,,,,,563.2600000059465,,response,,,,100,,,,,,,Space,keypress(Space),,,,,,,,"-- --- ---- --- ------ ----- ------- ---- -- --- ------- --<br>------- ---------- ------ -- 1727, -- ----- -- ---- ------<br>--- ----- --- --- ------ -------- ----- --- ------ ----- --<br>----- ----- ---------- --- --- ------ ------ ---- -- ------<br>------- --- ------ ----- --- ---- ------- -- ---- --- --<br>------- ------",150069.20000000298,150067.90000000596,149488.098,149502.10000000894,149504.64,150099.093,,16,"1727,"
screen,html.Screen,2_1_1_1_17,2022-04-25T14:21:26.453Z,,,,,,,,,,,,,,,,,54,,,,,,,,,,,,,,444.807000005967,,response,,,,100,,,,,,,Space,keypress(Space),,,,,,,,-- --- ---- --- ------ ----- ------- ---- -- --- ------- --<br>------- ---------- ------ -- ----- in ----- -- ---- ------<br>--- ----- --- --- ------ -------- ----- --- ------ ----- --<br>----- ----- ---------- --- --- ------ ------ ---- -- ------<br>------- --- ------ ----- --- ---- ------- -- ---- --- --<br>------- ------,150545,150543.90000000596,150054.45,150069.5,150099.093,150553.703,,17,in
screen,html.Screen,2_1_1_1_18,2022-04-25T14:21:26.847Z,,,,,,,,,,,,,,,,,54,,,,,,,,,,,,,,384.2969999999914,,response,,,,100,,,,,,,Space,keypress(Space),,,,,,,,-- --- ---- --- ------ ----- ------- ---- -- --- ------- --<br>------- ---------- ------ -- ----- -- order -- ---- ------<br>--- ----- --- --- ------ -------- ----- --- ------ ----- --<br>----- ----- ---------- --- --- ------ ------ ---- -- ------<br>------- --- ------ ----- --- ---- ------- -- ---- --- --<br>------- ------,150938.40000000596,150938,150537.063,150545.40000000596,150553.703,150953.262,,18,order
screen,html.Screen,2_1_1_1_19,2022-04-25T14:21:27.154Z,,,,,,,,,,,,,,,,,54,,,,,,,,,,,,,,291.3380000089528,,response,,,,100,,,,,,,Space,keypress(Space),,,,,,,,-- --- ---- --- ------ ----- ------- ---- -- --- ------- --<br>------- ---------- ------ -- ----- -- ----- to ---- ------<br>--- ----- --- --- ------ -------- ----- --- ------ ----- --<br>----- ----- ---------- --- --- ------ ------ ---- -- ------<br>------- --- ------ ----- --- ---- ------- -- ---- --- --<br>------- ------,151245.90000000596,151244.60000000894,150936.934,150938.5,150953.262,151253.085,,19,to
screen,html.Screen,2_1_1_1_20,2022-04-25T14:21:27.413Z,,,,,,,,,,,,,,,,,54,,,,,,,,,,,,,,250.21499999702792,,response,,,,100,,,,,,,Space,keypress(Space),,,,,,,,-- --- ---- --- ------ ----- ------- ---- -- --- ------- --<br>------- ---------- ------ -- ----- -- ----- -- save ------<br>--- ----- --- --- ------ -------- ----- --- ------ ----- --<br>----- ----- ---------- --- --- ------ ------ ---- -- ------<br>------- --- ------ ----- --- ---- ------- -- ---- --- --<br>------- ------,151504.5,151503.29999999702,151236.366,151246.20000000298,151253.085,151519.518,,20,save
screen,html.Screen,2_1_1_1_21,2022-04-25T14:21:27.694Z,,,,,,,,,,,,,,,,,54,,,,,,,,,,,,,,264.58200000892975,,response,,,,100,,,,,,,Space,keypress(Space),,,,,,,,"-- --- ---- --- ------ ----- ------- ---- -- --- ------- --<br>------- ---------- ------ -- ----- -- ----- -- ---- money,<br>--- ----- --- --- ------ -------- ----- --- ------ ----- --<br>----- ----- ---------- --- --- ------ ------ ---- -- ------<br>------- --- ------ ----- --- ---- ------- -- ---- --- --<br>------- ------",151785.20000000298,151784.10000000894,151502.811,151504.79999999702,151519.518,151802.673,,21,"money,"
screen,html.Screen,2_1_1_1_22,2022-04-25T14:21:28.003Z,,,,,,,,,,,,,,,,,54,,,,,,,,,,,,,,291.2270000059507,,response,,,,100,,,,,,,Space,keypress(Space),,,,,,,,-- --- ---- --- ------ ----- ------- ---- -- --- ------- --<br>------- ---------- ------ -- ----- -- ----- -- ---- ------<br>the ----- --- --- ------ -------- ----- --- ------ ----- --<br>----- ----- ---------- --- --- ------ ------ ---- -- ------<br>------- --- ------ ----- --- ---- ------- -- ---- --- --<br>------- ------,152095,152093.90000000596,151786.105,151785.5,151802.673,152102.314,,22,the
screen,html.Screen,2_1_1_1_23,2022-04-25T14:21:28.241Z,,,,,,,,,,,,,,,,,54,,,,,,,,,,,,,,228.78600000892766,,response,,,,100,,,,,,,Space,keypress(Space),,,,,,,,-- --- ---- --- ------ ----- ------- ---- -- --- ------- --<br>------- ---------- ------ -- ----- -- ----- -- ---- ------<br>--- state --- --- ------ -------- ----- --- ------ ----- --<br>----- ----- ---------- --- --- ------ ------ ---- -- ------<br>------- --- ------ ----- --- ---- ------- -- ---- --- --<br>------- ------,152332.40000000596,152331.10000000894,152085.611,152095.29999999702,152102.314,152335.388,,23,state
screen,html.Screen,2_1_1_1_24,2022-04-25T14:21:28.464Z,,,,,,,,,,,,,,,,,54,,,,,,,,,,,,,,218.81200000297395,,response,,,,100,,,,,,,Space,keypress(Space),,,,,,,,-- --- ---- --- ------ ----- ------- ---- -- --- ------- --<br>------- ---------- ------ -- ----- -- ----- -- ---- ------<br>--- ----- cut --- ------ -------- ----- --- ------ ----- --<br>----- ----- ---------- --- --- ------ ------ ---- -- ------<br>------- --- ------ ----- --- ---- ------- -- ---- --- --<br>------- ------,152555.40000000596,152554.20000000298,152318.696,152332.70000000298,152335.388,152568.541,,24,cut
screen,html.Screen,2_1_1_1_25,2022-04-25T14:21:28.786Z,,,,,,,,,,,,,,,,,54,,,,,,,,,,,,,,308.25899999702233,,response,,,,100,,,,,,,Space,keypress(Space),,,,,,,,-- --- ---- --- ------ ----- ------- ---- -- --- ------- --<br>------- ---------- ------ -- ----- -- ----- -- ---- ------<br>--- ----- --- the ------ -------- ----- --- ------ ----- --<br>----- ----- ---------- --- --- ------ ------ ---- -- ------<br>------- --- ------ ----- --- ---- ------- -- ---- --- --<br>------- ------,152878,152876.79999999702,152551.983,152555.60000000894,152568.541,152884.84,,25,the
screen,html.Screen,2_1_1_1_26,2022-04-25T14:21:29.085Z,,,,,,,,,,,,,,,,,54,,,,,,,,,,,,,,290.6600000000035,,response,,,,100,,,,,,,Space,keypress(Space),,,,,,,,-- --- ---- --- ------ ----- ------- ---- -- --- ------- --<br>------- ---------- ------ -- ----- -- ----- -- ---- ------<br>--- ----- --- --- bonds' -------- ----- --- ------ ----- --<br>----- ----- ---------- --- --- ------ ------ ---- -- ------<br>------- --- ------ ----- --- ---- ------- -- ---- --- --<br>------- ------,153176.79999999702,153175.5,152868.568,152878.29999999702,152884.84,153184.476,,26,bonds'
screen,html.Screen,2_1_1_1_27,2022-04-25T14:21:29.476Z,,,,,,,,,,,,,,,,,54,,,,,,,,,,,,,,382.2240000029851,,response,,,,100,,,,,,,Space,keypress(Space),,,,,,,,-- --- ---- --- ------ ----- ------- ---- -- --- ------- --<br>------- ---------- ------ -- ----- -- ----- -- ---- ------<br>--- ----- --- --- ------ interest ----- --- ------ ----- --<br>----- ----- ---------- --- --- ------ ------ ---- -- ------<br>------- --- ------ ----- --- ---- ------- -- ---- --- --<br>------- ------,153568,153566.70000000298,153168.323,153177.10000000894,153184.476,153584.257,,27,interest
screen,html.Screen,2_1_1_1_28,2022-04-25T14:21:29.868Z,,,,,,,,,,,,,,,,,54,,,,,,,,,,,,,,374.5429999970074,,response,,,,100,,,,,,,Space,keypress(Space),,,,,,,,-- --- ---- --- ------ ----- ------- ---- -- --- ------- --<br>------- ---------- ------ -- ----- -- ----- -- ---- ------<br>--- ----- --- --- ------ -------- rate. --- ------ ----- --<br>----- ----- ---------- --- --- ------ ------ ---- -- ------<br>------- --- ------ ----- --- ---- ------- -- ---- --- --<br>------- ------,153960,153958.79999999702,153567.822,153568.40000000596,153584.257,153967.237,,28,rate.
screen,html.Screen,2_1_1_1_29,2022-04-25T14:21:30.188Z,,,,,,,,,,,,,,,,,54,,,,,,,,,,,,,,311.56299999702605,,response,,,,100,,,,,,,Space,keypress(Space),,,,,,,,-- --- ---- --- ------ ----- ------- ---- -- --- ------- --<br>------- ---------- ------ -- ----- -- ----- -- ---- ------<br>--- ----- --- --- ------ -------- ----- The ------ ----- --<br>----- ----- ---------- --- --- ------ ------ ---- -- ------<br>------- --- ------ ----- --- ---- ------- -- ---- --- --<br>------- ------,154280,154278.79999999702,153959.784,153960.29999999702,153967.237,154283.534,,29,The
screen,html.Screen,2_1_1_1_30,2022-04-25T14:21:30.474Z,,,,,,,,,,,,,,,,,54,,,,,,,,,,,,,,281.0660000089265,,response,,,,100,,,,,,,Space,keypress(Space),,,,,,,,-- --- ---- --- ------ ----- ------- ---- -- --- ------- --<br>------- ---------- ------ -- ----- -- ----- -- ---- ------<br>--- ----- --- --- ------ -------- ----- --- market ----- --<br>----- ----- ---------- --- --- ------ ------ ---- -- ------<br>------- --- ------ ----- --- ---- ------- -- ---- --- --<br>------- ------,154565.90000000596,154564.60000000894,154266.788,154280.40000000596,154283.534,154583.279,,30,market
screen,html.Screen,2_1_1_1_31,2022-04-25T14:21:30.766Z,,,,,,,,,,,,,,,,,54,,,,,,,,,,,,,,273.5209999970102,,response,,,,100,,,,,,,Space,keypress(Space),,,,,,,,-- --- ---- --- ------ ----- ------- ---- -- --- ------- --<br>------- ---------- ------ -- ----- -- ----- -- ---- ------<br>--- ----- --- --- ------ -------- ----- --- ------ value --<br>----- ----- ---------- --- --- ------ ------ ---- -- ------<br>------- --- ------ ----- --- ---- ------- -- ---- --- --<br>------- ------,154858.10000000894,154856.79999999702,154566.74,154566.20000000298,154583.279,154866.431,,31,value
screen,html.Screen,2_1_1_1_32,2022-04-25T14:21:31.150Z,,,,,,,,,,,,,,,,,54,,,,,,,,,,,,,,373.5689999999886,,response,,,,100,,,,,,,Space,keypress(Space),,,,,,,,-- --- ---- --- ------ ----- ------- ---- -- --- ------- --<br>------- ---------- ------ -- ----- -- ----- -- ---- ------<br>--- ----- --- --- ------ -------- ----- --- ------ ----- of<br>----- ----- ---------- --- --- ------ ------ ---- -- ------<br>------- --- ------ ----- --- ---- ------- -- ---- --- --<br>------- ------,155241.10000000894,155240,154849.751,154858.5,154866.431,155249.222,,32,of
screen,html.Screen,2_1_1_1_33,2022-04-25T14:21:31.474Z,,,,,,,,,,,,,,,,,54,,,,,,,,,,,,,,315.6780000059516,,response,,,,100,,,,,,,Space,keypress(Space),,,,,,,,-- --- ---- --- ------ ----- ------- ---- -- --- ------- --<br>------- ---------- ------ -- ----- -- ----- -- ---- ------<br>--- ----- --- --- ------ -------- ----- --- ------ ----- --<br>these ----- ---------- --- --- ------ ------ ---- -- ------<br>------- --- ------ ----- --- ---- ------- -- ---- --- --<br>------- ------,155566.10000000894,155564.90000000596,155232.855,155241.40000000596,155249.222,155582.405,,33,these
screen,html.Screen,2_1_1_1_34,2022-04-25T14:21:31.824Z,,,,,,,,,,,,,,,,,54,,,,,,,,,,,,,,331.69500000894186,,response,,,,100,,,,,,,Space,keypress(Space),,,,,,,,-- --- ---- --- ------ ----- ------- ---- -- --- ------- --<br>------- ---------- ------ -- ----- -- ----- -- ---- ------<br>--- ----- --- --- ------ -------- ----- --- ------ ----- --<br>----- bonds ---------- --- --- ------ ------ ---- -- ------<br>------- --- ------ ----- --- ---- ------- -- ---- --- --<br>------- ------,155915.29999999702,155914.10000000894,155565.721,155566.29999999702,155582.405,155932.134,,34,bonds
screen,html.Screen,2_1_1_1_35,2022-04-25T14:21:32.157Z,,,,,,,,,,,,,,,,,54,,,,,,,,,,,,,,314.8660000000091,,response,,,,100,,,,,,,Space,keypress(Space),,,,,,,,"-- --- ---- --- ------ ----- ------- ---- -- --- ------- --<br>------- ---------- ------ -- ----- -- ----- -- ---- ------<br>--- ----- --- --- ------ -------- ----- --- ------ ----- --<br>----- ----- plummeted, --- --- ------ ------ ---- -- ------<br>------- --- ------ ----- --- ---- ------- -- ---- --- --<br>------- ------",156248.20000000298,156247,155915.4,155915.5,155932.134,156265.185,,35,"plummeted,"
screen,html.Screen,2_1_1_1_36,2022-04-25T14:21:32.496Z,,,,,,,,,,,,,,,,,54,,,,,,,,,,,,,,321.6149999970221,,response,,,,100,,,,,,,Space,keypress(Space),,,,,,,,-- --- ---- --- ------ ----- ------- ---- -- --- ------- --<br>------- ---------- ------ -- ----- -- ----- -- ---- ------<br>--- ----- --- --- ------ -------- ----- --- ------ ----- --<br>----- ----- ---------- and --- ------ ------ ---- -- ------<br>------- --- ------ ----- --- ---- ------- -- ---- --- --<br>------- ------,156587.90000000596,156586.79999999702,156248.5,156248.60000000894,156265.185,156598.077,,36,and
screen,html.Screen,2_1_1_1_37,2022-04-25T14:21:32.793Z,,,,,,,,,,,,,,,,,54,,,,,,,,,,,,,,285.12300000299,,response,,,,100,,,,,,,Space,keypress(Space),,,,,,,,-- --- ---- --- ------ ----- ------- ---- -- --- ------- --<br>------- ---------- ------ -- ----- -- ----- -- ---- ------<br>--- ----- --- --- ------ -------- ----- --- ------ ----- --<br>----- ----- ---------- --- the ------ ------ ---- -- ------<br>------- --- ------ ----- --- ---- ------- -- ---- --- --<br>------- ------,156884.40000000596,156883.20000000298,156581.309,156588.20000000298,156598.077,156897.772,,37,the
screen,html.Screen,2_1_1_1_38,2022-04-25T14:21:33.202Z,,,,,,,,,,,,,,,,,54,,,,,,,,,,,,,,394.8280000089435,,response,,,,100,,,,,,,Space,keypress(Space),,,,,,,,-- --- ---- --- ------ ----- ------- ---- -- --- ------- --<br>------- ---------- ------ -- ----- -- ----- -- ---- ------<br>--- ----- --- --- ------ -------- ----- --- ------ ----- --<br>----- ----- ---------- --- --- market ------ ---- -- ------<br>------- --- ------ ----- --- ---- ------- -- ---- --- --<br>------- ------,157293.70000000298,157292.60000000894,156881.115,156884.70000000298,156897.772,157297.377,,38,market
screen,html.Screen,2_1_1_1_39,2022-04-25T14:21:33.478Z,,,,,,,,,,,,,,,,,54,,,,,,,,,,,,,,271.4229999970121,,response,,,,100,,,,,,,Space,keypress(Space),,,,,,,,-- --- ---- --- ------ ----- ------- ---- -- --- ------- --<br>------- ---------- ------ -- ----- -- ----- -- ---- ------<br>--- ----- --- --- ------ -------- ----- --- ------ ----- --<br>----- ----- ---------- --- --- ------ became ---- -- ------<br>------- --- ------ ----- --- ---- ------- -- ---- --- --<br>------- ------,157570.10000000894,157568.79999999702,157280.792,157294.10000000894,157297.377,157580.549,,39,became
screen,html.Screen,2_1_1_1_40,2022-04-25T14:21:33.831Z,,,,,,,,,,,,,,,,,54,,,,,,,,,,,,,,340.7509999970207,,response,,,,100,,,,,,,Space,keypress(Space),,,,,,,,-- --- ---- --- ------ ----- ------- ---- -- --- ------- --<br>------- ---------- ------ -- ----- -- ----- -- ---- ------<br>--- ----- --- --- ------ -------- ----- --- ------ ----- --<br>----- ----- ---------- --- --- ------ ------ wary -- ------<br>------- --- ------ ----- --- ---- ------- -- ---- --- --<br>------- ------,157922.5,157921.29999999702,157563.739,157570.40000000596,157580.549,157930.066,,40,wary
screen,html.Screen,2_1_1_1_41,2022-04-25T14:21:34.193Z,,,,,,,,,,,,,,,,,54,,,,,,,,,,,,,,353.23399999702815,,response,,,,100,,,,,,,Space,keypress(Space),,,,,,,,-- --- ---- --- ------ ----- ------- ---- -- --- ------- --<br>------- ---------- ------ -- ----- -- ----- -- ---- ------<br>--- ----- --- --- ------ -------- ----- --- ------ ----- --<br>----- ----- ---------- --- --- ------ ------ ---- of ------<br>------- --- ------ ----- --- ---- ------- -- ---- --- --<br>------- ------,158284.70000000298,158283.29999999702,157913.639,157922.79999999702,157930.066,158296.45,,41,of
screen,html.Screen,2_1_1_1_42,2022-04-25T14:21:34.550Z,,,,,,,,,,,,,,,,,54,,,,,,,,,,,,,,344.2500000029686,,response,,,,100,,,,,,,Space,keypress(Space),,,,,,,,-- --- ---- --- ------ ----- ------- ---- -- --- ------- --<br>------- ---------- ------ -- ----- -- ----- -- ---- ------<br>--- ----- --- --- ------ -------- ----- --- ------ ----- --<br>----- ----- ---------- --- --- ------ ------ ---- -- French<br>------- --- ------ ----- --- ---- ------- -- ---- --- --<br>------- ------,158642,158640.70000000298,158280.458,158285,158296.45,158646.095,,42,French
screen,html.Screen,2_1_1_1_43,2022-04-25T14:21:34.857Z,,,,,,,,,,,,,,,,,54,,,,,,,,,,,,,,301.2049999970186,,response,,,,100,,,,,,,Space,keypress(Space),,,,,,,,-- --- ---- --- ------ ----- ------- ---- -- --- ------- --<br>------- ---------- ------ -- ----- -- ----- -- ---- ------<br>--- ----- --- --- ------ -------- ----- --- ------ ----- --<br>----- ----- ---------- --- --- ------ ------ ---- -- ------<br>credit. --- ------ ----- --- ---- ------- -- ---- --- --<br>------- ------,158948.5,158947.29999999702,158629.449,158642.29999999702,158646.095,158962.546,,43,credit.
screen,html.Screen,2_1_1_1_44,2022-04-25T14:21:35.236Z,,,,,,,,,,,,,,,,,54,,,,,,,,,,,,,,363.85400000595837,,response,,,,100,,,,,,,Space,keypress(Space),,,,,,,,-- --- ---- --- ------ ----- ------- ---- -- --- ------- --<br>------- ---------- ------ -- ----- -- ----- -- ---- ------<br>--- ----- --- --- ------ -------- ----- --- ------ ----- --<br>----- ----- ---------- --- --- ------ ------ ---- -- ------<br>------- The ------ ----- --- ---- ------- -- ---- --- --<br>------- ------,159327.70000000298,159326.40000000596,158946.374,158948.90000000596,158962.546,159345.582,,44,The
screen,html.Screen,2_1_1_1_45,2022-04-25T14:21:35.603Z,,,,,,,,,,,,,,,,,54,,,,,,,,,,,,,,347.7179999970249,,response,,,,100,,,,,,,Space,keypress(Space),,,,,,,,-- --- ---- --- ------ ----- ------- ---- -- --- ------- --<br>------- ---------- ------ -- ----- -- ----- -- ---- ------<br>--- ----- --- --- ------ -------- ----- --- ------ ----- --<br>----- ----- ---------- --- --- ------ ------ ---- -- ------<br>------- --- French ----- --- ---- ------- -- ---- --- --<br>------- ------,159694.60000000894,159693.29999999702,159320.641,159328,159345.582,159711.823,,45,French
screen,html.Screen,2_1_1_1_46,2022-04-25T14:21:35.949Z,,,,,,,,,,,,,,,,,54,,,,,,,,,,,,,,327.9769999970158,,response,,,,100,,,,,,,Space,keypress(Space),,,,,,,,-- --- ---- --- ------ ----- ------- ---- -- --- ------- --<br>------- ---------- ------ -- ----- -- ----- -- ---- ------<br>--- ----- --- --- ------ -------- ----- --- ------ ----- --<br>----- ----- ---------- --- --- ------ ------ ---- -- ------<br>------- --- ------ state --- ---- ------- -- ---- --- --<br>------- ------,160040.90000000596,160039.79999999702,159695.031,159694.79999999702,159711.823,160044.837,,46,state
screen,html.Screen,2_1_1_1_47,2022-04-25T14:21:36.269Z,,,,,,,,,,,,,,,,,54,,,,,,,,,,,,,,314.26300000894116,,response,,,,100,,,,,,,Space,keypress(Space),,,,,,,,-- --- ---- --- ------ ----- ------- ---- -- --- ------- --<br>------- ---------- ------ -- ----- -- ----- -- ---- ------<br>--- ----- --- --- ------ -------- ----- --- ------ ----- --<br>----- ----- ---------- --- --- ------ ------ ---- -- ------<br>------- --- ------ ----- was ---- ------- -- ---- --- --<br>------- ------,160360.29999999702,160359.10000000894,160028.296,160041.20000000298,160044.837,160394.452,,47,was
screen,html.Screen,2_1_1_1_48,2022-04-25T14:21:36.598Z,,,,,,,,,,,,,,,,,54,,,,,,,,,,,,,,293.5480000000098,,response,,,,100,,,,,,,Space,keypress(Space),,,,,,,,-- --- ---- --- ------ ----- ------- ---- -- --- ------- --<br>------- ---------- ------ -- ----- -- ----- -- ---- ------<br>--- ----- --- --- ------ -------- ----- --- ------ ----- --<br>----- ----- ---------- --- --- ------ ------ ---- -- ------<br>------- --- ------ ----- --- left ------- -- ---- --- --<br>------- ------,160689,160688,160377.795,160360.5,160394.452,160694.236,,48,left
screen,html.Screen,2_1_1_1_49,2022-04-25T14:21:36.916Z,,,,,,,,,,,,,,,,,54,,,,,,,,,,,,,,311.56399999701534,,response,,,,100,,,,,,,Space,keypress(Space),,,,,,,,-- --- ---- --- ------ ----- ------- ---- -- --- ------- --<br>------- ---------- ------ -- ----- -- ----- -- ---- ------<br>--- ----- --- --- ------ -------- ----- --- ------ ----- --<br>----- ----- ---------- --- --- ------ ------ ---- -- ------<br>------- --- ------ ----- --- ---- without -- ---- --- --<br>------- ------,161007.40000000596,161005.79999999702,160677.564,160689.40000000596,160694.236,161010.632,,49,without
screen,html.Screen,2_1_1_1_50,2022-04-25T14:21:37.254Z,,,,,,,,,,,,,,,,,54,,,,,,,,,,,,,,333.96800000892836,,response,,,,100,,,,,,,Space,keypress(Space),,,,,,,,-- --- ---- --- ------ ----- ------- ---- -- --- ------- --<br>------- ---------- ------ -- ----- -- ----- -- ---- ------<br>--- ----- --- --- ------ -------- ----- --- ------ ----- --<br>----- ----- ---------- --- --- ------ ------ ---- -- ------<br>------- --- ------ ----- --- ---- ------- an ---- --- --<br>------- ------,161346,161344.60000000894,160993.995,161007.79999999702,161010.632,161360.299,,50,an
screen,html.Screen,2_1_1_1_51,2022-04-25T14:21:37.621Z,,,,,,,,,,,,,,,,,54,,,,,,,,,,,,,,350.6010000059614,,response,,,,100,,,,,,,Space,keypress(Space),,,,,,,,-- --- ---- --- ------ ----- ------- ---- -- --- ------- --<br>------- ---------- ------ -- ----- -- ----- -- ---- ------<br>--- ----- --- --- ------ -------- ----- --- ------ ----- --<br>----- ----- ---------- --- --- ------ ------ ---- -- ------<br>------- --- ------ ----- --- ---- ------- -- easy --- --<br>------- ------,161712.10000000894,161710.90000000596,161343.584,161346.5,161360.299,161726.658,,51,easy
screen,html.Screen,2_1_1_1_52,2022-04-25T14:21:37.945Z,,,,,,,,,,,,,,,,,54,,,,,,,,,,,,,,308.8420000000042,,response,,,,100,,,,,,,Space,keypress(Space),,,,,,,,-- --- ---- --- ------ ----- ------- ---- -- --- ------- --<br>------- ---------- ------ -- ----- -- ----- -- ---- ------<br>--- ----- --- --- ------ -------- ----- --- ------ ----- --<br>----- ----- ---------- --- --- ------ ------ ---- -- ------<br>------- --- ------ ----- --- ---- ------- -- ---- way --<br>------- ------,162036.90000000596,162035.5,161709.965,161712.40000000596,161726.658,162042.921,,52,way
screen,html.Screen,2_1_1_1_53,2022-04-25T14:21:38.229Z,,,,,,,,,,,,,,,,,54,,,,,,,,,,,,,,277.6790000089386,,response,,,,100,,,,,,,Space,keypress(Space),,,,,,,,-- --- ---- --- ------ ----- ------- ---- -- --- ------- --<br>------- ---------- ------ -- ----- -- ----- -- ---- ------<br>--- ----- --- --- ------ -------- ----- --- ------ ----- --<br>----- ----- ---------- --- --- ------ ------ ---- -- ------<br>------- --- ------ ----- --- ---- ------- -- ---- --- of<br>------- ------,162321,162320.60000000894,162026.336,162037.10000000894,162042.921,162325.845,,53,of
screen,html.Screen,2_1_1_1_54,2022-04-25T14:21:38.514Z,,,,,,,,,,,,,,,,,54,,,,,,,,,,,,,,278.35500000297907,,response,,,,100,,,,,,,Space,keypress(Space),,,,,,,,-- --- ---- --- ------ ----- ------- ---- -- --- ------- --<br>------- ---------- ------ -- ----- -- ----- -- ---- ------<br>--- ----- --- --- ------ -------- ----- --- ------ ----- --<br>----- ----- ---------- --- --- ------ ------ ---- -- ------<br>------- --- ------ ----- --- ---- ------- -- ---- --- --<br>raising ------,162605.5,162604.20000000298,162309.307,162321.10000000894,162325.845,162609.075,,54,raising
screen,html.Screen,2_1_1_1_55,2022-04-25T14:21:39.337Z,,,,,,,,,,,,,,,,,54,,,,,,,,,,,,,,818.3250000059488,,response,,,,100,,,,,,,Space,keypress(Space),,,,,,,,-- --- ---- --- ------ ----- ------- ---- -- --- ------- --<br>------- ---------- ------ -- ----- -- ----- -- ---- ------<br>--- ----- --- --- ------ -------- ----- --- ------ ----- --<br>----- ----- ---------- --- --- ------ ------ ---- -- ------<br>------- --- ------ ----- --- ---- ------- -- ---- --- --<br>------- money.,163428.5,163427.40000000596,162592.598,162605.70000000298,162609.075,163441.61,,55,money.
Item 100,flow.Loop,2_1_1_1,2022-04-25T14:21:39.337Z,,,,,,,,,,,,,,,,,,,,,,,,,,,,,,,22498.031000005954,,completion,,,,,A,,,,,,,,,,,silence,,,,,163429.10000000894,163427.40000000596,140912.796,140918.10000000894,140929.369,163441.61,,,
Question 1,html.Screen,2_1_1_2,2022-04-25T14:21:41.688Z,,,,,,,,,,,,,,,,,,,,,,,,,,,,true,TRUE,,2337.090000002994,,response,,,,100,A,,,,,,TRUE,click #choice-1,,,,silence,,,,,165779.70000000298,165778.70000000298,163424.914,163429.29999999702,163441.61,165789.404,,,
Question 2,html.Screen,2_1_1_3,2022-04-25T14:21:44.141Z,,,,,,,,,,,,,,,,,,,,,,,,,,,,true,FALSE,,2441.996000005951,,response,,,,100,A,,,,,,FALSE,click #choice-2,,,,silence,,,,,168232.29999999702,168231.40000000596,165773.019,165779.79999999702,165789.404,168237.033,,,
Item 100,flow.Sequence,2_1_1,2022-04-25T14:21:44.141Z,,,,,,,,,,,,,,,,,,,,,,,,,,,,,,,37308.584000005954,,completion,,,,,,,,,,,,,,,,,,,,,168232.5,168231.40000000596,130888.776,130905.20000000298,130922.816,168237.033,,,
End of Practice,html.Page,2_1_2,2022-04-25T14:21:46.549Z,,,,,,,,,,,,,,,,,,,,,,,,,,,,,,,2402.967000000004,,form submission,,,,,,,,,,,,,,,,,,,,,170640.40000000596,170640,168220.608,168232.70000000298,168237.033,170651.461,,,
Practice,flow.Sequence,2_1,2022-04-25T14:21:46.549Z,,,,,,,,,,,,,,,,,,,,,,,,,,,,,,,79097.67,,completion,,,,,,,,,,,,,,,,,,,,,170640.70000000298,170640,91526.014,91542.29999999702,91542.33,170651.461,,,
Trap_instruction,html.Page,2_2_0,2022-04-25T14:21:48.405Z,,,,,,,,,,,,,,,,,,,,,,,,,,,,,,,1844.6390000089305,,form submission,,,,,,,,,,,,,,,,,,,,,172496.40000000596,172496.10000000894,170635.013,170640.79999999702,170651.461,172499.729,,,
trap_trial,html.Screen,2_2_1,2022-04-25T14:21:52.793Z,,,,,,,,,,,,,,,,,,,,,,,,,,,,true,1,,4383.070999997028,,response,,,,,,,,,,,1,click #choice-1,,,,,,,,,176884.20000000298,176882.79999999702,172483.257,172496.60000000894,172499.729,176895.617,,,
end of trap trial,html.Page,2_2_2,2022-04-25T14:21:54.019Z,,,,,,,,,,,,,,,,,,,,,,,,,,,,,,,1214.283000005962,,form submission,,,,,,,,,,,,,,,,,,,,,178110.20000000298,178109.90000000596,176879.094,176884.5,176895.617,178111.135,,,
Trap 1,flow.Sequence,2_2,2022-04-25T14:21:54.019Z,,,,,,,,,,,,,,,,,,,,,,,,,,,,,,,7458.43900000595,,completion,,,,,,,,,,,,,,,,,,,,,178110.40000000596,178109.90000000596,170635.013,170640.79999999702,170651.461,178111.135,,,
Standby,html.Page,2_3_0,2022-04-25T14:22:01.998Z,,,,,,,,,,,,,,,,,,,,,,,,,,,,,,,7992.5,,timeout,,,,,,,,,,,,,,,,,,,,,186089.60000000894,186086.958,178094.587,178110.5,178111.135,186103.635,,,
Holding screen,html.Screen,2_3_1_0_0,2022-04-25T14:22:08.990Z,,,,,,,,,,,,,,,,,,,,,,,,,,,,,,,6993.5899999999965,,timeout,,,,,,,,,,,,,,,,,,,,,193081.79999999702,193080.564,186086.958,186089.79999999702,186103.635,193097.225,,,
screen,html.Screen,2_3_1_0_1_0,2022-04-25T14:22:09.951Z,,,,,,,,,,,,,,,,,19,,,,,,,,,,,,,,944.574999997014,,response,,,,17,A,,,,,,Space,keypress(Space),,,,silence,,,,"Interestingly, --- -------- -------- ---------- ---- -------<br>-- ---------- -- --- ----- ------ ----- ---- --------- ----<br>------- ------ -------- -- ------ ---------- ------ ---<br>------ -- -- ---- -- ---------- -------- ------ ---- -------<br>---- --- --------- ------- ----- --------- ---- ----- --<br>------ -------- -- ------ -- ---- ------------",194043.20000000298,194041.79999999702,193080.564,193082.29999999702,193097.225,194046.297,,0,"Interestingly,"
screen,html.Screen,2_3_1_0_1_1,2022-04-25T14:22:10.326Z,,,,,,,,,,,,,,,,,19,,,,,,,,,,,,,,369.90300000298885,,response,,,,17,A,,,,,,Space,keypress(Space),,,,silence,,,,-------------- the -------- -------- ---------- ---- -------<br>-- ---------- -- --- ----- ------ ----- ---- --------- ----<br>------- ------ -------- -- ------ ---------- ------ ---<br>------ -- -- ---- -- ---------- -------- ------ ---- -------<br>---- --- --------- ------- ----- --------- ---- ----- --<br>------ -------- -- ------ -- ---- ------------,194417.60000000894,194416.20000000298,194029.708,194043.5,194046.297,194429.311,,1,the
screen,html.Screen,2_3_1_0_1_2,2022-04-25T14:22:10.679Z,,,,,,,,,,,,,,,,,19,,,,,,,,,,,,,,340.68900000001304,,response,,,,17,A,,,,,,Space,keypress(Space),,,,silence,,,,-------------- --- heaviest -------- ---------- ---- -------<br>-- ---------- -- --- ----- ------ ----- ---- --------- ----<br>------- ------ -------- -- ------ ---------- ------ ---<br>------ -- -- ---- -- ---------- -------- ------ ---- -------<br>---- --- --------- ------- ----- --------- ---- ----- --<br>------ -------- -- ------ -- ---- ------------,194770.5,194770,194412.583,194417.79999999702,194429.311,194778.845,,2,heaviest
screen,html.Screen,2_3_1_0_1_3,2022-04-25T14:22:11.038Z,,,,,,,,,,,,,,,,,19,,,,,,,,,,,,,,350.75500000893953,,response,,,,17,A,,,,,,Space,keypress(Space),,,,silence,,,,-------------- --- -------- isotopes ---------- ---- -------<br>-- ---------- -- --- ----- ------ ----- ---- --------- ----<br>------- ------ -------- -- ------ ---------- ------ ---<br>------ -- -- ---- -- ---------- -------- ------ ---- -------<br>---- --- --------- ------- ----- --------- ---- ----- --<br>------ -------- -- ------ -- ---- ------------,195130.10000000894,195129.60000000894,194762.339,194770.60000000894,194778.845,195145.478,,3,isotopes
screen,html.Screen,2_3_1_0_1_4,2022-04-25T14:22:11.425Z,,,,,,,,,,,,,,,,,19,,,,,,,,,,,,,,369.821999997017,,response,,,,17,A,,,,,,Space,keypress(Space),,,,silence,,,,-------------- --- -------- -------- physicists ---- -------<br>-- ---------- -- --- ----- ------ ----- ---- --------- ----<br>------- ------ -------- -- ------ ---------- ------ ---<br>------ -- -- ---- -- ---------- -------- ------ ---- -------<br>---- --- --------- ------- ----- --------- ---- ----- --<br>------ -------- -- ------ -- ---- ------------,195516.5,195515.29999999702,195128.718,195130.20000000298,195145.478,195528.316,,4,physicists
screen,html.Screen,2_3_1_0_1_5,2022-04-25T14:22:11.764Z,,,,,,,,,,,,,,,,,19,,,,,,,,,,,,,,325.7840000089491,,response,,,,17,A,,,,,,Space,keypress(Space),,,,silence,,,,-------------- --- -------- -------- ---------- have -------<br>-- ---------- -- --- ----- ------ ----- ---- --------- ----<br>------- ------ -------- -- ------ ---------- ------ ---<br>------ -- -- ---- -- ---------- -------- ------ ---- -------<br>---- --- --------- ------- ----- --------- ---- ----- --<br>------ -------- -- ------ -- ---- ------------,195855.79999999702,195854.10000000894,195511.537,195516.79999999702,195528.316,195878.138,,5,have
screen,html.Screen,2_3_1_0_1_6,2022-04-25T14:22:12.145Z,,,,,,,,,,,,,,,,,19,,,,,,,,,,,,,,357.06200000297395,,response,,,,17,A,,,,,,Space,keypress(Space),,,,silence,,,,-------------- --- -------- -------- ---------- ---- managed<br>-- ---------- -- --- ----- ------ ----- ---- --------- ----<br>------- ------ -------- -- ------ ---------- ------ ---<br>------ -- -- ---- -- ---------- -------- ------ ---- -------<br>---- --- --------- ------- ----- --------- ---- ----- --<br>------ -------- -- ------ -- ---- ------------,196236.40000000596,196235.20000000298,195844.788,195856.10000000894,195878.138,196244.192,,6,managed
screen,html.Screen,2_3_1_0_1_7,2022-04-25T14:22:12.451Z,,,,,,,,,,,,,,,,,19,,,,,,,,,,,,,,297.80799999999,,response,,,,17,A,,,,,,Space,keypress(Space),,,,silence,,,,-------------- --- -------- -------- ---------- ---- -------<br>to ---------- -- --- ----- ------ ----- ---- --------- ----<br>------- ------ -------- -- ------ ---------- ------ ---<br>------ -- -- ---- -- ---------- -------- ------ ---- -------<br>---- --- --------- ------- ----- --------- ---- ----- --<br>------ -------- -- ------ -- ---- ------------,196542.79999999702,196542,196227.663,196236.70000000298,196244.192,196570.578,,7,to
screen,html.Screen,2_3_1_0_1_8,2022-04-25T14:22:12.839Z,,,,,,,,,,,,,,,,,19,,,,,,,,,,,,,,358.32200000595185,,response,,,,17,A,,,,,,Space,keypress(Space),,,,silence,,,,-------------- --- -------- -------- ---------- ---- -------<br>-- synthesize -- --- ----- ------ ----- ---- --------- ----<br>------- ------ -------- -- ------ ---------- ------ ---<br>------ -- -- ---- -- ---------- -------- ------ ---- -------<br>---- --- --------- ------- ----- --------- ---- ----- --<br>------ -------- -- ------ -- ---- ------------,196930.70000000298,196928.90000000596,196527.242,196542.90000000596,196570.578,196943.633,,8,synthesize
screen,html.Screen,2_3_1_0_1_9,2022-04-25T14:22:13.437Z,,,,,,,,,,,,,,,,,19,,,,,,,,,,,,,,583.9670000089391,,response,,,,17,A,,,,,,Space,keypress(Space),,,,silence,,,,-------------- --- -------- -------- ---------- ---- -------<br>-- ---------- so --- ----- ------ ----- ---- --------- ----<br>------- ------ -------- -- ------ ---------- ------ ---<br>------ -- -- ---- -- ---------- -------- ------ ---- -------<br>---- --- --------- ------- ----- --------- ---- ----- --<br>------ -------- -- ------ -- ---- ------------,197529,197527.60000000894,196926.961,196931.10000000894,196943.633,197543.006,,9,so
screen,html.Screen,2_3_1_0_1_10,2022-04-25T14:22:13.920Z,,,,,,,,,,,,,,,,,19,,,,,,,,,,,,,,467.7939999970258,,response,,,,17,A,,,,,,Space,keypress(Space),,,,silence,,,,-------------- --- -------- -------- ---------- ---- -------<br>-- ---------- -- far ----- ------ ----- ---- --------- ----<br>------- ------ -------- -- ------ ---------- ------ ---<br>------ -- -- ---- -- ---------- -------- ------ ---- -------<br>---- --- --------- ------- ----- --------- ---- ----- --<br>------ -------- -- ------ -- ---- ------------,198012.20000000298,198010.79999999702,197526.637,197529.40000000596,197543.006,198025.974,,10,far
screen,html.Screen,2_3_1_0_1_11,2022-04-25T14:22:14.256Z,,,,,,,,,,,,,,,,,19,,,,,,,,,,,,,,321.0260000000126,,response,,,,17,A,,,,,,Space,keypress(Space),,,,silence,,,,-------------- --- -------- -------- ---------- ---- -------<br>-- ---------- -- --- don't ------ ----- ---- --------- ----<br>------- ------ -------- -- ------ ---------- ------ ---<br>------ -- -- ---- -- ---------- -------- ------ ---- -------<br>---- --- --------- ------- ----- --------- ---- ----- --<br>------ -------- -- ------ -- ---- ------------,198347.79999999702,198347,198009.435,198012.5,198025.974,198358.818,,11,don't
screen,html.Screen,2_3_1_0_1_12,2022-04-25T14:22:14.664Z,,,,,,,,,,,,,,,,,19,,,,,,,,,,,,,,395.2820000089414,,response,,,,17,A,,,,,,Space,keypress(Space),,,,silence,,,,-------------- --- -------- -------- ---------- ---- -------<br>-- ---------- -- --- ----- behave ----- ---- --------- ----<br>------- ------ -------- -- ------ ---------- ------ ---<br>------ -- -- ---- -- ---------- -------- ------ ---- -------<br>---- --- --------- ------- ----- --------- ---- ----- --<br>------ -------- -- ------ -- ---- ------------,198755.29999999702,198754.10000000894,198342.57,198348,198358.818,198758.561,,12,behave
screen,html.Screen,2_3_1_0_1_13,2022-04-25T14:22:15.041Z,,,,,,,,,,,,,,,,,19,,,,,,,,,,,,,,372.93900000001304,,response,,,,17,A,,,,,,Space,keypress(Space),,,,silence,,,,-------------- --- -------- -------- ---------- ---- -------<br>-- ---------- -- --- ----- ------ quite ---- --------- ----<br>------- ------ -------- -- ------ ---------- ------ ---<br>------ -- -- ---- -- ---------- -------- ------ ---- -------<br>---- --- --------- ------- ----- --------- ---- ----- --<br>------ -------- -- ------ -- ---- ------------,199132.79999999702,199131.5,198741.898,198755.60000000894,198758.561,199141.535,,13,quite
screen,html.Screen,2_3_1_0_1_14,2022-04-25T14:22:15.446Z,,,,,,,,,,,,,,,,,19,,,,,,,,,,,,,,395.0650000089372,,response,,,,17,A,,,,,,Space,keypress(Space),,,,silence,,,,-------------- --- -------- -------- ---------- ---- -------<br>-- ---------- -- --- ----- ------ ----- like --------- ----<br>------- ------ -------- -- ------ ---------- ------ ---<br>------ -- -- ---- -- ---------- -------- ------ ---- -------<br>---- --- --------- ------- ----- --------- ---- ----- --<br>------ -------- -- ------ -- ---- ------------,199537.79999999702,199536.60000000894,199124.924,199133.10000000894,199141.535,199541.077,,14,like
screen,html.Screen,2_3_1_0_1_15,2022-04-25T14:22:16.122Z,,,,,,,,,,,,,,,,,19,,,,,,,,,,,,,,671.62300000299,,response,,,,17,A,,,,,,Space,keypress(Space),,,,silence,,,,-------------- --- -------- -------- ---------- ---- -------<br>-- ---------- -- --- ----- ------ ----- ---- science's ----<br>------- ------ -------- -- ------ ---------- ------ ---<br>------ -- -- ---- -- ---------- -------- ------ ---- -------<br>---- --- --------- ------- ----- --------- ---- ----- --<br>------ -------- -- ------ -- ---- ------------,200214,200212.70000000298,199524.829,199538.20000000298,199541.077,200223.783,,15,science's
screen,html.Screen,2_3_1_0_1_16,2022-04-25T14:22:16.567Z,,,,,,,,,,,,,,,,,19,,,,,,,,,,,,,,433.8170000089449,,response,,,,17,A,,,,,,Space,keypress(Space),,,,silence,,,,-------------- --- -------- -------- ---------- ---- -------<br>-- ---------- -- --- ----- ------ ----- ---- --------- best<br>------- ------ -------- -- ------ ---------- ------ ---<br>------ -- -- ---- -- ---------- -------- ------ ---- -------<br>---- --- --------- ------- ----- --------- ---- ----- --<br>------ -------- -- ------ -- ---- ------------,200658.90000000596,200657.60000000894,200207.511,200216.20000000298,200223.783,200673.651,,16,best
screen,html.Screen,2_3_1_0_1_17,2022-04-25T14:22:17.043Z,,,,,,,,,,,,,,,,,19,,,,,,,,,,,,,,459.7490000059479,,response,,,,17,A,,,,,,Space,keypress(Space),,,,silence,,,,-------------- --- -------- -------- ---------- ---- -------<br>-- ---------- -- --- ----- ------ ----- ---- --------- ----<br>current ------ -------- -- ------ ---------- ------ ---<br>------ -- -- ---- -- ---------- -------- ------ ---- -------<br>---- --- --------- ------- ----- --------- ---- ----- --<br>------ -------- -- ------ -- ---- ------------,201134.60000000894,201133.40000000596,200656.788,200659.20000000298,200673.651,201139.615,,17,current
screen,html.Screen,2_3_1_0_1_18,2022-04-25T14:22:17.570Z,,,,,,,,,,,,,,,,,19,,,,,,,,,,,,,,520.3850000000093,,response,,,,17,A,,,,,,Space,keypress(Space),,,,silence,,,,-------------- --- -------- -------- ---------- ---- -------<br>-- ---------- -- --- ----- ------ ----- ---- --------- ----<br>------- models -------- -- ------ ---------- ------ ---<br>------ -- -- ---- -- ---------- -------- ------ ---- -------<br>---- --- --------- ------- ----- --------- ---- ----- --<br>------ -------- -- ------ -- ---- ------------,201661.40000000596,201660,201123.07,201135,201139.615,201672.567,,18,models
screen,html.Screen,2_3_1_0_1_19,2022-04-25T14:22:18.402Z,,,,,,,,,,,,,,,,,19,,,,,,,,,,,,,,819.7329999970098,,response,,,,17,A,,,,,,Space,keypress(Space),,,,silence,,,,"-------------- --- -------- -------- ---------- ---- -------<br>-- ---------- -- --- ----- ------ ----- ---- --------- ----<br>------- ------ predict, -- ------ ---------- ------ ---<br>------ -- -- ---- -- ---------- -------- ------ ---- -------<br>---- --- --------- ------- ----- --------- ---- ----- --<br>------ -------- -- ------ -- ---- ------------",202493.5,202492.29999999702,201655.891,201661.60000000894,201672.567,202505.008,,19,"predict,"
screen,html.Screen,2_3_1_0_1_20,2022-04-25T14:22:18.804Z,,,,,,,,,,,,,,,,,19,,,,,,,,,,,,,,389.09200000893907,,response,,,,17,A,,,,,,Space,keypress(Space),,,,silence,,,,-------------- --- -------- -------- ---------- ---- -------<br>-- ---------- -- --- ----- ------ ----- ---- --------- ----<br>------- ------ -------- so ------ ---------- ------ ---<br>------ -- -- ---- -- ---------- -------- ------ ---- -------<br>---- --- --------- ------- ----- --------- ---- ----- --<br>------ -------- -- ------ -- ---- ------------,202895.40000000596,202894.10000000894,202488.413,202493.79999999702,202505.008,202904.639,,20,so
screen,html.Screen,2_3_1_0_1_21,2022-04-25T14:22:19.228Z,,,,,,,,,,,,,,,,,19,,,,,,,,,,,,,,414.06100000298466,,response,,,,17,A,,,,,,Space,keypress(Space),,,,silence,,,,-------------- --- -------- -------- ---------- ---- -------<br>-- ---------- -- --- ----- ------ ----- ---- --------- ----<br>------- ------ -------- -- stable ---------- ------ ---<br>------ -- -- ---- -- ---------- -------- ------ ---- -------<br>---- --- --------- ------- ----- --------- ---- ----- --<br>------ -------- -- ------ -- ---- ------------,203320.10000000894,203318.70000000298,202887.957,202895.79999999702,202904.639,203337.754,,21,stable
screen,html.Screen,2_3_1_0_1_22,2022-04-25T14:22:19.670Z,,,,,,,,,,,,,,,,,19,,,,,,,,,,,,,,422.74600000001374,,response,,,,17,A,,,,,,Space,keypress(Space),,,,silence,,,,-------------- --- -------- -------- ---------- ---- -------<br>-- ---------- -- --- ----- ------ ----- ---- --------- ----<br>------- ------ -------- -- ------ superheavy ------ ---<br>------ -- -- ---- -- ---------- -------- ------ ---- -------<br>---- --- --------- ------- ----- --------- ---- ----- --<br>------ -------- -- ------ -- ---- ------------,203761.79999999702,203760.5,203321.017,203320.40000000596,203337.754,203770.706,,22,superheavy
screen,html.Screen,2_3_1_0_1_23,2022-04-25T14:22:20.395Z,,,,,,,,,,,,,,,,,19,,,,,,,,,,,,,,714.3940000089351,,response,,,,17,A,,,,,,Space,keypress(Space),,,,silence,,,,-------------- --- -------- -------- ---------- ---- -------<br>-- ---------- -- --- ----- ------ ----- ---- --------- ----<br>------- ------ -------- -- ------ ---------- nuclei ---<br>------ -- -- ---- -- ---------- -------- ------ ---- -------<br>---- --- --------- ------- ----- --------- ---- ----- --<br>------ -------- -- ------ -- ---- ------------,204486.40000000596,204485.10000000894,203753.871,203762,203770.706,204503.317,,23,nuclei
screen,html.Screen,2_3_1_0_1_24,2022-04-25T14:22:20.828Z,,,,,,,,,,,,,,,,,19,,,,,,,,,,,,,,415.68299999999,,response,,,,17,A,,,,,,Space,keypress(Space),,,,silence,,,,-------------- --- -------- -------- ---------- ---- -------<br>-- ---------- -- --- ----- ------ ----- ---- --------- ----<br>------- ------ -------- -- ------ ---------- ------ are<br>------ -- -- ---- -- ---------- -------- ------ ---- -------<br>---- --- --------- ------- ----- --------- ---- ----- --<br>------ -------- -- ------ -- ---- ------------,204920.20000000298,204919,204486.576,204486.70000000298,204503.317,204936.252,,24,are
screen,html.Screen,2_3_1_0_1_25,2022-04-25T14:22:21.212Z,,,,,,,,,,,,,,,,,19,,,,,,,,,,,,,,366.0479999970121,,response,,,,17,A,,,,,,Space,keypress(Space),,,,silence,,,,-------------- --- -------- -------- ---------- ---- -------<br>-- ---------- -- --- ----- ------ ----- ---- --------- ----<br>------- ------ -------- -- ------ ---------- ------ ---<br>likely -- -- ---- -- ---------- -------- ------ ---- -------<br>---- --- --------- ------- ----- --------- ---- ----- --<br>------ -------- -- ------ -- ---- ------------,205303.70000000298,205302.29999999702,204919.662,204920.5,204936.252,205319.199,,25,likely
screen,html.Screen,2_3_1_0_1_26,2022-04-25T14:22:21.549Z,,,,,,,,,,,,,,,,,19,,,,,,,,,,,,,,320.30100000000675,,response,,,,17,A,,,,,,Space,keypress(Space),,,,silence,,,,-------------- --- -------- -------- ---------- ---- -------<br>-- ---------- -- --- ----- ------ ----- ---- --------- ----<br>------- ------ -------- -- ------ ---------- ------ ---<br>------ to -- ---- -- ---------- -------- ------ ---- -------<br>---- --- --------- ------- ----- --------- ---- ----- --<br>------ -------- -- ------ -- ---- ------------,205641,205639.5,205302.686,205304,205319.199,205652.356,,26,to
screen,html.Screen,2_3_1_0_1_27,2022-04-25T14:22:21.953Z,,,,,,,,,,,,,,,,,19,,,,,,,,,,,,,,391.24400000894093,,response,,,,17,A,,,,,,Space,keypress(Space),,,,silence,,,,-------------- --- -------- -------- ---------- ---- -------<br>-- ---------- -- --- ----- ------ ----- ---- --------- ----<br>------- ------ -------- -- ------ ---------- ------ ---<br>------ -- be ---- -- ---------- -------- ------ ---- -------<br>---- --- --------- ------- ----- --------- ---- ----- --<br>------ -------- -- ------ -- ---- ------------,206045,206043.60000000894,205635.684,205641.20000000298,205652.356,206051.68,,27,be
screen,html.Screen,2_3_1_0_1_28,2022-04-25T14:22:22.356Z,,,,,,,,,,,,,,,,,19,,,,,,,,,,,,,,394.820000000007,,response,,,,17,A,,,,,,Space,keypress(Space),,,,silence,,,,-------------- --- -------- -------- ---------- ---- -------<br>-- ---------- -- --- ----- ------ ----- ---- --------- ----<br>------- ------ -------- -- ------ ---------- ------ ---<br>------ -- -- full -- ---------- -------- ------ ---- -------<br>---- --- --------- ------- ----- --------- ---- ----- --<br>------ -------- -- ------ -- ---- ------------,206448,206446.5,206035.333,206045.20000000298,206051.68,206451.351,,28,full
screen,html.Screen,2_3_1_0_1_29,2022-04-25T14:22:22.743Z,,,,,,,,,,,,,,,,,19,,,,,,,,,,,,,,381.8490000029851,,response,,,,17,A,,,,,,Space,keypress(Space),,,,silence,,,,-------------- --- -------- -------- ---------- ---- -------<br>-- ---------- -- --- ----- ------ ----- ---- --------- ----<br>------- ------ -------- -- ------ ---------- ------ ---<br>------ -- -- ---- of ---------- -------- ------ ---- -------<br>---- --- --------- ------- ----- --------- ---- ----- --<br>------ -------- -- ------ -- ---- ------------,206834.70000000298,206833.20000000298,206434.678,206448.40000000596,206451.351,206850.898,,29,of
screen,html.Screen,2_3_1_0_1_30,2022-04-25T14:22:23.897Z,,,,,,,,,,,,,,,,,19,,,,,,,,,,,,,,1136.9019999970333,,response,,,,17,A,,,,,,Space,keypress(Space),,,,silence,,,,-------------- --- -------- -------- ---------- ---- -------<br>-- ---------- -- --- ----- ------ ----- ---- --------- ----<br>------- ------ -------- -- ------ ---------- ------ ---<br>------ -- -- ---- -- surprises. -------- ------ ---- -------<br>---- --- --------- ------- ----- --------- ---- ----- --<br>------ -------- -- ------ -- ---- ------------,207989,207987.79999999702,206834.659,206835.10000000894,206850.898,207999.939,,30,surprises.
screen,html.Screen,2_3_1_0_1_31,2022-04-25T14:22:24.289Z,,,,,,,,,,,,,,,,,19,,,,,,,,,,,,,,379.56099999998696,,response,,,,17,A,,,,,,Space,keypress(Space),,,,silence,,,,-------------- --- -------- -------- ---------- ---- -------<br>-- ---------- -- --- ----- ------ ----- ---- --------- ----<br>------- ------ -------- -- ------ ---------- ------ ---<br>------ -- -- ---- -- ---------- Chemists ------ ---- -------<br>---- --- --------- ------- ----- --------- ---- ----- --<br>------ -------- -- ------ -- ---- ------------,208380.79999999702,208379.5,207983.308,207989.29999999702,207999.939,208402.994,,31,Chemists
screen,html.Screen,2_3_1_0_1_32,2022-04-25T14:22:24.668Z,,,,,,,,,,,,,,,,,19,,,,,,,,,,,,,,355.3059999970137,,response,,,,17,A,,,,,,Space,keypress(Space),,,,silence,,,,-------------- --- -------- -------- ---------- ---- -------<br>-- ---------- -- --- ----- ------ ----- ---- --------- ----<br>------- ------ -------- -- ------ ---------- ------ ---<br>------ -- -- ---- -- ---------- -------- cannot ---- -------<br>---- --- --------- ------- ----- --------- ---- ----- --<br>------ -------- -- ------ -- ---- ------------,208759.60000000894,208758.29999999702,208366.328,208381.20000000298,208402.994,208765.724,,32,cannot
screen,html.Screen,2_3_1_0_1_33,2022-04-25T14:22:25.071Z,,,,,,,,,,,,,,,,,19,,,,,,,,,,,,,,395.57599999703234,,response,,,,17,A,,,,,,Space,keypress(Space),,,,silence,,,,-------------- --- -------- -------- ---------- ---- -------<br>-- ---------- -- --- ----- ------ ----- ---- --------- ----<br>------- ------ -------- -- ------ ---------- ------ ---<br>------ -- -- ---- -- ---------- -------- ------ even -------<br>---- --- --------- ------- ----- --------- ---- ----- --<br>------ -------- -- ------ -- ---- ------------,209162.5,209161.29999999702,208749.174,208759.90000000596,208765.724,209165.383,,33,even
screen,html.Screen,2_3_1_0_1_34,2022-04-25T14:22:25.470Z,,,,,,,,,,,,,,,,,19,,,,,,,,,,,,,,395.01700000595883,,response,,,,17,A,,,,,,Space,keypress(Space),,,,silence,,,,-------------- --- -------- -------- ---------- ---- -------<br>-- ---------- -- --- ----- ------ ----- ---- --------- ----<br>------- ------ -------- -- ------ ---------- ------ ---<br>------ -- -- ---- -- ---------- -------- ------ ---- predict<br>---- --- --------- ------- ----- --------- ---- ----- --<br>------ -------- -- ------ -- ---- ------------,209561.70000000298,209560.40000000596,209148.884,209162.79999999702,209165.383,209565.03,,34,predict
screen,html.Screen,2_3_1_0_1_35,2022-04-25T14:22:25.855Z,,,,,,,,,,,,,,,,,19,,,,,,,,,,,,,,380.97000000000116,,response,,,,17,A,,,,,,Space,keypress(Space),,,,silence,,,,-------------- --- -------- -------- ---------- ---- -------<br>-- ---------- -- --- ----- ------ ----- ---- --------- ----<br>------- ------ -------- -- ------ ---------- ------ ---<br>------ -- -- ---- -- ---------- -------- ------ ---- -------<br>with --- --------- ------- ----- --------- ---- ----- --<br>------ -------- -- ------ -- ---- ------------,209946.79999999702,209946,209548.707,209562,209565.03,209975.617,,35,with
screen,html.Screen,2_3_1_0_1_36,2022-04-25T14:22:26.298Z,,,,,,,,,,,,,,,,,19,,,,,,,,,,,,,,412.7830000059621,,response,,,,17,A,,,,,,Space,keypress(Space),,,,silence,,,,-------------- --- -------- -------- ---------- ---- -------<br>-- ---------- -- --- ----- ------ ----- ---- --------- ----<br>------- ------ -------- -- ------ ---------- ------ ---<br>------ -- -- ---- -- ---------- -------- ------ ---- -------<br>---- any --------- ------- ----- --------- ---- ----- --<br>------ -------- -- ------ -- ---- ------------,210389.5,210388.40000000596,209931.782,209946.90000000596,209975.617,210397.535,,36,any
screen,html.Screen,2_3_1_0_1_37,2022-04-25T14:22:27.213Z,,,,,,,,,,,,,,,,,19,,,,,,,,,,,,,,905.6650000029767,,response,,,,17,A,,,,,,Space,keypress(Space),,,,silence,,,,-------------- --- -------- -------- ---------- ---- -------<br>-- ---------- -- --- ----- ------ ----- ---- --------- ----<br>------- ------ -------- -- ------ ---------- ------ ---<br>------ -- -- ---- -- ---------- -------- ------ ---- -------<br>---- --- certainty ------- ----- --------- ---- ----- --<br>------ -------- -- ------ -- ---- ------------,211304.60000000894,211303.20000000298,210380.885,210389.79999999702,210397.535,211313.503,,37,certainty
screen,html.Screen,2_3_1_0_1_38,2022-04-25T14:22:27.807Z,,,,,,,,,,,,,,,,,19,,,,,,,,,,,,,,583.5970000089437,,response,,,,17,A,,,,,,Space,keypress(Space),,,,silence,,,,-------------- --- -------- -------- ---------- ---- -------<br>-- ---------- -- --- ----- ------ ----- ---- --------- ----<br>------- ------ -------- -- ------ ---------- ------ ---<br>------ -- -- ---- -- ---------- -------- ------ ---- -------<br>---- --- --------- whether ----- --------- ---- ----- --<br>------ -------- -- ------ -- ---- ------------,211898.29999999702,211897.10000000894,211297.135,211304.79999999702,211313.503,211912.905,,38,whether
screen,html.Screen,2_3_1_0_1_39,2022-04-25T14:22:28.240Z,,,,,,,,,,,,,,,,,19,,,,,,,,,,,,,,417.69500000894186,,response,,,,17,A,,,,,,Space,keypress(Space),,,,silence,,,,-------------- --- -------- -------- ---------- ---- -------<br>-- ---------- -- --- ----- ------ ----- ---- --------- ----<br>------- ------ -------- -- ------ ---------- ------ ---<br>------ -- -- ---- -- ---------- -------- ------ ---- -------<br>---- --- --------- ------- these --------- ---- ----- --<br>------ -------- -- ------ -- ---- ------------,212331.79999999702,212330.60000000894,211896.287,211898.60000000894,211912.905,212345.873,,39,these
