sender,sender_type,sender_id,timestamp,meta,,Blues,Classical,Country,Dance,Electronic,Folk,Gospel,Hip-Hop,Jazz,Latin,Musical/Film,New-age,Pop,Prolific_id,Provo_ID,R&B,Rap,Reggae,Religious,Rock,Soul,Swing,Traditional,age,artist_name,correct,correctResponse,distraction,duration,education,ended_on,familiarity,gender,headphone_check_performance,item,list,music_frequency,offensiveness,pleasantness,position_correct,preference,response,response_action,snippet_file,song_name,song_rating,sound,stimulus_1,stimulus_2,stimulus_3,text,time_commit,time_end,time_render,time_run,time_show,time_switch,url,word,word_ID
Prolific ID,html.Form,0,2022-04-25T11:31:45.013Z,"{""labjs_version"":""20.2.2"",""labjs_build"":{""flavor"":""production"",""commit"":""a25486e0c714a0ae2ce03ff94b7bb6896854dcfa""},""location"":""https://run.pavlovia.org/mvasilev/prolific3_music_a/"",""userAgent"":""Mozilla/5.0 (Windows NT 10.0; Win64; x64) AppleWebKit/537.36 (KHTML, like Gecko) Chrome/100.0.4896.88 Safari/537.36"",""platform"":""Win32"",""language"":""en-GB"",""locale"":""en-GB"",""timeZone"":""Europe/London"",""timezoneOffset"":-60,""screen_width"":1280,""screen_height"":720,""scroll_width"":1280,""scroll_height"":577,""window_innerWidth"":1280,""window_innerHeight"":577,""devicePixelRatio"":1.5}",,,,,,,,,,,,,,,5a9057b96219a30001d2d8f6,,,,,,,,,,,,,,,3208.724000190734,,form submission,,,,,,,,,,,,,,,,,,,,,58623.09999990463,58621.300000190735,55395.865,46570.90000009537,55412.576,58645.95,{},,
Introduction,html.Screen,1_0,2022-04-25T11:31:48.736Z,,,,,,,,,,,,,,,,,,,,,,,,,,,,,,,3700.050000000003,,response,,,,,,,,,,,continue,click button,,,,,,,,,62346.699999809265,62346,58612.619,58624.40000009537,58645.95,62362.664,,,
Volume calibration,html.Screen,1_1,2022-04-25T11:32:09.292Z,,,,,,,,,,,,,,,,,,,,,,,,,,,,,,,20537.336000000003,,response,,,,,,,,,,,continue,click button,,,,,,,,,82902.09999990463,82900,62345.988,62346.699999809265,62362.664,82912.985,,,
Task instructions,html.Screen,1_2,2022-04-25T11:32:15.504Z,,,,,,,,,,,,,,,,,,,,,,,,,,,,,,,6200.415000095367,,response,,,,,,,,,,,continue,click button,,,,,,,,,89114.40000009537,89113.40000009537,82896.298,82902.09999990463,82912.985,89129.737,,,
Sounds,html.Screen,1_3_0_0,2022-04-25T11:32:19.756Z,,,,,,,,,,,,,,,,,,,,,,,,,,,,,,,4250.074000000008,,timeout,,,,,,,,,2,,,,,,,,I,S,O,,93366.09999990463,93363.454,89113.046,89114.59999990463,89129.737,93379.811,,,
Judgement,html.Screen,1_3_0_1,2022-04-25T11:32:21.942Z,,,,,,,,,,,,,,,,,,,,,,,,,,,,true,2,,2171.589000095366,,response,,,,,,,,,2,,2,click #choice-2,,,,,I,S,O,,95552.5,95551.40000009537,93363.454,93366.19999980927,93379.811,95563.456,,,
Trial,flow.Sequence,1_3_0,2022-04-25T11:32:21.942Z,,,,,,,,,,,,,,,,,,,,,,,,,,,,,,,6421.663000095374,,completion,,,,,,,,,2,,,,,,,,I,S,O,,95552.80000019073,95551.40000009537,89113.046,89114.5,89129.737,95563.456,,,
Sounds,html.Screen,1_3_1_0,2022-04-25T11:32:26.187Z,,,,,,,,,,,,,,,,,,,,,,,,,,,,,,,4249.8169999999955,,timeout,,,,,,,,,3,,,,,,,,O,I,S,,99797.59999990463,99796.653,95546.556,95552.90000009537,95563.456,99813.273,,,
Judgement,html.Screen,1_3_1_1,2022-04-25T11:32:27.494Z,,,,,,,,,,,,,,,,,,,,,,,,,,,,true,3,,1289.8269999046315,,response,,,,,,,,,3,,3,click #choice-3,,,,,O,I,S,,101104.30000019073,101103.09999990463,99796.653,99797.80000019073,99813.273,101113.234,,,
Trial,flow.Sequence,1_3_1,2022-04-25T11:32:27.494Z,,,,,,,,,,,,,,,,,,,,,,,,,,,,,,,5539.643999904627,,completion,,,,,,,,,3,,,,,,,,O,I,S,,101104.59999990463,101103.09999990463,95546.556,95552.90000009537,95563.456,101113.234,,,
Sounds,html.Screen,1_3_2_0,2022-04-25T11:32:31.737Z,,,,,,,,,,,,,,,,,,,,,,,,,,,,,,,4250.089000000007,,timeout,,,,,,,,,1,,,,,,,,S,I,O,,105347.19999980927,105346.66,101096.599,101104.69999980927,101113.234,105363.323,,,
Judgement,html.Screen,1_3_2_1,2022-04-25T11:32:32.996Z,,,,,,,,,,,,,,,,,,,,,,,,,,,,true,1,,1241.977000190731,,response,,,,,,,,,1,,1,click #choice-1,,,,,S,I,O,,106606.30000019073,106605.30000019073,105346.66,105347.30000019073,105363.323,106613.639,,,
Trial,flow.Sequence,1_3_2,2022-04-25T11:32:32.996Z,,,,,,,,,,,,,,,,,,,,,,,,,,,,,,,5492.066000190738,,completion,,,,,,,,,1,,,,,,,,S,I,O,,106606.5,106605.30000019073,101096.599,101104.69999980927,101113.234,106613.639,,,
Sounds,html.Screen,1_3_3_0,2022-04-25T11:32:37.237Z,,,,,,,,,,,,,,,,,,,,,,,,,,,,,,,4249.817999999999,,timeout,,,,,,,,,1,,,,,,,,S,O,I,,110847.5,110846.802,106596.723,106606.59999990463,106613.639,110863.457,,,
Judgement,html.Screen,1_3_3_1,2022-04-25T11:32:38.275Z,,,,,,,,,,,,,,,,,,,,,,,,,,,,true,1,,1020.4430000953726,,response,,,,,,,,,1,,1,click #choice-1,,,,,S,O,I,,111885.19999980927,111883.90000009537,110846.802,110847.69999980927,110863.457,111897.079,,,
Trial,flow.Sequence,1_3_3,2022-04-25T11:32:38.275Z,,,,,,,,,,,,,,,,,,,,,,,,,,,,,,,5270.261000095372,,completion,,,,,,,,,1,,,,,,,,S,O,I,,111885.5,111883.90000009537,106596.723,106606.59999990463,106613.639,111897.079,,,
Sounds,html.Screen,1_3_4_0,2022-04-25T11:32:42.521Z,,,,,,,,,,,,,,,,,,,,,,,,,,,,,,,4249.695000000007,,timeout,,,,,,,,,2,,,,,,,,O,S,I,,116130.69999980927,116130.136,111880.09,111885.69999980927,111897.079,116146.774,,,
Judgement,html.Screen,1_3_4_1,2022-04-25T11:32:43.311Z,,,,,,,,,,,,,,,,,,,,,,,,,,,,true,2,,773.02600019073,,response,,,,,,,,,2,,2,click #choice-2,,,,,O,S,I,,116920.69999980927,116919.80000019073,116130.136,116130.80000019073,116146.774,116930.138,,,
Trial,flow.Sequence,1_3_4,2022-04-25T11:32:43.311Z,,,,,,,,,,,,,,,,,,,,,,,,,,,,,,,5022.721000190737,,completion,,,,,,,,,2,,,,,,,,O,S,I,,116920.69999980927,116919.80000019073,111880.09,111885.59999990463,111897.079,116930.138,,,
Sounds,html.Screen,1_3_5_0,2022-04-25T11:32:47.554Z,,,,,,,,,,,,,,,,,,,,,,,,,,,,,,,4250.108999999997,,timeout,,,,,,,,,3,,,,,,,,I,O,S,,121164.09999990463,121163.543,116913.489,116920.80000019073,116930.138,121180.247,,,
Judgement,html.Screen,1_3_5_1,2022-04-25T11:32:48.383Z,,,,,,,,,,,,,,,,,,,,,,,,,,,,true,3,,811.5530001907318,,response,,,,,,,,,3,,3,click #choice-3,,,,,I,O,S,,121992.90000009537,121991.80000019073,121163.543,121164.19999980927,121180.247,121996.935,,,
Trial,flow.Sequence,1_3_5,2022-04-25T11:32:48.383Z,,,,,,,,,,,,,,,,,,,,,,,,,,,,,,,5061.662000190729,,completion,,,,,,,,,3,,,,,,,,I,O,S,,121993.09999990463,121991.80000019073,116913.489,116920.80000019073,116930.138,121996.935,,,
Task,flow.Loop,1_3,2022-04-25T11:32:48.386Z,,,,,,,,,,,,,,,,,,,,,,,,,,,,,,,32862.06300019074,,completion,,,1,,,,,,,,,,,,,,,,,,121995.80000019073,121991.80000019073,89113.046,89114.5,89129.737,121996.935,,,
Trap,html.Screen,1_4,2022-04-25T11:32:48.386Z,,,,,,,,,,,,,,,,,,,,,,,,,,,,,,,NaN,,skipped,,,,,,,,,,,,,,,,,,,,,121996.40000009537,121991.80000019073,,121996.40000009537,,121996.935,,,
Thanks,html.Screen,1_5,2022-04-25T11:32:51.913Z,,,,,,,,,,,,,,,,,,,,,,,,,,,,,,,3525.365000190737,,response,,,,,,,,,,,continue,click button,,,,,,,,,125523.09999990463,125522.30000019073,121980.253,121996.5,121996.935,127963.689,,,
Headphone screening,flow.Sequence,1,2022-04-25T11:32:51.913Z,,,,,,,,,,,,,,,,,,,,,,,,,,,,,,,66876.35000019074,,completion,,,,,,,,,,,,,,,,,,,,,125523.40000009537,125522.30000019073,58612.619,58624.300000190735,58645.95,127963.689,,,
Instructions,html.Page,2_0,2022-04-25T11:33:06.976Z,,,,,,,,,,,,,,,,,,,,,,,,,,,,,,,12622.111000190736,,form submission,,,,,,,,,,,,,,,,,,,,,140586,140585.80000019073,127947.027,127959.59999990463,127963.689,140597.429,,,
Holding screen,html.Screen,2_1_0_0,2022-04-25T11:33:16.971Z,,,,,,,,,,,,,,,,,,,,,,,,,,,,,,,9999.918000000005,,timeout,,,,,,,,,,,,,,,,,,,,,150581.19999980927,150580.69,140580.503,140586.19999980927,140597.429,150597.347,,,
screen,html.Screen,2_1_0_1_0,2022-04-25T11:33:17.772Z,,,,,,,,,,,,,,,,,53,,,,,,,,,,,,,,783.1529999999912,,response,,,,99,,,,,,,Space,keypress(Space),,,,,,,,When -- ----- -- ------ - ------- --- ----------<br>------------- ------ ------ ---- ---- ------- ----- -- ----<br>-------- ------- -- ---------- --- - --- ----- ----- ----<br>---- --- --- ----- --- ---- ---- ------- ----- ---- -------<br>--- --- -- ----- -- --- ---- -- --- ---- -- ------ ------<br>--- ----- -- ----,151381.80000019073,151380.5,150580.69,150581.40000009537,150597.347,151397.335,,0,When
screen,html.Screen,2_1_0_1_1,2022-04-25T11:33:18.229Z,,,,,,,,,,,,,,,,,53,,,,,,,,,,,,,,441.2649999046407,,response,,,,99,,,,,,,Space,keypress(Space),,,,,,,,---- it ----- -- ------ - ------- --- ----------<br>------------- ------ ------ ---- ---- ------- ----- -- ----<br>-------- ------- -- ---------- --- - --- ----- ----- ----<br>---- --- --- ----- --- ---- ---- ------- ----- ---- -------<br>--- --- -- ----- -- --- ---- -- --- ---- -- ------ ------<br>--- ----- -- ----,151839.19999980927,151838.59999990463,151380.69,151381.90000009537,151397.335,151847.336,,1,it
screen,html.Screen,2_1_0_1_2,2022-04-25T11:33:18.608Z,,,,,,,,,,,,,,,,,53,,,,,,,,,,,,,,370.5640000953572,,response,,,,99,,,,,,,Space,keypress(Space),,,,,,,,---- -- comes -- ------ - ------- --- ----------<br>------------- ------ ------ ---- ---- ------- ----- -- ----<br>-------- ------- -- ---------- --- - --- ----- ----- ----<br>---- --- --- ----- --- ---- ---- ------- ----- ---- -------<br>--- --- -- ----- -- --- ---- -- --- ---- -- ------ ------<br>--- ----- -- ----,152218.30000019073,152217.90000009537,151830.683,151839.30000019073,151847.336,152230.968,,2,comes
screen,html.Screen,2_1_0_1_3,2022-04-25T11:33:18.968Z,,,,,,,,,,,,,,,,,53,,,,,,,,,,,,,,346.5320000000065,,response,,,,99,,,,,,,Space,keypress(Space),,,,,,,,---- -- ----- to ------ - ------- --- ----------<br>------------- ------ ------ ---- ---- ------- ----- -- ----<br>-------- ------- -- ---------- --- - --- ----- ----- ----<br>---- --- --- ----- --- ---- ---- ------- ----- ---- -------<br>--- --- -- ----- -- --- ---- -- --- ---- -- ------ ------<br>--- ----- -- ----,152578.09999990463,152577.5,152213.998,152218.30000019073,152230.968,152580.705,,3,to
screen,html.Screen,2_1_0_1_4,2022-04-25T11:33:19.387Z,,,,,,,,,,,,,,,,,53,,,,,,,,,,,,,,416.2950000000128,,response,,,,99,,,,,,,Space,keypress(Space),,,,,,,,---- -- ----- -- having - ------- --- ----------<br>------------- ------ ------ ---- ---- ------- ----- -- ----<br>-------- ------- -- ---------- --- - --- ----- ----- ----<br>---- --- --- ----- --- ---- ---- ------- ----- ---- -------<br>--- --- -- ----- -- --- ---- -- --- ---- -- ------ ------<br>--- ----- -- ----,152997.5,152997,152564.059,152578.09999990463,152580.705,153014.041,,4,having
screen,html.Screen,2_1_0_1_5,2022-04-25T11:33:19.763Z,,,,,,,,,,,,,,,,,53,,,,,,,,,,,,,,358.45900000000256,,response,,,,99,,,,,,,Space,keypress(Space),,,,,,,,---- -- ----- -- ------ a ------- --- ----------<br>------------- ------ ------ ---- ---- ------- ----- -- ----<br>-------- ------- -- ---------- --- - --- ----- ----- ----<br>---- --- --- ----- --- ---- ---- ------- ----- ---- -------<br>--- --- -- ----- -- --- ---- -- --- ---- -- ------ ------<br>--- ----- -- ----,153372.90000009537,153372.5,152997.389,152997.59999990463,153014.041,153380.988,,5,a
screen,html.Screen,2_1_0_1_6,2022-04-25T11:33:20.191Z,,,,,,,,,,,,,,,,,53,,,,,,,,,,,,,,419.81200019072276,,response,,,,99,,,,,,,Space,keypress(Space),,,,,,,,---- -- ----- -- ------ - lasting --- ----------<br>------------- ------ ------ ---- ---- ------- ----- -- ----<br>-------- ------- -- ---------- --- - --- ----- ----- ----<br>---- --- --- ----- --- ---- ---- ------- ----- ---- -------<br>--- --- -- ----- -- --- ---- -- --- ---- -- ------ ------<br>--- ----- -- ----,153801.5,153800.80000019073,153364.257,153373,153380.988,153814.067,,6,lasting
screen,html.Screen,2_1_0_1_7,2022-04-25T11:33:20.570Z,,,,,,,,,,,,,,,,,53,,,,,,,,,,,,,,366.03299990462256,,response,,,,99,,,,,,,Space,keypress(Space),,,,,,,,---- -- ----- -- ------ - ------- and ----------<br>------------- ------ ------ ---- ---- ------- ----- -- ----<br>-------- ------- -- ---------- --- - --- ----- ----- ----<br>---- --- --- ----- --- ---- ---- ------- ----- ---- -------<br>--- --- -- ----- -- --- ---- -- --- ---- -- ------ ------<br>--- ----- -- ----,154180.5,154180.09999990463,153797.406,153801.5,153814.067,154197.597,,7,and
screen,html.Screen,2_1_0_1_8,2022-04-25T11:33:21.055Z,,,,,,,,,,,,,,,,,53,,,,,,,,,,,,,,467.0029999046237,,response,,,,99,,,,,,,Space,keypress(Space),,,,,,,,---- -- ----- -- ------ - ------- --- fulfilling<br>------------- ------ ------ ---- ---- ------- ----- -- ----<br>-------- ------- -- ---------- --- - --- ----- ----- ----<br>---- --- --- ----- --- ---- ---- ------- ----- ---- -------<br>--- --- -- ----- -- --- ---- -- --- ---- -- ------ ------<br>--- ----- -- ----,154665.19999980927,154664.59999990463,154180.752,154180.59999990463,154197.597,154680.943,,8,fulfilling
screen,html.Screen,2_1_0_1_9,2022-04-25T11:33:21.479Z,,,,,,,,,,,,,,,,,53,,,,,,,,,,,,,,407.65699990463327,,response,,,,99,,,,,,,Space,keypress(Space),,,,,,,,"---- -- ----- -- ------ - ------- --- ----------<br>relationship, ------ ------ ---- ---- ------- ----- -- ----<br>-------- ------- -- ---------- --- - --- ----- ----- ----<br>---- --- --- ----- --- ---- ---- ------- ----- ---- -------<br>--- --- -- ----- -- --- ---- -- --- ---- -- ------ ------<br>--- ----- -- ----",155089,155088.59999990463,154664.088,154665.19999980927,154680.943,155097.691,,9,"relationship,"
screen,html.Screen,2_1_0_1_10,2022-04-25T11:33:21.903Z,,,,,,,,,,,,,,,,,53,,,,,,,,,,,,,,415.3090000000084,,response,,,,99,,,,,,,Space,keypress(Space),,,,,,,,---- -- ----- -- ------ - ------- --- ----------<br>------------- common ------ ---- ---- ------- ----- -- ----<br>-------- ------- -- ---------- --- - --- ----- ----- ----<br>---- --- --- ----- --- ---- ---- ------- ----- ---- -------<br>--- --- -- ----- -- --- ---- -- --- ---- -- ------ ------<br>--- ----- -- ----,155513.40000009537,155513,155080.95,155089.19999980927,155097.691,155531.701,,10,common
screen,html.Screen,2_1_0_1_11,2022-04-25T11:33:22.298Z,,,,,,,,,,,,,,,,,53,,,,,,,,,,,,,,375.89899990463164,,response,,,,99,,,,,,,Space,keypress(Space),,,,,,,,---- -- ----- -- ------ - ------- --- ----------<br>------------- ------ wisdom ---- ---- ------- ----- -- ----<br>-------- ------- -- ---------- --- - --- ----- ----- ----<br>---- --- --- ----- --- ---- ---- ------- ----- ---- -------<br>--- --- -- ----- -- --- ---- -- --- ---- -- ------ ------<br>--- ----- -- ----,155908.19999980927,155907.59999990463,155497.431,155513.40000009537,155531.701,155914.069,,11,wisdom
screen,html.Screen,2_1_0_1_12,2022-04-25T11:33:22.714Z,,,,,,,,,,,,,,,,,53,,,,,,,,,,,,,,409.13099980927655,,response,,,,99,,,,,,,Space,keypress(Space),,,,,,,,---- -- ----- -- ------ - ------- --- ----------<br>------------- ------ ------ says ---- ------- ----- -- ----<br>-------- ------- -- ---------- --- - --- ----- ----- ----<br>---- --- --- ----- --- ---- ---- ------- ----- ---- -------<br>--- --- -- ----- -- --- ---- -- --- ---- -- ------ ------<br>--- ----- -- ----,156323.69999980927,156323.19999980927,155897.399,155908.30000019073,155914.069,156330.89,,12,says
screen,html.Screen,2_1_0_1_13,2022-04-25T11:33:23.127Z,,,,,,,,,,,,,,,,,53,,,,,,,,,,,,,,405.2099999046186,,response,,,,99,,,,,,,Space,keypress(Space),,,,,,,,---- -- ----- -- ------ - ------- --- ----------<br>------------- ------ ------ ---- that ------- ----- -- ----<br>-------- ------- -- ---------- --- - --- ----- ----- ----<br>---- --- --- ----- --- ---- ---- ------- ----- ---- -------<br>--- --- -- ----- -- --- ---- -- --- ---- -- ------ ------<br>--- ----- -- ----,156736.59999990463,156736.09999990463,156314.086,156323.80000019073,156330.89,156747.71,,13,that
screen,html.Screen,2_1_0_1_14,2022-04-25T11:33:23.506Z,,,,,,,,,,,,,,,,,53,,,,,,,,,,,,,,367.6900000953756,,response,,,,99,,,,,,,Space,keypress(Space),,,,,,,,---- -- ----- -- ------ - ------- --- ----------<br>------------- ------ ------ ---- ---- feeling ----- -- ----<br>-------- ------- -- ---------- --- - --- ----- ----- ----<br>---- --- --- ----- --- ---- ---- ------- ----- ---- -------<br>--- --- -- ----- -- --- ---- -- --- ---- -- ------ ------<br>--- ----- -- ----,157115.80000019073,157115.40000009537,156730.765,156736.69999980927,156747.71,157130.792,,14,feeling
screen,html.Screen,2_1_0_1_15,2022-04-25T11:33:24.005Z,,,,,,,,,,,,,,,,,53,,,,,,,,,,,,,,484.00800019074813,,response,,,,99,,,,,,,Space,keypress(Space),,,,,,,,---- -- ----- -- ------ - ------- --- ----------<br>------------- ------ ------ ---- ---- ------- close -- ----<br>-------- ------- -- ---------- --- - --- ----- ----- ----<br>---- --- --- ----- --- ---- ---- ------- ----- ---- -------<br>--- --- -- ----- -- --- ---- -- --- ---- -- ------ ------<br>--- ----- -- ----,157615.30000019073,157614.80000019073,157114.102,157116,157130.792,157630.821,,15,close
screen,html.Screen,2_1_0_1_16,2022-04-25T11:33:24.370Z,,,,,,,,,,,,,,,,,53,,,,,,,,,,,,,,348.4790001907386,,response,,,,99,,,,,,,Space,keypress(Space),,,,,,,,---- -- ----- -- ------ - ------- --- ----------<br>------------- ------ ------ ---- ---- ------- ----- to ----<br>-------- ------- -- ---------- --- - --- ----- ----- ----<br>---- --- --- ----- --- ---- ---- ------- ----- ---- -------<br>--- --- -- ----- -- --- ---- -- --- ---- -- ------ ------<br>--- ----- -- ----,157979.69999980927,157979.30000019073,157614.079,157615.40000009537,157630.821,157998.08,,16,to
screen,html.Screen,2_1_0_1_17,2022-04-25T11:33:24.770Z,,,,,,,,,,,,,,,,,53,,,,,,,,,,,,,,381.9200000000128,,response,,,,99,,,,,,,Space,keypress(Space),,,,,,,,---- -- ----- -- ------ - ------- --- ----------<br>------------- ------ ------ ---- ---- ------- ----- -- your<br>-------- ------- -- ---------- --- - --- ----- ----- ----<br>---- --- --- ----- --- ---- ---- ------- ----- ---- -------<br>--- --- -- ----- -- --- ---- -- --- ---- -- ------ ------<br>--- ----- -- ----,158380.5,158380,157964.086,157979.80000019073,157998.08,158397.463,,17,your
screen,html.Screen,2_1_0_1_18,2022-04-25T11:33:25.209Z,,,,,,,,,,,,,,,,,53,,,,,,,,,,,,,,420.63699990464374,,response,,,,99,,,,,,,Space,keypress(Space),,,,,,,,---- -- ----- -- ------ - ------- --- ----------<br>------------- ------ ------ ---- ---- ------- ----- -- ----<br>romantic ------- -- ---------- --- - --- ----- ----- ----<br>---- --- --- ----- --- ---- ---- ------- ----- ---- -------<br>--- --- -- ----- -- --- ---- -- --- ---- -- ------ ------<br>--- ----- -- ----,158818.69999980927,158818.09999990463,158380.79,158380.59999990463,158397.463,158831.272,,18,romantic
screen,html.Screen,2_1_0_1_19,2022-04-25T11:33:25.613Z,,,,,,,,,,,,,,,,,53,,,,,,,,,,,,,,391.02800019073766,,response,,,,99,,,,,,,Space,keypress(Space),,,,,,,,---- -- ----- -- ------ - ------- --- ----------<br>------------- ------ ------ ---- ---- ------- ----- -- ----<br>-------- partner -- ---------- --- - --- ----- ----- ----<br>---- --- --- ----- --- ---- ---- ------- ----- ---- -------<br>--- --- -- ----- -- --- ---- -- --- ---- -- ------ ------<br>--- ----- -- ----,159222.80000019073,159222.30000019073,158814.079,158818.69999980927,158831.272,159231.065,,19,partner
screen,html.Screen,2_1_0_1_20,2022-04-25T11:33:26.012Z,,,,,,,,,,,,,,,,,53,,,,,,,,,,,,,,390.8350000953651,,response,,,,99,,,,,,,Space,keypress(Space),,,,,,,,---- -- ----- -- ------ - ------- --- ----------<br>------------- ------ ------ ---- ---- ------- ----- -- ----<br>-------- ------- is ---------- --- - --- ----- ----- ----<br>---- --- --- ----- --- ---- ---- ------- ----- ---- -------<br>--- --- -- ----- -- --- ---- -- --- ---- -- ------ ------<br>--- ----- -- ----,159622.30000019073,159621.90000009537,159214.202,159222.90000009537,159231.065,159630.834,,20,is
screen,html.Screen,2_1_0_1_21,2022-04-25T11:33:26.417Z,,,,,,,,,,,,,,,,,53,,,,,,,,,,,,,,395.3659998092626,,response,,,,99,,,,,,,Space,keypress(Space),,,,,,,,---- -- ----- -- ------ - ------- --- ----------<br>------------- ------ ------ ---- ---- ------- ----- -- ----<br>-------- ------- -- paramount. --- - --- ----- ----- ----<br>---- --- --- ----- --- ---- ---- ------- ----- ---- -------<br>--- --- -- ----- -- --- ---- -- --- ---- -- ------ ------<br>--- ----- -- ----,160026.69999980927,160026.19999980927,159614.319,159622.40000009537,159630.834,160030.768,,21,paramount.
screen,html.Screen,2_1_0_1_22,2022-04-25T11:33:26.866Z,,,,,,,,,,,,,,,,,53,,,,,,,,,,,,,,444.5320001907239,,response,,,,99,,,,,,,Space,keypress(Space),,,,,,,,---- -- ----- -- ------ - ------- --- ----------<br>------------- ------ ------ ---- ---- ------- ----- -- ----<br>-------- ------- -- ---------- But - --- ----- ----- ----<br>---- --- --- ----- --- ---- ---- ------- ----- ---- -------<br>--- --- -- ----- -- --- ---- -- --- ---- -- ------ ------<br>--- ----- -- ----,160475.69999980927,160475.30000019073,160014.122,160026.80000019073,160030.768,160481.141,,22,But
screen,html.Screen,2_1_0_1_23,2022-04-25T11:33:27.310Z,,,,,,,,,,,,,,,,,53,,,,,,,,,,,,,,438.5589998092619,,response,,,,99,,,,,,,Space,keypress(Space),,,,,,,,---- -- ----- -- ------ - ------- --- ----------<br>------------- ------ ------ ---- ---- ------- ----- -- ----<br>-------- ------- -- ---------- --- a --- ----- ----- ----<br>---- --- --- ----- --- ---- ---- ------- ----- ---- -------<br>--- --- -- ----- -- --- ---- -- --- ---- -- ------ ------<br>--- ----- -- ----,160920.09999990463,160919.69999980927,160464.147,160475.80000019073,160481.141,160930.927,,23,a
screen,html.Screen,2_1_0_1_24,2022-04-25T11:33:27.715Z,,,,,,,,,,,,,,,,,53,,,,,,,,,,,,,,392.57300000000396,,response,,,,99,,,,,,,Space,keypress(Space),,,,,,,,---- -- ----- -- ------ - ------- --- ----------<br>------------- ------ ------ ---- ---- ------- ----- -- ----<br>-------- ------- -- ---------- --- - new ----- ----- ----<br>---- --- --- ----- --- ---- ---- ------- ----- ---- -------<br>--- --- -- ----- -- --- ---- -- --- ---- -- ------ ------<br>--- ----- -- ----,161325,161323.5,160914.426,160920.09999990463,160930.927,161330.858,,24,new
screen,html.Screen,2_1_0_1_25,2022-04-25T11:33:28.059Z,,,,,,,,,,,,,,,,,53,,,,,,,,,,,,,,338.14199999999255,,response,,,,99,,,,,,,Space,keypress(Space),,,,,,,,---- -- ----- -- ------ - ------- --- ----------<br>------------- ------ ------ ---- ---- ------- ----- -- ----<br>-------- ------- -- ---------- --- - --- study ----- ----<br>---- --- --- ----- --- ---- ---- ------- ----- ---- -------<br>--- --- -- ----- -- --- ---- -- --- ---- -- ------ ------<br>--- ----- -- ----,161669.5,161669,161314.349,161325.30000019073,161330.858,161680.853,,25,study
screen,html.Screen,2_1_0_1_26,2022-04-25T11:33:28.503Z,,,,,,,,,,,,,,,,,53,,,,,,,,,,,,,,431.94700019073207,,response,,,,99,,,,,,,Space,keypress(Space),,,,,,,,---- -- ----- -- ------ - ------- --- ----------<br>------------- ------ ------ ---- ---- ------- ----- -- ----<br>-------- ------- -- ---------- --- - --- ----- finds ----<br>---- --- --- ----- --- ---- ---- ------- ----- ---- -------<br>--- --- -- ----- -- --- ---- -- --- ---- -- ------ ------<br>--- ----- -- ----,162113.19999980927,162112.80000019073,161664.154,161669.5,161680.853,162138.4,,26,finds
screen,html.Screen,2_1_0_1_27,2022-04-25T11:33:28.887Z,,,,,,,,,,,,,,,,,53,,,,,,,,,,,,,,359.1000000000058,,response,,,,99,,,,,,,Space,keypress(Space),,,,,,,,---- -- ----- -- ------ - ------- --- ----------<br>------------- ------ ------ ---- ---- ------- ----- -- ----<br>-------- ------- -- ---------- --- - --- ----- ----- that<br>---- --- --- ----- --- ---- ---- ------- ----- ---- -------<br>--- --- -- ----- -- --- ---- -- --- ---- -- ------ ------<br>--- ----- -- ----,162498,162497.5,162097.531,162113.30000019073,162138.4,162514.177,,27,that
screen,html.Screen,2_1_0_1_28,2022-04-25T11:33:29.312Z,,,,,,,,,,,,,,,,,53,,,,,,,,,,,,,,407.4229999046365,,response,,,,99,,,,,,,Space,keypress(Space),,,,,,,,---- -- ----- -- ------ - ------- --- ----------<br>------------- ------ ------ ---- ---- ------- ----- -- ----<br>-------- ------- -- ---------- --- - --- ----- ----- ----<br>it's --- --- ----- --- ---- ---- ------- ----- ---- -------<br>--- --- -- ----- -- --- ---- -- --- ---- -- ------ ------<br>--- ----- -- ----,162922,162921.59999990463,162497.52,162498.09999990463,162514.177,162930.857,,28,it's
screen,html.Screen,2_1_0_1_29,2022-04-25T11:33:29.631Z,,,,,,,,,,,,,,,,,53,,,,,,,,,,,,,,310.3429998092761,,response,,,,99,,,,,,,Space,keypress(Space),,,,,,,,---- -- ----- -- ------ - ------- --- ----------<br>------------- ------ ------ ---- ---- ------- ----- -- ----<br>-------- ------- -- ---------- --- - --- ----- ----- ----<br>---- not --- ----- --- ---- ---- ------- ----- ---- -------<br>--- --- -- ----- -- --- ---- -- --- ---- -- ------ ------<br>--- ----- -- ----,163241.59999990463,163241.19999980927,162914.24,162922.09999990463,162930.857,163247.828,,29,not
screen,html.Screen,2_1_0_1_30,2022-04-25T11:33:30.065Z,,,,,,,,,,,,,,,,,53,,,,,,,,,,,,,,427.47200019072625,,response,,,,99,,,,,,,Space,keypress(Space),,,,,,,,---- -- ----- -- ------ - ------- --- ----------<br>------------- ------ ------ ---- ---- ------- ----- -- ----<br>-------- ------- -- ---------- --- - --- ----- ----- ----<br>---- --- how ----- --- ---- ---- ------- ----- ---- -------<br>--- --- -- ----- -- --- ---- -- --- ---- -- ------ ------<br>--- ----- -- ----,163675.80000019073,163675.30000019073,163230.831,163241.80000019073,163247.828,163680.825,,30,how
screen,html.Screen,2_1_0_1_31,2022-04-25T11:33:30.445Z,,,,,,,,,,,,,,,,,53,,,,,,,,,,,,,,374.4750001907232,,response,,,,99,,,,,,,Space,keypress(Space),,,,,,,,---- -- ----- -- ------ - ------- --- ----------<br>------------- ------ ------ ---- ---- ------- ----- -- ----<br>-------- ------- -- ---------- --- - --- ----- ----- ----<br>---- --- --- close --- ---- ---- ------- ----- ---- -------<br>--- --- -- ----- -- --- ---- -- --- ---- -- ------ ------<br>--- ----- -- ----,164055.80000019073,164055.30000019073,163664.227,163676.5,163680.825,164064.286,,31,close
screen,html.Screen,2_1_0_1_32,2022-04-25T11:33:30.859Z,,,,,,,,,,,,,,,,,53,,,,,,,,,,,,,,404.91399980927235,,response,,,,99,,,,,,,Space,keypress(Space),,,,,,,,---- -- ----- -- ------ - ------- --- ----------<br>------------- ------ ------ ---- ---- ------- ----- -- ----<br>-------- ------- -- ---------- --- - --- ----- ----- ----<br>---- --- --- ----- you ---- ---- ------- ----- ---- -------<br>--- --- -- ----- -- --- ---- -- --- ---- -- ------ ------<br>--- ----- -- ----,164469.59999990463,164469.19999980927,164047.505,164055.80000019073,164064.286,164480.9,,32,you
screen,html.Screen,2_1_0_1_33,2022-04-25T11:33:31.239Z,,,,,,,,,,,,,,,,,53,,,,,,,,,,,,,,367.79999980927096,,response,,,,99,,,,,,,Space,keypress(Space),,,,,,,,---- -- ----- -- ------ - ------- --- ----------<br>------------- ------ ------ ---- ---- ------- ----- -- ----<br>-------- ------- -- ---------- --- - --- ----- ----- ----<br>---- --- --- ----- --- feel ---- ------- ----- ---- -------<br>--- --- -- ----- -- --- ---- -- --- ---- -- ------ ------<br>--- ----- -- ----,164849,164848.69999980927,164464.238,164469.69999980927,164480.9,164864.256,,33,feel
screen,html.Screen,2_1_0_1_34,2022-04-25T11:33:31.558Z,,,,,,,,,,,,,,,,,53,,,,,,,,,,,,,,304.1440000953735,,response,,,,99,,,,,,,Space,keypress(Space),,,,,,,,---- -- ----- -- ------ - ------- --- ----------<br>------------- ------ ------ ---- ---- ------- ----- -- ----<br>-------- ------- -- ---------- --- - --- ----- ----- ----<br>---- --- --- ----- --- ---- that ------- ----- ---- -------<br>--- --- -- ----- -- --- ---- -- --- ---- -- ------ ------<br>--- ----- -- ----,165168.80000019073,165168.40000009537,164847.567,164849.09999990463,164864.256,165180.908,,34,that
screen,html.Screen,2_1_0_1_35,2022-04-25T11:33:32.002Z,,,,,,,,,,,,,,,,,53,,,,,,,,,,,,,,431.39200019073905,,response,,,,99,,,,,,,Space,keypress(Space),,,,,,,,---- -- ----- -- ------ - ------- --- ----------<br>------------- ------ ------ ---- ---- ------- ----- -- ----<br>-------- ------- -- ---------- --- - --- ----- ----- ----<br>---- --- --- ----- --- ---- ---- matters ----- ---- -------<br>--- --- -- ----- -- --- ---- -- --- ---- -- ------ ------<br>--- ----- -- ----,165612.59999990463,165612.30000019073,165164.19,165168.90000009537,165180.908,165614.213,,35,matters
screen,html.Screen,2_1_0_1_36,2022-04-25T11:33:32.362Z,,,,,,,,,,,,,,,,,53,,,,,,,,,,,,,,357.88699990464374,,response,,,,99,,,,,,,Space,keypress(Space),,,,,,,,"---- -- ----- -- ------ - ------- --- ----------<br>------------- ------ ------ ---- ---- ------- ----- -- ----<br>-------- ------- -- ---------- --- - --- ----- ----- ----<br>---- --- --- ----- --- ---- ---- ------- most, ---- -------<br>--- --- -- ----- -- --- ---- -- --- ---- -- ------ ------<br>--- ----- -- ----",165972.59999990463,165972.09999990463,165597.584,165612.69999980927,165614.213,165980.904,,36,"most,"
screen,html.Screen,2_1_0_1_37,2022-04-25T11:33:32.826Z,,,,,,,,,,,,,,,,,53,,,,,,,,,,,,,,455.59599999999045,,response,,,,99,,,,,,,Space,keypress(Space),,,,,,,,---- -- ----- -- ------ - ------- --- ----------<br>------------- ------ ------ ---- ---- ------- ----- -- ----<br>-------- ------- -- ---------- --- - --- ----- ----- ----<br>---- --- --- ----- --- ---- ---- ------- ----- it's -------<br>--- --- -- ----- -- --- ---- -- --- ---- -- ------ ------<br>--- ----- -- ----,166436.90000009537,166436.5,165964.258,165972.80000019073,165980.904,166447.879,,37,it's
screen,html.Screen,2_1_0_1_38,2022-04-25T11:33:33.246Z,,,,,,,,,,,,,,,,,53,,,,,,,,,,,,,,407.62100000001374,,response,,,,99,,,,,,,Space,keypress(Space),,,,,,,,---- -- ----- -- ------ - ------- --- ----------<br>------------- ------ ------ ---- ---- ------- ----- -- ----<br>-------- ------- -- ---------- --- - --- ----- ----- ----<br>---- --- --- ----- --- ---- ---- ------- ----- ---- whether<br>--- --- -- ----- -- --- ---- -- --- ---- -- ------ ------<br>--- ----- -- ----,166856,166855.5,166430.972,166437,166447.879,166864.705,,38,whether
screen,html.Screen,2_1_0_1_39,2022-04-25T11:33:33.660Z,,,,,,,,,,,,,,,,,53,,,,,,,,,,,,,,405.3949999046454,,response,,,,99,,,,,,,Space,keypress(Space),,,,,,,,---- -- ----- -- ------ - ------- --- ----------<br>------------- ------ ------ ---- ---- ------- ----- -- ----<br>-------- ------- -- ---------- --- - --- ----- ----- ----<br>---- --- --- ----- --- ---- ---- ------- ----- ---- -------<br>you --- -- ----- -- --- ---- -- --- ---- -- ------ ------<br>--- ----- -- ----,167270.5,167270.09999990463,166847.549,166856.09999990463,166864.705,167281.437,,39,you
screen,html.Screen,2_1_0_1_40,2022-04-25T11:33:34.064Z,,,,,,,,,,,,,,,,,53,,,,,,,,,,,,,,392.9630000953621,,response,,,,99,,,,,,,Space,keypress(Space),,,,,,,,---- -- ----- -- ------ - ------- --- ----------<br>------------- ------ ------ ---- ---- ------- ----- -- ----<br>-------- ------- -- ---------- --- - --- ----- ----- ----<br>---- --- --- ----- --- ---- ---- ------- ----- ---- -------<br>--- are -- ----- -- --- ---- -- --- ---- -- ------ ------<br>--- ----- -- ----,167674.80000019073,167674.40000009537,167264.28,167270.5,167281.437,167681.287,,40,are
screen,html.Screen,2_1_0_1_41,2022-04-25T11:33:34.449Z,,,,,,,,,,,,,,,,,53,,,,,,,,,,,,,,377.41299980925396,,response,,,,99,,,,,,,Space,keypress(Space),,,,,,,,---- -- ----- -- ------ - ------- --- ----------<br>------------- ------ ------ ---- ---- ------- ----- -- ----<br>-------- ------- -- ---------- --- - --- ----- ----- ----<br>---- --- --- ----- --- ---- ---- ------- ----- ---- -------<br>--- --- as ----- -- --- ---- -- --- ---- -- ------ ------<br>--- ----- -- ----,168059.19999980927,168058.69999980927,167664.286,167674.80000019073,167681.287,168064.224,,41,as
screen,html.Screen,2_1_0_1_42,2022-04-25T11:33:34.893Z,,,,,,,,,,,,,,,,,53,,,,,,,,,,,,,,438.87599990464514,,response,,,,99,,,,,,,Space,keypress(Space),,,,,,,,---- -- ----- -- ------ - ------- --- ----------<br>------------- ------ ------ ---- ---- ------- ----- -- ----<br>-------- ------- -- ---------- --- - --- ----- ----- ----<br>---- --- --- ----- --- ---- ---- ------- ----- ---- -------<br>--- --- -- close -- --- ---- -- --- ---- -- ------ ------<br>--- ----- -- ----,168503.5,168503.09999990463,168047.643,168059.19999980927,168064.224,168514.296,,42,close
screen,html.Screen,2_1_0_1_43,2022-04-25T11:33:35.268Z,,,,,,,,,,,,,,,,,53,,,,,,,,,,,,,,363.3039999046305,,response,,,,99,,,,,,,Space,keypress(Space),,,,,,,,---- -- ----- -- ------ - ------- --- ----------<br>------------- ------ ------ ---- ---- ------- ----- -- ----<br>-------- ------- -- ---------- --- - --- ----- ----- ----<br>---- --- --- ----- --- ---- ---- ------- ----- ---- -------<br>--- --- -- ----- as --- ---- -- --- ---- -- ------ ------<br>--- ----- -- ----,168878.09999990463,168877.59999990463,168497.68,168503.59999990463,168514.296,168880.937,,43,as
screen,html.Screen,2_1_0_1_44,2022-04-25T11:33:35.647Z,,,,,,,,,,,,,,,,,53,,,,,,,,,,,,,,375.9630000953621,,response,,,,99,,,,,,,Space,keypress(Space),,,,,,,,---- -- ----- -- ------ - ------- --- ----------<br>------------- ------ ------ ---- ---- ------- ----- -- ----<br>-------- ------- -- ---------- --- - --- ----- ----- ----<br>---- --- --- ----- --- ---- ---- ------- ----- ---- -------<br>--- --- -- ----- -- you ---- -- --- ---- -- ------ ------<br>--- ----- -- ----,169257.30000019073,169256.90000009537,168864.249,168878.30000019073,168880.937,169264.262,,44,you
screen,html.Screen,2_1_0_1_45,2022-04-25T11:33:36.057Z,,,,,,,,,,,,,,,,,53,,,,,,,,,,,,,,401.8379999046447,,response,,,,99,,,,,,,Space,keypress(Space),,,,,,,,---- -- ----- -- ------ - ------- --- ----------<br>------------- ------ ------ ---- ---- ------- ----- -- ----<br>-------- ------- -- ---------- --- - --- ----- ----- ----<br>---- --- --- ----- --- ---- ---- ------- ----- ---- -------<br>--- --- -- ----- -- --- want -- --- ---- -- ------ ------<br>--- ----- -- ----,169667.30000019073,169666.09999990463,169247.93,169257.40000009537,169264.262,169680.973,,45,want
screen,html.Screen,2_1_0_1_46,2022-04-25T11:33:36.419Z,,,,,,,,,,,,,,,,,53,,,,,,,,,,,,,,346.3270001907367,,response,,,,99,,,,,,,Space,keypress(Space),,,,,,,,---- -- ----- -- ------ - ------- --- ----------<br>------------- ------ ------ ---- ---- ------- ----- -- ----<br>-------- ------- -- ---------- --- - --- ----- ----- ----<br>---- --- --- ----- --- ---- ---- ------- ----- ---- -------<br>--- --- -- ----- -- --- ---- to --- ---- -- ------ ------<br>--- ----- -- ----,170029.59999990463,170027.30000019073,169664.278,169667.80000019073,169680.973,170064.318,,46,to
screen,html.Screen,2_1_0_1_47,2022-04-25T11:33:36.843Z,,,,,,,,,,,,,,,,,53,,,,,,,,,,,,,,387.1820000000007,,response,,,,99,,,,,,,Space,keypress(Space),,,,,,,,"---- -- ----- -- ------ - ------- --- ----------<br>------------- ------ ------ ---- ---- ------- ----- -- ----<br>-------- ------- -- ---------- --- - --- ----- ----- ----<br>---- --- --- ----- --- ---- ---- ------- ----- ---- -------<br>--- --- -- ----- -- --- ---- -- be, ---- -- ------ ------<br>--- ----- -- ----",170453,170451.5,170062.8,170029.90000009537,170064.318,170464.311,,47,"be,"
screen,html.Screen,2_1_0_1_48,2022-04-25T11:33:37.173Z,,,,,,,,,,,,,,,,,53,,,,,,,,,,,,,,317.18900000001304,,response,,,,99,,,,,,,Space,keypress(Space),,,,,,,,---- -- ----- -- ------ - ------- --- ----------<br>------------- ------ ------ ---- ---- ------- ----- -- ----<br>-------- ------- -- ---------- --- - --- ----- ----- ----<br>---- --- --- ----- --- ---- ---- ------- ----- ---- -------<br>--- --- -- ----- -- --- ---- -- --- even -- ------ ------<br>--- ----- -- ----,170783.5,170781.5,170447.654,170453.30000019073,170464.311,170797.647,,48,even
screen,html.Screen,2_1_0_1_49,2022-04-25T11:33:37.669Z,,,,,,,,,,,,,,,,,53,,,,,,,,,,,,,,481.05299980926793,,response,,,,99,,,,,,,Space,keypress(Space),,,,,,,,---- -- ----- -- ------ - ------- --- ----------<br>------------- ------ ------ ---- ---- ------- ----- -- ----<br>-------- ------- -- ---------- --- - --- ----- ----- ----<br>---- --- --- ----- --- ---- ---- ------- ----- ---- -------<br>--- --- -- ----- -- --- ---- -- --- ---- if ------ ------<br>--- ----- -- ----,171279.19999980927,171278.69999980927,170780.946,170783.90000009537,170797.647,171281.081,,49,if
screen,html.Screen,2_1_0_1_50,2022-04-25T11:33:37.978Z,,,,,,,,,,,,,,,,,53,,,,,,,,,,,,,,307.11899980925955,,response,,,,99,,,,,,,Space,keypress(Space),,,,,,,,---- -- ----- -- ------ - ------- --- ----------<br>------------- ------ ------ ---- ---- ------- ----- -- ----<br>-------- ------- -- ---------- --- - --- ----- ----- ----<br>---- --- --- ----- --- ---- ---- ------- ----- ---- -------<br>--- --- -- ----- -- --- ---- -- --- ---- -- that's ------<br>--- ----- -- ----,171588.69999980927,171588.19999980927,171264.328,171279.30000019073,171281.081,171597.662,,50,that's
screen,html.Screen,2_1_0_1_51,2022-04-25T11:33:38.403Z,,,,,,,,,,,,,,,,,53,,,,,,,,,,,,,,415.23800009535626,,response,,,,99,,,,,,,Space,keypress(Space),,,,,,,,---- -- ----- -- ------ - ------- --- ----------<br>------------- ------ ------ ---- ---- ------- ----- -- ----<br>-------- ------- -- ---------- --- - --- ----- ----- ----<br>---- --- --- ----- --- ---- ---- ------- ----- ---- -------<br>--- --- -- ----- -- --- ---- -- --- ---- -- ------ really<br>--- ----- -- ----,172013.69999980927,172012.90000009537,171580.947,171588.80000019073,171597.662,172031.079,,51,really
screen,html.Screen,2_1_0_1_52,2022-04-25T11:33:38.794Z,,,,,,,,,,,,,,,,,53,,,,,,,,,,,,,,370.9210000000021,,response,,,,99,,,,,,,Space,keypress(Space),,,,,,,,---- -- ----- -- ------ - ------- --- ----------<br>------------- ------ ------ ---- ---- ------- ----- -- ----<br>-------- ------- -- ---------- --- - --- ----- ----- ----<br>---- --- --- ----- --- ---- ---- ------- ----- ---- -------<br>--- --- -- ----- -- --- ---- -- --- ---- -- ------ ------<br>not ----- -- ----,172404.40000009537,172402,171997.89,172013.80000019073,172031.079,172414.48,,52,not
screen,html.Screen,2_1_0_1_53,2022-04-25T11:33:39.192Z,,,,,,,,,,,,,,,,,53,,,,,,,,,,,,,,387.1199999046221,,response,,,,99,,,,,,,Space,keypress(Space),,,,,,,,---- -- ----- -- ------ - ------- --- ----------<br>------------- ------ ------ ---- ---- ------- ----- -- ----<br>-------- ------- -- ---------- --- - --- ----- ----- ----<br>---- --- --- ----- --- ---- ---- ------- ----- ---- -------<br>--- --- -- ----- -- --- ---- -- --- ---- -- ------ ------<br>--- close -- ----,172802.59999990463,172801.59999990463,172397.973,172404.90000009537,172414.48,172814.325,,53,close
screen,html.Screen,2_1_0_1_54,2022-04-25T11:33:39.556Z,,,,,,,,,,,,,,,,,53,,,,,,,,,,,,,,351.4750001907232,,response,,,,99,,,,,,,Space,keypress(Space),,,,,,,,---- -- ----- -- ------ - ------- --- ----------<br>------------- ------ ------ ---- ---- ------- ----- -- ----<br>-------- ------- -- ---------- --- - --- ----- ----- ----<br>---- --- --- ----- --- ---- ---- ------- ----- ---- -------<br>--- --- -- ----- -- --- ---- -- --- ---- -- ------ ------<br>--- ----- at ----,173166.30000019073,173165.80000019073,172797.63,172803.09999990463,172814.325,173180.999,,54,at
screen,html.Screen,2_1_0_1_55,2022-04-25T11:33:40.270Z,,,,,,,,,,,,,,,,,53,,,,,,,,,,,,,,698.7009998092544,,response,,,,99,,,,,,,Space,keypress(Space),,,,,,,,---- -- ----- -- ------ - ------- --- ----------<br>------------- ------ ------ ---- ---- ------- ----- -- ----<br>-------- ------- -- ---------- --- - --- ----- ----- ----<br>---- --- --- ----- --- ---- ---- ------- ----- ---- -------<br>--- --- -- ----- -- --- ---- -- --- ---- -- ------ ------<br>--- ----- -- all.,173880.30000019073,173879.69999980927,173164.32,173166.30000019073,173180.999,173898.115,,55,all.
Item 99,flow.Loop,2_1_0_1,2022-04-25T11:33:40.270Z,,,,,,,,,,,,,,,,,,,,,,,,,,,,,,,23282.352999809256,,completion,,,,,A,,,,,,,,,,,silence,,,,,173880.40000009537,173879.69999980927,150580.69,150581.19999980927,150597.347,173898.115,,,
Question 1,html.Screen,2_1_0_2,2022-04-25T11:33:44.593Z,,,,,,,,,,,,,,,,,,,,,,,,,,,,true,FALSE,,4304.484999904642,,response,,,,99,A,,,,,,FALSE,click #choice-2,,,,silence,,,,,178203.40000009537,178202.59999990463,173880.976,173880.5,173898.115,178214.413,,,
Question 2,html.Screen,2_1_0_3,2022-04-25T11:33:48.835Z,,,,,,,,,,,,,,,,,,,,,,,,,,,,true,TRUE,,4230.286999809265,,response,,,,99,A,,,,,,TRUE,click #choice-1,,,,silence,,,,,182445.59999990463,182444.69999980927,178197.71,178203.5,178214.413,182448.145,,,
Item 99,flow.Sequence,2_1_0,2022-04-25T11:33:48.835Z,,,,,,,,,,,,,,,,,,,,,,,,,,,,,,,41847.27099980926,,completion,,,,,,,,,,,,,,,,,,,,,182445.69999980927,182444.69999980927,140580.503,140586.19999980927,140597.429,182448.145,,,
Holding screen,html.Screen,2_1_1_0,2022-04-25T11:33:58.822Z,,,,,,,,,,,,,,,,,,,,,,,,,,,,,,,9999.95200000002,,timeout,,,,,,,,,,,,,,,,,,,,,192432,192431.391,182431.148,182445.80000019073,182448.145,192448.097,,,
screen,html.Screen,2_1_1_1_0,2022-04-25T11:33:59.381Z,,,,,,,,,,,,,,,,,54,,,,,,,,,,,,,,542.4029999999912,,response,,,,100,,,,,,,Space,keypress(Space),,,,,,,,At --- ---- --- ------ ----- ------- ---- -- --- ------- --<br>------- ---------- ------ -- ----- -- ----- -- ---- ------<br>--- ----- --- --- ------ -------- ----- --- ------ ----- --<br>----- ----- ---------- --- --- ------ ------ ---- -- ------<br>------- --- ------ ----- --- ---- ------- -- ---- --- --<br>------- ------,192991.09999990463,192990.5,192431.391,192432.19999980927,192448.097,192998.023,,0,At
screen,html.Screen,2_1_1_1_1,2022-04-25T11:33:59.805Z,,,,,,,,,,,,,,,,,54,,,,,,,,,,,,,,416.77700019074837,,response,,,,100,,,,,,,Space,keypress(Space),,,,,,,,-- the ---- --- ------ ----- ------- ---- -- --- ------- --<br>------- ---------- ------ -- ----- -- ----- -- ---- ------<br>--- ----- --- --- ------ -------- ----- --- ------ ----- --<br>----- ----- ---------- --- --- ------ ------ ---- -- ------<br>------- --- ------ ----- --- ---- ------- -- ---- --- --<br>------- ------,193415.5,193414.80000019073,192981.298,192991.30000019073,192998.023,193431.53,,1,the
screen,html.Screen,2_1_1_1_2,2022-04-25T11:34:00.183Z,,,,,,,,,,,,,,,,,54,,,,,,,,,,,,,,361.97000000000116,,response,,,,100,,,,,,,Space,keypress(Space),,,,,,,,-- --- time --- ------ ----- ------- ---- -- --- ------- --<br>------- ---------- ------ -- ----- -- ----- -- ---- ------<br>--- ----- --- --- ------ -------- ----- --- ------ ----- --<br>----- ----- ---------- --- --- ------ ------ ---- -- ------<br>------- --- ------ ----- --- ---- ------- -- ---- --- --<br>------- ------,193793.90000009537,193793.5,193414.697,193415.69999980927,193431.53,193798.037,,2,time
screen,html.Screen,2_1_1_1_3,2022-04-25T11:34:00.559Z,,,,,,,,,,,,,,,,,54,,,,,,,,,,,,,,370.5629999046214,,response,,,,100,,,,,,,Space,keypress(Space),,,,,,,,-- --- ---- the ------ ----- ------- ---- -- --- ------- --<br>------- ---------- ------ -- ----- -- ----- -- ---- ------<br>--- ----- --- --- ------ -------- ----- --- ------ ----- --<br>----- ----- ---------- --- --- ------ ------ ---- -- ------<br>------- --- ------ ----- --- ---- ------- -- ---- --- --<br>------- ------,194169.30000019073,194168.59999990463,193781.676,193793.90000009537,193798.037,194181.378,,3,the
screen,html.Screen,2_1_1_1_4,2022-04-25T11:34:00.972Z,,,,,,,,,,,,,,,,,54,,,,,,,,,,,,,,401.02200009537046,,response,,,,100,,,,,,,Space,keypress(Space),,,,,,,,-- --- ---- --- French ----- ------- ---- -- --- ------- --<br>------- ---------- ------ -- ----- -- ----- -- ---- ------<br>--- ----- --- --- ------ -------- ----- --- ------ ----- --<br>----- ----- ---------- --- --- ------ ------ ---- -- ------<br>------- --- ------ ----- --- ---- ------- -- ---- --- --<br>------- ------,194582.69999980927,194582.40000009537,194164.653,194169.40000009537,194181.378,194598.178,,4,French
screen,html.Screen,2_1_1_1_5,2022-04-25T11:34:01.342Z,,,,,,,,,,,,,,,,,54,,,,,,,,,,,,,,353.722000095353,,response,,,,100,,,,,,,Space,keypress(Space),,,,,,,,-- --- ---- --- ------ crown ------- ---- -- --- ------- --<br>------- ---------- ------ -- ----- -- ----- -- ---- ------<br>--- ----- --- --- ------ -------- ----- --- ------ ----- --<br>----- ----- ---------- --- --- ------ ------ ---- -- ------<br>------- --- ------ ----- --- ---- ------- -- ---- --- --<br>------- ------,194952.40000009537,194951.90000009537,194581.717,194582.80000019073,194598.178,194964.733,,5,crown
screen,html.Screen,2_1_1_1_6,2022-04-25T11:34:01.766Z,,,,,,,,,,,,,,,,,54,,,,,,,,,,,,,,411.4669998092577,,response,,,,100,,,,,,,Space,keypress(Space),,,,,,,,-- --- ---- --- ------ ----- secured ---- -- --- ------- --<br>------- ---------- ------ -- ----- -- ----- -- ---- ------<br>--- ----- --- --- ------ -------- ----- --- ------ ----- --<br>----- ----- ---------- --- --- ------ ------ ---- -- ------<br>------- --- ------ ----- --- ---- ------- -- ---- --- --<br>------- ------,195377,195376.19999980927,194948.425,194952.5,194964.733,195381.35,,6,secured
screen,html.Screen,2_1_1_1_7,2022-04-25T11:34:02.156Z,,,,,,,,,,,,,,,,,54,,,,,,,,,,,,,,384.45000019072904,,response,,,,100,,,,,,,Space,keypress(Space),,,,,,,,-- --- ---- --- ------ ----- ------- much -- --- ------- --<br>------- ---------- ------ -- ----- -- ----- -- ---- ------<br>--- ----- --- --- ------ -------- ----- --- ------ ----- --<br>----- ----- ---------- --- --- ------ ------ ---- -- ------<br>------- --- ------ ----- --- ---- ------- -- ---- --- --<br>------- ------,195766.40000009537,195765.80000019073,195364.663,195377,195381.35,195781.435,,7,much
screen,html.Screen,2_1_1_1_8,2022-04-25T11:34:02.540Z,,,,,,,,,,,,,,,,,54,,,,,,,,,,,,,,368.6649999046349,,response,,,,100,,,,,,,Space,keypress(Space),,,,,,,,-- --- ---- --- ------ ----- ------- ---- of --- ------- --<br>------- ---------- ------ -- ----- -- ----- -- ---- ------<br>--- ----- --- --- ------ -------- ----- --- ------ ----- --<br>----- ----- ---------- --- --- ------ ------ ---- -- ------<br>------- --- ------ ----- --- ---- ------- -- ---- --- --<br>------- ------,196150.80000019073,196150.09999990463,195764.654,195766.40000009537,195781.435,196164.89,,8,of
screen,html.Screen,2_1_1_1_9,2022-04-25T11:34:02.904Z,,,,,,,,,,,,,,,,,54,,,,,,,,,,,,,,349.4100001907209,,response,,,,100,,,,,,,Space,keypress(Space),,,,,,,,-- --- ---- --- ------ ----- ------- ---- -- its ------- --<br>------- ---------- ------ -- ----- -- ----- -- ---- ------<br>--- ----- --- --- ------ -------- ----- --- ------ ----- --<br>----- ----- ---------- --- --- ------ ------ ---- -- ------<br>------- --- ------ ----- --- ---- ------- -- ---- --- --<br>------- ------,196515,196514.30000019073,196148.473,196150.90000009537,196164.89,196531.392,,9,its
screen,html.Screen,2_1_1_1_10,2022-04-25T11:34:03.319Z,,,,,,,,,,,,,,,,,54,,,,,,,,,,,,,,397.60800000000745,,response,,,,100,,,,,,,Space,keypress(Space),,,,,,,,-- --- ---- --- ------ ----- ------- ---- -- --- revenue --<br>------- ---------- ------ -- ----- -- ----- -- ---- ------<br>--- ----- --- --- ------ -------- ----- --- ------ ----- --<br>----- ----- ---------- --- --- ------ ------ ---- -- ------<br>------- --- ------ ----- --- ---- ------- -- ---- --- --<br>------- ------,196929.69999980927,196929,196514.819,196515.09999990463,196531.392,196952.146,,10,revenue
screen,html.Screen,2_1_1_1_11,2022-04-25T11:34:03.724Z,,,,,,,,,,,,,,,,,54,,,,,,,,,,,,,,381.5539998092572,,response,,,,100,,,,,,,Space,keypress(Space),,,,,,,,-- --- ---- --- ------ ----- ------- ---- -- --- ------- by<br>------- ---------- ------ -- ----- -- ----- -- ---- ------<br>--- ----- --- --- ------ -------- ----- --- ------ ----- --<br>----- ----- ---------- --- --- ------ ------ ---- -- ------<br>------- --- ------ ----- --- ---- ------- -- ---- --- --<br>------- ------,197334.09999990463,197333.69999980927,196914.883,196929.90000009537,196952.146,197348.038,,11,by
screen,html.Screen,2_1_1_1_12,2022-04-25T11:34:04.123Z,,,,,,,,,,,,,,,,,54,,,,,,,,,,,,,,384.86200009536697,,response,,,,100,,,,,,,Space,keypress(Space),,,,,,,,-- --- ---- --- ------ ----- ------- ---- -- --- ------- --<br>issuing ---------- ------ -- ----- -- ----- -- ---- ------<br>--- ----- --- --- ------ -------- ----- --- ------ ----- --<br>----- ----- ---------- --- --- ------ ------ ---- -- ------<br>------- --- ------ ----- --- ---- ------- -- ---- --- --<br>------- ------,197733.59999990463,197732.90000009537,197331.384,197334.19999980927,197348.038,197748.164,,12,issuing
screen,html.Screen,2_1_1_1_13,2022-04-25T11:34:04.567Z,,,,,,,,,,,,,,,,,54,,,,,,,,,,,,,,428.7360000953777,,response,,,,100,,,,,,,Space,keypress(Space),,,,,,,,-- --- ---- --- ------ ----- ------- ---- -- --- ------- --<br>------- government ------ -- ----- -- ----- -- ---- ------<br>--- ----- --- --- ------ -------- ----- --- ------ ----- --<br>----- ----- ---------- --- --- ------ ------ ---- -- ------<br>------- --- ------ ----- --- ---- ------- -- ---- --- --<br>------- ------,198177.40000009537,198176.90000009537,197731.318,197733.80000019073,197748.164,198181.374,,13,government
screen,html.Screen,2_1_1_1_14,2022-04-25T11:34:04.987Z,,,,,,,,,,,,,,,,,54,,,,,,,,,,,,,,415.22599990462186,,response,,,,100,,,,,,,Space,keypress(Space),,,,,,,,-- --- ---- --- ------ ----- ------- ---- -- --- ------- --<br>------- ---------- bonds. -- ----- -- ----- -- ---- ------<br>--- ----- --- --- ------ -------- ----- --- ------ ----- --<br>----- ----- ---------- --- --- ------ ------ ---- -- ------<br>------- --- ------ ----- --- ---- ------- -- ---- --- --<br>------- ------,198597.30000019073,198596.59999990463,198165.119,198177.5,198181.374,198615.157,,14,bonds.
screen,html.Screen,2_1_1_1_15,2022-04-25T11:34:05.326Z,,,,,,,,,,,,,,,,,54,,,,,,,,,,,,,,320.44299990462605,,response,,,,100,,,,,,,Space,keypress(Space),,,,,,,,-- --- ---- --- ------ ----- ------- ---- -- --- ------- --<br>------- ---------- ------ In ----- -- ----- -- ---- ------<br>--- ----- --- --- ------ -------- ----- --- ------ ----- --<br>----- ----- ---------- --- --- ------ ------ ---- -- ------<br>------- --- ------ ----- --- ---- ------- -- ---- --- --<br>------- ------,198936,198935.59999990463,198581.443,198597.5,198615.157,198948.269,,15,In
screen,html.Screen,2_1_1_1_16,2022-04-25T11:34:05.786Z,,,,,,,,,,,,,,,,,54,,,,,,,,,,,,,,447.03100019073463,,response,,,,100,,,,,,,Space,keypress(Space),,,,,,,,"-- --- ---- --- ------ ----- ------- ---- -- --- ------- --<br>------- ---------- ------ -- 1727, -- ----- -- ---- ------<br>--- ----- --- --- ------ -------- ----- --- ------ ----- --<br>----- ----- ---------- --- --- ------ ------ ---- -- ------<br>------- --- ------ ----- --- ---- ------- -- ---- --- --<br>------- ------",199396.09999990463,199395.30000019073,198931.412,198936.09999990463,198948.269,199398.147,,16,"1727,"
screen,html.Screen,2_1_1_1_17,2022-04-25T11:34:06.234Z,,,,,,,,,,,,,,,,,54,,,,,,,,,,,,,,445.8530000000028,,response,,,,100,,,,,,,Space,keypress(Space),,,,,,,,-- --- ---- --- ------ ----- ------- ---- -- --- ------- --<br>------- ---------- ------ -- ----- in ----- -- ---- ------<br>--- ----- --- --- ------ -------- ----- --- ------ ----- --<br>----- ----- ---------- --- --- ------ ------ ---- -- ------<br>------- --- ------ ----- --- ---- ------- -- ---- --- --<br>------- ------,199844.59999990463,199844,199381.376,199396.19999980927,199398.147,199848.454,,17,in
screen,html.Screen,2_1_1_1_18,2022-04-25T11:34:06.679Z,,,,,,,,,,,,,,,,,54,,,,,,,,,,,,,,440.9460000953695,,response,,,,100,,,,,,,Space,keypress(Space),,,,,,,,-- --- ---- --- ------ ----- ------- ---- -- --- ------- --<br>------- ---------- ------ -- ----- -- order -- ---- ------<br>--- ----- --- --- ------ -------- ----- --- ------ ----- --<br>----- ----- ---------- --- --- ------ ------ ---- -- ------<br>------- --- ------ ----- --- ---- ------- -- ---- --- --<br>------- ------,200289.90000009537,200289.40000009537,199831.645,199844.59999990463,199848.454,200298.142,,18,order
screen,html.Screen,2_1_1_1_19,2022-04-25T11:34:07.073Z,,,,,,,,,,,,,,,,,54,,,,,,,,,,,,,,384.85800000000745,,response,,,,100,,,,,,,Space,keypress(Space),,,,,,,,-- --- ---- --- ------ ----- ------- ---- -- --- ------- --<br>------- ---------- ------ -- ----- -- ----- to ---- ------<br>--- ----- --- --- ------ -------- ----- --- ------ ----- --<br>----- ----- ---------- --- --- ------ ------ ---- -- ------<br>------- --- ------ ----- --- ---- ------- -- ---- --- --<br>------- ------,200683.69999980927,200683,200281.432,200290,200298.142,200698.408,,19,to
screen,html.Screen,2_1_1_1_20,2022-04-25T11:34:07.467Z,,,,,,,,,,,,,,,,,54,,,,,,,,,,,,,,378.7919998092693,,response,,,,100,,,,,,,Space,keypress(Space),,,,,,,,-- --- ---- --- ------ ----- ------- ---- -- --- ------- --<br>------- ---------- ------ -- ----- -- ----- -- save ------<br>--- ----- --- --- ------ -------- ----- --- ------ ----- --<br>----- ----- ---------- --- --- ------ ------ ---- -- ------<br>------- --- ------ ----- --- ---- ------- -- ---- --- --<br>------- ------,201077.80000019073,201077.19999980927,200681.467,200683.80000019073,200698.408,201081.438,,20,save
screen,html.Screen,2_1_1_1_21,2022-04-25T11:34:07.907Z,,,,,,,,,,,,,,,,,54,,,,,,,,,,,,,,435.56200000000536,,response,,,,100,,,,,,,Space,keypress(Space),,,,,,,,"-- --- ---- --- ------ ----- ------- ---- -- --- ------- --<br>------- ---------- ------ -- ----- -- ----- -- ---- money,<br>--- ----- --- --- ------ -------- ----- --- ------ ----- --<br>----- ----- ---------- --- --- ------ ------ ---- -- ------<br>------- --- ------ ----- --- ---- ------- -- ---- --- --<br>------- ------",201517.69999980927,201517,201065.073,201077.90000009537,201081.438,201531.586,,21,"money,"
screen,html.Screen,2_1_1_1_22,2022-04-25T11:34:08.361Z,,,,,,,,,,,,,,,,,54,,,,,,,,,,,,,,439.2140001907246,,response,,,,100,,,,,,,Space,keypress(Space),,,,,,,,-- --- ---- --- ------ ----- ------- ---- -- --- ------- --<br>------- ---------- ------ -- ----- -- ----- -- ---- ------<br>the ----- --- --- ------ -------- ----- --- ------ ----- --<br>----- ----- ---------- --- --- ------ ------ ---- -- ------<br>------- --- ------ ----- --- ---- ------- -- ---- --- --<br>------- ------,201971.30000019073,201970.80000019073,201514.762,201517.90000009537,201531.586,201981.478,,22,the
screen,html.Screen,2_1_1_1_23,2022-04-25T11:34:08.722Z,,,,,,,,,,,,,,,,,54,,,,,,,,,,,,,,350.0219999999972,,response,,,,100,,,,,,,Space,keypress(Space),,,,,,,,-- --- ---- --- ------ ----- ------- ---- -- --- ------- --<br>------- ---------- ------ -- ----- -- ----- -- ---- ------<br>--- state --- --- ------ -------- ----- --- ------ ----- --<br>----- ----- ---------- --- --- ------ ------ ---- -- ------<br>------- --- ------ ----- --- ---- ------- -- ---- --- --<br>------- ------,202332.30000019073,202331.5,201964.826,201971.40000009537,201981.478,202348.273,,23,state
screen,html.Screen,2_1_1_1_24,2022-04-25T11:34:09.230Z,,,,,,,,,,,,,,,,,54,,,,,,,,,,,,,,491.7270000000135,,response,,,,100,,,,,,,Space,keypress(Space),,,,,,,,-- --- ---- --- ------ ----- ------- ---- -- --- ------- --<br>------- ---------- ------ -- ----- -- ----- -- ---- ------<br>--- ----- cut --- ------ -------- ----- --- ------ ----- --<br>----- ----- ---------- --- --- ------ ------ ---- -- ------<br>------- --- ------ ----- --- ---- ------- -- ---- --- --<br>------- ------,202840.69999980927,202840,202331.447,202332.59999990463,202348.273,202848.519,,24,cut
screen,html.Screen,2_1_1_1_25,2022-04-25T11:34:09.594Z,,,,,,,,,,,,,,,,,54,,,,,,,,,,,,,,355.78100019073463,,response,,,,100,,,,,,,Space,keypress(Space),,,,,,,,-- --- ---- --- ------ ----- ------- ---- -- --- ------- --<br>------- ---------- ------ -- ----- -- ----- -- ---- ------<br>--- ----- --- the ------ -------- ----- --- ------ ----- --<br>----- ----- ---------- --- --- ------ ------ ---- -- ------<br>------- --- ------ ----- --- ---- ------- -- ---- --- --<br>------- ------,203204.69999980927,203204.30000019073,202831.826,202840.90000009537,202848.519,203215.04,,25,the
screen,html.Screen,2_1_1_1_26,2022-04-25T11:34:10.015Z,,,,,,,,,,,,,,,,,54,,,,,,,,,,,,,,408.95999999999185,,response,,,,100,,,,,,,Space,keypress(Space),,,,,,,,-- --- ---- --- ------ ----- ------- ---- -- --- ------- --<br>------- ---------- ------ -- ----- -- ----- -- ---- ------<br>--- ----- --- --- bonds' -------- ----- --- ------ ----- --<br>----- ----- ---------- --- --- ------ ------ ---- -- ------<br>------- --- ------ ----- --- ---- ------- -- ---- --- --<br>------- ------,203625.90000009537,203624,203198.177,203204.90000009537,203215.04,203631.535,,26,bonds'
screen,html.Screen,2_1_1_1_27,2022-04-25T11:34:10.388Z,,,,,,,,,,,,,,,,,54,,,,,,,,,,,,,,366.16499980926164,,response,,,,100,,,,,,,Space,keypress(Space),,,,,,,,-- --- ---- --- ------ ----- ------- ---- -- --- ------- --<br>------- ---------- ------ -- ----- -- ----- -- ---- ------<br>--- ----- --- --- ------ interest ----- --- ------ ----- --<br>----- ----- ---------- --- --- ------ ------ ---- -- ------<br>------- --- ------ ----- --- ---- ------- -- ---- --- --<br>------- ------,203998.09999990463,203997.69999980927,203614.856,203626.09999990463,203631.535,204014.788,,27,interest
screen,html.Screen,2_1_1_1_28,2022-04-25T11:34:10.842Z,,,,,,,,,,,,,,,,,54,,,,,,,,,,,,,,437.11200009536697,,response,,,,100,,,,,,,Space,keypress(Space),,,,,,,,-- --- ---- --- ------ ----- ------- ---- -- --- ------- --<br>------- ---------- ------ -- ----- -- ----- -- ---- ------<br>--- ----- --- --- ------ -------- rate. --- ------ ----- --<br>----- ----- ---------- --- --- ------ ------ ---- -- ------<br>------- --- ------ ----- --- ---- ------- -- ---- --- --<br>------- ------,204452.40000009537,204451.90000009537,203998.446,203998.19999980927,204014.788,204464.884,,28,rate.
screen,html.Screen,2_1_1_1_29,2022-04-25T11:34:11.241Z,,,,,,,,,,,,,,,,,54,,,,,,,,,,,,,,386.3159998092742,,response,,,,100,,,,,,,Space,keypress(Space),,,,,,,,-- --- ---- --- ------ ----- ------- ---- -- --- ------- --<br>------- ---------- ------ -- ----- -- ----- -- ---- ------<br>--- ----- --- --- ------ -------- ----- The ------ ----- --<br>----- ----- ---------- --- --- ------ ------ ---- -- ------<br>------- --- ------ ----- --- ---- ------- -- ---- --- --<br>------- ------,204851.59999990463,204851.19999980927,204448.11,204452.5,204464.884,204864.859,,29,The
screen,html.Screen,2_1_1_1_30,2022-04-25T11:34:11.687Z,,,,,,,,,,,,,,,,,54,,,,,,,,,,,,,,432.14100000000326,,response,,,,100,,,,,,,Space,keypress(Space),,,,,,,,-- --- ---- --- ------ ----- ------- ---- -- --- ------- --<br>------- ---------- ------ -- ----- -- ----- -- ---- ------<br>--- ----- --- --- ------ -------- ----- --- market ----- --<br>----- ----- ---------- --- --- ------ ------ ---- -- ------<br>------- --- ------ ----- --- ---- ------- -- ---- --- --<br>------- ------,205297.69999980927,205297,204848.229,204851.59999990463,204864.859,205314.876,,30,market
screen,html.Screen,2_1_1_1_31,2022-04-25T11:34:12.060Z,,,,,,,,,,,,,,,,,54,,,,,,,,,,,,,,354.9240001907456,,response,,,,100,,,,,,,Space,keypress(Space),,,,,,,,-- --- ---- --- ------ ----- ------- ---- -- --- ------- --<br>------- ---------- ------ -- ----- -- ----- -- ---- ------<br>--- ----- --- --- ------ -------- ----- --- ------ value --<br>----- ----- ---------- --- --- ------ ------ ---- -- ------<br>------- --- ------ ----- --- ---- ------- -- ---- --- --<br>------- ------,205670.30000019073,205669.80000019073,205298.253,205297.90000009537,205314.876,205681.527,,31,value
screen,html.Screen,2_1_1_1_32,2022-04-25T11:34:12.459Z,,,,,,,,,,,,,,,,,54,,,,,,,,,,,,,,387.5729999046307,,response,,,,100,,,,,,,Space,keypress(Space),,,,,,,,-- --- ---- --- ------ ----- ------- ---- -- --- ------- --<br>------- ---------- ------ -- ----- -- ----- -- ---- ------<br>--- ----- --- --- ------ -------- ----- --- ------ ----- of<br>----- ----- ---------- --- --- ------ ------ ---- -- ------<br>------- --- ------ ----- --- ---- ------- -- ---- --- --<br>------- ------,206069.5,206069.09999990463,205664.797,205670.40000009537,205681.527,206081.55,,32,of
screen,html.Screen,2_1_1_1_33,2022-04-25T11:34:12.879Z,,,,,,,,,,,,,,,,,54,,,,,,,,,,,,,,407.3500000953791,,response,,,,100,,,,,,,Space,keypress(Space),,,,,,,,-- --- ---- --- ------ ----- ------- ---- -- --- ------- --<br>------- ---------- ------ -- ----- -- ----- -- ---- ------<br>--- ----- --- --- ------ -------- ----- --- ------ ----- --<br>these ----- ---------- --- --- ------ ------ ---- -- ------<br>------- --- ------ ----- --- ---- ------- -- ---- --- --<br>------- ------,206489.5,206488.90000009537,206064.823,206069.59999990463,206081.55,206498.225,,33,these
screen,html.Screen,2_1_1_1_34,2022-04-25T11:34:13.269Z,,,,,,,,,,,,,,,,,54,,,,,,,,,,,,,,380.2749999999942,,response,,,,100,,,,,,,Space,keypress(Space),,,,,,,,-- --- ---- --- ------ ----- ------- ---- -- --- ------- --<br>------- ---------- ------ -- ----- -- ----- -- ---- ------<br>--- ----- --- --- ------ -------- ----- --- ------ ----- --<br>----- bonds ---------- --- --- ------ ------ ---- -- ------<br>------- --- ------ ----- --- ---- ------- -- ---- --- --<br>------- ------,206879.19999980927,206878.5,206481.528,206489.59999990463,206498.225,206881.536,,34,bonds
screen,html.Screen,2_1_1_1_35,2022-04-25T11:34:13.649Z,,,,,,,,,,,,,,,,,54,,,,,,,,,,,,,,377.16399980927235,,response,,,,100,,,,,,,Space,keypress(Space),,,,,,,,"-- --- ---- --- ------ ----- ------- ---- -- --- ------- --<br>------- ---------- ------ -- ----- -- ----- -- ---- ------<br>--- ----- --- --- ------ -------- ----- --- ------ ----- --<br>----- ----- plummeted, --- --- ------ ------ ---- -- ------<br>------- --- ------ ----- --- ---- ------- -- ---- --- --<br>------- ------",207259.19999980927,207258.69999980927,206864.883,206879.40000009537,206881.536,207264.936,,35,"plummeted,"
screen,html.Screen,2_1_1_1_36,2022-04-25T11:34:14.077Z,,,,,,,,,,,,,,,,,54,,,,,,,,,,,,,,422.3640001907479,,response,,,,100,,,,,,,Space,keypress(Space),,,,,,,,-- --- ---- --- ------ ----- ------- ---- -- --- ------- --<br>------- ---------- ------ -- ----- -- ----- -- ---- ------<br>--- ----- --- --- ------ -------- ----- --- ------ ----- --<br>----- ----- ---------- and --- ------ ------ ---- -- ------<br>------- --- ------ ----- --- ---- ------- -- ---- --- --<br>------- ------,207687.80000019073,207687.30000019073,207248.214,207259.30000019073,207264.936,207698.248,,36,and
screen,html.Screen,2_1_1_1_37,2022-04-25T11:34:14.462Z,,,,,,,,,,,,,,,,,54,,,,,,,,,,,,,,373.4519998092728,,response,,,,100,,,,,,,Space,keypress(Space),,,,,,,,-- --- ---- --- ------ ----- ------- ---- -- --- ------- --<br>------- ---------- ------ -- ----- -- ----- -- ---- ------<br>--- ----- --- --- ------ -------- ----- --- ------ ----- --<br>----- ----- ---------- --- the ------ ------ ---- -- ------<br>------- --- ------ ----- --- ---- ------- -- ---- --- --<br>------- ------,208072.59999990463,208071.69999980927,207681.647,207687.90000009537,207698.248,208081.544,,37,the
screen,html.Screen,2_1_1_1_38,2022-04-25T11:34:14.891Z,,,,,,,,,,,,,,,,,54,,,,,,,,,,,,,,419.05599990463816,,response,,,,100,,,,,,,Space,keypress(Space),,,,,,,,-- --- ---- --- ------ ----- ------- ---- -- --- ------- --<br>------- ---------- ------ -- ----- -- ----- -- ---- ------<br>--- ----- --- --- ------ -------- ----- --- ------ ----- --<br>----- ----- ---------- --- --- market ------ ---- -- ------<br>------- --- ------ ----- --- ---- ------- -- ---- --- --<br>------- ------,208501.09999990463,208500.59999990463,208064.867,208072.69999980927,208081.544,208515.451,,38,market
screen,html.Screen,2_1_1_1_39,2022-04-25T11:34:15.326Z,,,,,,,,,,,,,,,,,54,,,,,,,,,,,,,,420.2489998092642,,response,,,,100,,,,,,,Space,keypress(Space),,,,,,,,-- --- ---- --- ------ ----- ------- ---- -- --- ------- --<br>------- ---------- ------ -- ----- -- ----- -- ---- ------<br>--- ----- --- --- ------ -------- ----- --- ------ ----- --<br>----- ----- ---------- --- --- ------ became ---- -- ------<br>------- --- ------ ----- --- ---- ------- -- ---- --- --<br>------- ------,208936.19999980927,208935.69999980927,208498.54,208501.30000019073,208515.451,208948.224,,39,became
screen,html.Screen,2_1_1_1_40,2022-04-25T11:34:15.799Z,,,,,,,,,,,,,,,,,54,,,,,,,,,,,,,,460.7760000000126,,response,,,,100,,,,,,,Space,keypress(Space),,,,,,,,-- --- ---- --- ------ ----- ------- ---- -- --- ------- --<br>------- ---------- ------ -- ----- -- ----- -- ---- ------<br>--- ----- --- --- ------ -------- ----- --- ------ ----- --<br>----- ----- ---------- --- --- ------ ------ wary -- ------<br>------- --- ------ ----- --- ---- ------- -- ---- --- --<br>------- ------,209409.59999990463,209409,208931.614,208936.40000009537,208948.224,209414.85,,40,wary
screen,html.Screen,2_1_1_1_41,2022-04-25T11:34:16.189Z,,,,,,,,,,,,,,,,,54,,,,,,,,,,,,,,383.95000019072904,,response,,,,100,,,,,,,Space,keypress(Space),,,,,,,,-- --- ---- --- ------ ----- ------- ---- -- --- ------- --<br>------- ---------- ------ -- ----- -- ----- -- ---- ------<br>--- ----- --- --- ------ -------- ----- --- ------ ----- --<br>----- ----- ---------- --- --- ------ ------ ---- of ------<br>------- --- ------ ----- --- ---- ------- -- ---- --- --<br>------- ------,209799.59999990463,209798.80000019073,209398.206,209409.80000019073,209414.85,209815.232,,41,of
screen,html.Screen,2_1_1_1_42,2022-04-25T11:34:16.609Z,,,,,,,,,,,,,,,,,54,,,,,,,,,,,,,,403.0680001907458,,response,,,,100,,,,,,,Space,keypress(Space),,,,,,,,-- --- ---- --- ------ ----- ------- ---- -- --- ------- --<br>------- ---------- ------ -- ----- -- ----- -- ---- ------<br>--- ----- --- --- ------ -------- ----- --- ------ ----- --<br>----- ----- ---------- --- --- ------ ------ ---- -- French<br>------- --- ------ ----- --- ---- ------- -- ---- --- --<br>------- ------,210219,210218.30000019073,209798.229,209799.80000019073,209815.232,210231.908,,42,French
screen,html.Screen,2_1_1_1_43,2022-04-25T11:34:16.998Z,,,,,,,,,,,,,,,,,54,,,,,,,,,,,,,,375.5920000000042,,response,,,,100,,,,,,,Space,keypress(Space),,,,,,,,-- --- ---- --- ------ ----- ------- ---- -- --- ------- --<br>------- ---------- ------ -- ----- -- ----- -- ---- ------<br>--- ----- --- --- ------ -------- ----- --- ------ ----- --<br>----- ----- ---------- --- --- ------ ------ ---- -- ------<br>credit. --- ------ ----- --- ---- ------- -- ---- --- --<br>------- ------,210608.30000019073,210607.5,210214.944,210219.19999980927,210231.908,210614.923,,43,credit.
screen,html.Screen,2_1_1_1_44,2022-04-25T11:34:17.417Z,,,,,,,,,,,,,,,,,54,,,,,,,,,,,,,,411.6769999046228,,response,,,,100,,,,,,,Space,keypress(Space),,,,,,,,-- --- ---- --- ------ ----- ------- ---- -- --- ------- --<br>------- ---------- ------ -- ----- -- ----- -- ---- ------<br>--- ----- --- --- ------ -------- ----- --- ------ ----- --<br>----- ----- ---------- --- --- ------ ------ ---- -- ------<br>------- The ------ ----- --- ---- ------- -- ---- --- --<br>------- ------,211027.40000009537,211026.59999990463,210598.603,210608.40000009537,210614.923,211031.637,,44,The
screen,html.Screen,2_1_1_1_45,2022-04-25T11:34:17.826Z,,,,,,,,,,,,,,,,,54,,,,,,,,,,,,,,404.06299980927724,,response,,,,100,,,,,,,Space,keypress(Space),,,,,,,,-- --- ---- --- ------ ----- ------- ---- -- --- ------- --<br>------- ---------- ------ -- ----- -- ----- -- ---- ------<br>--- ----- --- --- ------ -------- ----- --- ------ ----- --<br>----- ----- ---------- --- --- ------ ------ ---- -- ------<br>------- --- French ----- --- ---- ------- -- ---- --- --<br>------- ------,211436.30000019073,211435.69999980927,211014.957,211027.5,211031.637,211448.288,,45,French
screen,html.Screen,2_1_1_1_46,2022-04-25T11:34:18.190Z,,,,,,,,,,,,,,,,,54,,,,,,,,,,,,,,352.0120001907344,,response,,,,100,,,,,,,Space,keypress(Space),,,,,,,,-- --- ---- --- ------ ----- ------- ---- -- --- ------- --<br>------- ---------- ------ -- ----- -- ----- -- ---- ------<br>--- ----- --- --- ------ -------- ----- --- ------ ----- --<br>----- ----- ---------- --- --- ------ ------ ---- -- ------<br>------- --- ------ state --- ---- ------- -- ---- --- --<br>------- ------,211800.90000009537,211800.30000019073,211431.922,211436.40000009537,211448.288,211815.046,,46,state
screen,html.Screen,2_1_1_1_47,2022-04-25T11:34:18.614Z,,,,,,,,,,,,,,,,,54,,,,,,,,,,,,,,409.4539999999979,,response,,,,100,,,,,,,Space,keypress(Space),,,,,,,,-- --- ---- --- ------ ----- ------- ---- -- --- ------- --<br>------- ---------- ------ -- ----- -- ----- -- ---- ------<br>--- ----- --- --- ------ -------- ----- --- ------ ----- --<br>----- ----- ---------- --- --- ------ ------ ---- -- ------<br>------- --- ------ ----- was ---- ------- -- ---- --- --<br>------- ------,212224.90000009537,212224.5,211798.439,211801,211815.046,212231.609,,47,was
screen,html.Screen,2_1_1_1_48,2022-04-25T11:34:19.025Z,,,,,,,,,,,,,,,,,54,,,,,,,,,,,,,,403.1910001907381,,response,,,,100,,,,,,,Space,keypress(Space),,,,,,,,-- --- ---- --- ------ ----- ------- ---- -- --- ------- --<br>------- ---------- ------ -- ----- -- ----- -- ---- ------<br>--- ----- --- --- ------ -------- ----- --- ------ ----- --<br>----- ----- ---------- --- --- ------ ------ ---- -- ------<br>------- --- ------ ----- --- left ------- -- ---- --- --<br>------- ------,212635.80000019073,212634.80000019073,212215.407,212225,212231.609,212648.58,,48,left
screen,html.Screen,2_1_1_1_49,2022-04-25T11:34:19.409Z,,,,,,,,,,,,,,,,,54,,,,,,,,,,,,,,369.9200000000128,,response,,,,100,,,,,,,Space,keypress(Space),,,,,,,,-- --- ---- --- ------ ----- ------- ---- -- --- ------- --<br>------- ---------- ------ -- ----- -- ----- -- ---- ------<br>--- ----- --- --- ------ -------- ----- --- ------ ----- --<br>----- ----- ---------- --- --- ------ ------ ---- -- ------<br>------- --- ------ ----- --- ---- without -- ---- --- --<br>------- ------,213019,213018.5,212631.669,212636,212648.58,213031.752,,49,without
screen,html.Screen,2_1_1_1_50,2022-04-25T11:34:19.879Z,,,,,,,,,,,,,,,,,54,,,,,,,,,,,,,,456.64800009535975,,response,,,,100,,,,,,,Space,keypress(Space),,,,,,,,-- --- ---- --- ------ ----- ------- ---- -- --- ------- --<br>------- ---------- ------ -- ----- -- ----- -- ---- ------<br>--- ----- --- --- ------ -------- ----- --- ------ ----- --<br>----- ----- ---------- --- --- ------ ------ ---- -- ------<br>------- --- ------ ----- --- ---- ------- an ---- --- --<br>------- ------,213489.09999990463,213488.40000009537,213015.213,213019.09999990463,213031.752,213498.581,,50,an
screen,html.Screen,2_1_1_1_51,2022-04-25T11:34:20.282Z,,,,,,,,,,,,,,,,,54,,,,,,,,,,,,,,393.4189999999944,,response,,,,100,,,,,,,Space,keypress(Space),,,,,,,,-- --- ---- --- ------ ----- ------- ---- -- --- ------- --<br>------- ---------- ------ -- ----- -- ----- -- ---- ------<br>--- ----- --- --- ------ -------- ----- --- ------ ----- --<br>----- ----- ---------- --- --- ------ ------ ---- -- ------<br>------- --- ------ ----- --- ---- ------- -- easy --- --<br>------- ------,213892.80000019073,213892,213481.658,213489.19999980927,213498.581,213898.326,,51,easy
screen,html.Screen,2_1_1_1_52,2022-04-25T11:34:20.771Z,,,,,,,,,,,,,,,,,54,,,,,,,,,,,,,,482.77399990463164,,response,,,,100,,,,,,,Space,keypress(Space),,,,,,,,-- --- ---- --- ------ ----- ------- ---- -- --- ------- --<br>------- ---------- ------ -- ----- -- ----- -- ---- ------<br>--- ----- --- --- ------ -------- ----- --- ------ ----- --<br>----- ----- ---------- --- --- ------ ------ ---- -- ------<br>------- --- ------ ----- --- ---- ------- -- ---- way --<br>------- ------,214381.40000009537,214381.09999990463,213881.746,213892.90000009537,213898.326,214398.349,,52,way
screen,html.Screen,2_1_1_1_53,2022-04-25T11:34:21.636Z,,,,,,,,,,,,,,,,,54,,,,,,,,,,,,,,847.4510001907474,,response,,,,100,,,,,,,Space,keypress(Space),,,,,,,,-- --- ---- --- ------ ----- ------- ---- -- --- ------- --<br>------- ---------- ------ -- ----- -- ----- -- ---- ------<br>--- ----- --- --- ------ -------- ----- --- ------ ----- --<br>----- ----- ---------- --- --- ------ ------ ---- -- ------<br>------- --- ------ ----- --- ---- ------- -- ---- --- of<br>------- ------,215246.30000019073,215245.80000019073,214381.829,214381.5,214398.349,215248.336,,53,of
screen,html.Screen,2_1_1_1_54,2022-04-25T11:34:22.094Z,,,,,,,,,,,,,,,,,54,,,,,,,,,,,,,,455.66399999998976,,response,,,,100,,,,,,,Space,keypress(Space),,,,,,,,-- --- ---- --- ------ ----- ------- ---- -- --- ------- --<br>------- ---------- ------ -- ----- -- ----- -- ---- ------<br>--- ----- --- --- ------ -------- ----- --- ------ ----- --<br>----- ----- ---------- --- --- ------ ------ ---- -- ------<br>------- --- ------ ----- --- ---- ------- -- ---- --- --<br>raising ------,215704.40000009537,215704,215231.854,215246.40000009537,215248.336,215715.105,,54,raising
screen,html.Screen,2_1_1_1_55,2022-04-25T11:34:22.464Z,,,,,,,,,,,,,,,,,54,,,,,,,,,,,,,,358.6950001907244,,response,,,,100,,,,,,,Space,keypress(Space),,,,,,,,-- --- ---- --- ------ ----- ------- ---- -- --- ------- --<br>------- ---------- ------ -- ----- -- ----- -- ---- ------<br>--- ----- --- --- ------ -------- ----- --- ------ ----- --<br>----- ----- ---------- --- --- ------ ------ ---- -- ------<br>------- --- ------ ----- --- ---- ------- -- ---- --- --<br>------- money.,216074.59999990463,216073.80000019073,215698.516,215704.5,215715.105,216081.679,,55,money.
Item 100,flow.Loop,2_1_1_1,2022-04-25T11:34:22.464Z,,,,,,,,,,,,,,,,,,,,,,,,,,,,,,,23625.703000190726,,completion,,,,,A,,,,,,,,,,,silence,,,,,216074.80000019073,216073.80000019073,192431.391,192432.19999980927,192448.097,216081.679,,,
Question 1,html.Screen,2_1_1_2,2022-04-25T11:34:25.216Z,,,,,,,,,,,,,,,,,,,,,,,,,,,,true,TRUE,,2744.420999904629,,response,,,,100,A,,,,,,TRUE,click #choice-1,,,,silence,,,,,218827,218826.09999990463,216065.014,216074.90000009537,216081.679,218831.808,,,
Question 2,html.Screen,2_1_1_3,2022-04-25T11:34:27.709Z,,,,,,,,,,,,,,,,,,,,,,,,,,,,true,FALSE,,2487.5920000953774,,response,,,,100,A,,,,,,FALSE,click #choice-2,,,,silence,,,,,221320.19999980927,221319.40000009537,218815.012,218827.09999990463,218831.808,221331.734,,,
Item 100,flow.Sequence,2_1_1,2022-04-25T11:34:27.710Z,,,,,,,,,,,,,,,,,,,,,,,,,,,,,,,38871.25500009538,,completion,,,,,,,,,,,,,,,,,,,,,221320.30000019073,221319.40000009537,182431.148,182445.80000019073,182448.145,221331.734,,,
End of Practice,html.Page,2_1_2,2022-04-25T11:34:31.728Z,,,,,,,,,,,,,,,,,,,,,,,,,,,,,,,4006.566000190738,,form submission,,,,,,,,,,,,,,,,,,,,,225338.5,225338.30000019073,221315.083,221320.40000009537,221331.734,225348.507,,,
Practice,flow.Sequence,2_1,2022-04-25T11:34:31.729Z,,,,,,,,,,,,,,,,,,,,,,,,,,,,,,,84740.87100019073,,completion,,,,,,,,,,,,,,,,,,,,,225339.69999980927,225338.30000019073,140580.503,140586.09999990463,140597.429,225348.507,,,
Trap_instruction,html.Page,2_2_0,2022-04-25T11:34:32.996Z,,,,,,,,,,,,,,,,,,,,,,,,,,,,,,,1257.6929998092528,,form submission,,,,,,,,,,,,,,,,,,,,,226606.40000009537,226606.19999980927,225331.821,225339.80000019073,225348.507,226615.202,,,
trap_trial,html.Screen,2_2_1,2022-04-25T11:34:37.312Z,,,,,,,,,,,,,,,,,,,,,,,,,,,,true,1,,4306.897999904642,,response,,,,,,,,,,,1,click #choice-1,,,,,,,,,230923.09999990463,230922.09999990463,226598.72,226606.59999990463,226615.202,230931.92,,,
end of trap trial,html.Page,2_2_2,2022-04-25T11:34:39.225Z,,,,,,,,,,,,,,,,,,,,,,,,,,,,,,,1903.4800000953546,,form submission,,,,,,,,,,,,,,,,,,,,,232835.59999990463,232835.40000009537,230915.259,230923.19999980927,230931.92,232849.051,,,
Trap 1,flow.Sequence,2_2,2022-04-25T11:34:39.225Z,,,,,,,,,,,,,,,,,,,,,,,,,,,,,,,7486.893000095355,,completion,,,,,,,,,,,,,,,,,,,,,232835.80000019073,232835.40000009537,225331.821,225339.80000019073,225348.507,232849.051,,,
Standby,html.Page,2_3_0,2022-04-25T11:34:47.222Z,,,,,,,,,,,,,,,,,,,,,,,,,,,,,,,7999.725000000006,,timeout,,,,,,,,,,,,,,,,,,,,,240832.80000019073,240832.022,232832.029,232836,232849.051,240848.776,,,
Holding screen,html.Screen,2_3_1_0_0,2022-04-25T11:34:54.223Z,,,,,,,,,,,,,,,,,,,,,,,,,,,,,,,7000.177999999985,,timeout,,,,,,,,,,,,,,,,,,,,,247833.40000009537,247832.565,240832.022,240832.90000009537,240848.776,247848.954,,,
screen,html.Screen,2_3_1_0_1_0,2022-04-25T11:34:54.834Z,,,,,,,,,,,,,,,,,19,,,,,,,,,,,,,,595.2459998092672,,response,,,,17,A,,,,,,Space,keypress(Space),,,,silence,,,,"Interestingly, --- -------- -------- ---------- ---- -------<br>-- ---------- -- --- ----- ------ ----- ---- --------- ----<br>------- ------ -------- -- ------ ---------- ------ ---<br>------ -- -- ---- -- ---------- -------- ------ ---- -------<br>---- --- --------- ------- ----- --------- ---- ----- --<br>------ -------- -- ------ -- ---- ------------",248445,248444.19999980927,247832.565,247833.69999980927,247848.954,248448.884,,0,"Interestingly,"
screen,html.Screen,2_3_1_0_1_1,2022-04-25T11:34:55.303Z,,,,,,,,,,,,,,,,,19,,,,,,,,,,,,,,464.0160000953765,,response,,,,17,A,,,,,,Space,keypress(Space),,,,silence,,,,-------------- the -------- -------- ---------- ---- -------<br>-- ---------- -- --- ----- ------ ----- ---- --------- ----<br>------- ------ -------- -- ------ ---------- ------ ---<br>------ -- -- ---- -- ---------- -------- ------ ---- -------<br>---- --- --------- ------- ----- --------- ---- ----- --<br>------ -------- -- ------ -- ---- ------------,248913.59999990463,248912.90000009537,248432.236,248445.09999990463,248448.884,248915.554,,1,the
screen,html.Screen,2_3_1_0_1_2,2022-04-25T11:34:55.671Z,,,,,,,,,,,,,,,,,19,,,,,,,,,,,,,,365.74600019073114,,response,,,,17,A,,,,,,Space,keypress(Space),,,,silence,,,,-------------- --- heaviest -------- ---------- ---- -------<br>-- ---------- -- --- ----- ------ ----- ---- --------- ----<br>------- ------ -------- -- ------ ---------- ------ ---<br>------ -- -- ---- -- ---------- -------- ------ ---- -------<br>---- --- --------- ------- ----- --------- ---- ----- --<br>------ -------- -- ------ -- ---- ------------,249282,249281.30000019073,248898.846,248913.69999980927,248915.554,249299.001,,2,heaviest
screen,html.Screen,2_3_1_0_1_3,2022-04-25T11:34:56.157Z,,,,,,,,,,,,,,,,,19,,,,,,,,,,,,,,467.4990000000107,,response,,,,17,A,,,,,,Space,keypress(Space),,,,silence,,,,-------------- --- -------- isotopes ---------- ---- -------<br>-- ---------- -- --- ----- ------ ----- ---- --------- ----<br>------- ------ -------- -- ------ ---------- ------ ---<br>------ -- -- ---- -- ---------- -------- ------ ---- -------<br>---- --- --------- ------- ----- --------- ---- ----- --<br>------ -------- -- ------ -- ---- ------------,249767.30000019073,249766.5,249282.191,249282.30000019073,249299.001,249782.315,,3,isotopes
screen,html.Screen,2_3_1_0_1_4,2022-04-25T11:34:56.637Z,,,,,,,,,,,,,,,,,19,,,,,,,,,,,,,,464.3849998092628,,response,,,,17,A,,,,,,Space,keypress(Space),,,,silence,,,,-------------- --- -------- -------- physicists ---- -------<br>-- ---------- -- --- ----- ------ ----- ---- --------- ----<br>------- ------ -------- -- ------ ---------- ------ ---<br>------ -- -- ---- -- ---------- -------- ------ ---- -------<br>---- --- --------- ------- ----- --------- ---- ----- --<br>------ -------- -- ------ -- ---- ------------,250247.40000009537,250246.69999980927,249765.76,249767.40000009537,249782.315,250272.31,,4,physicists
screen,html.Screen,2_3_1_0_1_5,2022-04-25T11:34:57.060Z,,,,,,,,,,,,,,,,,19,,,,,,,,,,,,,,397.7899999046349,,response,,,,17,A,,,,,,Space,keypress(Space),,,,silence,,,,-------------- --- -------- -------- ---------- have -------<br>-- ---------- -- --- ----- ------ ----- ---- --------- ----<br>------- ------ -------- -- ------ ---------- ------ ---<br>------ -- -- ---- -- ---------- -------- ------ ---- -------<br>---- --- --------- ------- ----- --------- ---- ----- --<br>------ -------- -- ------ -- ---- ------------,250670.80000019073,250670.09999990463,250232.472,250247.5,250272.31,250682.26,,5,have
screen,html.Screen,2_3_1_0_1_6,2022-04-25T11:34:57.539Z,,,,,,,,,,,,,,,,,19,,,,,,,,,,,,,,467.1400000953581,,response,,,,17,A,,,,,,Space,keypress(Space),,,,silence,,,,-------------- --- -------- -------- ---------- ---- managed<br>-- ---------- -- --- ----- ------ ----- ---- --------- ----<br>------- ------ -------- -- ------ ---------- ------ ---<br>------ -- -- ---- -- ---------- -------- ------ ---- -------<br>---- --- --------- ------- ----- --------- ---- ----- --<br>------ -------- -- ------ -- ---- ------------,251150.19999980927,251149.40000009537,250665.628,250671.09999990463,250682.26,251165.802,,6,managed
screen,html.Screen,2_3_1_0_1_7,2022-04-25T11:34:57.934Z,,,,,,,,,,,,,,,,,19,,,,,,,,,,,,,,377.9980001907388,,response,,,,17,A,,,,,,Space,keypress(Space),,,,silence,,,,-------------- --- -------- -------- ---------- ---- -------<br>to ---------- -- --- ----- ------ ----- ---- --------- ----<br>------- ------ -------- -- ------ ---------- ------ ---<br>------ -- -- ---- -- ---------- -------- ------ ---- -------<br>---- --- --------- ------- ----- --------- ---- ----- --<br>------ -------- -- ------ -- ---- ------------,251544.5,251543.80000019073,251149.17,251150.30000019073,251165.802,251548.918,,7,to
screen,html.Screen,2_3_1_0_1_8,2022-04-25T11:34:58.423Z,,,,,,,,,,,,,,,,,19,,,,,,,,,,,,,,483.78199980926,,response,,,,17,A,,,,,,Space,keypress(Space),,,,silence,,,,-------------- --- -------- -------- ---------- ---- -------<br>-- synthesize -- --- ----- ------ ----- ---- --------- ----<br>------- ------ -------- -- ------ ---------- ------ ---<br>------ -- -- ---- -- ---------- -------- ------ ---- -------<br>---- --- --------- ------- ----- --------- ---- ----- --<br>------ -------- -- ------ -- ---- ------------,252033.5,252032.69999980927,251532.492,251544.69999980927,251548.918,252049.113,,8,synthesize
screen,html.Screen,2_3_1_0_1_9,2022-04-25T11:34:58.802Z,,,,,,,,,,,,,,,,,19,,,,,,,,,,,,,,363.2870000953553,,response,,,,17,A,,,,,,Space,keypress(Space),,,,silence,,,,-------------- --- -------- -------- ---------- ---- -------<br>-- ---------- so --- ----- ------ ----- ---- --------- ----<br>------- ------ -------- -- ------ ---------- ------ ---<br>------ -- -- ---- -- ---------- -------- ------ ---- -------<br>---- --- --------- ------- ----- --------- ---- ----- --<br>------ -------- -- ------ -- ---- ------------,252413.09999990463,252412.40000009537,252032.341,252033.69999980927,252049.113,252415.629,,9,so
screen,html.Screen,2_3_1_0_1_10,2022-04-25T11:34:59.267Z,,,,,,,,,,,,,,,,,19,,,,,,,,,,,,,,461.0709998092789,,response,,,,17,A,,,,,,Space,keypress(Space),,,,silence,,,,-------------- --- -------- -------- ---------- ---- -------<br>-- ---------- -- far ----- ------ ----- ---- --------- ----<br>------- ------ -------- -- ------ ---------- ------ ---<br>------ -- -- ---- -- ---------- -------- ------ ---- -------<br>---- --- --------- ------- ----- --------- ---- ----- --<br>------ -------- -- ------ -- ---- ------------,252877.59999990463,252876.69999980927,252398.97,252413.19999980927,252415.629,252882.276,,10,far
screen,html.Screen,2_3_1_0_1_11,2022-04-25T11:34:59.637Z,,,,,,,,,,,,,,,,,19,,,,,,,,,,,,,,364.42399980925256,,response,,,,17,A,,,,,,Space,keypress(Space),,,,silence,,,,-------------- --- -------- -------- ---------- ---- -------<br>-- ---------- -- --- don't ------ ----- ---- --------- ----<br>------- ------ -------- -- ------ ---------- ------ ---<br>------ -- -- ---- -- ---------- -------- ------ ---- -------<br>---- --- --------- ------- ----- --------- ---- ----- --<br>------ -------- -- ------ -- ---- ------------,253247.5,253246.69999980927,252865.582,252877.69999980927,252882.276,253276.738,,11,don't
screen,html.Screen,2_3_1_0_1_12,2022-04-25T11:35:00.106Z,,,,,,,,,,,,,,,,,19,,,,,,,,,,,,,,438.7619999999879,,response,,,,17,A,,,,,,Space,keypress(Space),,,,silence,,,,-------------- --- -------- -------- ---------- ---- -------<br>-- ---------- -- --- ----- behave ----- ---- --------- ----<br>------- ------ -------- -- ------ ---------- ------ ---<br>------ -- -- ---- -- ---------- -------- ------ ---- -------<br>---- --- --------- ------- ----- --------- ---- ----- --<br>------ -------- -- ------ -- ---- ------------,253716.30000019073,253715.5,253232.269,253247.69999980927,253276.738,253732.326,,12,behave
screen,html.Screen,2_3_1_0_1_13,2022-04-25T11:35:00.520Z,,,,,,,,,,,,,,,,,19,,,,,,,,,,,,,,397.5740000953665,,response,,,,17,A,,,,,,Space,keypress(Space),,,,silence,,,,-------------- --- -------- -------- ---------- ---- -------<br>-- ---------- -- --- ----- ------ quite ---- --------- ----<br>------- ------ -------- -- ------ ---------- ------ ---<br>------ -- -- ---- -- ---------- -------- ------ ---- -------<br>---- --- --------- ------- ----- --------- ---- ----- --<br>------ -------- -- ------ -- ---- ------------,254130.59999990463,254129.90000009537,253715.665,253716.40000009537,253732.326,254132.344,,13,quite
screen,html.Screen,2_3_1_0_1_14,2022-04-25T11:35:00.964Z,,,,,,,,,,,,,,,,,19,,,,,,,,,,,,,,441.85599980925326,,response,,,,17,A,,,,,,Space,keypress(Space),,,,silence,,,,-------------- --- -------- -------- ---------- ---- -------<br>-- ---------- -- --- ----- ------ ----- like --------- ----<br>------- ------ -------- -- ------ ---------- ------ ---<br>------ -- -- ---- -- ---------- -------- ------ ---- -------<br>---- --- --------- ------- ----- --------- ---- ----- --<br>------ -------- -- ------ -- ---- ------------,254574.90000009537,254574.19999980927,254115.559,254130.69999980927,254132.344,254582.308,,14,like
screen,html.Screen,2_3_1_0_1_15,2022-04-25T11:35:01.394Z,,,,,,,,,,,,,,,,,19,,,,,,,,,,,,,,421.19200000001,,response,,,,17,A,,,,,,Space,keypress(Space),,,,silence,,,,-------------- --- -------- -------- ---------- ---- -------<br>-- ---------- -- --- ----- ------ ----- ---- science's ----<br>------- ------ -------- -- ------ ---------- ------ ---<br>------ -- -- ---- -- ---------- -------- ------ ---- -------<br>---- --- --------- ------- ----- --------- ---- ----- --<br>------ -------- -- ------ -- ---- ------------,255004.30000019073,255003.5,254565.902,254575,254582.308,255015.869,,15,science's
screen,html.Screen,2_3_1_0_1_16,2022-04-25T11:35:01.892Z,,,,,,,,,,,,,,,,,19,,,,,,,,,,,,,,486.63099999999395,,response,,,,17,A,,,,,,Space,keypress(Space),,,,silence,,,,-------------- --- -------- -------- ---------- ---- -------<br>-- ---------- -- --- ----- ------ ----- ---- --------- best<br>------- ------ -------- -- ------ ---------- ------ ---<br>------ -- -- ---- -- ---------- -------- ------ ---- -------<br>---- --- --------- ------- ----- --------- ---- ----- --<br>------ -------- -- ------ -- ---- ------------,255503.09999990463,255502.5,254999.079,255004.40000009537,255015.869,255515.946,,16,best
screen,html.Screen,2_3_1_0_1_17,2022-04-25T11:35:02.372Z,,,,,,,,,,,,,,,,,19,,,,,,,,,,,,,,466.0540000000037,,response,,,,17,A,,,,,,Space,keypress(Space),,,,silence,,,,-------------- --- -------- -------- ---------- ---- -------<br>-- ---------- -- --- ----- ------ ----- ---- --------- ----<br>current ------ -------- -- ------ ---------- ------ ---<br>------ -- -- ---- -- ---------- -------- ------ ---- -------<br>---- --- --------- ------- ----- --------- ---- ----- --<br>------ -------- -- ------ -- ---- ------------,255982.80000019073,255982,255499.39,255503.30000019073,255515.946,255999.061,,17,current
screen,html.Screen,2_3_1_0_1_18,2022-04-25T11:35:02.781Z,,,,,,,,,,,,,,,,,19,,,,,,,,,,,,,,392.33900009538047,,response,,,,17,A,,,,,,Space,keypress(Space),,,,silence,,,,-------------- --- -------- -------- ---------- ---- -------<br>-- ---------- -- --- ----- ------ ----- ---- --------- ----<br>------- models -------- -- ------ ---------- ------ ---<br>------ -- -- ---- -- ---------- -------- ------ ---- -------<br>---- --- --------- ------- ----- --------- ---- ----- --<br>------ -------- -- ------ -- ---- ------------,256392.09999990463,256391.40000009537,255982.732,255982.90000009537,255999.061,256398.998,,18,models
screen,html.Screen,2_3_1_0_1_19,2022-04-25T11:35:03.281Z,,,,,,,,,,,,,,,,,19,,,,,,,,,,,,,,491.7019998092728,,response,,,,17,A,,,,,,Space,keypress(Space),,,,silence,,,,"-------------- --- -------- -------- ---------- ---- -------<br>-- ---------- -- --- ----- ------ ----- ---- --------- ----<br>------- ------ predict, -- ------ ---------- ------ ---<br>------ -- -- ---- -- ---------- -------- ------ ---- -------<br>---- --- --------- ------- ----- --------- ---- ----- --<br>------ -------- -- ------ -- ---- ------------",256891.5,256890.69999980927,256382.651,256392.19999980927,256398.998,256899.089,,19,"predict,"
screen,html.Screen,2_3_1_0_1_20,2022-04-25T11:35:03.755Z,,,,,,,,,,,,,,,,,19,,,,,,,,,,,,,,465.8110000953602,,response,,,,17,A,,,,,,Space,keypress(Space),,,,silence,,,,-------------- --- -------- -------- ---------- ---- -------<br>-- ---------- -- --- ----- ------ ----- ---- --------- ----<br>------- ------ -------- so ------ ---------- ------ ---<br>------ -- -- ---- -- ---------- -------- ------ ---- -------<br>---- --- --------- ------- ----- --------- ---- ----- --<br>------ -------- -- ------ -- ---- ------------,257365.69999980927,257364.90000009537,256882.284,256891.69999980927,256899.089,257382.451,,20,so
screen,html.Screen,2_3_1_0_1_21,2022-04-25T11:35:04.139Z,,,,,,,,,,,,,,,,,19,,,,,,,,,,,,,,366.84900019073393,,response,,,,17,A,,,,,,Space,keypress(Space),,,,silence,,,,-------------- --- -------- -------- ---------- ---- -------<br>-- ---------- -- --- ----- ------ ----- ---- --------- ----<br>------- ------ -------- -- stable ---------- ------ ---<br>------ -- -- ---- -- ---------- -------- ------ ---- -------<br>---- --- --------- ------- ----- --------- ---- ----- --<br>------ -------- -- ------ -- ---- ------------,257750,257749.30000019073,257365.64,257365.80000019073,257382.451,257766.23,,21,stable
screen,html.Screen,2_3_1_0_1_22,2022-04-25T11:35:04.668Z,,,,,,,,,,,,,,,,,19,,,,,,,,,,,,,,512.2699999999895,,response,,,,17,A,,,,,,Space,keypress(Space),,,,silence,,,,-------------- --- -------- -------- ---------- ---- -------<br>-- ---------- -- --- ----- ------ ----- ---- --------- ----<br>------- ------ -------- -- ------ superheavy ------ ---<br>------ -- -- ---- -- ---------- -------- ------ ---- -------<br>---- --- --------- ------- ----- --------- ---- ----- --<br>------ -------- -- ------ -- ---- ------------,258279.09999990463,258278.5,257749.32,257750.19999980927,257766.23,258282.418,,22,superheavy
screen,html.Screen,2_3_1_0_1_23,2022-04-25T11:35:05.248Z,,,,,,,,,,,,,,,,,19,,,,,,,,,,,,,,575.4820000953623,,response,,,,17,A,,,,,,Space,keypress(Space),,,,silence,,,,-------------- --- -------- -------- ---------- ---- -------<br>-- ---------- -- --- ----- ------ ----- ---- --------- ----<br>------- ------ -------- -- ------ ---------- nuclei ---<br>------ -- -- ---- -- ---------- -------- ------ ---- -------<br>---- --- --------- ------- ----- --------- ---- ----- --<br>------ -------- -- ------ -- ---- ------------,258858.40000009537,258857.90000009537,258265.991,258279.30000019073,258282.418,258865.68,,23,nuclei
screen,html.Screen,2_3_1_0_1_24,2022-04-25T11:35:05.737Z,,,,,,,,,,,,,,,,,19,,,,,,,,,,,,,,481.0199998092721,,response,,,,17,A,,,,,,Space,keypress(Space),,,,silence,,,,-------------- --- -------- -------- ---------- ---- -------<br>-- ---------- -- --- ----- ------ ----- ---- --------- ----<br>------- ------ -------- -- ------ ---------- ------ are<br>------ -- -- ---- -- ---------- -------- ------ ---- -------<br>---- --- --------- ------- ----- --------- ---- ----- --<br>------ -------- -- ------ -- ---- ------------,259347.5,259346.69999980927,258849.276,258858.5,258865.68,259368.176,,24,are
screen,html.Screen,2_3_1_0_1_25,2022-04-25T11:35:06.221Z,,,,,,,,,,,,,,,,,19,,,,,,,,,,,,,,462.5239998092584,,response,,,,17,A,,,,,,Space,keypress(Space),,,,silence,,,,-------------- --- -------- -------- ---------- ---- -------<br>-- ---------- -- --- ----- ------ ----- ---- --------- ----<br>------- ------ -------- -- ------ ---------- ------ ---<br>likely -- -- ---- -- ---------- -------- ------ ---- -------<br>---- --- --------- ------- ----- --------- ---- ----- --<br>------ -------- -- ------ -- ---- ------------,259831.30000019073,259830.69999980927,259332.384,259347.59999990463,259368.176,259865.039,,25,likely
screen,html.Screen,2_3_1_0_1_26,2022-04-25T11:35:06.601Z,,,,,,,,,,,,,,,,,19,,,,,,,,,,,,,,346.3610000953777,,response,,,,17,A,,,,,,Space,keypress(Space),,,,silence,,,,-------------- --- -------- -------- ---------- ---- -------<br>-- ---------- -- --- ----- ------ ----- ---- --------- ----<br>------- ------ -------- -- ------ ---------- ------ ---<br>------ to -- ---- -- ---------- -------- ------ ---- -------<br>---- --- --------- ------- ----- --------- ---- ----- --<br>------ -------- -- ------ -- ---- ------------,260212.09999990463,260211.40000009537,259815.686,259831.40000009537,259865.039,260215.704,,26,to
screen,html.Screen,2_3_1_0_1_27,2022-04-25T11:35:07.115Z,,,,,,,,,,,,,,,,,19,,,,,,,,,,,,,,508.89599990463466,,response,,,,17,A,,,,,,Space,keypress(Space),,,,silence,,,,-------------- --- -------- -------- ---------- ---- -------<br>-- ---------- -- --- ----- ------ ----- ---- --------- ----<br>------- ------ -------- -- ------ ---------- ------ ---<br>------ -- be ---- -- ---------- -------- ------ ---- -------<br>---- --- --------- ------- ----- --------- ---- ----- --<br>------ -------- -- ------ -- ---- ------------,260725.30000019073,260724.59999990463,260199.367,260212.30000019073,260215.704,260732.412,,27,be
screen,html.Screen,2_3_1_0_1_28,2022-04-25T11:35:07.493Z,,,,,,,,,,,,,,,,,19,,,,,,,,,,,,,,371.0879999999888,,response,,,,17,A,,,,,,Space,keypress(Space),,,,silence,,,,-------------- --- -------- -------- ---------- ---- -------<br>-- ---------- -- --- ----- ------ ----- ---- --------- ----<br>------- ------ -------- -- ------ ---------- ------ ---<br>------ -- -- full -- ---------- -------- ------ ---- -------<br>---- --- --------- ------- ----- --------- ---- ----- --<br>------ -------- -- ------ -- ---- ------------,261104.19999980927,261103.5,260715.697,260725.5,260732.412,261115.738,,28,full
screen,html.Screen,2_3_1_0_1_29,2022-04-25T11:35:07.868Z,,,,,,,,,,,,,,,,,19,,,,,,,,,,,,,,362.7619999999879,,response,,,,17,A,,,,,,Space,keypress(Space),,,,silence,,,,-------------- --- -------- -------- ---------- ---- -------<br>-- ---------- -- --- ----- ------ ----- ---- --------- ----<br>------- ------ -------- -- ------ ---------- ------ ---<br>------ -- -- ---- of ---------- -------- ------ ---- -------<br>---- --- --------- ------- ----- --------- ---- ----- --<br>------ -------- -- ------ -- ---- ------------,261479.19999980927,261478.5,261099.432,261104.30000019073,261115.738,261482.394,,29,of
screen,html.Screen,2_3_1_0_1_30,2022-04-25T11:35:08.407Z,,,,,,,,,,,,,,,,,19,,,,,,,,,,,,,,535.1059999999998,,response,,,,17,A,,,,,,Space,keypress(Space),,,,silence,,,,-------------- --- -------- -------- ---------- ---- -------<br>-- ---------- -- --- ----- ------ ----- ---- --------- ----<br>------- ------ -------- -- ------ ---------- ------ ---<br>------ -- -- ---- -- surprises. -------- ------ ---- -------<br>---- --- --------- ------- ----- --------- ---- ----- --<br>------ -------- -- ------ -- ---- ------------,262018.09999990463,262017.5,261465.7,261479.30000019073,261482.394,262032.453,,30,surprises.
screen,html.Screen,2_3_1_0_1_31,2022-04-25T11:35:08.822Z,,,,,,,,,,,,,,,,,19,,,,,,,,,,,,,,399.4470000953588,,response,,,,17,A,,,,,,Space,keypress(Space),,,,silence,,,,-------------- --- -------- -------- ---------- ---- -------<br>-- ---------- -- --- ----- ------ ----- ---- --------- ----<br>------- ------ -------- -- ------ ---------- ------ ---<br>------ -- -- ---- -- ---------- Chemists ------ ---- -------<br>---- --- --------- ------- ----- --------- ---- ----- --<br>------ -------- -- ------ -- ---- ------------,262432.69999980927,262431.90000009537,262016.03,262018.19999980927,262032.453,262449.319,,31,Chemists
screen,html.Screen,2_3_1_0_1_32,2022-04-25T11:35:09.276Z,,,,,,,,,,,,,,,,,19,,,,,,,,,,,,,,436.88099980924744,,response,,,,17,A,,,,,,Space,keypress(Space),,,,silence,,,,-------------- --- -------- -------- ---------- ---- -------<br>-- ---------- -- --- ----- ------ ----- ---- --------- ----<br>------- ------ -------- -- ------ ---------- ------ ---<br>------ -- -- ---- -- ---------- -------- cannot ---- -------<br>---- --- --------- ------- ----- --------- ---- ----- --<br>------ -------- -- ------ -- ---- ------------,262886.69999980927,262886.19999980927,262432.755,262432.90000009537,262449.319,262899.536,,32,cannot
screen,html.Screen,2_3_1_0_1_33,2022-04-25T11:35:09.781Z,,,,,,,,,,,,,,,,,19,,,,,,,,,,,,,,490.9639999999781,,response,,,,17,A,,,,,,Space,keypress(Space),,,,silence,,,,-------------- --- -------- -------- ---------- ---- -------<br>-- ---------- -- --- ----- ------ ----- ---- --------- ----<br>------- ------ -------- -- ------ ---------- ------ ---<br>------ -- -- ---- -- ---------- -------- ------ even -------<br>---- --- --------- ------- ----- --------- ---- ----- --<br>------ -------- -- ------ -- ---- ------------,263391.30000019073,263390.5,262882.592,262886.90000009537,262899.536,263399.158,,33,even
screen,html.Screen,2_3_1_0_1_34,2022-04-25T11:35:10.245Z,,,,,,,,,,,,,,,,,19,,,,,,,,,,,,,,455.5419998092693,,response,,,,17,A,,,,,,Space,keypress(Space),,,,silence,,,,-------------- --- -------- -------- ---------- ---- -------<br>-- ---------- -- --- ----- ------ ----- ---- --------- ----<br>------- ------ -------- -- ------ ---------- ------ ---<br>------ -- -- ---- -- ---------- -------- ------ ---- predict<br>---- --- --------- ------- ----- --------- ---- ----- --<br>------ -------- -- ------ -- ---- ------------,263855.69999980927,263854.69999980927,263382.494,263391.40000009537,263399.158,263865.893,,34,predict
screen,html.Screen,2_3_1_0_1_35,2022-04-25T11:35:10.714Z,,,,,,,,,,,,,,,,,19,,,,,,,,,,,,,,458.20699990465073,,response,,,,17,A,,,,,,Space,keypress(Space),,,,silence,,,,-------------- --- -------- -------- ---------- ---- -------<br>-- ---------- -- --- ----- ------ ----- ---- --------- ----<br>------- ------ -------- -- ------ ---------- ------ ---<br>------ -- -- ---- -- ---------- -------- ------ ---- -------<br>with --- --------- ------- ----- --------- ---- ----- --<br>------ -------- -- ------ -- ---- ------------,264324.69999980927,264324.09999990463,263849.045,263855.80000019073,263865.893,264332.456,,35,with
screen,html.Screen,2_3_1_0_1_36,2022-04-25T11:35:11.168Z,,,,,,,,,,,,,,,,,19,,,,,,,,,,,,,,445.74399980925955,,response,,,,17,A,,,,,,Space,keypress(Space),,,,silence,,,,-------------- --- -------- -------- ---------- ---- -------<br>-- ---------- -- --- ----- ------ ----- ---- --------- ----<br>------- ------ -------- -- ------ ---------- ------ ---<br>------ -- -- ---- -- ---------- -------- ------ ---- -------<br>---- any --------- ------- ----- --------- ---- ----- --<br>------ -------- -- ------ -- ---- ------------,264778.90000009537,264778.19999980927,264316.108,264324.80000019073,264332.456,264782.494,,36,any
screen,html.Screen,2_3_1_0_1_37,2022-04-25T11:35:11.726Z,,,,,,,,,,,,,,,,,19,,,,,,,,,,,,,,554.1059999046265,,response,,,,17,A,,,,,,Space,keypress(Space),,,,silence,,,,-------------- --- -------- -------- ---------- ---- -------<br>-- ---------- -- --- ----- ------ ----- ---- --------- ----<br>------- ------ -------- -- ------ ---------- ------ ---<br>------ -- -- ---- -- ---------- -------- ------ ---- -------<br>---- --- certainty ------- ----- --------- ---- ----- --<br>------ -------- -- ------ -- ---- ------------,265337.19999980927,265336.59999990463,264766.227,264779.09999990463,264782.494,265349.231,,37,certainty
screen,html.Screen,2_3_1_0_1_38,2022-04-25T11:35:12.097Z,,,,,,,,,,,,,,,,,19,,,,,,,,,,,,,,357.3689999046037,,response,,,,17,A,,,,,,Space,keypress(Space),,,,silence,,,,-------------- --- -------- -------- ---------- ---- -------<br>-- ---------- -- --- ----- ------ ----- ---- --------- ----<br>------- ------ -------- -- ------ ---------- ------ ---<br>------ -- -- ---- -- ---------- -------- ------ ---- -------<br>---- --- --------- whether ----- --------- ---- ----- --<br>------ -------- -- ------ -- ---- ------------,265707.40000009537,265706.59999990463,265332.433,265337.30000019073,265349.231,265716.048,,38,whether
