sender,sender_type,sender_id,timestamp,meta,,Blues,Classical,Country,Dance,Electronic,Folk,Gospel,Hip-Hop,Jazz,Latin,Musical/Film,New-age,Pop,Prolific_id,Provo_ID,R&B,Rap,Reggae,Religious,Rock,Soul,Swing,Traditional,age,artist_name,correct,correctResponse,distraction,duration,education,ended_on,familiarity,gender,headphone_check_performance,item,list,music_frequency,offensiveness,pleasantness,position_correct,preference,response,response_action,snippet_file,song_name,song_rating,sound,stimulus_1,stimulus_2,stimulus_3,text,time_commit,time_end,time_render,time_run,time_show,time_switch,url,word,word_ID
Prolific ID,html.Form,0,2022-05-12T15:32:35.029Z,"{""labjs_version"":""20.2.2"",""labjs_build"":{""flavor"":""production"",""commit"":""a25486e0c714a0ae2ce03ff94b7bb6896854dcfa""},""location"":""https://run.pavlovia.org/mvasilev/prolific3_music_f/"",""userAgent"":""Mozilla/5.0 (Windows NT 10.0; Win64; x64) AppleWebKit/537.36 (KHTML, like Gecko) Chrome/101.0.4951.64 Safari/537.36"",""platform"":""Win32"",""language"":""en-GB"",""locale"":""en-GB"",""timeZone"":""Europe/London"",""timezoneOffset"":-60,""screen_width"":1536,""screen_height"":864,""scroll_width"":1536,""scroll_height"":712,""window_innerWidth"":1536,""window_innerHeight"":760,""devicePixelRatio"":1.25}",,,,,,,,,,,,,,,5bec4ebcf2dba6000166d420,,,,,,,,,,,,,,,5361.1029999761595,,form submission,,,,,,,,,,,,,,,,,,,,,25528.899999976158,25528.399999976158,20150.008,20151.699999928474,20167.297,25581.171,{},,
Introduction,html.Screen,1_0,2022-05-12T15:32:39.908Z,,,,,,,,,,,,,,,,,,,,,,,,,,,,,,,4824.128999952318,,response,,,,,,,,,,,continue,click button,,,,,,,,,30408.399999976158,30405.299999952316,25514.556,25529.099999904633,25581.171,30411.958,,,
Volume calibration,html.Screen,1_1,2022-05-12T15:32:55.381Z,,,,,,,,,,,,,,,,,,,,,,,,,,,,,,,15465.042000000001,,response,,,,,,,,,,,continue,click button,,,,,,,,,45881.09999990463,45877,30395.364,30408.599999904633,30411.958,45887.279,,,
Task instructions,html.Screen,1_2,2022-05-12T15:33:01.219Z,,,,,,,,,,,,,,,,,,,,,,,,,,,,,,,5830.420999928472,,response,,,,,,,,,,,continue,click button,,,,,,,,,51718.799999952316,51717.699999928474,45870.683,45881.199999928474,45887.279,51734.266,,,
Sounds,html.Screen,1_3_0_0,2022-05-12T15:33:05.467Z,,,,,,,,,,,,,,,,,,,,,,,,,,,,,,,4247.820999999996,,timeout,,,,,,,,,2,,,,,,,,I,S,O,,55967.299999952316,55965.404,51717.627,51719,51734.266,55982.087,,,
Judgement,html.Screen,1_3_0_1,2022-05-12T15:33:06.322Z,,,,,,,,,,,,,,,,,,,,,,,,,,,,true,2,,838.7129999523167,,response,,,,,,,,,2,,2,click #choice-2,,,,,I,S,O,,56822.5,56820.799999952316,55965.404,55967.39999997616,55982.087,56831.471,,,
Trial,flow.Sequence,1_3_0,2022-05-12T15:33:06.323Z,,,,,,,,,,,,,,,,,,,,,,,,,,,,,,,5086.533999952313,,completion,,,,,,,,,2,,,,,,,,I,S,O,,56822.89999997616,56820.799999952316,51717.627,51719,51734.266,56831.471,,,
Sounds,html.Screen,1_3_1_0,2022-05-12T15:33:10.563Z,,,,,,,,,,,,,,,,,,,,,,,,,,,,,,,4247.932000000001,,timeout,,,,,,,,,1,,,,,,,,S,I,O,,61063.299999952316,61062.659,56814.818,56823.09999990463,56831.471,61079.403,,,
Judgement,html.Screen,1_3_1_1,2022-05-12T15:33:11.058Z,,,,,,,,,,,,,,,,,,,,,,,,,,,,true,1,,477.39699995231786,,response,,,,,,,,,1,,1,click #choice-1,,,,,S,I,O,,61558.5,61556.799999952316,61062.659,61063.5,61079.403,61562.339,,,
Trial,flow.Sequence,1_3_1,2022-05-12T15:33:11.058Z,,,,,,,,,,,,,,,,,,,,,,,,,,,,,,,4725.328999952319,,completion,,,,,,,,,1,,,,,,,,S,I,O,,61558.59999990463,61556.799999952316,56814.818,56823.09999990463,56831.471,61562.339,,,
Sounds,html.Screen,1_3_2_0,2022-05-12T15:33:15.294Z,,,,,,,,,,,,,,,,,,,,,,,,,,,,,,,4247.904000000002,,timeout,,,,,,,,,1,,,,,,,,S,O,I,,65794.19999992847,65793.59,61545.825,61558.699999928474,61562.339,65810.243,,,
Judgement,html.Screen,1_3_2_1,2022-05-12T15:33:15.587Z,,,,,,,,,,,,,,,,,,,,,,,,,,,,true,1,,275.15699997615593,,response,,,,,,,,,1,,1,click #choice-1,,,,,S,O,I,,66086.89999997616,66085.39999997616,65793.59,65794.5,65810.243,66093.443,,,
Trial,flow.Sequence,1_3_2,2022-05-12T15:33:15.587Z,,,,,,,,,,,,,,,,,,,,,,,,,,,,,,,4523.060999976158,,completion,,,,,,,,,1,,,,,,,,S,O,I,,66087.09999990463,66085.39999997616,61545.825,61558.699999928474,61562.339,66093.443,,,
Sounds,html.Screen,1_3_3_0,2022-05-12T15:33:19.825Z,,,,,,,,,,,,,,,,,,,,,,,,,,,,,,,4247.691000000006,,timeout,,,,,,,,,3,,,,,,,,O,I,S,,70325.19999992847,70324.566,66076.728,66087.29999995232,66093.443,70341.134,,,
Judgement,html.Screen,1_3_3_1,2022-05-12T15:33:20.002Z,,,,,,,,,,,,,,,,,,,,,,,,,,,,true,3,,160.06599992846895,,response,,,,,,,,,3,,3,click #choice-3,,,,,O,I,S,,70502.5,70501.19999992847,70324.566,70325.39999997616,70341.134,70507.787,,,
Trial,flow.Sequence,1_3_3,2022-05-12T15:33:20.002Z,,,,,,,,,,,,,,,,,,,,,,,,,,,,,,,4407.756999928475,,completion,,,,,,,,,3,,,,,,,,O,I,S,,70502.59999990463,70501.19999992847,66076.728,66087.19999992847,66093.443,70507.787,,,
Sounds,html.Screen,1_3_4_0,2022-05-12T15:33:24.239Z,,,,,,,,,,,,,,,,,,,,,,,,,,,,,,,4247.6860000000015,,timeout,,,,,,,,,2,,,,,,,,O,S,I,,74739.39999997616,74738.919,70491.203,70502.69999992847,70507.787,74755.473,,,
Judgement,html.Screen,1_3_4_1,2022-05-12T15:33:24.554Z,,,,,,,,,,,,,,,,,,,,,,,,,,,,true,2,,297.82699995231815,,response,,,,,,,,,2,,2,click #choice-2,,,,,O,S,I,,75054.39999997616,75053.29999995232,74738.919,74739.5,74755.473,75055.307,,,
Trial,flow.Sequence,1_3_4,2022-05-12T15:33:24.554Z,,,,,,,,,,,,,,,,,,,,,,,,,,,,,,,4545.51299995232,,completion,,,,,,,,,2,,,,,,,,O,S,I,,75054.5,75053.29999995232,70491.203,70502.69999992847,70507.787,75055.307,,,
Sounds,html.Screen,1_3_5_0,2022-05-12T15:33:28.787Z,,,,,,,,,,,,,,,,,,,,,,,,,,,,,,,4247.9070000000065,,timeout,,,,,,,,,3,,,,,,,,I,O,S,,79287.09999990463,79286.54,75038.689,75054.59999990463,75055.307,79303.214,,,
Judgement,html.Screen,1_3_5_1,2022-05-12T15:33:29.346Z,,,,,,,,,,,,,,,,,,,,,,,,,,,,true,3,,542.2859999999928,,response,,,,,,,,,3,,3,click #choice-3,,,,,I,O,S,,79846.69999992847,79845.5,79286.54,79287.29999995232,79303.214,79852.8,,,
Trial,flow.Sequence,1_3_5,2022-05-12T15:33:29.346Z,,,,,,,,,,,,,,,,,,,,,,,,,,,,,,,4790.192999999999,,completion,,,,,,,,,3,,,,,,,,I,O,S,,79846.79999995232,79845.5,75038.689,75054.59999990463,75055.307,79852.8,,,
Task,flow.Loop,1_3,2022-05-12T15:33:29.351Z,,,,,,,,,,,,,,,,,,,,,,,,,,,,,,,28111.233999999997,,completion,,,1,,,,,,,,,,,,,,,,,,79851.79999995232,79845.5,51717.627,51718.89999997616,51734.266,79852.8,,,
Trap,html.Screen,1_4,2022-05-12T15:33:29.353Z,,,,,,,,,,,,,,,,,,,,,,,,,,,,,,,NaN,,skipped,,,,,,,,,,,,,,,,,,,,,79853.09999990463,79845.5,,79852.69999992847,,79852.8,,,
Thanks,html.Screen,1_5,2022-05-12T15:33:31.506Z,,,,,,,,,,,,,,,,,,,,,,,,,,,,,,,2152.199999999997,,response,,,,,,,,,,,continue,click button,,,,,,,,,82006.09999990463,82005,79836.177,79853.19999992847,79852.8,85083.477,,,
Headphone screening,flow.Sequence,1,2022-05-12T15:33:31.506Z,,,,,,,,,,,,,,,,,,,,,,,,,,,,,,,56423.829,,completion,,,,,,,,,,,,,,,,,,,,,82006.09999990463,82005,25514.556,25529.099999904633,25581.171,85083.477,,,
Instructions,html.Page,2_0,2022-05-12T15:33:50.324Z,,,,,,,,,,,,,,,,,,,,,,,,,,,,,,,15739.622999904634,,form submission,,,,,,,,,,,,,,,,,,,,,100824.39999997616,100823.09999990463,85016.777,85074.89999997616,85083.477,100841.837,,,
Holding screen,html.Screen,2_1_0_0,2022-05-12T15:34:00.320Z,,,,,,,,,,,,,,,,,,,,,,,,,,,,,,,10061.415999999997,,timeout,,,,,,,,,,,,,,,,,,,,,110820.59999990463,110820.076,100825.205,100824.5,100841.837,110903.253,,,
screen,html.Screen,2_1_0_1_0,2022-05-12T15:34:01.353Z,,,,,,,,,,,,,,,,,53,,,,,,,,,,,,,,947.747000000003,,response,,,,99,,,,,,,Space,keypress(Space),,,,,,,,When -- ----- -- ------ - ------- --- ----------<br>------------- ------ ------ ---- ---- ------- ----- -- ----<br>-------- ------- -- ---------- --- - --- ----- ----- ----<br>---- --- --- ----- --- ---- ---- ------- ----- ---- -------<br>--- --- -- ----- -- --- ---- -- --- ---- -- ------ ------<br>--- ----- -- ----,111853.29999995232,111851,110820.076,110820.79999995232,110903.253,111869.599,,0,When
screen,html.Screen,2_1_0_1_1,2022-05-12T15:34:01.690Z,,,,,,,,,,,,,,,,,53,,,,,,,,,,,,,,319.80099997615616,,response,,,,99,,,,,,,Space,keypress(Space),,,,,,,,---- it ----- -- ------ - ------- --- ----------<br>------------- ------ ------ ---- ---- ------- ----- -- ----<br>-------- ------- -- ---------- --- - --- ----- ----- ----<br>---- --- --- ----- --- ---- ---- ------- ----- ---- -------<br>--- --- -- ----- -- --- ---- -- --- ---- -- ------ ------<br>--- ----- -- ----,112190,112189.39999997616,111852.841,111853.5,111869.599,112202.619,,1,it
screen,html.Screen,2_1_0_1_2,2022-05-12T15:34:01.991Z,,,,,,,,,,,,,,,,,53,,,,,,,,,,,,,,288.2809999761521,,response,,,,99,,,,,,,Space,keypress(Space),,,,,,,,---- -- comes -- ------ - ------- --- ----------<br>------------- ------ ------ ---- ---- ------- ----- -- ----<br>-------- ------- -- ---------- --- - --- ----- ----- ----<br>---- --- --- ----- --- ---- ---- ------- ----- ---- -------<br>--- --- -- ----- -- --- ---- -- --- ---- -- ------ ------<br>--- ----- -- ----,112491.5,112490.89999997616,112186.049,112190.09999990463,112202.619,112519.113,,2,comes
screen,html.Screen,2_1_0_1_3,2022-05-12T15:34:02.254Z,,,,,,,,,,,,,,,,,53,,,,,,,,,,,,,,234.7869999761606,,response,,,,99,,,,,,,Space,keypress(Space),,,,,,,,---- -- ----- to ------ - ------- --- ----------<br>------------- ------ ------ ---- ---- ------- ----- -- ----<br>-------- ------- -- ---------- --- - --- ----- ----- ----<br>---- --- --- ----- --- ---- ---- ------- ----- ---- -------<br>--- --- -- ----- -- --- ---- -- --- ---- -- ------ ------<br>--- ----- -- ----,112754.39999997616,112753.89999997616,112502.526,112491.59999990463,112519.113,112769.097,,3,to
screen,html.Screen,2_1_0_1_4,2022-05-12T15:34:02.475Z,,,,,,,,,,,,,,,,,53,,,,,,,,,,,,,,205.60299992848013,,response,,,,99,,,,,,,Space,keypress(Space),,,,,,,,---- -- ----- -- having - ------- --- ----------<br>------------- ------ ------ ---- ---- ------- ----- -- ----<br>-------- ------- -- ---------- --- - --- ----- ----- ----<br>---- --- --- ----- --- ---- ---- ------- ----- ---- -------<br>--- --- -- ----- -- --- ---- -- --- ---- -- ------ ------<br>--- ----- -- ----,112975.19999992847,112974.69999992847,112752.387,112754.59999990463,112769.097,112985.594,,4,having
screen,html.Screen,2_1_0_1_5,2022-05-12T15:34:02.710Z,,,,,,,,,,,,,,,,,53,,,,,,,,,,,,,,224.20599995231896,,response,,,,99,,,,,,,Space,keypress(Space),,,,,,,,---- -- ----- -- ------ a ------- --- ----------<br>------------- ------ ------ ---- ---- ------- ----- -- ----<br>-------- ------- -- ---------- --- - --- ----- ----- ----<br>---- --- --- ----- --- ---- ---- ------- ----- ---- -------<br>--- --- -- ----- -- --- ---- -- --- ---- -- ------ ------<br>--- ----- -- ----,113210.39999997616,113209.79999995232,112968.951,112975.29999995232,112985.594,113218.863,,5,a
screen,html.Screen,2_1_0_1_6,2022-05-12T15:34:02.954Z,,,,,,,,,,,,,,,,,53,,,,,,,,,,,,,,235.13700000000244,,response,,,,99,,,,,,,Space,keypress(Space),,,,,,,,---- -- ----- -- ------ - lasting --- ----------<br>------------- ------ ------ ---- ---- ------- ----- -- ----<br>-------- ------- -- ---------- --- - --- ----- ----- ----<br>---- --- --- ----- --- ---- ---- ------- ----- ---- -------<br>--- --- -- ----- -- --- ---- -- --- ---- -- ------ ------<br>--- ----- -- ----,113454.59999990463,113454,113202.146,113210.39999997616,113218.863,113468.641,,6,lasting
screen,html.Screen,2_1_0_1_7,2022-05-12T15:34:03.213Z,,,,,,,,,,,,,,,,,53,,,,,,,,,,,,,,244.35899999999674,,response,,,,99,,,,,,,Space,keypress(Space),,,,,,,,---- -- ----- -- ------ - ------- and ----------<br>------------- ------ ------ ---- ---- ------- ----- -- ----<br>-------- ------- -- ---------- --- - --- ----- ----- ----<br>---- --- --- ----- --- ---- ---- ------- ----- ---- -------<br>--- --- -- ----- -- --- ---- -- --- ---- -- ------ ------<br>--- ----- -- ----,113713.5,113713,113452.021,113454.79999995232,113468.641,113718.523,,7,and
screen,html.Screen,2_1_0_1_8,2022-05-12T15:34:03.453Z,,,,,,,,,,,,,,,,,53,,,,,,,,,,,,,,234.07699990463152,,response,,,,99,,,,,,,Space,keypress(Space),,,,,,,,---- -- ----- -- ------ - ------- --- fulfilling<br>------------- ------ ------ ---- ---- ------- ----- -- ----<br>-------- ------- -- ---------- --- - --- ----- ----- ----<br>---- --- --- ----- --- ---- ---- ------- ----- ---- -------<br>--- --- -- ----- -- --- ---- -- --- ---- -- ------ ------<br>--- ----- -- ----,113953.09999990463,113952.59999990463,113701.787,113713.59999990463,113718.523,113968.341,,8,fulfilling
screen,html.Screen,2_1_0_1_9,2022-05-12T15:34:03.697Z,,,,,,,,,,,,,,,,,53,,,,,,,,,,,,,,229.0589999761578,,response,,,,99,,,,,,,Space,keypress(Space),,,,,,,,"---- -- ----- -- ------ - ------- --- ----------<br>relationship, ------ ------ ---- ---- ------- ----- -- ----<br>-------- ------- -- ---------- --- - --- ----- ----- ----<br>---- --- --- ----- --- ---- ---- ------- ----- ---- -------<br>--- --- -- ----- -- --- ---- -- --- ---- -- ------ ------<br>--- ----- -- ----",114197.89999997616,114197.39999997616,113951.762,113953.19999992847,113968.341,114201.496,,9,"relationship,"
screen,html.Screen,2_1_0_1_10,2022-05-12T15:34:03.956Z,,,,,,,,,,,,,,,,,53,,,,,,,,,,,,,,254.50400000000081,,response,,,,99,,,,,,,Space,keypress(Space),,,,,,,,---- -- ----- -- ------ - ------- --- ----------<br>------------- common ------ ---- ---- ------- ----- -- ----<br>-------- ------- -- ---------- --- - --- ----- ----- ----<br>---- --- --- ----- --- ---- ---- ------- ----- ---- -------<br>--- --- -- ----- -- --- ---- -- --- ---- -- ------ ------<br>--- ----- -- ----,114456.59999990463,114456,114184.845,114197.89999997616,114201.496,114468.187,,10,common
screen,html.Screen,2_1_0_1_11,2022-05-12T15:34:04.450Z,,,,,,,,,,,,,,,,,53,,,,,,,,,,,,,,481.81299999999464,,response,,,,99,,,,,,,Space,keypress(Space),,,,,,,,---- -- ----- -- ------ - ------- --- ----------<br>------------- ------ wisdom ---- ---- ------- ----- -- ----<br>-------- ------- -- ---------- --- - --- ----- ----- ----<br>---- --- --- ----- --- ---- ---- ------- ----- ---- -------<br>--- --- -- ----- -- --- ---- -- --- ---- -- ------ ------<br>--- ----- -- ----,114950.39999997616,114950,114451.497,114456.79999995232,114468.187,114972.256,,11,wisdom
screen,html.Screen,2_1_0_1_12,2022-05-12T15:34:04.714Z,,,,,,,,,,,,,,,,,53,,,,,,,,,,,,,,241.24400000000605,,response,,,,99,,,,,,,Space,keypress(Space),,,,,,,,---- -- ----- -- ------ - ------- --- ----------<br>------------- ------ ------ says ---- ------- ----- -- ----<br>-------- ------- -- ---------- --- - --- ----- ----- ----<br>---- --- --- ----- --- ---- ---- ------- ----- ---- -------<br>--- --- -- ----- -- --- ---- -- --- ---- -- ------ ------<br>--- ----- -- ----,115214,115213.5,114934.428,114950.5,114972.256,115217.702,,12,says
screen,html.Screen,2_1_0_1_13,2022-05-12T15:34:05.054Z,,,,,,,,,,,,,,,,,53,,,,,,,,,,,,,,335.8979999046278,,response,,,,99,,,,,,,Space,keypress(Space),,,,,,,,---- -- ----- -- ------ - ------- --- ----------<br>------------- ------ ------ ---- that ------- ----- -- ----<br>-------- ------- -- ---------- --- - --- ----- ----- ----<br>---- --- --- ----- --- ---- ---- ------- ----- ---- -------<br>--- --- -- ----- -- --- ---- -- --- ---- -- ------ ------<br>--- ----- -- ----,115554.29999995232,115553.59999990463,115201.108,115214.09999990463,115217.702,115567.62,,13,that
screen,html.Screen,2_1_0_1_14,2022-05-12T15:34:05.393Z,,,,,,,,,,,,,,,,,53,,,,,,,,,,,,,,325.7799999761628,,response,,,,99,,,,,,,Space,keypress(Space),,,,,,,,---- -- ----- -- ------ - ------- --- ----------<br>------------- ------ ------ ---- ---- feeling ----- -- ----<br>-------- ------- -- ---------- --- - --- ----- ----- ----<br>---- --- --- ----- --- ---- ---- ------- ----- ---- -------<br>--- --- -- ----- -- --- ---- -- --- ---- -- ------ ------<br>--- ----- -- ----,115893.89999997616,115893.39999997616,115550.907,115554.39999997616,115567.62,115901.043,,14,feeling
screen,html.Screen,2_1_0_1_15,2022-05-12T15:34:05.725Z,,,,,,,,,,,,,,,,,53,,,,,,,,,,,,,,323.55699990462745,,response,,,,99,,,,,,,Space,keypress(Space),,,,,,,,---- -- ----- -- ------ - ------- --- ----------<br>------------- ------ ------ ---- ---- ------- close -- ----<br>-------- ------- -- ---------- --- - --- ----- ----- ----<br>---- --- --- ----- --- ---- ---- ------- ----- ---- -------<br>--- --- -- ----- -- --- ---- -- --- ---- -- ------ ------<br>--- ----- -- ----,116225.09999990463,116224.59999990463,115884.086,115894,115901.043,116233.982,,15,close
screen,html.Screen,2_1_0_1_16,2022-05-12T15:34:06.043Z,,,,,,,,,,,,,,,,,53,,,,,,,,,,,,,,309.41799997615453,,response,,,,99,,,,,,,Space,keypress(Space),,,,,,,,---- -- ----- -- ------ - ------- --- ----------<br>------------- ------ ------ ---- ---- ------- ----- to ----<br>-------- ------- -- ---------- --- - --- ----- ----- ----<br>---- --- --- ----- --- ---- ---- ------- ----- ---- -------<br>--- --- -- ----- -- --- ---- -- --- ---- -- ------ ------<br>--- ----- -- ----,116543.89999997616,116543.39999997616,116217.27,116225.19999992847,116233.982,116550.311,,16,to
screen,html.Screen,2_1_0_1_17,2022-05-12T15:34:06.374Z,,,,,,,,,,,,,,,,,53,,,,,,,,,,,,,,323.48899995231477,,response,,,,99,,,,,,,Space,keypress(Space),,,,,,,,---- -- ----- -- ------ - ------- --- ----------<br>------------- ------ ------ ---- ---- ------- ----- -- your<br>-------- ------- -- ---------- --- - --- ----- ----- ----<br>---- --- --- ----- --- ---- ---- ------- ----- ---- -------<br>--- --- -- ----- -- --- ---- -- --- ---- -- ------ ------<br>--- ----- -- ----,116874.19999992847,116873.79999995232,116533.744,116544,116550.311,116883.474,,17,your
screen,html.Screen,2_1_0_1_18,2022-05-12T15:34:06.716Z,,,,,,,,,,,,,,,,,53,,,,,,,,,,,,,,332.42599997615616,,response,,,,99,,,,,,,Space,keypress(Space),,,,,,,,---- -- ----- -- ------ - ------- --- ----------<br>------------- ------ ------ ---- ---- ------- ----- -- ----<br>romantic ------- -- ---------- --- - --- ----- ----- ----<br>---- --- --- ----- --- ---- ---- ------- ----- ---- -------<br>--- --- -- ----- -- --- ---- -- --- ---- -- ------ ------<br>--- ----- -- ----,117216.39999997616,117215.89999997616,116866.903,116874.29999995232,116883.474,117233.408,,18,romantic
screen,html.Screen,2_1_0_1_19,2022-05-12T15:34:07.046Z,,,,,,,,,,,,,,,,,53,,,,,,,,,,,,,,312.5920000000042,,response,,,,99,,,,,,,Space,keypress(Space),,,,,,,,---- -- ----- -- ------ - ------- --- ----------<br>------------- ------ ------ ---- ---- ------- ----- -- ----<br>-------- partner -- ---------- --- - --- ----- ----- ----<br>---- --- --- ----- --- ---- ---- ------- ----- ---- -------<br>--- --- -- ----- -- --- ---- -- --- ---- -- ------ ------<br>--- ----- -- ----,117546.5,117546,117216.711,117216.39999997616,117233.408,117549.744,,19,partner
screen,html.Screen,2_1_0_1_20,2022-05-12T15:34:07.384Z,,,,,,,,,,,,,,,,,53,,,,,,,,,,,,,,334.4559999284684,,response,,,,99,,,,,,,Space,keypress(Space),,,,,,,,---- -- ----- -- ------ - ------- --- ----------<br>------------- ------ ------ ---- ---- ------- ----- -- ----<br>-------- ------- is ---------- --- - --- ----- ----- ----<br>---- --- --- ----- --- ---- ---- ------- ----- ---- -------<br>--- --- -- ----- -- --- ---- -- --- ---- -- ------ ------<br>--- ----- -- ----,117884.69999992847,117884.19999992847,117533.211,117546.59999990463,117549.744,117899.742,,20,is
screen,html.Screen,2_1_0_1_21,2022-05-12T15:34:07.698Z,,,,,,,,,,,,,,,,,53,,,,,,,,,,,,,,298.45799992847606,,response,,,,99,,,,,,,Space,keypress(Space),,,,,,,,---- -- ----- -- ------ - ------- --- ----------<br>------------- ------ ------ ---- ---- ------- ----- -- ----<br>-------- ------- -- paramount. --- - --- ----- ----- ----<br>---- --- --- ----- --- ---- ---- ------- ----- ---- -------<br>--- --- -- ----- -- --- ---- -- --- ---- -- ------ ------<br>--- ----- -- ----,118198.79999995232,118198.19999992847,117883.089,117884.79999995232,117899.742,118216.072,,21,paramount.
screen,html.Screen,2_1_0_1_22,2022-05-12T15:34:08.016Z,,,,,,,,,,,,,,,,,53,,,,,,,,,,,,,,300.02799990463245,,response,,,,99,,,,,,,Space,keypress(Space),,,,,,,,---- -- ----- -- ------ - ------- --- ----------<br>------------- ------ ------ ---- ---- ------- ----- -- ----<br>-------- ------- -- ---------- But - --- ----- ----- ----<br>---- --- --- ----- --- ---- ---- ------- ----- ---- -------<br>--- --- -- ----- -- --- ---- -- --- ---- -- ------ ------<br>--- ----- -- ----,118516.59999990463,118516.09999990463,118182.896,118198.89999997616,118216.072,118532.733,,22,But
screen,html.Screen,2_1_0_1_23,2022-05-12T15:34:08.352Z,,,,,,,,,,,,,,,,,53,,,,,,,,,,,,,,318.9669999284815,,response,,,,99,,,,,,,Space,keypress(Space),,,,,,,,---- -- ----- -- ------ - ------- --- ----------<br>------------- ------ ------ ---- ---- ------- ----- -- ----<br>-------- ------- -- ---------- --- a --- ----- ----- ----<br>---- --- --- ----- --- ---- ---- ------- ----- ---- -------<br>--- --- -- ----- -- --- ---- -- --- ---- -- ------ ------<br>--- ----- -- ----,118852.29999995232,118851.69999992847,118515.936,118516.69999992847,118532.733,118882.429,,23,a
screen,html.Screen,2_1_0_1_24,2022-05-12T15:34:08.616Z,,,,,,,,,,,,,,,,,53,,,,,,,,,,,,,,233.47099997615442,,response,,,,99,,,,,,,Space,keypress(Space),,,,,,,,---- -- ----- -- ------ - ------- --- ----------<br>------------- ------ ------ ---- ---- ------- ----- -- ----<br>-------- ------- -- ---------- --- - new ----- ----- ----<br>---- --- --- ----- --- ---- ---- ------- ----- ---- -------<br>--- --- -- ----- -- --- ---- -- --- ---- -- ------ ------<br>--- ----- -- ----,119116.5,119115.89999997616,118865.732,118852.39999997616,118882.429,119132.381,,24,new
screen,html.Screen,2_1_0_1_25,2022-05-12T15:34:08.877Z,,,,,,,,,,,,,,,,,53,,,,,,,,,,,,,,244.91899995232234,,response,,,,99,,,,,,,Space,keypress(Space),,,,,,,,---- -- ----- -- ------ - ------- --- ----------<br>------------- ------ ------ ---- ---- ------- ----- -- ----<br>-------- ------- -- ---------- --- - --- study ----- ----<br>---- --- --- ----- --- ---- ---- ------- ----- ---- -------<br>--- --- -- ----- -- --- ---- -- --- ---- -- ------ ------<br>--- ----- -- ----,119377.79999995232,119377.29999995232,119115.604,119116.59999990463,119132.381,119398.829,,25,study
screen,html.Screen,2_1_0_1_26,2022-05-12T15:34:09.174Z,,,,,,,,,,,,,,,,,53,,,,,,,,,,,,,,275.07099997616024,,response,,,,99,,,,,,,Space,keypress(Space),,,,,,,,---- -- ----- -- ------ - ------- --- ----------<br>------------- ------ ------ ---- ---- ------- ----- -- ----<br>-------- ------- -- ---------- --- - --- ----- finds ----<br>---- --- --- ----- --- ---- ---- ------- ----- ---- -------<br>--- --- -- ----- -- --- ---- -- --- ---- -- ------ ------<br>--- ----- -- ----,119674.39999997616,119673.89999997616,119382.151,119377.89999997616,119398.829,119682.117,,26,finds
screen,html.Screen,2_1_0_1_27,2022-05-12T15:34:09.479Z,,,,,,,,,,,,,,,,,53,,,,,,,,,,,,,,297.2829999761598,,response,,,,99,,,,,,,Space,keypress(Space),,,,,,,,---- -- ----- -- ------ - ------- --- ----------<br>------------- ------ ------ ---- ---- ------- ----- -- ----<br>-------- ------- -- ---------- --- - --- ----- ----- that<br>---- --- --- ----- --- ---- ---- ------- ----- ---- -------<br>--- --- -- ----- -- --- ---- -- --- ---- -- ------ ------<br>--- ----- -- ----,119979.89999997616,119979.39999997616,119665.333,119674.5,119682.117,119981.818,,27,that
screen,html.Screen,2_1_0_1_28,2022-05-12T15:34:09.782Z,,,,,,,,,,,,,,,,,53,,,,,,,,,,,,,,299.78199990463327,,response,,,,99,,,,,,,Space,keypress(Space),,,,,,,,---- -- ----- -- ------ - ------- --- ----------<br>------------- ------ ------ ---- ---- ------- ----- -- ----<br>-------- ------- -- ---------- --- - --- ----- ----- ----<br>it's --- --- ----- --- ---- ---- ------- ----- ---- -------<br>--- --- -- ----- -- --- ---- -- --- ---- -- ------ ------<br>--- ----- -- ----,120282,120281.59999990463,119965.244,119980,119981.818,120298.398,,28,it's
screen,html.Screen,2_1_0_1_29,2022-05-12T15:34:10.045Z,,,,,,,,,,,,,,,,,53,,,,,,,,,,,,,,246.0019999761571,,response,,,,99,,,,,,,Space,keypress(Space),,,,,,,,---- -- ----- -- ------ - ------- --- ----------<br>------------- ------ ------ ---- ---- ------- ----- -- ----<br>-------- ------- -- ---------- --- - --- ----- ----- ----<br>---- not --- ----- --- ---- ---- ------- ----- ---- -------<br>--- --- -- ----- -- --- ---- -- --- ---- -- ------ ------<br>--- ----- -- ----,120545,120544.39999997616,120281.66,120282.19999992847,120298.398,120548.208,,29,not
screen,html.Screen,2_1_0_1_30,2022-05-12T15:34:10.351Z,,,,,,,,,,,,,,,,,53,,,,,,,,,,,,,,302.2920000000013,,response,,,,99,,,,,,,Space,keypress(Space),,,,,,,,---- -- ----- -- ------ - ------- --- ----------<br>------------- ------ ------ ---- ---- ------- ----- -- ----<br>-------- ------- -- ---------- --- - --- ----- ----- ----<br>---- --- how ----- --- ---- ---- ------- ----- ---- -------<br>--- --- -- ----- -- --- ---- -- --- ---- -- ------ ------<br>--- ----- -- ----,120851.09999990463,120850.5,120531.66,120545.09999990463,120548.208,120864.758,,30,how
screen,html.Screen,2_1_0_1_31,2022-05-12T15:34:10.610Z,,,,,,,,,,,,,,,,,53,,,,,,,,,,,,,,245.54199995231465,,response,,,,99,,,,,,,Space,keypress(Space),,,,,,,,---- -- ----- -- ------ - ------- --- ----------<br>------------- ------ ------ ---- ---- ------- ----- -- ----<br>-------- ------- -- ---------- --- - --- ----- ----- ----<br>---- --- --- close --- ---- ---- ------- ----- ---- -------<br>--- --- -- ----- -- --- ---- -- --- ---- -- ------ ------<br>--- ----- -- ----,121110.89999997616,121110.29999995232,120848.035,120851.09999990463,120864.758,121114.57,,31,close
screen,html.Screen,2_1_0_1_32,2022-05-12T15:34:10.906Z,,,,,,,,,,,,,,,,,53,,,,,,,,,,,,,,291.0299999046256,,response,,,,99,,,,,,,Space,keypress(Space),,,,,,,,---- -- ----- -- ------ - ------- --- ----------<br>------------- ------ ------ ---- ---- ------- ----- -- ----<br>-------- ------- -- ---------- --- - --- ----- ----- ----<br>---- --- --- ----- you ---- ---- ------- ----- ---- -------<br>--- --- -- ----- -- --- ---- -- --- ---- -- ------ ------<br>--- ----- -- ----,121406.09999990463,121405.59999990463,121098.036,121110.89999997616,121114.57,121414.57,,32,you
screen,html.Screen,2_1_0_1_33,2022-05-12T15:34:11.155Z,,,,,,,,,,,,,,,,,53,,,,,,,,,,,,,,240.7299999523093,,response,,,,99,,,,,,,Space,keypress(Space),,,,,,,,---- -- ----- -- ------ - ------- --- ----------<br>------------- ------ ------ ---- ---- ------- ----- -- ----<br>-------- ------- -- ---------- --- - --- ----- ----- ----<br>---- --- --- ----- --- feel ---- ------- ----- ---- -------<br>--- --- -- ----- -- --- ---- -- --- ---- -- ------ ------<br>--- ----- -- ----,121655.69999992847,121655.29999995232,121397.874,121406.09999990463,121414.57,121664.436,,33,feel
screen,html.Screen,2_1_0_1_34,2022-05-12T15:34:11.437Z,,,,,,,,,,,,,,,,,53,,,,,,,,,,,,,,272.66399990463105,,response,,,,99,,,,,,,Space,keypress(Space),,,,,,,,---- -- ----- -- ------ - ------- --- ----------<br>------------- ------ ------ ---- ---- ------- ----- -- ----<br>-------- ------- -- ---------- --- - --- ----- ----- ----<br>---- --- --- ----- --- ---- that ------- ----- ---- -------<br>--- --- -- ----- -- --- ---- -- --- ---- -- ------ ------<br>--- ----- -- ----,121937.59999990463,121937.09999990463,121647.723,121655.79999995232,121664.436,121947.505,,34,that
screen,html.Screen,2_1_0_1_35,2022-05-12T15:34:11.698Z,,,,,,,,,,,,,,,,,53,,,,,,,,,,,,,,250.5949999046279,,response,,,,99,,,,,,,Space,keypress(Space),,,,,,,,---- -- ----- -- ------ - ------- --- ----------<br>------------- ------ ------ ---- ---- ------- ----- -- ----<br>-------- ------- -- ---------- --- - --- ----- ----- ----<br>---- --- --- ----- --- ---- ---- matters ----- ---- -------<br>--- --- -- ----- -- --- ---- -- --- ---- -- ------ ------<br>--- ----- -- ----,122198.69999992847,122198.09999990463,121930.919,121937.79999995232,121947.505,122214.139,,35,matters
screen,html.Screen,2_1_0_1_36,2022-05-12T15:34:11.968Z,,,,,,,,,,,,,,,,,53,,,,,,,,,,,,,,253.460999904637,,response,,,,99,,,,,,,Space,keypress(Space),,,,,,,,"---- -- ----- -- ------ - ------- --- ----------<br>------------- ------ ------ ---- ---- ------- ----- -- ----<br>-------- ------- -- ---------- --- - --- ----- ----- ----<br>---- --- --- ----- --- ---- ---- ------- most, ---- -------<br>--- --- -- ----- -- --- ---- -- --- ---- -- ------ ------<br>--- ----- -- ----",122468.09999990463,122467.59999990463,122197.383,122198.79999995232,122214.139,122480.657,,36,"most,"
screen,html.Screen,2_1_0_1_37,2022-05-12T15:34:12.259Z,,,,,,,,,,,,,,,,,53,,,,,,,,,,,,,,277.94299990462605,,response,,,,99,,,,,,,Space,keypress(Space),,,,,,,,---- -- ----- -- ------ - ------- --- ----------<br>------------- ------ ------ ---- ---- ------- ----- -- ----<br>-------- ------- -- ---------- --- - --- ----- ----- ----<br>---- --- --- ----- --- ---- ---- ------- ----- it's -------<br>--- --- -- ----- -- --- ---- -- --- ---- -- ------ ------<br>--- ----- -- ----,122759.29999995232,122758.59999990463,122463.973,122468.09999990463,122480.657,122763.783,,37,it's
screen,html.Screen,2_1_0_1_38,2022-05-12T15:34:12.543Z,,,,,,,,,,,,,,,,,53,,,,,,,,,,,,,,279.2170000000042,,response,,,,99,,,,,,,Space,keypress(Space),,,,,,,,---- -- ----- -- ------ - ------- --- ----------<br>------------- ------ ------ ---- ---- ------- ----- -- ----<br>-------- ------- -- ---------- --- - --- ----- ----- ----<br>---- --- --- ----- --- ---- ---- ------- ----- ---- whether<br>--- --- -- ----- -- --- ---- -- --- ---- -- ------ ------<br>--- ----- -- ----,123043.59999990463,123043,122747.16,122759.5,122763.783,123046.878,,38,whether
screen,html.Screen,2_1_0_1_39,2022-05-12T15:34:12.800Z,,,,,,,,,,,,,,,,,53,,,,,,,,,,,,,,253.12200000000303,,response,,,,99,,,,,,,Space,keypress(Space),,,,,,,,---- -- ----- -- ------ - ------- --- ----------<br>------------- ------ ------ ---- ---- ------- ----- -- ----<br>-------- ------- -- ---------- --- - --- ----- ----- ----<br>---- --- --- ----- --- ---- ---- ------- ----- ---- -------<br>you --- -- ----- -- --- ---- -- --- ---- -- ------ ------<br>--- ----- -- ----,123300.5,123300,123030.352,123043.69999992847,123046.878,123313.563,,39,you
screen,html.Screen,2_1_0_1_40,2022-05-12T15:34:13.099Z,,,,,,,,,,,,,,,,,53,,,,,,,,,,,,,,285.23699995232164,,response,,,,99,,,,,,,Space,keypress(Space),,,,,,,,---- -- ----- -- ------ - ------- --- ----------<br>------------- ------ ------ ---- ---- ------- ----- -- ----<br>-------- ------- -- ---------- --- - --- ----- ----- ----<br>---- --- --- ----- --- ---- ---- ------- ----- ---- -------<br>--- are -- ----- -- --- ---- -- --- ---- -- ------ ------<br>--- ----- -- ----,123599.29999995232,123598.79999995232,123296.761,123300.59999990463,123313.563,123613.4,,40,are
screen,html.Screen,2_1_0_1_41,2022-05-12T15:34:13.331Z,,,,,,,,,,,,,,,,,53,,,,,,,,,,,,,,217.49999997616396,,response,,,,99,,,,,,,Space,keypress(Space),,,,,,,,---- -- ----- -- ------ - ------- --- ----------<br>------------- ------ ------ ---- ---- ------- ----- -- ----<br>-------- ------- -- ---------- --- - --- ----- ----- ----<br>---- --- --- ----- --- ---- ---- ------- ----- ---- -------<br>--- --- as ----- -- --- ---- -- --- ---- -- ------ ------<br>--- ----- -- ----,123831.5,123830.89999997616,123596.637,123599.39999997616,123613.4,123846.611,,41,as
screen,html.Screen,2_1_0_1_42,2022-05-12T15:34:13.583Z,,,,,,,,,,,,,,,,,53,,,,,,,,,,,,,,235.98899990462814,,response,,,,99,,,,,,,Space,keypress(Space),,,,,,,,---- -- ----- -- ------ - ------- --- ----------<br>------------- ------ ------ ---- ---- ------- ----- -- ----<br>-------- ------- -- ---------- --- - --- ----- ----- ----<br>---- --- --- ----- --- ---- ---- ------- ----- ---- -------<br>--- --- -- close -- --- ---- -- --- ---- -- ------ ------<br>--- ----- -- ----,124083.09999990463,124082.59999990463,123829.936,123831.59999990463,123846.611,124096.487,,42,close
screen,html.Screen,2_1_0_1_43,2022-05-12T15:34:13.857Z,,,,,,,,,,,,,,,,,53,,,,,,,,,,,,,,260.2129999284807,,response,,,,99,,,,,,,Space,keypress(Space),,,,,,,,---- -- ----- -- ------ - ------- --- ----------<br>------------- ------ ------ ---- ---- ------- ----- -- ----<br>-------- ------- -- ---------- --- - --- ----- ----- ----<br>---- --- --- ----- --- ---- ---- ------- ----- ---- -------<br>--- --- -- ----- as --- ---- -- --- ---- -- ------ ------<br>--- ----- -- ----,124357.09999990463,124356.69999992847,124079.798,124083.19999992847,124096.487,124362.886,,43,as
screen,html.Screen,2_1_0_1_44,2022-05-12T15:34:14.080Z,,,,,,,,,,,,,,,,,53,,,,,,,,,,,,,,217.31399992847582,,response,,,,99,,,,,,,Space,keypress(Space),,,,,,,,---- -- ----- -- ------ - ------- --- ----------<br>------------- ------ ------ ---- ---- ------- ----- -- ----<br>-------- ------- -- ---------- --- - --- ----- ----- ----<br>---- --- --- ----- --- ---- ---- ------- ----- ---- -------<br>--- --- -- ----- -- you ---- -- --- ---- -- ------ ------<br>--- ----- -- ----,124580.69999992847,124580.19999992847,124346.324,124357.19999992847,124362.886,124596.155,,44,you
screen,html.Screen,2_1_0_1_45,2022-05-12T15:34:14.332Z,,,,,,,,,,,,,,,,,53,,,,,,,,,,,,,,235.64499995231745,,response,,,,99,,,,,,,Space,keypress(Space),,,,,,,,---- -- ----- -- ------ - ------- --- ----------<br>------------- ------ ------ ---- ---- ------- ----- -- ----<br>-------- ------- -- ---------- --- - --- ----- ----- ----<br>---- --- --- ----- --- ---- ---- ------- ----- ---- -------<br>--- --- -- ----- -- --- want -- --- ---- -- ------ ------<br>--- ----- -- ----,124832.19999992847,124831.79999995232,124579.421,124580.79999995232,124596.155,124846.087,,45,want
screen,html.Screen,2_1_0_1_46,2022-05-12T15:34:14.590Z,,,,,,,,,,,,,,,,,53,,,,,,,,,,,,,,243.6129999284749,,response,,,,99,,,,,,,Space,keypress(Space),,,,,,,,---- -- ----- -- ------ - ------- --- ----------<br>------------- ------ ------ ---- ---- ------- ----- -- ----<br>-------- ------- -- ---------- --- - --- ----- ----- ----<br>---- --- --- ----- --- ---- ---- ------- ----- ---- -------<br>--- --- -- ----- -- --- ---- to --- ---- -- ------ ------<br>--- ----- -- ----,125090.09999990463,125089.69999992847,124829.374,124832.29999995232,124846.087,125095.899,,46,to
screen,html.Screen,2_1_0_1_47,2022-05-12T15:34:14.838Z,,,,,,,,,,,,,,,,,53,,,,,,,,,,,,,,242.20099990462768,,response,,,,99,,,,,,,Space,keypress(Space),,,,,,,,"---- -- ----- -- ------ - ------- --- ----------<br>------------- ------ ------ ---- ---- ------- ----- -- ----<br>-------- ------- -- ---------- --- - --- ----- ----- ----<br>---- --- --- ----- --- ---- ---- ------- ----- ---- -------<br>--- --- -- ----- -- --- ---- -- be, ---- -- ------ ------<br>--- ----- -- ----",125338.69999992847,125338.09999990463,125079.281,125090.29999995232,125095.899,125345.779,,47,"be,"
screen,html.Screen,2_1_0_1_48,2022-05-12T15:34:15.105Z,,,,,,,,,,,,,,,,,53,,,,,,,,,,,,,,258.62099997616315,,response,,,,99,,,,,,,Space,keypress(Space),,,,,,,,---- -- ----- -- ------ - ------- --- ----------<br>------------- ------ ------ ---- ---- ------- ----- -- ----<br>-------- ------- -- ---------- --- - --- ----- ----- ----<br>---- --- --- ----- --- ---- ---- ------- ----- ---- -------<br>--- --- -- ----- -- --- ---- -- --- even -- ------ ------<br>--- ----- -- ----,125605,125604.39999997616,125329.153,125338.79999995232,125345.779,125612.293,,48,even
screen,html.Screen,2_1_0_1_49,2022-05-12T15:34:15.353Z,,,,,,,,,,,,,,,,,53,,,,,,,,,,,,,,240.30699990462745,,response,,,,99,,,,,,,Space,keypress(Space),,,,,,,,---- -- ----- -- ------ - ------- --- ----------<br>------------- ------ ------ ---- ---- ------- ----- -- ----<br>-------- ------- -- ---------- --- - --- ----- ----- ----<br>---- --- --- ----- --- ---- ---- ------- ----- ---- -------<br>--- --- -- ----- -- --- ---- -- --- ---- if ------ ------<br>--- ----- -- ----,125853.09999990463,125852.59999990463,125595.534,125605.09999990463,125612.293,125862.229,,49,if
screen,html.Screen,2_1_0_1_50,2022-05-12T15:34:15.557Z,,,,,,,,,,,,,,,,,53,,,,,,,,,,,,,,195.1709999761515,,response,,,,99,,,,,,,Space,keypress(Space),,,,,,,,---- -- ----- -- ------ - ------- --- ----------<br>------------- ------ ------ ---- ---- ------- ----- -- ----<br>-------- ------- -- ---------- --- - --- ----- ----- ----<br>---- --- --- ----- --- ---- ---- ------- ----- ---- -------<br>--- --- -- ----- -- --- ---- -- --- ---- -- that's ------<br>--- ----- -- ----,126057.89999997616,126057.39999997616,125845.424,125853.29999995232,125862.229,126062.062,,50,that's
screen,html.Screen,2_1_0_1_51,2022-05-12T15:34:15.811Z,,,,,,,,,,,,,,,,,53,,,,,,,,,,,,,,248.43799999999464,,response,,,,99,,,,,,,Space,keypress(Space),,,,,,,,---- -- ----- -- ------ - ------- --- ----------<br>------------- ------ ------ ---- ---- ------- ----- -- ----<br>-------- ------- -- ---------- --- - --- ----- ----- ----<br>---- --- --- ----- --- ---- ---- ------- ----- ---- -------<br>--- --- -- ----- -- --- ---- -- --- ---- -- ------ really<br>--- ----- -- ----,126311,126310.5,126045.448,126058,126062.062,126332.599,,51,really
screen,html.Screen,2_1_0_1_52,2022-05-12T15:34:16.358Z,,,,,,,,,,,,,,,,,53,,,,,,,,,,,,,,525.2009999523143,,response,,,,99,,,,,,,Space,keypress(Space),,,,,,,,---- -- ----- -- ------ - ------- --- ----------<br>------------- ------ ------ ---- ---- ------- ----- -- ----<br>-------- ------- -- ---------- --- - --- ----- ----- ----<br>---- --- --- ----- --- ---- ---- ------- ----- ---- -------<br>--- --- -- ----- -- --- ---- -- --- ---- -- ------ ------<br>not ----- -- ----,126858.29999995232,126857.79999995232,126295.251,126311,126332.599,126861.572,,52,not
screen,html.Screen,2_1_0_1_53,2022-05-12T15:34:16.729Z,,,,,,,,,,,,,,,,,53,,,,,,,,,,,,,,366.9279999999999,,response,,,,99,,,,,,,Space,keypress(Space),,,,,,,,---- -- ----- -- ------ - ------- --- ----------<br>------------- ------ ------ ---- ---- ------- ----- -- ----<br>-------- ------- -- ---------- --- - --- ----- ----- ----<br>---- --- --- ----- --- ---- ---- ------- ----- ---- -------<br>--- --- -- ----- -- --- ---- -- --- ---- -- ------ ------<br>--- close -- ----,127229,127228.5,126845.037,126858.39999997616,126861.572,127244.847,,53,close
screen,html.Screen,2_1_0_1_54,2022-05-12T15:34:17.021Z,,,,,,,,,,,,,,,,,53,,,,,,,,,,,,,,275.6530000000057,,response,,,,99,,,,,,,Space,keypress(Space),,,,,,,,---- -- ----- -- ------ - ------- --- ----------<br>------------- ------ ------ ---- ---- ------- ----- -- ----<br>-------- ------- -- ---------- --- - --- ----- ----- ----<br>---- --- --- ----- --- ---- ---- ------- ----- ---- -------<br>--- --- -- ----- -- --- ---- -- --- ---- -- ------ ------<br>--- ----- at ----,127521,127520.5,127228.144,127229.09999990463,127244.847,127528.042,,54,at
screen,html.Screen,2_1_0_1_55,2022-05-12T15:34:17.450Z,,,,,,,,,,,,,,,,,53,,,,,,,,,,,,,,421.85799997615686,,response,,,,99,,,,,,,Space,keypress(Space),,,,,,,,---- -- ----- -- ------ - ------- --- ----------<br>------------- ------ ------ ---- ---- ------- ----- -- ----<br>-------- ------- -- ---------- --- - --- ----- ----- ----<br>---- --- --- ----- --- ---- ---- ------- ----- ---- -------<br>--- --- -- ----- -- --- ---- -- --- ---- -- ------ ------<br>--- ----- -- all.,127950.5,127949.89999997616,127511.263,127521.19999992847,127528.042,127961.012,,55,all.
Item 99,flow.Loop,2_1_0_1,2022-05-12T15:34:17.450Z,,,,,,,,,,,,,,,,,,,,,,,,,,,,,,,17046.64699997616,,completion,,,,,F,,,,,,,,,,,silence,,,,,127950.59999990463,127949.89999997616,110820.076,110820.69999992847,110903.253,127961.012,,,
Question 1,html.Screen,2_1_0_2,2022-05-12T15:34:21.384Z,,,,,,,,,,,,,,,,,,,,,,,,,,,,true,FALSE,,3922.3879999761557,,response,,,,99,F,,,,,,FALSE,click #choice-2,,,,silence,,,,,131884.5,131883.39999997616,127944.313,127950.69999992847,127961.012,131892.275,,,
Question 2,html.Screen,2_1_0_3,2022-05-12T15:34:25.446Z,,,,,,,,,,,,,,,,,,,,,,,,,,,,true,TRUE,,4052.524999952322,,response,,,,99,F,,,,,,TRUE,click #choice-1,,,,silence,,,,,135946.39999997616,135944.79999995232,131875.652,131884.59999990463,131892.275,135956.827,,,
Item 99,flow.Sequence,2_1_0,2022-05-12T15:34:25.446Z,,,,,,,,,,,,,,,,,,,,,,,,,,,,,,,35102.96299995232,,completion,,,,,,,,,,,,,,,,,,,,,135946.59999990463,135944.79999995232,100825.205,100824.5,100841.837,135956.827,,,
Holding screen,html.Screen,2_1_1_0,2022-05-12T15:34:35.435Z,,,,,,,,,,,,,,,,,,,,,,,,,,,,,,,9994.803000000014,,timeout,,,,,,,,,,,,,,,,,,,,,145935.39999997616,145934.978,135940.279,135946.69999992847,135956.827,145951.63,,,
screen,html.Screen,2_1_1_1_0,2022-05-12T15:34:36.220Z,,,,,,,,,,,,,,,,,54,,,,,,,,,,,,,,767.6699999523116,,response,,,,100,,,,,,,Space,keypress(Space),,,,,,,,At --- ---- --- ------ ----- ------- ---- -- --- ------- --<br>------- ---------- ------ -- ----- -- ----- -- ---- ------<br>--- ----- --- --- ------ -------- ----- --- ------ ----- --<br>----- ----- ---------- --- --- ------ ------ ---- -- ------<br>------- --- ------ ----- --- ---- ------- -- ---- --- --<br>------- ------,146719.89999997616,146719.29999995232,145934.978,145935.5,145951.63,146734.613,,0,At
screen,html.Screen,2_1_1_1_1,2022-05-12T15:34:36.500Z,,,,,,,,,,,,,,,,,54,,,,,,,,,,,,,,264.8869999999879,,response,,,,100,,,,,,,Space,keypress(Space),,,,,,,,-- the ---- --- ------ ----- ------- ---- -- --- ------- --<br>------- ---------- ------ -- ----- -- ----- -- ---- ------<br>--- ----- --- --- ------ -------- ----- --- ------ ----- --<br>----- ----- ---------- --- --- ------ ------ ---- -- ------<br>------- --- ------ ----- --- ---- ------- -- ---- --- --<br>------- ------,147000.09999990463,146999.5,146717.986,146720,146734.613,147031.675,,1,the
screen,html.Screen,2_1_1_1_2,2022-05-12T15:34:37.049Z,,,,,,,,,,,,,,,,,54,,,,,,,,,,,,,,517.1249999523279,,response,,,,100,,,,,,,Space,keypress(Space),,,,,,,,-- --- time --- ------ ----- ------- ---- -- --- ------- --<br>------- ---------- ------ -- ----- -- ----- -- ---- ------<br>--- ----- --- --- ------ -------- ----- --- ------ ----- --<br>----- ----- ---------- --- --- ------ ------ ---- -- ------<br>------- --- ------ ----- --- ---- ------- -- ---- --- --<br>------- ------,147549.29999995232,147548.79999995232,146984.494,147000.19999992847,147031.675,147550.759,,2,time
screen,html.Screen,2_1_1_1_3,2022-05-12T15:34:37.400Z,,,,,,,,,,,,,,,,,54,,,,,,,,,,,,,,349.4409999284835,,response,,,,100,,,,,,,Space,keypress(Space),,,,,,,,-- --- ---- the ------ ----- ------- ---- -- --- ------- --<br>------- ---------- ------ -- ----- -- ----- -- ---- ------<br>--- ----- --- --- ------ -------- ----- --- ------ ----- --<br>----- ----- ---------- --- --- ------ ------ ---- -- ------<br>------- --- ------ ----- --- ---- ------- -- ---- --- --<br>------- ------,147900.69999992847,147900.19999992847,147534.064,147549.29999995232,147550.759,147917.381,,3,the
screen,html.Screen,2_1_1_1_4,2022-05-12T15:34:37.723Z,,,,,,,,,,,,,,,,,54,,,,,,,,,,,,,,305.5189999761642,,response,,,,100,,,,,,,Space,keypress(Space),,,,,,,,-- --- ---- --- French ----- ------- ---- -- --- ------- --<br>------- ---------- ------ -- ----- -- ----- -- ---- ------<br>--- ----- --- --- ------ -------- ----- --- ------ ----- --<br>----- ----- ---------- --- --- ------ ------ ---- -- ------<br>------- --- ------ ----- --- ---- ------- -- ---- --- --<br>------- ------,148223.5,148222.89999997616,147900.679,147900.79999995232,147917.381,148233.766,,4,French
screen,html.Screen,2_1_1_1_5,2022-05-12T15:34:38.051Z,,,,,,,,,,,,,,,,,54,,,,,,,,,,,,,,317.3339999046293,,response,,,,100,,,,,,,Space,keypress(Space),,,,,,,,-- --- ---- --- ------ crown ------- ---- -- --- ------- --<br>------- ---------- ------ -- ----- -- ----- -- ---- ------<br>--- ----- --- --- ------ -------- ----- --- ------ ----- --<br>----- ----- ---------- --- --- ------ ------ ---- -- ------<br>------- --- ------ ----- --- ---- ------- -- ---- --- --<br>------- ------,148551.69999992847,148551.09999990463,148217.211,148223.59999990463,148233.766,148567.022,,5,crown
screen,html.Screen,2_1_1_1_6,2022-05-12T15:34:38.354Z,,,,,,,,,,,,,,,,,54,,,,,,,,,,,,,,286.9780000000028,,response,,,,100,,,,,,,Space,keypress(Space),,,,,,,,-- --- ---- --- ------ ----- secured ---- -- --- ------- --<br>------- ---------- ------ -- ----- -- ----- -- ---- ------<br>--- ----- --- --- ------ -------- ----- --- ------ ----- --<br>----- ----- ---------- --- --- ------ ------ ---- -- ------<br>------- --- ------ ----- --- ---- ------- -- ---- --- --<br>------- ------,148854.39999997616,148854,148550.196,148551.69999992847,148567.022,148866.799,,6,secured
screen,html.Screen,2_1_1_1_7,2022-05-12T15:34:38.646Z,,,,,,,,,,,,,,,,,54,,,,,,,,,,,,,,278.5009999523172,,response,,,,100,,,,,,,Space,keypress(Space),,,,,,,,-- --- ---- --- ------ ----- ------- much -- --- ------- --<br>------- ---------- ------ -- ----- -- ----- -- ---- ------<br>--- ----- --- --- ------ -------- ----- --- ------ ----- --<br>----- ----- ---------- --- --- ------ ------ ---- -- ------<br>------- --- ------ ----- --- ---- ------- -- ---- --- --<br>------- ------,149145.79999995232,149145.29999995232,148850.204,148854.59999990463,148866.799,149150.054,,7,much
screen,html.Screen,2_1_1_1_8,2022-05-12T15:34:38.930Z,,,,,,,,,,,,,,,,,54,,,,,,,,,,,,,,279.9459999999963,,response,,,,100,,,,,,,Space,keypress(Space),,,,,,,,-- --- ---- --- ------ ----- ------- ---- of --- ------- --<br>------- ---------- ------ -- ----- -- ----- -- ---- ------<br>--- ----- --- --- ------ -------- ----- --- ------ ----- --<br>----- ----- ---------- --- --- ------ ------ ---- -- ------<br>------- --- ------ ----- --- ---- ------- -- ---- --- --<br>------- ------,149430.69999992847,149430,149133.284,149146,149150.054,149433.094,,8,of
screen,html.Screen,2_1_1_1_9,2022-05-12T15:34:39.207Z,,,,,,,,,,,,,,,,,54,,,,,,,,,,,,,,273.9059999999881,,response,,,,100,,,,,,,Space,keypress(Space),,,,,,,,-- --- ---- --- ------ ----- ------- ---- -- its ------- --<br>------- ---------- ------ -- ----- -- ----- -- ---- ------<br>--- ----- --- --- ------ -------- ----- --- ------ ----- --<br>----- ----- ---------- --- --- ------ ------ ---- -- ------<br>------- --- ------ ----- --- ---- ------- -- ---- --- --<br>------- ------,149707.59999990463,149707,149416.56,149430.79999995232,149433.094,149716.433,,9,its
screen,html.Screen,2_1_1_1_10,2022-05-12T15:34:39.469Z,,,,,,,,,,,,,,,,,54,,,,,,,,,,,,,,252.3669999523263,,response,,,,100,,,,,,,Space,keypress(Space),,,,,,,,-- --- ---- --- ------ ----- ------- ---- -- --- revenue --<br>------- ---------- ------ -- ----- -- ----- -- ---- ------<br>--- ----- --- --- ------ -------- ----- --- ------ ----- --<br>----- ----- ---------- --- --- ------ ------ ---- -- ------<br>------- --- ------ ----- --- ---- ------- -- ---- --- --<br>------- ------,149969.39999997616,149968.79999995232,149699.626,149707.69999992847,149716.433,149982.959,,10,revenue
screen,html.Screen,2_1_1_1_11,2022-05-12T15:34:39.746Z,,,,,,,,,,,,,,,,,54,,,,,,,,,,,,,,262.9409999761556,,response,,,,100,,,,,,,Space,keypress(Space),,,,,,,,-- --- ---- --- ------ ----- ------- ---- -- --- ------- by<br>------- ---------- ------ -- ----- -- ----- -- ---- ------<br>--- ----- --- --- ------ -------- ----- --- ------ ----- --<br>----- ----- ---------- --- --- ------ ------ ---- -- ------<br>------- --- ------ ----- --- ---- ------- -- ---- --- --<br>------- ------,150246.39999997616,150245.89999997616,149966.28,149969.5,149982.959,150249.346,,11,by
screen,html.Screen,2_1_1_1_12,2022-05-12T15:34:40.100Z,,,,,,,,,,,,,,,,,54,,,,,,,,,,,,,,350.5539999761677,,response,,,,100,,,,,,,Space,keypress(Space),,,,,,,,-- --- ---- --- ------ ----- ------- ---- -- --- ------- --<br>issuing ---------- ------ -- ----- -- ----- -- ---- ------<br>--- ----- --- --- ------ -------- ----- --- ------ ----- --<br>----- ----- ---------- --- --- ------ ------ ---- -- ------<br>------- --- ------ ----- --- ---- ------- -- ---- --- --<br>------- ------,150600.5,150599.89999997616,150232.802,150246.5,150249.346,150615.875,,12,issuing
screen,html.Screen,2_1_1_1_13,2022-05-12T15:34:40.191Z,,,,,,,,,,,,,,,,,54,,,,,,,,,,,,,,75.22499990463257,,response,,,,100,,,,,,,Space,keypress(Space),,,,,,,,-- --- ---- --- ------ ----- ------- ---- -- --- ------- --<br>------- government ------ -- ----- -- ----- -- ---- ------<br>--- ----- --- --- ------ -------- ----- --- ------ ----- --<br>----- ----- ---------- --- --- ------ ------ ---- -- ------<br>------- --- ------ ----- --- ---- ------- -- ---- --- --<br>------- ------,150691.79999995232,150691.09999990463,150599.272,150600.59999990463,150615.875,150699.163,,13,government
screen,html.Screen,2_1_1_1_14,2022-05-12T15:34:40.409Z,,,,,,,,,,,,,,,,,54,,,,,,,,,,,,,,209.4369999046321,,response,,,,100,,,,,,,Space,keypress(Space),,,,,,,,-- --- ---- --- ------ ----- ------- ---- -- --- ------- --<br>------- ---------- bonds. -- ----- -- ----- -- ---- ------<br>--- ----- --- --- ------ -------- ----- --- ------ ----- --<br>----- ----- ---------- --- --- ------ ------ ---- -- ------<br>------- --- ------ ----- --- ---- ------- -- ---- --- --<br>------- ------,150909,150908.59999990463,150682.443,150691.89999997616,150699.163,150915.748,,14,bonds.
screen,html.Screen,2_1_1_1_15,2022-05-12T15:34:40.966Z,,,,,,,,,,,,,,,,,54,,,,,,,,,,,,,,550.551999952324,,response,,,,100,,,,,,,Space,keypress(Space),,,,,,,,-- --- ---- --- ------ ----- ------- ---- -- --- ------- --<br>------- ---------- ------ In ----- -- ----- -- ---- ------<br>--- ----- --- --- ------ -------- ----- --- ------ ----- --<br>----- ----- ---------- --- --- ------ ------ ---- -- ------<br>------- --- ------ ----- --- ---- ------- -- ---- --- --<br>------- ------,151466.79999995232,151466.29999995232,150899.029,150909.19999992847,150915.748,151482.173,,15,In
screen,html.Screen,2_1_1_1_16,2022-05-12T15:34:41.270Z,,,,,,,,,,,,,,,,,54,,,,,,,,,,,,,,287.6269999523065,,response,,,,100,,,,,,,Space,keypress(Space),,,,,,,,"-- --- ---- --- ------ ----- ------- ---- -- --- ------- --<br>------- ---------- ------ -- 1727, -- ----- -- ---- ------<br>--- ----- --- --- ------ -------- ----- --- ------ ----- --<br>----- ----- ---------- --- --- ------ ------ ---- -- ------<br>------- --- ------ ----- --- ---- ------- -- ---- --- --<br>------- ------",151770.29999995232,151769.79999995232,151465.501,151466.79999995232,151482.173,151782.042,,16,"1727,"
screen,html.Screen,2_1_1_1_17,2022-05-12T15:34:42.230Z,,,,,,,,,,,,,,,,,54,,,,,,,,,,,,,,948.0579999046458,,response,,,,100,,,,,,,Space,keypress(Space),,,,,,,,-- --- ---- --- ------ ----- ------- ---- -- --- ------- --<br>------- ---------- ------ -- ----- in ----- -- ---- ------<br>--- ----- --- --- ------ -------- ----- --- ------ ----- --<br>----- ----- ---------- --- --- ------ ------ ---- -- ------<br>------- --- ------ ----- --- ---- ------- -- ---- --- --<br>------- ------,152730.69999992847,152730.09999990463,151765.2,151770.29999995232,151782.042,152758.169,,17,in
screen,html.Screen,2_1_1_1_18,2022-05-12T15:34:42.528Z,,,,,,,,,,,,,,,,,54,,,,,,,,,,,,,,269.73099997616373,,response,,,,100,,,,,,,Space,keypress(Space),,,,,,,,-- --- ---- --- ------ ----- ------- ---- -- --- ------- --<br>------- ---------- ------ -- ----- -- order -- ---- ------<br>--- ----- --- --- ------ -------- ----- --- ------ ----- --<br>----- ----- ---------- --- --- ------ ------ ---- -- ------<br>------- --- ------ ----- --- ---- ------- -- ---- --- --<br>------- ------,153028.5,153027.89999997616,152714.841,152730.69999992847,152758.169,153031.215,,18,order
screen,html.Screen,2_1_1_1_19,2022-05-12T15:34:42.816Z,,,,,,,,,,,,,,,,,54,,,,,,,,,,,,,,284.9849999284779,,response,,,,100,,,,,,,Space,keypress(Space),,,,,,,,-- --- ---- --- ------ ----- ------- ---- -- --- ------- --<br>------- ---------- ------ -- ----- -- ----- to ---- ------<br>--- ----- --- --- ------ -------- ----- --- ------ ----- --<br>----- ----- ---------- --- --- ------ ------ ---- -- ------<br>------- --- ------ ----- --- ---- ------- -- ---- --- --<br>------- ------,153316.69999992847,153316.19999992847,153014.686,153028.69999992847,153031.215,153331.139,,19,to
screen,html.Screen,2_1_1_1_20,2022-05-12T15:34:43.047Z,,,,,,,,,,,,,,,,,54,,,,,,,,,,,,,,215.460999904637,,response,,,,100,,,,,,,Space,keypress(Space),,,,,,,,-- --- ---- --- ------ ----- ------- ---- -- --- ------- --<br>------- ---------- ------ -- ----- -- ----- -- save ------<br>--- ----- --- --- ------ -------- ----- --- ------ ----- --<br>----- ----- ---------- --- --- ------ ------ ---- -- ------<br>------- --- ------ ----- --- ---- ------- -- ---- --- --<br>------- ------,153547.29999995232,153546.59999990463,153314.392,153316.79999995232,153331.139,153580.973,,20,save
screen,html.Screen,2_1_1_1_21,2022-05-12T15:34:43.268Z,,,,,,,,,,,,,,,,,54,,,,,,,,,,,,,,186.52700000000186,,response,,,,100,,,,,,,Space,keypress(Space),,,,,,,,"-- --- ---- --- ------ ----- ------- ---- -- --- ------- --<br>------- ---------- ------ -- ----- -- ----- -- ---- money,<br>--- ----- --- --- ------ -------- ----- --- ------ ----- --<br>----- ----- ---------- --- --- ------ ------ ---- -- ------<br>------- --- ------ ----- --- ---- ------- -- ---- --- --<br>------- ------",153768,153767.5,153564.399,153547.29999995232,153580.973,153781.02,,21,"money,"
screen,html.Screen,2_1_1_1_22,2022-05-12T15:34:43.526Z,,,,,,,,,,,,,,,,,54,,,,,,,,,,,,,,244.37999997616862,,response,,,,100,,,,,,,Space,keypress(Space),,,,,,,,-- --- ---- --- ------ ----- ------- ---- -- --- ------- --<br>------- ---------- ------ -- ----- -- ----- -- ---- ------<br>the ----- --- --- ------ -------- ----- --- ------ ----- --<br>----- ----- ---------- --- --- ------ ------ ---- -- ------<br>------- --- ------ ----- --- ---- ------- -- ---- --- --<br>------- ------,154025.79999995232,154025.39999997616,153764.293,153768.09999990463,153781.02,154030.755,,22,the
screen,html.Screen,2_1_1_1_23,2022-05-12T15:34:43.782Z,,,,,,,,,,,,,,,,,54,,,,,,,,,,,,,,250.3449999046279,,response,,,,100,,,,,,,Space,keypress(Space),,,,,,,,-- --- ---- --- ------ ----- ------- ---- -- --- ------- --<br>------- ---------- ------ -- ----- -- ----- -- ---- ------<br>--- state --- --- ------ -------- ----- --- ------ ----- --<br>----- ----- ---------- --- --- ------ ------ ---- -- ------<br>------- --- ------ ----- --- ---- ------- -- ---- --- --<br>------- ------,154282.09999990463,154281.09999990463,154014.182,154025.89999997616,154030.755,154297.29,,23,state
screen,html.Screen,2_1_1_1_24,2022-05-12T15:34:44.053Z,,,,,,,,,,,,,,,,,54,,,,,,,,,,,,,,255.40999992846628,,response,,,,100,,,,,,,Space,keypress(Space),,,,,,,,-- --- ---- --- ------ ----- ------- ---- -- --- ------- --<br>------- ---------- ------ -- ----- -- ----- -- ---- ------<br>--- ----- cut --- ------ -------- ----- --- ------ ----- --<br>----- ----- ---------- --- --- ------ ------ ---- -- ------<br>------- --- ------ ----- --- ---- ------- -- ---- --- --<br>------- ------,154553.19999992847,154552.69999992847,154280.681,154282.29999995232,154297.29,154563.909,,24,cut
screen,html.Screen,2_1_1_1_25,2022-05-12T15:34:44.321Z,,,,,,,,,,,,,,,,,54,,,,,,,,,,,,,,256.69099990461837,,response,,,,100,,,,,,,Space,keypress(Space),,,,,,,,-- --- ---- --- ------ ----- ------- ---- -- --- ------- --<br>------- ---------- ------ -- ----- -- ----- -- ---- ------<br>--- ----- --- the ------ -------- ----- --- ------ ----- --<br>----- ----- ---------- --- --- ------ ------ ---- -- ------<br>------- --- ------ ----- --- ---- ------- -- ---- --- --<br>------- ------,154821.09999990463,154820.59999990463,154547.11,154553.29999995232,154563.909,154830.309,,25,the
screen,html.Screen,2_1_1_1_26,2022-05-12T15:34:44.556Z,,,,,,,,,,,,,,,,,54,,,,,,,,,,,,,,225.9909999523079,,response,,,,100,,,,,,,Space,keypress(Space),,,,,,,,-- --- ---- --- ------ ----- ------- ---- -- --- ------- --<br>------- ---------- ------ -- ----- -- ----- -- ---- ------<br>--- ----- --- --- bonds' -------- ----- --- ------ ----- --<br>----- ----- ---------- --- --- ------ ------ ---- -- ------<br>------- --- ------ ----- --- ---- ------- -- ---- --- --<br>------- ------,155056.79999995232,155056.29999995232,154813.736,154821.19999992847,154830.309,155063.651,,26,bonds'
screen,html.Screen,2_1_1_1_27,2022-05-12T15:34:44.782Z,,,,,,,,,,,,,,,,,54,,,,,,,,,,,,,,217.84899999998743,,response,,,,100,,,,,,,Space,keypress(Space),,,,,,,,-- --- ---- --- ------ ----- ------- ---- -- --- ------- --<br>------- ---------- ------ -- ----- -- ----- -- ---- ------<br>--- ----- --- --- ------ interest ----- --- ------ ----- --<br>----- ----- ---------- --- --- ------ ------ ---- -- ------<br>------- --- ------ ----- --- ---- ------- -- ---- --- --<br>------- ------,155282,155281.5,155046.904,155056.89999997616,155063.651,155296.851,,27,interest
screen,html.Screen,2_1_1_1_28,2022-05-12T15:34:45.070Z,,,,,,,,,,,,,,,,,54,,,,,,,,,,,,,,273.24899990463746,,response,,,,100,,,,,,,Space,keypress(Space),,,,,,,,-- --- ---- --- ------ ----- ------- ---- -- --- ------- --<br>------- ---------- ------ -- ----- -- ----- -- ---- ------<br>--- ----- --- --- ------ -------- rate. --- ------ ----- --<br>----- ----- ---------- --- --- ------ ------ ---- -- ------<br>------- --- ------ ----- --- ---- ------- -- ---- --- --<br>------- ------,155570.69999992847,155570.09999990463,155280.172,155282.09999990463,155296.851,155596.815,,28,rate.
screen,html.Screen,2_1_1_1_29,2022-05-12T15:34:45.349Z,,,,,,,,,,,,,,,,,54,,,,,,,,,,,,,,252.0849999761558,,response,,,,100,,,,,,,Space,keypress(Space),,,,,,,,-- --- ---- --- ------ ----- ------- ---- -- --- ------- --<br>------- ---------- ------ -- ----- -- ----- -- ---- ------<br>--- ----- --- --- ------ -------- ----- The ------ ----- --<br>----- ----- ---------- --- --- ------ ------ ---- -- ------<br>------- --- ------ ----- --- ---- ------- -- ---- --- --<br>------- ------,155849.39999997616,155848.89999997616,155579.961,155570.79999995232,155596.815,155863.151,,29,The
screen,html.Screen,2_1_1_1_30,2022-05-12T15:34:45.625Z,,,,,,,,,,,,,,,,,54,,,,,,,,,,,,,,261.44899990462,,response,,,,100,,,,,,,Space,keypress(Space),,,,,,,,-- --- ---- --- ------ ----- ------- ---- -- --- ------- --<br>------- ---------- ------ -- ----- -- ----- -- ---- ------<br>--- ----- --- --- ------ -------- ----- --- market ----- --<br>----- ----- ---------- --- --- ------ ------ ---- -- ------<br>------- --- ------ ----- --- ---- ------- -- ---- --- --<br>------- ------,156125.09999990463,156124.59999990463,155846.439,155849.5,155863.151,156146.44,,30,market
screen,html.Screen,2_1_1_1_31,2022-05-12T15:34:45.861Z,,,,,,,,,,,,,,,,,54,,,,,,,,,,,,,,214.65999990463024,,response,,,,100,,,,,,,Space,keypress(Space),,,,,,,,-- --- ---- --- ------ ----- ------- ---- -- --- ------- --<br>------- ---------- ------ -- ----- -- ----- -- ---- ------<br>--- ----- --- --- ------ -------- ----- --- ------ value --<br>----- ----- ---------- --- --- ------ ------ ---- -- ------<br>------- --- ------ ----- --- ---- ------- -- ---- --- --<br>------- ------,156361.69999992847,156361.09999990463,156129.755,156125.19999992847,156146.44,156388.005,,31,value
screen,html.Screen,2_1_1_1_32,2022-05-12T15:34:46.096Z,,,,,,,,,,,,,,,,,54,,,,,,,,,,,,,,208.0949999046279,,response,,,,100,,,,,,,Space,keypress(Space),,,,,,,,-- --- ---- --- ------ ----- ------- ---- -- --- ------- --<br>------- ---------- ------ -- ----- -- ----- -- ---- ------<br>--- ----- --- --- ------ -------- ----- --- ------ ----- of<br>----- ----- ---------- --- --- ------ ------ ---- -- ------<br>------- --- ------ ----- --- ---- ------- -- ---- --- --<br>------- ------,156596.69999992847,156596.09999990463,156346.284,156361.79999995232,156388.005,156612.833,,32,of
screen,html.Screen,2_1_1_1_33,2022-05-12T15:34:46.368Z,,,,,,,,,,,,,,,,,54,,,,,,,,,,,,,,255.466999952303,,response,,,,100,,,,,,,Space,keypress(Space),,,,,,,,-- --- ---- --- ------ ----- ------- ---- -- --- ------- --<br>------- ---------- ------ -- ----- -- ----- -- ---- ------<br>--- ----- --- --- ------ -------- ----- --- ------ ----- --<br>these ----- ---------- --- --- ------ ------ ---- -- ------<br>------- --- ------ ----- --- ---- ------- -- ---- --- --<br>------- ------,156868.79999995232,156868.29999995232,156596.004,156596.79999995232,156612.833,156879.301,,33,these
screen,html.Screen,2_1_1_1_34,2022-05-12T15:34:46.611Z,,,,,,,,,,,,,,,,,54,,,,,,,,,,,,,,232.0989999761514,,response,,,,100,,,,,,,Space,keypress(Space),,,,,,,,-- --- ---- --- ------ ----- ------- ---- -- --- ------- --<br>------- ---------- ------ -- ----- -- ----- -- ---- ------<br>--- ----- --- --- ------ -------- ----- --- ------ ----- --<br>----- bonds ---------- --- --- ------ ------ ---- -- ------<br>------- --- ------ ----- --- ---- ------- -- ---- --- --<br>------- ------,157111.89999997616,157111.39999997616,156862.536,156868.79999995232,156879.301,157131.829,,34,bonds
screen,html.Screen,2_1_1_1_35,2022-05-12T15:34:46.885Z,,,,,,,,,,,,,,,,,54,,,,,,,,,,,,,,252.77099990463466,,response,,,,100,,,,,,,Space,keypress(Space),,,,,,,,"-- --- ---- --- ------ ----- ------- ---- -- --- ------- --<br>------- ---------- ------ -- ----- -- ----- -- ---- ------<br>--- ----- --- --- ------ -------- ----- --- ------ ----- --<br>----- ----- plummeted, --- --- ------ ------ ---- -- ------<br>------- --- ------ ----- --- ---- ------- -- ---- --- --<br>------- ------",157385.09999990463,157384.59999990463,157095.853,157112,157131.829,157395.752,,35,"plummeted,"
screen,html.Screen,2_1_1_1_36,2022-05-12T15:34:47.132Z,,,,,,,,,,,,,,,,,54,,,,,,,,,,,,,,235.94799992846674,,response,,,,100,,,,,,,Space,keypress(Space),,,,,,,,-- --- ---- --- ------ ----- ------- ---- -- --- ------- --<br>------- ---------- ------ -- ----- -- ----- -- ---- ------<br>--- ----- --- --- ------ -------- ----- --- ------ ----- --<br>----- ----- ---------- and --- ------ ------ ---- -- ------<br>------- --- ------ ----- --- ---- ------- -- ---- --- --<br>------- ------,157632.29999995232,157631.69999992847,157378.962,157385.19999992847,157395.752,157645.634,,36,and
screen,html.Screen,2_1_1_1_37,2022-05-12T15:34:47.424Z,,,,,,,,,,,,,,,,,54,,,,,,,,,,,,,,278.2659999761672,,response,,,,100,,,,,,,Space,keypress(Space),,,,,,,,-- --- ---- --- ------ ----- ------- ---- -- --- ------- --<br>------- ---------- ------ -- ----- -- ----- -- ---- ------<br>--- ----- --- --- ------ -------- ----- --- ------ ----- --<br>----- ----- ---------- --- the ------ ------ ---- -- ------<br>------- --- ------ ----- --- ---- ------- -- ---- --- --<br>------- ------,157924.39999997616,157923.89999997616,157628.832,157632.29999995232,157645.634,157928.688,,37,the
screen,html.Screen,2_1_1_1_38,2022-05-12T15:34:47.629Z,,,,,,,,,,,,,,,,,54,,,,,,,,,,,,,,200.51199992847978,,response,,,,100,,,,,,,Space,keypress(Space),,,,,,,,-- --- ---- --- ------ ----- ------- ---- -- --- ------- --<br>------- ---------- ------ -- ----- -- ----- -- ---- ------<br>--- ----- --- --- ------ -------- ----- --- ------ ----- --<br>----- ----- ---------- --- --- market ------ ---- -- ------<br>------- --- ------ ----- --- ---- ------- -- ---- --- --<br>------- ------,158129.69999992847,158129.19999992847,157912.127,157924.5,157928.688,158145.353,,38,market
screen,html.Screen,2_1_1_1_39,2022-05-12T15:34:47.857Z,,,,,,,,,,,,,,,,,54,,,,,,,,,,,,,,210.9469999523135,,response,,,,100,,,,,,,Space,keypress(Space),,,,,,,,-- --- ---- --- ------ ----- ------- ---- -- --- ------- --<br>------- ---------- ------ -- ----- -- ----- -- ---- ------<br>--- ----- --- --- ------ -------- ----- --- ------ ----- --<br>----- ----- ---------- --- --- ------ became ---- -- ------<br>------- --- ------ ----- --- ---- ------- -- ---- --- --<br>------- ------,158357,158356.29999995232,158128.537,158129.79999995232,158145.353,158361.829,,39,became
screen,html.Screen,2_1_1_1_40,2022-05-12T15:34:48.069Z,,,,,,,,,,,,,,,,,54,,,,,,,,,,,,,,206.6710000000021,,response,,,,100,,,,,,,Space,keypress(Space),,,,,,,,-- --- ---- --- ------ ----- ------- ---- -- --- ------- --<br>------- ---------- ------ -- ----- -- ----- -- ---- ------<br>--- ----- --- --- ------ -------- ----- --- ------ ----- --<br>----- ----- ---------- --- --- ------ ------ wary -- ------<br>------- --- ------ ----- --- ---- ------- -- ---- --- --<br>------- ------,158569.09999990463,158568.5,158345.247,158357.09999990463,158361.829,158578.498,,40,wary
screen,html.Screen,2_1_1_1_41,2022-05-12T15:34:48.338Z,,,,,,,,,,,,,,,,,54,,,,,,,,,,,,,,259.30199995232397,,response,,,,100,,,,,,,Space,keypress(Space),,,,,,,,-- --- ---- --- ------ ----- ------- ---- -- --- ------- --<br>------- ---------- ------ -- ----- -- ----- -- ---- ------<br>--- ----- --- --- ------ -------- ----- --- ------ ----- --<br>----- ----- ---------- --- --- ------ ------ ---- of ------<br>------- --- ------ ----- --- ---- ------- -- ---- --- --<br>------- ------,158838.29999995232,158837.79999995232,158561.636,158569.29999995232,158578.498,158845.022,,41,of
screen,html.Screen,2_1_1_1_42,2022-05-12T15:34:48.589Z,,,,,,,,,,,,,,,,,54,,,,,,,,,,,,,,243.27799995231908,,response,,,,100,,,,,,,Space,keypress(Space),,,,,,,,-- --- ---- --- ------ ----- ------- ---- -- --- ------- --<br>------- ---------- ------ -- ----- -- ----- -- ---- ------<br>--- ----- --- --- ------ -------- ----- --- ------ ----- --<br>----- ----- ---------- --- --- ------ ------ ---- -- French<br>------- --- ------ ----- --- ---- ------- -- ---- --- --<br>------- ------,159088.89999997616,159088.29999995232,158828.325,158838.39999997616,158845.022,159094.768,,42,French
screen,html.Screen,2_1_1_1_43,2022-05-12T15:34:48.912Z,,,,,,,,,,,,,,,,,54,,,,,,,,,,,,,,317.4319999284635,,response,,,,100,,,,,,,Space,keypress(Space),,,,,,,,-- --- ---- --- ------ ----- ------- ---- -- --- ------- --<br>------- ---------- ------ -- ----- -- ----- -- ---- ------<br>--- ----- --- --- ------ -------- ----- --- ------ ----- --<br>----- ----- ---------- --- --- ------ ------ ---- -- ------<br>credit. --- ------ ----- --- ---- ------- -- ---- --- --<br>------- ------,159412.69999992847,159412.19999992847,159078.21,159088.89999997616,159094.768,159428.03,,43,credit.
screen,html.Screen,2_1_1_1_44,2022-05-12T15:34:49.237Z,,,,,,,,,,,,,,,,,54,,,,,,,,,,,,,,309.26999995231745,,response,,,,100,,,,,,,Space,keypress(Space),,,,,,,,-- --- ---- --- ------ ----- ------- ---- -- --- ------- --<br>------- ---------- ------ -- ----- -- ----- -- ---- ------<br>--- ----- --- --- ------ -------- ----- --- ------ ----- --<br>----- ----- ---------- --- --- ------ ------ ---- -- ------<br>------- The ------ ----- --- ---- ------- -- ---- --- --<br>------- ------,159737.79999995232,159737.29999995232,159411.278,159412.79999995232,159428.03,159744.562,,44,The
screen,html.Screen,2_1_1_1_45,2022-05-12T15:34:49.525Z,,,,,,,,,,,,,,,,,54,,,,,,,,,,,,,,279.73799995231093,,response,,,,100,,,,,,,Space,keypress(Space),,,,,,,,-- --- ---- --- ------ ----- ------- ---- -- --- ------- --<br>------- ---------- ------ -- ----- -- ----- -- ---- ------<br>--- ----- --- --- ------ -------- ----- --- ------ ----- --<br>----- ----- ---------- --- --- ------ ------ ---- -- ------<br>------- --- French ----- --- ---- ------- -- ---- --- --<br>------- ------,160024.89999997616,160024.29999995232,159727.836,159737.79999995232,159744.562,160027.554,,45,French
screen,html.Screen,2_1_1_1_46,2022-05-12T15:34:49.793Z,,,,,,,,,,,,,,,,,54,,,,,,,,,,,,,,265.6459999284707,,response,,,,100,,,,,,,Space,keypress(Space),,,,,,,,-- --- ---- --- ------ ----- ------- ---- -- --- ------- --<br>------- ---------- ------ -- ----- -- ----- -- ---- ------<br>--- ----- --- --- ------ -------- ----- --- ------ ----- --<br>----- ----- ---------- --- --- ------ ------ ---- -- ------<br>------- --- ------ state --- ---- ------- -- ---- --- --<br>------- ------,160293.69999992847,160293.19999992847,160011.036,160024.89999997616,160027.554,160310.736,,46,state
screen,html.Screen,2_1_1_1_47,2022-05-12T15:34:50.096Z,,,,,,,,,,,,,,,,,54,,,,,,,,,,,,,,285.46399992847,,response,,,,100,,,,,,,Space,keypress(Space),,,,,,,,-- --- ---- --- ------ ----- ------- ---- -- --- ------- --<br>------- ---------- ------ -- ----- -- ----- -- ---- ------<br>--- ----- --- --- ------ -------- ----- --- ------ ----- --<br>----- ----- ---------- --- --- ------ ------ ---- -- ------<br>------- --- ------ ----- was ---- ------- -- ---- --- --<br>------- ------,160596.59999990463,160596.19999992847,160277.56,160293.69999992847,160310.736,160610.741,,47,was
screen,html.Screen,2_1_1_1_48,2022-05-12T15:34:50.308Z,,,,,,,,,,,,,,,,,54,,,,,,,,,,,,,,197.45899992846535,,response,,,,100,,,,,,,Space,keypress(Space),,,,,,,,-- --- ---- --- ------ ----- ------- ---- -- --- ------- --<br>------- ---------- ------ -- ----- -- ----- -- ---- ------<br>--- ----- --- --- ------ -------- ----- --- ------ ----- --<br>----- ----- ---------- --- --- ------ ------ ---- -- ------<br>------- --- ------ ----- --- left ------- -- ---- --- --<br>------- ------,160808.59999990463,160808.19999992847,160593.941,160596.79999995232,160610.741,160810.498,,48,left
screen,html.Screen,2_1_1_1_49,2022-05-12T15:34:50.535Z,,,,,,,,,,,,,,,,,54,,,,,,,,,,,,,,224.90199997616583,,response,,,,100,,,,,,,Space,keypress(Space),,,,,,,,-- --- ---- --- ------ ----- ------- ---- -- --- ------- --<br>------- ---------- ------ -- ----- -- ----- -- ---- ------<br>--- ----- --- --- ------ -------- ----- --- ------ ----- --<br>----- ----- ---------- --- --- ------ ------ ---- -- ------<br>------- --- ------ ----- --- ---- without -- ---- --- --<br>------- ------,161035.89999997616,161035.39999997616,160793.942,160808.79999995232,160810.498,161043.847,,49,without
screen,html.Screen,2_1_1_1_50,2022-05-12T15:34:50.761Z,,,,,,,,,,,,,,,,,54,,,,,,,,,,,,,,216.95299995230744,,response,,,,100,,,,,,,Space,keypress(Space),,,,,,,,-- --- ---- --- ------ ----- ------- ---- -- --- ------- --<br>------- ---------- ------ -- ----- -- ----- -- ---- ------<br>--- ----- --- --- ------ -------- ----- --- ------ ----- --<br>----- ----- ---------- --- --- ------ ------ ---- -- ------<br>------- --- ------ ----- --- ---- ------- an ---- --- --<br>------- ------,161261.39999997616,161260.79999995232,161027.173,161036,161043.847,161277.067,,50,an
screen,html.Screen,2_1_1_1_51,2022-05-12T15:34:50.952Z,,,,,,,,,,,,,,,,,54,,,,,,,,,,,,,,174.83299997614813,,response,,,,100,,,,,,,Space,keypress(Space),,,,,,,,-- --- ---- --- ------ ----- ------- ---- -- --- ------- --<br>------- ---------- ------ -- ----- -- ----- -- ---- ------<br>--- ----- --- --- ------ -------- ----- --- ------ ----- --<br>----- ----- ---------- --- --- ------ ------ ---- -- ------<br>------- --- ------ ----- --- ---- ------- -- easy --- --<br>------- ------,161452.39999997616,161451.89999997616,161260.387,161261.39999997616,161277.067,161460.197,,51,easy
screen,html.Screen,2_1_1_1_52,2022-05-12T15:34:51.348Z,,,,,,,,,,,,,,,,,54,,,,,,,,,,,,,,387.902999904647,,response,,,,100,,,,,,,Space,keypress(Space),,,,,,,,-- --- ---- --- ------ ----- ------- ---- -- --- ------- --<br>------- ---------- ------ -- ----- -- ----- -- ---- ------<br>--- ----- --- --- ------ -------- ----- --- ------ ----- --<br>----- ----- ---------- --- --- ------ ------ ---- -- ------<br>------- --- ------ ----- --- ---- ------- -- ---- way --<br>------- ------,161848.5,161848.09999990463,161443.619,161452.5,161460.197,161860.081,,52,way
screen,html.Screen,2_1_1_1_53,2022-05-12T15:34:51.577Z,,,,,,,,,,,,,,,,,54,,,,,,,,,,,,,,216.7189999523107,,response,,,,100,,,,,,,Space,keypress(Space),,,,,,,,-- --- ---- --- ------ ----- ------- ---- -- --- ------- --<br>------- ---------- ------ -- ----- -- ----- -- ---- ------<br>--- ----- --- --- ------ -------- ----- --- ------ ----- --<br>----- ----- ---------- --- --- ------ ------ ---- -- ------<br>------- --- ------ ----- --- ---- ------- -- ---- --- of<br>------- ------,162077.39999997616,162076.79999995232,161843.252,161848.59999990463,161860.081,162093.239,,53,of
screen,html.Screen,2_1_1_1_54,2022-05-12T15:34:51.964Z,,,,,,,,,,,,,,,,,54,,,,,,,,,,,,,,370.46099992847303,,response,,,,100,,,,,,,Space,keypress(Space),,,,,,,,-- --- ---- --- ------ ----- ------- ---- -- --- ------- --<br>------- ---------- ------ -- ----- -- ----- -- ---- ------<br>--- ----- --- --- ------ -------- ----- --- ------ ----- --<br>----- ----- ---------- --- --- ------ ------ ---- -- ------<br>------- --- ------ ----- --- ---- ------- -- ---- --- --<br>raising ------,162464.29999995232,162463.69999992847,162076.488,162077.5,162093.239,162476.348,,54,raising
screen,html.Screen,2_1_1_1_55,2022-05-12T15:34:52.522Z,,,,,,,,,,,,,,,,,54,,,,,,,,,,,,,,545.05199997616,,response,,,,100,,,,,,,Space,keypress(Space),,,,,,,,-- --- ---- --- ------ ----- ------- ---- -- --- ------- --<br>------- ---------- ------ -- ----- -- ----- -- ---- ------<br>--- ----- --- --- ------ -------- ----- --- ------ ----- --<br>----- ----- ---------- --- --- ------ ------ ---- -- ------<br>------- --- ------ ----- --- ---- ------- -- ---- --- --<br>------- money.,163021.89999997616,163021.39999997616,162459.748,162464.29999995232,162476.348,163042.7,,55,money.
Item 100,flow.Loop,2_1_1_1,2022-05-12T15:34:52.522Z,,,,,,,,,,,,,,,,,,,,,,,,,,,,,,,17069.769999976153,,completion,,,,,F,,,,,,,,,,,silence,,,,,163022.09999990463,163021.39999997616,145934.978,145935.5,145951.63,163042.7,,,
Question 1,html.Screen,2_1_1_2,2022-05-12T15:34:55.262Z,,,,,,,,,,,,,,,,,,,,,,,,,,,,true,TRUE,,2718.6999999761465,,response,,,,100,F,,,,,,TRUE,click #choice-1,,,,silence,,,,,165762.59999990463,165761.39999997616,163025.991,163022.19999992847,163042.7,165774.665,,,
Question 2,html.Screen,2_1_1_3,2022-05-12T15:34:57.548Z,,,,,,,,,,,,,,,,,,,,,,,,,,,,true,FALSE,,2272.634999952308,,response,,,,100,F,,,,,,FALSE,click #choice-2,,,,silence,,,,,168048.39999997616,168047.29999995232,165758.023,165762.69999992847,165774.665,168056.702,,,
Item 100,flow.Sequence,2_1_1,2022-05-12T15:34:57.548Z,,,,,,,,,,,,,,,,,,,,,,,,,,,,,,,32090.472999952326,,completion,,,,,,,,,,,,,,,,,,,,,168048.5,168047.29999995232,135940.279,135946.69999992847,135956.827,168056.702,,,
End of Practice,html.Page,2_1_2,2022-05-12T15:35:04.445Z,,,,,,,,,,,,,,,,,,,,,,,,,,,,,,,6887.197999976168,,form submission,,,,,,,,,,,,,,,,,,,,,174945.19999992847,174943.89999997616,168040.172,168048.59999990463,168056.702,174953.184,,,
Practice,flow.Sequence,2_1,2022-05-12T15:35:04.445Z,,,,,,,,,,,,,,,,,,,,,,,,,,,,,,,74102.06299997616,,completion,,,,,,,,,,,,,,,,,,,,,174945.29999995232,174943.89999997616,100825.205,100824.5,100841.837,174953.184,,,
Trap_instruction,html.Page,2_2_0,2022-05-12T15:35:08.716Z,,,,,,,,,,,,,,,,,,,,,,,,,,,,,,,4262.71599997615,,form submission,,,,,,,,,,,,,,,,,,,,,179216.39999997616,179215.89999997616,174936.455,174945.39999997616,174953.184,179300.838,,,
trap_trial,html.Screen,2_2_1,2022-05-12T15:35:11.365Z,,,,,,,,,,,,,,,,,,,,,,,,,,,,true,1,,2562.7619999046437,,response,,,,,,,,,,,1,click #choice-1,,,,,,,,,181864.79999995232,181863.59999990463,179200.86,179216.5,179300.838,181866.185,,,
end of trap trial,html.Page,2_2_2,2022-05-12T15:35:13.512Z,,,,,,,,,,,,,,,,,,,,,,,,,,,,,,,2144.914999904635,,form submission,,,,,,,,,,,,,,,,,,,,,184012.19999992847,184011.09999990463,181849.62,181865,181866.185,184015.052,,,
Trap 1,flow.Sequence,2_2,2022-05-12T15:35:13.513Z,,,,,,,,,,,,,,,,,,,,,,,,,,,,,,,9057.915999904624,,completion,,,,,,,,,,,,,,,,,,,,,184012.39999997616,184011.09999990463,174936.455,174945.39999997616,174953.184,184015.052,,,
Standby,html.Page,2_3_0,2022-05-12T15:35:21.495Z,,,,,,,,,,,,,,,,,,,,,,,,,,,,,,,7995.844000000012,,timeout,,,,,,,,,,,,,,,,,,,,,191994.79999995232,191994.336,183998.516,184012.5,184015.052,192010.896,,,
Holding screen,html.Screen,2_3_1_0_0,2022-05-12T15:35:28.492Z,,,,,,,,,,,,,,,,,,,,,,,,,,,,,,,6996.350999999995,,timeout,,,,,,,,,,,,,,,,,,,,,198991.39999997616,198991.013,191994.336,191994.89999997616,192010.896,199007.247,,,
screen,html.Screen,2_3_1_0_1_0,2022-05-12T15:35:29.393Z,,,,,,,,,,,,,,,,,12,,,,,,,,,,,,,,885.3529999046295,,response,,,,5,F,,,,,,Space,keypress(Space),,,,lyrical,,,,Some ------ ------ ------- ------ --- ------- -----------<br>-- ----- --- ---- -- --- ------ ---- - ---- -- ----------<br>-- ------ ---- --- ---- --- --- --- ----- -- -------- ---<br>------ ------- -------- --- ---- -- ------- ------------ --<br>------ -- ---- -- --- ---- -- -------- -- --- ------ ------,199893.19999992847,199892.59999990463,198991.013,198991.59999990463,199007.247,199906.874,,0,Some
screen,html.Screen,2_3_1_0_1_1,2022-05-12T15:35:29.760Z,,,,,,,,,,,,,,,,,12,,,,,,,,,,,,,,352.02599997614743,,response,,,,5,F,,,,,,Space,keypress(Space),,,,lyrical,,,,---- months ------ ------- ------ --- ------- -----------<br>-- ----- --- ---- -- --- ------ ---- - ---- -- ----------<br>-- ------ ---- --- ---- --- --- --- ----- -- -------- ---<br>------ ------- -------- --- ---- -- ------- ------------ --<br>------ -- ---- -- --- ---- -- -------- -- --- ------ ------,200259.5,200258.89999997616,199890.054,199893.39999997616,199906.874,200273.291,,1,months
screen,html.Screen,2_3_1_0_1_2,2022-05-12T15:35:30.111Z,,,,,,,,,,,,,,,,,12,,,,,,,,,,,,,,336.6089999761607,,response,,,,5,F,,,,,,Space,keypress(Space),,,,lyrical,,,,"---- ------ later, ------- ------ --- ------- -----------<br>-- ----- --- ---- -- --- ------ ---- - ---- -- ----------<br>-- ------ ---- --- ---- --- --- --- ----- -- -------- ---<br>------ ------- -------- --- ---- -- ------- ------------ --<br>------ -- ---- -- --- ---- -- -------- -- --- ------ ------",200610.5,200609.89999997616,200256.554,200259.59999990463,200273.291,200623.17,,2,"later,"
screen,html.Screen,2_3_1_0_1_3,2022-05-12T15:35:30.447Z,,,,,,,,,,,,,,,,,12,,,,,,,,,,,,,,322.6299999523035,,response,,,,5,F,,,,,,Space,keypress(Space),,,,lyrical,,,,---- ------ ------ Michael ------ --- ------- -----------<br>-- ----- --- ---- -- --- ------ ---- - ---- -- ----------<br>-- ------ ---- --- ---- --- --- --- ----- -- -------- ---<br>------ ------- -------- --- ---- -- ------- ------------ --<br>------ -- ---- -- --- ---- -- -------- -- --- ------ ------,200946.39999997616,200945.79999995232,200606.483,200610.59999990463,200623.17,200956.282,,3,Michael
screen,html.Screen,2_3_1_0_1_4,2022-05-12T15:35:30.844Z,,,,,,,,,,,,,,,,,12,,,,,,,,,,,,,,387.2179999999935,,response,,,,5,F,,,,,,Space,keypress(Space),,,,lyrical,,,,---- ------ ------ ------- Larson --- ------- -----------<br>-- ----- --- ---- -- --- ------ ---- - ---- -- ----------<br>-- ------ ---- --- ---- --- --- --- ----- -- -------- ---<br>------ ------- -------- --- ---- -- ------- ------------ --<br>------ -- ---- -- --- ---- -- -------- -- --- ------ ------,201344,201343.5,200939.562,200946.5,200956.282,201356.016,,4,Larson
screen,html.Screen,2_3_1_0_1_5,2022-05-12T15:35:31.310Z,,,,,,,,,,,,,,,,,12,,,,,,,,,,,,,,453.18399992847117,,response,,,,5,F,,,,,,Space,keypress(Space),,,,lyrical,,,,---- ------ ------ ------- ------ saw ------- -----------<br>-- ----- --- ---- -- --- ------ ---- - ---- -- ----------<br>-- ------ ---- --- ---- --- --- --- ----- -- -------- ---<br>------ ------- -------- --- ---- -- ------- ------------ --<br>------ -- ---- -- --- ---- -- -------- -- --- ------ ------,201809.69999992847,201809.19999992847,201339.437,201344.19999992847,201356.016,201822.49,,5,saw
screen,html.Screen,2_3_1_0_1_6,2022-05-12T15:35:31.578Z,,,,,,,,,,,,,,,,,12,,,,,,,,,,,,,,254.90999997616746,,response,,,,5,F,,,,,,Space,keypress(Space),,,,lyrical,,,,---- ------ ------ ------- ------ --- another -----------<br>-- ----- --- ---- -- --- ------ ---- - ---- -- ----------<br>-- ------ ---- --- ---- --- --- --- ----- -- -------- ---<br>------ ------- -------- --- ---- -- ------- ------------ --<br>------ -- ---- -- --- ---- -- -------- -- --- ------ ------,202077.89999997616,202077.39999997616,201805.8,201809.89999997616,201822.49,202105.646,,6,another
screen,html.Screen,2_3_1_0_1_7,2022-05-12T15:35:31.891Z,,,,,,,,,,,,,,,,,12,,,,,,,,,,,,,,284.2539999761502,,response,,,,5,F,,,,,,Space,keypress(Space),,,,lyrical,,,,---- ------ ------ ------- ------ --- ------- opportunity<br>-- ----- --- ---- -- --- ------ ---- - ---- -- ----------<br>-- ------ ---- --- ---- --- --- --- ----- -- -------- ---<br>------ ------- -------- --- ---- -- ------- ------------ --<br>------ -- ---- -- --- ---- -- -------- -- --- ------ ------,202390.39999997616,202389.89999997616,202089.055,202078,202105.646,202405.473,,7,opportunity
screen,html.Screen,2_3_1_0_1_8,2022-05-12T15:35:32.156Z,,,,,,,,,,,,,,,,,12,,,,,,,,,,,,,,249.62699990463443,,response,,,,5,F,,,,,,Space,keypress(Space),,,,lyrical,,,,---- ------ ------ ------- ------ --- ------- -----------<br>to ----- --- ---- -- --- ------ ---- - ---- -- ----------<br>-- ------ ---- --- ---- --- --- --- ----- -- -------- ---<br>------ ------- -------- --- ---- -- ------- ------------ --<br>------ -- ---- -- --- ---- -- -------- -- --- ------ ------,202655.69999992847,202655.09999990463,202388.76,202390.5,202405.473,202672.004,,8,to
screen,html.Screen,2_3_1_0_1_9,2022-05-12T15:35:32.441Z,,,,,,,,,,,,,,,,,12,,,,,,,,,,,,,,268.69599992848816,,response,,,,5,F,,,,,,Space,keypress(Space),,,,lyrical,,,,---- ------ ------ ------- ------ --- ------- -----------<br>-- stack --- ---- -- --- ------ ---- - ---- -- ----------<br>-- ------ ---- --- ---- --- --- --- ----- -- -------- ---<br>------ ------- -------- --- ---- -- ------- ------------ --<br>------ -- ---- -- --- ---- -- -------- -- --- ------ ------,202941.29999995232,202940.69999992847,202655.447,202655.69999992847,202672.004,202955.277,,9,stack
screen,html.Screen,2_3_1_0_1_10,2022-05-12T15:35:32.814Z,,,,,,,,,,,,,,,,,12,,,,,,,,,,,,,,358.1229999761563,,response,,,,5,F,,,,,,Space,keypress(Space),,,,lyrical,,,,---- ------ ------ ------- ------ --- ------- -----------<br>-- ----- the ---- -- --- ------ ---- - ---- -- ----------<br>-- ------ ---- --- ---- --- --- --- ----- -- -------- ---<br>------ ------- -------- --- ---- -- ------- ------------ --<br>------ -- ---- -- --- ---- -- -------- -- --- ------ ------,203314,203313.39999997616,202938.486,202941.39999997616,202955.277,203321.676,,10,the
screen,html.Screen,2_3_1_0_1_11,2022-05-12T15:35:33.194Z,,,,,,,,,,,,,,,,,12,,,,,,,,,,,,,,371.4239999046258,,response,,,,5,F,,,,,,Space,keypress(Space),,,,lyrical,,,,---- ------ ------ ------- ------ --- ------- -----------<br>-- ----- --- odds -- --- ------ ---- - ---- -- ----------<br>-- ------ ---- --- ---- --- --- --- ----- -- -------- ---<br>------ ------- -------- --- ---- -- ------- ------------ --<br>------ -- ---- -- --- ---- -- -------- -- --- ------ ------,203693.89999997616,203693.09999990463,203305.073,203314.09999990463,203321.676,203704.803,,11,odds
screen,html.Screen,2_3_1_0_1_12,2022-05-12T15:35:33.406Z,,,,,,,,,,,,,,,,,12,,,,,,,,,,,,,,200.49699995230185,,response,,,,5,F,,,,,,Space,keypress(Space),,,,lyrical,,,,---- ------ ------ ------- ------ --- ------- -----------<br>-- ----- --- ---- in --- ------ ---- - ---- -- ----------<br>-- ------ ---- --- ---- --- --- --- ----- -- -------- ---<br>------ ------- -------- --- ---- -- ------- ------------ --<br>------ -- ---- -- --- ---- -- -------- -- --- ------ ------,203905.79999995232,203905.29999995232,203688.101,203694.19999992847,203704.803,203921.355,,12,in
screen,html.Screen,2_3_1_0_1_13,2022-05-12T15:35:33.620Z,,,,,,,,,,,,,,,,,12,,,,,,,,,,,,,,198.4449999523058,,response,,,,5,F,,,,,,Space,keypress(Space),,,,lyrical,,,,---- ------ ------ ------- ------ --- ------- -----------<br>-- ----- --- ---- -- his ------ ---- - ---- -- ----------<br>-- ------ ---- --- ---- --- --- --- ----- -- -------- ---<br>------ ------- -------- --- ---- -- ------- ------------ --<br>------ -- ---- -- --- ---- -- -------- -- --- ------ ------,204120.29999995232,204119.79999995232,203904.625,203905.79999995232,203921.355,204146.705,,13,his
screen,html.Screen,2_3_1_0_1_14,2022-05-12T15:35:33.907Z,,,,,,,,,,,,,,,,,12,,,,,,,,,,,,,,259.8949999046454,,response,,,,5,F,,,,,,Space,keypress(Space),,,,lyrical,,,,---- ------ ------ ------- ------ --- ------- -----------<br>-- ----- --- ---- -- --- favour ---- - ---- -- ----------<br>-- ------ ---- --- ---- --- --- --- ----- -- -------- ---<br>------ ------- -------- --- ---- -- ------- ------------ --<br>------ -- ---- -- --- ---- -- -------- -- --- ------ ------,204407.19999992847,204406.59999990463,204104.543,204120.39999997616,204146.705,204421.089,,14,favour
screen,html.Screen,2_3_1_0_1_15,2022-05-12T15:35:34.220Z,,,,,,,,,,,,,,,,,12,,,,,,,,,,,,,,297.9109999999928,,response,,,,5,F,,,,,,Space,keypress(Space),,,,lyrical,,,,---- ------ ------ ------- ------ --- ------- -----------<br>-- ----- --- ---- -- --- ------ with - ---- -- ----------<br>-- ------ ---- --- ---- --- --- --- ----- -- -------- ---<br>------ ------- -------- --- ---- -- ------- ------------ --<br>------ -- ---- -- --- ---- -- -------- -- --- ------ ------,204719.5,204719,204404.503,204407.29999995232,204421.089,204720.897,,15,with
screen,html.Screen,2_3_1_0_1_16,2022-05-12T15:35:34.459Z,,,,,,,,,,,,,,,,,12,,,,,,,,,,,,,,237.40299995231908,,response,,,,5,F,,,,,,Space,keypress(Space),,,,lyrical,,,,---- ------ ------ ------- ------ --- ------- -----------<br>-- ----- --- ---- -- --- ------ ---- a ---- -- ----------<br>-- ------ ---- --- ---- --- --- --- ----- -- -------- ---<br>------ ------- -------- --- ---- -- ------- ------------ --<br>------ -- ---- -- --- ---- -- -------- -- --- ------ ------,204958.89999997616,204958.29999995232,204704.269,204719.5,204720.897,204970.799,,16,a
screen,html.Screen,2_3_1_0_1_17,2022-05-12T15:35:34.698Z,,,,,,,,,,,,,,,,,12,,,,,,,,,,,,,,226.20100000000093,,response,,,,5,F,,,,,,Space,keypress(Space),,,,lyrical,,,,---- ------ ------ ------- ------ --- ------- -----------<br>-- ----- --- ---- -- --- ------ ---- - dash -- ----------<br>-- ------ ---- --- ---- --- --- --- ----- -- -------- ---<br>------ ------- -------- --- ---- -- ------- ------------ --<br>------ -- ---- -- --- ---- -- -------- -- --- ------ ------,205197.5,205197,204954.081,204959,204970.799,205203.979,,17,dash
screen,html.Screen,2_3_1_0_1_18,2022-05-12T15:35:35.105Z,,,,,,,,,,,,,,,,,12,,,,,,,,,,,,,,400.42099997616606,,response,,,,5,F,,,,,,Space,keypress(Space),,,,lyrical,,,,---- ------ ------ ------- ------ --- ------- -----------<br>-- ----- --- ---- -- --- ------ ---- - ---- of ----------<br>-- ------ ---- --- ---- --- --- --- ----- -- -------- ---<br>------ ------- -------- --- ---- -- ------- ------------ --<br>------ -- ---- -- --- ---- -- -------- -- --- ------ ------,205605.09999990463,205604.39999997616,205187.283,205197.59999990463,205203.979,205620.472,,18,of
screen,html.Screen,2_3_1_0_1_19,2022-05-12T15:35:35.447Z,,,,,,,,,,,,,,,,,12,,,,,,,,,,,,,,325.7279999284656,,response,,,,5,F,,,,,,Space,keypress(Space),,,,lyrical,,,,---- ------ ------ ------- ------ --- ------- -----------<br>-- ----- --- ---- -- --- ------ ---- - ---- -- ingenuity.<br>-- ------ ---- --- ---- --- --- --- ----- -- -------- ---<br>------ ------- -------- --- ---- -- ------- ------------ --<br>------ -- ---- -- --- ---- -- -------- -- --- ------ ------,205946.69999992847,205946.19999992847,205603.776,205605.09999990463,205620.472,205953.627,,19,ingenuity.
screen,html.Screen,2_3_1_0_1_20,2022-05-12T15:35:35.898Z,,,,,,,,,,,,,,,,,12,,,,,,,,,,,,,,443.57299992846674,,response,,,,5,F,,,,,,Space,keypress(Space),,,,lyrical,,,,---- ------ ------ ------- ------ --- ------- -----------<br>-- ----- --- ---- -- --- ------ ---- - ---- -- ----------<br>He ------ ---- --- ---- --- --- --- ----- -- -------- ---<br>------ ------- -------- --- ---- -- ------- ------------ --<br>------ -- ---- -- --- ---- -- -------- -- --- ------ ------,206397.79999995232,206397.19999992847,205937.032,205946.79999995232,205953.627,206403.499,,20,He
screen,html.Screen,2_3_1_0_1_21,2022-05-12T15:35:36.250Z,,,,,,,,,,,,,,,,,12,,,,,,,,,,,,,,345.5009999999893,,response,,,,5,F,,,,,,Space,keypress(Space),,,,lyrical,,,,---- ------ ------ ------- ------ --- ------- -----------<br>-- ----- --- ---- -- --- ------ ---- - ---- -- ----------<br>-- walked ---- --- ---- --- --- --- ----- -- -------- ---<br>------ ------- -------- --- ---- -- ------- ------------ --<br>------ -- ---- -- --- ---- -- -------- -- --- ------ ------,206749.5,206749,206386.688,206397.89999997616,206403.499,206753.203,,21,walked
screen,html.Screen,2_3_1_0_1_22,2022-05-12T15:35:36.573Z,,,,,,,,,,,,,,,,,12,,,,,,,,,,,,,,319.2969999999914,,response,,,,5,F,,,,,,Space,keypress(Space),,,,lyrical,,,,---- ------ ------ ------- ------ --- ------- -----------<br>-- ----- --- ---- -- --- ------ ---- - ---- -- ----------<br>-- ------ into --- ---- --- --- --- ----- -- -------- ---<br>------ ------- -------- --- ---- -- ------- ------------ --<br>------ -- ---- -- --- ---- -- -------- -- --- ------ ------,207073.09999990463,207072.5,206736.542,206749.59999990463,206753.203,207086.373,,22,into
screen,html.Screen,2_3_1_0_1_23,2022-05-12T15:35:36.831Z,,,,,,,,,,,,,,,,,12,,,,,,,,,,,,,,243.8269999284821,,response,,,,5,F,,,,,,Space,keypress(Space),,,,lyrical,,,,---- ------ ------ ------- ------ --- ------- -----------<br>-- ----- --- ---- -- --- ------ ---- - ---- -- ----------<br>-- ------ ---- his ---- --- --- --- ----- -- -------- ---<br>------ ------- -------- --- ---- -- ------- ------------ --<br>------ -- ---- -- --- ---- -- -------- -- --- ------ ------,207330.69999992847,207330.19999992847,207069.772,207073.19999992847,207086.373,207336.191,,23,his
screen,html.Screen,2_3_1_0_1_24,2022-05-12T15:35:37.123Z,,,,,,,,,,,,,,,,,12,,,,,,,,,,,,,,286.40899990464095,,response,,,,5,F,,,,,,Space,keypress(Space),,,,lyrical,,,,---- ------ ------ ------- ------ --- ------- -----------<br>-- ----- --- ---- -- --- ------ ---- - ---- -- ----------<br>-- ------ ---- --- bank --- --- --- ----- -- -------- ---<br>------ ------- -------- --- ---- -- ------- ------------ --<br>------ -- ---- -- --- ---- -- -------- -- --- ------ ------,207623.19999992847,207622.59999990463,207319.553,207330.89999997616,207336.191,207636.175,,24,bank
screen,html.Screen,2_3_1_0_1_25,2022-05-12T15:35:37.436Z,,,,,,,,,,,,,,,,,12,,,,,,,,,,,,,,298.6249999523279,,response,,,,5,F,,,,,,Space,keypress(Space),,,,lyrical,,,,---- ------ ------ ------- ------ --- ------- -----------<br>-- ----- --- ---- -- --- ------ ---- - ---- -- ----------<br>-- ------ ---- --- ---- one --- --- ----- -- -------- ---<br>------ ------- -------- --- ---- -- ------- ------------ --<br>------ -- ---- -- --- ---- -- -------- -- --- ------ ------,207935.29999995232,207934.79999995232,207619.364,207623.29999995232,207636.175,207952.57,,25,one
screen,html.Screen,2_3_1_0_1_26,2022-05-12T15:35:37.732Z,,,,,,,,,,,,,,,,,12,,,,,,,,,,,,,,278.82999997615116,,response,,,,5,F,,,,,,Space,keypress(Space),,,,lyrical,,,,---- ------ ------ ------- ------ --- ------- -----------<br>-- ----- --- ---- -- --- ------ ---- - ---- -- ----------<br>-- ------ ---- --- ---- --- day --- ----- -- -------- ---<br>------ ------- -------- --- ---- -- ------- ------------ --<br>------ -- ---- -- --- ---- -- -------- -- --- ------ ------,208232,208231.39999997616,207935.861,207935.5,207952.57,208235.813,,26,day
screen,html.Screen,2_3_1_0_1_27,2022-05-12T15:35:37.972Z,,,,,,,,,,,,,,,,,12,,,,,,,,,,,,,,235.48699995232164,,response,,,,5,F,,,,,,Space,keypress(Space),,,,lyrical,,,,---- ------ ------ ------- ------ --- ------- -----------<br>-- ----- --- ---- -- --- ------ ---- - ---- -- ----------<br>-- ------ ---- --- ---- --- --- and ----- -- -------- ---<br>------ ------- -------- --- ---- -- ------- ------------ --<br>------ -- ---- -- --- ---- -- -------- -- --- ------ ------,208471.69999992847,208471.29999995232,208219.13,208232,208235.813,208485.729,,27,and
screen,html.Screen,2_3_1_0_1_28,2022-05-12T15:35:38.328Z,,,,,,,,,,,,,,,,,12,,,,,,,,,,,,,,341.8709999046405,,response,,,,5,F,,,,,,Space,keypress(Space),,,,lyrical,,,,---- ------ ------ ------- ------ --- ------- -----------<br>-- ----- --- ---- -- --- ------ ---- - ---- -- ----------<br>-- ------ ---- --- ---- --- --- --- asked -- -------- ---<br>------ ------- -------- --- ---- -- ------- ------------ --<br>------ -- ---- -- --- ---- -- -------- -- --- ------ ------,208828,208827.59999990463,208469.065,208471.89999997616,208485.729,208835.458,,28,asked
screen,html.Screen,2_3_1_0_1_29,2022-05-12T15:35:38.563Z,,,,,,,,,,,,,,,,,12,,,,,,,,,,,,,,226.94199997614487,,response,,,,5,F,,,,,,Space,keypress(Space),,,,lyrical,,,,---- ------ ------ ------- ------ --- ------- -----------<br>-- ----- --- ---- -- --- ------ ---- - ---- -- ----------<br>-- ------ ---- --- ---- --- --- --- ----- to -------- ---<br>------ ------- -------- --- ---- -- ------- ------------ --<br>------ -- ---- -- --- ---- -- -------- -- --- ------ ------,209062.89999997616,209062.39999997616,208818.698,208828.19999992847,208835.458,209068.636,,29,to
screen,html.Screen,2_3_1_0_1_30,2022-05-12T15:35:38.803Z,,,,,,,,,,,,,,,,,12,,,,,,,,,,,,,,233.06399992847582,,response,,,,5,F,,,,,,Space,keypress(Space),,,,lyrical,,,,---- ------ ------ ------- ------ --- ------- -----------<br>-- ----- --- ---- -- --- ------ ---- - ---- -- ----------<br>-- ------ ---- --- ---- --- --- --- ----- -- withdraw ---<br>------ ------- -------- --- ---- -- ------- ------------ --<br>------ -- ---- -- --- ---- -- -------- -- --- ------ ------,209302.5,209301.69999992847,209052.062,209063,209068.636,209318.639,,30,withdraw
screen,html.Screen,2_3_1_0_1_31,2022-05-12T15:35:39.139Z,,,,,,,,,,,,,,,,,12,,,,,,,,,,,,,,319.3610000000044,,response,,,,5,F,,,,,,Space,keypress(Space),,,,lyrical,,,,---- ------ ------ ------- ------ --- ------- -----------<br>-- ----- --- ---- -- --- ------ ---- - ---- -- ----------<br>-- ------ ---- --- ---- --- --- --- ----- -- -------- his<br>------ ------- -------- --- ---- -- ------- ------------ --<br>------ -- ---- -- --- ---- -- -------- -- --- ------ ------,209638.59999990463,209638,209301.946,209302.69999992847,209318.639,209651.793,,31,his
screen,html.Screen,2_3_1_0_1_32,2022-05-12T15:35:39.442Z,,,,,,,,,,,,,,,,,12,,,,,,,,,,,,,,289.7069999999949,,response,,,,5,F,,,,,,Space,keypress(Space),,,,lyrical,,,,---- ------ ------ ------- ------ --- ------- -----------<br>-- ----- --- ---- -- --- ------ ---- - ---- -- ----------<br>-- ------ ---- --- ---- --- --- --- ----- -- -------- ---<br>entire ------- -------- --- ---- -- ------- ------------ --<br>------ -- ---- -- --- ---- -- -------- -- --- ------ ------,209942.09999990463,209941.5,209635.109,209638.69999992847,209651.793,209951.562,,32,entire
screen,html.Screen,2_3_1_0_1_33,2022-05-12T15:35:39.700Z,,,,,,,,,,,,,,,,,12,,,,,,,,,,,,,,247.93799999999464,,response,,,,5,F,,,,,,Space,keypress(Space),,,,lyrical,,,,---- ------ ------ ------- ------ --- ------- -----------<br>-- ----- --- ---- -- --- ------ ---- - ---- -- ----------<br>-- ------ ---- --- ---- --- --- --- ----- -- -------- ---<br>------ account -------- --- ---- -- ------- ------------ --<br>------ -- ---- -- --- ---- -- -------- -- --- ------ ------,210200,210199.5,209934.871,209942.19999992847,209951.562,210226.473,,33,account
screen,html.Screen,2_3_1_0_1_34,2022-05-12T15:35:39.944Z,,,,,,,,,,,,,,,,,12,,,,,,,,,,,,,,216.32699995231815,,response,,,,5,F,,,,,,Space,keypress(Space),,,,lyrical,,,,"---- ------ ------ ------- ------ --- ------- -----------<br>-- ----- --- ---- -- --- ------ ---- - ---- -- ----------<br>-- ------ ---- --- ---- --- --- --- ----- -- -------- ---<br>------ ------- balance, --- ---- -- ------- ------------ --<br>------ -- ---- -- --- ---- -- -------- -- --- ------ ------",210443.29999995232,210442.79999995232,210184.83,210200.09999990463,210226.473,210451.31,,34,"balance,"
screen,html.Screen,2_3_1_0_1_35,2022-05-12T15:35:40.291Z,,,,,,,,,,,,,,,,,12,,,,,,,,,,,,,,338.58999997616047,,response,,,,5,F,,,,,,Space,keypress(Space),,,,lyrical,,,,---- ------ ------ ------- ------ --- ------- -----------<br>-- ----- --- ---- -- --- ------ ---- - ---- -- ----------<br>-- ------ ---- --- ---- --- --- --- ----- -- -------- ---<br>------ ------- -------- but ---- -- ------- ------------ --<br>------ -- ---- -- --- ---- -- -------- -- --- ------ ------,210790.5,210789.89999997616,210434.564,210443.5,210451.31,210801.217,,35,but
screen,html.Screen,2_3_1_0_1_36,2022-05-12T15:35:40.606Z,,,,,,,,,,,,,,,,,12,,,,,,,,,,,,,,303.98299992847024,,response,,,,5,F,,,,,,Space,keypress(Space),,,,lyrical,,,,---- ------ ------ ------- ------ --- ------- -----------<br>-- ----- --- ---- -- --- ------ ---- - ---- -- ----------<br>-- ------ ---- --- ---- --- --- --- ----- -- -------- ---<br>------ ------- -------- --- with -- ------- ------------ --<br>------ -- ---- -- --- ---- -- -------- -- --- ------ ------,211105.69999992847,211105.19999992847,210784.498,210790.5,210801.217,211117.629,,36,with
screen,html.Screen,2_3_1_0_1_37,2022-05-12T15:35:40.892Z,,,,,,,,,,,,,,,,,12,,,,,,,,,,,,,,274.07099992848816,,response,,,,5,F,,,,,,Space,keypress(Space),,,,lyrical,,,,---- ------ ------ ------- ------ --- ------- -----------<br>-- ----- --- ---- -- --- ------ ---- - ---- -- ----------<br>-- ------ ---- --- ---- --- --- --- ----- -- -------- ---<br>------ ------- -------- --- ---- an ------- ------------ --<br>------ -- ---- -- --- ---- -- -------- -- --- ------ ------,211392.19999992847,211391.69999992847,211101.181,211105.69999992847,211117.629,211400.925,,37,an
screen,html.Screen,2_3_1_0_1_38,2022-05-12T15:35:41.130Z,,,,,,,,,,,,,,,,,12,,,,,,,,,,,,,,228.1749999046442,,response,,,,5,F,,,,,,Space,keypress(Space),,,,lyrical,,,,---- ------ ------ ------- ------ --- ------- -----------<br>-- ----- --- ---- -- --- ------ ---- - ---- -- ----------<br>-- ------ ---- --- ---- --- --- --- ----- -- -------- ---<br>------ ------- -------- --- ---- -- unusual ------------ --<br>------ -- ---- -- --- ---- -- -------- -- --- ------ ------,211629.69999992847,211629.09999990463,211384.119,211392.39999997616,211400.925,211634.01,,38,unusual
screen,html.Screen,2_3_1_0_1_39,2022-05-12T15:35:41.406Z,,,,,,,,,,,,,,,,,12,,,,,,,,,,,,,,270.88999997614883,,response,,,,5,F,,,,,,Space,keypress(Space),,,,lyrical,,,,---- ------ ------ ------- ------ --- ------- -----------<br>-- ----- --- ---- -- --- ------ ---- - ---- -- ----------<br>-- ------ ---- --- ---- --- --- --- ----- -- -------- ---<br>------ ------- -------- --- ---- -- ------- stipulation: --<br>------ -- ---- -- --- ---- -- -------- -- --- ------ ------,211905.39999997616,211904.89999997616,211617.427,211629.89999997616,211634.01,211917.268,,39,stipulation:
screen,html.Screen,2_3_1_0_1_40,2022-05-12T15:35:41.894Z,,,,,,,,,,,,,,,,,12,,,,,,,,,,,,,,476.3319999046216,,response,,,,5,F,,,,,,Space,keypress(Space),,,,lyrical,,,,---- ------ ------ ------- ------ --- ------- -----------<br>-- ----- --- ---- -- --- ------ ---- - ---- -- ----------<br>-- ------ ---- --- ---- --- --- --- ----- -- -------- ---<br>------ ------- -------- --- ---- -- ------- ------------ He<br>------ -- ---- -- --- ---- -- -------- -- --- ------ ------,212394.09999990463,212393.59999990463,211900.509,211905.5,211917.268,212400.301,,40,He
screen,html.Screen,2_3_1_0_1_41,2022-05-12T15:35:42.243Z,,,,,,,,,,,,,,,,,12,,,,,,,,,,,,,,341.7989999046258,,response,,,,5,F,,,,,,Space,keypress(Space),,,,lyrical,,,,---- ------ ------ ------- ------ --- ------- -----------<br>-- ----- --- ---- -- --- ------ ---- - ---- -- ----------<br>-- ------ ---- --- ---- --- --- --- ----- -- -------- ---<br>------ ------- -------- --- ---- -- ------- ------------ --<br>wanted -- ---- -- --- ---- -- -------- -- --- ------ ------,212742.59999990463,212742.09999990463,212383.552,212394.19999992847,212400.301,212750.165,,41,wanted
screen,html.Screen,2_3_1_0_1_42,2022-05-12T15:35:42.396Z,,,,,,,,,,,,,,,,,12,,,,,,,,,,,,,,144.63499995230814,,response,,,,5,F,,,,,,Space,keypress(Space),,,,lyrical,,,,---- ------ ------ ------- ------ --- ------- -----------<br>-- ----- --- ---- -- --- ------ ---- - ---- -- ----------<br>-- ------ ---- --- ---- --- --- --- ----- -- -------- ---<br>------ ------- -------- --- ---- -- ------- ------------ --<br>------ as ---- -- --- ---- -- -------- -- --- ------ ------,212895.29999995232,212894.79999995232,212733.547,212742.69999992847,212750.165,212899.977,,42,as
