sender,sender_type,sender_id,timestamp,meta,,Blues,Classical,Country,Dance,Electronic,Folk,Gospel,Hip-Hop,Jazz,Latin,Musical/Film,New-age,Pop,Prolific_id,Provo_ID,R&B,Rap,Reggae,Religious,Rock,Soul,Swing,Traditional,age,artist_name,correct,correctResponse,distraction,duration,education,ended_on,familiarity,gender,headphone_check_performance,item,list,music_frequency,offensiveness,pleasantness,position_correct,preference,response,response_action,snippet_file,song_name,song_rating,sound,stimulus_1,stimulus_2,stimulus_3,text,time_commit,time_end,time_render,time_run,time_show,time_switch,url,word,word_ID
Prolific ID,html.Form,0,2022-05-02T11:43:59.801Z,"{""labjs_version"":""20.2.2"",""labjs_build"":{""flavor"":""production"",""commit"":""a25486e0c714a0ae2ce03ff94b7bb6896854dcfa""},""location"":""https://run.pavlovia.org/mvasilev/prolific3_music_g/"",""userAgent"":""Mozilla/5.0 (Macintosh; Intel Mac OS X 10_15_7) AppleWebKit/537.36 (KHTML, like Gecko) Chrome/100.0.4896.127 Safari/537.36"",""platform"":""MacIntel"",""language"":""en-GB"",""locale"":""en-GB"",""timeZone"":""Europe/London"",""timezoneOffset"":-60,""screen_width"":1440,""screen_height"":900,""scroll_width"":1440,""scroll_height"":773,""window_innerWidth"":1440,""window_innerHeight"":821,""devicePixelRatio"":2}",,,,,,,,,,,,,,,61fa9085d42cb19beec4915d,,,,,,,,,,,,,,,9173.491000023841,,form submission,,,,,,,,,,,,,,,,,,,,,13596.399999976158,13596.100000023842,4405.943,4420.899999976158,4422.609,13606.236,{},,
Introduction,html.Screen,1_0,2022-05-02T11:44:07.106Z,,,,,,,,,,,,,,,,,,,,,,,,,,,,,,,7289.263999999999,,response,,,,,,,,,,,continue,click button,,,,,,,,,20900.600000023842,20895.5,13589.57,13596.5,13606.236,20905.944,,,
Volume calibration,html.Screen,1_1,2022-05-02T11:44:28.440Z,,,,,,,,,,,,,,,,,,,,,,,,,,,,,,,21322.95599997616,,response,,,,,,,,,,,continue,click button,,,,,,,,,42235.39999997616,42228.89999997616,20889.278,20900.799999952316,20905.944,42240.381,,,
Task instructions,html.Screen,1_2,2022-05-02T11:44:34.569Z,,,,,,,,,,,,,,,,,,,,,,,,,,,,,,,6122.118999999999,,response,,,,,,,,,,,continue,click button,,,,,,,,,48365.10000002384,48362.5,42223.715,42235.699999928474,42240.381,48373.469,,,
Sounds,html.Screen,1_3_0_0,2022-05-02T11:44:38.816Z,,,,,,,,,,,,,,,,,,,,,,,,,,,,,,,4249.830000000002,,timeout,,,,,,,,,3,,,,,,,,O,I,S,,52611.60000002384,52606.633,48356.803,48365.39999997616,48373.469,52623.299,,,
Judgement,html.Screen,1_3_0_1,2022-05-02T11:44:39.720Z,,,,,,,,,,,,,,,,,,,,,,,,,,,,true,3,,889.3010000238428,,response,,,,,,,,,3,,3,click #choice-3,,,,,O,I,S,,53515.89999997616,53512.60000002384,52606.633,52611.799999952316,52623.299,53523.969,,,
Trial,flow.Sequence,1_3_0,2022-05-02T11:44:39.720Z,,,,,,,,,,,,,,,,,,,,,,,,,,,,,,,5139.1310000238445,,completion,,,,,,,,,3,,,,,,,,O,I,S,,53516.299999952316,53512.60000002384,48356.803,48365.299999952316,48373.469,53523.969,,,
Sounds,html.Screen,1_3_1_0,2022-05-02T11:44:43.963Z,,,,,,,,,,,,,,,,,,,,,,,,,,,,,,,4249.830000000002,,timeout,,,,,,,,,1,,,,,,,,S,O,I,,57759.10000002384,57757.133,53507.303,53516.699999928474,53523.969,57773.799,,,
Judgement,html.Screen,1_3_1_1,2022-05-02T11:44:44.669Z,,,,,,,,,,,,,,,,,,,,,,,,,,,,true,1,,688.7010000000009,,response,,,,,,,,,1,,1,click #choice-1,,,,,S,O,I,,58465.199999928474,58462.5,57757.133,57759.39999997616,57773.799,58473.771,,,
Trial,flow.Sequence,1_3_1,2022-05-02T11:44:44.670Z,,,,,,,,,,,,,,,,,,,,,,,,,,,,,,,4938.531000000003,,completion,,,,,,,,,1,,,,,,,,S,O,I,,58465.60000002384,58462.5,53507.303,53516.39999997616,53523.969,58473.771,,,
Sounds,html.Screen,1_3_2_0,2022-05-02T11:44:48.913Z,,,,,,,,,,,,,,,,,,,,,,,,,,,,,,,4249.830000000002,,timeout,,,,,,,,,1,,,,,,,,S,I,O,,62709.5,62706.935,58457.105,58465.799999952316,58473.771,62723.601,,,
Judgement,html.Screen,1_3_2_1,2022-05-02T11:44:50.502Z,,,,,,,,,,,,,,,,,,,,,,,,,,,,true,1,,1572.3989999999976,,response,,,,,,,,,1,,1,click #choice-1,,,,,S,I,O,,64298.39999997616,64296,62706.935,62709.799999952316,62723.601,64306.871,,,
Trial,flow.Sequence,1_3_2,2022-05-02T11:44:50.503Z,,,,,,,,,,,,,,,,,,,,,,,,,,,,,,,5822.228999999999,,completion,,,,,,,,,1,,,,,,,,S,I,O,,64298.799999952316,64296,58457.105,58465.699999928474,58473.771,64306.871,,,
Sounds,html.Screen,1_3_3_0,2022-05-02T11:44:54.747Z,,,,,,,,,,,,,,,,,,,,,,,,,,,,,,,4250.418999999994,,timeout,,,,,,,,,3,,,,,,,,I,O,S,,68543.19999992847,68540.624,64290.205,64299,64306.871,68557.29,,,
Judgement,html.Screen,1_3_3_1,2022-05-02T11:44:57.186Z,,,,,,,,,,,,,,,,,,,,,,,,,,,,true,3,,2422.909999928481,,response,,,,,,,,,3,,3,click #choice-3,,,,,I,O,S,,70982.60000002384,70980.19999992847,68540.624,68543.29999995232,68557.29,70990.526,,,
Trial,flow.Sequence,1_3_3,2022-05-02T11:44:57.186Z,,,,,,,,,,,,,,,,,,,,,,,,,,,,,,,6673.328999928475,,completion,,,,,,,,,3,,,,,,,,I,O,S,,70982.79999995232,70980.19999992847,64290.205,64298.89999997616,64306.871,70990.526,,,
Sounds,html.Screen,1_3_4_0,2022-05-02T11:45:01.430Z,,,,,,,,,,,,,,,,,,,,,,,,,,,,,,,4249.830000000002,,timeout,,,,,,,,,2,,,,,,,,O,S,I,,75226.19999992847,75223.69,70973.86,70982.79999995232,70990.526,75240.356,,,
Judgement,html.Screen,1_3_4_1,2022-05-02T11:45:03.053Z,,,,,,,,,,,,,,,,,,,,,,,,,,,,true,2,,1606.0439999761584,,response,,,,,,,,,2,,2,click #choice-2,,,,,O,S,I,,76849.29999995232,76846.39999997616,75223.69,75226.39999997616,75240.356,76857.631,,,
Trial,flow.Sequence,1_3_4,2022-05-02T11:45:03.053Z,,,,,,,,,,,,,,,,,,,,,,,,,,,,,,,5855.87399997616,,completion,,,,,,,,,2,,,,,,,,O,S,I,,76849.60000002384,76846.39999997616,70973.86,70982.79999995232,70990.526,76857.631,,,
Sounds,html.Screen,1_3_5_0,2022-05-02T11:45:07.297Z,,,,,,,,,,,,,,,,,,,,,,,,,,,,,,,4249.830000000002,,timeout,,,,,,,,,2,,,,,,,,I,S,O,,81093.29999995232,81090.795,76840.965,76849.69999992847,76857.631,81107.461,,,
Judgement,html.Screen,1_3_5_1,2022-05-02T11:45:07.719Z,,,,,,,,,,,,,,,,,,,,,,,,,,,,true,2,,405.43899997616245,,response,,,,,,,,,2,,2,click #choice-2,,,,,I,S,O,,81515.69999992847,81512.89999997616,81090.795,81093.60000002384,81107.461,81524.111,,,
Trial,flow.Sequence,1_3_5,2022-05-02T11:45:07.720Z,,,,,,,,,,,,,,,,,,,,,,,,,,,,,,,4655.268999976164,,completion,,,,,,,,,2,,,,,,,,I,S,O,,81516.10000002384,81512.89999997616,76840.965,76849.69999992847,76857.631,81524.111,,,
Task,flow.Loop,1_3,2022-05-02T11:45:07.725Z,,,,,,,,,,,,,,,,,,,,,,,,,,,,,,,33139.43099997616,,completion,,,1,,,,,,,,,,,,,,,,,,81522,81512.89999997616,48356.803,48365.299999952316,48373.469,81524.111,,,
Trap,html.Screen,1_4,2022-05-02T11:45:07.726Z,,,,,,,,,,,,,,,,,,,,,,,,,,,,,,,NaN,,skipped,,,,,,,,,,,,,,,,,,,,,81522.89999997616,81512.89999997616,,81522.79999995232,,81524.111,,,
Thanks,html.Screen,1_5,2022-05-02T11:45:16.319Z,,,,,,,,,,,,,,,,,,,,,,,,,,,,,,,8588.989000023837,,response,,,,,,,,,,,continue,click button,,,,,,,,,90116.19999992847,90113.10000002384,81507.445,81522.89999997616,81524.111,92991.126,,,
Headphone screening,flow.Sequence,1,2022-05-02T11:45:16.320Z,,,,,,,,,,,,,,,,,,,,,,,,,,,,,,,76506.86400002384,,completion,,,,,,,,,,,,,,,,,,,,,90116.5,90113.10000002384,13589.57,13596.5,13606.236,92991.126,,,
Instructions,html.Page,2_0,2022-05-02T11:45:46.422Z,,,,,,,,,,,,,,,,,,,,,,,,,,,,,,,27228.173999952312,,form submission,,,,,,,,,,,,,,,,,,,,,120219.60000002384,120219.29999995232,92974.46,92973.69999992847,92991.126,120223.37,,,
Holding screen,html.Screen,2_1_0_0,2022-05-02T11:45:56.412Z,,,,,,,,,,,,,,,,,,,,,,,,,,,,,,,10001.234000000011,,timeout,,,,,,,,,,,,,,,,,,,,,130210,130207.938,120206.704,120219.89999997616,120223.37,130224.604,,,
screen,html.Screen,2_1_0_1_0,2022-05-02T11:46:01.045Z,,,,,,,,,,,,,,,,,53,,,,,,,,,,,,,,4612.095999928468,,response,,,,99,,,,,,,Space,keypress(Space),,,,,,,,When -- ----- -- ------ - ------- --- ----------<br>------------- ------ ------ ---- ---- ------- ----- -- ----<br>-------- ------- -- ---------- --- - --- ----- ----- ----<br>---- --- --- ----- --- ---- ---- ------- ----- ---- -------<br>--- --- -- ----- -- --- ---- -- --- ---- -- ------ ------<br>--- ----- -- ----,134843.19999992847,134836.69999992847,130207.938,130210.39999997616,130224.604,134857.752,,0,When
screen,html.Screen,2_1_0_1_1,2022-05-02T11:46:01.603Z,,,,,,,,,,,,,,,,,53,,,,,,,,,,,,,,537.6479999761505,,response,,,,99,,,,,,,Space,keypress(Space),,,,,,,,---- it ----- -- ------ - ------- --- ----------<br>------------- ------ ------ ---- ---- ------- ----- -- ----<br>-------- ------- -- ---------- --- - --- ----- ----- ----<br>---- --- --- ----- --- ---- ---- ------- ----- ---- -------<br>--- --- -- ----- -- --- ---- -- --- ---- -- ------ ------<br>--- ----- -- ----,135400.60000002384,135395.39999997616,134841.086,134843.39999997616,134857.752,135408.383,,1,it
screen,html.Screen,2_1_0_1_2,2022-05-02T11:46:02.077Z,,,,,,,,,,,,,,,,,53,,,,,,,,,,,,,,460.91699995231465,,response,,,,99,,,,,,,Space,keypress(Space),,,,,,,,---- -- comes -- ------ - ------- --- ----------<br>------------- ------ ------ ---- ---- ------- ----- -- ----<br>-------- ------- -- ---------- --- - --- ----- ----- ----<br>---- --- --- ----- --- ---- ---- ------- ----- ---- -------<br>--- --- -- ----- -- --- ---- -- --- ---- -- ------ ------<br>--- ----- -- ----,135874.39999997616,135869.29999995232,135391.717,135401,135408.383,135891.697,,2,comes
screen,html.Screen,2_1_0_1_3,2022-05-02T11:46:02.364Z,,,,,,,,,,,,,,,,,53,,,,,,,,,,,,,,264.4030000238563,,response,,,,99,,,,,,,Space,keypress(Space),,,,,,,,---- -- ----- to ------ - ------- --- ----------<br>------------- ------ ------ ---- ---- ------- ----- -- ----<br>-------- ------- -- ---------- --- - --- ----- ----- ----<br>---- --- --- ----- --- ---- ---- ------- ----- ---- -------<br>--- --- -- ----- -- --- ---- -- --- ---- -- ------ ------<br>--- ----- -- ----,136161.39999997616,136156.10000002384,135875.031,135874.69999992847,135891.697,136175.019,,3,to
screen,html.Screen,2_1_0_1_4,2022-05-02T11:46:02.708Z,,,,,,,,,,,,,,,,,53,,,,,,,,,,,,,,325.48099999999977,,response,,,,99,,,,,,,Space,keypress(Space),,,,,,,,---- -- ----- -- having - ------- --- ----------<br>------------- ------ ------ ---- ---- ------- ----- -- ----<br>-------- ------- -- ---------- --- - --- ----- ----- ----<br>---- --- --- ----- --- ---- ---- ------- ----- ---- -------<br>--- --- -- ----- -- --- ---- -- --- ---- -- ------ ------<br>--- ----- -- ----,136505.60000002384,136500.5,136158.353,136161.5,136175.019,136508.339,,4,having
screen,html.Screen,2_1_0_1_5,2022-05-02T11:46:03.073Z,,,,,,,,,,,,,,,,,53,,,,,,,,,,,,,,357.8609999284672,,response,,,,99,,,,,,,Space,keypress(Space),,,,,,,,---- -- ----- -- ------ a ------- --- ----------<br>------------- ------ ------ ---- ---- ------- ----- -- ----<br>-------- ------- -- ---------- --- - --- ----- ----- ----<br>---- --- --- ----- --- ---- ---- ------- ----- ---- -------<br>--- --- -- ----- -- --- ---- -- --- ---- -- ------ ------<br>--- ----- -- ----,136871.29999995232,136866.19999992847,136491.673,136505.79999995232,136508.339,136874.991,,5,a
screen,html.Screen,2_1_0_1_6,2022-05-02T11:46:03.455Z,,,,,,,,,,,,,,,,,53,,,,,,,,,,,,,,372.3089999523072,,response,,,,99,,,,,,,Space,keypress(Space),,,,,,,,---- -- ----- -- ------ - lasting --- ----------<br>------------- ------ ------ ---- ---- ------- ----- -- ----<br>-------- ------- -- ---------- --- - --- ----- ----- ----<br>---- --- --- ----- --- ---- ---- ------- ----- ---- -------<br>--- --- -- ----- -- --- ---- -- --- ---- -- ------ ------<br>--- ----- -- ----,137252.5,137247.29999995232,136858.325,136871.5,136874.991,137258.309,,6,lasting
screen,html.Screen,2_1_0_1_7,2022-05-02T11:46:03.819Z,,,,,,,,,,,,,,,,,53,,,,,,,,,,,,,,353.1909999999916,,response,,,,99,,,,,,,Space,keypress(Space),,,,,,,,---- -- ----- -- ------ - ------- and ----------<br>------------- ------ ------ ---- ---- ------- ----- -- ----<br>-------- ------- -- ---------- --- - --- ----- ----- ----<br>---- --- --- ----- --- ---- ---- ------- ----- ---- -------<br>--- --- -- ----- -- --- ---- -- --- ---- -- ------ ------<br>--- ----- -- ----,137616.60000002384,137611.5,137241.643,137252.79999995232,137258.309,137624.961,,7,and
screen,html.Screen,2_1_0_1_8,2022-05-02T11:46:04.301Z,,,,,,,,,,,,,,,,,53,,,,,,,,,,,,,,468.4389999761479,,response,,,,99,,,,,,,Space,keypress(Space),,,,,,,,---- -- ----- -- ------ - ------- --- fulfilling<br>------------- ------ ------ ---- ---- ------- ----- -- ----<br>-------- ------- -- ---------- --- - --- ----- ----- ----<br>---- --- --- ----- --- ---- ---- ------- ----- ---- -------<br>--- --- -- ----- -- --- ---- -- --- ---- -- ------ ------<br>--- ----- -- ----,138098.5,138093.39999997616,137608.295,137616.89999997616,137624.961,138108.275,,8,fulfilling
screen,html.Screen,2_1_0_1_9,2022-05-02T11:46:04.733Z,,,,,,,,,,,,,,,,,53,,,,,,,,,,,,,,416.92499992848025,,response,,,,99,,,,,,,Space,keypress(Space),,,,,,,,"---- -- ----- -- ------ - ------- --- ----------<br>relationship, ------ ------ ---- ---- ------- ----- -- ----<br>-------- ------- -- ---------- --- - --- ----- ----- ----<br>---- --- --- ----- --- ---- ---- ------- ----- ---- -------<br>--- --- -- ----- -- --- ---- -- --- ---- -- ------ ------<br>--- ----- -- ----",138530.5,138525.19999992847,138091.609,138098.69999992847,138108.275,138541.591,,9,"relationship,"
screen,html.Screen,2_1_0_1_10,2022-05-02T11:46:05.149Z,,,,,,,,,,,,,,,,,53,,,,,,,,,,,,,,400.50900002385606,,response,,,,99,,,,,,,Space,keypress(Space),,,,,,,,---- -- ----- -- ------ - ------- --- ----------<br>------------- common ------ ---- ---- ------- ----- -- ----<br>-------- ------- -- ---------- --- - --- ----- ----- ----<br>---- --- --- ----- --- ---- ---- ------- ----- ---- -------<br>--- --- -- ----- -- --- ---- -- --- ---- -- ------ ------<br>--- ----- -- ----,138947,138942.10000002384,138524.925,138530.69999992847,138541.591,138958.241,,10,common
screen,html.Screen,2_1_0_1_11,2022-05-02T11:46:05.515Z,,,,,,,,,,,,,,,,,53,,,,,,,,,,,,,,350.0589999523072,,response,,,,99,,,,,,,Space,keypress(Space),,,,,,,,---- -- ----- -- ------ - ------- --- ----------<br>------------- ------ wisdom ---- ---- ------- ----- -- ----<br>-------- ------- -- ---------- --- - --- ----- ----- ----<br>---- --- --- ----- --- ---- ---- ------- ----- ---- -------<br>--- --- -- ----- -- --- ---- -- --- ---- -- ------ ------<br>--- ----- -- ----,139312.89999997616,139308.29999995232,138941.575,138947.5,138958.241,139324.893,,11,wisdom
screen,html.Screen,2_1_0_1_12,2022-05-02T11:46:05.905Z,,,,,,,,,,,,,,,,,53,,,,,,,,,,,,,,372.10699999998906,,response,,,,99,,,,,,,Space,keypress(Space),,,,,,,,---- -- ----- -- ------ - ------- --- ----------<br>------------- ------ ------ says ---- ------- ----- -- ----<br>-------- ------- -- ---------- --- - --- ----- ----- ----<br>---- --- --- ----- --- ---- ---- ------- ----- ---- -------<br>--- --- -- ----- -- --- ---- -- --- ---- -- ------ ------<br>--- ----- -- ----,139702.69999992847,139697,139308.227,139313,139324.893,139708.211,,12,says
screen,html.Screen,2_1_0_1_13,2022-05-02T11:46:06.274Z,,,,,,,,,,,,,,,,,53,,,,,,,,,,,,,,358.08899995230604,,response,,,,99,,,,,,,Space,keypress(Space),,,,,,,,---- -- ----- -- ------ - ------- --- ----------<br>------------- ------ ------ ---- that ------- ----- -- ----<br>-------- ------- -- ---------- --- - --- ----- ----- ----<br>---- --- --- ----- --- ---- ---- ------- ----- ---- -------<br>--- --- -- ----- -- --- ---- -- --- ---- -- ------ ------<br>--- ----- -- ----,140071.39999997616,140066.29999995232,139691.545,139702.89999997616,139708.211,140074.863,,13,that
screen,html.Screen,2_1_0_1_14,2022-05-02T11:46:06.717Z,,,,,,,,,,,,,,,,,53,,,,,,,,,,,,,,435.4369999523042,,response,,,,99,,,,,,,Space,keypress(Space),,,,,,,,---- -- ----- -- ------ - ------- --- ----------<br>------------- ------ ------ ---- ---- feeling ----- -- ----<br>-------- ------- -- ---------- --- - --- ----- ----- ----<br>---- --- --- ----- --- ---- ---- ------- ----- ---- -------<br>--- --- -- ----- -- --- ---- -- --- ---- -- ------ ------<br>--- ----- -- ----,140515.19999992847,140510.29999995232,140058.197,140071.60000002384,140074.863,140524.845,,14,feeling
screen,html.Screen,2_1_0_1_15,2022-05-02T11:46:07.911Z,,,,,,,,,,,,,,,,,53,,,,,,,,,,,,,,1178.554999976157,,response,,,,99,,,,,,,Space,keypress(Space),,,,,,,,---- -- ----- -- ------ - ------- --- ----------<br>------------- ------ ------ ---- ---- ------- close -- ----<br>-------- ------- -- ---------- --- - --- ----- ----- ----<br>---- --- --- ----- --- ---- ---- ------- ----- ---- -------<br>--- --- -- ----- -- --- ---- -- --- ---- -- ------ ------<br>--- ----- -- ----,141708.60000002384,141703.39999997616,140508.179,140515.5,140524.845,141724.797,,15,close
screen,html.Screen,2_1_0_1_16,2022-05-02T11:46:08.207Z,,,,,,,,,,,,,,,,,53,,,,,,,,,,,,,,274.60299997616676,,response,,,,99,,,,,,,Space,keypress(Space),,,,,,,,---- -- ----- -- ------ - ------- --- ----------<br>------------- ------ ------ ---- ---- ------- ----- to ----<br>-------- ------- -- ---------- --- - --- ----- ----- ----<br>---- --- --- ----- --- ---- ---- ------- ----- ---- -------<br>--- --- -- ----- -- --- ---- -- --- ---- -- ------ ------<br>--- ----- -- ----,142004.60000002384,141999.39999997616,141708.131,141708.79999995232,141724.797,142008.716,,16,to
screen,html.Screen,2_1_0_1_17,2022-05-02T11:46:08.515Z,,,,,,,,,,,,,,,,,53,,,,,,,,,,,,,,298.88400002385606,,response,,,,99,,,,,,,Space,keypress(Space),,,,,,,,---- -- ----- -- ------ - ------- --- ----------<br>------------- ------ ------ ---- ---- ------- ----- -- your<br>-------- ------- -- ---------- --- - --- ----- ----- ----<br>---- --- --- ----- --- ---- ---- ------- ----- ---- -------<br>--- --- -- ----- -- --- ---- -- --- ---- -- ------ ------<br>--- ----- -- ----,142312.69999992847,142307.60000002384,141992.05,142004.79999995232,142008.716,142325.37,,17,your
screen,html.Screen,2_1_0_1_18,2022-05-02T11:46:09.173Z,,,,,,,,,,,,,,,,,53,,,,,,,,,,,,,,640.0299999761628,,response,,,,99,,,,,,,Space,keypress(Space),,,,,,,,---- -- ----- -- ------ - ------- --- ----------<br>------------- ------ ------ ---- ---- ------- ----- -- ----<br>romantic ------- -- ---------- --- - --- ----- ----- ----<br>---- --- --- ----- --- ---- ---- ------- ----- ---- -------<br>--- --- -- ----- -- --- ---- -- --- ---- -- ------ ------<br>--- ----- -- ----,142970.79999995232,142965.39999997616,142308.704,142313,142325.37,142975.344,,18,romantic
screen,html.Screen,2_1_0_1_19,2022-05-02T11:46:09.480Z,,,,,,,,,,,,,,,,,53,,,,,,,,,,,,,,298.55599997614627,,response,,,,99,,,,,,,Space,keypress(Space),,,,,,,,---- -- ----- -- ------ - ------- --- ----------<br>------------- ------ ------ ---- ---- ------- ----- -- ----<br>-------- partner -- ---------- --- - --- ----- ----- ----<br>---- --- --- ----- --- ---- ---- ------- ----- ---- -------<br>--- --- -- ----- -- --- ---- -- --- ---- -- ------ ------<br>--- ----- -- ----,143278.10000002384,143273.89999997616,142958.678,142971.19999992847,142975.344,143291.998,,19,partner
screen,html.Screen,2_1_0_1_20,2022-05-02T11:46:09.776Z,,,,,,,,,,,,,,,,,53,,,,,,,,,,,,,,277.30199995232397,,response,,,,99,,,,,,,Space,keypress(Space),,,,,,,,---- -- ----- -- ------ - ------- --- ----------<br>------------- ------ ------ ---- ---- ------- ----- -- ----<br>-------- ------- is ---------- --- - --- ----- ----- ----<br>---- --- --- ----- --- ---- ---- ------- ----- ---- -------<br>--- --- -- ----- -- --- ---- -- --- ---- -- ------ ------<br>--- ----- -- ----,143574,143569.29999995232,143275.332,143278.39999997616,143291.998,143575.32,,20,is
screen,html.Screen,2_1_0_1_21,2022-05-02T11:46:10.127Z,,,,,,,,,,,,,,,,,53,,,,,,,,,,,,,,344.87999992846744,,response,,,,99,,,,,,,Space,keypress(Space),,,,,,,,---- -- ----- -- ------ - ------- --- ----------<br>------------- ------ ------ ---- ---- ------- ----- -- ----<br>-------- ------- -- paramount. --- - --- ----- ----- ----<br>---- --- --- ----- --- ---- ---- ------- ----- ---- -------<br>--- --- -- ----- -- --- ---- -- --- ---- -- ------ ------<br>--- ----- -- ----,143925.10000002384,143920.19999992847,143558.654,143574.29999995232,143575.32,143941.972,,21,paramount.
screen,html.Screen,2_1_0_1_22,2022-05-02T11:46:10.636Z,,,,,,,,,,,,,,,,,53,,,,,,,,,,,,,,487.128000023833,,response,,,,99,,,,,,,Space,keypress(Space),,,,,,,,---- -- ----- -- ------ - ------- --- ----------<br>------------- ------ ------ ---- ---- ------- ----- -- ----<br>-------- ------- -- ---------- But - --- ----- ----- ----<br>---- --- --- ----- --- ---- ---- ------- ----- ---- -------<br>--- --- -- ----- -- --- ---- -- --- ---- -- ------ ------<br>--- ----- -- ----,144434.39999997616,144429.10000002384,143925.306,143925.29999995232,143941.972,144441.952,,22,But
screen,html.Screen,2_1_0_1_23,2022-05-02T11:46:10.887Z,,,,,,,,,,,,,,,,,53,,,,,,,,,,,,,,238.34799995232606,,response,,,,99,,,,,,,Space,keypress(Space),,,,,,,,---- -- ----- -- ------ - ------- --- ----------<br>------------- ------ ------ ---- ---- ------- ----- -- ----<br>-------- ------- -- ---------- --- a --- ----- ----- ----<br>---- --- --- ----- --- ---- ---- ------- ----- ---- -------<br>--- --- -- ----- -- --- ---- -- --- ---- -- ------ ------<br>--- ----- -- ----,144685.5,144680.29999995232,144425.286,144434.69999992847,144441.952,144691.942,,23,a
screen,html.Screen,2_1_0_1_24,2022-05-02T11:46:11.202Z,,,,,,,,,,,,,,,,,53,,,,,,,,,,,,,,302.45799997614813,,response,,,,99,,,,,,,Space,keypress(Space),,,,,,,,---- -- ----- -- ------ - ------- --- ----------<br>------------- ------ ------ ---- ---- ------- ----- -- ----<br>-------- ------- -- ---------- --- - new ----- ----- ----<br>---- --- --- ----- --- ---- ---- ------- ----- ---- -------<br>--- --- -- ----- -- --- ---- -- --- ---- -- ------ ------<br>--- ----- -- ----,145000.10000002384,144994.39999997616,144675.276,144685.69999992847,144691.942,145008.596,,24,new
screen,html.Screen,2_1_0_1_25,2022-05-02T11:46:11.507Z,,,,,,,,,,,,,,,,,53,,,,,,,,,,,,,,291.603999928484,,response,,,,99,,,,,,,Space,keypress(Space),,,,,,,,---- -- ----- -- ------ - ------- --- ----------<br>------------- ------ ------ ---- ---- ------- ----- -- ----<br>-------- ------- -- ---------- --- - --- study ----- ----<br>---- --- --- ----- --- ---- ---- ------- ----- ---- -------<br>--- --- -- ----- -- --- ---- -- --- ---- -- ------ ------<br>--- ----- -- ----,145305.5,145300.19999992847,144991.93,145000.39999997616,145008.596,145308.584,,25,study
screen,html.Screen,2_1_0_1_26,2022-05-02T11:46:11.846Z,,,,,,,,,,,,,,,,,53,,,,,,,,,,,,,,329.91599999999744,,response,,,,99,,,,,,,Space,keypress(Space),,,,,,,,---- -- ----- -- ------ - ------- --- ----------<br>------------- ------ ------ ---- ---- ------- ----- -- ----<br>-------- ------- -- ---------- --- - --- ----- finds ----<br>---- --- --- ----- --- ---- ---- ------- ----- ---- -------<br>--- --- -- ----- -- --- ---- -- --- ---- -- ------ ------<br>--- ----- -- ----,145644.29999995232,145638.5,145291.918,145305.69999992847,145308.584,145658.57,,26,finds
screen,html.Screen,2_1_0_1_27,2022-05-02T11:46:12.185Z,,,,,,,,,,,,,,,,,53,,,,,,,,,,,,,,319.7299999523093,,response,,,,99,,,,,,,Space,keypress(Space),,,,,,,,---- -- ----- -- ------ - ------- --- ----------<br>------------- ------ ------ ---- ---- ------- ----- -- ----<br>-------- ------- -- ---------- --- - --- ----- ----- that<br>---- --- --- ----- --- ---- ---- ------- ----- ---- -------<br>--- --- -- ----- -- --- ---- -- --- ---- -- ------ ------<br>--- ----- -- ----,145983.5,145978.29999995232,145641.904,145644.5,145658.57,145991.89,,27,that
screen,html.Screen,2_1_0_1_28,2022-05-02T11:46:12.480Z,,,,,,,,,,,,,,,,,53,,,,,,,,,,,,,,280.60999999998603,,response,,,,99,,,,,,,Space,keypress(Space),,,,,,,,---- -- ----- -- ------ - ------- --- ----------<br>------------- ------ ------ ---- ---- ------- ----- -- ----<br>-------- ------- -- ---------- --- - --- ----- ----- ----<br>it's --- --- ----- --- ---- ---- ------- ----- ---- -------<br>--- --- -- ----- -- --- ---- -- --- ---- -- ------ ------<br>--- ----- -- ----,146277.69999992847,146272.5,145975.224,145983.69999992847,145991.89,146291.878,,28,it's
screen,html.Screen,2_1_0_1_29,2022-05-02T11:46:12.757Z,,,,,,,,,,,,,,,,,53,,,,,,,,,,,,,,259.2220000238449,,response,,,,99,,,,,,,Space,keypress(Space),,,,,,,,---- -- ----- -- ------ - ------- --- ----------<br>------------- ------ ------ ---- ---- ------- ----- -- ----<br>-------- ------- -- ---------- --- - --- ----- ----- ----<br>---- not --- ----- --- ---- ---- ------- ----- ---- -------<br>--- --- -- ----- -- --- ---- -- --- ---- -- ------ ------<br>--- ----- -- ----,146555.5,146551.10000002384,146275.212,146278,146291.878,146558.534,,29,not
screen,html.Screen,2_1_0_1_30,2022-05-02T11:46:13.048Z,,,,,,,,,,,,,,,,,53,,,,,,,,,,,,,,282.06600002382766,,response,,,,99,,,,,,,Space,keypress(Space),,,,,,,,---- -- ----- -- ------ - ------- --- ----------<br>------------- ------ ------ ---- ---- ------- ----- -- ----<br>-------- ------- -- ---------- --- - --- ----- ----- ----<br>---- --- how ----- --- ---- ---- ------- ----- ---- -------<br>--- --- -- ----- -- --- ---- -- --- ---- -- ------ ------<br>--- ----- -- ----,146845.89999997616,146840.60000002384,146541.868,146555.69999992847,146558.534,146858.522,,30,how
screen,html.Screen,2_1_0_1_31,2022-05-02T11:46:13.336Z,,,,,,,,,,,,,,,,,53,,,,,,,,,,,,,,269.7779999523191,,response,,,,99,,,,,,,Space,keypress(Space),,,,,,,,---- -- ----- -- ------ - ------- --- ----------<br>------------- ------ ------ ---- ---- ------- ----- -- ----<br>-------- ------- -- ---------- --- - --- ----- ----- ----<br>---- --- --- close --- ---- ---- ------- ----- ---- -------<br>--- --- -- ----- -- --- ---- -- --- ---- -- ------ ------<br>--- ----- -- ----,147133.69999992847,147128.29999995232,146841.856,146846.19999992847,146858.522,147141.844,,31,close
screen,html.Screen,2_1_0_1_32,2022-05-02T11:46:13.646Z,,,,,,,,,,,,,,,,,53,,,,,,,,,,,,,,297.1559999999881,,response,,,,99,,,,,,,Space,keypress(Space),,,,,,,,---- -- ----- -- ------ - ------- --- ----------<br>------------- ------ ------ ---- ---- ------- ----- -- ----<br>-------- ------- -- ---------- --- - --- ----- ----- ----<br>---- --- --- ----- you ---- ---- ------- ----- ---- -------<br>--- --- -- ----- -- --- ---- -- --- ---- -- ------ ------<br>--- ----- -- ----,147444,147439,147125.178,147133.89999997616,147141.844,147458.498,,32,you
screen,html.Screen,2_1_0_1_33,2022-05-02T11:46:13.937Z,,,,,,,,,,,,,,,,,53,,,,,,,,,,,,,,271.10200002384954,,response,,,,99,,,,,,,Space,keypress(Space),,,,,,,,---- -- ----- -- ------ - ------- --- ----------<br>------------- ------ ------ ---- ---- ------- ----- -- ----<br>-------- ------- -- ---------- --- - --- ----- ----- ----<br>---- --- --- ----- --- feel ---- ------- ----- ---- -------<br>--- --- -- ----- -- --- ---- -- --- ---- -- ------ ------<br>--- ----- -- ----,147735.10000002384,147729.60000002384,147441.832,147444.29999995232,147458.498,147741.82,,33,feel
screen,html.Screen,2_1_0_1_34,2022-05-02T11:46:14.226Z,,,,,,,,,,,,,,,,,53,,,,,,,,,,,,,,276.4799999523093,,response,,,,99,,,,,,,Space,keypress(Space),,,,,,,,---- -- ----- -- ------ - ------- --- ----------<br>------------- ------ ------ ---- ---- ------- ----- -- ----<br>-------- ------- -- ---------- --- - --- ----- ----- ----<br>---- --- --- ----- --- ---- that ------- ----- ---- -------<br>--- --- -- ----- -- --- ---- -- --- ---- -- ------ ------<br>--- ----- -- ----,148023.60000002384,148018.29999995232,147725.154,147735.29999995232,147741.82,148025.142,,34,that
screen,html.Screen,2_1_0_1_35,2022-05-02T11:46:14.492Z,,,,,,,,,,,,,,,,,53,,,,,,,,,,,,,,259.15799995232373,,response,,,,99,,,,,,,Space,keypress(Space),,,,,,,,---- -- ----- -- ------ - ------- --- ----------<br>------------- ------ ------ ---- ---- ------- ----- -- ----<br>-------- ------- -- ---------- --- - --- ----- ----- ----<br>---- --- --- ----- --- ---- ---- matters ----- ---- -------<br>--- --- -- ----- -- --- ---- -- --- ---- -- ------ ------<br>--- ----- -- ----,148289.60000002384,148284.29999995232,148008.476,148023.79999995232,148025.142,148291.798,,35,matters
screen,html.Screen,2_1_0_1_36,2022-05-02T11:46:14.742Z,,,,,,,,,,,,,,,,,53,,,,,,,,,,,,,,244.60199997614836,,response,,,,99,,,,,,,Space,keypress(Space),,,,,,,,"---- -- ----- -- ------ - ------- --- ----------<br>------------- ------ ------ ---- ---- ------- ----- -- ----<br>-------- ------- -- ---------- --- - --- ----- ----- ----<br>---- --- --- ----- --- ---- ---- ------- most, ---- -------<br>--- --- -- ----- -- --- ---- -- --- ---- -- ------ ------<br>--- ----- -- ----",148540.19999992847,148536.39999997616,148275.132,148289.89999997616,148291.798,148541.788,,36,"most,"
screen,html.Screen,2_1_0_1_37,2022-05-02T11:46:15.048Z,,,,,,,,,,,,,,,,,53,,,,,,,,,,,,,,299.6119999761577,,response,,,,99,,,,,,,Space,keypress(Space),,,,,,,,---- -- ----- -- ------ - ------- --- ----------<br>------------- ------ ------ ---- ---- ------- ----- -- ----<br>-------- ------- -- ---------- --- - --- ----- ----- ----<br>---- --- --- ----- --- ---- ---- ------- ----- it's -------<br>--- --- -- ----- -- --- ---- -- --- ---- -- ------ ------<br>--- ----- -- ----,148846.60000002384,148841.39999997616,148525.122,148540.39999997616,148541.788,148858.442,,37,it's
screen,html.Screen,2_1_0_1_38,2022-05-02T11:46:15.371Z,,,,,,,,,,,,,,,,,53,,,,,,,,,,,,,,305.95799997614813,,response,,,,99,,,,,,,Space,keypress(Space),,,,,,,,---- -- ----- -- ------ - ------- --- ----------<br>------------- ------ ------ ---- ---- ------- ----- -- ----<br>-------- ------- -- ---------- --- - --- ----- ----- ----<br>---- --- --- ----- --- ---- ---- ------- ----- ---- whether<br>--- --- -- ----- -- --- ---- -- --- ---- -- ------ ------<br>--- ----- -- ----,149169.60000002384,149164.39999997616,148841.776,148846.79999995232,148858.442,149175.096,,38,whether
screen,html.Screen,2_1_0_1_39,2022-05-02T11:46:15.709Z,,,,,,,,,,,,,,,,,53,,,,,,,,,,,,,,327.0040000238514,,response,,,,99,,,,,,,Space,keypress(Space),,,,,,,,---- -- ----- -- ------ - ------- --- ----------<br>------------- ------ ------ ---- ---- ------- ----- -- ----<br>-------- ------- -- ---------- --- - --- ----- ----- ----<br>---- --- --- ----- --- ---- ---- ------- ----- ---- -------<br>you --- -- ----- -- --- ---- -- --- ---- -- ------ ------<br>--- ----- -- ----,149507,149502.10000002384,149158.43,149169.79999995232,149175.096,149525.082,,39,you
screen,html.Screen,2_1_0_1_40,2022-05-02T11:46:16.025Z,,,,,,,,,,,,,,,,,53,,,,,,,,,,,,,,293.018000023847,,response,,,,99,,,,,,,Space,keypress(Space),,,,,,,,---- -- ----- -- ------ - ------- --- ----------<br>------------- ------ ------ ---- ---- ------- ----- -- ----<br>-------- ------- -- ---------- --- - --- ----- ----- ----<br>---- --- --- ----- --- ---- ---- ------- ----- ---- -------<br>--- are -- ----- -- --- ---- -- --- ---- -- ------ ------<br>--- ----- -- ----,149823.10000002384,149818.10000002384,149508.416,149507.29999995232,149525.082,149825.07,,40,are
screen,html.Screen,2_1_0_1_41,2022-05-02T11:46:16.285Z,,,,,,,,,,,,,,,,,53,,,,,,,,,,,,,,253.03000002383487,,response,,,,99,,,,,,,Space,keypress(Space),,,,,,,,---- -- ----- -- ------ - ------- --- ----------<br>------------- ------ ------ ---- ---- ------- ----- -- ----<br>-------- ------- -- ---------- --- - --- ----- ----- ----<br>---- --- --- ----- --- ---- ---- ------- ----- ---- -------<br>--- --- as ----- -- --- ---- -- --- ---- -- ------ ------<br>--- ----- -- ----,150083.10000002384,150078.10000002384,149808.404,149823.39999997616,149825.07,150091.726,,41,as
screen,html.Screen,2_1_0_1_42,2022-05-02T11:46:16.555Z,,,,,,,,,,,,,,,,,53,,,,,,,,,,,,,,255.67399997616303,,response,,,,99,,,,,,,Space,keypress(Space),,,,,,,,---- -- ----- -- ------ - ------- --- ----------<br>------------- ------ ------ ---- ---- ------- ----- -- ----<br>-------- ------- -- ---------- --- - --- ----- ----- ----<br>---- --- --- ----- --- ---- ---- ------- ----- ---- -------<br>--- --- -- close -- --- ---- -- --- ---- -- ------ ------<br>--- ----- -- ----,150352.69999992847,150347.39999997616,150075.06,150083.5,150091.726,150358.382,,42,close
screen,html.Screen,2_1_0_1_43,2022-05-02T11:46:16.835Z,,,,,,,,,,,,,,,,,53,,,,,,,,,,,,,,269.8179999284621,,response,,,,99,,,,,,,Space,keypress(Space),,,,,,,,---- -- ----- -- ------ - ------- --- ----------<br>------------- ------ ------ ---- ---- ------- ----- -- ----<br>-------- ------- -- ---------- --- - --- ----- ----- ----<br>---- --- --- ----- --- ---- ---- ------- ----- ---- -------<br>--- --- -- ----- as --- ---- -- --- ---- -- ------ ------<br>--- ----- -- ----,150633.10000002384,150628.19999992847,150341.716,150353,150358.382,150641.704,,43,as
screen,html.Screen,2_1_0_1_44,2022-05-02T11:46:17.116Z,,,,,,,,,,,,,,,,,53,,,,,,,,,,,,,,267.5959999523184,,response,,,,99,,,,,,,Space,keypress(Space),,,,,,,,---- -- ----- -- ------ - ------- --- ----------<br>------------- ------ ------ ---- ---- ------- ----- -- ----<br>-------- ------- -- ---------- --- - --- ----- ----- ----<br>---- --- --- ----- --- ---- ---- ------- ----- ---- -------<br>--- --- -- ----- -- you ---- -- --- ---- -- ------ ------<br>--- ----- -- ----,150914.39999997616,150909.29999995232,150625.038,150633.39999997616,150641.704,150925.026,,44,you
screen,html.Screen,2_1_0_1_45,2022-05-02T11:46:17.437Z,,,,,,,,,,,,,,,,,53,,,,,,,,,,,,,,305.0740000238293,,response,,,,99,,,,,,,Space,keypress(Space),,,,,,,,---- -- ----- -- ------ - ------- --- ----------<br>------------- ------ ------ ---- ---- ------- ----- -- ----<br>-------- ------- -- ---------- --- - --- ----- ----- ----<br>---- --- --- ----- --- ---- ---- ------- ----- ---- -------<br>--- --- -- ----- -- --- want -- --- ---- -- ------ ------<br>--- ----- -- ----,151234.79999995232,151230.10000002384,150908.36,150914.60000002384,150925.026,151242.238,,45,want
screen,html.Screen,2_1_0_1_46,2022-05-02T11:46:17.716Z,,,,,,,,,,,,,,,,,53,,,,,,,,,,,,,,267.0619999523042,,response,,,,99,,,,,,,Space,keypress(Space),,,,,,,,---- -- ----- -- ------ - ------- --- ----------<br>------------- ------ ------ ---- ---- ------- ----- -- ----<br>-------- ------- -- ---------- --- - --- ----- ----- ----<br>---- --- --- ----- --- ---- ---- ------- ----- ---- -------<br>--- --- -- ----- -- --- ---- to --- ---- -- ------ ------<br>--- ----- -- ----,151514.60000002384,151509.29999995232,151225.572,151235.19999992847,151242.238,151525.56,,46,to
screen,html.Screen,2_1_0_1_47,2022-05-02T11:46:17.960Z,,,,,,,,,,,,,,,,,53,,,,,,,,,,,,,,227.7399999523186,,response,,,,99,,,,,,,Space,keypress(Space),,,,,,,,"---- -- ----- -- ------ - ------- --- ----------<br>------------- ------ ------ ---- ---- ------- ----- -- ----<br>-------- ------- -- ---------- --- - --- ----- ----- ----<br>---- --- --- ----- --- ---- ---- ------- ----- ---- -------<br>--- --- -- ----- -- --- ---- -- be, ---- -- ------ ------<br>--- ----- -- ----",151758.39999997616,151753.29999995232,151508.894,151514.79999995232,151525.56,151775.55,,47,"be,"
screen,html.Screen,2_1_0_1_48,2022-05-02T11:46:18.496Z,,,,,,,,,,,,,,,,,53,,,,,,,,,,,,,,513.8499999761698,,response,,,,99,,,,,,,Space,keypress(Space),,,,,,,,---- -- ----- -- ------ - ------- --- ----------<br>------------- ------ ------ ---- ---- ------- ----- -- ----<br>-------- ------- -- ---------- --- - --- ----- ----- ----<br>---- --- --- ----- --- ---- ---- ------- ----- ---- -------<br>--- --- -- ----- -- --- ---- -- --- even -- ------ ------<br>--- ----- -- ----,152294.5,152289.39999997616,151758.884,151758.60000002384,151775.55,152308.862,,48,even
screen,html.Screen,2_1_0_1_49,2022-05-02T11:46:18.759Z,,,,,,,,,,,,,,,,,53,,,,,,,,,,,,,,243.3379999284807,,response,,,,99,,,,,,,Space,keypress(Space),,,,,,,,---- -- ----- -- ------ - ------- --- ----------<br>------------- ------ ------ ---- ---- ------- ----- -- ----<br>-------- ------- -- ---------- --- - --- ----- ----- ----<br>---- --- --- ----- --- ---- ---- ------- ----- ---- -------<br>--- --- -- ----- -- --- ---- -- --- ---- if ------ ------<br>--- ----- -- ----,152557.39999997616,152552.19999992847,152292.196,152294.79999995232,152308.862,152558.852,,49,if
screen,html.Screen,2_1_0_1_50,2022-05-02T11:46:19.049Z,,,,,,,,,,,,,,,,,53,,,,,,,,,,,,,,282.6479999999865,,response,,,,99,,,,,,,Space,keypress(Space),,,,,,,,---- -- ----- -- ------ - ------- --- ----------<br>------------- ------ ------ ---- ---- ------- ----- -- ----<br>-------- ------- -- ---------- --- - --- ----- ----- ----<br>---- --- --- ----- --- ---- ---- ------- ----- ---- -------<br>--- --- -- ----- -- --- ---- -- --- ---- -- that's ------<br>--- ----- -- ----,152846.69999992847,152841.5,152542.186,152557.60000002384,152558.852,152858.84,,50,that's
screen,html.Screen,2_1_0_1_51,2022-05-02T11:46:19.343Z,,,,,,,,,,,,,,,,,53,,,,,,,,,,,,,,277.1600000000035,,response,,,,99,,,,,,,Space,keypress(Space),,,,,,,,---- -- ----- -- ------ - ------- --- ----------<br>------------- ------ ------ ---- ---- ------- ----- -- ----<br>-------- ------- -- ---------- --- - --- ----- ----- ----<br>---- --- --- ----- --- ---- ---- ------- ----- ---- -------<br>--- --- -- ----- -- --- ---- -- --- ---- -- ------ really<br>--- ----- -- ----,153141,153136,152842.174,152847,152858.84,153158.828,,51,really
screen,html.Screen,2_1_0_1_52,2022-05-02T11:46:19.627Z,,,,,,,,,,,,,,,,,53,,,,,,,,,,,,,,261.27200002383324,,response,,,,99,,,,,,,Space,keypress(Space),,,,,,,,---- -- ----- -- ------ - ------- --- ----------<br>------------- ------ ------ ---- ---- ------- ----- -- ----<br>-------- ------- -- ---------- --- - --- ----- ----- ----<br>---- --- --- ----- --- ---- ---- ------- ----- ---- -------<br>--- --- -- ----- -- --- ---- -- --- ---- -- ------ ------<br>not ----- -- ----,153425.10000002384,153420.10000002384,153142.162,153141.29999995232,153158.828,153442.15,,52,not
screen,html.Screen,2_1_0_1_53,2022-05-02T11:46:19.912Z,,,,,,,,,,,,,,,,,53,,,,,,,,,,,,,,263.04999992848025,,response,,,,99,,,,,,,Space,keypress(Space),,,,,,,,---- -- ----- -- ------ - ------- --- ----------<br>------------- ------ ------ ---- ---- ------- ----- -- ----<br>-------- ------- -- ---------- --- - --- ----- ----- ----<br>---- --- --- ----- --- ---- ---- ------- ----- ---- -------<br>--- --- -- ----- -- --- ---- -- --- ---- -- ------ ------<br>--- close -- ----,153709.89999997616,153705.19999992847,153425.484,153425.39999997616,153442.15,153725.472,,53,close
screen,html.Screen,2_1_0_1_54,2022-05-02T11:46:20.206Z,,,,,,,,,,,,,,,,,53,,,,,,,,,,,,,,273.9279999761493,,response,,,,99,,,,,,,Space,keypress(Space),,,,,,,,---- -- ----- -- ------ - ------- --- ----------<br>------------- ------ ------ ---- ---- ------- ----- -- ----<br>-------- ------- -- ---------- --- - --- ----- ----- ----<br>---- --- --- ----- --- ---- ---- ------- ----- ---- -------<br>--- --- -- ----- -- --- ---- -- --- ---- -- ------ ------<br>--- ----- at ----,154004.5,153999.39999997616,153708.806,153710.10000002384,153725.472,154008.794,,54,at
screen,html.Screen,2_1_0_1_55,2022-05-02T11:46:20.560Z,,,,,,,,,,,,,,,,,53,,,,,,,,,,,,,,344.5059999523219,,response,,,,99,,,,,,,Space,keypress(Space),,,,,,,,---- -- ----- -- ------ - ------- --- ----------<br>------------- ------ ------ ---- ---- ------- ----- -- ----<br>-------- ------- -- ---------- --- - --- ----- ----- ----<br>---- --- --- ----- --- ---- ---- ------- ----- ---- -------<br>--- --- -- ----- -- --- ---- -- --- ---- -- ------ ------<br>--- ----- -- all.,154358.5,154353.29999995232,153992.128,154004.69999992847,154008.794,154375.446,,55,all.
Item 99,flow.Loop,2_1_0_1,2022-05-02T11:46:20.561Z,,,,,,,,,,,,,,,,,,,,,,,,,,,,,,,24128.69599995231,,completion,,,,,G,,,,,,,,,,,silence,,,,,154359,154353.29999995232,130207.938,130210.29999995232,130224.604,154375.446,,,
Question 1,html.Screen,2_1_0_2,2022-05-02T11:46:28.951Z,,,,,,,,,,,,,,,,,,,,,,,,,,,,false,FALSE,,8372.154000023846,,response,,,,99,G,,,,,,TRUE,click #choice-1,,,,silence,,,,,162750,162747.60000002384,154358.78,154359.19999992847,154375.446,162759.038,,,
Question 2,html.Screen,2_1_0_3,2022-05-02T11:46:34.451Z,,,,,,,,,,,,,,,,,,,,,,,,,,,,true,TRUE,,5488.562000023841,,response,,,,99,G,,,,,,TRUE,click #choice-1,,,,silence,,,,,168250,168247.60000002384,162742.372,162750.19999992847,162759.038,168258.818,,,
Item 99,flow.Sequence,2_1_0,2022-05-02T11:46:34.452Z,,,,,,,,,,,,,,,,,,,,,,,,,,,,,,,48024.23000002385,,completion,,,,,,,,,,,,,,,,,,,,,168250.19999992847,168247.60000002384,120206.704,120219.79999995232,120223.37,168258.818,,,
Holding screen,html.Screen,2_1_1_0,2022-05-02T11:46:44.445Z,,,,,,,,,,,,,,,,,,,,,,,,,,,,,,,10000.197000000015,,timeout,,,,,,,,,,,,,,,,,,,,,178244.29999995232,178242.349,168242.152,168250.39999997616,168258.818,178259.015,,,
screen,html.Screen,2_1_1_1_0,2022-05-02T11:46:45.219Z,,,,,,,,,,,,,,,,,54,,,,,,,,,,,,,,752.5850000238279,,response,,,,100,,,,,,,Space,keypress(Space),,,,,,,,At --- ---- --- ------ ----- ------- ---- -- --- ------- --<br>------- ---------- ------ -- ----- -- ----- -- ---- ------<br>--- ----- --- --- ------ -------- ----- --- ------ ----- --<br>----- ----- ---------- --- --- ------ ------ ---- -- ------<br>------- --- ------ ----- --- ---- ------- -- ---- --- --<br>------- ------,179017.5,179011.60000002384,178242.349,178244.60000002384,178259.015,179025.651,,0,At
screen,html.Screen,2_1_1_1_1,2022-05-02T11:46:45.490Z,,,,,,,,,,,,,,,,,54,,,,,,,,,,,,,,258.24899997614557,,response,,,,100,,,,,,,Space,keypress(Space),,,,,,,,-- the ---- --- ------ ----- ------- ---- -- --- ------- --<br>------- ---------- ------ -- ----- -- ----- -- ---- ------<br>--- ----- --- --- ------ -------- ----- --- ------ ----- --<br>----- ----- ---------- --- --- ------ ------ ---- -- ------<br>------- --- ------ ----- --- ---- ------- -- ---- --- --<br>------- ------,179289,179283.89999997616,179008.985,179017.79999995232,179025.651,179292.307,,1,the
screen,html.Screen,2_1_1_1_2,2022-05-02T11:46:45.820Z,,,,,,,,,,,,,,,,,54,,,,,,,,,,,,,,321.3929999284737,,response,,,,100,,,,,,,Space,keypress(Space),,,,,,,,-- --- time --- ------ ----- ------- ---- -- --- ------- --<br>------- ---------- ------ -- ----- -- ----- -- ---- ------<br>--- ----- --- --- ------ -------- ----- --- ------ ----- --<br>----- ----- ---------- --- --- ------ ------ ---- -- ------<br>------- --- ------ ----- --- ---- ------- -- ---- --- --<br>------- ------,179619,179613.69999992847,179275.641,179289.29999995232,179292.307,179625.627,,2,time
screen,html.Screen,2_1_1_1_3,2022-05-02T11:46:46.170Z,,,,,,,,,,,,,,,,,54,,,,,,,,,,,,,,338.1729999523086,,response,,,,100,,,,,,,Space,keypress(Space),,,,,,,,-- --- ---- the ------ ----- ------- ---- -- --- ------- --<br>------- ---------- ------ -- ----- -- ----- -- ---- ------<br>--- ----- --- --- ------ -------- ----- --- ------ ----- --<br>----- ----- ---------- --- --- ------ ------ ---- -- ------<br>------- --- ------ ----- --- ---- ------- -- ---- --- --<br>------- ------,179969.19999992847,179963.79999995232,179608.961,179619.29999995232,179625.627,179975.613,,3,the
screen,html.Screen,2_1_1_1_4,2022-05-02T11:46:46.509Z,,,,,,,,,,,,,,,,,54,,,,,,,,,,,,,,327.3869999999879,,response,,,,100,,,,,,,Space,keypress(Space),,,,,,,,-- --- ---- --- French ----- ------- ---- -- --- ------- --<br>------- ---------- ------ -- ----- -- ----- -- ---- ------<br>--- ----- --- --- ------ -------- ----- --- ------ ----- --<br>----- ----- ---------- --- --- ------ ------ ---- -- ------<br>------- --- ------ ----- --- ---- ------- -- ---- --- --<br>------- ------,180308,180303,179958.947,179969.39999997616,179975.613,180308.933,,4,French
screen,html.Screen,2_1_1_1_5,2022-05-02T11:46:46.844Z,,,,,,,,,,,,,,,,,54,,,,,,,,,,,,,,329.06700000001,,response,,,,100,,,,,,,Space,keypress(Space),,,,,,,,-- --- ---- --- ------ crown ------- ---- -- --- ------- --<br>------- ---------- ------ -- ----- -- ----- -- ---- ------<br>--- ----- --- --- ------ -------- ----- --- ------ ----- --<br>----- ----- ---------- --- --- ------ ------ ---- -- ------<br>------- --- ------ ----- --- ---- ------- -- ---- --- --<br>------- ------,180643.19999992847,180638,180292.267,180308.19999992847,180308.933,180658.919,,5,crown
screen,html.Screen,2_1_1_1_6,2022-05-02T11:46:47.165Z,,,,,,,,,,,,,,,,,54,,,,,,,,,,,,,,299.8809999523219,,response,,,,100,,,,,,,Space,keypress(Space),,,,,,,,-- --- ---- --- ------ ----- secured ---- -- --- ------- --<br>------- ---------- ------ -- ----- -- ----- -- ---- ------<br>--- ----- --- --- ------ -------- ----- --- ------ ----- --<br>----- ----- ---------- --- --- ------ ------ ---- -- ------<br>------- --- ------ ----- --- ---- ------- -- ---- --- --<br>------- ------,180964,180958.79999995232,180642.253,180643.5,180658.919,180975.573,,6,secured
screen,html.Screen,2_1_1_1_7,2022-05-02T11:46:47.515Z,,,,,,,,,,,,,,,,,54,,,,,,,,,,,,,,333.42699999999604,,response,,,,100,,,,,,,Space,keypress(Space),,,,,,,,-- --- ---- --- ------ ----- ------- much -- --- ------- --<br>------- ---------- ------ -- ----- -- ----- -- ---- ------<br>--- ----- --- --- ------ -------- ----- --- ------ ----- --<br>----- ----- ---------- --- --- ------ ------ ---- -- ------<br>------- --- ------ ----- --- ---- ------- -- ---- --- --<br>------- ------,181314.19999992847,181309,180958.907,180964.19999992847,180975.573,181325.559,,7,much
screen,html.Screen,2_1_1_1_8,2022-05-02T11:46:48.047Z,,,,,,,,,,,,,,,,,54,,,,,,,,,,,,,,515.3409999761498,,response,,,,100,,,,,,,Space,keypress(Space),,,,,,,,-- --- ---- --- ------ ----- ------- ---- of --- ------- --<br>------- ---------- ------ -- ----- -- ----- -- ---- ------<br>--- ----- --- --- ------ -------- ----- --- ------ ----- --<br>----- ----- ---------- --- --- ------ ------ ---- -- ------<br>------- --- ------ ----- --- ---- ------- -- ---- --- --<br>------- ------,181846.29999995232,181840.89999997616,181308.893,181314.39999997616,181325.559,181858.871,,8,of
screen,html.Screen,2_1_1_1_9,2022-05-02T11:46:48.406Z,,,,,,,,,,,,,,,,,54,,,,,,,,,,,,,,341.2290000238281,,response,,,,100,,,,,,,Space,keypress(Space),,,,,,,,-- --- ---- --- ------ ----- ------- ---- -- its ------- --<br>------- ---------- ------ -- ----- -- ----- -- ---- ------<br>--- ----- --- --- ------ -------- ----- --- ------ ----- --<br>----- ----- ---------- --- --- ------ ------ ---- -- ------<br>------- --- ------ ----- --- ---- ------- -- ---- --- --<br>------- ------,182205.19999992847,182200.10000002384,181842.205,181846.5,181858.871,182208.857,,9,its
screen,html.Screen,2_1_1_1_10,2022-05-02T11:46:48.763Z,,,,,,,,,,,,,,,,,54,,,,,,,,,,,,,,348.14300000001094,,response,,,,100,,,,,,,Space,keypress(Space),,,,,,,,-- --- ---- --- ------ ----- ------- ---- -- --- revenue --<br>------- ---------- ------ -- ----- -- ----- -- ---- ------<br>--- ----- --- --- ------ -------- ----- --- ------ ----- --<br>----- ----- ---------- --- --- ------ ------ ---- -- ------<br>------- --- ------ ----- --- ---- ------- -- ---- --- --<br>------- ------,182562.10000002384,182557,182192.191,182205.5,182208.857,182575.509,,10,revenue
screen,html.Screen,2_1_1_1_11,2022-05-02T11:46:49.132Z,,,,,,,,,,,,,,,,,54,,,,,,,,,,,,,,350.6909999284835,,response,,,,100,,,,,,,Space,keypress(Space),,,,,,,,-- --- ---- --- ------ ----- ------- ---- -- --- ------- by<br>------- ---------- ------ -- ----- -- ----- -- ---- ------<br>--- ----- --- --- ------ -------- ----- --- ------ ----- --<br>----- ----- ---------- --- --- ------ ------ ---- -- ------<br>------- --- ------ ----- --- ---- ------- -- ---- --- --<br>------- ------,182931.29999995232,182926.19999992847,182558.843,182562.29999995232,182575.509,182942.161,,11,by
screen,html.Screen,2_1_1_1_12,2022-05-02T11:46:49.483Z,,,,,,,,,,,,,,,,,54,,,,,,,,,,,,,,334.73899997616536,,response,,,,100,,,,,,,Space,keypress(Space),,,,,,,,-- --- ---- --- ------ ----- ------- ---- -- --- ------- --<br>issuing ---------- ------ -- ----- -- ----- -- ---- ------<br>--- ----- --- --- ------ -------- ----- --- ------ ----- --<br>----- ----- ---------- --- --- ------ ------ ---- -- ------<br>------- --- ------ ----- --- ---- ------- -- ---- --- --<br>------- ------,183281.79999995232,183276.89999997616,182925.495,182931.39999997616,182942.161,183292.746,,12,issuing
screen,html.Screen,2_1_1_1_13,2022-05-02T11:46:50.065Z,,,,,,,,,,,,,,,,,54,,,,,,,,,,,,,,566.3540000238281,,response,,,,100,,,,,,,Space,keypress(Space),,,,,,,,-- --- ---- --- ------ ----- ------- ---- -- --- ------- --<br>------- government ------ -- ----- -- ----- -- ---- ------<br>--- ----- --- --- ------ -------- ----- --- ------ ----- --<br>----- ----- ---------- --- --- ------ ------ ---- -- ------<br>------- --- ------ ----- --- ---- ------- -- ---- --- --<br>------- ------,183864.39999997616,183859.10000002384,183276.08,183282,183292.746,183876.056,,13,government
screen,html.Screen,2_1_1_1_14,2022-05-02T11:46:50.424Z,,,,,,,,,,,,,,,,,54,,,,,,,,,,,,,,341.9439999999886,,response,,,,100,,,,,,,Space,keypress(Space),,,,,,,,-- --- ---- --- ------ ----- ------- ---- -- --- ------- --<br>------- ---------- bonds. -- ----- -- ----- -- ---- ------<br>--- ----- --- --- ------ -------- ----- --- ------ ----- --<br>----- ----- ---------- --- --- ------ ------ ---- -- ------<br>------- --- ------ ----- --- ---- ------- -- ---- --- --<br>------- ------,184223.19999992847,184218,183859.39,183864.79999995232,183876.056,184226.042,,14,bonds.
screen,html.Screen,2_1_1_1_15,2022-05-02T11:46:50.756Z,,,,,,,,,,,,,,,,,54,,,,,,,,,,,,,,324.05800002385513,,response,,,,100,,,,,,,Space,keypress(Space),,,,,,,,-- --- ---- --- ------ ----- ------- ---- -- --- ------- --<br>------- ---------- ------ In ----- -- ----- -- ---- ------<br>--- ----- --- --- ------ -------- ----- --- ------ ----- --<br>----- ----- ---------- --- --- ------ ------ ---- -- ------<br>------- --- ------ ----- --- ---- ------- -- ---- --- --<br>------- ------,184555.29999995232,184550.10000002384,184209.376,184223.39999997616,184226.042,184559.362,,15,In
screen,html.Screen,2_1_1_1_16,2022-05-02T11:46:51.089Z,,,,,,,,,,,,,,,,,54,,,,,,,,,,,,,,323.43799995232257,,response,,,,100,,,,,,,Space,keypress(Space),,,,,,,,"-- --- ---- --- ------ ----- ------- ---- -- --- ------- --<br>------- ---------- ------ -- 1727, -- ----- -- ---- ------<br>--- ----- --- --- ------ -------- ----- --- ------ ----- --<br>----- ----- ---------- --- --- ------ ------ ---- -- ------<br>------- --- ------ ----- --- ---- ------- -- ---- --- --<br>------- ------",184887.79999995232,184882.79999995232,184542.696,184555.5,184559.362,184892.682,,16,"1727,"
screen,html.Screen,2_1_1_1_17,2022-05-02T11:46:51.690Z,,,,,,,,,,,,,,,,,54,,,,,,,,,,,,,,591.2179999761574,,response,,,,100,,,,,,,Space,keypress(Space),,,,,,,,-- --- ---- --- ------ ----- ------- ---- -- --- ------- --<br>------- ---------- ------ -- ----- in ----- -- ---- ------<br>--- ----- --- --- ------ -------- ----- --- ------ ----- --<br>----- ----- ---------- --- --- ------ ------ ---- -- ------<br>------- --- ------ ----- --- ---- ------- -- ---- --- --<br>------- ------,185489,185483.89999997616,184876.016,184888.10000002384,184892.682,185492.658,,17,in
screen,html.Screen,2_1_1_1_18,2022-05-02T11:46:52.089Z,,,,,,,,,,,,,,,,,54,,,,,,,,,,,,,,390.5419999284786,,response,,,,100,,,,,,,Space,keypress(Space),,,,,,,,-- --- ---- --- ------ ----- ------- ---- -- --- ------- --<br>------- ---------- ------ -- ----- -- order -- ---- ------<br>--- ----- --- --- ------ -------- ----- --- ------ ----- --<br>----- ----- ---------- --- --- ------ ------ ---- -- ------<br>------- --- ------ ----- --- ---- ------- -- ---- --- --<br>------- ------,185888.39999997616,185883.19999992847,185475.992,185489.19999992847,185492.658,185892.642,,18,order
screen,html.Screen,2_1_1_1_19,2022-05-02T11:46:52.439Z,,,,,,,,,,,,,,,,,54,,,,,,,,,,,,,,339.35800000000745,,response,,,,100,,,,,,,Space,keypress(Space),,,,,,,,-- --- ---- --- ------ ----- ------- ---- -- --- ------- --<br>------- ---------- ------ -- ----- -- ----- to ---- ------<br>--- ----- --- --- ------ -------- ----- --- ------ ----- --<br>----- ----- ---------- --- --- ------ ------ ---- -- ------<br>------- --- ------ ----- --- ---- ------- -- ---- --- --<br>------- ------,186237.60000002384,186232,185875.976,185888.60000002384,185892.642,186242.628,,19,to
screen,html.Screen,2_1_1_1_20,2022-05-02T11:46:52.764Z,,,,,,,,,,,,,,,,,54,,,,,,,,,,,,,,315.372000000003,,response,,,,100,,,,,,,Space,keypress(Space),,,,,,,,-- --- ---- --- ------ ----- ------- ---- -- --- ------- --<br>------- ---------- ------ -- ----- -- ----- -- save ------<br>--- ----- --- --- ------ -------- ----- --- ------ ----- --<br>----- ----- ---------- --- --- ------ ------ ---- -- ------<br>------- --- ------ ----- --- ---- ------- -- ---- --- --<br>------- ------,186562.79999995232,186558,186225.962,186237.79999995232,186242.628,186575.948,,20,save
screen,html.Screen,2_1_1_1_21,2022-05-02T11:46:53.042Z,,,,,,,,,,,,,,,,,54,,,,,,,,,,,,,,260.05199999999604,,response,,,,100,,,,,,,Space,keypress(Space),,,,,,,,"-- --- ---- --- ------ ----- ------- ---- -- --- ------- --<br>------- ---------- ------ -- ----- -- ----- -- ---- money,<br>--- ----- --- --- ------ -------- ----- --- ------ ----- --<br>----- ----- ---------- --- --- ------ ------ ---- -- ------<br>------- --- ------ ----- --- ---- ------- -- ---- --- --<br>------- ------",186841,186836,186559.282,186563,186575.948,186842.604,,21,"money,"
screen,html.Screen,2_1_1_1_22,2022-05-02T11:46:53.351Z,,,,,,,,,,,,,,,,,54,,,,,,,,,,,,,,302.3960000000079,,response,,,,100,,,,,,,Space,keypress(Space),,,,,,,,-- --- ---- --- ------ ----- ------- ---- -- --- ------- --<br>------- ---------- ------ -- ----- -- ----- -- ---- ------<br>the ----- --- --- ------ -------- ----- --- ------ ----- --<br>----- ----- ---------- --- --- ------ ------ ---- -- ------<br>------- --- ------ ----- --- ---- ------- -- ---- --- --<br>------- ------,187150.5,187145,186825.938,186841.19999992847,186842.604,187159.258,,22,the
screen,html.Screen,2_1_1_1_23,2022-05-02T11:46:53.651Z,,,,,,,,,,,,,,,,,54,,,,,,,,,,,,,,286.4419999284728,,response,,,,100,,,,,,,Space,keypress(Space),,,,,,,,-- --- ---- --- ------ ----- ------- ---- -- --- ------- --<br>------- ---------- ------ -- ----- -- ----- -- ---- ------<br>--- state --- --- ------ -------- ----- --- ------ ----- --<br>----- ----- ---------- --- --- ------ ------ ---- -- ------<br>------- --- ------ ----- --- ---- ------- -- ---- --- --<br>------- ------,187450.39999997616,187445.69999992847,187142.592,187150.79999995232,187159.258,187459.246,,23,state
screen,html.Screen,2_1_1_1_24,2022-05-02T11:46:53.922Z,,,,,,,,,,,,,,,,,54,,,,,,,,,,,,,,256.6539999761444,,response,,,,100,,,,,,,Space,keypress(Space),,,,,,,,-- --- ---- --- ------ ----- ------- ---- -- --- ------- --<br>------- ---------- ------ -- ----- -- ----- -- ---- ------<br>--- ----- cut --- ------ -------- ----- --- ------ ----- --<br>----- ----- ---------- --- --- ------ ------ ---- -- ------<br>------- --- ------ ----- --- ---- ------- -- ---- --- --<br>------- ------,187720.69999992847,187715.89999997616,187442.58,187450.69999992847,187459.246,187725.902,,24,cut
screen,html.Screen,2_1_1_1_25,2022-05-02T11:46:54.203Z,,,,,,,,,,,,,,,,,54,,,,,,,,,,,,,,271.79799992847256,,response,,,,100,,,,,,,Space,keypress(Space),,,,,,,,-- --- ---- --- ------ ----- ------- ---- -- --- ------- --<br>------- ---------- ------ -- ----- -- ----- -- ---- ------<br>--- ----- --- the ------ -------- ----- --- ------ ----- --<br>----- ----- ---------- --- --- ------ ------ ---- -- ------<br>------- --- ------ ----- --- ---- ------- -- ---- --- --<br>------- ------,188002.60000002384,187997.69999992847,187709.236,187720.89999997616,187725.902,188009.224,,25,the
screen,html.Screen,2_1_1_1_26,2022-05-02T11:46:54.708Z,,,,,,,,,,,,,,,,,54,,,,,,,,,,,,,,492.6759999761707,,response,,,,100,,,,,,,Space,keypress(Space),,,,,,,,-- --- ---- --- ------ ----- ------- ---- -- --- ------- --<br>------- ---------- ------ -- ----- -- ----- -- ---- ------<br>--- ----- --- --- bonds' -------- ----- --- ------ ----- --<br>----- ----- ---------- --- --- ------ ------ ---- -- ------<br>------- --- ------ ----- --- ---- ------- -- ---- --- --<br>------- ------,188507.10000002384,188501.89999997616,187992.558,188002.89999997616,188009.224,188509.204,,26,bonds'
screen,html.Screen,2_1_1_1_27,2022-05-02T11:46:55.036Z,,,,,,,,,,,,,,,,,54,,,,,,,,,,,,,,320.89600002384395,,response,,,,100,,,,,,,Space,keypress(Space),,,,,,,,-- --- ---- --- ------ ----- ------- ---- -- --- ------- --<br>------- ---------- ------ -- ----- -- ----- -- ---- ------<br>--- ----- --- --- ------ interest ----- --- ------ ----- --<br>----- ----- ---------- --- --- ------ ------ ---- -- ------<br>------- --- ------ ----- --- ---- ------- -- ---- --- --<br>------- ------,188835.19999992847,188830.10000002384,188492.538,188507.29999995232,188509.204,188842.524,,27,interest
screen,html.Screen,2_1_1_1_28,2022-05-02T11:46:55.446Z,,,,,,,,,,,,,,,,,54,,,,,,,,,,,,,,396.07600002383697,,response,,,,100,,,,,,,Space,keypress(Space),,,,,,,,-- --- ---- --- ------ ----- ------- ---- -- --- ------- --<br>------- ---------- ------ -- ----- -- ----- -- ---- ------<br>--- ----- --- --- ------ -------- rate. --- ------ ----- --<br>----- ----- ---------- --- --- ------ ------ ---- -- ------<br>------- --- ------ ----- --- ---- ------- -- ---- --- --<br>------- ------,189244.89999997616,189238.60000002384,188825.858,188835.39999997616,188842.524,189259.174,,28,rate.
screen,html.Screen,2_1_1_1_29,2022-05-02T11:46:55.795Z,,,,,,,,,,,,,,,,,54,,,,,,,,,,,,,,329.6259999523172,,response,,,,100,,,,,,,Space,keypress(Space),,,,,,,,-- --- ---- --- ------ ----- ------- ---- -- --- ------- --<br>------- ---------- ------ -- ----- -- ----- -- ---- ------<br>--- ----- --- --- ------ -------- ----- The ------ ----- --<br>----- ----- ---------- --- --- ------ ------ ---- -- ------<br>------- --- ------ ----- --- ---- ------- -- ---- --- --<br>------- ------,189593.79999995232,189588.79999995232,189242.508,189245.19999992847,189259.174,189609.16,,29,The
screen,html.Screen,2_1_1_1_30,2022-05-02T11:46:56.109Z,,,,,,,,,,,,,,,,,54,,,,,,,,,,,,,,292.44000002383837,,response,,,,100,,,,,,,Space,keypress(Space),,,,,,,,-- --- ---- --- ------ ----- ------- ---- -- --- ------- --<br>------- ---------- ------ -- ----- -- ----- -- ---- ------<br>--- ----- --- --- ------ -------- ----- --- market ----- --<br>----- ----- ---------- --- --- ------ ------ ---- -- ------<br>------- --- ------ ----- --- ---- ------- -- ---- --- --<br>------- ------,189908.19999992847,189901.60000002384,189592.494,189594.10000002384,189609.16,189925.814,,30,market
screen,html.Screen,2_1_1_1_31,2022-05-02T11:46:56.436Z,,,,,,,,,,,,,,,,,54,,,,,,,,,,,,,,303.8859999284614,,response,,,,100,,,,,,,Space,keypress(Space),,,,,,,,-- --- ---- --- ------ ----- ------- ---- -- --- ------- --<br>------- ---------- ------ -- ----- -- ----- -- ---- ------<br>--- ----- --- --- ------ -------- ----- --- ------ value --<br>----- ----- ---------- --- --- ------ ------ ---- -- ------<br>------- --- ------ ----- --- ---- ------- -- ---- --- --<br>------- ------,190234.79999995232,190229.69999992847,189909.148,189908.39999997616,189925.814,190242.468,,31,value
screen,html.Screen,2_1_1_1_32,2022-05-02T11:46:56.784Z,,,,,,,,,,,,,,,,,54,,,,,,,,,,,,,,335.5320000000065,,response,,,,100,,,,,,,Space,keypress(Space),,,,,,,,-- --- ---- --- ------ ----- ------- ---- -- --- ------- --<br>------- ---------- ------ -- ----- -- ----- -- ---- ------<br>--- ----- --- --- ------ -------- ----- --- ------ ----- of<br>----- ----- ---------- --- --- ------ ------ ---- -- ------<br>------- --- ------ ----- --- ---- ------- -- ---- --- --<br>------- ------,190583,190578,190225.802,190235.19999992847,190242.468,190592.454,,32,of
screen,html.Screen,2_1_1_1_33,2022-05-02T11:46:57.088Z,,,,,,,,,,,,,,,,,54,,,,,,,,,,,,,,289.3459999523184,,response,,,,100,,,,,,,Space,keypress(Space),,,,,,,,-- --- ---- --- ------ ----- ------- ---- -- --- ------- --<br>------- ---------- ------ -- ----- -- ----- -- ---- ------<br>--- ----- --- --- ------ -------- ----- --- ------ ----- --<br>these ----- ---------- --- --- ------ ------ ---- -- ------<br>------- --- ------ ----- --- ---- ------- -- ---- --- --<br>------- ------,190886.89999997616,190881.79999995232,190575.788,190583.19999992847,190592.454,190892.442,,33,these
screen,html.Screen,2_1_1_1_34,2022-05-02T11:46:57.339Z,,,,,,,,,,,,,,,,,54,,,,,,,,,,,,,,242.85799995230627,,response,,,,100,,,,,,,Space,keypress(Space),,,,,,,,-- --- ---- --- ------ ----- ------- ---- -- --- ------- --<br>------- ---------- ------ -- ----- -- ----- -- ---- ------<br>--- ----- --- --- ------ -------- ----- --- ------ ----- --<br>----- bonds ---------- --- --- ------ ------ ---- -- ------<br>------- --- ------ ----- --- ---- ------- -- ---- --- --<br>------- ------,191138.10000002384,191135.29999995232,190875.776,190887.10000002384,190892.442,191142.432,,34,bonds
screen,html.Screen,2_1_1_1_35,2022-05-02T11:46:57.632Z,,,,,,,,,,,,,,,,,54,,,,,,,,,,,,,,283.46799997615744,,response,,,,100,,,,,,,Space,keypress(Space),,,,,,,,"-- --- ---- --- ------ ----- ------- ---- -- --- ------- --<br>------- ---------- ------ -- ----- -- ----- -- ---- ------<br>--- ----- --- --- ------ -------- ----- --- ------ ----- --<br>----- ----- plummeted, --- --- ------ ------ ---- -- ------<br>------- --- ------ ----- --- ---- ------- -- ---- --- --<br>------- ------",191430.89999997616,191425.89999997616,191125.766,191138.29999995232,191142.432,191442.42,,35,"plummeted,"
screen,html.Screen,2_1_1_1_36,2022-05-02T11:46:58.121Z,,,,,,,,,,,,,,,,,54,,,,,,,,,,,,,,473.97999997614534,,response,,,,100,,,,,,,Space,keypress(Space),,,,,,,,-- --- ---- --- ------ ----- ------- ---- -- --- ------- --<br>------- ---------- ------ -- ----- -- ----- -- ---- ------<br>--- ----- --- --- ------ -------- ----- --- ------ ----- --<br>----- ----- ---------- and --- ------ ------ ---- -- ------<br>------- --- ------ ----- --- ---- ------- -- ---- --- --<br>------- ------,191920.60000002384,191916.39999997616,191425.754,191431.19999992847,191442.42,191925.734,,36,and
screen,html.Screen,2_1_1_1_37,2022-05-02T11:46:58.357Z,,,,,,,,,,,,,,,,,54,,,,,,,,,,,,,,225.06599995231954,,response,,,,100,,,,,,,Space,keypress(Space),,,,,,,,-- --- ---- --- ------ ----- ------- ---- -- --- ------- --<br>------- ---------- ------ -- ----- -- ----- -- ---- ------<br>--- ----- --- --- ------ -------- ----- --- ------ ----- --<br>----- ----- ---------- --- the ------ ------ ---- -- ------<br>------- --- ------ ----- --- ---- ------- -- ---- --- --<br>------- ------,192155.89999997616,192150.79999995232,191909.068,191920.79999995232,191925.734,192159.058,,37,the
screen,html.Screen,2_1_1_1_38,2022-05-02T11:46:58.627Z,,,,,,,,,,,,,,,,,54,,,,,,,,,,,,,,261.84199997616815,,response,,,,100,,,,,,,Space,keypress(Space),,,,,,,,-- --- ---- --- ------ ----- ------- ---- -- --- ------- --<br>------- ---------- ------ -- ----- -- ----- -- ---- ------<br>--- ----- --- --- ------ -------- ----- --- ------ ----- --<br>----- ----- ---------- --- --- market ------ ---- -- ------<br>------- --- ------ ----- --- ---- ------- -- ---- --- --<br>------- ------,192425.79999995232,192420.89999997616,192142.392,192156.19999992847,192159.058,192442.38,,38,market
screen,html.Screen,2_1_1_1_39,2022-05-02T11:46:59.034Z,,,,,,,,,,,,,,,,,54,,,,,,,,,,,,,,385.81999992846977,,response,,,,100,,,,,,,Space,keypress(Space),,,,,,,,-- --- ---- --- ------ ----- ------- ---- -- --- ------- --<br>------- ---------- ------ -- ----- -- ----- -- ---- ------<br>--- ----- --- --- ------ -------- ----- --- ------ ----- --<br>----- ----- ---------- --- --- ------ became ---- -- ------<br>------- --- ------ ----- --- ---- ------- -- ---- --- --<br>------- ------,192833.5,192828.19999992847,192425.714,192426,192442.38,192842.364,,39,became
screen,html.Screen,2_1_1_1_40,2022-05-02T11:46:59.400Z,,,,,,,,,,,,,,,,,54,,,,,,,,,,,,,,351.53599997615675,,response,,,,100,,,,,,,Space,keypress(Space),,,,,,,,-- --- ---- --- ------ ----- ------- ---- -- --- ------- --<br>------- ---------- ------ -- ----- -- ----- -- ---- ------<br>--- ----- --- --- ------ -------- ----- --- ------ ----- --<br>----- ----- ---------- --- --- ------ ------ wary -- ------<br>------- --- ------ ----- --- ---- ------- -- ---- --- --<br>------- ------,193198.89999997616,193193.89999997616,192825.698,192833.79999995232,192842.364,193209.016,,40,wary
screen,html.Screen,2_1_1_1_41,2022-05-02T11:46:59.959Z,,,,,,,,,,,,,,,,,54,,,,,,,,,,,,,,543.9839999999967,,response,,,,100,,,,,,,Space,keypress(Space),,,,,,,,-- --- ---- --- ------ ----- ------- ---- -- --- ------- --<br>------- ---------- ------ -- ----- -- ----- -- ---- ------<br>--- ----- --- --- ------ -------- ----- --- ------ ----- --<br>----- ----- ---------- --- --- ------ ------ ---- of ------<br>------- --- ------ ----- --- ---- ------- -- ---- --- --<br>------- ------,193758.10000002384,193753,193192.35,193199.10000002384,193209.016,193759.588,,41,of
screen,html.Screen,2_1_1_1_42,2022-05-02T11:47:00.259Z,,,,,,,,,,,,,,,,,54,,,,,,,,,,,,,,293.21199995232746,,response,,,,100,,,,,,,Space,keypress(Space),,,,,,,,-- --- ---- --- ------ ----- ------- ---- -- --- ------- --<br>------- ---------- ------ -- ----- -- ----- -- ---- ------<br>--- ----- --- --- ------ -------- ----- --- ------ ----- --<br>----- ----- ---------- --- --- ------ ------ ---- -- French<br>------- --- ------ ----- --- ---- ------- -- ---- --- --<br>------- ------,194057.79999995232,194052.79999995232,193742.922,193758.29999995232,193759.588,194059.576,,42,French
screen,html.Screen,2_1_1_1_43,2022-05-02T11:47:00.594Z,,,,,,,,,,,,,,,,,54,,,,,,,,,,,,,,328.22399995231535,,response,,,,100,,,,,,,Space,keypress(Space),,,,,,,,-- --- ---- --- ------ ----- ------- ---- -- --- ------- --<br>------- ---------- ------ -- ----- -- ----- -- ---- ------<br>--- ----- --- --- ------ -------- ----- --- ------ ----- --<br>----- ----- ---------- --- --- ------ ------ ---- -- ------<br>credit. --- ------ ----- --- ---- ------- -- ---- --- --<br>------- ------,194393.10000002384,194387.79999995232,194042.91,194058.19999992847,194059.576,194409.562,,43,credit.
screen,html.Screen,2_1_1_1_44,2022-05-02T11:47:00.961Z,,,,,,,,,,,,,,,,,54,,,,,,,,,,,,,,345.3379999761528,,response,,,,100,,,,,,,Space,keypress(Space),,,,,,,,-- --- ---- --- ------ ----- ------- ---- -- --- ------- --<br>------- ---------- ------ -- ----- -- ----- -- ---- ------<br>--- ----- --- --- ------ -------- ----- --- ------ ----- --<br>----- ----- ---------- --- --- ------ ------ ---- -- ------<br>------- The ------ ----- --- ---- ------- -- ---- --- --<br>------- ------,194760.19999992847,194754.89999997616,194392.896,194393.39999997616,194409.562,194776.214,,44,The
screen,html.Screen,2_1_1_1_45,2022-05-02T11:47:01.306Z,,,,,,,,,,,,,,,,,54,,,,,,,,,,,,,,323.7859999999928,,response,,,,100,,,,,,,Space,keypress(Space),,,,,,,,-- --- ---- --- ------ ----- ------- ---- -- --- ------- --<br>------- ---------- ------ -- ----- -- ----- -- ---- ------<br>--- ----- --- --- ------ -------- ----- --- ------ ----- --<br>----- ----- ---------- --- --- ------ ------ ---- -- ------<br>------- --- French ----- --- ---- ------- -- ---- --- --<br>------- ------,195105.39999997616,195100,194759.548,194760.39999997616,194776.214,195109.534,,45,French
screen,html.Screen,2_1_1_1_46,2022-05-02T11:47:01.587Z,,,,,,,,,,,,,,,,,54,,,,,,,,,,,,,,272.36599997614394,,response,,,,100,,,,,,,Space,keypress(Space),,,,,,,,-- --- ---- --- ------ ----- ------- ---- -- --- ------- --<br>------- ---------- ------ -- ----- -- ----- -- ---- ------<br>--- ----- --- --- ------ -------- ----- --- ------ ----- --<br>----- ----- ---------- --- --- ------ ------ ---- -- ------<br>------- --- ------ state --- ---- ------- -- ---- --- --<br>------- ------,195386.19999992847,195381.89999997616,195092.868,195105.69999992847,195109.534,195392.856,,46,state
screen,html.Screen,2_1_1_1_47,2022-05-02T11:47:02.069Z,,,,,,,,,,,,,,,,,54,,,,,,,,,,,,,,469.9439999523165,,response,,,,100,,,,,,,Space,keypress(Space),,,,,,,,-- --- ---- --- ------ ----- ------- ---- -- --- ------- --<br>------- ---------- ------ -- ----- -- ----- -- ---- ------<br>--- ----- --- --- ------ -------- ----- --- ------ ----- --<br>----- ----- ---------- --- --- ------ ------ ---- -- ------<br>------- --- ------ ----- was ---- ------- -- ---- --- --<br>------- ------,195868,195862.79999995232,195376.19,195386.29999995232,195392.856,195876.17,,47,was
screen,html.Screen,2_1_1_1_48,2022-05-02T11:47:02.486Z,,,,,,,,,,,,,,,,,54,,,,,,,,,,,,,,403.5299999284616,,response,,,,100,,,,,,,Space,keypress(Space),,,,,,,,-- --- ---- --- ------ ----- ------- ---- -- --- ------- --<br>------- ---------- ------ -- ----- -- ----- -- ---- ------<br>--- ----- --- --- ------ -------- ----- --- ------ ----- --<br>----- ----- ---------- --- --- ------ ------ ---- -- ------<br>------- --- ------ ----- --- left ------- -- ---- --- --<br>------- ------,196284.79999995232,196279.69999992847,195859.504,195868.10000002384,195876.17,196292.82,,48,left
screen,html.Screen,2_1_1_1_49,2022-05-02T11:47:02.938Z,,,,,,,,,,,,,,,,,54,,,,,,,,,,,,,,439.07999997615116,,response,,,,100,,,,,,,Space,keypress(Space),,,,,,,,-- --- ---- --- ------ ----- ------- ---- -- --- ------- --<br>------- ---------- ------ -- ----- -- ----- -- ---- ------<br>--- ----- --- --- ------ -------- ----- --- ------ ----- --<br>----- ----- ---------- --- --- ------ ------ ---- -- ------<br>------- --- ------ ----- --- ---- without -- ---- --- --<br>------- ------,196737.10000002384,196731.89999997616,196276.154,196285,196292.82,196742.802,,49,without
screen,html.Screen,2_1_1_1_50,2022-05-02T11:47:03.281Z,,,,,,,,,,,,,,,,,54,,,,,,,,,,,,,,332.2980000238458,,response,,,,100,,,,,,,Space,keypress(Space),,,,,,,,-- --- ---- --- ------ ----- ------- ---- -- --- ------- --<br>------- ---------- ------ -- ----- -- ----- -- ---- ------<br>--- ----- --- --- ------ -------- ----- --- ------ ----- --<br>----- ----- ---------- --- --- ------ ------ ---- -- ------<br>------- --- ------ ----- --- ---- ------- an ---- --- --<br>------- ------,197080,197075.10000002384,196726.136,196737.29999995232,196742.802,197092.788,,50,an
screen,html.Screen,2_1_1_1_51,2022-05-02T11:47:03.621Z,,,,,,,,,,,,,,,,,54,,,,,,,,,,,,,,322.1119999761577,,response,,,,100,,,,,,,Space,keypress(Space),,,,,,,,-- --- ---- --- ------ ----- ------- ---- -- --- ------- --<br>------- ---------- ------ -- ----- -- ----- -- ---- ------<br>--- ----- --- --- ------ -------- ----- --- ------ ----- --<br>----- ----- ---------- --- --- ------ ------ ---- -- ------<br>------- --- ------ ----- --- ---- ------- -- easy --- --<br>------- ------,197420,197414.89999997616,197076.122,197080.29999995232,197092.788,197426.108,,51,easy
screen,html.Screen,2_1_1_1_52,2022-05-02T11:47:03.974Z,,,,,,,,,,,,,,,,,54,,,,,,,,,,,,,,341.7919999761507,,response,,,,100,,,,,,,Space,keypress(Space),,,,,,,,-- --- ---- --- ------ ----- ------- ---- -- --- ------- --<br>------- ---------- ------ -- ----- -- ----- -- ---- ------<br>--- ----- --- --- ------ -------- ----- --- ------ ----- --<br>----- ----- ---------- --- --- ------ ------ ---- -- ------<br>------- --- ------ ----- --- ---- ------- -- ---- way --<br>------- ------,197773.19999992847,197767.89999997616,197409.442,197420.19999992847,197426.108,197776.094,,52,way
screen,html.Screen,2_1_1_1_53,2022-05-02T11:47:04.386Z,,,,,,,,,,,,,,,,,54,,,,,,,,,,,,,,403.50600002383,,response,,,,100,,,,,,,Space,keypress(Space),,,,,,,,-- --- ---- --- ------ ----- ------- ---- -- --- ------- --<br>------- ---------- ------ -- ----- -- ----- -- ---- ------<br>--- ----- --- --- ------ -------- ----- --- ------ ----- --<br>----- ----- ---------- --- --- ------ ------ ---- -- ------<br>------- --- ------ ----- --- ---- ------- -- ---- --- of<br>------- ------,198184.89999997616,198179.60000002384,197759.428,197773.39999997616,197776.094,198192.744,,53,of
screen,html.Screen,2_1_1_1_54,2022-05-02T11:47:04.679Z,,,,,,,,,,,,,,,,,54,,,,,,,,,,,,,,280.05599995231023,,response,,,,100,,,,,,,Space,keypress(Space),,,,,,,,-- --- ---- --- ------ ----- ------- ---- -- --- ------- --<br>------- ---------- ------ -- ----- -- ----- -- ---- ------<br>--- ----- --- --- ------ -------- ----- --- ------ ----- --<br>----- ----- ---------- --- --- ------ ------ ---- -- ------<br>------- --- ------ ----- --- ---- ------- -- ---- --- --<br>raising ------,198478.10000002384,198472.79999995232,198176.078,198185.19999992847,198192.744,198492.732,,54,raising
screen,html.Screen,2_1_1_1_55,2022-05-02T11:47:05.168Z,,,,,,,,,,,,,,,,,54,,,,,,,,,,,,,,469.26800000001094,,response,,,,100,,,,,,,Space,keypress(Space),,,,,,,,-- --- ---- --- ------ ----- ------- ---- -- --- ------- --<br>------- ---------- ------ -- ----- -- ----- -- ---- ------<br>--- ----- --- --- ------ -------- ----- --- ------ ----- --<br>----- ----- ---------- --- --- ------ ------ ---- -- ------<br>------- --- ------ ----- --- ---- ------- -- ---- --- --<br>------- money.,198967.60000002384,198962,198476.066,198478.29999995232,198492.732,198976.046,,55,money.
Item 100,flow.Loop,2_1_1_1,2022-05-02T11:47:05.169Z,,,,,,,,,,,,,,,,,,,,,,,,,,,,,,,20702.984999999986,,completion,,,,,G,,,,,,,,,,,silence,,,,,198968,198962,178242.349,178244.5,178259.015,198976.046,,,
Question 1,html.Screen,2_1_1_2,2022-05-02T11:47:08.251Z,,,,,,,,,,,,,,,,,,,,,,,,,,,,true,TRUE,,3072.1539999284723,,response,,,,100,G,,,,,,TRUE,click #choice-1,,,,silence,,,,,202050.60000002384,202048.19999992847,198959.38,198968.19999992847,198976.046,202059.256,,,
Question 2,html.Screen,2_1_1_3,2022-05-02T11:47:10.901Z,,,,,,,,,,,,,,,,,,,,,,,,,,,,true,FALSE,,2639.0439999523223,,response,,,,100,G,,,,,,FALSE,click #choice-2,,,,silence,,,,,204700.60000002384,204698.29999995232,202042.59,202050.89999997616,202059.256,204709.708,,,
Item 100,flow.Sequence,2_1_1,2022-05-02T11:47:10.901Z,,,,,,,,,,,,,,,,,,,,,,,,,,,,,,,36439.48199995232,,completion,,,,,,,,,,,,,,,,,,,,,204700.89999997616,204698.29999995232,168242.152,168250.29999995232,168258.818,204709.708,,,
End of Practice,html.Page,2_1_2,2022-05-02T11:47:16.503Z,,,,,,,,,,,,,,,,,,,,,,,,,,,,,,,5592.291999999987,,form submission,,,,,,,,,,,,,,,,,,,,,210302.5,210302,204693.042,204701.10000002384,204709.708,210309.484,,,
Practice,flow.Sequence,2_1,2022-05-02T11:47:16.503Z,,,,,,,,,,,,,,,,,,,,,,,,,,,,,,,90078.63,,completion,,,,,,,,,,,,,,,,,,,,,210302.69999992847,210302,120206.704,120219.79999995232,120223.37,210309.484,,,
Trap_instruction,html.Page,2_2_0,2022-05-02T11:47:31.152Z,,,,,,,,,,,,,,,,,,,,,,,,,,,,,,,14641.616000023845,,form submission,,,,,,,,,,,,,,,,,,,,,224951.5,224951.10000002384,210292.818,210302.89999997616,210309.484,224960.092,,,
trap_trial,html.Screen,2_2_1,2022-05-02T11:47:35.151Z,,,,,,,,,,,,,,,,,,,,,,,,,,,,true,1,,3988.5080000238377,,response,,,,,,,,,,,1,click #choice-1,,,,,,,,,228950.79999995232,228948.60000002384,224943.426,224951.79999995232,224960.092,228959.932,,,
end of trap trial,html.Page,2_2_2,2022-05-02T11:47:37.152Z,,,,,,,,,,,,,,,,,,,,,,,,,,,,,,,1991.6680000238412,,form submission,,,,,,,,,,,,,,,,,,,,,230952,230951.60000002384,228943.266,228951,228959.932,230959.852,,,
Trap 1,flow.Sequence,2_2,2022-05-02T11:47:37.152Z,,,,,,,,,,,,,,,,,,,,,,,,,,,,,,,20642.116000023845,,completion,,,,,,,,,,,,,,,,,,,,,230952.29999995232,230951.60000002384,210292.818,210302.79999995232,210309.484,230959.852,,,
Standby,html.Page,2_3_0,2022-05-02T11:47:45.145Z,,,,,,,,,,,,,,,,,,,,,,,,,,,,,,,7999.679999999993,,timeout,,,,,,,,,,,,,,,,,,,,,238944.89999997616,238942.866,230943.186,230952.39999997616,230959.852,238959.532,,,
Holding screen,html.Screen,2_3_1_0_0,2022-05-02T11:47:52.146Z,,,,,,,,,,,,,,,,,,,,,,,,,,,,,,,7000.554999999993,,timeout,,,,,,,,,,,,,,,,,,,,,245946.10000002384,245943.421,238942.866,238945.29999995232,238959.532,245960.087,,,
screen,html.Screen,2_3_1_0_1_0,2022-05-02T11:47:59.145Z,,,,,,,,,,,,,,,,,51,,,,,,,,,,,,,,6999.720000000001,,timeout,,,,13,G,,,,,,,,,,,instrumental,,,,American -------- --- --- ---- --- --- ------ -- --------<br>---- --------- --- ------- ------------ ---------- ---------<br>--- ---------- ------- ---------- ------- -- -------- ----<br>---- --- ------ ----- ------ -- ---- --- ----- -- - -------<br>-------- -- --- --- -- ----- ----------- ----- -----------<br>---- --- ---------- --- ---- --- -- ----------,252945.39999997616,252943.141,245943.421,245946.60000002384,245960.087,252959.807,,0,American
screen,html.Screen,2_3_1_0_1_1,2022-05-02T11:48:02.851Z,,,,,,,,,,,,,,,,,51,,,,,,,,,,,,,,3688.0929999761574,,response,,,,13,G,,,,,,Space,keypress(Space),,,,instrumental,,,,-------- industry --- --- ---- --- --- ------ -- --------<br>---- --------- --- ------- ------------ ---------- ---------<br>--- ---------- ------- ---------- ------- -- -------- ----<br>---- --- ------ ----- ------ -- ---- --- ----- -- - -------<br>-------- -- --- --- -- ----- ----------- ----- -----------<br>---- --- ---------- --- ---- --- -- ----------,256652,256647.89999997616,252943.141,252945.69999992847,252959.807,256659.659,,1,industry
screen,html.Screen,2_3_1_0_1_2,2022-05-02T11:48:03.197Z,,,,,,,,,,,,,,,,,51,,,,,,,,,,,,,,335.0409999284602,,response,,,,13,G,,,,,,Space,keypress(Space),,,,instrumental,,,,-------- -------- may --- ---- --- --- ------ -- --------<br>---- --------- --- ------- ------------ ---------- ---------<br>--- ---------- ------- ---------- ------- -- -------- ----<br>---- --- ------ ----- ------ -- ---- --- ----- -- - -------<br>-------- -- --- --- -- ----- ----------- ----- -----------<br>---- --- ---------- --- ---- --- -- ----------,256997.69999992847,256994.69999992847,256642.993,256652.29999995232,256659.659,257010.397,,2,may
screen,html.Screen,2_3_1_0_1_3,2022-05-02T11:48:03.498Z,,,,,,,,,,,,,,,,,51,,,,,,,,,,,,,,283.4029999523191,,response,,,,13,G,,,,,,Space,keypress(Space),,,,instrumental,,,,-------- -------- --- not ---- --- --- ------ -- --------<br>---- --------- --- ------- ------------ ---------- ---------<br>--- ---------- ------- ---------- ------- -- -------- ----<br>---- --- ------ ----- ------ -- ---- --- ----- -- - -------<br>-------- -- --- --- -- ----- ----------- ----- -----------<br>---- --- ---------- --- ---- --- -- ----------,257299,257293.79999995232,256993.731,256997.89999997616,257010.397,257310.385,,3,not
screen,html.Screen,2_3_1_0_1_4,2022-05-02T11:48:03.799Z,,,,,,,,,,,,,,,,,51,,,,,,,,,,,,,,284.8149999284651,,response,,,,13,G,,,,,,Space,keypress(Space),,,,instrumental,,,,-------- -------- --- --- know --- --- ------ -- --------<br>---- --------- --- ------- ------------ ---------- ---------<br>--- ---------- ------- ---------- ------- -- -------- ----<br>---- --- ------ ----- ------ -- ---- --- ----- -- - -------<br>-------- -- --- --- -- ----- ----------- ----- -----------<br>---- --- ---------- --- ---- --- -- ----------,257599.29999995232,257595.19999992847,257293.719,257299.29999995232,257310.385,257610.373,,4,know
screen,html.Screen,2_3_1_0_1_5,2022-05-02T11:48:04.173Z,,,,,,,,,,,,,,,,,51,,,,,,,,,,,,,,357.6270000000077,,response,,,,13,G,,,,,,Space,keypress(Space),,,,instrumental,,,,"-------- -------- --- --- ---- it, --- ------ -- --------<br>---- --------- --- ------- ------------ ---------- ---------<br>--- ---------- ------- ---------- ------- -- -------- ----<br>---- --- ------ ----- ------ -- ---- --- ----- -- - -------<br>-------- -- --- --- -- ----- ----------- ----- -----------<br>---- --- ---------- --- ---- --- -- ----------",257973.29999995232,257968,257593.707,257599.5,257610.373,257977.025,,5,"it,"
screen,html.Screen,2_3_1_0_1_6,2022-05-02T11:48:04.568Z,,,,,,,,,,,,,,,,,51,,,,,,,,,,,,,,385.9750000000058,,response,,,,13,G,,,,,,Space,keypress(Space),,,,instrumental,,,,-------- -------- --- --- ---- --- but ------ -- --------<br>---- --------- --- ------- ------------ ---------- ---------<br>--- ---------- ------- ---------- ------- -- -------- ----<br>---- --- ------ ----- ------ -- ---- --- ----- -- - -------<br>-------- -- --- --- -- ----- ----------- ----- -----------<br>---- --- ---------- --- ---- --- -- ----------,258368.19999992847,258363,257960.359,257973.69999992847,257977.025,258377.009,,6,but
screen,html.Screen,2_3_1_0_1_7,2022-05-02T11:48:05.060Z,,,,,,,,,,,,,,,,,51,,,,,,,,,,,,,,479.9910000000091,,response,,,,13,G,,,,,,Space,keypress(Space),,,,instrumental,,,,-------- -------- --- --- ---- --- --- debate -- --------<br>---- --------- --- ------- ------------ ---------- ---------<br>--- ---------- ------- ---------- ------- -- -------- ----<br>---- --- ------ ----- ------ -- ---- --- ----- -- - -------<br>-------- -- --- --- -- ----- ----------- ----- -----------<br>---- --- ---------- --- ---- --- -- ----------,258860.89999997616,258857,258360.343,258368.39999997616,258377.009,258876.989,,7,debate
screen,html.Screen,2_3_1_0_1_8,2022-05-02T11:48:05.626Z,,,,,,,,,,,,,,,,,51,,,,,,,,,,,,,,543.9109999761567,,response,,,,13,G,,,,,,Space,keypress(Space),,,,instrumental,,,,-------- -------- --- --- ---- --- --- ------ in --------<br>---- --------- --- ------- ------------ ---------- ---------<br>--- ---------- ------- ---------- ------- -- -------- ----<br>---- --- ------ ----- ------ -- ---- --- ----- -- - -------<br>-------- -- --- --- -- ----- ----------- ----- -----------<br>---- --- ---------- --- ---- --- -- ----------,259426.29999995232,259420.89999997616,258860.323,258861.10000002384,258876.989,259443.633,,8,in
screen,html.Screen,2_3_1_0_1_9,2022-05-02T11:48:06.177Z,,,,,,,,,,,,,,,,,51,,,,,,,,,,,,,,528.8669999999984,,response,,,,13,G,,,,,,Space,keypress(Space),,,,instrumental,,,,-------- -------- --- --- ---- --- --- ------ -- Congress<br>---- --------- --- ------- ------------ ---------- ---------<br>--- ---------- ------- ---------- ------- -- -------- ----<br>---- --- ------ ----- ------ -- ---- --- ----- -- - -------<br>-------- -- --- --- -- ----- ----------- ----- -----------<br>---- --- ---------- --- ---- --- -- ----------,259977.5,259972.5,259426.967,259426.5,259443.633,259993.611,,9,Congress
screen,html.Screen,2_3_1_0_1_10,2022-05-02T11:48:06.752Z,,,,,,,,,,,,,,,,,51,,,,,,,,,,,,,,553.2889999761537,,response,,,,13,G,,,,,,Space,keypress(Space),,,,instrumental,,,,-------- -------- --- --- ---- --- --- ------ -- --------<br>over --------- --- ------- ------------ ---------- ---------<br>--- ---------- ------- ---------- ------- -- -------- ----<br>---- --- ------ ----- ------ -- ---- --- ----- -- - -------<br>-------- -- --- --- -- ----- ----------- ----- -----------<br>---- --- ---------- --- ---- --- -- ----------,260552.39999997616,260546.89999997616,259976.945,259977.69999992847,259993.611,260560.255,,10,over
screen,html.Screen,2_3_1_0_1_11,2022-05-02T11:48:07.129Z,,,,,,,,,,,,,,,,,51,,,,,,,,,,,,,,364.8450000238372,,response,,,,13,G,,,,,,Space,keypress(Space),,,,instrumental,,,,-------- -------- --- --- ---- --- --- ------ -- --------<br>---- reforming --- ------- ------------ ---------- ---------<br>--- ---------- ------- ---------- ------- -- -------- ----<br>---- --- ------ ----- ------ -- ---- --- ----- -- - -------<br>-------- -- --- --- -- ----- ----------- ----- -----------<br>---- --- ---------- --- ---- --- -- ----------,260930.29999995232,260925.10000002384,260543.589,260552.60000002384,260560.255,260943.573,,11,reforming
screen,html.Screen,2_3_1_0_1_12,2022-05-02T11:48:07.486Z,,,,,,,,,,,,,,,,,51,,,,,,,,,,,,,,338.3269999761542,,response,,,,13,G,,,,,,Space,keypress(Space),,,,instrumental,,,,-------- -------- --- --- ---- --- --- ------ -- --------<br>---- --------- the ------- ------------ ---------- ---------<br>--- ---------- ------- ---------- ------- -- -------- ----<br>---- --- ------ ----- ------ -- ---- --- ----- -- - -------<br>-------- -- --- --- -- ----- ----------- ----- -----------<br>---- --- ---------- --- ---- --- -- ----------,261287.29999995232,261281.89999997616,260926.907,260930.5,260943.573,261293.559,,12,the
screen,html.Screen,2_3_1_0_1_13,2022-05-02T11:48:08.016Z,,,,,,,,,,,,,,,,,51,,,,,,,,,,,,,,517.2409999523079,,response,,,,13,G,,,,,,Space,keypress(Space),,,,instrumental,,,,-------- -------- --- --- ---- --- --- ------ -- --------<br>---- --------- --- federal ------------ ---------- ---------<br>--- ---------- ------- ---------- ------- -- -------- ----<br>---- --- ------ ----- ------ -- ---- --- ----- -- - -------<br>-------- -- --- --- -- ----- ----------- ----- -----------<br>---- --- ---------- --- ---- --- -- ----------,261816.29999995232,261810.79999995232,261276.893,261287.5,261293.559,261826.871,,13,federal
screen,html.Screen,2_3_1_0_1_14,2022-05-02T11:48:08.465Z,,,,,,,,,,,,,,,,,51,,,,,,,,,,,,,,433.92899995230255,,response,,,,13,G,,,,,,Space,keypress(Space),,,,instrumental,,,,-------- -------- --- --- ---- --- --- ------ -- --------<br>---- --------- --- ------- government's ---------- ---------<br>--- ---------- ------- ---------- ------- -- -------- ----<br>---- --- ------ ----- ------ -- ---- --- ----- -- - -------<br>-------- -- --- --- -- ----- ----------- ----- -----------<br>---- --- ---------- --- ---- --- -- ----------,262266.1999999285,262260.7999999523,261810.205,261816.5,261826.871,262276.853,,14,government's
screen,html.Screen,2_3_1_0_1_15,2022-05-02T11:48:08.934Z,,,,,,,,,,,,,,,,,51,,,,,,,,,,,,,,453.34699992847163,,response,,,,13,G,,,,,,Space,keypress(Space),,,,instrumental,,,,-------- -------- --- --- ---- --- --- ------ -- --------<br>---- --------- --- ------- ------------ regulatory ---------<br>--- ---------- ------- ---------- ------- -- -------- ----<br>---- --- ------ ----- ------ -- ---- --- ----- -- - -------<br>-------- -- --- --- -- ----- ----------- ----- -----------<br>---- --- ---------- --- ---- --- -- ----------,262734.5,262730.1999999285,262260.187,262266.5,262276.853,262743.501,,15,regulatory
screen,html.Screen,2_3_1_0_1_16,2022-05-02T11:48:09.504Z,,,,,,,,,,,,,,,,,51,,,,,,,,,,,,,,556.1989999284851,,response,,,,13,G,,,,,,Space,keypress(Space),,,,instrumental,,,,-------- -------- --- --- ---- --- --- ------ -- --------<br>---- --------- --- ------- ------------ ---------- apparatus<br>--- ---------- ------- ---------- ------- -- -------- ----<br>---- --- ------ ----- ------ -- ---- --- ----- -- - -------<br>-------- -- --- --- -- ----- ----------- ----- -----------<br>---- --- ---------- --- ---- --- -- ----------,263305.10000002384,263299.6999999285,262726.835,262734.6999999285,262743.501,263310.145,,16,apparatus
screen,html.Screen,2_3_1_0_1_17,2022-05-02T11:48:09.919Z,,,,,,,,,,,,,,,,,51,,,,,,,,,,,,,,403.8549999999814,,response,,,,13,G,,,,,,Space,keypress(Space),,,,instrumental,,,,-------- -------- --- --- ---- --- --- ------ -- --------<br>---- --------- --- ------- ------------ ---------- ---------<br>may ---------- ------- ---------- ------- -- -------- ----<br>---- --- ------ ----- ------ -- ---- --- ----- -- - -------<br>-------- -- --- --- -- ----- ----------- ----- -----------<br>---- --- ---------- --- ---- --- -- ----------,263720.10000002384,263714,263293.479,263305.2999999523,263310.145,263726.795,,17,may
screen,html.Screen,2_3_1_0_1_18,2022-05-02T11:48:10.497Z,,,,,,,,,,,,,,,,,51,,,,,,,,,,,,,,566.1049999761744,,response,,,,13,G,,,,,,Space,keypress(Space),,,,instrumental,,,,-------- -------- --- --- ---- --- --- ------ -- --------<br>---- --------- --- ------- ------------ ---------- ---------<br>--- profoundly ------- ---------- ------- -- -------- ----<br>---- --- ------ ----- ------ -- ---- --- ----- -- - -------<br>-------- -- --- --- -- ----- ----------- ----- -----------<br>---- --- ---------- --- ---- --- -- ----------,264297.7999999523,264292.89999997616,263710.129,263720.39999997616,263726.795,264310.71,,18,profoundly
screen,html.Screen,2_3_1_0_1_19,2022-05-02T11:48:10.930Z,,,,,,,,,,,,,,,,,51,,,,,,,,,,,,,,414.98999992845347,,response,,,,13,G,,,,,,Space,keypress(Space),,,,instrumental,,,,-------- -------- --- --- ---- --- --- ------ -- --------<br>---- --------- --- ------- ------------ ---------- ---------<br>--- ---------- improve ---------- ------- -- -------- ----<br>---- --- ------ ----- ------ -- ---- --- ----- -- - -------<br>-------- -- --- --- -- ----- ----------- ----- -----------<br>---- --- ---------- --- ---- --- -- ----------,264731,264725.6999999285,264294.044,264298,264310.71,264744.026,,19,improve
screen,html.Screen,2_3_1_0_1_20,2022-05-02T11:48:11.383Z,,,,,,,,,,,,,,,,,51,,,,,,,,,,,,,,434.5740000238293,,response,,,,13,G,,,,,,Space,keypress(Space),,,,instrumental,,,,-------- -------- --- --- ---- --- --- ------ -- --------<br>---- --------- --- ------- ------------ ---------- ---------<br>--- ---------- ------- companies' ------- -- -------- ----<br>---- --- ------ ----- ------ -- ---- --- ----- -- - -------<br>-------- -- --- --- -- ----- ----------- ----- -----------<br>---- --- ---------- --- ---- --- -- ----------,265184.1999999285,265178.60000002384,264727.36,264731.1999999285,264744.026,265194.008,,20,companies'
screen,html.Screen,2_3_1_0_1_21,2022-05-02T11:48:11.792Z,,,,,,,,,,,,,,,,,51,,,,,,,,,,,,,,393.79199995234376,,response,,,,13,G,,,,,,Space,keypress(Space),,,,instrumental,,,,-------- -------- --- --- ---- --- --- ------ -- --------<br>---- --------- --- ------- ------------ ---------- ---------<br>--- ---------- ------- ---------- ability -- -------- ----<br>---- --- ------ ----- ------ -- ---- --- ----- -- - -------<br>-------- -- --- --- -- ----- ----------- ----- -----------<br>---- --- ---------- --- ---- --- -- ----------,265593.39999997616,265587.7999999523,265177.342,265184.39999997616,265194.008,265610.658,,21,ability
screen,html.Screen,2_3_1_0_1_22,2022-05-02T11:48:12.107Z,,,,,,,,,,,,,,,,,51,,,,,,,,,,,,,,292.44200002384605,,response,,,,13,G,,,,,,Space,keypress(Space),,,,instrumental,,,,-------- -------- --- --- ---- --- --- ------ -- --------<br>---- --------- --- ------- ------------ ---------- ---------<br>--- ---------- ------- ---------- ------- to -------- ----<br>---- --- ------ ----- ------ -- ---- --- ----- -- - -------<br>-------- -- --- --- -- ----- ----------- ----- -----------<br>---- --- ---------- --- ---- --- -- ----------,265907.7999999523,265903.10000002384,265593.992,265593.6999999285,265610.658,265910.646,,22,to
screen,html.Screen,2_3_1_0_1_23,2022-05-02T11:48:12.536Z,,,,,,,,,,,,,,,,,51,,,,,,,,,,,,,,421.15399995230837,,response,,,,13,G,,,,,,Space,keypress(Space),,,,instrumental,,,,-------- -------- --- --- ---- --- --- ------ -- --------<br>---- --------- --- ------- ------------ ---------- ---------<br>--- ---------- ------- ---------- ------- -- survive. ----<br>---- --- ------ ----- ------ -- ---- --- ----- -- - -------<br>-------- -- --- --- -- ----- ----------- ----- -----------<br>---- --- ---------- --- ---- --- -- ----------,266336.6999999285,266331.7999999523,265893.98,265908.10000002384,265910.646,266343.962,,23,survive.
screen,html.Screen,2_3_1_0_1_24,2022-05-02T11:48:12.982Z,,,,,,,,,,,,,,,,,51,,,,,,,,,,,,,,435.7379999284749,,response,,,,13,G,,,,,,Space,keypress(Space),,,,instrumental,,,,-------- -------- --- --- ---- --- --- ------ -- --------<br>---- --------- --- ------- ------------ ---------- ---------<br>--- ---------- ------- ---------- ------- -- -------- This<br>---- --- ------ ----- ------ -- ---- --- ----- -- - -------<br>-------- -- --- --- -- ----- ----------- ----- -----------<br>---- --- ---------- --- ---- --- -- ----------,266783.2999999523,266779.6999999285,266327.296,266336.89999997616,266343.962,266793.944,,24,This
screen,html.Screen,2_3_1_0_1_25,2022-05-02T11:48:13.243Z,,,,,,,,,,,,,,,,,51,,,,,,,,,,,,,,245.3559999522986,,response,,,,13,G,,,,,,Space,keypress(Space),,,,instrumental,,,,-------- -------- --- --- ---- --- --- ------ -- --------<br>---- --------- --- ------- ------------ ---------- ---------<br>--- ---------- ------- ---------- ------- -- -------- ----<br>week --- ------ ----- ------ -- ---- --- ----- -- - -------<br>-------- -- --- --- -- ----- ----------- ----- -----------<br>---- --- ---------- --- ---- --- -- ----------,267043.7999999523,267039.2999999523,266777.278,266783.2999999523,266793.944,267060.6,,25,week
screen,html.Screen,2_3_1_0_1_26,2022-05-02T11:48:13.602Z,,,,,,,,,,,,,,,,,51,,,,,,,,,,,,,,337.0999999284977,,response,,,,13,G,,,,,,Space,keypress(Space),,,,instrumental,,,,-------- -------- --- --- ---- --- --- ------ -- --------<br>---- --------- --- ------- ------------ ---------- ---------<br>--- ---------- ------- ---------- ------- -- -------- ----<br>---- the ------ ----- ------ -- ---- --- ----- -- - -------<br>-------- -- --- --- -- ----- ----------- ----- -----------<br>---- --- ---------- --- ---- --- -- ----------,267403,267397.6999999285,267043.934,267044,267060.6,267410.586,,26,the
screen,html.Screen,2_3_1_0_1_27,2022-05-02T11:48:13.954Z,,,,,,,,,,,,,,,,,51,,,,,,,,,,,,,,339.41399999998976,,response,,,,13,G,,,,,,Space,keypress(Space),,,,instrumental,,,,-------- -------- --- --- ---- --- --- ------ -- --------<br>---- --------- --- ------- ------------ ---------- ---------<br>--- ---------- ------- ---------- ------- -- -------- ----<br>---- --- Senate ----- ------ -- ---- --- ----- -- - -------<br>-------- -- --- --- -- ----- ----------- ----- -----------<br>---- --- ---------- --- ---- --- -- ----------,267755.39999997616,267750,267393.92,267403.1999999285,267410.586,267760.572,,27,Senate
screen,html.Screen,2_3_1_0_1_28,2022-05-02T11:48:14.277Z,,,,,,,,,,,,,,,,,51,,,,,,,,,,,,,,311.5280000238563,,response,,,,13,G,,,,,,Space,keypress(Space),,,,instrumental,,,,-------- -------- --- --- ---- --- --- ------ -- --------<br>---- --------- --- ------- ------------ ---------- ---------<br>--- ---------- ------- ---------- ------- -- -------- ----<br>---- --- ------ seems ------ -- ---- --- ----- -- - -------<br>-------- -- --- --- -- ----- ----------- ----- -----------<br>---- --- ---------- --- ---- --- -- ----------,268077.5,268072.10000002384,267743.906,267755.60000002384,267760.572,268093.892,,28,seems
screen,html.Screen,2_3_1_0_1_29,2022-05-02T11:48:14.677Z,,,,,,,,,,,,,,,,,51,,,,,,,,,,,,,,378.10800000000745,,response,,,,13,G,,,,,,Space,keypress(Space),,,,instrumental,,,,-------- -------- --- --- ---- --- --- ------ -- --------<br>---- --------- --- ------- ------------ ---------- ---------<br>--- ---------- ------- ---------- ------- -- -------- ----<br>---- --- ------ ----- poised -- ---- --- ----- -- - -------<br>-------- -- --- --- -- ----- ----------- ----- -----------<br>---- --- ---------- --- ---- --- -- ----------,268477.5,268472,268077.226,268077.89999997616,268093.892,268493.876,,29,poised
screen,html.Screen,2_3_1_0_1_30,2022-05-02T11:48:15.285Z,,,,,,,,,,,,,,,,,51,,,,,,,,,,,,,,586.8239999284851,,response,,,,13,G,,,,,,Space,keypress(Space),,,,instrumental,,,,-------- -------- --- --- ---- --- --- ------ -- --------<br>---- --------- --- ------- ------------ ---------- ---------<br>--- ---------- ------- ---------- ------- -- -------- ----<br>---- --- ------ ----- ------ to ---- --- ----- -- - -------<br>-------- -- --- --- -- ----- ----------- ----- -----------<br>---- --- ---------- --- ---- --- -- ----------,269086.39999997616,269080.6999999285,268477.21,268477.7999999523,268493.876,269093.852,,30,to
screen,html.Screen,2_3_1_0_1_31,2022-05-02T11:48:15.693Z,,,,,,,,,,,,,,,,,51,,,,,,,,,,,,,,395.04799997614464,,response,,,,13,G,,,,,,Space,keypress(Space),,,,instrumental,,,,-------- -------- --- --- ---- --- --- ------ -- --------<br>---- --------- --- ------- ------------ ---------- ---------<br>--- ---------- ------- ---------- ------- -- -------- ----<br>---- --- ------ ----- ------ -- join --- ----- -- - -------<br>-------- -- --- --- -- ----- ----------- ----- -----------<br>---- --- ---------- --- ---- --- -- ----------,269494.1999999285,269488.89999997616,269077.186,269086.6999999285,269093.852,269510.502,,31,join
screen,html.Screen,2_3_1_0_1_32,2022-05-02T11:48:16.034Z,,,,,,,,,,,,,,,,,51,,,,,,,,,,,,,,319.39799997617956,,response,,,,13,G,,,,,,Space,keypress(Space),,,,instrumental,,,,-------- -------- --- --- ---- --- --- ------ -- --------<br>---- --------- --- ------- ------------ ---------- ---------<br>--- ---------- ------- ---------- ------- -- -------- ----<br>---- --- ------ ----- ------ -- ---- the ----- -- - -------<br>-------- -- --- --- -- ----- ----------- ----- -----------<br>---- --- ---------- --- ---- --- -- ----------,269835.2999999523,269829.89999997616,269493.836,269494.2999999523,269510.502,269843.822,,32,the
screen,html.Screen,2_3_1_0_1_33,2022-05-02T11:48:16.390Z,,,,,,,,,,,,,,,,,51,,,,,,,,,,,,,,342.0779999761726,,response,,,,13,G,,,,,,Space,keypress(Space),,,,instrumental,,,,-------- -------- --- --- ---- --- --- ------ -- --------<br>---- --------- --- ------- ------------ ---------- ---------<br>--- ---------- ------- ---------- ------- -- -------- ----<br>---- --- ------ ----- ------ -- ---- --- House -- - -------<br>-------- -- --- --- -- ----- ----------- ----- -----------<br>---- --- ---------- --- ---- --- -- ----------,270191.10000002384,270185.89999997616,269827.156,269835.60000002384,269843.822,270193.808,,33,House
screen,html.Screen,2_3_1_0_1_34,2022-05-02T11:48:16.683Z,,,,,,,,,,,,,,,,,51,,,,,,,,,,,,,,284.59199997613905,,response,,,,13,G,,,,,,Space,keypress(Space),,,,instrumental,,,,-------- -------- --- --- ---- --- --- ------ -- --------<br>---- --------- --- ------- ------------ ---------- ---------<br>--- ---------- ------- ---------- ------- -- -------- ----<br>---- --- ------ ----- ------ -- ---- --- ----- in - -------<br>-------- -- --- --- -- ----- ----------- ----- -----------<br>---- --- ---------- --- ---- --- -- ----------,270484,270478.39999997616,270177.142,270191.2999999523,270193.808,270493.796,,34,in
screen,html.Screen,2_3_1_0_1_35,2022-05-02T11:48:16.977Z,,,,,,,,,,,,,,,,,51,,,,,,,,,,,,,,279.10399997618515,,response,,,,13,G,,,,,,Space,keypress(Space),,,,instrumental,,,,-------- -------- --- --- ---- --- --- ------ -- --------<br>---- --------- --- ------- ------------ ---------- ---------<br>--- ---------- ------- ---------- ------- -- -------- ----<br>---- --- ------ ----- ------ -- ---- --- ----- -- a -------<br>-------- -- --- --- -- ----- ----------- ----- -----------<br>---- --- ---------- --- ---- --- -- ----------,270778.1999999285,270772.89999997616,270477.13,270484.2999999523,270493.796,270793.784,,35,a
screen,html.Screen,2_3_1_0_1_36,2022-05-02T11:48:17.344Z,,,,,,,,,,,,,,,,,51,,,,,,,,,,,,,,346.11599997617304,,response,,,,13,G,,,,,,Space,keypress(Space),,,,instrumental,,,,-------- -------- --- --- ---- --- --- ------ -- --------<br>---- --------- --- ------- ------------ ---------- ---------<br>--- ---------- ------- ---------- ------- -- -------- ----<br>---- --- ------ ----- ------ -- ---- --- ----- -- - massive<br>-------- -- --- --- -- ----- ----------- ----- -----------<br>---- --- ---------- --- ---- --- -- ----------,271145.10000002384,271139.89999997616,270777.118,270778.39999997616,270793.784,271160.436,,36,massive
screen,html.Screen,2_3_1_0_1_37,2022-05-02T11:48:17.626Z,,,,,,,,,,,,,,,,,51,,,,,,,,,,,,,,261.26399992848746,,response,,,,13,G,,,,,,Space,keypress(Space),,,,instrumental,,,,-------- -------- --- --- ---- --- --- ------ -- --------<br>---- --------- --- ------- ------------ ---------- ---------<br>--- ---------- ------- ---------- ------- -- -------- ----<br>---- --- ------ ----- ------ -- ---- --- ----- -- - -------<br>overhaul -- --- --- -- ----- ----------- ----- -----------<br>---- --- ---------- --- ---- --- -- ----------,271426.89999997616,271421.6999999285,271143.77,271145.5,271160.436,271443.758,,37,overhaul
screen,html.Screen,2_3_1_0_1_38,2022-05-02T11:48:17.987Z,,,,,,,,,,,,,,,,,51,,,,,,,,,,,,,,339.2420000000275,,response,,,,13,G,,,,,,Space,keypress(Space),,,,instrumental,,,,-------- -------- --- --- ---- --- --- ------ -- --------<br>---- --------- --- ------- ------------ ---------- ---------<br>--- ---------- ------- ---------- ------- -- -------- ----<br>---- --- ------ ----- ------ -- ---- --- ----- -- - -------<br>-------- of --- --- -- ----- ----------- ----- -----------<br>---- --- ---------- --- ---- --- -- ----------,271788.39999997616,271783,271427.092,271427.1999999285,271443.758,271793.744,,38,of
