sender,sender_type,sender_id,timestamp,meta,,Blues,Classical,Country,Dance,Electronic,Folk,Gospel,Hip-Hop,Jazz,Latin,Musical/Film,New-age,Pop,Prolific_id,Provo_ID,R&B,Rap,Reggae,Religious,Rock,Soul,Swing,Traditional,age,artist_name,correct,correctResponse,distraction,duration,education,ended_on,familiarity,gender,headphone_check_performance,item,list,music_frequency,offensiveness,pleasantness,position_correct,preference,response,response_action,snippet_file,song_name,song_rating,sound,stimulus_1,stimulus_2,stimulus_3,text,time_commit,time_end,time_render,time_run,time_show,time_switch,url,word,word_ID
Prolific ID,html.Form,0,2022-05-12T22:34:38.692Z,"{""labjs_version"":""20.2.2"",""labjs_build"":{""flavor"":""production"",""commit"":""a25486e0c714a0ae2ce03ff94b7bb6896854dcfa""},""location"":""https://run.pavlovia.org/mvasilev/prolific3_music_h/"",""userAgent"":""Mozilla/5.0 (Windows NT 10.0; Win64; x64) AppleWebKit/537.36 (KHTML, like Gecko) Chrome/101.0.4951.54 Safari/537.36"",""platform"":""Win32"",""language"":""en-US"",""locale"":""en-GB"",""timeZone"":""Europe/London"",""timezoneOffset"":-60,""screen_width"":1280,""screen_height"":720,""scroll_width"":1280,""scroll_height"":561,""window_innerWidth"":1280,""window_innerHeight"":609,""devicePixelRatio"":1.5}",,,,,,,,,,,,,,,56d7623f04c67d000c7b9de6,,,,,,,,,,,,,,,16114.484999904631,,form submission,,,,,,,,,,,,,,,,,,,,,33086,33085.09999990463,16926.763,16928.39999961853,16970.615,33107.216,{},,
Introduction,html.Screen,1_0,2022-05-12T22:34:42.038Z,,,,,,,,,,,,,,,,,,,,,,,,,,,,,,,3321.18399961853,,response,,,,,,,,,,,continue,click button,,,,,,,,,36431.89999961853,36428.39999961853,33040.165,33086.7999997139,33107.216,36432.124,,,
Volume calibration,html.Screen,1_1,2022-05-12T22:35:20.501Z,,,,,,,,,,,,,,,,,,,,,,,,,,,,,,,38452.175999713894,,response,,,,,,,,,,,continue,click button,,,,,,,,,74888,74884.2999997139,36416.337,36432.39999961853,36432.124,74894.525,,,
Task instructions,html.Screen,1_2,2022-05-12T22:35:28.073Z,,,,,,,,,,,,,,,,,,,,,,,,,,,,,,,7565.174999809271,,response,,,,,,,,,,,continue,click button,,,,,,,,,82460.39999961853,82459.69999980927,74877.839,74888.19999980927,74894.525,82463.552,,,
Sounds,html.Screen,1_3_0_0,2022-05-12T22:35:32.318Z,,,,,,,,,,,,,,,,,,,,,,,,,,,,,,,4255.937000000005,,timeout,,,,,,,,,1,,,,,,,,S,O,I,,86705.5,86703.048,82446.945,82460.59999990463,82463.552,86719.489,,,
Judgement,html.Screen,1_3_0_1,2022-05-12T22:35:34.406Z,,,,,,,,,,,,,,,,,,,,,,,,,,,,true,1,,2072.3109997138963,,response,,,,,,,,,1,,1,click #choice-1,,,,,S,O,I,,88792.89999961853,88791.7999997139,86703.048,86705.5,86719.489,88806.248,,,
Trial,flow.Sequence,1_3_0,2022-05-12T22:35:34.406Z,,,,,,,,,,,,,,,,,,,,,,,,,,,,,,,6328.247999713902,,completion,,,,,,,,,1,,,,,,,,S,O,I,,88793.09999990463,88791.7999997139,82446.945,82460.5,82463.552,88806.248,,,
Sounds,html.Screen,1_3_1_0,2022-05-12T22:35:38.657Z,,,,,,,,,,,,,,,,,,,,,,,,,,,,,,,4253.997999999992,,timeout,,,,,,,,,3,,,,,,,,O,I,S,,93044.59999990463,93043.709,88789.574,88793.2999997139,88806.248,93060.246,,,
Judgement,html.Screen,1_3_1_1,2022-05-12T22:35:39.742Z,,,,,,,,,,,,,,,,,,,,,,,,,,,,true,3,,1066.0539997138985,,response,,,,,,,,,3,,3,click #choice-3,,,,,O,I,S,,94129.39999961853,94126.2999997139,93043.709,93044.7999997139,93060.246,94129.919,,,
Trial,flow.Sequence,1_3_1,2022-05-12T22:35:39.742Z,,,,,,,,,,,,,,,,,,,,,,,,,,,,,,,5320.051999713891,,completion,,,,,,,,,3,,,,,,,,O,I,S,,94129.7999997139,94126.2999997139,88789.574,88793.2999997139,88806.248,94129.919,,,
Sounds,html.Screen,1_3_2_0,2022-05-12T22:35:43.977Z,,,,,,,,,,,,,,,,,,,,,,,,,,,,,,,4250.22600000001,,timeout,,,,,,,,,2,,,,,,,,O,S,I,,98364.39999961853,98363.591,94110.361,94130.2999997139,94129.919,98380.145,,,
Judgement,html.Screen,1_3_2_1,2022-05-12T22:35:44.992Z,,,,,,,,,,,,,,,,,,,,,,,,,,,,true,2,,996.6549997138936,,response,,,,,,,,,2,,2,click #choice-2,,,,,O,S,I,,99379.59999990463,99376.7999997139,98363.591,98364.5,98380.145,99379.944,,,
Trial,flow.Sequence,1_3_2,2022-05-12T22:35:44.993Z,,,,,,,,,,,,,,,,,,,,,,,,,,,,,,,5246.880999713903,,completion,,,,,,,,,2,,,,,,,,O,S,I,,99380,99376.7999997139,94110.361,94130,94129.919,99379.944,,,
Sounds,html.Screen,1_3_3_0,2022-05-12T22:35:49.220Z,,,,,,,,,,,,,,,,,,,,,,,,,,,,,,,4243.394,,timeout,,,,,,,,,1,,,,,,,,S,I,O,,103607.2999997139,103606.671,99363.516,99380.89999961853,99379.944,103623.338,,,
Judgement,html.Screen,1_3_3_1,2022-05-12T22:35:50.213Z,,,,,,,,,,,,,,,,,,,,,,,,,,,,true,1,,974.1619999999966,,response,,,,,,,,,1,,1,click #choice-1,,,,,S,I,O,,104600.2999997139,104597.5,103606.671,103607.39999961853,103623.338,104600.359,,,
Trial,flow.Sequence,1_3_3,2022-05-12T22:35:50.214Z,,,,,,,,,,,,,,,,,,,,,,,,,,,,,,,5217.555999999997,,completion,,,,,,,,,1,,,,,,,,S,I,O,,104601,104597.5,99363.516,99380.69999980927,99379.944,104600.359,,,
Sounds,html.Screen,1_3_4_0,2022-05-12T22:35:54.455Z,,,,,,,,,,,,,,,,,,,,,,,,,,,,,,,4257.622000000003,,timeout,,,,,,,,,3,,,,,,,,I,O,S,,108842.19999980927,108841.345,104589.979,104601.5,104600.359,108857.981,,,
Judgement,html.Screen,1_3_4_1,2022-05-12T22:35:55.332Z,,,,,,,,,,,,,,,,,,,,,,,,,,,,true,3,,858.2189998092654,,response,,,,,,,,,3,,3,click #choice-3,,,,,I,O,S,,109719.2999997139,109716.19999980927,108841.345,108842.19999980927,108857.981,109720.165,,,
Trial,flow.Sequence,1_3_4,2022-05-12T22:35:55.332Z,,,,,,,,,,,,,,,,,,,,,,,,,,,,,,,5115.840999809268,,completion,,,,,,,,,3,,,,,,,,I,O,S,,109719.5,109716.19999980927,104589.979,104601.2999997139,104600.359,109720.165,,,
Sounds,html.Screen,1_3_5_0,2022-05-12T22:35:59.560Z,,,,,,,,,,,,,,,,,,,,,,,,,,,,,,,4243.150000000009,,timeout,,,,,,,,,2,,,,,,,,I,S,O,,113947.2999997139,113946.677,109707.871,109720,109720.165,113963.315,,,
Judgement,html.Screen,1_3_5_1,2022-05-12T22:36:00.402Z,,,,,,,,,,,,,,,,,,,,,,,,,,,,true,2,,823.1849999999977,,response,,,,,,,,,2,,2,click #choice-2,,,,,I,S,O,,114789.59999990463,114786.5,113946.677,113947.39999961853,113963.315,114806.623,,,
Trial,flow.Sequence,1_3_5,2022-05-12T22:36:00.403Z,,,,,,,,,,,,,,,,,,,,,,,,,,,,,,,5066.335000000006,,completion,,,,,,,,,2,,,,,,,,I,S,O,,114790,114786.5,109707.871,109719.89999961853,109720.165,114806.623,,,
Task,flow.Loop,1_3,2022-05-12T22:36:00.412Z,,,,,,,,,,,,,,,,,,,,,,,,,,,,,,,32322.948000000004,,completion,,,1,,,,,,,,,,,,,,,,,,114799.59999990463,114786.5,82446.945,82460.5,82463.552,114806.623,,,
Trap,html.Screen,1_4,2022-05-12T22:36:00.415Z,,,,,,,,,,,,,,,,,,,,,,,,,,,,,,,NaN,,skipped,,,,,,,,,,,,,,,,,,,,,114801.89999961853,114786.5,,114801.5,,114806.623,,,
Thanks,html.Screen,1_5,2022-05-12T22:36:03.112Z,,,,,,,,,,,,,,,,,,,,,,,,,,,,,,,2689.876999999993,,response,,,,,,,,,,,continue,click button,,,,,,,,,117499.19999980927,117496.5,114779.858,114802.09999990463,114806.623,119900.221,,,
Headphone screening,flow.Sequence,1,2022-05-12T22:36:03.112Z,,,,,,,,,,,,,,,,,,,,,,,,,,,,,,,84389.284,,completion,,,,,,,,,,,,,,,,,,,,,117499.59999990463,117496.5,33040.165,33086.59999990463,33107.216,119900.221,,,
Instructions,html.Page,2_0,2022-05-12T22:36:13.513Z,,,,,,,,,,,,,,,,,,,,,,,,,,,,,,,7998.47899980926,,form submission,,,,,,,,,,,,,,,,,,,,,127899.19999980927,127898.69999980927,119883.568,119889.5,119900.221,127911.546,,,
Holding screen,html.Screen,2_1_0_0,2022-05-12T22:36:23.515Z,,,,,,,,,,,,,,,,,,,,,,,,,,,,,,,10005.560999999987,,timeout,,,,,,,,,,,,,,,,,,,,,137901.69999980927,137900.505,127894.982,127899.7999997139,127911.546,137917.107,,,
screen,html.Screen,2_1_0_1_0,2022-05-12T22:36:24.872Z,,,,,,,,,,,,,,,,,53,,,,,,,,,,,,,,1338.6929997139086,,response,,,,99,,,,,,,Space,keypress(Space),,,,,,,,When -- ----- -- ------ - ------- --- ----------<br>------------- ------ ------ ---- ---- ------- ----- -- ----<br>-------- ------- -- ---------- --- - --- ----- ----- ----<br>---- --- --- ----- --- ---- ---- ------- ----- ---- -------<br>--- --- -- ----- -- --- ---- -- --- ---- -- ------ ------<br>--- ----- -- ----,139258.39999961853,139255.7999997139,137900.505,137901.89999961853,137917.107,139261.478,,0,When
screen,html.Screen,2_1_0_1_1,2022-05-12T22:36:25.301Z,,,,,,,,,,,,,,,,,53,,,,,,,,,,,,,,424.8219997138949,,response,,,,99,,,,,,,Space,keypress(Space),,,,,,,,---- it ----- -- ------ - ------- --- ----------<br>------------- ------ ------ ---- ---- ------- ----- -- ----<br>-------- ------- -- ---------- --- - --- ----- ----- ----<br>---- --- --- ----- --- ---- ---- ------- ----- ---- -------<br>--- --- -- ----- -- --- ---- -- --- ---- -- ------ ------<br>--- ----- -- ----,139686.89999961853,139686.2999997139,139250.507,139258.5,139261.478,139692.821,,1,it
screen,html.Screen,2_1_0_1_2,2022-05-12T22:36:25.699Z,,,,,,,,,,,,,,,,,53,,,,,,,,,,,,,,391.37899980926886,,response,,,,99,,,,,,,Space,keypress(Space),,,,,,,,---- -- comes -- ------ - ------- --- ----------<br>------------- ------ ------ ---- ---- ------- ----- -- ----<br>-------- ------- -- ---------- --- - --- ----- ----- ----<br>---- --- --- ----- --- ---- ---- ------- ----- ---- -------<br>--- --- -- ----- -- --- ---- -- --- ---- -- ------ ------<br>--- ----- -- ----,140085.09999990463,140084.19999980927,139678.197,139687,139692.821,140091.134,,2,comes
screen,html.Screen,2_1_0_1_3,2022-05-12T22:36:26.003Z,,,,,,,,,,,,,,,,,53,,,,,,,,,,,,,,297.6659997139068,,response,,,,99,,,,,,,Space,keypress(Space),,,,,,,,---- -- ----- to ------ - ------- --- ----------<br>------------- ------ ------ ---- ---- ------- ----- -- ----<br>-------- ------- -- ---------- --- - --- ----- ----- ----<br>---- --- --- ----- --- ---- ---- ------- ----- ---- -------<br>--- --- -- ----- -- --- ---- -- --- ---- -- ------ ------<br>--- ----- -- ----,140389.5,140388.7999997139,140076.277,140085.19999980927,140091.134,140395.407,,3,to
screen,html.Screen,2_1_0_1_4,2022-05-12T22:36:26.418Z,,,,,,,,,,,,,,,,,53,,,,,,,,,,,,,,408.7929998092586,,response,,,,99,,,,,,,Space,keypress(Space),,,,,,,,---- -- ----- -- having - ------- --- ----------<br>------------- ------ ------ ---- ---- ------- ----- -- ----<br>-------- ------- -- ---------- --- - --- ----- ----- ----<br>---- --- --- ----- --- ---- ---- ------- ----- ---- -------<br>--- --- -- ----- -- --- ---- -- --- ---- -- ------ ------<br>--- ----- -- ----,140804.7999997139,140804.19999980927,140374.402,140389.59999990463,140395.407,140810.85,,4,having
screen,html.Screen,2_1_0_1_5,2022-05-12T22:36:26.776Z,,,,,,,,,,,,,,,,,53,,,,,,,,,,,,,,351.4499997138919,,response,,,,99,,,,,,,Space,keypress(Space),,,,,,,,---- -- ----- -- ------ a ------- --- ----------<br>------------- ------ ------ ---- ---- ------- ----- -- ----<br>-------- ------- -- ---------- --- - --- ----- ----- ----<br>---- --- --- ----- --- ---- ---- ------- ----- ---- -------<br>--- --- -- ----- -- --- ---- -- --- ---- -- ------ ------<br>--- ----- -- ----,141162.7999997139,141162.2999997139,140795.514,140804.7999997139,140810.85,141168.863,,5,a
screen,html.Screen,2_1_0_1_6,2022-05-12T22:36:27.262Z,,,,,,,,,,,,,,,,,53,,,,,,,,,,,,,,479.33699980925303,,response,,,,99,,,,,,,Space,keypress(Space),,,,,,,,---- -- ----- -- ------ - lasting --- ----------<br>------------- ------ ------ ---- ---- ------- ----- -- ----<br>-------- ------- -- ---------- --- - --- ----- ----- ----<br>---- --- --- ----- --- ---- ---- ------- ----- ---- -------<br>--- --- -- ----- -- --- ---- -- --- ---- -- ------ ------<br>--- ----- -- ----,141648.7999997139,141648.19999980927,141160.817,141162.89999961853,141168.863,141654.687,,6,lasting
screen,html.Screen,2_1_0_1_7,2022-05-12T22:36:27.996Z,,,,,,,,,,,,,,,,,53,,,,,,,,,,,,,,726.5129998092598,,response,,,,99,,,,,,,Space,keypress(Space),,,,,,,,---- -- ----- -- ------ - ------- and ----------<br>------------- ------ ------ ---- ---- ------- ----- -- ----<br>-------- ------- -- ---------- --- - --- ----- ----- ----<br>---- --- --- ----- --- ---- ---- ------- ----- ---- -------<br>--- --- -- ----- -- --- ---- -- --- ---- -- ------ ------<br>--- ----- -- ----,142381.89999961853,142381.19999980927,141635.517,141648.89999961853,141654.687,142387.784,,7,and
screen,html.Screen,2_1_0_1_8,2022-05-12T22:36:28.382Z,,,,,,,,,,,,,,,,,53,,,,,,,,,,,,,,379.41599980925093,,response,,,,99,,,,,,,Space,keypress(Space),,,,,,,,---- -- ----- -- ------ - ------- --- fulfilling<br>------------- ------ ------ ---- ---- ------- ----- -- ----<br>-------- ------- -- ---------- --- - --- ----- ----- ----<br>---- --- --- ----- --- ---- ---- ------- ----- ---- -------<br>--- --- -- ----- -- --- ---- -- --- ---- -- ------ ------<br>--- ----- -- ----,142767.89999961853,142767.19999980927,142371.286,142382,142387.784,142773.96,,8,fulfilling
screen,html.Screen,2_1_0_1_9,2022-05-12T22:36:29.718Z,,,,,,,,,,,,,,,,,53,,,,,,,,,,,,,,1329.1399999046407,,response,,,,99,,,,,,,Space,keypress(Space),,,,,,,,"---- -- ----- -- ------ - ------- --- ----------<br>relationship, ------ ------ ---- ---- ------- ----- -- ----<br>-------- ------- -- ---------- --- - --- ----- ----- ----<br>---- --- --- ----- --- ---- ---- ------- ----- ---- -------<br>--- --- -- ----- -- --- ---- -- --- ---- -- ------ ------<br>--- ----- -- ----",144104,144103.09999990463,142754.595,142768,142773.96,144109.971,,9,"relationship,"
screen,html.Screen,2_1_0_1_10,2022-05-12T22:36:30.387Z,,,,,,,,,,,,,,,,,53,,,,,,,,,,,,,,662.5290000000095,,response,,,,99,,,,,,,Space,keypress(Space),,,,,,,,---- -- ----- -- ------ - ------- --- ----------<br>------------- common ------ ---- ---- ------- ----- -- ----<br>-------- ------- -- ---------- --- - --- ----- ----- ----<br>---- --- --- ----- --- ---- ---- ------- ----- ---- -------<br>--- --- -- ----- -- --- ---- -- --- ---- -- ------ ------<br>--- ----- -- ----,144773.5,144772.5,144090.83,144104.09999990463,144109.971,144779.361,,10,common
screen,html.Screen,2_1_0_1_11,2022-05-12T22:36:30.761Z,,,,,,,,,,,,,,,,,53,,,,,,,,,,,,,,366.73899990462814,,response,,,,99,,,,,,,Space,keypress(Space),,,,,,,,---- -- ----- -- ------ - ------- --- ----------<br>------------- ------ wisdom ---- ---- ------- ----- -- ----<br>-------- ------- -- ---------- --- - --- ----- ----- ----<br>---- --- --- ----- --- ---- ---- ------- ----- ---- -------<br>--- --- -- ----- -- --- ---- -- --- ---- -- ------ ------<br>--- ----- -- ----,145147,145146.09999990463,144760.087,144773.5,144779.361,145153.319,,11,wisdom
screen,html.Screen,2_1_0_1_12,2022-05-12T22:36:31.227Z,,,,,,,,,,,,,,,,,53,,,,,,,,,,,,,,459.6810000000114,,response,,,,99,,,,,,,Space,keypress(Space),,,,,,,,---- -- ----- -- ------ - ------- --- ----------<br>------------- ------ ------ says ---- ------- ----- -- ----<br>-------- ------- -- ---------- --- - --- ----- ----- ----<br>---- --- --- ----- --- ---- ---- ------- ----- ---- -------<br>--- --- -- ----- -- --- ---- -- --- ---- -- ------ ------<br>--- ----- -- ----,145613.69999980927,145613,145146.143,145147.2999997139,145153.319,145619.732,,12,says
screen,html.Screen,2_1_0_1_13,2022-05-12T22:36:31.847Z,,,,,,,,,,,,,,,,,53,,,,,,,,,,,,,,613.1679996185412,,response,,,,99,,,,,,,Space,keypress(Space),,,,,,,,---- -- ----- -- ------ - ------- --- ----------<br>------------- ------ ------ ---- that ------- ----- -- ----<br>-------- ------- -- ---------- --- - --- ----- ----- ----<br>---- --- --- ----- --- ---- ---- ------- ----- ---- -------<br>--- --- -- ----- -- --- ---- -- --- ---- -- ------ ------<br>--- ----- -- ----,146233.69999980927,146232.89999961853,145603.09,145613.7999997139,145619.732,146239.82,,13,that
screen,html.Screen,2_1_0_1_14,2022-05-12T22:36:32.659Z,,,,,,,,,,,,,,,,,53,,,,,,,,,,,,,,804.8799998092582,,response,,,,99,,,,,,,Space,keypress(Space),,,,,,,,---- -- ----- -- ------ - ------- --- ----------<br>------------- ------ ------ ---- ---- feeling ----- -- ----<br>-------- ------- -- ---------- --- - --- ----- ----- ----<br>---- --- --- ----- --- ---- ---- ------- ----- ---- -------<br>--- --- -- ----- -- --- ---- -- --- ---- -- ------ ------<br>--- ----- -- ----,147045.5,147044.69999980927,146219.711,146233.7999997139,146239.82,147051.583,,14,feeling
screen,html.Screen,2_1_0_1_15,2022-05-12T22:36:33.097Z,,,,,,,,,,,,,,,,,53,,,,,,,,,,,,,,431.0169999046193,,response,,,,99,,,,,,,Space,keypress(Space),,,,,,,,---- -- ----- -- ------ - ------- --- ----------<br>------------- ------ ------ ---- ---- ------- close -- ----<br>-------- ------- -- ---------- --- - --- ----- ----- ----<br>---- --- --- ----- --- ---- ---- ------- ----- ---- -------<br>--- --- -- ----- -- --- ---- -- --- ---- -- ------ ------<br>--- ----- -- ----,147483.39999961853,147482.59999990463,147039.708,147045.59999990463,147051.583,147489.502,,15,close
screen,html.Screen,2_1_0_1_16,2022-05-12T22:36:33.443Z,,,,,,,,,,,,,,,,,53,,,,,,,,,,,,,,339.19799980925745,,response,,,,99,,,,,,,Space,keypress(Space),,,,,,,,---- -- ----- -- ------ - ------- --- ----------<br>------------- ------ ------ ---- ---- ------- ----- to ----<br>-------- ------- -- ---------- --- - --- ----- ----- ----<br>---- --- --- ----- --- ---- ---- ------- ----- ---- -------<br>--- --- -- ----- -- --- ---- -- --- ---- -- ------ ------<br>--- ----- -- ----,147829.69999980927,147828.69999980927,147468.205,147483.5,147489.502,147836.138,,16,to
screen,html.Screen,2_1_0_1_17,2022-05-12T22:36:33.786Z,,,,,,,,,,,,,,,,,53,,,,,,,,,,,,,,335.761999618524,,response,,,,99,,,,,,,Space,keypress(Space),,,,,,,,---- -- ----- -- ------ - ------- --- ----------<br>------------- ------ ------ ---- ---- ------- ----- -- your<br>-------- ------- -- ---------- --- - --- ----- ----- ----<br>---- --- --- ----- --- ---- ---- ------- ----- ---- -------<br>--- --- -- ----- -- --- ---- -- --- ---- -- ------ ------<br>--- ----- -- ----,148172.59999990463,148171.89999961853,147822.77,147829.7999997139,147836.138,148178.601,,17,your
screen,html.Screen,2_1_0_1_18,2022-05-12T22:36:34.270Z,,,,,,,,,,,,,,,,,53,,,,,,,,,,,,,,476.8990000000049,,response,,,,99,,,,,,,Space,keypress(Space),,,,,,,,---- -- ----- -- ------ - ------- --- ----------<br>------------- ------ ------ ---- ---- ------- ----- -- ----<br>romantic ------- -- ---------- --- - --- ----- ----- ----<br>---- --- --- ----- --- ---- ---- ------- ----- ---- -------<br>--- --- -- ----- -- --- ---- -- --- ---- -- ------ ------<br>--- ----- -- ----,148656.19999980927,148655.5,148168.941,148172.7999997139,148178.601,148662.076,,18,romantic
screen,html.Screen,2_1_0_1_19,2022-05-12T22:36:34.704Z,,,,,,,,,,,,,,,,,53,,,,,,,,,,,,,,427.32399961852934,,response,,,,99,,,,,,,Space,keypress(Space),,,,,,,,---- -- ----- -- ------ - ------- --- ----------<br>------------- ------ ------ ---- ---- ------- ----- -- ----<br>-------- partner -- ---------- --- - --- ----- ----- ----<br>---- --- --- ----- --- ---- ---- ------- ----- ---- -------<br>--- --- -- ----- -- --- ---- -- --- ---- -- ------ ------<br>--- ----- -- ----,149090.09999990463,149089.39999961853,148645.27,148656.2999997139,148662.076,149096.2,,19,partner
screen,html.Screen,2_1_0_1_20,2022-05-12T22:36:35.058Z,,,,,,,,,,,,,,,,,53,,,,,,,,,,,,,,347.69999961851863,,response,,,,99,,,,,,,Space,keypress(Space),,,,,,,,---- -- ----- -- ------ - ------- --- ----------<br>------------- ------ ------ ---- ---- ------- ----- -- ----<br>-------- ------- is ---------- --- - --- ----- ----- ----<br>---- --- --- ----- --- ---- ---- ------- ----- ---- -------<br>--- --- -- ----- -- --- ---- -- --- ---- -- ------ ------<br>--- ----- -- ----,149444.69999980927,149443.89999961853,149078.719,149090.2999997139,149096.2,149450.811,,20,is
screen,html.Screen,2_1_0_1_21,2022-05-12T22:36:35.520Z,,,,,,,,,,,,,,,,,53,,,,,,,,,,,,,,454.5889996185433,,response,,,,99,,,,,,,Space,keypress(Space),,,,,,,,---- -- ----- -- ------ - ------- --- ----------<br>------------- ------ ------ ---- ---- ------- ----- -- ----<br>-------- ------- -- paramount. --- - --- ----- ----- ----<br>---- --- --- ----- --- ---- ---- ------- ----- ---- -------<br>--- --- -- ----- -- --- ---- -- --- ---- -- ------ ------<br>--- ----- -- ----,149906.09999990463,149905.39999961853,149429.502,149444.7999997139,149450.811,149911.988,,21,paramount.
screen,html.Screen,2_1_0_1_22,2022-05-12T22:36:36.326Z,,,,,,,,,,,,,,,,,53,,,,,,,,,,,,,,798.8119997138856,,response,,,,99,,,,,,,Space,keypress(Space),,,,,,,,---- -- ----- -- ------ - ------- --- ----------<br>------------- ------ ------ ---- ---- ------- ----- -- ----<br>-------- ------- -- ---------- But - --- ----- ----- ----<br>---- --- --- ----- --- ---- ---- ------- ----- ---- -------<br>--- --- -- ----- -- --- ---- -- --- ---- -- ------ ------<br>--- ----- -- ----,150711.89999961853,150710.7999997139,149900.747,149906.19999980927,149911.988,150717.959,,22,But
screen,html.Screen,2_1_0_1_23,2022-05-12T22:36:36.934Z,,,,,,,,,,,,,,,,,53,,,,,,,,,,,,,,601.64099990463,,response,,,,99,,,,,,,Space,keypress(Space),,,,,,,,---- -- ----- -- ------ - ------- --- ----------<br>------------- ------ ------ ---- ---- ------- ----- -- ----<br>-------- ------- -- ---------- --- a --- ----- ----- ----<br>---- --- --- ----- --- ---- ---- ------- ----- ---- -------<br>--- --- -- ----- -- --- ---- -- --- ---- -- ------ ------<br>--- ----- -- ----,151320.19999980927,151319.59999990463,150711.971,150712,150717.959,151326.349,,23,a
screen,html.Screen,2_1_0_1_24,2022-05-12T22:36:37.325Z,,,,,,,,,,,,,,,,,53,,,,,,,,,,,,,,384.1510000000126,,response,,,,99,,,,,,,Space,keypress(Space),,,,,,,,---- -- ----- -- ------ - ------- --- ----------<br>------------- ------ ------ ---- ---- ------- ----- -- ----<br>-------- ------- -- ---------- --- - new ----- ----- ----<br>---- --- --- ----- --- ---- ---- ------- ----- ---- -------<br>--- --- -- ----- -- --- ---- -- --- ---- -- ------ ------<br>--- ----- -- ----,151711.2999997139,151710.5,151317.921,151320.39999961853,151326.349,151717.386,,24,new
screen,html.Screen,2_1_0_1_25,2022-05-12T22:36:37.722Z,,,,,,,,,,,,,,,,,53,,,,,,,,,,,,,,390.4139997138991,,response,,,,99,,,,,,,Space,keypress(Space),,,,,,,,---- -- ----- -- ------ - ------- --- ----------<br>------------- ------ ------ ---- ---- ------- ----- -- ----<br>-------- ------- -- ---------- --- - --- study ----- ----<br>---- --- --- ----- --- ---- ---- ------- ----- ---- -------<br>--- --- -- ----- -- --- ---- -- --- ---- -- ------ ------<br>--- ----- -- ----,152108.5,152107.7999997139,151709.472,151711.39999961853,151717.386,152114.616,,25,study
screen,html.Screen,2_1_0_1_26,2022-05-12T22:36:38.496Z,,,,,,,,,,,,,,,,,53,,,,,,,,,,,,,,766.4839999046235,,response,,,,99,,,,,,,Space,keypress(Space),,,,,,,,---- -- ----- -- ------ - ------- --- ----------<br>------------- ------ ------ ---- ---- ------- ----- -- ----<br>-------- ------- -- ---------- --- - --- ----- finds ----<br>---- --- --- ----- --- ---- ---- ------- ----- ---- -------<br>--- --- -- ----- -- --- ---- -- --- ---- -- ------ ------<br>--- ----- -- ----,152881.7999997139,152881.09999990463,152100.679,152108.59999990463,152114.616,152887.92,,26,finds
screen,html.Screen,2_1_0_1_27,2022-05-12T22:36:39.040Z,,,,,,,,,,,,,,,,,53,,,,,,,,,,,,,,537.9799996185175,,response,,,,99,,,,,,,Space,keypress(Space),,,,,,,,---- -- ----- -- ------ - ------- --- ----------<br>------------- ------ ------ ---- ---- ------- ----- -- ----<br>-------- ------- -- ---------- --- - --- ----- ----- that<br>---- --- --- ----- --- ---- ---- ------- ----- ---- -------<br>--- --- -- ----- -- --- ---- -- --- ---- -- ------ ------<br>--- ----- -- ----,153426.59999990463,153425.89999961853,152881.165,152881.89999961853,152887.92,153432.67,,27,that
screen,html.Screen,2_1_0_1_28,2022-05-12T22:36:39.544Z,,,,,,,,,,,,,,,,,53,,,,,,,,,,,,,,496.72999961851747,,response,,,,99,,,,,,,Space,keypress(Space),,,,,,,,---- -- ----- -- ------ - ------- --- ----------<br>------------- ------ ------ ---- ---- ------- ----- -- ----<br>-------- ------- -- ---------- --- - --- ----- ----- ----<br>it's --- --- ----- --- ---- ---- ------- ----- ---- -------<br>--- --- -- ----- -- --- ---- -- --- ---- -- ------ ------<br>--- ----- -- ----,153930.19999980927,153929.39999961853,153421.15,153426.69999980927,153432.67,153936.286,,28,it's
screen,html.Screen,2_1_0_1_29,2022-05-12T22:36:39.998Z,,,,,,,,,,,,,,,,,53,,,,,,,,,,,,,,447.3139999046398,,response,,,,99,,,,,,,Space,keypress(Space),,,,,,,,---- -- ----- -- ------ - ------- --- ----------<br>------------- ------ ------ ---- ---- ------- ----- -- ----<br>-------- ------- -- ---------- --- - --- ----- ----- ----<br>---- not --- ----- --- ---- ---- ------- ----- ---- -------<br>--- --- -- ----- -- --- ---- -- --- ---- -- ------ ------<br>--- ----- -- ----,154384.39999961853,154383.59999990463,153915.851,153930.2999997139,153936.286,154390.476,,29,not
screen,html.Screen,2_1_0_1_30,2022-05-12T22:36:40.524Z,,,,,,,,,,,,,,,,,53,,,,,,,,,,,,,,519.3239997139026,,response,,,,99,,,,,,,Space,keypress(Space),,,,,,,,---- -- ----- -- ------ - ------- --- ----------<br>------------- ------ ------ ---- ---- ------- ----- -- ----<br>-------- ------- -- ---------- --- - --- ----- ----- ----<br>---- --- how ----- --- ---- ---- ------- ----- ---- -------<br>--- --- -- ----- -- --- ---- -- --- ---- -- ------ ------<br>--- ----- -- ----,154910.5,154909.7999997139,154369.591,154384.5,154390.476,154916.587,,30,how
screen,html.Screen,2_1_0_1_31,2022-05-12T22:36:40.949Z,,,,,,,,,,,,,,,,,53,,,,,,,,,,,,,,417.81299961853074,,response,,,,99,,,,,,,Space,keypress(Space),,,,,,,,---- -- ----- -- ------ - ------- --- ----------<br>------------- ------ ------ ---- ---- ------- ----- -- ----<br>-------- ------- -- ---------- --- - --- ----- ----- ----<br>---- --- --- close --- ---- ---- ------- ----- ---- -------<br>--- --- -- ----- -- --- ---- -- --- ---- -- ------ ------<br>--- ----- -- ----,155335.09999990463,155334.39999961853,154906.944,154910.59999990463,154916.587,155341.196,,31,close
screen,html.Screen,2_1_0_1_32,2022-05-12T22:36:41.313Z,,,,,,,,,,,,,,,,,53,,,,,,,,,,,,,,356.9039999046363,,response,,,,99,,,,,,,Space,keypress(Space),,,,,,,,---- -- ----- -- ------ - ------- --- ----------<br>------------- ------ ------ ---- ---- ------- ----- -- ----<br>-------- ------- -- ---------- --- - --- ----- ----- ----<br>---- --- --- ----- you ---- ---- ------- ----- ---- -------<br>--- --- -- ----- -- --- ---- -- --- ---- -- ------ ------<br>--- ----- -- ----,155698.7999997139,155698.09999990463,155333.22,155335.19999980927,155341.196,155704.7,,32,you
screen,html.Screen,2_1_0_1_33,2022-05-12T22:36:41.815Z,,,,,,,,,,,,,,,,,53,,,,,,,,,,,,,,495.79999999998836,,response,,,,99,,,,,,,Space,keypress(Space),,,,,,,,---- -- ----- -- ------ - ------- --- ----------<br>------------- ------ ------ ---- ---- ------- ----- -- ----<br>-------- ------- -- ---------- --- - --- ----- ----- ----<br>---- --- --- ----- --- feel ---- ------- ----- ---- -------<br>--- --- -- ----- -- --- ---- -- --- ---- -- ------ ------<br>--- ----- -- ----,156201.19999980927,156200.5,155691.164,155698.89999961853,155704.7,156207.149,,33,feel
screen,html.Screen,2_1_0_1_34,2022-05-12T22:36:42.214Z,,,,,,,,,,,,,,,,,53,,,,,,,,,,,,,,392.4509999046277,,response,,,,99,,,,,,,Space,keypress(Space),,,,,,,,---- -- ----- -- ------ - ------- --- ----------<br>------------- ------ ------ ---- ---- ------- ----- -- ----<br>-------- ------- -- ---------- --- - --- ----- ----- ----<br>---- --- --- ----- --- ---- that ------- ----- ---- -------<br>--- --- -- ----- -- --- ---- -- --- ---- -- ------ ------<br>--- ----- -- ----,156600.39999961853,156599.59999990463,156188.173,156201.2999997139,156207.149,156606.437,,34,that
screen,html.Screen,2_1_0_1_35,2022-05-12T22:36:42.633Z,,,,,,,,,,,,,,,,,53,,,,,,,,,,,,,,412.06299999999464,,response,,,,99,,,,,,,Space,keypress(Space),,,,,,,,---- -- ----- -- ------ - ------- --- ----------<br>------------- ------ ------ ---- ---- ------- ----- -- ----<br>-------- ------- -- ---------- --- - --- ----- ----- ----<br>---- --- --- ----- --- ---- ---- matters ----- ---- -------<br>--- --- -- ----- -- --- ---- -- --- ---- -- ------ ------<br>--- ----- -- ----,157019.19999980927,157018.5,156590.633,156600.5,156606.437,157025.315,,35,matters
screen,html.Screen,2_1_0_1_36,2022-05-12T22:36:43.076Z,,,,,,,,,,,,,,,,,53,,,,,,,,,,,,,,436.4849997138954,,response,,,,99,,,,,,,Space,keypress(Space),,,,,,,,"---- -- ----- -- ------ - ------- --- ----------<br>------------- ------ ------ ---- ---- ------- ----- -- ----<br>-------- ------- -- ---------- --- - --- ----- ----- ----<br>---- --- --- ----- --- ---- ---- ------- most, ---- -------<br>--- --- -- ----- -- --- ---- -- --- ---- -- ------ ------<br>--- ----- -- ----",157462.5,157461.7999997139,157006.232,157019.2999997139,157025.315,157468.582,,36,"most,"
screen,html.Screen,2_1_0_1_37,2022-05-12T22:36:43.522Z,,,,,,,,,,,,,,,,,53,,,,,,,,,,,,,,439.4180000000051,,response,,,,99,,,,,,,Space,keypress(Space),,,,,,,,---- -- ----- -- ------ - ------- --- ----------<br>------------- ------ ------ ---- ---- ------- ----- -- ----<br>-------- ------- -- ---------- --- - --- ----- ----- ----<br>---- --- --- ----- --- ---- ---- ------- ----- it's -------<br>--- --- -- ----- -- --- ---- -- --- ---- -- ------ ------<br>--- ----- -- ----,157908.69999980927,157908,157458.613,157462.59999990463,157468.582,157914.773,,37,it's
screen,html.Screen,2_1_0_1_38,2022-05-12T22:36:43.947Z,,,,,,,,,,,,,,,,,53,,,,,,,,,,,,,,417.7270000000135,,response,,,,99,,,,,,,Space,keypress(Space),,,,,,,,---- -- ----- -- ------ - ------- --- ----------<br>------------- ------ ------ ---- ---- ------- ----- -- ----<br>-------- ------- -- ---------- --- - --- ----- ----- ----<br>---- --- --- ----- --- ---- ---- ------- ----- ---- whether<br>--- --- -- ----- -- --- ---- -- --- ---- -- ------ ------<br>--- ----- -- ----,158333.19999980927,158332.5,157901.87,157908.89999961853,157914.773,158339.278,,38,whether
screen,html.Screen,2_1_0_1_39,2022-05-12T22:36:44.303Z,,,,,,,,,,,,,,,,,53,,,,,,,,,,,,,,349.52199971390655,,response,,,,99,,,,,,,Space,keypress(Space),,,,,,,,---- -- ----- -- ------ - ------- --- ----------<br>------------- ------ ------ ---- ---- ------- ----- -- ----<br>-------- ------- -- ---------- --- - --- ----- ----- ----<br>---- --- --- ----- --- ---- ---- ------- ----- ---- -------<br>you --- -- ----- -- --- ---- -- --- ---- -- ------ ------<br>--- ----- -- ----,158689.59999990463,158688.7999997139,158331.424,158333.2999997139,158339.278,158695.437,,39,you
screen,html.Screen,2_1_0_1_40,2022-05-12T22:36:44.645Z,,,,,,,,,,,,,,,,,53,,,,,,,,,,,,,,335.2629998092598,,response,,,,99,,,,,,,Space,keypress(Space),,,,,,,,---- -- ----- -- ------ - ------- --- ----------<br>------------- ------ ------ ---- ---- ------- ----- -- ----<br>-------- ------- -- ---------- --- - --- ----- ----- ----<br>---- --- --- ----- --- ---- ---- ------- ----- ---- -------<br>--- are -- ----- -- --- ---- -- --- ---- -- ------ ------<br>--- ----- -- ----,159031.5,159030.69999980927,158689.214,158689.69999980927,158695.437,159037.604,,40,are
screen,html.Screen,2_1_0_1_41,2022-05-12T22:36:44.961Z,,,,,,,,,,,,,,,,,53,,,,,,,,,,,,,,308.59599980927305,,response,,,,99,,,,,,,Space,keypress(Space),,,,,,,,---- -- ----- -- ------ - ------- --- ----------<br>------------- ------ ------ ---- ---- ------- ----- -- ----<br>-------- ------- -- ---------- --- - --- ----- ----- ----<br>---- --- --- ----- --- ---- ---- ------- ----- ---- -------<br>--- --- as ----- -- --- ---- -- --- ---- -- ------ ------<br>--- ----- -- ----,159346.89999961853,159346.19999980927,159028.938,159031.59999990463,159037.604,159353.021,,41,as
screen,html.Screen,2_1_0_1_42,2022-05-12T22:36:45.312Z,,,,,,,,,,,,,,,,,53,,,,,,,,,,,,,,344.37899961852236,,response,,,,99,,,,,,,Space,keypress(Space),,,,,,,,---- -- ----- -- ------ - ------- --- ----------<br>------------- ------ ------ ---- ---- ------- ----- -- ----<br>-------- ------- -- ---------- --- - --- ----- ----- ----<br>---- --- --- ----- --- ---- ---- ------- ----- ---- -------<br>--- --- -- close -- --- ---- -- --- ---- -- ------ ------<br>--- ----- -- ----,159698.19999980927,159697.39999961853,159337.503,159347.09999990463,159353.021,159704.065,,42,close
screen,html.Screen,2_1_0_1_43,2022-05-12T22:36:45.671Z,,,,,,,,,,,,,,,,,53,,,,,,,,,,,,,,352.53499990463024,,response,,,,99,,,,,,,Space,keypress(Space),,,,,,,,---- -- ----- -- ------ - ------- --- ----------<br>------------- ------ ------ ---- ---- ------- ----- -- ----<br>-------- ------- -- ---------- --- - --- ----- ----- ----<br>---- --- --- ----- --- ---- ---- ------- ----- ---- -------<br>--- --- -- ----- as --- ---- -- --- ---- -- ------ ------<br>--- ----- -- ----,160057.2999997139,160056.59999990463,159686.329,159698.2999997139,159704.065,160063.427,,43,as
screen,html.Screen,2_1_0_1_44,2022-05-12T22:36:45.993Z,,,,,,,,,,,,,,,,,53,,,,,,,,,,,,,,315.1729999046365,,response,,,,99,,,,,,,Space,keypress(Space),,,,,,,,---- -- ----- -- ------ - ------- --- ----------<br>------------- ------ ------ ---- ---- ------- ----- -- ----<br>-------- ------- -- ---------- --- - --- ----- ----- ----<br>---- --- --- ----- --- ---- ---- ------- ----- ---- -------<br>--- --- -- ----- -- you ---- -- --- ---- -- ------ ------<br>--- ----- -- ----,160379.2999997139,160378.59999990463,160054.178,160057.39999961853,160063.427,160385.374,,44,you
screen,html.Screen,2_1_0_1_45,2022-05-12T22:36:46.314Z,,,,,,,,,,,,,,,,,53,,,,,,,,,,,,,,314.52599961851956,,response,,,,99,,,,,,,Space,keypress(Space),,,,,,,,---- -- ----- -- ------ - ------- --- ----------<br>------------- ------ ------ ---- ---- ------- ----- -- ----<br>-------- ------- -- ---------- --- - --- ----- ----- ----<br>---- --- --- ----- --- ---- ---- ------- ----- ---- -------<br>--- --- -- ----- -- --- want -- --- ---- -- ------ ------<br>--- ----- -- ----,160700.69999980927,160699.89999961853,160363.424,160379.39999961853,160385.374,160706.704,,45,want
screen,html.Screen,2_1_0_1_46,2022-05-12T22:36:46.670Z,,,,,,,,,,,,,,,,,53,,,,,,,,,,,,,,348.89599990463466,,response,,,,99,,,,,,,Space,keypress(Space),,,,,,,,---- -- ----- -- ------ - ------- --- ----------<br>------------- ------ ------ ---- ---- ------- ----- -- ----<br>-------- ------- -- ---------- --- - --- ----- ----- ----<br>---- --- --- ----- --- ---- ---- ------- ----- ---- -------<br>--- --- -- ----- -- --- ---- to --- ---- -- ------ ------<br>--- ----- -- ----,161056.2999997139,161055.59999990463,160685.317,160700.69999980927,160706.704,161062.389,,46,to
screen,html.Screen,2_1_0_1_47,2022-05-12T22:36:47.023Z,,,,,,,,,,,,,,,,,53,,,,,,,,,,,,,,345.710999904637,,response,,,,99,,,,,,,Space,keypress(Space),,,,,,,,"---- -- ----- -- ------ - ------- --- ----------<br>------------- ------ ------ ---- ---- ------- ----- -- ----<br>-------- ------- -- ---------- --- - --- ----- ----- ----<br>---- --- --- ----- --- ---- ---- ------- ----- ---- -------<br>--- --- -- ----- -- --- ---- -- be, ---- -- ------ ------<br>--- ----- -- ----",161408.7999997139,161408.09999990463,161056.508,161056.39999961853,161062.389,161414.776,,47,"be,"
screen,html.Screen,2_1_0_1_48,2022-05-12T22:36:47.399Z,,,,,,,,,,,,,,,,,53,,,,,,,,,,,,,,369.42399980925256,,response,,,,99,,,,,,,Space,keypress(Space),,,,,,,,---- -- ----- -- ------ - ------- --- ----------<br>------------- ------ ------ ---- ---- ------- ----- -- ----<br>-------- ------- -- ---------- --- - --- ----- ----- ----<br>---- --- --- ----- --- ---- ---- ------- ----- ---- -------<br>--- --- -- ----- -- --- ---- -- --- even -- ------ ------<br>--- ----- -- ----,161785,161784.19999980927,161395.695,161408.89999961853,161414.776,161791.084,,48,even
screen,html.Screen,2_1_0_1_49,2022-05-12T22:36:47.677Z,,,,,,,,,,,,,,,,,53,,,,,,,,,,,,,,272.01599990463,,response,,,,99,,,,,,,Space,keypress(Space),,,,,,,,---- -- ----- -- ------ - ------- --- ----------<br>------------- ------ ------ ---- ---- ------- ----- -- ----<br>-------- ------- -- ---------- --- - --- ----- ----- ----<br>---- --- --- ----- --- ---- ---- ------- ----- ---- -------<br>--- --- -- ----- -- --- ---- -- --- ---- if ------ ------<br>--- ----- -- ----,162063.7999997139,162063.09999990463,161781.562,161785.09999990463,161791.084,162069.896,,49,if
screen,html.Screen,2_1_0_1_50,2022-05-12T22:36:47.905Z,,,,,,,,,,,,,,,,,53,,,,,,,,,,,,,,220.30399980925722,,response,,,,99,,,,,,,Space,keypress(Space),,,,,,,,---- -- ----- -- ------ - ------- --- ----------<br>------------- ------ ------ ---- ---- ------- ----- -- ----<br>-------- ------- -- ---------- --- - --- ----- ----- ----<br>---- --- --- ----- --- ---- ---- ------- ----- ---- -------<br>--- --- -- ----- -- --- ---- -- --- ---- -- that's ------<br>--- ----- -- ----,162291,162290.19999980927,162057.72,162063.89999961853,162069.896,162297.053,,50,that's
screen,html.Screen,2_1_0_1_51,2022-05-12T22:36:48.264Z,,,,,,,,,,,,,,,,,53,,,,,,,,,,,,,,352.54699990461813,,response,,,,99,,,,,,,Space,keypress(Space),,,,,,,,---- -- ----- -- ------ - ------- --- ----------<br>------------- ------ ------ ---- ---- ------- ----- -- ----<br>-------- ------- -- ---------- --- - --- ----- ----- ----<br>---- --- --- ----- --- ---- ---- ------- ----- ---- -------<br>--- --- -- ----- -- --- ---- -- --- ---- -- ------ really<br>--- ----- -- ----,162650.39999961853,162649.59999990463,162286.331,162291,162297.053,162656.449,,51,really
screen,html.Screen,2_1_0_1_52,2022-05-12T22:36:48.661Z,,,,,,,,,,,,,,,,,53,,,,,,,,,,,,,,389.85099971390446,,response,,,,99,,,,,,,Space,keypress(Space),,,,,,,,---- -- ----- -- ------ - ------- --- ----------<br>------------- ------ ------ ---- ---- ------- ----- -- ----<br>-------- ------- -- ---------- --- - --- ----- ----- ----<br>---- --- --- ----- --- ---- ---- ------- ----- ---- -------<br>--- --- -- ----- -- --- ---- -- --- ---- -- ------ ------<br>not ----- -- ----,163047,163046.2999997139,162647.011,162650.5,162656.449,163052.956,,52,not
screen,html.Screen,2_1_0_1_53,2022-05-12T22:36:48.998Z,,,,,,,,,,,,,,,,,53,,,,,,,,,,,,,,330.4439996185247,,response,,,,99,,,,,,,Space,keypress(Space),,,,,,,,---- -- ----- -- ------ - ------- --- ----------<br>------------- ------ ------ ---- ---- ------- ----- -- ----<br>-------- ------- -- ---------- --- - --- ----- ----- ----<br>---- --- --- ----- --- ---- ---- ------- ----- ---- -------<br>--- --- -- ----- -- --- ---- -- --- ---- -- ------ ------<br>--- close -- ----,163384.09999990463,163383.39999961853,163039.577,163047.09999990463,163052.956,163390.18,,53,close
screen,html.Screen,2_1_0_1_54,2022-05-12T22:36:49.358Z,,,,,,,,,,,,,,,,,53,,,,,,,,,,,,,,353.820000000007,,response,,,,99,,,,,,,Space,keypress(Space),,,,,,,,---- -- ----- -- ------ - ------- --- ----------<br>------------- ------ ------ ---- ---- ------- ----- -- ----<br>-------- ------- -- ---------- --- - --- ----- ----- ----<br>---- --- --- ----- --- ---- ---- ------- ----- ---- -------<br>--- --- -- ----- -- --- ---- -- --- ---- -- ------ ------<br>--- ----- at ----,163744.69999980927,163744,163369.702,163384.19999980927,163390.18,163750.703,,54,at
screen,html.Screen,2_1_0_1_55,2022-05-12T22:36:50.806Z,,,,,,,,,,,,,,,,,53,,,,,,,,,,,,,,1440.896999904624,,response,,,,99,,,,,,,Space,keypress(Space),,,,,,,,---- -- ----- -- ------ - ------- --- ----------<br>------------- ------ ------ ---- ---- ------- ----- -- ----<br>-------- ------- -- ---------- --- - --- ----- ----- ----<br>---- --- --- ----- --- ---- ---- ------- ----- ---- -------<br>--- --- -- ----- -- --- ---- -- --- ---- -- ------ ------<br>--- ----- -- all.,165192.39999961853,165191.59999990463,163740,163744.89999961853,163750.703,165198.635,,55,all.
Item 99,flow.Loop,2_1_0_1,2022-05-12T22:36:50.806Z,,,,,,,,,,,,,,,,,,,,,,,,,,,,,,,27274.492999904644,,completion,,,,,H,,,,,,,,,,,silence,,,,,165192.59999990463,165191.59999990463,137900.505,137901.89999961853,137917.107,165198.635,,,
Question 1,html.Screen,2_1_0_2,2022-05-12T22:36:56.118Z,,,,,,,,,,,,,,,,,,,,,,,,,,,,true,FALSE,,5304.364999999991,,response,,,,99,H,,,,,,FALSE,click #choice-2,,,,silence,,,,,170503.89999961853,170503,165184.187,165192.69999980927,165198.635,170517.379,,,
Question 2,html.Screen,2_1_0_3,2022-05-12T22:37:01.471Z,,,,,,,,,,,,,,,,,,,,,,,,,,,,true,TRUE,,5338.920999713911,,response,,,,99,H,,,,,,TRUE,click #choice-1,,,,silence,,,,,175857,175856.2999997139,170500.681,170504,170517.379,175867.662,,,
Item 99,flow.Sequence,2_1_0,2022-05-12T22:37:01.471Z,,,,,,,,,,,,,,,,,,,,,,,,,,,,,,,47944.753999713896,,completion,,,,,,,,,,,,,,,,,,,,,175857.09999990463,175856.2999997139,127894.982,127899.69999980927,127911.546,175867.662,,,
Holding screen,html.Screen,2_1_1_0,2022-05-12T22:37:11.467Z,,,,,,,,,,,,,,,,,,,,,,,,,,,,,,,10002.712,,timeout,,,,,,,,,,,,,,,,,,,,,185854.2999997139,185853.793,175851.016,175857.2999997139,175867.662,185870.374,,,
screen,html.Screen,2_1_1_1_0,2022-05-12T22:37:13.523Z,,,,,,,,,,,,,,,,,54,,,,,,,,,,,,,,2039.0259996185196,,response,,,,100,,,,,,,Space,keypress(Space),,,,,,,,At --- ---- --- ------ ----- ------- ---- -- --- ------- --<br>------- ---------- ------ -- ----- -- ----- -- ---- ------<br>--- ----- --- --- ------ -------- ----- --- ------ ----- --<br>----- ----- ---------- --- --- ------ ------ ---- -- ------<br>------- --- ------ ----- --- ---- ------- -- ---- --- --<br>------- ------,187910.2999997139,187909.39999961853,185853.793,185854.5,185870.374,187915.222,,0,At
screen,html.Screen,2_1_1_1_1,2022-05-12T22:37:13.718Z,,,,,,,,,,,,,,,,,54,,,,,,,,,,,,,,189.87799990462372,,response,,,,100,,,,,,,Space,keypress(Space),,,,,,,,-- the ---- --- ------ ----- ------- ---- -- --- ------- --<br>------- ---------- ------ -- ----- -- ----- -- ---- ------<br>--- ----- --- --- ------ -------- ----- --- ------ ----- --<br>----- ----- ---------- --- --- ------ ------ ---- -- ------<br>------- --- ------ ----- --- ---- ------- -- ---- --- --<br>------- ------,188105.69999980927,188105.09999990463,187903.655,187910.5,187915.222,188111.494,,1,the
screen,html.Screen,2_1_1_1_2,2022-05-12T22:37:14.243Z,,,,,,,,,,,,,,,,,54,,,,,,,,,,,,,,518.3059997138917,,response,,,,100,,,,,,,Space,keypress(Space),,,,,,,,-- --- time --- ------ ----- ------- ---- -- --- ------- --<br>------- ---------- ------ -- ----- -- ----- -- ---- ------<br>--- ----- --- --- ------ -------- ----- --- ------ ----- --<br>----- ----- ---------- --- --- ------ ------ ---- -- ------<br>------- --- ------ ----- --- ---- ------- -- ---- --- --<br>------- ------,188630.39999961853,188629.7999997139,188098.682,188105.7999997139,188111.494,188636.329,,2,time
screen,html.Screen,2_1_1_1_3,2022-05-12T22:37:14.642Z,,,,,,,,,,,,,,,,,54,,,,,,,,,,,,,,392.87099980926723,,response,,,,100,,,,,,,Space,keypress(Space),,,,,,,,-- --- ---- the ------ ----- ------- ---- -- --- ------- --<br>------- ---------- ------ -- ----- -- ----- -- ---- ------<br>--- ----- --- --- ------ -------- ----- --- ------ ----- --<br>----- ----- ---------- --- --- ------ ------ ---- -- ------<br>------- --- ------ ----- --- ---- ------- -- ---- --- --<br>------- ------,189029.69999980927,189029.19999980927,188628.097,188630.5,188636.329,189035.687,,3,the
screen,html.Screen,2_1_1_1_4,2022-05-12T22:37:14.978Z,,,,,,,,,,,,,,,,,54,,,,,,,,,,,,,,329.7129996185249,,response,,,,100,,,,,,,Space,keypress(Space),,,,,,,,-- --- ---- --- French ----- ------- ---- -- --- ------- --<br>------- ---------- ------ -- ----- -- ----- -- ---- ------<br>--- ----- --- --- ------ -------- ----- --- ------ ----- --<br>----- ----- ---------- --- --- ------ ------ ---- -- ------<br>------- --- ------ ----- --- ---- ------- -- ---- --- --<br>------- ------,189365.89999961853,189365.39999961853,189019.581,189029.7999997139,189035.687,189371.874,,4,French
screen,html.Screen,2_1_1_1_5,2022-05-12T22:37:15.346Z,,,,,,,,,,,,,,,,,54,,,,,,,,,,,,,,360.72599990462186,,response,,,,100,,,,,,,Space,keypress(Space),,,,,,,,-- --- ---- --- ------ crown ------- ---- -- --- ------- --<br>------- ---------- ------ -- ----- -- ----- -- ---- ------<br>--- ----- --- --- ------ -------- ----- --- ------ ----- --<br>----- ----- ---------- --- --- ------ ------ ---- -- ------<br>------- --- ------ ----- --- ---- ------- -- ---- --- --<br>------- ------,189733.19999980927,189732.59999990463,189352.205,189366,189371.874,189739.137,,5,crown
screen,html.Screen,2_1_1_1_6,2022-05-12T22:37:15.693Z,,,,,,,,,,,,,,,,,54,,,,,,,,,,,,,,341.1629997139098,,response,,,,100,,,,,,,Space,keypress(Space),,,,,,,,-- --- ---- --- ------ ----- secured ---- -- --- ------- --<br>------- ---------- ------ -- ----- -- ----- -- ---- ------<br>--- ----- --- --- ------ -------- ----- --- ------ ----- --<br>----- ----- ---------- --- --- ------ ------ ---- -- ------<br>------- --- ------ ----- --- ---- ------- -- ---- --- --<br>------- ------,190080.89999961853,190080.2999997139,189721.693,189733.2999997139,189739.137,190086.788,,6,secured
screen,html.Screen,2_1_1_1_7,2022-05-12T22:37:16.042Z,,,,,,,,,,,,,,,,,54,,,,,,,,,,,,,,342.6119996185298,,response,,,,100,,,,,,,Space,keypress(Space),,,,,,,,-- --- ---- --- ------ ----- ------- much -- --- ------- --<br>------- ---------- ------ -- ----- -- ----- -- ---- ------<br>--- ----- --- --- ------ -------- ----- --- ------ ----- --<br>----- ----- ---------- --- --- ------ ------ ---- -- ------<br>------- --- ------ ----- --- ---- ------- -- ---- --- --<br>------- ------,190429.89999961853,190429.39999961853,190072.434,190080.89999961853,190086.788,190435.857,,7,much
screen,html.Screen,2_1_1_1_8,2022-05-12T22:37:16.432Z,,,,,,,,,,,,,,,,,54,,,,,,,,,,,,,,383.3429998092761,,response,,,,100,,,,,,,Space,keypress(Space),,,,,,,,-- --- ---- --- ------ ----- ------- ---- of --- ------- --<br>------- ---------- ------ -- ----- -- ----- -- ---- ------<br>--- ----- --- --- ------ -------- ----- --- ------ ----- --<br>----- ----- ---------- --- --- ------ ------ ---- -- ------<br>------- --- ------ ----- --- ---- ------- -- ---- --- --<br>------- ------,190819.89999961853,190819.19999980927,190420.094,190430,190435.857,190825.732,,8,of
screen,html.Screen,2_1_1_1_9,2022-05-12T22:37:16.871Z,,,,,,,,,,,,,,,,,54,,,,,,,,,,,,,,432.26800000001094,,response,,,,100,,,,,,,Space,keypress(Space),,,,,,,,-- --- ---- --- ------ ----- ------- ---- -- its ------- --<br>------- ---------- ------ -- ----- -- ----- -- ---- ------<br>--- ----- --- --- ------ -------- ----- --- ------ ----- --<br>----- ----- ---------- --- --- ------ ------ ---- -- ------<br>------- --- ------ ----- --- ---- ------- -- ---- --- --<br>------- ------,191258.69999980927,191258,190819.153,190819.89999961853,190825.732,191281.329,,9,its
screen,html.Screen,2_1_1_1_10,2022-05-12T22:37:17.279Z,,,,,,,,,,,,,,,,,54,,,,,,,,,,,,,,384.6710000000021,,response,,,,100,,,,,,,Space,keypress(Space),,,,,,,,-- --- ---- --- ------ ----- ------- ---- -- --- revenue --<br>------- ---------- ------ -- ----- -- ----- -- ---- ------<br>--- ----- --- --- ------ -------- ----- --- ------ ----- --<br>----- ----- ---------- --- --- ------ ------ ---- -- ------<br>------- --- ------ ----- --- ---- ------- -- ---- --- --<br>------- ------,191666.69999980927,191666,191264.716,191258.7999997139,191281.329,191672.686,,10,revenue
screen,html.Screen,2_1_1_1_11,2022-05-12T22:37:17.696Z,,,,,,,,,,,,,,,,,54,,,,,,,,,,,,,,410.31400000001304,,response,,,,100,,,,,,,Space,keypress(Space),,,,,,,,-- --- ---- --- ------ ----- ------- ---- -- --- ------- by<br>------- ---------- ------ -- ----- -- ----- -- ---- ------<br>--- ----- --- --- ------ -------- ----- --- ------ ----- --<br>----- ----- ---------- --- --- ------ ------ ---- -- ------<br>------- --- ------ ----- --- ---- ------- -- ---- --- --<br>------- ------,192083.7999997139,192083,191664.647,191666.89999961853,191672.686,192089.747,,11,by
screen,html.Screen,2_1_1_1_12,2022-05-12T22:37:18.203Z,,,,,,,,,,,,,,,,,54,,,,,,,,,,,,,,500.0529997138947,,response,,,,100,,,,,,,Space,keypress(Space),,,,,,,,-- --- ---- --- ------ ----- ------- ---- -- --- ------- --<br>issuing ---------- ------ -- ----- -- ----- -- ---- ------<br>--- ----- --- --- ------ -------- ----- --- ------ ----- --<br>----- ----- ---------- --- --- ------ ------ ---- -- ------<br>------- --- ------ ----- --- ---- ------- -- ---- --- --<br>------- ------,192590.39999961853,192589.7999997139,192072.621,192083.89999961853,192089.747,192596.409,,12,issuing
screen,html.Screen,2_1_1_1_13,2022-05-12T22:37:18.696Z,,,,,,,,,,,,,,,,,54,,,,,,,,,,,,,,486.29099980925093,,response,,,,100,,,,,,,Space,keypress(Space),,,,,,,,-- --- ---- --- ------ ----- ------- ---- -- --- ------- --<br>------- government ------ -- ----- -- ----- -- ---- ------<br>--- ----- --- --- ------ -------- ----- --- ------ ----- --<br>----- ----- ---------- --- --- ------ ------ ---- -- ------<br>------- --- ------ ----- --- ---- ------- -- ---- --- --<br>------- ------,193083.5,193082.69999980927,192589.706,192590.5,192596.409,193089.44,,13,government
screen,html.Screen,2_1_1_1_14,2022-05-12T22:37:20.325Z,,,,,,,,,,,,,,,,,54,,,,,,,,,,,,,,1622.5599999999977,,response,,,,100,,,,,,,Space,keypress(Space),,,,,,,,-- --- ---- --- ------ ----- ------- ---- -- --- ------- --<br>------- ---------- bonds. -- ----- -- ----- -- ---- ------<br>--- ----- --- --- ------ -------- ----- --- ------ ----- --<br>----- ----- ---------- --- --- ------ ------ ---- -- ------<br>------- --- ------ ----- --- ---- ------- -- ---- --- --<br>------- ------,194712.89999961853,194712,193079.705,193083.59999990463,193089.44,194718.587,,14,bonds.
screen,html.Screen,2_1_1_1_15,2022-05-12T22:37:20.838Z,,,,,,,,,,,,,,,,,54,,,,,,,,,,,,,,506.6129998092656,,response,,,,100,,,,,,,Space,keypress(Space),,,,,,,,-- --- ---- --- ------ ----- ------- ---- -- --- ------- --<br>------- ---------- ------ In ----- -- ----- -- ---- ------<br>--- ----- --- --- ------ -------- ----- --- ------ ----- --<br>----- ----- ---------- --- --- ------ ------ ---- -- ------<br>------- --- ------ ----- --- ---- ------- -- ---- --- --<br>------- ------,195225.89999961853,195225.19999980927,194705.979,194713,194718.587,195231.832,,15,In
screen,html.Screen,2_1_1_1_16,2022-05-12T22:37:21.175Z,,,,,,,,,,,,,,,,,54,,,,,,,,,,,,,,330.36799980927026,,response,,,,100,,,,,,,Space,keypress(Space),,,,,,,,"-- --- ---- --- ------ ----- ------- ---- -- --- ------- --<br>------- ---------- ------ -- 1727, -- ----- -- ---- ------<br>--- ----- --- --- ------ -------- ----- --- ------ ----- --<br>----- ----- ---------- --- --- ------ ------ ---- -- ------<br>------- --- ------ ----- --- ---- ------- -- ---- --- --<br>------- ------",195562.89999961853,195562.19999980927,195218.759,195226,195231.832,195568.89,,16,"1727,"
screen,html.Screen,2_1_1_1_17,2022-05-12T22:37:22.038Z,,,,,,,,,,,,,,,,,54,,,,,,,,,,,,,,856.109999999986,,response,,,,100,,,,,,,Space,keypress(Space),,,,,,,,-- --- ---- --- ------ ----- ------- ---- -- --- ------- --<br>------- ---------- ------ -- ----- in ----- -- ---- ------<br>--- ----- --- --- ------ -------- ----- --- ------ ----- --<br>----- ----- ---------- --- --- ------ ------ ---- -- ------<br>------- --- ------ ----- --- ---- ------- -- ---- --- --<br>------- ------,196425.69999980927,196425,195548.466,195563.19999980927,195568.89,196431.631,,17,in
screen,html.Screen,2_1_1_1_18,2022-05-12T22:37:22.554Z,,,,,,,,,,,,,,,,,54,,,,,,,,,,,,,,509.16899971390376,,response,,,,100,,,,,,,Space,keypress(Space),,,,,,,,-- --- ---- --- ------ ----- ------- ---- -- --- ------- --<br>------- ---------- ------ -- ----- -- order -- ---- ------<br>--- ----- --- --- ------ -------- ----- --- ------ ----- --<br>----- ----- ---------- --- --- ------ ------ ---- -- ------<br>------- --- ------ ----- --- ---- ------- -- ---- --- --<br>------- ------,196941.5,196940.7999997139,196419.036,196425.7999997139,196431.631,196947.529,,18,order
screen,html.Screen,2_1_1_1_19,2022-05-12T22:37:22.880Z,,,,,,,,,,,,,,,,,54,,,,,,,,,,,,,,319.570999904623,,response,,,,100,,,,,,,Space,keypress(Space),,,,,,,,-- --- ---- --- ------ ----- ------- ---- -- --- ------- --<br>------- ---------- ------ -- ----- -- ----- to ---- ------<br>--- ----- --- --- ------ -------- ----- --- ------ ----- --<br>----- ----- ---------- --- --- ------ ------ ---- -- ------<br>------- --- ------ ----- --- ---- ------- -- ---- --- --<br>------- ------,197267.89999961853,197267.09999990463,196931.434,196941.59999990463,196947.529,197273.859,,19,to
screen,html.Screen,2_1_1_1_20,2022-05-12T22:37:23.332Z,,,,,,,,,,,,,,,,,54,,,,,,,,,,,,,,444.64100000000326,,response,,,,100,,,,,,,Space,keypress(Space),,,,,,,,-- --- ---- --- ------ ----- ------- ---- -- --- ------- --<br>------- ---------- ------ -- ----- -- ----- -- save ------<br>--- ----- --- --- ------ -------- ----- --- ------ ----- --<br>----- ----- ---------- --- --- ------ ------ ---- -- ------<br>------- --- ------ ----- --- ---- ------- -- ---- --- --<br>------- ------,197719.19999980927,197718.5,197264.135,197268,197273.859,197725.194,,20,save
screen,html.Screen,2_1_1_1_21,2022-05-12T22:37:23.765Z,,,,,,,,,,,,,,,,,54,,,,,,,,,,,,,,426.8060000000114,,response,,,,100,,,,,,,Space,keypress(Space),,,,,,,,"-- --- ---- --- ------ ----- ------- ---- -- --- ------- --<br>------- ---------- ------ -- ----- -- ----- -- ---- money,<br>--- ----- --- --- ------ -------- ----- --- ------ ----- --<br>----- ----- ---------- --- --- ------ ------ ---- -- ------<br>------- --- ------ ----- --- ---- ------- -- ---- --- --<br>------- ------",198152.69999980927,198152,197707.145,197719.2999997139,197725.194,198158.498,,21,"money,"
screen,html.Screen,2_1_1_1_22,2022-05-12T22:37:24.289Z,,,,,,,,,,,,,,,,,54,,,,,,,,,,,,,,517.3019997139054,,response,,,,100,,,,,,,Space,keypress(Space),,,,,,,,-- --- ---- --- ------ ----- ------- ---- -- --- ------- --<br>------- ---------- ------ -- ----- -- ----- -- ---- ------<br>the ----- --- --- ------ -------- ----- --- ------ ----- --<br>----- ----- ---------- --- --- ------ ------ ---- -- ------<br>------- --- ------ ----- --- ---- ------- -- ---- --- --<br>------- ------,198676.59999990463,198675.7999997139,198141.638,198152.89999961853,198158.498,198682.561,,22,the
screen,html.Screen,2_1_1_1_23,2022-05-12T22:37:24.683Z,,,,,,,,,,,,,,,,,54,,,,,,,,,,,,,,387.23899971391074,,response,,,,100,,,,,,,Space,keypress(Space),,,,,,,,-- --- ---- --- ------ ----- ------- ---- -- --- ------- --<br>------- ---------- ------ -- ----- -- ----- -- ---- ------<br>--- state --- --- ------ -------- ----- --- ------ ----- --<br>----- ----- ---------- --- --- ------ ------ ---- -- ------<br>------- --- ------ ----- --- ---- ------- -- ---- --- --<br>------- ------,199070.59999990463,199069.7999997139,198675.661,198676.69999980927,198682.561,199076.521,,23,state
screen,html.Screen,2_1_1_1_24,2022-05-12T22:37:25.105Z,,,,,,,,,,,,,,,,,54,,,,,,,,,,,,,,415.6789998092572,,response,,,,100,,,,,,,Space,keypress(Space),,,,,,,,-- --- ---- --- ------ ----- ------- ---- -- --- ------- --<br>------- ---------- ------ -- ----- -- ----- -- ---- ------<br>--- ----- cut --- ------ -------- ----- --- ------ ----- --<br>----- ----- ---------- --- --- ------ ------ ---- -- ------<br>------- --- ------ ----- --- ---- ------- -- ---- --- --<br>------- ------,199492.89999961853,199492.19999980927,199065.866,199070.59999990463,199076.521,199498.854,,24,cut
screen,html.Screen,2_1_1_1_25,2022-05-12T22:37:25.501Z,,,,,,,,,,,,,,,,,54,,,,,,,,,,,,,,388.6460000000079,,response,,,,100,,,,,,,Space,keypress(Space),,,,,,,,-- --- ---- --- ------ ----- ------- ---- -- --- ------- --<br>------- ---------- ------ -- ----- -- ----- -- ---- ------<br>--- ----- --- the ------ -------- ----- --- ------ ----- --<br>----- ----- ---------- --- --- ------ ------ ---- -- ------<br>------- --- ------ ----- --- ---- ------- -- ---- --- --<br>------- ------,199888.19999980927,199887.5,199493.152,199493,199498.854,199894.178,,25,the
screen,html.Screen,2_1_1_1_26,2022-05-12T22:37:25.835Z,,,,,,,,,,,,,,,,,54,,,,,,,,,,,,,,328.0219998092507,,response,,,,100,,,,,,,Space,keypress(Space),,,,,,,,-- --- ---- --- ------ ----- ------- ---- -- --- ------- --<br>------- ---------- ------ -- ----- -- ----- -- ---- ------<br>--- ----- --- --- bonds' -------- ----- --- ------ ----- --<br>----- ----- ---------- --- --- ------ ------ ---- -- ------<br>------- --- ------ ----- --- ---- ------- -- ---- --- --<br>------- ------,200222.7999997139,200222.19999980927,199882.144,199888.2999997139,199894.178,200228.751,,26,bonds'
screen,html.Screen,2_1_1_1_27,2022-05-12T22:37:26.299Z,,,,,,,,,,,,,,,,,54,,,,,,,,,,,,,,457.148999618541,,response,,,,100,,,,,,,Space,keypress(Space),,,,,,,,-- --- ---- --- ------ ----- ------- ---- -- --- ------- --<br>------- ---------- ------ -- ----- -- ----- -- ---- ------<br>--- ----- --- --- ------ interest ----- --- ------ ----- --<br>----- ----- ---------- --- --- ------ ------ ---- -- ------<br>------- --- ------ ----- --- ---- ------- -- ---- --- --<br>------- ------,200686.5,200685.89999961853,200210.823,200222.89999961853,200228.751,200692.496,,27,interest
screen,html.Screen,2_1_1_1_28,2022-05-12T22:37:26.759Z,,,,,,,,,,,,,,,,,54,,,,,,,,,,,,,,453.7039998092514,,response,,,,100,,,,,,,Space,keypress(Space),,,,,,,,-- --- ---- --- ------ ----- ------- ---- -- --- ------- --<br>------- ---------- ------ -- ----- -- ----- -- ---- ------<br>--- ----- --- --- ------ -------- rate. --- ------ ----- --<br>----- ----- ---------- --- --- ------ ------ ---- -- ------<br>------- --- ------ ----- --- ---- ------- -- ---- --- --<br>------- ------,201146.89999961853,201146.19999980927,200678.776,200686.69999980927,200692.496,201152.746,,28,rate.
screen,html.Screen,2_1_1_1_29,2022-05-12T22:37:27.174Z,,,,,,,,,,,,,,,,,54,,,,,,,,,,,,,,408.15399961851654,,response,,,,100,,,,,,,Space,keypress(Space),,,,,,,,-- --- ---- --- ------ ----- ------- ---- -- --- ------- --<br>------- ---------- ------ -- ----- -- ----- -- ---- ------<br>--- ----- --- --- ------ -------- ----- The ------ ----- --<br>----- ----- ---------- --- --- ------ ------ ---- -- ------<br>------- --- ------ ----- --- ---- ------- -- ---- --- --<br>------- ------,201561.5,201560.89999961853,201142.424,201147,201152.746,201567.489,,29,The
screen,html.Screen,2_1_1_1_30,2022-05-12T22:37:27.618Z,,,,,,,,,,,,,,,,,54,,,,,,,,,,,,,,437.0109999999986,,response,,,,100,,,,,,,Space,keypress(Space),,,,,,,,-- --- ---- --- ------ ----- ------- ---- -- --- ------- --<br>------- ---------- ------ -- ----- -- ----- -- ---- ------<br>--- ----- --- --- ------ -------- ----- --- market ----- --<br>----- ----- ---------- --- --- ------ ------ ---- -- ------<br>------- --- ------ ----- --- ---- ------- -- ---- --- --<br>------- ------,202005.2999997139,202004.5,201552.898,201561.59999990463,201567.489,202011.064,,30,market
screen,html.Screen,2_1_1_1_31,2022-05-12T22:37:27.980Z,,,,,,,,,,,,,,,,,54,,,,,,,,,,,,,,354.73599971388467,,response,,,,100,,,,,,,Space,keypress(Space),,,,,,,,-- --- ---- --- ------ ----- ------- ---- -- --- ------- --<br>------- ---------- ------ -- ----- -- ----- -- ---- ------<br>--- ----- --- --- ------ -------- ----- --- ------ value --<br>----- ----- ---------- --- --- ------ ------ ---- -- ------<br>------- --- ------ ----- --- ---- ------- -- ---- --- --<br>------- ------,202367.2999997139,202365.7999997139,202000.821,202005.39999961853,202011.064,202373.345,,31,value
screen,html.Screen,2_1_1_1_32,2022-05-12T22:37:28.286Z,,,,,,,,,,,,,,,,,54,,,,,,,,,,,,,,299.5549996185291,,response,,,,100,,,,,,,Space,keypress(Space),,,,,,,,-- --- ---- --- ------ ----- ------- ---- -- --- ------- --<br>------- ---------- ------ -- ----- -- ----- -- ---- ------<br>--- ----- --- --- ------ -------- ----- --- ------ ----- of<br>----- ----- ---------- --- --- ------ ------ ---- -- ------<br>------- --- ------ ----- --- ---- ------- -- ---- --- --<br>------- ------,202673.69999980927,202672.89999961853,202361.168,202367.5,202373.345,202679.628,,32,of
screen,html.Screen,2_1_1_1_33,2022-05-12T22:37:28.656Z,,,,,,,,,,,,,,,,,54,,,,,,,,,,,,,,362.872000000003,,response,,,,100,,,,,,,Space,keypress(Space),,,,,,,,-- --- ---- --- ------ ----- ------- ---- -- --- ------- --<br>------- ---------- ------ -- ----- -- ----- -- ---- ------<br>--- ----- --- --- ------ -------- ----- --- ------ ----- --<br>these ----- ---------- --- --- ------ ------ ---- -- ------<br>------- --- ------ ----- --- ---- ------- -- ---- --- --<br>------- ------,203043.2999997139,203042.5,202673.335,202673.7999997139,202679.628,203049.265,,33,these
screen,html.Screen,2_1_1_1_34,2022-05-12T22:37:29.015Z,,,,,,,,,,,,,,,,,54,,,,,,,,,,,,,,352.23499999998603,,response,,,,100,,,,,,,Space,keypress(Space),,,,,,,,-- --- ---- --- ------ ----- ------- ---- -- --- ------- --<br>------- ---------- ------ -- ----- -- ----- -- ---- ------<br>--- ----- --- --- ------ -------- ----- --- ------ ----- --<br>----- bonds ---------- --- --- ------ ------ ---- -- ------<br>------- --- ------ ----- --- ---- ------- -- ---- --- --<br>------- ------,203402.39999961853,203401.5,203029.591,203043.39999961853,203049.265,203419.031,,34,bonds
screen,html.Screen,2_1_1_1_35,2022-05-12T22:37:29.454Z,,,,,,,,,,,,,,,,,54,,,,,,,,,,,,,,421.668999809277,,response,,,,100,,,,,,,Space,keypress(Space),,,,,,,,"-- --- ---- --- ------ ----- ------- ---- -- --- ------- --<br>------- ---------- ------ -- ----- -- ----- -- ---- ------<br>--- ----- --- --- ------ -------- ----- --- ------ ----- --<br>----- ----- plummeted, --- --- ------ ------ ---- -- ------<br>------- --- ------ ----- --- ---- ------- -- ---- --- --<br>------- ------",203841.5,203840.69999980927,203399.202,203402.5,203419.031,203847.414,,35,"plummeted,"
screen,html.Screen,2_1_1_1_36,2022-05-12T22:37:29.908Z,,,,,,,,,,,,,,,,,54,,,,,,,,,,,,,,447.7859998092754,,response,,,,100,,,,,,,Space,keypress(Space),,,,,,,,-- --- ---- --- ------ ----- ------- ---- -- --- ------- --<br>------- ---------- ------ -- ----- -- ----- -- ---- ------<br>--- ----- --- --- ------ -------- ----- --- ------ ----- --<br>----- ----- ---------- and --- ------ ------ ---- -- ------<br>------- --- ------ ----- --- ---- ------- -- ---- --- --<br>------- ------,204296,204295.19999980927,203835.631,203841.5,203847.414,204301.92,,36,and
screen,html.Screen,2_1_1_1_37,2022-05-12T22:37:30.230Z,,,,,,,,,,,,,,,,,54,,,,,,,,,,,,,,314.67999990461976,,response,,,,100,,,,,,,Space,keypress(Space),,,,,,,,-- --- ---- --- ------ ----- ------- ---- -- --- ------- --<br>------- ---------- ------ -- ----- -- ----- -- ---- ------<br>--- ----- --- --- ------ -------- ----- --- ------ ----- --<br>----- ----- ---------- --- the ------ ------ ---- -- ------<br>------- --- ------ ----- --- ---- ------- -- ---- --- --<br>------- ------,204617.39999961853,204616.59999990463,204280.619,204296,204301.92,204623.383,,37,the
screen,html.Screen,2_1_1_1_38,2022-05-12T22:37:30.567Z,,,,,,,,,,,,,,,,,54,,,,,,,,,,,,,,330.01699961852864,,response,,,,100,,,,,,,Space,keypress(Space),,,,,,,,-- --- ---- --- ------ ----- ------- ---- -- --- ------- --<br>------- ---------- ------ -- ----- -- ----- -- ---- ------<br>--- ----- --- --- ------ -------- ----- --- ------ ----- --<br>----- ----- ---------- --- --- market ------ ---- -- ------<br>------- --- ------ ----- --- ---- ------- -- ---- --- --<br>------- ------,204954.09999990463,204953.39999961853,204601.858,204617.5,204623.383,204960.023,,38,market
screen,html.Screen,2_1_1_1_39,2022-05-12T22:37:31.034Z,,,,,,,,,,,,,,,,,54,,,,,,,,,,,,,,461.17699980927864,,response,,,,100,,,,,,,Space,keypress(Space),,,,,,,,-- --- ---- --- ------ ----- ------- ---- -- --- ------- --<br>------- ---------- ------ -- ----- -- ----- -- ---- ------<br>--- ----- --- --- ------ -------- ----- --- ------ ----- --<br>----- ----- ---------- --- --- ------ became ---- -- ------<br>------- --- ------ ----- --- ---- ------- -- ---- --- --<br>------- ------,205421.89999961853,205421.19999980927,204939.818,204954.19999980927,204960.023,205427.922,,39,became
screen,html.Screen,2_1_1_1_40,2022-05-12T22:37:31.411Z,,,,,,,,,,,,,,,,,54,,,,,,,,,,,,,,369.5780000000086,,response,,,,100,,,,,,,Space,keypress(Space),,,,,,,,-- --- ---- --- ------ ----- ------- ---- -- --- ------- --<br>------- ---------- ------ -- ----- -- ----- -- ---- ------<br>--- ----- --- --- ------ -------- ----- --- ------ ----- --<br>----- ----- ---------- --- --- ------ ------ wary -- ------<br>------- --- ------ ----- --- ---- ------- -- ---- --- --<br>------- ------,205798.19999980927,205797.5,205410.023,205422.09999990463,205427.922,205803.974,,40,wary
screen,html.Screen,2_1_1_1_41,2022-05-12T22:37:31.763Z,,,,,,,,,,,,,,,,,54,,,,,,,,,,,,,,346.2259998092777,,response,,,,100,,,,,,,Space,keypress(Space),,,,,,,,-- --- ---- --- ------ ----- ------- ---- -- --- ------- --<br>------- ---------- ------ -- ----- -- ----- -- ---- ------<br>--- ----- --- --- ------ -------- ----- --- ------ ----- --<br>----- ----- ---------- --- --- ------ ------ ---- of ------<br>------- --- ------ ----- --- ---- ------- -- ---- --- --<br>------- ------,206150.89999961853,206150.19999980927,205794.511,205798.2999997139,205803.974,206170.359,,41,of
screen,html.Screen,2_1_1_1_42,2022-05-12T22:37:32.274Z,,,,,,,,,,,,,,,,,54,,,,,,,,,,,,,,490.8409998092684,,response,,,,100,,,,,,,Space,keypress(Space),,,,,,,,-- --- ---- --- ------ ----- ------- ---- -- --- ------- --<br>------- ---------- ------ -- ----- -- ----- -- ---- ------<br>--- ----- --- --- ------ -------- ----- --- ------ ----- --<br>----- ----- ---------- --- --- ------ ------ ---- -- French<br>------- --- ------ ----- --- ---- ------- -- ---- --- --<br>------- ------,206661.89999961853,206661.19999980927,206137.46,206151,206170.359,206667.878,,42,French
screen,html.Screen,2_1_1_1_43,2022-05-12T22:37:33.019Z,,,,,,,,,,,,,,,,,54,,,,,,,,,,,,,,737.3219998092682,,response,,,,100,,,,,,,Space,keypress(Space),,,,,,,,-- --- ---- --- ------ ----- ------- ---- -- --- ------- --<br>------- ---------- ------ -- ----- -- ----- -- ---- ------<br>--- ----- --- --- ------ -------- ----- --- ------ ----- --<br>----- ----- ---------- --- --- ------ ------ ---- -- ------<br>credit. --- ------ ----- --- ---- ------- -- ---- --- --<br>------- ------,207406,207405.19999980927,206652.189,206662,206667.878,207411.94,,43,credit.
screen,html.Screen,2_1_1_1_44,2022-05-12T22:37:33.474Z,,,,,,,,,,,,,,,,,54,,,,,,,,,,,,,,448.5599999999977,,response,,,,100,,,,,,,Space,keypress(Space),,,,,,,,-- --- ---- --- ------ ----- ------- ---- -- --- ------- --<br>------- ---------- ------ -- ----- -- ----- -- ---- ------<br>--- ----- --- --- ------ -------- ----- --- ------ ----- --<br>----- ----- ---------- --- --- ------ ------ ---- -- ------<br>------- The ------ ----- --- ---- ------- -- ---- --- --<br>------- ------,207861.19999980927,207860.5,207401.156,207406.09999990463,207411.94,207867.205,,44,The
screen,html.Screen,2_1_1_1_45,2022-05-12T22:37:33.941Z,,,,,,,,,,,,,,,,,54,,,,,,,,,,,,,,460.2950000000128,,response,,,,100,,,,,,,Space,keypress(Space),,,,,,,,-- --- ---- --- ------ ----- ------- ---- -- --- ------- --<br>------- ---------- ------ -- ----- -- ----- -- ---- ------<br>--- ----- --- --- ------ -------- ----- --- ------ ----- --<br>----- ----- ---------- --- --- ------ ------ ---- -- ------<br>------- --- French ----- --- ---- ------- -- ---- --- --<br>------- ------,208328.2999997139,208327.5,207845.24,207861.39999961853,207867.205,208334.314,,45,French
screen,html.Screen,2_1_1_1_46,2022-05-12T22:37:34.222Z,,,,,,,,,,,,,,,,,54,,,,,,,,,,,,,,274.68599999998696,,response,,,,100,,,,,,,Space,keypress(Space),,,,,,,,-- --- ---- --- ------ ----- ------- ---- -- --- ------- --<br>------- ---------- ------ -- ----- -- ----- -- ---- ------<br>--- ----- --- --- ------ -------- ----- --- ------ ----- --<br>----- ----- ---------- --- --- ------ ------ ---- -- ------<br>------- --- ------ state --- ---- ------- -- ---- --- --<br>------- ------,208609.69999980927,208609,208317.116,208328.5,208334.314,208615.602,,46,state
screen,html.Screen,2_1_1_1_47,2022-05-12T22:37:34.425Z,,,,,,,,,,,,,,,,,54,,,,,,,,,,,,,,196.6979997138842,,response,,,,100,,,,,,,Space,keypress(Space),,,,,,,,-- --- ---- --- ------ ----- ------- ---- -- --- ------- --<br>------- ---------- ------ -- ----- -- ----- -- ---- ------<br>--- ----- --- --- ------ -------- ----- --- ------ ----- --<br>----- ----- ---------- --- --- ------ ------ ---- -- ------<br>------- --- ------ ----- was ---- ------- -- ---- --- --<br>------- ------,208813,208812.2999997139,208600.779,208609.7999997139,208615.602,208818.905,,47,was
screen,html.Screen,2_1_1_1_48,2022-05-12T22:37:34.846Z,,,,,,,,,,,,,,,,,54,,,,,,,,,,,,,,414.19499990463373,,response,,,,100,,,,,,,Space,keypress(Space),,,,,,,,-- --- ---- --- ------ ----- ------- ---- -- --- ------- --<br>------- ---------- ------ -- ----- -- ----- -- ---- ------<br>--- ----- --- --- ------ -------- ----- --- ------ ----- --<br>----- ----- ---------- --- --- ------ ------ ---- -- ------<br>------- --- ------ ----- --- left ------- -- ---- --- --<br>------- ------,209233.7999997139,209233.09999990463,208798.726,208813.09999990463,208818.905,209239.837,,48,left
screen,html.Screen,2_1_1_1_49,2022-05-12T22:37:35.180Z,,,,,,,,,,,,,,,,,54,,,,,,,,,,,,,,326.76299990463303,,response,,,,100,,,,,,,Space,keypress(Space),,,,,,,,-- --- ---- --- ------ ----- ------- ---- -- --- ------- --<br>------- ---------- ------ -- ----- -- ----- -- ---- ------<br>--- ----- --- --- ------ -------- ----- --- ------ ----- --<br>----- ----- ---------- --- --- ------ ------ ---- -- ------<br>------- --- ------ ----- --- ---- without -- ---- --- --<br>------- ------,209567.2999997139,209566.59999990463,209218.86,209233.89999961853,209239.837,209573.208,,49,without
screen,html.Screen,2_1_1_1_50,2022-05-12T22:37:35.505Z,,,,,,,,,,,,,,,,,54,,,,,,,,,,,,,,318.3919999046193,,response,,,,100,,,,,,,Space,keypress(Space),,,,,,,,-- --- ---- --- ------ ----- ------- ---- -- --- ------- --<br>------- ---------- ------ -- ----- -- ----- -- ---- ------<br>--- ----- --- --- ------ -------- ----- --- ------ ----- --<br>----- ----- ---------- --- --- ------ ------ ---- -- ------<br>------- --- ------ ----- --- ---- ------- an ---- --- --<br>------- ------,209892.2999997139,209891.59999990463,209556.452,209567.39999961853,209573.208,209898.291,,50,an
screen,html.Screen,2_1_1_1_51,2022-05-12T22:37:35.848Z,,,,,,,,,,,,,,,,,54,,,,,,,,,,,,,,335.9089998092677,,response,,,,100,,,,,,,Space,keypress(Space),,,,,,,,-- --- ---- --- ------ ----- ------- ---- -- --- ------- --<br>------- ---------- ------ -- ----- -- ----- -- ---- ------<br>--- ----- --- --- ------ -------- ----- --- ------ ----- --<br>----- ----- ---------- --- --- ------ ------ ---- -- ------<br>------- --- ------ ----- --- ---- ------- -- easy --- --<br>------- ------,210235.19999980927,210234.19999980927,209889.912,209892.5,209898.291,210241.05,,51,easy
screen,html.Screen,2_1_1_1_52,2022-05-12T22:37:36.179Z,,,,,,,,,,,,,,,,,54,,,,,,,,,,,,,,324.6499998092768,,response,,,,100,,,,,,,Space,keypress(Space),,,,,,,,-- --- ---- --- ------ ----- ------- ---- -- --- ------- --<br>------- ---------- ------ -- ----- -- ----- -- ---- ------<br>--- ----- --- --- ------ -------- ----- --- ------ ----- --<br>----- ----- ---------- --- --- ------ ------ ---- -- ------<br>------- --- ------ ----- --- ---- ------- -- ---- way --<br>------- ------,210566.5,210565.69999980927,210231.576,210235.39999961853,210241.05,210572.497,,52,way
screen,html.Screen,2_1_1_1_53,2022-05-12T22:37:36.505Z,,,,,,,,,,,,,,,,,54,,,,,,,,,,,,,,319.3029997138947,,response,,,,100,,,,,,,Space,keypress(Space),,,,,,,,-- --- ---- --- ------ ----- ------- ---- -- --- ------- --<br>------- ---------- ------ -- ----- -- ----- -- ---- ------<br>--- ----- --- --- ------ -------- ----- --- ------ ----- --<br>----- ----- ---------- --- --- ------ ------ ---- -- ------<br>------- --- ------ ----- --- ---- ------- -- ---- --- of<br>------- ------,210892.59999990463,210891.7999997139,210557.888,210566.59999990463,210572.497,210898.524,,53,of
screen,html.Screen,2_1_1_1_54,2022-05-12T22:37:36.902Z,,,,,,,,,,,,,,,,,54,,,,,,,,,,,,,,390.4759999999951,,response,,,,100,,,,,,,Space,keypress(Space),,,,,,,,-- --- ---- --- ------ ----- ------- ---- -- --- ------- --<br>------- ---------- ------ -- ----- -- ----- -- ---- ------<br>--- ----- --- --- ------ -------- ----- --- ------ ----- --<br>----- ----- ---------- --- --- ------ ------ ---- -- ------<br>------- --- ------ ----- --- ---- ------- -- ---- --- --<br>raising ------,211289.69999980927,211289,210889.072,210892.59999990463,210898.524,211295.537,,54,raising
screen,html.Screen,2_1_1_1_55,2022-05-12T22:37:37.583Z,,,,,,,,,,,,,,,,,54,,,,,,,,,,,,,,674.162999809254,,response,,,,100,,,,,,,Space,keypress(Space),,,,,,,,-- --- ---- --- ------ ----- ------- ---- -- --- ------- --<br>------- ---------- ------ -- ----- -- ----- -- ---- ------<br>--- ----- --- --- ------ -------- ----- --- ------ ----- --<br>----- ----- ---------- --- --- ------ ------ ---- -- ------<br>------- --- ------ ----- --- ---- ------- -- ---- --- --<br>------- money.,211970.39999961853,211969.69999980927,211281.639,211289.69999980927,211295.537,211976.463,,55,money.
Item 100,flow.Loop,2_1_1_1,2022-05-12T22:37:37.583Z,,,,,,,,,,,,,,,,,,,,,,,,,,,,,,,26099.325999809254,,completion,,,,,H,,,,,,,,,,,silence,,,,,211970.5,211969.69999980927,185853.793,185854.5,185870.374,211976.463,,,
Question 1,html.Screen,2_1_1_2,2022-05-12T22:37:41.594Z,,,,,,,,,,,,,,,,,,,,,,,,,,,,true,TRUE,,4003.836999713909,,response,,,,100,H,,,,,,TRUE,click #choice-1,,,,silence,,,,,215981.39999961853,215980.2999997139,211962.222,211970.69999980927,211976.463,216011.144,,,
Question 2,html.Screen,2_1_1_3,2022-05-12T22:37:43.969Z,,,,,,,,,,,,,,,,,,,,,,,,,,,,true,FALSE,,2344.6559997138975,,response,,,,100,H,,,,,,FALSE,click #choice-2,,,,silence,,,,,218356.59999990463,218355.7999997139,215994.485,215981.5,216011.144,218363.954,,,
Item 100,flow.Sequence,2_1_1,2022-05-12T22:37:43.969Z,,,,,,,,,,,,,,,,,,,,,,,,,,,,,,,42488.13799971389,,completion,,,,,,,,,,,,,,,,,,,,,218356.69999980927,218355.7999997139,175851.016,175857.19999980927,175867.662,218363.954,,,
End of Practice,html.Page,2_1_2,2022-05-12T22:37:47.408Z,,,,,,,,,,,,,,,,,,,,,,,,,,,,,,,3430.6459999046347,,form submission,,,,,,,,,,,,,,,,,,,,,221795,221794.59999990463,218347.302,218356.89999961853,218363.954,221796.371,,,
Practice,flow.Sequence,2_1,2022-05-12T22:37:47.408Z,,,,,,,,,,,,,,,,,,,,,,,,,,,,,,,93883.05399990463,,completion,,,,,,,,,,,,,,,,,,,,,221795.2999997139,221794.59999990463,127894.982,127899.5,127911.546,221796.371,,,
Trap_instruction,html.Page,2_2_0,2022-05-12T22:37:50.948Z,,,,,,,,,,,,,,,,,,,,,,,,,,,,,,,3538.928999713884,,form submission,,,,,,,,,,,,,,,,,,,,,225335.59999990463,225335.2999997139,221779.734,221795.59999990463,221796.371,225354.859,,,
trap_trial,html.Screen,2_2_1,2022-05-12T22:37:54.775Z,,,,,,,,,,,,,,,,,,,,,,,,,,,,true,1,,3806.6410000000033,,response,,,,,,,,,,,1,click #choice-1,,,,,,,,,229162.19999980927,229161.5,225321.726,225335.69999980927,225354.859,229165.09,,,
end of trap trial,html.Page,2_2_2,2022-05-12T22:37:57.043Z,,,,,,,,,,,,,,,,,,,,,,,,,,,,,,,2265.009999904636,,form submission,,,,,,,,,,,,,,,,,,,,,231430.39999961853,231430.09999990463,229148.549,229162.39999961853,229165.09,231443.482,,,
Trap 1,flow.Sequence,2_2,2022-05-12T22:37:57.043Z,,,,,,,,,,,,,,,,,,,,,,,,,,,,,,,9633.728999904619,,completion,,,,,,,,,,,,,,,,,,,,,231430.69999980927,231430.09999990463,221779.734,221795.39999961853,221796.371,231443.482,,,
Standby,html.Page,2_3_0,2022-05-12T22:38:05.035Z,,,,,,,,,,,,,,,,,,,,,,,,,,,,,,,7995.2940000000235,,timeout,,,,,,,,,,,,,,,,,,,,,239422.69999980927,239422.107,231426.68,231431,231443.482,239438.776,,,
Holding screen,html.Screen,2_3_1_0_0,2022-05-12T22:38:12.036Z,,,,,,,,,,,,,,,,,,,,,,,,,,,,,,,7000.447999999975,,timeout,,,,,,,,,,,,,,,,,,,,,246423.09999990463,246422.546,239422.107,239422.7999997139,239438.776,246439.224,,,
screen,html.Screen,2_3_1_0_1_0,2022-05-12T22:38:14.136Z,,,,,,,,,,,,,,,,,19,,,,,,,,,,,,,,2082.5759997139103,,response,,,,17,H,,,,,,Space,keypress(Space),,,,speech,,,,"Interestingly, --- -------- -------- ---------- ---- -------<br>-- ---------- -- --- ----- ------ ----- ---- --------- ----<br>------- ------ -------- -- ------ ---------- ------ ---<br>------ -- -- ---- -- ---------- -------- ------ ---- -------<br>---- --- --------- ------- ----- --------- ---- ----- --<br>------ -------- -- ------ -- ---- ------------",248522.69999980927,248521.7999997139,246422.546,246423.2999997139,246439.224,248527.595,,0,"Interestingly,"
screen,html.Screen,2_3_1_0_1_1,2022-05-12T22:38:14.575Z,,,,,,,,,,,,,,,,,19,,,,,,,,,,,,,,434.0049999046314,,response,,,,17,H,,,,,,Space,keypress(Space),,,,speech,,,,-------------- the -------- -------- ---------- ---- -------<br>-- ---------- -- --- ----- ------ ----- ---- --------- ----<br>------- ------ -------- -- ------ ---------- ------ ---<br>------ -- -- ---- -- ---------- -------- ------ ---- -------<br>---- --- --------- ------- ----- --------- ---- ----- --<br>------ -------- -- ------ -- ---- ------------,248962.2999997139,248961.59999990463,248505.775,248522.7999997139,248527.595,248968.073,,1,the
screen,html.Screen,2_3_1_0_1_2,2022-05-12T22:38:15.096Z,,,,,,,,,,,,,,,,,19,,,,,,,,,,,,,,514.7269997138937,,response,,,,17,H,,,,,,Space,keypress(Space),,,,speech,,,,-------------- --- heaviest -------- ---------- ---- -------<br>-- ---------- -- --- ----- ------ ----- ---- --------- ----<br>------- ------ -------- -- ------ ---------- ------ ---<br>------ -- -- ---- -- ---------- -------- ------ ---- -------<br>---- --- --------- ------- ----- --------- ---- ----- --<br>------ -------- -- ------ -- ---- ------------,249483.39999961853,249482.7999997139,248960.97,248962.39999961853,248968.073,249489.176,,2,heaviest
screen,html.Screen,2_3_1_0_1_3,2022-05-12T22:38:15.500Z,,,,,,,,,,,,,,,,,19,,,,,,,,,,,,,,396.9239999046258,,response,,,,17,H,,,,,,Space,keypress(Space),,,,speech,,,,-------------- --- -------- isotopes ---------- ---- -------<br>-- ---------- -- --- ----- ------ ----- ---- --------- ----<br>------- ------ -------- -- ------ ---------- ------ ---<br>------ -- -- ---- -- ---------- -------- ------ ---- -------<br>---- --- --------- ------- ----- --------- ---- ----- --<br>------ -------- -- ------ -- ---- ------------,249886.69999980927,249886.09999990463,249468.139,249483.39999961853,249489.176,249892.689,,3,isotopes
screen,html.Screen,2_3_1_0_1_4,2022-05-12T22:38:15.895Z,,,,,,,,,,,,,,,,,19,,,,,,,,,,,,,,388.61099971388467,,response,,,,17,H,,,,,,Space,keypress(Space),,,,speech,,,,-------------- --- -------- -------- physicists ---- -------<br>-- ---------- -- --- ----- ------ ----- ---- --------- ----<br>------- ------ -------- -- ------ ---------- ------ ---<br>------ -- -- ---- -- ---------- -------- ------ ---- -------<br>---- --- --------- ------- ----- --------- ---- ----- --<br>------ -------- -- ------ -- ---- ------------,250281.89999961853,250281.2999997139,249872.655,249886.7999997139,249892.689,250287.892,,4,physicists
screen,html.Screen,2_3_1_0_1_5,2022-05-12T22:38:16.515Z,,,,,,,,,,,,,,,,,19,,,,,,,,,,,,,,612.8079998092726,,response,,,,17,H,,,,,,Space,keypress(Space),,,,speech,,,,-------------- --- -------- -------- ---------- have -------<br>-- ---------- -- --- ----- ------ ----- ---- --------- ----<br>------- ------ -------- -- ------ ---------- ------ ---<br>------ -- -- ---- -- ---------- -------- ------ ---- -------<br>---- --- --------- ------- ----- --------- ---- ----- --<br>------ -------- -- ------ -- ---- ------------,250901.39999961853,250900.69999980927,250275.991,250282,250287.892,250907.498,,5,have
screen,html.Screen,2_3_1_0_1_6,2022-05-12T22:38:17.055Z,,,,,,,,,,,,,,,,,19,,,,,,,,,,,,,,534.2019998092728,,response,,,,17,H,,,,,,Space,keypress(Space),,,,speech,,,,-------------- --- -------- -------- ---------- ---- managed<br>-- ---------- -- --- ----- ------ ----- ---- --------- ----<br>------- ------ -------- -- ------ ---------- ------ ---<br>------ -- -- ---- -- ---------- -------- ------ ---- -------<br>---- --- --------- ------- ----- --------- ---- ----- --<br>------ -------- -- ------ -- ---- ------------,251442.2999997139,251441.69999980927,250887.719,250901.59999990463,250907.498,251448.215,,6,managed
screen,html.Screen,2_3_1_0_1_7,2022-05-12T22:38:17.452Z,,,,,,,,,,,,,,,,,19,,,,,,,,,,,,,,390.2850000000035,,response,,,,17,H,,,,,,Space,keypress(Space),,,,speech,,,,-------------- --- -------- -------- ---------- ---- -------<br>to ---------- -- --- ----- ------ ----- ---- --------- ----<br>------- ------ -------- -- ------ ---------- ------ ---<br>------ -- -- ---- -- ---------- -------- ------ ---- -------<br>---- --- --------- ------- ----- --------- ---- ----- --<br>------ -------- -- ------ -- ---- ------------,251839.09999990463,251838.5,251440.736,251442.2999997139,251448.215,251845.105,,7,to
screen,html.Screen,2_3_1_0_1_8,2022-05-12T22:38:17.873Z,,,,,,,,,,,,,,,,,19,,,,,,,,,,,,,,413.7949996185198,,response,,,,17,H,,,,,,Space,keypress(Space),,,,speech,,,,-------------- --- -------- -------- ---------- ---- -------<br>-- synthesize -- --- ----- ------ ----- ---- --------- ----<br>------- ------ -------- -- ------ ---------- ------ ---<br>------ -- -- ---- -- ---------- -------- ------ ---- -------<br>---- --- --------- ------- ----- --------- ---- ----- --<br>------ -------- -- ------ -- ---- ------------,252259.5,252258.89999961853,251831.4,251839.2999997139,251845.105,252265.504,,8,synthesize
screen,html.Screen,2_3_1_0_1_9,2022-05-12T22:38:18.284Z,,,,,,,,,,,,,,,,,19,,,,,,,,,,,,,,404.6959998092789,,response,,,,17,H,,,,,,Space,keypress(Space),,,,speech,,,,-------------- --- -------- -------- ---------- ---- -------<br>-- ---------- so --- ----- ------ ----- ---- --------- ----<br>------- ------ -------- -- ------ ---------- ------ ---<br>------ -- -- ---- -- ---------- -------- ------ ---- -------<br>---- --- --------- ------- ----- --------- ---- ----- --<br>------ -------- -- ------ -- ---- ------------,252671.09999990463,252670.19999980927,252245.11,252259.5,252265.504,252677.032,,9,so
screen,html.Screen,2_3_1_0_1_10,2022-05-12T22:38:18.775Z,,,,,,,,,,,,,,,,,19,,,,,,,,,,,,,,483.4679999999935,,response,,,,17,H,,,,,,Space,keypress(Space),,,,speech,,,,-------------- --- -------- -------- ---------- ---- -------<br>-- ---------- -- far ----- ------ ----- ---- --------- ----<br>------- ------ -------- -- ------ ---------- ------ ---<br>------ -- -- ---- -- ---------- -------- ------ ---- -------<br>---- --- --------- ------- ----- --------- ---- ----- --<br>------ -------- -- ------ -- ---- ------------,253161.39999961853,253160.5,252665.475,252671.09999990463,252677.032,253167.433,,10,far
screen,html.Screen,2_3_1_0_1_11,2022-05-12T22:38:19.212Z,,,,,,,,,,,,,,,,,19,,,,,,,,,,,,,,430.4669996185403,,response,,,,17,H,,,,,,Space,keypress(Space),,,,speech,,,,-------------- --- -------- -------- ---------- ---- -------<br>-- ---------- -- --- don't ------ ----- ---- --------- ----<br>------- ------ -------- -- ------ ---------- ------ ---<br>------ -- -- ---- -- ---------- -------- ------ ---- -------<br>---- --- --------- ------- ----- --------- ---- ----- --<br>------ -------- -- ------ -- ---- ------------,253598.59999990463,253597.89999961853,253160.328,253161.5,253167.433,253604.562,,11,don't
screen,html.Screen,2_3_1_0_1_12,2022-05-12T22:38:19.732Z,,,,,,,,,,,,,,,,,19,,,,,,,,,,,,,,513.9379999999946,,response,,,,17,H,,,,,,Space,keypress(Space),,,,speech,,,,-------------- --- -------- -------- ---------- ---- -------<br>-- ---------- -- --- ----- behave ----- ---- --------- ----<br>------- ------ -------- -- ------ ---------- ------ ---<br>------ -- -- ---- -- ---------- -------- ------ ---- -------<br>---- --- --------- ------- ----- --------- ---- ----- --<br>------ -------- -- ------ -- ---- ------------,254119.2999997139,254118.5,253583.888,253598.59999990463,253604.562,254125.338,,12,behave
screen,html.Screen,2_3_1_0_1_13,2022-05-12T22:38:20.115Z,,,,,,,,,,,,,,,,,19,,,,,,,,,,,,,,375.9619997139089,,response,,,,17,H,,,,,,Space,keypress(Space),,,,speech,,,,-------------- --- -------- -------- ---------- ---- -------<br>-- ---------- -- --- ----- ------ quite ---- --------- ----<br>------- ------ -------- -- ------ ---------- ------ ---<br>------ -- -- ---- -- ---------- -------- ------ ---- -------<br>---- --- --------- ------- ----- --------- ---- ----- --<br>------ -------- -- ------ -- ---- ------------,254502.09999990463,254501.2999997139,254104.463,254119.39999961853,254125.338,254508.104,,13,quite
screen,html.Screen,2_3_1_0_1_14,2022-05-12T22:38:20.498Z,,,,,,,,,,,,,,,,,19,,,,,,,,,,,,,,375.59599980927305,,response,,,,17,H,,,,,,Space,keypress(Space),,,,speech,,,,-------------- --- -------- -------- ---------- ---- -------<br>-- ---------- -- --- ----- ------ ----- like --------- ----<br>------- ------ -------- -- ------ ---------- ------ ---<br>------ -- -- ---- -- ---------- -------- ------ ---- -------<br>---- --- --------- ------- ----- --------- ---- ----- --<br>------ -------- -- ------ -- ---- ------------,254884.5,254883.69999980927,254491.943,254502.19999980927,254508.104,254890.409,,14,like
screen,html.Screen,2_3_1_0_1_15,2022-05-12T22:38:20.821Z,,,,,,,,,,,,,,,,,19,,,,,,,,,,,,,,316.79099980925093,,response,,,,17,H,,,,,,Space,keypress(Space),,,,speech,,,,-------------- --- -------- -------- ---------- ---- -------<br>-- ---------- -- --- ----- ------ ----- ---- science's ----<br>------- ------ -------- -- ------ ---------- ------ ---<br>------ -- -- ---- -- ---------- -------- ------ ---- -------<br>---- --- --------- ------- ----- --------- ---- ----- --<br>------ -------- -- ------ -- ---- ------------,255208,255207.19999980927,254874.695,254884.59999990463,254890.409,255213.931,,15,science's
screen,html.Screen,2_3_1_0_1_16,2022-05-12T22:38:21.165Z,,,,,,,,,,,,,,,,,19,,,,,,,,,,,,,,336.8689997138863,,response,,,,17,H,,,,,,Space,keypress(Space),,,,speech,,,,-------------- --- -------- -------- ---------- ---- -------<br>-- ---------- -- --- ----- ------ ----- ---- --------- best<br>------- ------ -------- -- ------ ---------- ------ ---<br>------ -- -- ---- -- ---------- -------- ------ ---- -------<br>---- --- --------- ------- ----- --------- ---- ----- --<br>------ -------- -- ------ -- ---- ------------,255551.59999990463,255550.7999997139,255207.133,255208,255213.931,255557.536,,16,best
screen,html.Screen,2_3_1_0_1_17,2022-05-12T22:38:21.616Z,,,,,,,,,,,,,,,,,19,,,,,,,,,,,,,,444.9640000000072,,response,,,,17,H,,,,,,Space,keypress(Space),,,,speech,,,,-------------- --- -------- -------- ---------- ---- -------<br>-- ---------- -- --- ----- ------ ----- ---- --------- ----<br>current ------ -------- -- ------ ---------- ------ ---<br>------ -- -- ---- -- ---------- -------- ------ ---- -------<br>---- --- --------- ------- ----- --------- ---- ----- --<br>------ -------- -- ------ -- ---- ------------,256003.2999997139,256002.5,255547.235,255551.69999980927,255557.536,256009.294,,17,current
screen,html.Screen,2_3_1_0_1_18,2022-05-12T22:38:22.100Z,,,,,,,,,,,,,,,,,19,,,,,,,,,,,,,,477.30599990463816,,response,,,,17,H,,,,,,Space,keypress(Space),,,,speech,,,,-------------- --- -------- -------- ---------- ---- -------<br>-- ---------- -- --- ----- ------ ----- ---- --------- ----<br>------- models -------- -- ------ ---------- ------ ---<br>------ -- -- ---- -- ---------- -------- ------ ---- -------<br>---- --- --------- ------- ----- --------- ---- ----- --<br>------ -------- -- ------ -- ---- ------------,256487.2999997139,256486.59999990463,255990.723,256003.39999961853,256009.294,256493.311,,18,models
screen,html.Screen,2_3_1_0_1_19,2022-05-12T22:38:23.623Z,,,,,,,,,,,,,,,,,19,,,,,,,,,,,,,,1513.0889996185433,,response,,,,17,H,,,,,,Space,keypress(Space),,,,speech,,,,"-------------- --- -------- -------- ---------- ---- -------<br>-- ---------- -- --- ----- ------ ----- ---- --------- ----<br>------- ------ predict, -- ------ ---------- ------ ---<br>------ -- -- ---- -- ---------- -------- ------ ---- -------<br>---- --- --------- ------- ----- --------- ---- ----- --<br>------ -------- -- ------ -- ---- ------------",258009.7999997139,258006.39999961853,256475.894,256487.39999961853,256493.311,258015.572,,19,"predict,"
screen,html.Screen,2_3_1_0_1_20,2022-05-12T22:38:24.383Z,,,,,,,,,,,,,,,,,19,,,,,,,,,,,,,,753.3279996185447,,response,,,,17,H,,,,,,Space,keypress(Space),,,,speech,,,,-------------- --- -------- -------- ---------- ---- -------<br>-- ---------- -- --- ----- ------ ----- ---- --------- ----<br>------- ------ -------- so ------ ---------- ------ ---<br>------ -- -- ---- -- ---------- -------- ------ ---- -------<br>---- --- --------- ------- ----- --------- ---- ----- --<br>------ -------- -- ------ -- ---- ------------,258769.59999990463,258768.89999961853,258009.887,258009.89999961853,258015.572,258775.486,,20,so
screen,html.Screen,2_3_1_0_1_21,2022-05-12T22:38:24.952Z,,,,,,,,,,,,,,,,,19,,,,,,,,,,,,,,563.1139999046281,,response,,,,17,H,,,,,,Space,keypress(Space),,,,speech,,,,-------------- --- -------- -------- ---------- ---- -------<br>-- ---------- -- --- ----- ------ ----- ---- --------- ----<br>------- ------ -------- -- stable ---------- ------ ---<br>------ -- -- ---- -- ---------- -------- ------ ---- -------<br>---- --- --------- ------- ----- --------- ---- ----- --<br>------ -------- -- ------ -- ---- ------------,259339.39999961853,259338.59999990463,258765.685,258769.69999980927,258775.486,259345.387,,21,stable
screen,html.Screen,2_3_1_0_1_22,2022-05-12T22:38:25.745Z,,,,,,,,,,,,,,,,,19,,,,,,,,,,,,,,785.4129997139098,,response,,,,17,H,,,,,,Space,keypress(Space),,,,speech,,,,-------------- --- -------- -------- ---------- ---- -------<br>-- ---------- -- --- ----- ------ ----- ---- --------- ----<br>------- ------ -------- -- ------ superheavy ------ ---<br>------ -- -- ---- -- ---------- -------- ------ ---- -------<br>---- --- --------- ------- ----- --------- ---- ----- --<br>------ -------- -- ------ -- ---- ------------,260131.5,260130.7999997139,259325.572,259339.39999961853,259345.387,260137.519,,22,superheavy
screen,html.Screen,2_3_1_0_1_23,2022-05-12T22:38:26.398Z,,,,,,,,,,,,,,,,,19,,,,,,,,,,,,,,646.1809998092649,,response,,,,17,H,,,,,,Space,keypress(Space),,,,speech,,,,-------------- --- -------- -------- ---------- ---- -------<br>-- ---------- -- --- ----- ------ ----- ---- --------- ----<br>------- ------ -------- -- ------ ---------- nuclei ---<br>------ -- -- ---- -- ---------- -------- ------ ---- -------<br>---- --- --------- ------- ----- --------- ---- ----- --<br>------ -------- -- ------ -- ---- ------------,260784.5,260783.69999980927,260128.69,260131.69999980927,260137.519,260790.302,,23,nuclei
screen,html.Screen,2_3_1_0_1_24,2022-05-12T22:38:26.959Z,,,,,,,,,,,,,,,,,19,,,,,,,,,,,,,,554.5979996185342,,response,,,,17,H,,,,,,Space,keypress(Space),,,,speech,,,,-------------- --- -------- -------- ---------- ---- -------<br>-- ---------- -- --- ----- ------ ----- ---- --------- ----<br>------- ------ -------- -- ------ ---------- ------ are<br>------ -- -- ---- -- ---------- -------- ------ ---- -------<br>---- --- --------- ------- ----- --------- ---- ----- --<br>------ -------- -- ------ -- ---- ------------,261345.69999980927,261344.89999961853,260770.711,260784.5,260790.302,261360.784,,24,are
screen,html.Screen,2_3_1_0_1_25,2022-05-12T22:38:27.439Z,,,,,,,,,,,,,,,,,19,,,,,,,,,,,,,,464.81599990461837,,response,,,,17,H,,,,,,Space,keypress(Space),,,,speech,,,,-------------- --- -------- -------- ---------- ---- -------<br>-- ---------- -- --- ----- ------ ----- ---- --------- ----<br>------- ------ -------- -- ------ ---------- ------ ---<br>likely -- -- ---- -- ---------- -------- ------ ---- -------<br>---- --- --------- ------- ----- --------- ---- ----- --<br>------ -------- -- ------ -- ---- ------------,261826.39999961853,261825.59999990463,261340.348,261345.7999997139,261360.784,261832.215,,25,likely
screen,html.Screen,2_3_1_0_1_26,2022-05-12T22:38:27.818Z,,,,,,,,,,,,,,,,,19,,,,,,,,,,,,,,372.0849997139012,,response,,,,17,H,,,,,,Space,keypress(Space),,,,speech,,,,-------------- --- -------- -------- ---------- ---- -------<br>-- ---------- -- --- ----- ------ ----- ---- --------- ----<br>------- ------ -------- -- ------ ---------- ------ ---<br>------ to -- ---- -- ---------- -------- ------ ---- -------<br>---- --- --------- ------- ----- --------- ---- ----- --<br>------ -------- -- ------ -- ---- ------------,262205,262204.2999997139,261816.346,261826.5,261832.215,262210.912,,26,to
screen,html.Screen,2_3_1_0_1_27,2022-05-12T22:38:28.140Z,,,,,,,,,,,,,,,,,19,,,,,,,,,,,,,,315.38799971388653,,response,,,,17,H,,,,,,Space,keypress(Space),,,,speech,,,,-------------- --- -------- -------- ---------- ---- -------<br>-- ---------- -- --- ----- ------ ----- ---- --------- ----<br>------- ------ -------- -- ------ ---------- ------ ---<br>------ -- be ---- -- ---------- -------- ------ ---- -------<br>---- --- --------- ------- ----- --------- ---- ----- --<br>------ -------- -- ------ -- ---- ------------,262527.09999990463,262526.2999997139,262199.024,262205.19999980927,262210.912,262533.107,,27,be
screen,html.Screen,2_3_1_0_1_28,2022-05-12T22:38:28.472Z,,,,,,,,,,,,,,,,,19,,,,,,,,,,,,,,325.4929999046144,,response,,,,17,H,,,,,,Space,keypress(Space),,,,speech,,,,-------------- --- -------- -------- ---------- ---- -------<br>-- ---------- -- --- ----- ------ ----- ---- --------- ----<br>------- ------ -------- -- ------ ---------- ------ ---<br>------ -- -- full -- ---------- -------- ------ ---- -------<br>---- --- --------- ------- ----- --------- ---- ----- --<br>------ -------- -- ------ -- ---- ------------,262859.2999997139,262858.59999990463,262510.998,262527.19999980927,262533.107,262865.372,,28,full
screen,html.Screen,2_3_1_0_1_29,2022-05-12T22:38:28.885Z,,,,,,,,,,,,,,,,,19,,,,,,,,,,,,,,405.6280000000261,,response,,,,17,H,,,,,,Space,keypress(Space),,,,speech,,,,-------------- --- -------- -------- ---------- ---- -------<br>-- ---------- -- --- ----- ------ ----- ---- --------- ----<br>------- ------ -------- -- ------ ---------- ------ ---<br>------ -- -- ---- of ---------- -------- ------ ---- -------<br>---- --- --------- ------- ----- --------- ---- ----- --<br>------ -------- -- ------ -- ---- ------------,263271.69999980927,263271,262849.715,262859.39999961853,262865.372,263277.726,,29,of
screen,html.Screen,2_3_1_0_1_30,2022-05-12T22:38:29.994Z,,,,,,,,,,,,,,,,,19,,,,,,,,,,,,,,1102.7739999999758,,response,,,,17,H,,,,,,Space,keypress(Space),,,,speech,,,,-------------- --- -------- -------- ---------- ---- -------<br>-- ---------- -- --- ----- ------ ----- ---- --------- ----<br>------- ------ -------- -- ------ ---------- ------ ---<br>------ -- -- ---- -- surprises. -------- ------ ---- -------<br>---- --- --------- ------- ----- --------- ---- ----- --<br>------ -------- -- ------ -- ---- ------------,264381.2999997139,264380.5,263265.331,263271.89999961853,263277.726,264405.689,,30,surprises.
screen,html.Screen,2_3_1_0_1_31,2022-05-12T22:38:30.827Z,,,,,,,,,,,,,,,,,19,,,,,,,,,,,,,,807.9109999046195,,response,,,,17,H,,,,,,Space,keypress(Space),,,,speech,,,,-------------- --- -------- -------- ---------- ---- -------<br>-- ---------- -- --- ----- ------ ----- ---- --------- ----<br>------- ------ -------- -- ------ ---------- ------ ---<br>------ -- -- ---- -- ---------- Chemists ------ ---- -------<br>---- --- --------- ------- ----- --------- ---- ----- --<br>------ -------- -- ------ -- ---- ------------,265214.2999997139,265213.59999990463,264389.04,264381.39999961853,264405.689,265220.099,,31,Chemists
screen,html.Screen,2_3_1_0_1_32,2022-05-12T22:38:31.679Z,,,,,,,,,,,,,,,,,19,,,,,,,,,,,,,,845.1009998092777,,response,,,,17,H,,,,,,Space,keypress(Space),,,,speech,,,,-------------- --- -------- -------- ---------- ---- -------<br>-- ---------- -- --- ----- ------ ----- ---- --------- ----<br>------- ------ -------- -- ------ ---------- ------ ---<br>------ -- -- ---- -- ---------- -------- cannot ---- -------<br>---- --- --------- ------- ----- --------- ---- ----- --<br>------ -------- -- ------ -- ---- ------------,266065.89999961853,266065.19999980927,265205.677,265214.39999961853,265220.099,266071.9,,32,cannot
screen,html.Screen,2_3_1_0_1_33,2022-05-12T22:38:31.999Z,,,,,,,,,,,,,,,,,19,,,,,,,,,,,,,,312.999999618507,,response,,,,17,H,,,,,,Space,keypress(Space),,,,speech,,,,-------------- --- -------- -------- ---------- ---- -------<br>-- ---------- -- --- ----- ------ ----- ---- --------- ----<br>------- ------ -------- -- ------ ---------- ------ ---<br>------ -- -- ---- -- ---------- -------- ------ even -------<br>---- --- --------- ------- ----- --------- ---- ----- --<br>------ -------- -- ------ -- ---- ------------,266385.59999990463,266384.89999961853,266053.502,266066,266071.9,266391.58,,33,even
screen,html.Screen,2_3_1_0_1_34,2022-05-12T22:38:32.347Z,,,,,,,,,,,,,,,,,19,,,,,,,,,,,,,,341.819999618514,,response,,,,17,H,,,,,,Space,keypress(Space),,,,speech,,,,-------------- --- -------- -------- ---------- ---- -------<br>-- ---------- -- --- ----- ------ ----- ---- --------- ----<br>------- ------ -------- -- ------ ---------- ------ ---<br>------ -- -- ---- -- ---------- -------- ------ ---- predict<br>---- --- --------- ------- ----- --------- ---- ----- --<br>------ -------- -- ------ -- ---- ------------,266734.19999980927,266733.39999961853,266371.882,266385.69999980927,266391.58,266739.989,,34,predict
screen,html.Screen,2_3_1_0_1_35,2022-05-12T22:38:32.884Z,,,,,,,,,,,,,,,,,19,,,,,,,,,,,,,,529.9109996185289,,response,,,,17,H,,,,,,Space,keypress(Space),,,,speech,,,,-------------- --- -------- -------- ---------- ---- -------<br>-- ---------- -- --- ----- ------ ----- ---- --------- ----<br>------- ------ -------- -- ------ ---------- ------ ---<br>------ -- -- ---- -- ---------- -------- ------ ---- -------<br>with --- --------- ------- ----- --------- ---- ----- --<br>------ -------- -- ------ -- ---- ------------,267270.69999980927,267269.89999961853,266724.885,266734.2999997139,266739.989,267276.66,,35,with
screen,html.Screen,2_3_1_0_1_36,2022-05-12T22:38:33.219Z,,,,,,,,,,,,,,,,,19,,,,,,,,,,,,,,328.4399999046582,,response,,,,17,H,,,,,,Space,keypress(Space),,,,speech,,,,-------------- --- -------- -------- ---------- ---- -------<br>-- ---------- -- --- ----- ------ ----- ---- --------- ----<br>------- ------ -------- -- ------ ---------- ------ ---<br>------ -- -- ---- -- ---------- -------- ------ ---- -------<br>---- any --------- ------- ----- --------- ---- ----- --<br>------ -------- -- ------ -- ---- ------------,267605.7999997139,267605.09999990463,267256.65,267270.7999997139,267276.66,267611.838,,36,any
screen,html.Screen,2_3_1_0_1_37,2022-05-12T22:38:33.599Z,,,,,,,,,,,,,,,,,19,,,,,,,,,,,,,,373.56199961854145,,response,,,,17,H,,,,,,Space,keypress(Space),,,,speech,,,,-------------- --- -------- -------- ---------- ---- -------<br>-- ---------- -- --- ----- ------ ----- ---- --------- ----<br>------- ------ -------- -- ------ ---------- ------ ---<br>------ -- -- ---- -- ---------- -------- ------ ---- -------<br>---- --- certainty ------- ----- --------- ---- ----- --<br>------ -------- -- ------ -- ---- ------------,267986.19999980927,267985.39999961853,267593.284,267605.89999961853,267611.838,267991.981,,37,certainty
screen,html.Screen,2_3_1_0_1_38,2022-05-12T22:38:33.937Z,,,,,,,,,,,,,,,,,19,,,,,,,,,,,,,,331.31899971386883,,response,,,,17,H,,,,,,Space,keypress(Space),,,,speech,,,,-------------- --- -------- -------- ---------- ---- -------<br>-- ---------- -- --- ----- ------ ----- ---- --------- ----<br>------- ------ -------- -- ------ ---------- ------ ---<br>------ -- -- ---- -- ---------- -------- ------ ---- -------<br>---- --- --------- whether ----- --------- ---- ----- --<br>------ -------- -- ------ -- ---- ------------,268324,268323.2999997139,267978.439,267986.2999997139,267991.981,268329.861,,38,whether
screen,html.Screen,2_3_1_0_1_39,2022-05-12T22:38:34.218Z,,,,,,,,,,,,,,,,,19,,,,,,,,,,,,,,274.53899961855495,,response,,,,17,H,,,,,,Space,keypress(Space),,,,speech,,,,-------------- --- -------- -------- ---------- ---- -------<br>-- ---------- -- --- ----- ------ ----- ---- --------- ----<br>------- ------ -------- -- ------ ---------- ------ ---<br>------ -- -- ---- -- ---------- -------- ------ ---- -------<br>---- --- --------- ------- these --------- ---- ----- --<br>------ -------- -- ------ -- ---- ------------,268605.09999990463,268604.39999961853,268308.782,268324.09999990463,268329.861,268611.043,,39,these
