sender,sender_type,sender_id,timestamp,meta,,Blues,Classical,Country,Dance,Electronic,Folk,Gospel,Hip-Hop,Jazz,Latin,Musical/Film,New-age,Pop,Prolific_id,Provo_ID,R&B,Rap,Reggae,Religious,Rock,Soul,Swing,Traditional,age,artist_name,correct,correctResponse,distraction,duration,education,ended_on,familiarity,gender,headphone_check_performance,item,list,music_frequency,offensiveness,pleasantness,position_correct,preference,response,response_action,snippet_file,song_name,song_rating,sound,stimulus_1,stimulus_2,stimulus_3,text,time_commit,time_end,time_render,time_run,time_show,time_switch,url,word,word_ID
Prolific ID,html.Form,0,2022-05-09T12:02:28.006Z,"{""labjs_version"":""20.2.2"",""labjs_build"":{""flavor"":""production"",""commit"":""a25486e0c714a0ae2ce03ff94b7bb6896854dcfa""},""location"":""https://run.pavlovia.org/mvasilev/prolific3_music_d/"",""userAgent"":""Mozilla/5.0 (X11; CrOS x86_64 14526.89.0) AppleWebKit/537.36 (KHTML, like Gecko) Chrome/100.0.4896.133 Safari/537.36"",""platform"":""Linux x86_64"",""language"":""en-GB"",""locale"":""en-GB"",""timeZone"":""Europe/London"",""timezoneOffset"":-60,""screen_width"":1366,""screen_height"":768,""scroll_width"":1366,""scroll_height"":601,""window_innerWidth"":1366,""window_innerHeight"":649,""devicePixelRatio"":1}",,,,,,,,,,,,,,,60187851316976127d909f30,,,,,,,,,,,,,,,13000.741999999998,,form submission,,,,,,,,,,,,,,,,,,,,,35144,35143,22108.928,22109.39999999944,22142.258,35158.582,{},,
Introduction,html.Screen,1_0,2022-05-09T12:02:34.984Z,,,,,,,,,,,,,,,,,,,,,,,,,,,,,,,6957.917999999998,,response,,,,,,,,,,,continue,click button,,,,,,,,,42122.699999999255,42116.5,35125.252,35144.89999999944,35158.582,42124.859,,,
Volume calibration,html.Screen,1_1,2022-05-09T12:03:01.239Z,,,,,,,,,,,,,,,,,,,,,,,,,,,,,,,26241.440999999817,,response,,,,,,,,,,,continue,click button,,,,,,,,,68377.29999999981,68366.29999999981,42108.194,42123.09999999963,42124.859,68373.456,,,
Task instructions,html.Screen,1_2,2022-05-09T12:03:15.847Z,,,,,,,,,,,,,,,,,,,,,,,,,,,,,,,14606.943999999436,,response,,,,,,,,,,,continue,click button,,,,,,,,,82985.09999999963,82980.39999999944,68356.791,68377.5,68373.456,82988.703,,,
Sounds,html.Screen,1_3_0_0,2022-05-09T12:03:20.089Z,,,,,,,,,,,,,,,,,,,,,,,,,,,,,,,4250.2560000000085,,timeout,,,,,,,,,2,,,,,,,,I,S,O,,87227.69999999925,87222.294,82972.038,82985.39999999944,82988.703,87238.959,,,
Judgement,html.Screen,1_3_0_1,2022-05-09T12:03:23.073Z,,,,,,,,,,,,,,,,,,,,,,,,,,,,true,2,,2968.7409999992524,,response,,,,,,,,,2,,2,click #choice-2,,,,,I,S,O,,90211.59999999963,90207.69999999925,87222.294,87227.89999999944,87238.959,90222.302,,,
Trial,flow.Sequence,1_3_0,2022-05-09T12:03:23.074Z,,,,,,,,,,,,,,,,,,,,,,,,,,,,,,,7218.996999999261,,completion,,,,,,,,,2,,,,,,,,I,S,O,,90212,90207.69999999925,82972.038,82985.39999999944,82988.703,90222.302,,,
Sounds,html.Screen,1_3_1_0,2022-05-09T12:03:27.318Z,,,,,,,,,,,,,,,,,,,,,,,,,,,,,,,4249.603000000003,,timeout,,,,,,,,,1,,,,,,,,S,O,I,,94456.59999999963,94455.24,90205.637,90212.59999999963,90222.302,94471.905,,,
Judgement,html.Screen,1_3_1_1,2022-05-09T12:03:28.299Z,,,,,,,,,,,,,,,,,,,,,,,,,,,,true,1,,959.9949999994424,,response,,,,,,,,,1,,1,click #choice-1,,,,,S,O,I,,95437.19999999925,95431.89999999944,94455.24,94456.79999999981,94471.905,95438.674,,,
Trial,flow.Sequence,1_3_1,2022-05-09T12:03:28.299Z,,,,,,,,,,,,,,,,,,,,,,,,,,,,,,,5209.597999999445,,completion,,,,,,,,,1,,,,,,,,S,O,I,,95437.39999999944,95431.89999999944,90205.637,90212.39999999944,90222.302,95438.674,,,
Sounds,html.Screen,1_3_2_0,2022-05-09T12:03:32.535Z,,,,,,,,,,,,,,,,,,,,,,,,,,,,,,,4249.593000000008,,timeout,,,,,,,,,3,,,,,,,,I,O,S,,99673.09999999963,99671.602,95422.009,95437.59999999963,95438.674,99688.267,,,
Judgement,html.Screen,1_3_2_1,2022-05-09T12:03:33.935Z,,,,,,,,,,,,,,,,,,,,,,,,,,,,true,3,,1379.9329999992478,,response,,,,,,,,,3,,3,click #choice-3,,,,,I,O,S,,101073.39999999944,101068.19999999925,99671.602,99673.29999999981,99688.267,101071.699,,,
Trial,flow.Sequence,1_3_2,2022-05-09T12:03:33.935Z,,,,,,,,,,,,,,,,,,,,,,,,,,,,,,,5629.525999999256,,completion,,,,,,,,,3,,,,,,,,I,O,S,,101073.69999999925,101068.19999999925,95422.009,95437.5,95438.674,101071.699,,,
Sounds,html.Screen,1_3_3_0,2022-05-09T12:03:38.168Z,,,,,,,,,,,,,,,,,,,,,,,,,,,,,,,4249.600000000006,,timeout,,,,,,,,,1,,,,,,,,S,I,O,,105306.39999999944,105304.634,101055.034,101074,101071.699,105321.299,,,
Judgement,html.Screen,1_3_3_1,2022-05-09T12:03:39.501Z,,,,,,,,,,,,,,,,,,,,,,,,,,,,true,1,,1313.6009999994421,,response,,,,,,,,,1,,1,click #choice-1,,,,,S,I,O,,106639.79999999981,106634.89999999944,105304.634,105306.59999999963,105321.299,106654.719,,,
Trial,flow.Sequence,1_3_3,2022-05-09T12:03:39.502Z,,,,,,,,,,,,,,,,,,,,,,,,,,,,,,,5563.200999999448,,completion,,,,,,,,,1,,,,,,,,S,I,O,,106640.19999999925,106634.89999999944,101055.034,101074,101071.699,106654.719,,,
Sounds,html.Screen,1_3_4_0,2022-05-09T12:03:43.751Z,,,,,,,,,,,,,,,,,,,,,,,,,,,,,,,4249.612999999998,,timeout,,,,,,,,,3,,,,,,,,O,I,S,,110889.09999999963,110887.667,106638.054,106640.39999999944,106654.719,110904.332,,,
Judgement,html.Screen,1_3_4_1,2022-05-09T12:03:44.987Z,,,,,,,,,,,,,,,,,,,,,,,,,,,,true,3,,1216.7679999996326,,response,,,,,,,,,3,,3,click #choice-3,,,,,O,I,S,,112125.5,112121.09999999963,110887.667,110889.29999999981,110904.332,112137.767,,,
Trial,flow.Sequence,1_3_4,2022-05-09T12:03:44.987Z,,,,,,,,,,,,,,,,,,,,,,,,,,,,,,,5466.38099999963,,completion,,,,,,,,,3,,,,,,,,O,I,S,,112125.69999999925,112121.09999999963,106638.054,106640.19999999925,106654.719,112137.767,,,
Sounds,html.Screen,1_3_5_0,2022-05-09T12:03:49.234Z,,,,,,,,,,,,,,,,,,,,,,,,,,,,,,,4249.604999999996,,timeout,,,,,,,,,2,,,,,,,,O,S,I,,116372.09999999963,116370.707,112121.102,112125.89999999944,112137.767,116387.372,,,
Judgement,html.Screen,1_3_5_1,2022-05-09T12:03:50.223Z,,,,,,,,,,,,,,,,,,,,,,,,,,,,true,2,,967.9279999998107,,response,,,,,,,,,2,,2,click #choice-2,,,,,O,S,I,,117361,117355.29999999981,116370.707,116372.19999999925,116387.372,117370.828,,,
Trial,flow.Sequence,1_3_5,2022-05-09T12:03:50.223Z,,,,,,,,,,,,,,,,,,,,,,,,,,,,,,,5217.532999999807,,completion,,,,,,,,,2,,,,,,,,O,S,I,,117361.29999999981,117355.29999999981,112121.102,112125.89999999944,112137.767,117370.828,,,
Task,flow.Loop,1_3,2022-05-09T12:03:50.230Z,,,,,,,,,,,,,,,,,,,,,,,,,,,,,,,34366.59699999982,,completion,,,1,,,,,,,,,,,,,,,,,,117368.79999999981,117355.29999999981,82972.038,82985.29999999981,82988.703,117370.828,,,
Trap,html.Screen,1_4,2022-05-09T12:03:50.233Z,,,,,,,,,,,,,,,,,,,,,,,,,,,,,,,NaN,,skipped,,,,,,,,,,,,,,,,,,,,,117370.79999999981,117355.29999999981,,117370.59999999963,,117370.828,,,
Thanks,html.Screen,1_5,2022-05-09T12:03:55.153Z,,,,,,,,,,,,,,,,,,,,,,,,,,,,,,,4915.871999999261,,response,,,,,,,,,,,continue,click button,,,,,,,,,122291,122286.69999999925,117354.163,117371,117370.828,129686.82,,,
Headphone screening,flow.Sequence,1,2022-05-09T12:03:55.153Z,,,,,,,,,,,,,,,,,,,,,,,,,,,,,,,87128.11799999926,,completion,,,,,,,,,,,,,,,,,,,,,122291.39999999944,122286.69999999925,35125.252,35144.89999999944,35158.582,129686.82,,,
Instructions,html.Page,2_0,2022-05-09T12:04:39.666Z,,,,,,,,,,,,,,,,,,,,,,,,,,,,,,,37117.27999999962,,form submission,,,,,,,,,,,,,,,,,,,,,166804.69999999925,166804.09999999963,129670.155,129657.29999999981,129686.82,166816.697,,,
Holding screen,html.Screen,2_1_0_0,2022-05-09T12:04:49.664Z,,,,,,,,,,,,,,,,,,,,,,,,,,,,,,,10000.924000000028,,timeout,,,,,,,,,,,,,,,,,,,,,176802.09999999963,176800.956,166800.032,166805.09999999963,166816.697,176817.621,,,
screen,html.Screen,2_1_0_1_0,2022-05-09T12:04:52.298Z,,,,,,,,,,,,,,,,,53,,,,,,,,,,,,,,2612.078999999241,,response,,,,99,,,,,,,Space,keypress(Space),,,,,,,,When -- ----- -- ------ - ------- --- ----------<br>------------- ------ ------ ---- ---- ------- ----- -- ----<br>-------- ------- -- ---------- --- - --- ----- ----- ----<br>---- --- --- ----- --- ---- ---- ------- ----- ---- -------<br>--- --- -- ----- -- --- ---- -- --- ---- -- ------ ------<br>--- ----- -- ----,179436.5,179429.69999999925,176800.956,176802.39999999944,176817.621,179450.737,,0,When
screen,html.Screen,2_1_0_1_1,2022-05-09T12:04:53.960Z,,,,,,,,,,,,,,,,,53,,,,,,,,,,,,,,1645.6629999994475,,response,,,,99,,,,,,,Space,keypress(Space),,,,,,,,---- it ----- -- ------ - ------- --- ----------<br>------------- ------ ------ ---- ---- ------- ----- -- ----<br>-------- ------- -- ---------- --- - --- ----- ----- ----<br>---- --- --- ----- --- ---- ---- ------- ----- ---- -------<br>--- --- -- ----- -- --- ---- -- --- ---- -- ------ ------<br>--- ----- -- ----,181098.69999999925,181096.39999999944,179434.072,179436.69999999925,179450.737,181100.694,,1,it
screen,html.Screen,2_1_0_1_2,2022-05-09T12:04:55.284Z,,,,,,,,,,,,,,,,,53,,,,,,,,,,,,,,1319.8060000000114,,response,,,,99,,,,,,,Space,keypress(Space),,,,,,,,---- -- comes -- ------ - ------- --- ----------<br>------------- ------ ------ ---- ---- ------- ----- -- ----<br>-------- ------- -- ---------- --- - --- ----- ----- ----<br>---- --- --- ----- --- ---- ---- ------- ----- ---- -------<br>--- --- -- ----- -- --- ---- -- --- ---- -- ------ ------<br>--- ----- -- ----,182422.5,182420.5,181084.029,181098.89999999944,181100.694,182433.971,,2,comes
screen,html.Screen,2_1_0_1_3,2022-05-09T12:04:56.287Z,,,,,,,,,,,,,,,,,53,,,,,,,,,,,,,,989.7289999992645,,response,,,,99,,,,,,,Space,keypress(Space),,,,,,,,---- -- ----- to ------ - ------- --- ----------<br>------------- ------ ------ ---- ---- ------- ----- -- ----<br>-------- ------- -- ---------- --- - --- ----- ----- ----<br>---- --- --- ----- --- ---- ---- ------- ----- ---- -------<br>--- --- -- ----- -- --- ---- -- --- ---- -- ------ ------<br>--- ----- -- ----,183425.69999999925,183423.69999999925,182417.306,182422.69999999925,182433.971,183433.932,,3,to
screen,html.Screen,2_1_0_1_4,2022-05-09T12:04:57.008Z,,,,,,,,,,,,,,,,,53,,,,,,,,,,,,,,710.1679999996268,,response,,,,99,,,,,,,Space,keypress(Space),,,,,,,,---- -- ----- -- having - ------- --- ----------<br>------------- ------ ------ ---- ---- ------- ----- -- ----<br>-------- ------- -- ---------- --- - --- ----- ----- ----<br>---- --- --- ----- --- ---- ---- ------- ----- ---- -------<br>--- --- -- ----- -- --- ---- -- --- ---- -- ------ ------<br>--- ----- -- ----,184146,184144.09999999963,183417.267,183426.09999999963,183433.932,184150.574,,4,having
screen,html.Screen,2_1_0_1_5,2022-05-09T12:04:57.561Z,,,,,,,,,,,,,,,,,53,,,,,,,,,,,,,,546.825999999448,,response,,,,99,,,,,,,Space,keypress(Space),,,,,,,,---- -- ----- -- ------ a ------- --- ----------<br>------------- ------ ------ ---- ---- ------- ----- -- ----<br>-------- ------- -- ---------- --- - --- ----- ----- ----<br>---- --- --- ----- --- ---- ---- ------- ----- ---- -------<br>--- --- -- ----- -- --- ---- -- --- ---- -- ------ ------<br>--- ----- -- ----,184699.2999999998,184697.39999999944,184133.909,184146.2999999998,184150.574,184717.218,,5,a
screen,html.Screen,2_1_0_1_6,2022-05-09T12:04:58.171Z,,,,,,,,,,,,,,,,,53,,,,,,,,,,,,,,588.6819999994477,,response,,,,99,,,,,,,Space,keypress(Space),,,,,,,,---- -- ----- -- ------ - lasting --- ----------<br>------------- ------ ------ ---- ---- ------- ----- -- ----<br>-------- ------- -- ---------- --- - --- ----- ----- ----<br>---- --- --- ----- --- ---- ---- ------- ----- ---- -------<br>--- --- -- ----- -- --- ---- -- --- ---- -- ------ ------<br>--- ----- -- ----,185309.5,185305.89999999944,184700.553,184699.59999999963,184717.218,185317.183,,6,lasting
screen,html.Screen,2_1_0_1_7,2022-05-09T12:04:58.837Z,,,,,,,,,,,,,,,,,53,,,,,,,,,,,,,,656.6169999998237,,response,,,,99,,,,,,,Space,keypress(Space),,,,,,,,---- -- ----- -- ------ - ------- and ----------<br>------------- ------ ------ ---- ---- ------- ----- -- ----<br>-------- ------- -- ---------- --- - --- ----- ----- ----<br>---- --- --- ----- --- ---- ---- ------- ----- ---- -------<br>--- --- -- ----- -- --- ---- -- --- ---- -- ------ ------<br>--- ----- -- ----,185975.69999999925,185973.7999999998,185300.518,185309.7999999998,185317.183,185983.812,,7,and
screen,html.Screen,2_1_0_1_8,2022-05-09T12:04:59.641Z,,,,,,,,,,,,,,,,,53,,,,,,,,,,,,,,793.0879999994359,,response,,,,99,,,,,,,Space,keypress(Space),,,,,,,,---- -- ----- -- ------ - ------- --- fulfilling<br>------------- ------ ------ ---- ---- ------- ----- -- ----<br>-------- ------- -- ---------- --- - --- ----- ----- ----<br>---- --- --- ----- --- ---- ---- ------- ----- ---- -------<br>--- --- -- ----- -- --- ---- -- --- ---- -- ------ ------<br>--- ----- -- ----,186779.09999999963,186776.89999999944,185967.147,185976,185983.812,186783.763,,8,fulfilling
screen,html.Screen,2_1_0_1_9,2022-05-09T12:05:00.556Z,,,,,,,,,,,,,,,,,53,,,,,,,,,,,,,,909.0369999998074,,response,,,,99,,,,,,,Space,keypress(Space),,,,,,,,"---- -- ----- -- ------ - ------- --- ----------<br>relationship, ------ ------ ---- ---- ------- ----- -- ----<br>-------- ------- -- ---------- --- - --- ----- ----- ----<br>---- --- --- ----- --- ---- ---- ------- ----- ---- -------<br>--- --- -- ----- -- --- ---- -- --- ---- -- ------ ------<br>--- ----- -- ----",187694.59999999963,187692.7999999998,186767.098,186779.2999999998,186783.763,187700.375,,9,"relationship,"
screen,html.Screen,2_1_0_1_10,2022-05-09T12:05:01.340Z,,,,,,,,,,,,,,,,,53,,,,,,,,,,,,,,775.625,,response,,,,99,,,,,,,Space,keypress(Space),,,,,,,,---- -- ----- -- ------ - ------- --- ----------<br>------------- common ------ ---- ---- ------- ----- -- ----<br>-------- ------- -- ---------- --- - --- ----- ----- ----<br>---- --- --- ----- --- ---- ---- ------- ----- ---- -------<br>--- --- -- ----- -- --- ---- -- --- ---- -- ------ ------<br>--- ----- -- ----,188477.89999999944,188476,187683.71,187694.89999999944,187700.375,188483.673,,10,common
screen,html.Screen,2_1_0_1_11,2022-05-09T12:05:02.195Z,,,,,,,,,,,,,,,,,53,,,,,,,,,,,,,,847.8269999999902,,response,,,,99,,,,,,,Space,keypress(Space),,,,,,,,---- -- ----- -- ------ - ------- --- ----------<br>------------- ------ wisdom ---- ---- ------- ----- -- ----<br>-------- ------- -- ---------- --- - --- ----- ----- ----<br>---- --- --- ----- --- ---- ---- ------- ----- ---- -------<br>--- --- -- ----- -- --- ---- -- --- ---- -- ------ ------<br>--- ----- -- ----,189333.39999999944,189331.5,188467.008,188478.19999999925,188483.673,189350.289,,11,wisdom
screen,html.Screen,2_1_0_1_12,2022-05-09T12:05:03.003Z,,,,,,,,,,,,,,,,,53,,,,,,,,,,,,,,787.3109999996377,,response,,,,99,,,,,,,Space,keypress(Space),,,,,,,,---- -- ----- -- ------ - ------- --- ----------<br>------------- ------ ------ says ---- ------- ----- -- ----<br>-------- ------- -- ---------- --- - --- ----- ----- ----<br>---- --- --- ----- --- ---- ---- ------- ----- ---- -------<br>--- --- -- ----- -- --- ---- -- --- ---- -- ------ ------<br>--- ----- -- ----,190141.5,190137.59999999963,189333.624,189333.69999999925,189350.289,190150.248,,12,says
screen,html.Screen,2_1_0_1_13,2022-05-09T12:05:03.877Z,,,,,,,,,,,,,,,,,53,,,,,,,,,,,,,,863.0519999998214,,response,,,,99,,,,,,,Space,keypress(Space),,,,,,,,---- -- ----- -- ------ - ------- --- ----------<br>------------- ------ ------ ---- that ------- ----- -- ----<br>-------- ------- -- ---------- --- - --- ----- ----- ----<br>---- --- --- ----- --- ---- ---- ------- ----- ---- -------<br>--- --- -- ----- -- --- ---- -- --- ---- -- ------ ------<br>--- ----- -- ----,191015.09999999963,191013.2999999998,190133.583,190141.69999999925,190150.248,191016.865,,13,that
screen,html.Screen,2_1_0_1_14,2022-05-09T12:05:04.660Z,,,,,,,,,,,,,,,,,53,,,,,,,,,,,,,,779.7349999996368,,response,,,,99,,,,,,,Space,keypress(Space),,,,,,,,---- -- ----- -- ------ - ------- --- ----------<br>------------- ------ ------ ---- ---- feeling ----- -- ----<br>-------- ------- -- ---------- --- - --- ----- ----- ----<br>---- --- --- ----- --- ---- ---- ------- ----- ---- -------<br>--- --- -- ----- -- --- ---- -- --- ---- -- ------ ------<br>--- ----- -- ----,191798.5,191796.59999999963,191000.2,191015.39999999944,191016.865,191800.162,,14,feeling
screen,html.Screen,2_1_0_1_15,2022-05-09T12:05:05.351Z,,,,,,,,,,,,,,,,,53,,,,,,,,,,,,,,687.1379999998026,,response,,,,99,,,,,,,Space,keypress(Space),,,,,,,,---- -- ----- -- ------ - ------- --- ----------<br>------------- ------ ------ ---- ---- ------- close -- ----<br>-------- ------- -- ---------- --- - --- ----- ----- ----<br>---- --- --- ----- --- ---- ---- ------- ----- ---- -------<br>--- --- -- ----- -- --- ---- -- --- ---- -- ------ ------<br>--- ----- -- ----,192489.09999999963,192487.2999999998,191783.497,191798.7999999998,191800.162,192500.128,,15,close
screen,html.Screen,2_1_0_1_16,2022-05-09T12:05:05.905Z,,,,,,,,,,,,,,,,,53,,,,,,,,,,,,,,540.372000000003,,response,,,,99,,,,,,,Space,keypress(Space),,,,,,,,---- -- ----- -- ------ - ------- --- ----------<br>------------- ------ ------ ---- ---- ------- ----- to ----<br>-------- ------- -- ---------- --- - --- ----- ----- ----<br>---- --- --- ----- --- ---- ---- ------- ----- ---- -------<br>--- --- -- ----- -- --- ---- -- --- ---- -- ------ ------<br>--- ----- -- ----,193043,193040.5,192483.463,192489.39999999944,192500.128,193050.105,,16,to
screen,html.Screen,2_1_0_1_17,2022-05-09T12:05:06.452Z,,,,,,,,,,,,,,,,,53,,,,,,,,,,,,,,538.1949999998033,,response,,,,99,,,,,,,Space,keypress(Space),,,,,,,,---- -- ----- -- ------ - ------- --- ----------<br>------------- ------ ------ ---- ---- ------- ----- -- your<br>-------- ------- -- ---------- --- - --- ----- ----- ----<br>---- --- --- ----- --- ---- ---- ------- ----- ---- -------<br>--- --- -- ----- -- --- ---- -- --- ---- -- ------ ------<br>--- ----- -- ----,193590.69999999925,193588.2999999998,193033.44,193043.19999999925,193050.105,193600.076,,17,your
screen,html.Screen,2_1_0_1_18,2022-05-09T12:05:06.947Z,,,,,,,,,,,,,,,,,53,,,,,,,,,,,,,,483.623999999254,,response,,,,99,,,,,,,Space,keypress(Space),,,,,,,,---- -- ----- -- ------ - ------- --- ----------<br>------------- ------ ------ ---- ---- ------- ----- -- ----<br>romantic ------- -- ---------- --- - --- ----- ----- ----<br>---- --- --- ----- --- ---- ---- ------- ----- ---- -------<br>--- --- -- ----- -- --- ---- -- --- ---- -- ------ ------<br>--- ----- -- ----,194085.5,194083.69999999925,193583.411,193591,193600.076,194100.05,,18,romantic
screen,html.Screen,2_1_0_1_19,2022-05-09T12:05:07.581Z,,,,,,,,,,,,,,,,,53,,,,,,,,,,,,,,616.8499999994528,,response,,,,99,,,,,,,Space,keypress(Space),,,,,,,,---- -- ----- -- ------ - ------- --- ----------<br>------------- ------ ------ ---- ---- ------- ----- -- ----<br>-------- partner -- ---------- --- - --- ----- ----- ----<br>---- --- --- ----- --- ---- ---- ------- ----- ---- -------<br>--- --- -- ----- -- --- ---- -- --- ---- -- ------ ------<br>--- ----- -- ----,194719.09999999963,194716.89999999944,194083.385,194086.09999999963,194100.05,194733.344,,19,partner
screen,html.Screen,2_1_0_1_20,2022-05-09T12:05:08.050Z,,,,,,,,,,,,,,,,,53,,,,,,,,,,,,,,451.2559999996156,,response,,,,99,,,,,,,Space,keypress(Space),,,,,,,,---- -- ----- -- ------ - ------- --- ----------<br>------------- ------ ------ ---- ---- ------- ----- -- ----<br>-------- ------- is ---------- --- - --- ----- ----- ----<br>---- --- --- ----- --- ---- ---- ------- ----- ---- -------<br>--- --- -- ----- -- --- ---- -- --- ---- -- ------ ------<br>--- ----- -- ----,195187.89999999944,195184.59999999963,194716.679,194719.2999999998,194733.344,195199.993,,20,is
screen,html.Screen,2_1_0_1_21,2022-05-09T12:05:08.642Z,,,,,,,,,,,,,,,,,53,,,,,,,,,,,,,,577.8069999998261,,response,,,,99,,,,,,,Space,keypress(Space),,,,,,,,---- -- ----- -- ------ - ------- --- ----------<br>------------- ------ ------ ---- ---- ------- ----- -- ----<br>-------- ------- -- paramount. --- - --- ----- ----- ----<br>---- --- --- ----- --- ---- ---- ------- ----- ---- -------<br>--- --- -- ----- -- --- ---- -- --- ---- -- ------ ------<br>--- ----- -- ----,195780.09999999963,195777.7999999998,195183.328,195188.09999999963,195199.993,195783.29,,21,paramount.
screen,html.Screen,2_1_0_1_22,2022-05-09T12:05:09.170Z,,,,,,,,,,,,,,,,,53,,,,,,,,,,,,,,522.2099999999919,,response,,,,99,,,,,,,Space,keypress(Space),,,,,,,,---- -- ----- -- ------ - ------- --- ----------<br>------------- ------ ------ ---- ---- ------- ----- -- ----<br>-------- ------- -- ---------- But - --- ----- ----- ----<br>---- --- --- ----- --- ---- ---- ------- ----- ---- -------<br>--- --- -- ----- -- --- ---- -- --- ---- -- ------ ------<br>--- ----- -- ----,196307.89999999944,196305.5,195766.625,195780.2999999998,195783.29,196316.598,,22,But
screen,html.Screen,2_1_0_1_23,2022-05-09T12:05:09.731Z,,,,,,,,,,,,,,,,,53,,,,,,,,,,,,,,549.9020000000019,,response,,,,99,,,,,,,Space,keypress(Space),,,,,,,,---- -- ----- -- ------ - ------- --- ----------<br>------------- ------ ------ ---- ---- ------- ----- -- ----<br>-------- ------- -- ---------- --- a --- ----- ----- ----<br>---- --- --- ----- --- ---- ---- ------- ----- ---- -------<br>--- --- -- ----- -- --- ---- -- --- ---- -- ------ ------<br>--- ----- -- ----,196869.09999999963,196866.5,196299.933,196308.09999999963,196316.598,196883.231,,23,a
screen,html.Screen,2_1_0_1_24,2022-05-09T12:05:10.161Z,,,,,,,,,,,,,,,,,53,,,,,,,,,,,,,,414.3689999996277,,response,,,,99,,,,,,,Space,keypress(Space),,,,,,,,---- -- ----- -- ------ - ------- --- ----------<br>------------- ------ ------ ---- ---- ------- ----- -- ----<br>-------- ------- -- ---------- --- - new ----- ----- ----<br>---- --- --- ----- --- ---- ---- ------- ----- ---- -------<br>--- --- -- ----- -- --- ---- -- --- ---- -- ------ ------<br>--- ----- -- ----,197299.5,197297.59999999963,196866.566,196869.2999999998,196883.231,197316.548,,24,new
screen,html.Screen,2_1_0_1_25,2022-05-09T12:05:10.582Z,,,,,,,,,,,,,,,,,53,,,,,,,,,,,,,,401.5519999996177,,response,,,,99,,,,,,,Space,keypress(Space),,,,,,,,---- -- ----- -- ------ - ------- --- ----------<br>------------- ------ ------ ---- ---- ------- ----- -- ----<br>-------- ------- -- ---------- --- - --- study ----- ----<br>---- --- --- ----- --- ---- ---- ------- ----- ---- -------<br>--- --- -- ----- -- --- ---- -- --- ---- -- ------ ------<br>--- ----- -- ----,197720,197718.09999999963,197299.883,197299.7999999998,197316.548,197733.193,,25,study
screen,html.Screen,2_1_0_1_26,2022-05-09T12:05:10.992Z,,,,,,,,,,,,,,,,,53,,,,,,,,,,,,,,395.2069999994419,,response,,,,99,,,,,,,Space,keypress(Space),,,,,,,,---- -- ----- -- ------ - ------- --- ----------<br>------------- ------ ------ ---- ---- ------- ----- -- ----<br>-------- ------- -- ---------- --- - --- ----- finds ----<br>---- --- --- ----- --- ---- ---- ------- ----- ---- -------<br>--- --- -- ----- -- --- ---- -- --- ---- -- ------ ------<br>--- ----- -- ----,198130.2999999998,198128.39999999944,197716.528,197720.2999999998,197733.193,198133.173,,26,finds
screen,html.Screen,2_1_0_1_27,2022-05-09T12:05:11.431Z,,,,,,,,,,,,,,,,,53,,,,,,,,,,,,,,434.02699999924516,,response,,,,99,,,,,,,Space,keypress(Space),,,,,,,,---- -- ----- -- ------ - ------- --- ----------<br>------------- ------ ------ ---- ---- ------- ----- -- ----<br>-------- ------- -- ---------- --- - --- ----- ----- that<br>---- --- --- ----- --- ---- ---- ------- ----- ---- -------<br>--- --- -- ----- -- --- ---- -- --- ---- -- ------ ------<br>--- ----- -- ----,198569.7999999998,198567.19999999925,198116.508,198130.59999999963,198133.173,198583.147,,27,that
screen,html.Screen,2_1_0_1_28,2022-05-09T12:05:12.032Z,,,,,,,,,,,,,,,,,53,,,,,,,,,,,,,,585.1529999998165,,response,,,,99,,,,,,,Space,keypress(Space),,,,,,,,---- -- ----- -- ------ - ------- --- ----------<br>------------- ------ ------ ---- ---- ------- ----- -- ----<br>-------- ------- -- ---------- --- - --- ----- ----- ----<br>it's --- --- ----- --- ---- ---- ------- ----- ---- -------<br>--- --- -- ----- -- --- ---- -- --- ---- -- ------ ------<br>--- ----- -- ----,199170.19999999925,199168.2999999998,198566.482,198570.09999999963,198583.147,199183.107,,28,it's
screen,html.Screen,2_1_0_1_29,2022-05-09T12:05:12.721Z,,,,,,,,,,,,,,,,,53,,,,,,,,,,,,,,673.6929999998247,,response,,,,99,,,,,,,Space,keypress(Space),,,,,,,,---- -- ----- -- ------ - ------- --- ----------<br>------------- ------ ------ ---- ---- ------- ----- -- ----<br>-------- ------- -- ---------- --- - --- ----- ----- ----<br>---- not --- ----- --- ---- ---- ------- ----- ---- -------<br>--- --- -- ----- -- --- ---- -- --- ---- -- ------ ------<br>--- ----- -- ----,199859.69999999925,199856.7999999998,199166.442,199170.5,199183.107,199866.4,,29,not
screen,html.Screen,2_1_0_1_30,2022-05-09T12:05:13.147Z,,,,,,,,,,,,,,,,,53,,,,,,,,,,,,,,416.1000000000058,,response,,,,99,,,,,,,Space,keypress(Space),,,,,,,,---- -- ----- -- ------ - ------- --- ----------<br>------------- ------ ------ ---- ---- ------- ----- -- ----<br>-------- ------- -- ---------- --- - --- ----- ----- ----<br>---- --- how ----- --- ---- ---- ------- ----- ---- -------<br>--- --- -- ----- -- --- ---- -- --- ---- -- ------ ------<br>--- ----- -- ----,200285.19999999925,200282.5,199849.735,199859.89999999944,199866.4,200299.723,,30,how
screen,html.Screen,2_1_0_1_31,2022-05-09T12:05:13.648Z,,,,,,,,,,,,,,,,,53,,,,,,,,,,,,,,483.5769999998156,,response,,,,99,,,,,,,Space,keypress(Space),,,,,,,,---- -- ----- -- ------ - ------- --- ----------<br>------------- ------ ------ ---- ---- ------- ----- -- ----<br>-------- ------- -- ---------- --- - --- ----- ----- ----<br>---- --- --- close --- ---- ---- ------- ----- ---- -------<br>--- --- -- ----- -- --- ---- -- --- ---- -- ------ ------<br>--- ----- -- ----,200786,200783.2999999998,200283.058,200285.39999999944,200299.723,200799.692,,31,close
screen,html.Screen,2_1_0_1_32,2022-05-09T12:05:14.136Z,,,,,,,,,,,,,,,,,53,,,,,,,,,,,,,,471.6079999998037,,response,,,,99,,,,,,,Space,keypress(Space),,,,,,,,---- -- ----- -- ------ - ------- --- ----------<br>------------- ------ ------ ---- ---- ------- ----- -- ----<br>-------- ------- -- ---------- --- - --- ----- ----- ----<br>---- --- --- ----- you ---- ---- ------- ----- ---- -------<br>--- --- -- ----- -- --- ---- -- --- ---- -- ------ ------<br>--- ----- -- ----,201273.89999999944,201271.2999999998,200783.027,200786.2999999998,200799.692,201283,,32,you
screen,html.Screen,2_1_0_1_33,2022-05-09T12:05:14.640Z,,,,,,,,,,,,,,,,,53,,,,,,,,,,,,,,493.79999999981374,,response,,,,99,,,,,,,Space,keypress(Space),,,,,,,,---- -- ----- -- ------ - ------- --- ----------<br>------------- ------ ------ ---- ---- ------- ----- -- ----<br>-------- ------- -- ---------- --- - --- ----- ----- ----<br>---- --- --- ----- --- feel ---- ------- ----- ---- -------<br>--- --- -- ----- -- --- ---- -- --- ---- -- ------ ------<br>--- ----- -- ----,201778.69999999925,201776.7999999998,201266.335,201274.19999999925,201283,201782.972,,33,feel
screen,html.Screen,2_1_0_1_34,2022-05-09T12:05:15.219Z,,,,,,,,,,,,,,,,,53,,,,,,,,,,,,,,571.8279999998049,,response,,,,99,,,,,,,Space,keypress(Space),,,,,,,,---- -- ----- -- ------ - ------- --- ----------<br>------------- ------ ------ ---- ---- ------- ----- -- ----<br>-------- ------- -- ---------- --- - --- ----- ----- ----<br>---- --- --- ----- --- ---- that ------- ----- ---- -------<br>--- --- -- ----- -- --- ---- -- --- ---- -- ------ ------<br>--- ----- -- ----,202357.09999999963,202354.7999999998,201766.307,201779,201782.972,202366.272,,34,that
screen,html.Screen,2_1_0_1_35,2022-05-09T12:05:15.680Z,,,,,,,,,,,,,,,,,53,,,,,,,,,,,,,,449.627999999444,,response,,,,99,,,,,,,Space,keypress(Space),,,,,,,,---- -- ----- -- ------ - ------- --- ----------<br>------------- ------ ------ ---- ---- ------- ----- -- ----<br>-------- ------- -- ---------- --- - --- ----- ----- ----<br>---- --- --- ----- --- ---- ---- matters ----- ---- -------<br>--- --- -- ----- -- --- ---- -- --- ---- -- ------ ------<br>--- ----- -- ----,202818.2999999998,202815.89999999944,202349.607,202357.39999999944,202366.272,202832.917,,35,matters
screen,html.Screen,2_1_0_1_36,2022-05-09T12:05:16.438Z,,,,,,,,,,,,,,,,,53,,,,,,,,,,,,,,741.2829999992682,,response,,,,99,,,,,,,Space,keypress(Space),,,,,,,,"---- -- ----- -- ------ - ------- --- ----------<br>------------- ------ ------ ---- ---- ------- ----- -- ----<br>-------- ------- -- ---------- --- - --- ----- ----- ----<br>---- --- --- ----- --- ---- ---- ------- most, ---- -------<br>--- --- -- ----- -- --- ---- -- --- ---- -- ------ ------<br>--- ----- -- ----",203576.69999999925,203574.19999999925,202816.252,202818.5,202832.917,203582.865,,36,"most,"
screen,html.Screen,2_1_0_1_37,2022-05-09T12:05:16.887Z,,,,,,,,,,,,,,,,,53,,,,,,,,,,,,,,439.93499999982305,,response,,,,99,,,,,,,Space,keypress(Space),,,,,,,,---- -- ----- -- ------ - ------- --- ----------<br>------------- ------ ------ ---- ---- ------- ----- -- ----<br>-------- ------- -- ---------- --- - --- ----- ----- ----<br>---- --- --- ----- --- ---- ---- ------- ----- it's -------<br>--- --- -- ----- -- --- ---- -- --- ---- -- ------ ------<br>--- ----- -- ----,204024.89999999944,204022.7999999998,203566.2,203576.89999999944,203582.865,204032.855,,37,it's
screen,html.Screen,2_1_0_1_38,2022-05-09T12:05:17.380Z,,,,,,,,,,,,,,,,,53,,,,,,,,,,,,,,483.54499999943073,,response,,,,99,,,,,,,Space,keypress(Space),,,,,,,,---- -- ----- -- ------ - ------- --- ----------<br>------------- ------ ------ ---- ---- ------- ----- -- ----<br>-------- ------- -- ---------- --- - --- ----- ----- ----<br>---- --- --- ----- --- ---- ---- ------- ----- ---- whether<br>--- --- -- ----- -- --- ---- -- --- ---- -- ------ ------<br>--- ----- -- ----,204518.39999999944,204516.39999999944,204016.19,204025.09999999963,204032.855,204532.826,,38,whether
screen,html.Screen,2_1_0_1_39,2022-05-09T12:05:17.841Z,,,,,,,,,,,,,,,,,53,,,,,,,,,,,,,,444.4739999998128,,response,,,,99,,,,,,,Space,keypress(Space),,,,,,,,---- -- ----- -- ------ - ------- --- ----------<br>------------- ------ ------ ---- ---- ------- ----- -- ----<br>-------- ------- -- ---------- --- - --- ----- ----- ----<br>---- --- --- ----- --- ---- ---- ------- ----- ---- -------<br>you --- -- ----- -- --- ---- -- --- ---- -- ------ ------<br>--- ----- -- ----,204979.39999999944,204977.2999999998,204516.161,204518.59999999963,204532.826,204982.804,,39,you
screen,html.Screen,2_1_0_1_40,2022-05-09T12:05:18.290Z,,,,,,,,,,,,,,,,,53,,,,,,,,,,,,,,442.1959999999963,,response,,,,99,,,,,,,Space,keypress(Space),,,,,,,,---- -- ----- -- ------ - ------- --- ----------<br>------------- ------ ------ ---- ---- ------- ----- -- ----<br>-------- ------- -- ---------- --- - --- ----- ----- ----<br>---- --- --- ----- --- ---- ---- ------- ----- ---- -------<br>--- are -- ----- -- --- ---- -- --- ---- -- ------ ------<br>--- ----- -- ----,205427.7999999998,205425,204966.139,204979.59999999963,204982.804,205432.78,,40,are
screen,html.Screen,2_1_0_1_41,2022-05-09T12:05:18.732Z,,,,,,,,,,,,,,,,,53,,,,,,,,,,,,,,435.5199999998149,,response,,,,99,,,,,,,Space,keypress(Space),,,,,,,,---- -- ----- -- ------ - ------- --- ----------<br>------------- ------ ------ ---- ---- ------- ----- -- ----<br>-------- ------- -- ---------- --- - --- ----- ----- ----<br>---- --- --- ----- --- ---- ---- ------- ----- ---- -------<br>--- --- as ----- -- --- ---- -- --- ---- -- ------ ------<br>--- ----- -- ----,205870.2999999998,205868.2999999998,205416.115,205428.09999999963,205432.78,205882.756,,41,as
screen,html.Screen,2_1_0_1_42,2022-05-09T12:05:19.193Z,,,,,,,,,,,,,,,,,53,,,,,,,,,,,,,,446.443999999261,,response,,,,99,,,,,,,Space,keypress(Space),,,,,,,,---- -- ----- -- ------ - ------- --- ----------<br>------------- ------ ------ ---- ---- ------- ----- -- ----<br>-------- ------- -- ---------- --- - --- ----- ----- ----<br>---- --- --- ----- --- ---- ---- ------- ----- ---- -------<br>--- --- -- close -- --- ---- -- --- ---- -- ------ ------<br>--- ----- -- ----,206331.39999999944,206329.19999999925,205866.091,205870.5,205882.756,206332.731,,42,close
screen,html.Screen,2_1_0_1_43,2022-05-09T12:05:19.652Z,,,,,,,,,,,,,,,,,53,,,,,,,,,,,,,,455.16899999944144,,response,,,,99,,,,,,,Space,keypress(Space),,,,,,,,---- -- ----- -- ------ - ------- --- ----------<br>------------- ------ ------ ---- ---- ------- ----- -- ----<br>-------- ------- -- ---------- --- - --- ----- ----- ----<br>---- --- --- ----- --- ---- ---- ------- ----- ---- -------<br>--- --- -- ----- as --- ---- -- --- ---- -- ------ ------<br>--- ----- -- ----,206789.89999999944,206787.89999999944,206316.066,206331.69999999925,206332.731,206799.373,,43,as
screen,html.Screen,2_1_0_1_44,2022-05-09T12:05:20.112Z,,,,,,,,,,,,,,,,,53,,,,,,,,,,,,,,449.0269999994489,,response,,,,99,,,,,,,Space,keypress(Space),,,,,,,,---- -- ----- -- ------ - ------- --- ----------<br>------------- ------ ------ ---- ---- ------- ----- -- ----<br>-------- ------- -- ---------- --- - --- ----- ----- ----<br>---- --- --- ----- --- ---- ---- ------- ----- ---- -------<br>--- --- -- ----- -- you ---- -- --- ---- -- ------ ------<br>--- ----- -- ----,207250.69999999925,207248.39999999944,206782.708,206790.19999999925,206799.373,207266.013,,44,you
screen,html.Screen,2_1_0_1_45,2022-05-09T12:05:20.572Z,,,,,,,,,,,,,,,,,53,,,,,,,,,,,,,,442.78699999980745,,response,,,,99,,,,,,,Space,keypress(Space),,,,,,,,---- -- ----- -- ------ - ------- --- ----------<br>------------- ------ ------ ---- ---- ------- ----- -- ----<br>-------- ------- -- ---------- --- - --- ----- ----- ----<br>---- --- --- ----- --- ---- ---- ------- ----- ---- -------<br>--- --- -- ----- -- --- want -- --- ---- -- ------ ------<br>--- ----- -- ----,207710.5,207708.7999999998,207249.348,207250.89999999944,207266.013,207715.991,,45,want
screen,html.Screen,2_1_0_1_46,2022-05-09T12:05:21.031Z,,,,,,,,,,,,,,,,,53,,,,,,,,,,,,,,451.20899999924586,,response,,,,99,,,,,,,Space,keypress(Space),,,,,,,,---- -- ----- -- ------ - ------- --- ----------<br>------------- ------ ------ ---- ---- ------- ----- -- ----<br>-------- ------- -- ---------- --- - --- ----- ----- ----<br>---- --- --- ----- --- ---- ---- ------- ----- ---- -------<br>--- --- -- ----- -- --- ---- to --- ---- -- ------ ------<br>--- ----- -- ----,208169.2999999998,208167.19999999925,207699.326,207710.7999999998,207715.991,208182.632,,46,to
screen,html.Screen,2_1_0_1_47,2022-05-09T12:05:21.484Z,,,,,,,,,,,,,,,,,53,,,,,,,,,,,,,,437.86799999998766,,response,,,,99,,,,,,,Space,keypress(Space),,,,,,,,"---- -- ----- -- ------ - ------- --- ----------<br>------------- ------ ------ ---- ---- ------- ----- -- ----<br>-------- ------- -- ---------- --- - --- ----- ----- ----<br>---- --- --- ----- --- ---- ---- ------- ----- ---- -------<br>--- --- -- ----- -- --- ---- -- be, ---- -- ------ ------<br>--- ----- -- ----",208622.5,208620.5,208165.967,208169.5,208182.632,208632.608,,47,"be,"
screen,html.Screen,2_1_0_1_48,2022-05-09T12:05:22.000Z,,,,,,,,,,,,,,,,,53,,,,,,,,,,,,,,503.6919999998063,,response,,,,99,,,,,,,Space,keypress(Space),,,,,,,,---- -- ----- -- ------ - ------- --- ----------<br>------------- ------ ------ ---- ---- ------- ----- -- ----<br>-------- ------- -- ---------- --- - --- ----- ----- ----<br>---- --- --- ----- --- ---- ---- ------- ----- ---- -------<br>--- --- -- ----- -- --- ---- -- --- even -- ------ ------<br>--- ----- -- ----,209138.39999999944,209136.2999999998,208615.943,208622.7999999998,208632.608,209149.244,,48,even
screen,html.Screen,2_1_0_1_49,2022-05-09T12:05:22.571Z,,,,,,,,,,,,,,,,,53,,,,,,,,,,,,,,557.8559999996214,,response,,,,99,,,,,,,Space,keypress(Space),,,,,,,,---- -- ----- -- ------ - ------- --- ----------<br>------------- ------ ------ ---- ---- ------- ----- -- ----<br>-------- ------- -- ---------- --- - --- ----- ----- ----<br>---- --- --- ----- --- ---- ---- ------- ----- ---- -------<br>--- --- -- ----- -- --- ---- -- --- ---- if ------ ------<br>--- ----- -- ----,209709.5,209707.09999999963,209132.579,209138.59999999963,209149.244,209715.878,,49,if
screen,html.Screen,2_1_0_1_50,2022-05-09T12:05:23.306Z,,,,,,,,,,,,,,,,,53,,,,,,,,,,,,,,725.122000000003,,response,,,,99,,,,,,,Space,keypress(Space),,,,,,,,---- -- ----- -- ------ - ------- --- ----------<br>------------- ------ ------ ---- ---- ------- ----- -- ----<br>-------- ------- -- ---------- --- - --- ----- ----- ----<br>---- --- --- ----- --- ---- ---- ------- ----- ---- -------<br>--- --- -- ----- -- --- ---- -- --- ---- -- that's ------<br>--- ----- -- ----,210443.89999999944,210441,209699.213,209709.69999999925,209715.878,210449.165,,50,that's
screen,html.Screen,2_1_0_1_51,2022-05-09T12:05:23.923Z,,,,,,,,,,,,,,,,,53,,,,,,,,,,,,,,610.5349999992468,,response,,,,99,,,,,,,Space,keypress(Space),,,,,,,,---- -- ----- -- ------ - ------- --- ----------<br>------------- ------ ------ ---- ---- ------- ----- -- ----<br>-------- ------- -- ---------- --- - --- ----- ----- ----<br>---- --- --- ----- --- ---- ---- ------- ----- ---- -------<br>--- --- -- ----- -- --- ---- -- --- ---- -- ------ really<br>--- ----- -- ----,211061.59999999963,211059.69999999925,210432.5,210444.09999999963,210449.165,211065.804,,51,really
screen,html.Screen,2_1_0_1_52,2022-05-09T12:05:24.560Z,,,,,,,,,,,,,,,,,53,,,,,,,,,,,,,,630.3959999992512,,response,,,,99,,,,,,,Space,keypress(Space),,,,,,,,---- -- ----- -- ------ - ------- --- ----------<br>------------- ------ ------ ---- ---- ------- ----- -- ----<br>-------- ------- -- ---------- --- - --- ----- ----- ----<br>---- --- --- ----- --- ---- ---- ------- ----- ---- -------<br>--- --- -- ----- -- --- ---- -- --- ---- -- ------ ------<br>not ----- -- ----,211698.69999999925,211696.19999999925,211049.139,211061.89999999944,211065.804,211715.768,,52,not
screen,html.Screen,2_1_0_1_53,2022-05-09T12:05:25.054Z,,,,,,,,,,,,,,,,,53,,,,,,,,,,,,,,474.23199999998906,,response,,,,99,,,,,,,Space,keypress(Space),,,,,,,,---- -- ----- -- ------ - ------- --- ----------<br>------------- ------ ------ ---- ---- ------- ----- -- ----<br>-------- ------- -- ---------- --- - --- ----- ----- ----<br>---- --- --- ----- --- ---- ---- ------- ----- ---- -------<br>--- --- -- ----- -- --- ---- -- --- ---- -- ------ ------<br>--- close -- ----,212191.89999999944,212190,211699.103,211699,211715.768,212199.082,,53,close
screen,html.Screen,2_1_0_1_54,2022-05-09T12:05:25.607Z,,,,,,,,,,,,,,,,,53,,,,,,,,,,,,,,544.3179999994463,,response,,,,99,,,,,,,Space,keypress(Space),,,,,,,,---- -- ----- -- ------ - ------- --- ----------<br>------------- ------ ------ ---- ---- ------- ----- -- ----<br>-------- ------- -- ---------- --- - --- ----- ----- ----<br>---- --- --- ----- --- ---- ---- ------- ----- ---- -------<br>--- --- -- ----- -- --- ---- -- --- ---- -- ------ ------<br>--- ----- at ----,212745.5,212743.39999999944,212182.417,212192.09999999963,212199.082,212749.05,,54,at
screen,html.Screen,2_1_0_1_55,2022-05-09T12:05:26.253Z,,,,,,,,,,,,,,,,,53,,,,,,,,,,,,,,640.5499999996391,,response,,,,99,,,,,,,Space,keypress(Space),,,,,,,,---- -- ----- -- ------ - ------- --- ----------<br>------------- ------ ------ ---- ---- ------- ----- -- ----<br>-------- ------- -- ---------- --- - --- ----- ----- ----<br>---- --- --- ----- --- ---- ---- ------- ----- ---- -------<br>--- --- -- ----- -- --- ---- -- --- ---- -- ------ ------<br>--- ----- -- all.,213391.39999999944,213389.59999999963,212732.385,212745.7999999998,212749.05,213399.011,,55,all.
Item 99,flow.Loop,2_1_0_1,2022-05-09T12:05:26.254Z,,,,,,,,,,,,,,,,,,,,,,,,,,,,,,,36571.978999999614,,completion,,,,,D,,,,,,,,,,,silence,,,,,213392,213389.59999999963,176800.956,176802.19999999925,176817.621,213399.011,,,
Question 1,html.Screen,2_1_0_2,2022-05-09T12:05:33.820Z,,,,,,,,,,,,,,,,,,,,,,,,,,,,false,FALSE,,7557.588999999629,,response,,,,99,D,,,,,,TRUE,click #choice-1,,,,silence,,,,,220958.69999999925,220956.59999999963,213382.346,213392.19999999925,213399.011,220965.276,,,
Question 2,html.Screen,2_1_0_3,2022-05-09T12:05:49.754Z,,,,,,,,,,,,,,,,,,,,,,,,,,,,true,TRUE,,15925.323999999615,,response,,,,99,D,,,,,,TRUE,click #choice-1,,,,silence,,,,,236892.39999999944,236890.59999999963,220948.611,220959,220965.276,236897.739,,,
Item 99,flow.Sequence,2_1_0,2022-05-09T12:05:49.754Z,,,,,,,,,,,,,,,,,,,,,,,,,,,,,,,70073.90299999964,,completion,,,,,,,,,,,,,,,,,,,,,236892.7999999998,236890.59999999963,166800.032,166805.09999999963,166816.697,236897.739,,,
Holding screen,html.Screen,2_1_1_0,2022-05-09T12:05:59.743Z,,,,,,,,,,,,,,,,,,,,,,,,,,,,,,,9999.462,,timeout,,,,,,,,,,,,,,,,,,,,,246881.69999999925,246880.536,236881.074,236893.09999999963,236897.739,246897.201,,,
screen,html.Screen,2_1_1_1_0,2022-05-09T12:06:01.343Z,,,,,,,,,,,,,,,,,54,,,,,,,,,,,,,,1580.6989999994403,,response,,,,100,,,,,,,Space,keypress(Space),,,,,,,,At --- ---- --- ------ ----- ------- ---- -- --- ------- --<br>------- ---------- ------ -- ----- -- ----- -- ---- ------<br>--- ----- --- --- ------ -------- ----- --- ------ ----- --<br>----- ----- ---------- --- --- ------ ------ ---- -- ------<br>------- --- ------ ----- --- ---- ------- -- ---- --- --<br>------- ------,248481,248477.89999999944,246880.536,246882.09999999963,246897.201,248497.086,,0,At
screen,html.Screen,2_1_1_1_1,2022-05-09T12:06:01.797Z,,,,,,,,,,,,,,,,,54,,,,,,,,,,,,,,436.81399999943096,,response,,,,100,,,,,,,Space,keypress(Space),,,,,,,,-- the ---- --- ------ ----- ------- ---- -- --- ------- --<br>------- ---------- ------ -- ----- -- ----- -- ---- ------<br>--- ----- --- --- ------ -------- ----- --- ------ ----- --<br>----- ----- ---------- --- --- ------ ------ ---- -- ------<br>------- --- ------ ----- --- ---- ------- -- ---- --- --<br>------- ------,248935.7999999998,248933.89999999944,248480.421,248481.2999999998,248497.086,248947.116,,1,the
screen,html.Screen,2_1_1_1_2,2022-05-09T12:06:02.184Z,,,,,,,,,,,,,,,,,54,,,,,,,,,,,,,,373.08399999924586,,response,,,,100,,,,,,,Space,keypress(Space),,,,,,,,-- --- time --- ------ ----- ------- ---- -- --- ------- --<br>------- ---------- ------ -- ----- -- ----- -- ---- ------<br>--- ----- --- --- ------ -------- ----- --- ------ ----- --<br>----- ----- ---------- --- --- ------ ------ ---- -- ------<br>------- --- ------ ----- --- ---- ------- -- ---- --- --<br>------- ------,249322.09999999963,249320.19999999925,248930.451,248936,248947.116,249330.432,,2,time
screen,html.Screen,2_1_1_1_3,2022-05-09T12:06:02.559Z,,,,,,,,,,,,,,,,,54,,,,,,,,,,,,,,365.0679999999993,,response,,,,100,,,,,,,Space,keypress(Space),,,,,,,,-- --- ---- the ------ ----- ------- ---- -- --- ------- --<br>------- ---------- ------ -- ----- -- ----- -- ---- ------<br>--- ----- --- --- ------ -------- ----- --- ------ ----- --<br>----- ----- ---------- --- --- ------ ------ ---- -- ------<br>------- --- ------ ----- --- ---- ------- -- ---- --- --<br>------- ------,249697.69999999925,249695.5,249313.767,249322.2999999998,249330.432,249713.745,,3,the
screen,html.Screen,2_1_1_1_4,2022-05-09T12:06:02.933Z,,,,,,,,,,,,,,,,,54,,,,,,,,,,,,,,355.4549999992596,,response,,,,100,,,,,,,Space,keypress(Space),,,,,,,,-- --- ---- --- French ----- ------- ---- -- --- ------- --<br>------- ---------- ------ -- ----- -- ----- -- ---- ------<br>--- ----- --- --- ------ -------- ----- --- ------ ----- --<br>----- ----- ---------- --- --- ------ ------ ---- -- ------<br>------- --- ------ ----- --- ---- ------- -- ---- --- --<br>------- ------,250071.39999999944,250069.19999999925,249697.08,249697.89999999944,249713.745,250080.392,,4,French
screen,html.Screen,2_1_1_1_5,2022-05-09T12:06:03.472Z,,,,,,,,,,,,,,,,,54,,,,,,,,,,,,,,527.8079999992624,,response,,,,100,,,,,,,Space,keypress(Space),,,,,,,,-- --- ---- --- ------ crown ------- ---- -- --- ------- --<br>------- ---------- ------ -- ----- -- ----- -- ---- ------<br>--- ----- --- --- ------ -------- ----- --- ------ ----- --<br>----- ----- ---------- --- --- ------ ------ ---- -- ------<br>------- --- ------ ----- --- ---- ------- -- ---- --- --<br>------- ------,250610.39999999944,250608.19999999925,250063.727,250071.69999999925,250080.392,250613.689,,5,crown
screen,html.Screen,2_1_1_1_6,2022-05-09T12:06:03.853Z,,,,,,,,,,,,,,,,,54,,,,,,,,,,,,,,375.6109999998007,,response,,,,100,,,,,,,Space,keypress(Space),,,,,,,,-- --- ---- --- ------ ----- secured ---- -- --- ------- --<br>------- ---------- ------ -- ----- -- ----- -- ---- ------<br>--- ----- --- --- ------ -------- ----- --- ------ ----- --<br>----- ----- ---------- --- --- ------ ------ ---- -- ------<br>------- --- ------ ----- --- ---- ------- -- ---- --- --<br>------- ------,250991.39999999944,250989.2999999998,250597.024,250610.59999999963,250613.689,250997.01,,6,secured
screen,html.Screen,2_1_1_1_7,2022-05-09T12:06:04.356Z,,,,,,,,,,,,,,,,,54,,,,,,,,,,,,,,495.58999999961816,,response,,,,100,,,,,,,Space,keypress(Space),,,,,,,,-- --- ---- --- ------ ----- ------- much -- --- ------- --<br>------- ---------- ------ -- ----- -- ----- -- ---- ------<br>--- ----- --- --- ------ -------- ----- --- ------ ----- --<br>----- ----- ---------- --- --- ------ ------ ---- -- ------<br>------- --- ------ ----- --- ---- ------- -- ---- --- --<br>------- ------,251494.7999999998,251492.59999999963,250980.345,250991.69999999925,250997.01,251496.978,,7,much
screen,html.Screen,2_1_1_1_8,2022-05-09T12:06:04.820Z,,,,,,,,,,,,,,,,,54,,,,,,,,,,,,,,458.9219999994384,,response,,,,100,,,,,,,Space,keypress(Space),,,,,,,,-- --- ---- --- ------ ----- ------- ---- of --- ------- --<br>------- ---------- ------ -- ----- -- ----- -- ---- ------<br>--- ----- --- --- ------ -------- ----- --- ------ ----- --<br>----- ----- ---------- --- --- ------ ------ ---- -- ------<br>------- --- ------ ----- --- ---- ------- -- ---- --- --<br>------- ------,251958.19999999925,251955.89999999944,251480.313,251495.09999999963,251496.978,251963.621,,8,of
screen,html.Screen,2_1_1_1_9,2022-05-09T12:06:05.216Z,,,,,,,,,,,,,,,,,54,,,,,,,,,,,,,,388.37899999998626,,response,,,,100,,,,,,,Space,keypress(Space),,,,,,,,-- --- ---- --- ------ ----- ------- ---- -- its ------- --<br>------- ---------- ------ -- ----- -- ----- -- ---- ------<br>--- ----- --- --- ------ -------- ----- --- ------ ----- --<br>----- ----- ---------- --- --- ------ ------ ---- -- ------<br>------- --- ------ ----- --- ---- ------- -- ---- --- --<br>------- ------,252354.19999999925,252352,251946.956,251958.39999999944,251963.621,252363.602,,9,its
screen,html.Screen,2_1_1_1_10,2022-05-09T12:06:05.609Z,,,,,,,,,,,,,,,,,54,,,,,,,,,,,,,,381.8979999999865,,response,,,,100,,,,,,,Space,keypress(Space),,,,,,,,-- --- ---- --- ------ ----- ------- ---- -- --- revenue --<br>------- ---------- ------ -- ----- -- ----- -- ---- ------<br>--- ----- --- --- ------ -------- ----- --- ------ ----- --<br>----- ----- ---------- --- --- ------ ------ ---- -- ------<br>------- --- ------ ----- --- ---- ------- -- ---- --- --<br>------- ------,252747.5,252745.5,252346.937,252354.39999999944,252363.602,252763.58,,10,revenue
screen,html.Screen,2_1_1_1_11,2022-05-09T12:06:05.955Z,,,,,,,,,,,,,,,,,54,,,,,,,,,,,,,,327.71999999982654,,response,,,,100,,,,,,,Space,keypress(Space),,,,,,,,-- --- ---- --- ------ ----- ------- ---- -- --- ------- by<br>------- ---------- ------ -- ----- -- ----- -- ---- ------<br>--- ----- --- --- ------ -------- ----- --- ------ ----- --<br>----- ----- ---------- --- --- ------ ------ ---- -- ------<br>------- --- ------ ----- --- ---- ------- -- ---- --- --<br>------- ------,253093.69999999925,253091.2999999998,252746.915,252747.69999999925,252763.58,253096.899,,11,by
screen,html.Screen,2_1_1_1_12,2022-05-09T12:06:06.331Z,,,,,,,,,,,,,,,,,54,,,,,,,,,,,,,,370.1009999999951,,response,,,,100,,,,,,,Space,keypress(Space),,,,,,,,-- --- ---- --- ------ ----- ------- ---- -- --- ------- --<br>issuing ---------- ------ -- ----- -- ----- -- ---- ------<br>--- ----- --- --- ------ -------- ----- --- ------ ----- --<br>----- ----- ---------- --- --- ------ ------ ---- -- ------<br>------- --- ------ ----- --- ---- ------- -- ---- --- --<br>------- ------,253469.2999999998,253467,253080.234,253094,253096.899,253480.21,,12,issuing
screen,html.Screen,2_1_1_1_13,2022-05-09T12:06:06.638Z,,,,,,,,,,,,,,,,,54,,,,,,,,,,,,,,294.3899999996356,,response,,,,100,,,,,,,Space,keypress(Space),,,,,,,,-- --- ---- --- ------ ----- ------- ---- -- --- ------- --<br>------- government ------ -- ----- -- ----- -- ---- ------<br>--- ----- --- --- ------ -------- ----- --- ------ ----- --<br>----- ----- ---------- --- --- ------ ------ ---- -- ------<br>------- --- ------ ----- --- ---- ------- -- ---- --- --<br>------- ------,253776.7999999998,253774.59999999963,253463.545,253469.5,253480.21,253780.197,,13,government
screen,html.Screen,2_1_1_1_14,2022-05-09T12:06:06.977Z,,,,,,,,,,,,,,,,,54,,,,,,,,,,,,,,332.70299999945564,,response,,,,100,,,,,,,Space,keypress(Space),,,,,,,,-- --- ---- --- ------ ----- ------- ---- -- --- ------- --<br>------- ---------- bonds. -- ----- -- ----- -- ---- ------<br>--- ----- --- --- ------ -------- ----- --- ------ ----- --<br>----- ----- ---------- --- --- ------ ------ ---- -- ------<br>------- --- ------ ----- --- ---- ------- -- ---- --- --<br>------- ------,254115.19999999925,254112.89999999944,253763.532,253777,253780.197,254130.177,,14,bonds.
screen,html.Screen,2_1_1_1_15,2022-05-09T12:06:07.347Z,,,,,,,,,,,,,,,,,54,,,,,,,,,,,,,,353.5229999992589,,response,,,,100,,,,,,,Space,keypress(Space),,,,,,,,-- --- ---- --- ------ ----- ------- ---- -- --- ------- --<br>------- ---------- ------ In ----- -- ----- -- ---- ------<br>--- ----- --- --- ------ -------- ----- --- ------ ----- --<br>----- ----- ---------- --- --- ------ ------ ---- -- ------<br>------- --- ------ ----- --- ---- ------- -- ---- --- --<br>------- ------,254485.5,254483.69999999925,254113.512,254115.5,254130.177,254496.822,,15,In
screen,html.Screen,2_1_1_1_16,2022-05-09T12:06:07.706Z,,,,,,,,,,,,,,,,,54,,,,,,,,,,,,,,345.2779999996419,,response,,,,100,,,,,,,Space,keypress(Space),,,,,,,,"-- --- ---- --- ------ ----- ------- ---- -- --- ------- --<br>------- ---------- ------ -- 1727, -- ----- -- ---- ------<br>--- ----- --- --- ------ -------- ----- --- ------ ----- --<br>----- ----- ---------- --- --- ------ ------ ---- -- ------<br>------- --- ------ ----- --- ---- ------- -- ---- --- --<br>------- ------",254844.09999999963,254842.09999999963,254480.157,254485.7999999998,254496.822,254846.804,,16,"1727,"
screen,html.Screen,2_1_1_1_17,2022-05-09T12:06:08.967Z,,,,,,,,,,,,,,,,,54,,,,,,,,,,,,,,1255.8959999992512,,response,,,,100,,,,,,,Space,keypress(Space),,,,,,,,-- --- ---- --- ------ ----- ------- ---- -- --- ------- --<br>------- ---------- ------ -- ----- in ----- -- ---- ------<br>--- ----- --- --- ------ -------- ----- --- ------ ----- --<br>----- ----- ---------- --- --- ------ ------ ---- -- ------<br>------- --- ------ ----- --- ---- ------- -- ---- --- --<br>------- ------,256105,256102.69999999925,254830.139,254844.39999999944,254846.804,256113.361,,17,in
screen,html.Screen,2_1_1_1_18,2022-05-09T12:06:09.483Z,,,,,,,,,,,,,,,,,54,,,,,,,,,,,,,,505.8389999992505,,response,,,,100,,,,,,,Space,keypress(Space),,,,,,,,-- --- ---- --- ------ ----- ------- ---- -- --- ------- --<br>------- ---------- ------ -- ----- -- order -- ---- ------<br>--- ----- --- --- ------ -------- ----- --- ------ ----- --<br>----- ----- ---------- --- --- ------ ------ ---- -- ------<br>------- --- ------ ----- --- ---- ------- -- ---- --- --<br>------- ------,256621.5,256619.19999999925,256096.696,256105.19999999925,256113.361,256630.035,,18,order
screen,html.Screen,2_1_1_1_19,2022-05-09T12:06:09.902Z,,,,,,,,,,,,,,,,,54,,,,,,,,,,,,,,407.66499999925145,,response,,,,100,,,,,,,Space,keypress(Space),,,,,,,,-- --- ---- --- ------ ----- ------- ---- -- --- ------- --<br>------- ---------- ------ -- ----- -- ----- to ---- ------<br>--- ----- --- --- ------ -------- ----- --- ------ ----- --<br>----- ----- ---------- --- --- ------ ------ ---- -- ------<br>------- --- ------ ----- --- ---- ------- -- ---- --- --<br>------- ------,257040,257037.69999999925,256613.37,256621.69999999925,256630.035,257046.683,,19,to
screen,html.Screen,2_1_1_1_20,2022-05-09T12:06:10.237Z,,,,,,,,,,,,,,,,,54,,,,,,,,,,,,,,326.4169999996375,,response,,,,100,,,,,,,Space,keypress(Space),,,,,,,,-- --- ---- --- ------ ----- ------- ---- -- --- ------- --<br>------- ---------- ------ -- ----- -- ----- -- save ------<br>--- ----- --- --- ------ -------- ----- --- ------ ----- --<br>----- ----- ---------- --- --- ------ ------ ---- -- ------<br>------- --- ------ ----- --- ---- ------- -- ---- --- --<br>------- ------,257375,257373.09999999963,257030.018,257040.19999999925,257046.683,257380.004,,20,save
screen,html.Screen,2_1_1_1_21,2022-05-09T12:06:10.650Z,,,,,,,,,,,,,,,,,54,,,,,,,,,,,,,,406.5959999996412,,response,,,,100,,,,,,,Space,keypress(Space),,,,,,,,"-- --- ---- --- ------ ----- ------- ---- -- --- ------- --<br>------- ---------- ------ -- ----- -- ----- -- ---- money,<br>--- ----- --- --- ------ -------- ----- --- ------ ----- --<br>----- ----- ---------- --- --- ------ ------ ---- -- ------<br>------- --- ------ ----- --- ---- ------- -- ---- --- --<br>------- ------",257788.69999999925,257786.59999999963,257363.339,257375.2999999998,257380.004,257796.644,,21,"money,"
screen,html.Screen,2_1_1_1_22,2022-05-09T12:06:11.117Z,,,,,,,,,,,,,,,,,54,,,,,,,,,,,,,,456.1559999998135,,response,,,,100,,,,,,,Space,keypress(Space),,,,,,,,-- --- ---- --- ------ ----- ------- ---- -- --- ------- --<br>------- ---------- ------ -- ----- -- ----- -- ---- ------<br>the ----- --- --- ------ -------- ----- --- ------ ----- --<br>----- ----- ---------- --- --- ------ ------ ---- -- ------<br>------- --- ------ ----- --- ---- ------- -- ---- --- --<br>------- ------,258255.39999999944,258252.7999999998,257779.979,257789,257796.644,258263.283,,22,the
screen,html.Screen,2_1_1_1_23,2022-05-09T12:06:11.440Z,,,,,,,,,,,,,,,,,54,,,,,,,,,,,,,,312.31699999963166,,response,,,,100,,,,,,,Space,keypress(Space),,,,,,,,-- --- ---- --- ------ ----- ------- ---- -- --- ------- --<br>------- ---------- ------ -- ----- -- ----- -- ---- ------<br>--- state --- --- ------ -------- ----- --- ------ ----- --<br>----- ----- ---------- --- --- ------ ------ ---- -- ------<br>------- --- ------ ----- --- ---- ------- -- ---- --- --<br>------- ------,258578.39999999944,258575.59999999963,258246.618,258255.5,258263.283,258579.94,,23,state
screen,html.Screen,2_1_1_1_24,2022-05-09T12:06:11.788Z,,,,,,,,,,,,,,,,,54,,,,,,,,,,,,,,344.2599999992526,,response,,,,100,,,,,,,Space,keypress(Space),,,,,,,,-- --- ---- --- ------ ----- ------- ---- -- --- ------- --<br>------- ---------- ------ -- ----- -- ----- -- ---- ------<br>--- ----- cut --- ------ -------- ----- --- ------ ----- --<br>----- ----- ---------- --- --- ------ ------ ---- -- ------<br>------- --- ------ ----- --- ---- ------- -- ---- --- --<br>------- ------,258926.19999999925,258924.19999999925,258563.275,258578.69999999925,258579.94,258929.92,,24,cut
screen,html.Screen,2_1_1_1_25,2022-05-09T12:06:12.121Z,,,,,,,,,,,,,,,,,54,,,,,,,,,,,,,,327.4799999994284,,response,,,,100,,,,,,,Space,keypress(Space),,,,,,,,-- --- ---- --- ------ ----- ------- ---- -- --- ------- --<br>------- ---------- ------ -- ----- -- ----- -- ---- ------<br>--- ----- --- the ------ -------- ----- --- ------ ----- --<br>----- ----- ---------- --- --- ------ ------ ---- -- ------<br>------- --- ------ ----- --- ---- ------- -- ---- --- --<br>------- ------,259259.2999999998,259257.39999999944,258913.255,258926.5,258929.92,259263.236,,25,the
screen,html.Screen,2_1_1_1_26,2022-05-09T12:06:12.467Z,,,,,,,,,,,,,,,,,54,,,,,,,,,,,,,,340.36399999962305,,response,,,,100,,,,,,,Space,keypress(Space),,,,,,,,-- --- ---- --- ------ ----- ------- ---- -- --- ------- --<br>------- ---------- ------ -- ----- -- ----- -- ---- ------<br>--- ----- --- --- bonds' -------- ----- --- ------ ----- --<br>----- ----- ---------- --- --- ------ ------ ---- -- ------<br>------- --- ------ ----- --- ---- ------- -- ---- --- --<br>------- ------,259605.69999999925,259603.59999999963,259246.571,259259.59999999963,259263.236,259613.216,,26,bonds'
screen,html.Screen,2_1_1_1_27,2022-05-09T12:06:12.883Z,,,,,,,,,,,,,,,,,54,,,,,,,,,,,,,,405.8839999996417,,response,,,,100,,,,,,,Space,keypress(Space),,,,,,,,-- --- ---- --- ------ ----- ------- ---- -- --- ------- --<br>------- ---------- ------ -- ----- -- ----- -- ---- ------<br>--- ----- --- --- ------ interest ----- --- ------ ----- --<br>----- ----- ---------- --- --- ------ ------ ---- -- ------<br>------- --- ------ ----- --- ---- ------- -- ---- --- --<br>------- ------,260021.2999999998,260019.09999999963,259596.551,259606,259613.216,260029.858,,27,interest
screen,html.Screen,2_1_1_1_28,2022-05-09T12:06:13.241Z,,,,,,,,,,,,,,,,,54,,,,,,,,,,,,,,347.14199999999255,,response,,,,100,,,,,,,Space,keypress(Space),,,,,,,,-- --- ---- --- ------ ----- ------- ---- -- --- ------- --<br>------- ---------- ------ -- ----- -- ----- -- ---- ------<br>--- ----- --- --- ------ -------- rate. --- ------ ----- --<br>----- ----- ---------- --- --- ------ ------ ---- -- ------<br>------- --- ------ ----- --- ---- ------- -- ---- --- --<br>------- ------,260379.5,260377,260013.193,260021.69999999925,260029.858,260396.507,,28,rate.
screen,html.Screen,2_1_1_1_29,2022-05-09T12:06:13.616Z,,,,,,,,,,,,,,,,,54,,,,,,,,,,,,,,356.1929999992426,,response,,,,100,,,,,,,Space,keypress(Space),,,,,,,,-- --- ---- --- ------ ----- ------- ---- -- --- ------- --<br>------- ---------- ------ -- ----- -- ----- -- ---- ------<br>--- ----- --- --- ------ -------- ----- The ------ ----- --<br>----- ----- ---------- --- --- ------ ------ ---- -- ------<br>------- --- ------ ----- --- ---- ------- -- ---- --- --<br>------- ------,260754.69999999925,260752.69999999925,260379.842,260379.69999999925,260396.507,260763.153,,29,The
screen,html.Screen,2_1_1_1_30,2022-05-09T12:06:13.992Z,,,,,,,,,,,,,,,,,54,,,,,,,,,,,,,,365.1469999998226,,response,,,,100,,,,,,,Space,keypress(Space),,,,,,,,-- --- ---- --- ------ ----- ------- ---- -- --- ------- --<br>------- ---------- ------ -- ----- -- ----- -- ---- ------<br>--- ----- --- --- ------ -------- ----- --- market ----- --<br>----- ----- ---------- --- --- ------ ------ ---- -- ------<br>------- --- ------ ----- --- ---- ------- -- ---- --- --<br>------- ------,261130.2999999998,261128.2999999998,260746.488,260755.09999999963,260763.153,261146.466,,30,market
screen,html.Screen,2_1_1_1_31,2022-05-09T12:06:14.463Z,,,,,,,,,,,,,,,,,54,,,,,,,,,,,,,,452.1339999996417,,response,,,,100,,,,,,,Space,keypress(Space),,,,,,,,-- --- ---- --- ------ ----- ------- ---- -- --- ------- --<br>------- ---------- ------ -- ----- -- ----- -- ---- ------<br>--- ----- --- --- ------ -------- ----- --- ------ value --<br>----- ----- ---------- --- --- ------ ------ ---- -- ------<br>------- --- ------ ----- --- ---- ------- -- ---- --- --<br>------- ------,261600.7999999998,261598.59999999963,261129.801,261130.59999999963,261146.466,261613.103,,31,value
screen,html.Screen,2_1_1_1_32,2022-05-09T12:06:14.909Z,,,,,,,,,,,,,,,,,54,,,,,,,,,,,,,,431.59699999925215,,response,,,,100,,,,,,,Space,keypress(Space),,,,,,,,-- --- ---- --- ------ ----- ------- ---- -- --- ------- --<br>------- ---------- ------ -- ----- -- ----- -- ---- ------<br>--- ----- --- --- ------ -------- ----- --- ------ ----- of<br>----- ----- ---------- --- --- ------ ------ ---- -- ------<br>------- --- ------ ----- --- ---- ------- -- ---- --- --<br>------- ------,262046.89999999944,262044.69999999925,261596.438,261601.09999999963,261613.103,262063.08,,32,of
screen,html.Screen,2_1_1_1_33,2022-05-09T12:06:15.369Z,,,,,,,,,,,,,,,,,54,,,,,,,,,,,,,,442.5199999996403,,response,,,,100,,,,,,,Space,keypress(Space),,,,,,,,-- --- ---- --- ------ ----- ------- ---- -- --- ------- --<br>------- ---------- ------ -- ----- -- ----- -- ---- ------<br>--- ----- --- --- ------ -------- ----- --- ------ ----- --<br>these ----- ---------- --- --- ------ ------ ---- -- ------<br>------- --- ------ ----- --- ---- ------- -- ---- --- --<br>------- ------,262507.5,262505.5999999996,262046.415,262047.09999999963,262063.08,262513.056,,33,these
screen,html.Screen,2_1_1_1_34,2022-05-09T12:06:15.710Z,,,,,,,,,,,,,,,,,54,,,,,,,,,,,,,,333.14399999927264,,response,,,,100,,,,,,,Space,keypress(Space),,,,,,,,-- --- ---- --- ------ ----- ------- ---- -- --- ------- --<br>------- ---------- ------ -- ----- -- ----- -- ---- ------<br>--- ----- --- --- ------ -------- ----- --- ------ ----- --<br>----- bonds ---------- --- --- ------ ------ ---- -- ------<br>------- --- ------ ----- --- ---- ------- -- ---- --- --<br>------- ------,262848.19999999925,262846.19999999925,262496.391,262507.89999999944,262513.056,262863.043,,34,bonds
screen,html.Screen,2_1_1_1_35,2022-05-09T12:06:16.044Z,,,,,,,,,,,,,,,,,54,,,,,,,,,,,,,,316.7569999998086,,response,,,,100,,,,,,,Space,keypress(Space),,,,,,,,"-- --- ---- --- ------ ----- ------- ---- -- --- ------- --<br>------- ---------- ------ -- ----- -- ----- -- ---- ------<br>--- ----- --- --- ------ -------- ----- --- ------ ----- --<br>----- ----- plummeted, --- --- ------ ------ ---- -- ------<br>------- --- ------ ----- --- ---- ------- -- ---- --- --<br>------- ------",263182.39999999944,263179.7999999998,262846.378,262848.39999999944,262863.043,263196.358,,35,"plummeted,"
screen,html.Screen,2_1_1_1_36,2022-05-09T12:06:16.427Z,,,,,,,,,,,,,,,,,54,,,,,,,,,,,,,,366.64199999999255,,response,,,,100,,,,,,,Space,keypress(Space),,,,,,,,-- --- ---- --- ------ ----- ------- ---- -- --- ------- --<br>------- ---------- ------ -- ----- -- ----- -- ---- ------<br>--- ----- --- --- ------ -------- ----- --- ------ ----- --<br>----- ----- ---------- and --- ------ ------ ---- -- ------<br>------- --- ------ ----- --- ---- ------- -- ---- --- --<br>------- ------,263565.2999999998,263563,263179.693,263182.5999999996,263196.358,263579.668,,36,and
screen,html.Screen,2_1_1_1_37,2022-05-09T12:06:16.788Z,,,,,,,,,,,,,,,,,54,,,,,,,,,,,,,,343.8319999999949,,response,,,,100,,,,,,,Space,keypress(Space),,,,,,,,-- --- ---- --- ------ ----- ------- ---- -- --- ------- --<br>------- ---------- ------ -- ----- -- ----- -- ---- ------<br>--- ----- --- --- ------ -------- ----- --- ------ ----- --<br>----- ----- ---------- --- the ------ ------ ---- -- ------<br>------- --- ------ ----- --- ---- ------- -- ---- --- --<br>------- ------,263925.89999999944,263923.5,263563.003,263565.39999999944,263579.668,263929.651,,37,the
screen,html.Screen,2_1_1_1_38,2022-05-09T12:06:17.116Z,,,,,,,,,,,,,,,,,54,,,,,,,,,,,,,,322.24899999942863,,response,,,,100,,,,,,,Space,keypress(Space),,,,,,,,-- --- ---- --- ------ ----- ------- ---- -- --- ------- --<br>------- ---------- ------ -- ----- -- ----- -- ---- ------<br>--- ----- --- --- ------ -------- ----- --- ------ ----- --<br>----- ----- ---------- --- --- market ------ ---- -- ------<br>------- --- ------ ----- --- ---- ------- -- ---- --- --<br>------- ------,264254,264251.89999999944,263912.986,263926.19999999925,263929.651,264262.968,,38,market
screen,html.Screen,2_1_1_1_39,2022-05-09T12:06:17.456Z,,,,,,,,,,,,,,,,,54,,,,,,,,,,,,,,329.0320000000065,,response,,,,100,,,,,,,Space,keypress(Space),,,,,,,,-- --- ---- --- ------ ----- ------- ---- -- --- ------- --<br>------- ---------- ------ -- ----- -- ----- -- ---- ------<br>--- ----- --- --- ------ -------- ----- --- ------ ----- --<br>----- ----- ---------- --- --- ------ became ---- -- ------<br>------- --- ------ ----- --- ---- ------- -- ---- --- --<br>------- ------,264594,264592,264246.303,264254.2999999998,264262.968,264596.282,,39,became
screen,html.Screen,2_1_1_1_40,2022-05-09T12:06:17.837Z,,,,,,,,,,,,,,,,,54,,,,,,,,,,,,,,376.81799999962095,,response,,,,100,,,,,,,Space,keypress(Space),,,,,,,,-- --- ---- --- ------ ----- ------- ---- -- --- ------- --<br>------- ---------- ------ -- ----- -- ----- -- ---- ------<br>--- ----- --- --- ------ -------- ----- --- ------ ----- --<br>----- ----- ---------- --- --- ------ ------ wary -- ------<br>------- --- ------ ----- --- ---- ------- -- ---- --- --<br>------- ------,264975.5999999996,264973.0999999996,264579.617,264594.19999999925,264596.282,264979.594,,40,wary
screen,html.Screen,2_1_1_1_41,2022-05-09T12:06:18.223Z,,,,,,,,,,,,,,,,,54,,,,,,,,,,,,,,379.5059999996447,,response,,,,100,,,,,,,Space,keypress(Space),,,,,,,,-- --- ---- --- ------ ----- ------- ---- -- --- ------- --<br>------- ---------- ------ -- ----- -- ----- -- ---- ------<br>--- ----- --- --- ------ -------- ----- --- ------ ----- --<br>----- ----- ---------- --- --- ------ ------ ---- of ------<br>------- --- ------ ----- --- ---- ------- -- ---- --- --<br>------- ------,265361.39999999944,265359.0999999996,264962.929,264975.89999999944,264979.594,265362.907,,41,of
screen,html.Screen,2_1_1_1_42,2022-05-09T12:06:18.558Z,,,,,,,,,,,,,,,,,54,,,,,,,,,,,,,,331.3929999998072,,response,,,,100,,,,,,,Space,keypress(Space),,,,,,,,-- --- ---- --- ------ ----- ------- ---- -- --- ------- --<br>------- ---------- ------ -- ----- -- ----- -- ---- ------<br>--- ----- --- --- ------ -------- ----- --- ------ ----- --<br>----- ----- ---------- --- --- ------ ------ ---- -- French<br>------- --- ------ ----- --- ---- ------- -- ---- --- --<br>------- ------,265696.39999999944,265694.2999999998,265346.242,265361.5999999996,265362.907,265712.89,,42,French
screen,html.Screen,2_1_1_1_43,2022-05-09T12:06:18.972Z,,,,,,,,,,,,,,,,,54,,,,,,,,,,,,,,395.00999999942724,,response,,,,100,,,,,,,Space,keypress(Space),,,,,,,,-- --- ---- --- ------ ----- ------- ---- -- --- ------- --<br>------- ---------- ------ -- ----- -- ----- -- ---- ------<br>--- ----- --- --- ------ -------- ----- --- ------ ----- --<br>----- ----- ---------- --- --- ------ ------ ---- -- ------<br>credit. --- ------ ----- --- ---- ------- -- ---- --- --<br>------- ------,266110.0999999996,266107.89999999944,265696.225,265696.5999999996,265712.89,266112.865,,43,credit.
screen,html.Screen,2_1_1_1_44,2022-05-09T12:06:19.348Z,,,,,,,,,,,,,,,,,54,,,,,,,,,,,,,,370.93499999982305,,response,,,,100,,,,,,,Space,keypress(Space),,,,,,,,-- --- ---- --- ------ ----- ------- ---- -- --- ------- --<br>------- ---------- ------ -- ----- -- ----- -- ---- ------<br>--- ----- --- --- ------ -------- ----- --- ------ ----- --<br>----- ----- ---------- --- --- ------ ------ ---- -- ------<br>------- The ------ ----- --- ---- ------- -- ---- --- --<br>------- ------,266485.89999999944,266483.7999999998,266096.2,266110.2999999998,266112.865,266496.18,,44,The
screen,html.Screen,2_1_1_1_45,2022-05-09T12:06:19.808Z,,,,,,,,,,,,,,,,,54,,,,,,,,,,,,,,448.2199999994482,,response,,,,100,,,,,,,Space,keypress(Space),,,,,,,,-- --- ---- --- ------ ----- ------- ---- -- --- ------- --<br>------- ---------- ------ -- ----- -- ----- -- ---- ------<br>--- ----- --- --- ------ -------- ----- --- ------ ----- --<br>----- ----- ---------- --- --- ------ ------ ---- -- ------<br>------- --- French ----- --- ---- ------- -- ---- --- --<br>------- ------,266946.5,266944.39999999944,266479.515,266486.0999999996,266496.18,266962.816,,45,French
screen,html.Screen,2_1_1_1_46,2022-05-09T12:06:20.177Z,,,,,,,,,,,,,,,,,54,,,,,,,,,,,,,,350.28399999963585,,response,,,,100,,,,,,,Space,keypress(Space),,,,,,,,-- --- ---- --- ------ ----- ------- ---- -- --- ------- --<br>------- ---------- ------ -- ----- -- ----- -- ---- ------<br>--- ----- --- --- ------ -------- ----- --- ------ ----- --<br>----- ----- ---------- --- --- ------ ------ ---- -- ------<br>------- --- ------ state --- ---- ------- -- ---- --- --<br>------- ------,267315.0999999996,267313.0999999996,266946.151,266946.69999999925,266962.816,267329.468,,46,state
screen,html.Screen,2_1_1_1_47,2022-05-09T12:06:20.606Z,,,,,,,,,,,,,,,,,54,,,,,,,,,,,,,,412.0320000000065,,response,,,,100,,,,,,,Space,keypress(Space),,,,,,,,-- --- ---- --- ------ ----- ------- ---- -- --- ------- --<br>------- ---------- ------ -- ----- -- ----- -- ---- ------<br>--- ----- --- --- ------ -------- ----- --- ------ ----- --<br>----- ----- ---------- --- --- ------ ------ ---- -- ------<br>------- --- ------ ----- was ---- ------- -- ---- --- --<br>------- ------,267743.89999999944,267741.5,267312.803,267315.39999999944,267329.468,267746.11,,47,was
screen,html.Screen,2_1_1_1_48,2022-05-09T12:06:20.988Z,,,,,,,,,,,,,,,,,54,,,,,,,,,,,,,,378.0899999992689,,response,,,,100,,,,,,,Space,keypress(Space),,,,,,,,-- --- ---- --- ------ ----- ------- ---- -- --- ------- --<br>------- ---------- ------ -- ----- -- ----- -- ---- ------<br>--- ----- --- --- ------ -------- ----- --- ------ ----- --<br>----- ----- ---------- --- --- ------ ------ ---- -- ------<br>------- --- ------ ----- --- left ------- -- ---- --- --<br>------- ------,268126.5,268124.19999999925,267729.445,267744.0999999996,267746.11,268129.425,,48,left
screen,html.Screen,2_1_1_1_49,2022-05-09T12:06:21.419Z,,,,,,,,,,,,,,,,,54,,,,,,,,,,,,,,425.7749999992666,,response,,,,100,,,,,,,Space,keypress(Space),,,,,,,,-- --- ---- --- ------ ----- ------- ---- -- --- ------- --<br>------- ---------- ------ -- ----- -- ----- -- ---- ------<br>--- ----- --- --- ------ -------- ----- --- ------ ----- --<br>----- ----- ---------- --- --- ------ ------ ---- -- ------<br>------- --- ------ ----- --- ---- without -- ---- --- --<br>------- ------,268557.5999999996,268555.19999999925,268112.76,268126.69999999925,268129.425,268562.733,,49,without
screen,html.Screen,2_1_1_1_50,2022-05-09T12:06:21.800Z,,,,,,,,,,,,,,,,,54,,,,,,,,,,,,,,373.16699999943376,,response,,,,100,,,,,,,Space,keypress(Space),,,,,,,,-- --- ---- --- ------ ----- ------- ---- -- --- ------- --<br>------- ---------- ------ -- ----- -- ----- -- ---- ------<br>--- ----- --- --- ------ -------- ----- --- ------ ----- --<br>----- ----- ---------- --- --- ------ ------ ---- -- ------<br>------- --- ------ ----- --- ---- ------- an ---- --- --<br>------- ------,268938.7999999998,268935.89999999944,268546.068,268557.7999999998,268562.733,268946.048,,50,an
screen,html.Screen,2_1_1_1_51,2022-05-09T12:06:22.213Z,,,,,,,,,,,,,,,,,54,,,,,,,,,,,,,,402.75199999980396,,response,,,,100,,,,,,,Space,keypress(Space),,,,,,,,-- --- ---- --- ------ ----- ------- ---- -- --- ------- --<br>------- ---------- ------ -- ----- -- ----- -- ---- ------<br>--- ----- --- --- ------ -------- ----- --- ------ ----- --<br>----- ----- ---------- --- --- ------ ------ ---- -- ------<br>------- --- ------ ----- --- ---- ------- -- easy --- --<br>------- ------,269351.19999999925,269348.7999999998,268929.383,268939.0999999996,268946.048,269362.691,,51,easy
screen,html.Screen,2_1_1_1_52,2022-05-09T12:06:22.604Z,,,,,,,,,,,,,,,,,54,,,,,,,,,,,,,,377.40899999963585,,response,,,,100,,,,,,,Space,keypress(Space),,,,,,,,-- --- ---- --- ------ ----- ------- ---- -- --- ------- --<br>------- ---------- ------ -- ----- -- ----- -- ---- ------<br>--- ----- --- --- ------ -------- ----- --- ------ ----- --<br>----- ----- ---------- --- --- ------ ------ ---- -- ------<br>------- --- ------ ----- --- ---- ------- -- ---- way --<br>------- ------,269742.0999999996,269740.0999999996,269346.026,269351.2999999998,269362.691,269746.005,,52,way
screen,html.Screen,2_1_1_1_53,2022-05-09T12:06:23.038Z,,,,,,,,,,,,,,,,,54,,,,,,,,,,,,,,427.39499999943655,,response,,,,100,,,,,,,Space,keypress(Space),,,,,,,,-- --- ---- --- ------ ----- ------- ---- -- --- ------- --<br>------- ---------- ------ -- ----- -- ----- -- ---- ------<br>--- ----- --- --- ------ -------- ----- --- ------ ----- --<br>----- ----- ---------- --- --- ------ ------ ---- -- ------<br>------- --- ------ ----- --- ---- ------- -- ---- --- of<br>------- ------,270175.7999999998,270173.39999999944,269729.34,269742.39999999944,269746.005,270179.313,,53,of
screen,html.Screen,2_1_1_1_54,2022-05-09T12:06:23.493Z,,,,,,,,,,,,,,,,,54,,,,,,,,,,,,,,449.8869999992312,,response,,,,100,,,,,,,Space,keypress(Space),,,,,,,,-- --- ---- --- ------ ----- ------- ---- -- --- ------- --<br>------- ---------- ------ -- ----- -- ----- -- ---- ------<br>--- ----- --- --- ------ -------- ----- --- ------ ----- --<br>----- ----- ---------- --- --- ------ ------ ---- -- ------<br>------- --- ------ ----- --- ---- ------- -- ---- --- --<br>raising ------,270631.19999999925,270629.19999999925,270162.648,270176,270179.313,270645.953,,54,raising
screen,html.Screen,2_1_1_1_55,2022-05-09T12:06:24.931Z,,,,,,,,,,,,,,,,,54,,,,,,,,,,,,,,1421.4469999994617,,response,,,,100,,,,,,,Space,keypress(Space),,,,,,,,-- --- ---- --- ------ ----- ------- ---- -- --- ------- --<br>------- ---------- ------ -- ----- -- ----- -- ---- ------<br>--- ----- --- --- ------ -------- ----- --- ------ ----- --<br>----- ----- ---------- --- --- ------ ------ ---- -- ------<br>------- --- ------ ----- --- ---- ------- -- ---- --- --<br>------- money.,272069.2999999998,272067.39999999944,270629.288,270631.39999999944,270645.953,272079.164,,55,money.
Item 100,flow.Loop,2_1_1_1,2022-05-09T12:06:24.931Z,,,,,,,,,,,,,,,,,,,,,,,,,,,,,,,25170.19899999944,,completion,,,,,D,,,,,,,,,,,silence,,,,,272069.7999999998,272067.39999999944,246880.536,246882,246897.201,272079.164,,,
Question 1,html.Screen,2_1_1_2,2022-05-09T12:06:28.720Z,,,,,,,,,,,,,,,,,,,,,,,,,,,,true,TRUE,,3777.135999999824,,response,,,,100,D,,,,,,TRUE,click #choice-1,,,,silence,,,,,275858.19999999925,275856.2999999998,272062.499,272070,272079.164,275862.326,,,
Question 2,html.Screen,2_1_1_3,2022-05-09T12:06:32.413Z,,,,,,,,,,,,,,,,,,,,,,,,,,,,true,FALSE,,3687.2739999996265,,response,,,,100,D,,,,,,FALSE,click #choice-2,,,,silence,,,,,279551.5999999996,279549.5999999996,275845.661,275858.5,275862.326,279562.132,,,
Item 100,flow.Sequence,2_1_1,2022-05-09T12:06:32.414Z,,,,,,,,,,,,,,,,,,,,,,,,,,,,,,,42651.860999999626,,completion,,,,,,,,,,,,,,,,,,,,,279552.0999999996,279549.5999999996,236881.074,236892.89999999944,236897.739,279562.132,,,
End of Practice,html.Page,2_1_2,2022-05-09T12:06:42.639Z,,,,,,,,,,,,,,,,,,,,,,,,,,,,,,,10214.467999999644,,form submission,,,,,,,,,,,,,,,,,,,,,289777.39999999944,289776.5999999996,279545.467,279552.19999999925,279562.132,289778.248,,,
Practice,flow.Sequence,2_1,2022-05-09T12:06:42.639Z,,,,,,,,,,,,,,,,,,,,,,,,,,,,,,,122959.90299999964,,completion,,,,,,,,,,,,,,,,,,,,,289777.7999999998,289776.5999999996,166800.032,166804.89999999944,166816.697,289778.248,,,
Trap_instruction,html.Page,2_2_0,2022-05-09T12:06:47.298Z,,,,,,,,,,,,,,,,,,,,,,,,,,,,,,,4657.551999999792,,form submission,,,,,,,,,,,,,,,,,,,,,294436.5,294435.7999999998,289761.583,289778.0999999996,289778.248,294461.149,,,
trap_trial,html.Screen,2_2_1,2022-05-09T12:06:54.412Z,,,,,,,,,,,,,,,,,,,,,,,,,,,,true,1,,7087.550999999279,,response,,,,,,,,,,,1,click #choice-1,,,,,,,,,301550.5999999996,301548.69999999925,294427.819,294436.69999999925,294461.149,301560.668,,,
end of trap trial,html.Page,2_2_2,2022-05-09T12:06:59.657Z,,,,,,,,,,,,,,,,,,,,,,,,,,,,,,,5233.431999999622,,form submission,,,,,,,,,,,,,,,,,,,,,306794.89999999944,306794.0999999996,301544.003,301550.89999999944,301560.668,306794.011,,,
Trap 1,flow.Sequence,2_2,2022-05-09T12:06:59.657Z,,,,,,,,,,,,,,,,,,,,,,,,,,,,,,,17015.851999999606,,completion,,,,,,,,,,,,,,,,,,,,,306795.2999999998,306794.0999999996,289761.583,289778,289778.248,306794.011,,,
Standby,html.Page,2_3_0,2022-05-09T12:07:07.640Z,,,,,,,,,,,,,,,,,,,,,,,,,,,,,,,7999.228000000003,,timeout,,,,,,,,,,,,,,,,,,,,,314778,314776.574,306777.346,306795.5,306794.011,314793.239,,,
Holding screen,html.Screen,2_3_1_0_0,2022-05-09T12:07:14.639Z,,,,,,,,,,,,,,,,,,,,,,,,,,,,,,,6999.950000000012,,timeout,,,,,,,,,,,,,,,,,,,,,321777.69999999925,321776.524,314776.574,314778.2999999998,314793.239,321793.189,,,
screen,html.Screen,2_3_1_0_1_0,2022-05-09T12:07:16.904Z,,,,,,,,,,,,,,,,,19,,,,,,,,,,,,,,2246.010999999242,,response,,,,17,D,,,,,,Space,keypress(Space),,,,speech,,,,"Interestingly, --- -------- -------- ---------- ---- -------<br>-- ---------- -- --- ----- ------ ----- ---- --------- ----<br>------- ------ -------- -- ------ ---------- ------ ---<br>------ -- -- ---- -- ---------- -------- ------ ---- -------<br>---- --- --------- ------- ----- --------- ---- ----- --<br>------ -------- -- ------ -- ---- ------------",324042.69999999925,324039.19999999925,321776.524,321778.0999999996,321793.189,324043.01,,0,"Interestingly,"
screen,html.Screen,2_3_1_0_1_1,2022-05-09T12:07:17.479Z,,,,,,,,,,,,,,,,,19,,,,,,,,,,,,,,572.3899999994319,,response,,,,17,D,,,,,,Space,keypress(Space),,,,speech,,,,-------------- the -------- -------- ---------- ---- -------<br>-- ---------- -- --- ----- ------ ----- ---- --------- ----<br>------- ------ -------- -- ------ ---------- ------ ---<br>------ -- -- ---- -- ---------- -------- ------ ---- -------<br>---- --- --------- ------- ----- --------- ---- ----- --<br>------ -------- -- ------ -- ---- ------------,324617.39999999944,324615.39999999944,324026.345,324042.89999999944,324043.01,324626.39,,1,the
screen,html.Screen,2_3_1_0_1_2,2022-05-09T12:07:17.889Z,,,,,,,,,,,,,,,,,19,,,,,,,,,,,,,,399.309999999241,,response,,,,17,D,,,,,,Space,keypress(Space),,,,speech,,,,-------------- --- heaviest -------- ---------- ---- -------<br>-- ---------- -- --- ----- ------ ----- ---- --------- ----<br>------- ------ -------- -- ------ ---------- ------ ---<br>------ -- -- ---- -- ---------- -------- ------ ---- -------<br>---- --- --------- ------- ----- --------- ---- ----- --<br>------ -------- -- ------ -- ---- ------------,325027,325025.69999999925,324609.725,324617.5999999996,324626.39,325043.042,,2,heaviest
screen,html.Screen,2_3_1_0_1_3,2022-05-09T12:07:19.542Z,,,,,,,,,,,,,,,,,19,,,,,,,,,,,,,,1635.157999999239,,response,,,,17,D,,,,,,Space,keypress(Space),,,,speech,,,,-------------- --- -------- isotopes ---------- ---- -------<br>-- ---------- -- --- ----- ------ ----- ---- --------- ----<br>------- ------ -------- -- ------ ---------- ------ ---<br>------ -- -- ---- -- ---------- -------- ------ ---- -------<br>---- --- --------- ------- ----- --------- ---- ----- --<br>------ -------- -- ------ -- ---- ------------,326680.39999999944,326678.19999999925,325026.377,325027.19999999925,325043.042,326692.896,,3,isotopes
screen,html.Screen,2_3_1_0_1_4,2022-05-09T12:07:21.042Z,,,,,,,,,,,,,,,,,19,,,,,,,,,,,,,,1485.2039999996196,,response,,,,17,D,,,,,,Space,keypress(Space),,,,speech,,,,-------------- --- -------- -------- physicists ---- -------<br>-- ---------- -- --- ----- ------ ----- ---- --------- ----<br>------- ------ -------- -- ------ ---------- ------ ---<br>------ -- -- ---- -- ---------- -------- ------ ---- -------<br>---- --- --------- ------- ----- --------- ---- ----- --<br>------ -------- -- ------ -- ---- ------------,328180.0999999996,328178.0999999996,326676.231,326680.5999999996,326692.896,328192.822,,4,physicists
screen,html.Screen,2_3_1_0_1_5,2022-05-09T12:07:21.522Z,,,,,,,,,,,,,,,,,19,,,,,,,,,,,,,,465.7779999996419,,response,,,,17,D,,,,,,Space,keypress(Space),,,,speech,,,,-------------- --- -------- -------- ---------- have -------<br>-- ---------- -- --- ----- ------ ----- ---- --------- ----<br>------- ------ -------- -- ------ ---------- ------ ---<br>------ -- -- ---- -- ---------- -------- ------ ---- -------<br>---- --- --------- ------- ----- --------- ---- ----- --<br>------ -------- -- ------ -- ---- ------------,328660.69999999925,328658.5999999996,328176.157,328180.2999999998,328192.822,328676.177,,5,have
screen,html.Screen,2_3_1_0_1_6,2022-05-09T12:07:22.015Z,,,,,,,,,,,,,,,,,19,,,,,,,,,,,,,,475.0229999992298,,response,,,,17,D,,,,,,Space,keypress(Space),,,,speech,,,,-------------- --- -------- -------- ---------- ---- managed<br>-- ---------- -- --- ----- ------ ----- ---- --------- ----<br>------- ------ -------- -- ------ ---------- ------ ---<br>------ -- -- ---- -- ---------- -------- ------ ---- -------<br>---- --- --------- ------- ----- --------- ---- ----- --<br>------ -------- -- ------ -- ---- ------------,329153.39999999944,329151.19999999925,328659.512,328661,328676.177,329159.485,,6,managed
screen,html.Screen,2_3_1_0_1_7,2022-05-09T12:07:22.446Z,,,,,,,,,,,,,,,,,19,,,,,,,,,,,,,,422.61499999964144,,response,,,,17,D,,,,,,Space,keypress(Space),,,,speech,,,,-------------- --- -------- -------- ---------- ---- -------<br>to ---------- -- --- ----- ------ ----- ---- --------- ----<br>------- ------ -------- -- ------ ---------- ------ ---<br>------ -- -- ---- -- ---------- -------- ------ ---- -------<br>---- --- --------- ------- ----- --------- ---- ----- --<br>------ -------- -- ------ -- ---- ------------,329584,329582.0999999996,329142.82,329153.69999999925,329159.485,329592.798,,7,to
screen,html.Screen,2_3_1_0_1_8,2022-05-09T12:07:22.812Z,,,,,,,,,,,,,,,,,19,,,,,,,,,,,,,,354.90199999924516,,response,,,,17,D,,,,,,Space,keypress(Space),,,,speech,,,,-------------- --- -------- -------- ---------- ---- -------<br>-- synthesize -- --- ----- ------ ----- ---- --------- ----<br>------- ------ -------- -- ------ ---------- ------ ---<br>------ -- -- ---- -- ---------- -------- ------ ---- -------<br>---- --- --------- ------- ----- --------- ---- ----- --<br>------ -------- -- ------ -- ---- ------------,329950,329947.69999999925,329576.133,329584.2999999998,329592.798,329959.448,,8,synthesize
screen,html.Screen,2_3_1_0_1_9,2022-05-09T12:07:23.219Z,,,,,,,,,,,,,,,,,19,,,,,,,,,,,,,,395.95199999946635,,response,,,,17,D,,,,,,Space,keypress(Space),,,,speech,,,,-------------- --- -------- -------- ---------- ---- -------<br>-- ---------- so --- ----- ------ ----- ---- --------- ----<br>------- ------ -------- -- ------ ---------- ------ ---<br>------ -- -- ---- -- ---------- -------- ------ ---- -------<br>---- --- --------- ------- ----- --------- ---- ----- --<br>------ -------- -- ------ -- ---- ------------,330357.5999999996,330355.39999999944,329942.783,329950.2999999998,329959.448,330359.424,,9,so
screen,html.Screen,2_3_1_0_1_10,2022-05-09T12:07:23.587Z,,,,,,,,,,,,,,,,,19,,,,,,,,,,,,,,364.1759999996284,,response,,,,17,D,,,,,,Space,keypress(Space),,,,speech,,,,-------------- --- -------- -------- ---------- ---- -------<br>-- ---------- -- far ----- ------ ----- ---- --------- ----<br>------- ------ -------- -- ------ ---------- ------ ---<br>------ -- -- ---- -- ---------- -------- ------ ---- -------<br>---- --- --------- ------- ----- --------- ---- ----- --<br>------ -------- -- ------ -- ---- ------------,330725.5999999996,330723.5999999996,330342.759,330357.89999999944,330359.424,330742.739,,10,far
screen,html.Screen,2_3_1_0_1_11,2022-05-09T12:07:23.918Z,,,,,,,,,,,,,,,,,19,,,,,,,,,,,,,,311.3609999996261,,response,,,,17,D,,,,,,Space,keypress(Space),,,,speech,,,,-------------- --- -------- -------- ---------- ---- -------<br>-- ---------- -- --- don't ------ ----- ---- --------- ----<br>------- ------ -------- -- ------ ---------- ------ ---<br>------ -- -- ---- -- ---------- -------- ------ ---- -------<br>---- --- --------- ------- ----- --------- ---- ----- --<br>------ -------- -- ------ -- ---- ------------,331056.19999999925,331054.0999999996,330726.074,330726,330742.739,331059.391,,11,don't
screen,html.Screen,2_3_1_0_1_12,2022-05-09T12:07:24.273Z,,,,,,,,,,,,,,,,,19,,,,,,,,,,,,,,350.00899999943795,,response,,,,17,D,,,,,,Space,keypress(Space),,,,speech,,,,-------------- --- -------- -------- ---------- ---- -------<br>-- ---------- -- --- ----- behave ----- ---- --------- ----<br>------- ------ -------- -- ------ ---------- ------ ---<br>------ -- -- ---- -- ---------- -------- ------ ---- -------<br>---- --- --------- ------- ----- --------- ---- ----- --<br>------ -------- -- ------ -- ---- ------------,331411.39999999944,331409.39999999944,331042.726,331056.39999999944,331059.391,331426.036,,12,behave
screen,html.Screen,2_3_1_0_1_13,2022-05-09T12:07:24.634Z,,,,,,,,,,,,,,,,,19,,,,,,,,,,,,,,344.16399999923306,,response,,,,17,D,,,,,,Space,keypress(Space),,,,speech,,,,-------------- --- -------- -------- ---------- ---- -------<br>-- ---------- -- --- ----- ------ quite ---- --------- ----<br>------- ------ -------- -- ------ ---------- ------ ---<br>------ -- -- ---- -- ---------- -------- ------ ---- -------<br>---- --- --------- ------- ----- --------- ---- ----- --<br>------ -------- -- ------ -- ---- ------------,331772.7999999998,331770.19999999925,331409.371,331411.69999999925,331426.036,331776.017,,13,quite
screen,html.Screen,2_3_1_0_1_14,2022-05-09T12:07:24.977Z,,,,,,,,,,,,,,,,,19,,,,,,,,,,,,,,336.5829999996349,,response,,,,17,D,,,,,,Space,keypress(Space),,,,speech,,,,-------------- --- -------- -------- ---------- ---- -------<br>-- ---------- -- --- ----- ------ ----- like --------- ----<br>------- ------ -------- -- ------ ---------- ------ ---<br>------ -- -- ---- -- ---------- -------- ------ ---- -------<br>---- --- --------- ------- ----- --------- ---- ----- --<br>------ -------- -- ------ -- ---- ------------,332114.89999999944,332112.5999999996,331759.352,331773,331776.017,332126,,14,like
screen,html.Screen,2_3_1_0_1_15,2022-05-09T12:07:25.317Z,,,,,,,,,,,,,,,,,19,,,,,,,,,,,,,,327.29999999981374,,response,,,,17,D,,,,,,Space,keypress(Space),,,,speech,,,,-------------- --- -------- -------- ---------- ---- -------<br>-- ---------- -- --- ----- ------ ----- ---- science's ----<br>------- ------ -------- -- ------ ---------- ------ ---<br>------ -- -- ---- -- ---------- -------- ------ ---- -------<br>---- --- --------- ------- ----- --------- ---- ----- --<br>------ -------- -- ------ -- ---- ------------,332455.5,332453.2999999998,332109.335,332115.0999999996,332126,332459.314,,15,science's
screen,html.Screen,2_3_1_0_1_16,2022-05-09T12:07:25.703Z,,,,,,,,,,,,,,,,,19,,,,,,,,,,,,,,379.68599999998696,,response,,,,17,D,,,,,,Space,keypress(Space),,,,speech,,,,-------------- --- -------- -------- ---------- ---- -------<br>-- ---------- -- --- ----- ------ ----- ---- --------- best<br>------- ------ -------- -- ------ ---------- ------ ---<br>------ -- -- ---- -- ---------- -------- ------ ---- -------<br>---- --- --------- ------- ----- --------- ---- ----- --<br>------ -------- -- ------ -- ---- ------------,332841.5,332839,332442.649,332455.7999999998,332459.314,332859.291,,16,best
screen,html.Screen,2_3_1_0_1_17,2022-05-09T12:07:26.125Z,,,,,,,,,,,,,,,,,19,,,,,,,,,,,,,,402.10899999941466,,response,,,,17,D,,,,,,Space,keypress(Space),,,,speech,,,,-------------- --- -------- -------- ---------- ---- -------<br>-- ---------- -- --- ----- ------ ----- ---- --------- ----<br>current ------ -------- -- ------ ---------- ------ ---<br>------ -- -- ---- -- ---------- -------- ------ ---- -------<br>---- --- --------- ------- ----- --------- ---- ----- --<br>------ -------- -- ------ -- ---- ------------,333263.39999999944,333261.39999999944,332842.626,332841.69999999925,332859.291,333275.934,,17,current
screen,html.Screen,2_3_1_0_1_18,2022-05-09T12:07:26.853Z,,,,,,,,,,,,,,,,,19,,,,,,,,,,,,,,713.3659999998054,,response,,,,17,D,,,,,,Space,keypress(Space),,,,speech,,,,-------------- --- -------- -------- ---------- ---- -------<br>-- ---------- -- --- ----- ------ ----- ---- --------- ----<br>------- models -------- -- ------ ---------- ------ ---<br>------ -- -- ---- -- ---------- -------- ------ ---- -------<br>---- --- --------- ------- ----- --------- ---- ----- --<br>------ -------- -- ------ -- ---- ------------,333991.2999999998,333989.2999999998,333259.269,333263.69999999925,333275.934,334009.213,,18,models
screen,html.Screen,2_3_1_0_1_19,2022-05-09T12:07:27.609Z,,,,,,,,,,,,,,,,,19,,,,,,,,,,,,,,735.1869999994524,,response,,,,17,D,,,,,,Space,keypress(Space),,,,speech,,,,"-------------- --- -------- -------- ---------- ---- -------<br>-- ---------- -- --- ----- ------ ----- ---- --------- ----<br>------- ------ predict, -- ------ ---------- ------ ---<br>------ -- -- ---- -- ---------- -------- ------ ---- -------<br>---- --- --------- ------- ----- --------- ---- ----- --<br>------ -------- -- ------ -- ---- ------------",334747.39999999944,334744.39999999944,333992.548,333991.5,334009.213,334759.173,,19,"predict,"
screen,html.Screen,2_3_1_0_1_20,2022-05-09T12:07:28.189Z,,,,,,,,,,,,,,,,,19,,,,,,,,,,,,,,566.0269999992452,,response,,,,17,D,,,,,,Space,keypress(Space),,,,speech,,,,-------------- --- -------- -------- ---------- ---- -------<br>-- ---------- -- --- ----- ------ ----- ---- --------- ----<br>------- ------ -------- so ------ ---------- ------ ---<br>------ -- -- ---- -- ---------- -------- ------ ---- -------<br>---- --- --------- ------- ----- --------- ---- ----- --<br>------ -------- -- ------ -- ---- ------------,335327.39999999944,335325.19999999925,334742.508,334747.5999999996,334759.173,335342.482,,20,so
screen,html.Screen,2_3_1_0_1_21,2022-05-09T12:07:28.684Z,,,,,,,,,,,,,,,,,19,,,,,,,,,,,,,,477.8179999997956,,response,,,,17,D,,,,,,Space,keypress(Space),,,,speech,,,,-------------- --- -------- -------- ---------- ---- -------<br>-- ---------- -- --- ----- ------ ----- ---- --------- ----<br>------- ------ -------- -- stable ---------- ------ ---<br>------ -- -- ---- -- ---------- -------- ------ ---- -------<br>---- --- --------- ------- ----- --------- ---- ----- --<br>------ -------- -- ------ -- ---- ------------,335822.39999999944,335820.2999999998,335325.817,335327.69999999925,335342.482,335825.794,,21,stable
screen,html.Screen,2_3_1_0_1_22,2022-05-09T12:07:29.160Z,,,,,,,,,,,,,,,,,19,,,,,,,,,,,,,,469.7060000000056,,response,,,,17,D,,,,,,Space,keypress(Space),,,,speech,,,,-------------- --- -------- -------- ---------- ---- -------<br>-- ---------- -- --- ----- ------ ----- ---- --------- ----<br>------- ------ -------- -- ------ superheavy ------ ---<br>------ -- -- ---- -- ---------- -------- ------ ---- -------<br>---- --- --------- ------- ----- --------- ---- ----- --<br>------ -------- -- ------ -- ---- ------------,336298.0999999996,336295.5,335809.129,335822.5,335825.794,336309.103,,22,superheavy
screen,html.Screen,2_3_1_0_1_23,2022-05-09T12:07:29.715Z,,,,,,,,,,,,,,,,,19,,,,,,,,,,,,,,541.4969999996247,,response,,,,17,D,,,,,,Space,keypress(Space),,,,speech,,,,-------------- --- -------- -------- ---------- ---- -------<br>-- ---------- -- --- ----- ------ ----- ---- --------- ----<br>------- ------ -------- -- ------ ---------- nuclei ---<br>------ -- -- ---- -- ---------- -------- ------ ---- -------<br>---- --- --------- ------- ----- --------- ---- ----- --<br>------ -------- -- ------ -- ---- ------------,336852.89999999944,336850.5999999996,336292.438,336298.39999999944,336309.103,336859.069,,23,nuclei
screen,html.Screen,2_3_1_0_1_24,2022-05-09T12:07:30.195Z,,,,,,,,,,,,,,,,,19,,,,,,,,,,,,,,472.0309999996098,,response,,,,17,D,,,,,,Space,keypress(Space),,,,speech,,,,-------------- --- -------- -------- ---------- ---- -------<br>-- ---------- -- --- ----- ------ ----- ---- --------- ----<br>------- ------ -------- -- ------ ---------- ------ are<br>------ -- -- ---- -- ---------- -------- ------ ---- -------<br>---- --- --------- ------- ----- --------- ---- ----- --<br>------ -------- -- ------ -- ---- ------------,337333.19999999925,337331.0999999996,336842.404,336853.0999999996,336859.069,337342.381,,24,are
screen,html.Screen,2_3_1_0_1_25,2022-05-09T12:07:30.661Z,,,,,,,,,,,,,,,,,19,,,,,,,,,,,,,,454.51899999944726,,response,,,,17,D,,,,,,Space,keypress(Space),,,,speech,,,,-------------- --- -------- -------- ---------- ---- -------<br>-- ---------- -- --- ----- ------ ----- ---- --------- ----<br>------- ------ -------- -- ------ ---------- ------ ---<br>likely -- -- ---- -- ---------- -------- ------ ---- -------<br>---- --- --------- ------- ----- --------- ---- ----- --<br>------ -------- -- ------ -- ---- ------------,337799.0999999996,337796.89999999944,337325.716,337333.39999999944,337342.381,337809.022,,25,likely
screen,html.Screen,2_3_1_0_1_26,2022-05-09T12:07:31.018Z,,,,,,,,,,,,,,,,,19,,,,,,,,,,,,,,345.4780000000028,,response,,,,17,D,,,,,,Space,keypress(Space),,,,speech,,,,-------------- --- -------- -------- ---------- ---- -------<br>-- ---------- -- --- ----- ------ ----- ---- --------- ----<br>------- ------ -------- -- ------ ---------- ------ ---<br>------ to -- ---- -- ---------- -------- ------ ---- -------<br>---- --- --------- ------- ----- --------- ---- ----- --<br>------ -------- -- ------ -- ---- ------------,338156.39999999944,338154.5,337792.357,337799.39999999944,337809.022,338159.009,,26,to
screen,html.Screen,2_3_1_0_1_27,2022-05-09T12:07:31.389Z,,,,,,,,,,,,,,,,,19,,,,,,,,,,,,,,366.2909999997937,,response,,,,17,D,,,,,,Space,keypress(Space),,,,speech,,,,-------------- --- -------- -------- ---------- ---- -------<br>-- ---------- -- --- ----- ------ ----- ---- --------- ----<br>------- ------ -------- -- ------ ---------- ------ ---<br>------ -- be ---- -- ---------- -------- ------ ---- -------<br>---- --- --------- ------- ----- --------- ---- ----- --<br>------ -------- -- ------ -- ---- ------------,338527.5,338525.2999999998,338142.344,338156.5999999996,338159.009,338542.321,,27,be
screen,html.Screen,2_3_1_0_1_28,2022-05-09T12:07:31.722Z,,,,,,,,,,,,,,,,,19,,,,,,,,,,,,,,315.87899999925867,,response,,,,17,D,,,,,,Space,keypress(Space),,,,speech,,,,-------------- --- -------- -------- ---------- ---- -------<br>-- ---------- -- --- ----- ------ ----- ---- --------- ----<br>------- ------ -------- -- ------ ---------- ------ ---<br>------ -- -- full -- ---------- -------- ------ ---- -------<br>---- --- --------- ------- ----- --------- ---- ----- --<br>------ -------- -- ------ -- ---- ------------,338860.2999999998,338858.19999999925,338525.656,338527.7999999998,338542.321,338875.638,,28,full
screen,html.Screen,2_3_1_0_1_29,2022-05-09T12:07:32.037Z,,,,,,,,,,,,,,,,,19,,,,,,,,,,,,,,298.06199999927776,,response,,,,17,D,,,,,,Space,keypress(Space),,,,speech,,,,-------------- --- -------- -------- ---------- ---- -------<br>-- ---------- -- --- ----- ------ ----- ---- --------- ----<br>------- ------ -------- -- ------ ---------- ------ ---<br>------ -- -- ---- of ---------- -------- ------ ---- -------<br>---- --- --------- ------- ----- --------- ---- ----- --<br>------ -------- -- ------ -- ---- ------------,339175.69999999925,339173.69999999925,338858.973,338860.5999999996,338875.638,339192.289,,29,of
screen,html.Screen,2_3_1_0_1_30,2022-05-09T12:07:32.351Z,,,,,,,,,,,,,,,,,19,,,,,,,,,,,,,,294.4109999992652,,response,,,,17,D,,,,,,Space,keypress(Space),,,,speech,,,,-------------- --- -------- -------- ---------- ---- -------<br>-- ---------- -- --- ----- ------ ----- ---- --------- ----<br>------- ------ -------- -- ------ ---------- ------ ---<br>------ -- -- ---- -- surprises. -------- ------ ---- -------<br>---- --- --------- ------- ----- --------- ---- ----- --<br>------ -------- -- ------ -- ---- ------------,339489,339486.69999999925,339175.624,339176,339192.289,339492.273,,30,surprises.
screen,html.Screen,2_3_1_0_1_31,2022-05-09T12:07:32.785Z,,,,,,,,,,,,,,,,,19,,,,,,,,,,,,,,429.42699999926845,,response,,,,17,D,,,,,,Space,keypress(Space),,,,speech,,,,-------------- --- -------- -------- ---------- ---- -------<br>-- ---------- -- --- ----- ------ ----- ---- --------- ----<br>------- ------ -------- -- ------ ---------- ------ ---<br>------ -- -- ---- -- ---------- Chemists ------ ---- -------<br>---- --- --------- ------- ----- --------- ---- ----- --<br>------ -------- -- ------ -- ---- ------------,339923.7999999998,339921.69999999925,339475.608,339489.2999999998,339492.273,339925.578,,31,Chemists
screen,html.Screen,2_3_1_0_1_32,2022-05-09T12:07:33.209Z,,,,,,,,,,,,,,,,,19,,,,,,,,,,,,,,419.2219999998342,,response,,,,17,D,,,,,,Space,keypress(Space),,,,speech,,,,-------------- --- -------- -------- ---------- ---- -------<br>-- ---------- -- --- ----- ------ ----- ---- --------- ----<br>------- ------ -------- -- ------ ---------- ------ ---<br>------ -- -- ---- -- ---------- -------- cannot ---- -------<br>---- --- --------- ------- ----- --------- ---- ----- --<br>------ -------- -- ------ -- ---- ------------,340347,340344.7999999998,339908.913,339924.0999999996,339925.578,340358.888,,32,cannot
screen,html.Screen,2_3_1_0_1_33,2022-05-09T12:07:33.634Z,,,,,,,,,,,,,,,,,19,,,,,,,,,,,,,,411.511999999464,,response,,,,17,D,,,,,,Space,keypress(Space),,,,speech,,,,-------------- --- -------- -------- ---------- ---- -------<br>-- ---------- -- --- ----- ------ ----- ---- --------- ----<br>------- ------ -------- -- ------ ---------- ------ ---<br>------ -- -- ---- -- ---------- -------- ------ even -------<br>---- --- --------- ------- ----- --------- ---- ----- --<br>------ -------- -- ------ -- ---- ------------,340772.5999999996,340770.39999999944,340342.223,340347.2999999998,340358.888,340775.532,,33,even
screen,html.Screen,2_3_1_0_1_34,2022-05-09T12:07:34.035Z,,,,,,,,,,,,,,,,,19,,,,,,,,,,,,,,394.9679999999935,,response,,,,17,D,,,,,,Space,keypress(Space),,,,speech,,,,-------------- --- -------- -------- ---------- ---- -------<br>-- ---------- -- --- ----- ------ ----- ---- --------- ----<br>------- ------ -------- -- ------ ---------- ------ ---<br>------ -- -- ---- -- ---------- -------- ------ ---- predict<br>---- --- --------- ------- ----- --------- ---- ----- --<br>------ -------- -- ------ -- ---- ------------,341173.2999999998,341170.5,340758.867,340773,340775.532,341175.513,,34,predict
screen,html.Screen,2_3_1_0_1_35,2022-05-09T12:07:34.452Z,,,,,,,,,,,,,,,,,19,,,,,,,,,,,,,,412.386999999464,,response,,,,17,D,,,,,,Space,keypress(Space),,,,speech,,,,-------------- --- -------- -------- ---------- ---- -------<br>-- ---------- -- --- ----- ------ ----- ---- --------- ----<br>------- ------ -------- -- ------ ---------- ------ ---<br>------ -- -- ---- -- ---------- -------- ------ ---- -------<br>with --- --------- ------- ----- --------- ---- ----- --<br>------ -------- -- ------ -- ---- ------------,341590.19999999925,341587.89999999944,341158.848,341173.5999999996,341175.513,341592.156,,35,with
screen,html.Screen,2_3_1_0_1_36,2022-05-09T12:07:34.890Z,,,,,,,,,,,,,,,,,19,,,,,,,,,,,,,,433.743999999424,,response,,,,17,D,,,,,,Space,keypress(Space),,,,speech,,,,-------------- --- -------- -------- ---------- ---- -------<br>-- ---------- -- --- ----- ------ ----- ---- --------- ----<br>------- ------ -------- -- ------ ---------- ------ ---<br>------ -- -- ---- -- ---------- -------- ------ ---- -------<br>---- any --------- ------- ----- --------- ---- ----- --<br>------ -------- -- ------ -- ---- ------------,342028.5999999996,342025.89999999944,341575.491,341590.39999999944,341592.156,342042.131,,36,any
screen,html.Screen,2_3_1_0_1_37,2022-05-09T12:07:35.338Z,,,,,,,,,,,,,,,,,19,,,,,,,,,,,,,,431.86900000000605,,response,,,,17,D,,,,,,Space,keypress(Space),,,,speech,,,,-------------- --- -------- -------- ---------- ---- -------<br>-- ---------- -- --- ----- ------ ----- ---- --------- ----<br>------- ------ -------- -- ------ ---------- ------ ---<br>------ -- -- ---- -- ---------- -------- ------ ---- -------<br>---- --- certainty ------- ----- --------- ---- ----- --<br>------ -------- -- ------ -- ---- ------------,342476,342474,342025.466,342028.89999999944,342042.131,342492.106,,37,certainty
screen,html.Screen,2_3_1_0_1_38,2022-05-09T12:07:35.763Z,,,,,,,,,,,,,,,,,19,,,,,,,,,,,,,,407.09399999922607,,response,,,,17,D,,,,,,Space,keypress(Space),,,,speech,,,,-------------- --- -------- -------- ---------- ---- -------<br>-- ---------- -- --- ----- ------ ----- ---- --------- ----<br>------- ------ -------- -- ------ ---------- ------ ---<br>------ -- -- ---- -- ---------- -------- ------ ---- -------<br>---- --- --------- whether ----- --------- ---- ----- --<br>------ -------- -- ------ -- ---- ------------,342901.69999999925,342899.19999999925,342475.441,342476.19999999925,342492.106,342908.752,,38,whether
screen,html.Screen,2_3_1_0_1_39,2022-05-09T12:07:36.169Z,,,,,,,,,,,,,,,,,19,,,,,,,,,,,,,,395.8479999996489,,response,,,,17,D,,,,,,Space,keypress(Space),,,,speech,,,,-------------- --- -------- -------- ---------- ---- -------<br>-- ---------- -- --- ----- ------ ----- ---- --------- ----<br>------- ------ -------- -- ------ ---------- ------ ---<br>------ -- -- ---- -- ---------- -------- ------ ---- -------<br>---- --- --------- ------- these --------- ---- ----- --<br>------ -------- -- ------ -- ---- ------------,343307,343304.5999999996,342892.087,342902,342908.752,343308.732,,39,these
