sender,sender_type,sender_id,timestamp,meta,,Blues,Classical,Country,Dance,Electronic,Folk,Gospel,Hip-Hop,Jazz,Latin,Musical/Film,New-age,Pop,Prolific_id,Provo_ID,R&B,Rap,Reggae,Religious,Rock,Soul,Swing,Traditional,age,artist_name,correct,correctResponse,distraction,duration,education,ended_on,familiarity,gender,headphone_check_performance,item,list,music_frequency,offensiveness,pleasantness,position_correct,preference,response,response_action,snippet_file,song_name,song_rating,sound,stimulus_1,stimulus_2,stimulus_3,text,time_commit,time_end,time_render,time_run,time_show,time_switch,url,word,word_ID
Prolific ID,html.Form,0,2022-04-25T11:54:05.851Z,"{""labjs_version"":""20.2.2"",""labjs_build"":{""flavor"":""production"",""commit"":""a25486e0c714a0ae2ce03ff94b7bb6896854dcfa""},""location"":""https://run.pavlovia.org/mvasilev/prolific3_music_a/"",""userAgent"":""Mozilla/5.0 (Windows NT 10.0; Win64; x64) AppleWebKit/537.36 (KHTML, like Gecko) Chrome/100.0.4896.127 Safari/537.36"",""platform"":""Win32"",""language"":""en-GB"",""locale"":""en-GB"",""timeZone"":""Europe/London"",""timezoneOffset"":-60,""screen_width"":1366,""screen_height"":768,""scroll_width"":1366,""scroll_height"":609,""window_innerWidth"":1366,""window_innerHeight"":657,""devicePixelRatio"":1}",,,,,,,,,,,,,,,5a0c4184fe645f0001e9f5dd,,,,,,,,,,,,,,,17286.747999998508,,form submission,,,,,,,,,,,,,,,,,,,,,60997.59999999963,60996.89999999851,42879.136,42855.5,43710.152,61206.777,{},,
Introduction,html.Screen,1_0,2022-04-25T11:54:10.022Z,,,,,,,,,,,,,,,,,,,,,,,,,,,,,,,3956.0229999988806,,response,,,,,,,,,,,continue,click button,,,,,,,,,65168.699999999255,65162.79999999888,60840.203,60998.29999999888,61206.777,65272.419,,,
Volume calibration,html.Screen,1_1,2022-04-25T11:54:31.445Z,,,,,,,,,,,,,,,,,,,,,,,,,,,,,,,21312.48099999851,,response,,,,,,,,,,,continue,click button,,,,,,,,,86591,86584.89999999851,65155.762,65169,65272.419,86618.433,,,
Task instructions,html.Screen,1_2,2022-04-25T11:54:35.892Z,,,,,,,,,,,,,,,,,,,,,,,,,,,,,,,4417.26699999925,,response,,,,,,,,,,,continue,click button,,,,,,,,,91038.09999999963,91035.69999999925,86585.092,86591.19999999925,86618.433,91050.709,,,
Sounds,html.Screen,1_3_0_0,2022-04-25T11:54:40.140Z,,,,,,,,,,,,,,,,,,,,,,,,,,,,,,,4249.161999999997,,timeout,,,,,,,,,2,,,,,,,,I,S,O,,95286.79999999888,95283.208,91034.136,91038.29999999888,91050.709,95299.871,,,
Judgement,html.Screen,1_3_0_1,2022-04-25T11:54:41.699Z,,,,,,,,,,,,,,,,,,,,,,,,,,,,true,2,,1542.9289999988832,,response,,,,,,,,,2,,2,click #choice-2,,,,,I,S,O,,96845.39999999851,96842.79999999888,95283.208,95287,95299.871,96849.567,,,
Trial,flow.Sequence,1_3_0,2022-04-25T11:54:41.699Z,,,,,,,,,,,,,,,,,,,,,,,,,,,,,,,5792.09099999888,,completion,,,,,,,,,2,,,,,,,,I,S,O,,96845.79999999888,96842.79999999888,91034.136,91038.19999999925,91050.709,96849.567,,,
Sounds,html.Screen,1_3_1_0,2022-04-25T11:54:45.938Z,,,,,,,,,,,,,,,,,,,,,,,,,,,,,,,4250.49500000001,,timeout,,,,,,,,,1,,,,,,,,S,O,I,,101084.29999999888,101082.246,96832.935,96846,96849.567,101100.062,,,
Judgement,html.Screen,1_3_1_1,2022-04-25T11:54:47.421Z,,,,,,,,,,,,,,,,,,,,,,,,,,,,true,1,,1464.0379999996221,,response,,,,,,,,,1,,1,click #choice-1,,,,,S,O,I,,102567,102564.09999999963,101082.246,101084.69999999925,101100.062,102581.775,,,
Trial,flow.Sequence,1_3_1,2022-04-25T11:54:47.421Z,,,,,,,,,,,,,,,,,,,,,,,,,,,,,,,5714.532999999632,,completion,,,,,,,,,1,,,,,,,,S,O,I,,102567.59999999963,102564.09999999963,96832.935,96845.89999999851,96849.567,102581.775,,,
Sounds,html.Screen,1_3_2_0,2022-04-25T11:54:51.669Z,,,,,,,,,,,,,,,,,,,,,,,,,,,,,,,4249.088000000003,,timeout,,,,,,,,,3,,,,,,,,O,I,S,,106815.29999999888,106814.297,102565.117,102567.79999999888,102581.775,106830.863,,,
Judgement,html.Screen,1_3_2_1,2022-04-25T11:54:52.540Z,,,,,,,,,,,,,,,,,,,,,,,,,,,,true,3,,852.9369999988849,,response,,,,,,,,,3,,3,click #choice-3,,,,,O,I,S,,107685.89999999851,107683.79999999888,106814.297,106815.39999999851,106830.863,107697.621,,,
Trial,flow.Sequence,1_3_2,2022-04-25T11:54:52.540Z,,,,,,,,,,,,,,,,,,,,,,,,,,,,,,,5102.024999998888,,completion,,,,,,,,,3,,,,,,,,O,I,S,,107686.29999999888,107683.79999999888,102565.117,102567.69999999925,102581.775,107697.621,,,
Sounds,html.Screen,1_3_3_0,2022-04-25T11:54:56.786Z,,,,,,,,,,,,,,,,,,,,,,,,,,,,,,,4249.391000000003,,timeout,,,,,,,,,2,,,,,,,,O,S,I,,111932.5,111930.147,107680.995,107686.39999999851,107697.621,111947.012,,,
Judgement,html.Screen,1_3_3_1,2022-04-25T11:54:57.489Z,,,,,,,,,,,,,,,,,,,,,,,,,,,,true,2,,686.6879999992525,,response,,,,,,,,,2,,2,click #choice-2,,,,,O,S,I,,112635.79999999888,112633.69999999925,111930.147,111932.69999999925,111947.012,112646.715,,,
Trial,flow.Sequence,1_3_3,2022-04-25T11:54:57.490Z,,,,,,,,,,,,,,,,,,,,,,,,,,,,,,,4936.078999999256,,completion,,,,,,,,,2,,,,,,,,O,S,I,,112636.09999999963,112633.69999999925,107680.995,107686.29999999888,107697.621,112646.715,,,
Sounds,html.Screen,1_3_4_0,2022-04-25T11:55:01.734Z,,,,,,,,,,,,,,,,,,,,,,,,,,,,,,,4248.826000000001,,timeout,,,,,,,,,3,,,,,,,,I,O,S,,116880.29999999888,116879.152,112630.063,112636.19999999925,112646.715,116895.541,,,
Judgement,html.Screen,1_3_4_1,2022-04-25T11:55:02.670Z,,,,,,,,,,,,,,,,,,,,,,,,,,,,true,3,,918.05899999963,,response,,,,,,,,,3,,3,click #choice-3,,,,,I,O,S,,117815.79999999888,117813.59999999963,116879.152,116880.5,116895.541,117828.79,,,
Trial,flow.Sequence,1_3_4,2022-04-25T11:55:02.670Z,,,,,,,,,,,,,,,,,,,,,,,,,,,,,,,5166.884999999631,,completion,,,,,,,,,3,,,,,,,,I,O,S,,117816.09999999963,117813.59999999963,112630.063,112636.19999999925,112646.715,117828.79,,,
Sounds,html.Screen,1_3_5_0,2022-04-25T11:55:06.918Z,,,,,,,,,,,,,,,,,,,,,,,,,,,,,,,4249.519,,timeout,,,,,,,,,1,,,,,,,,S,I,O,,122064.59999999963,122061.515,117812.339,117816.19999999925,117828.79,122078.309,,,
Judgement,html.Screen,1_3_5_1,2022-04-25T11:55:07.670Z,,,,,,,,,,,,,,,,,,,,,,,,,,,,true,1,,735.4909999988886,,response,,,,,,,,,1,,1,click #choice-1,,,,,S,I,O,,122816.09999999963,122813.79999999888,122061.515,122064.79999999888,122078.309,122827.821,,,
Trial,flow.Sequence,1_3_5,2022-04-25T11:55:07.670Z,,,,,,,,,,,,,,,,,,,,,,,,,,,,,,,4985.009999998889,,completion,,,,,,,,,1,,,,,,,,S,I,O,,122816.29999999888,122813.79999999888,117812.339,117816.19999999925,117828.79,122827.821,,,
Task,flow.Loop,1_3,2022-04-25T11:55:07.676Z,,,,,,,,,,,,,,,,,,,,,,,,,,,,,,,31763.09099999888,,completion,,,1,,,,,,,,,,,,,,,,,,122822.79999999888,122813.79999999888,91034.136,91038.19999999925,91050.709,122827.821,,,
Trap,html.Screen,1_4,2022-04-25T11:55:07.679Z,,,,,,,,,,,,,,,,,,,,,,,,,,,,,,,NaN,,skipped,,,,,,,,,,,,,,,,,,,,,122825.19999999925,122813.79999999888,,122824.79999999888,,122827.821,,,
Thanks,html.Screen,1_5,2022-04-25T11:55:11.000Z,,,,,,,,,,,,,,,,,,,,,,,,,,,,,,,3316.3789999992587,,response,,,,,,,,,,,continue,click button,,,,,,,,,126146.39999999851,126144.19999999925,122811.357,122825.29999999888,122827.821,131676.998,,,
Headphone screening,flow.Sequence,1,2022-04-25T11:55:11.000Z,,,,,,,,,,,,,,,,,,,,,,,,,,,,,,,64937.42299999925,,completion,,,,,,,,,,,,,,,,,,,,,126146.5,126144.19999999925,60840.203,60998.199999999255,61206.777,131676.998,,,
Instructions,html.Page,2_0,2022-04-25T11:55:28.905Z,,,,,,,,,,,,,,,,,,,,,,,,,,,,,,,12373.601999999635,,form submission,,,,,,,,,,,,,,,,,,,,,144051.59999999963,144050.59999999963,131309.816,131570.19999999925,131676.998,144057.002,,,
Holding screen,html.Screen,2_1_0_0,2022-04-25T11:55:38.893Z,,,,,,,,,,,,,,,,,,,,,,,,,,,,,,,10114.837,,timeout,,,,,,,,,,,,,,,,,,,,,154039.19999999925,154038.344,143990.529,144051.79999999888,144057.002,154171.839,,,
screen,html.Screen,2_1_0_1_0,2022-04-25T11:55:40.482Z,,,,,,,,,,,,,,,,,53,,,,,,,,,,,,,,1452.9609999988752,,response,,,,99,,,,,,,Space,keypress(Space),,,,,,,,When -- ----- -- ------ - ------- --- ----------<br>------------- ------ ------ ---- ---- ------- ----- -- ----<br>-------- ------- -- ---------- --- - --- ----- ----- ----<br>---- --- --- ----- --- ---- ---- ------- ----- ---- -------<br>--- --- -- ----- -- --- ---- -- --- ---- -- ------ ------<br>--- ----- -- ----,155628.59999999963,155624.79999999888,154038.344,154039.3999999985,154171.839,155638.236,,0,When
screen,html.Screen,2_1_0_1_1,2022-04-25T11:55:40.966Z,,,,,,,,,,,,,,,,,53,,,,,,,,,,,,,,472.563999998878,,response,,,,99,,,,,,,Space,keypress(Space),,,,,,,,---- it ----- -- ------ - ------- --- ----------<br>------------- ------ ------ ---- ---- ------- ----- -- ----<br>-------- ------- -- ---------- --- - --- ----- ----- ----<br>---- --- --- ----- --- ---- ---- ------- ----- ---- -------<br>--- --- -- ----- -- --- ---- -- --- ---- -- ------ ------<br>--- ----- -- ----,156112.59999999963,156110.79999999888,155621.566,155628.79999999888,155638.236,156121.218,,1,it
screen,html.Screen,2_1_0_1_2,2022-04-25T11:55:41.437Z,,,,,,,,,,,,,,,,,53,,,,,,,,,,,,,,460.1819999985164,,response,,,,99,,,,,,,Space,keypress(Space),,,,,,,,---- -- comes -- ------ - ------- --- ----------<br>------------- ------ ------ ---- ---- ------- ----- -- ----<br>-------- ------- -- ---------- --- - --- ----- ----- ----<br>---- --- --- ----- --- ---- ---- ------- ----- ---- -------<br>--- --- -- ----- -- --- ---- -- --- ---- -- ------ ------<br>--- ----- -- ----,156583,156581.3999999985,156104.713,156112.79999999888,156121.218,156587.844,,2,comes
screen,html.Screen,2_1_0_1_3,2022-04-25T11:55:41.800Z,,,,,,,,,,,,,,,,,53,,,,,,,,,,,,,,357.055999998498,,response,,,,99,,,,,,,Space,keypress(Space),,,,,,,,---- -- ----- to ------ - ------- --- ----------<br>------------- ------ ------ ---- ---- ------- ----- -- ----<br>-------- ------- -- ---------- --- - --- ----- ----- ----<br>---- --- --- ----- --- ---- ---- ------- ----- ---- -------<br>--- --- -- ----- -- --- ---- -- --- ---- -- ------ ------<br>--- ----- -- ----,156946.69999999925,156944.8999999985,156571.404,156583.19999999925,156587.844,156954.382,,3,to
screen,html.Screen,2_1_0_1_4,2022-04-25T11:55:42.154Z,,,,,,,,,,,,,,,,,53,,,,,,,,,,,,,,344.01799999849754,,response,,,,99,,,,,,,Space,keypress(Space),,,,,,,,---- -- ----- -- having - ------- --- ----------<br>------------- ------ ------ ---- ---- ------- ----- -- ----<br>-------- ------- -- ---------- --- - --- ----- ----- ----<br>---- --- --- ----- --- ---- ---- ------- ----- ---- -------<br>--- --- -- ----- -- --- ---- -- --- ---- -- ------ ------<br>--- ----- -- ----,157300,157298.3999999985,156938.022,156946.8999999985,156954.382,157304.374,,4,having
screen,html.Screen,2_1_0_1_5,2022-04-25T11:55:42.459Z,,,,,,,,,,,,,,,,,53,,,,,,,,,,,,,,299.6259999999893,,response,,,,99,,,,,,,Space,keypress(Space),,,,,,,,---- -- ----- -- ------ a ------- --- ----------<br>------------- ------ ------ ---- ---- ------- ----- -- ----<br>-------- ------- -- ---------- --- - --- ----- ----- ----<br>---- --- --- ----- --- ---- ---- ------- ----- ---- -------<br>--- --- -- ----- -- --- ---- -- --- ---- -- ------ ------<br>--- ----- -- ----,157605.59999999963,157604,157287.945,157300.19999999925,157304.374,157621.183,,5,a
screen,html.Screen,2_1_0_1_6,2022-04-25T11:55:42.728Z,,,,,,,,,,,,,,,,,53,,,,,,,,,,,,,,251.81700000001,,response,,,,99,,,,,,,Space,keypress(Space),,,,,,,,---- -- ----- -- ------ - lasting --- ----------<br>------------- ------ ------ ---- ---- ------- ----- -- ----<br>-------- ------- -- ---------- --- - --- ----- ----- ----<br>---- --- --- ----- --- ---- ---- ------- ----- ---- -------<br>--- --- -- ----- -- --- ---- -- --- ---- -- ------ ------<br>--- ----- -- ----,157874.5,157873,157604.54,157605.79999999888,157621.183,157887.797,,6,lasting
screen,html.Screen,2_1_0_1_7,2022-04-25T11:55:43.044Z,,,,,,,,,,,,,,,,,53,,,,,,,,,,,,,,301.2030000000086,,response,,,,99,,,,,,,Space,keypress(Space),,,,,,,,---- -- ----- -- ------ - ------- and ----------<br>------------- ------ ------ ---- ---- ------- ----- -- ----<br>-------- ------- -- ---------- --- - --- ----- ----- ----<br>---- --- --- ----- --- ---- ---- ------- ----- ---- -------<br>--- --- -- ----- -- --- ---- -- --- ---- -- ------ ------<br>--- ----- -- ----,158190.59999999963,158189,157870.958,157874.69999999925,157887.797,158204.369,,7,and
screen,html.Screen,2_1_0_1_8,2022-04-25T11:55:43.354Z,,,,,,,,,,,,,,,,,53,,,,,,,,,,,,,,294.2309999996214,,response,,,,99,,,,,,,Space,keypress(Space),,,,,,,,---- -- ----- -- ------ - ------- --- fulfilling<br>------------- ------ ------ ---- ---- ------- ----- -- ----<br>-------- ------- -- ---------- --- - --- ----- ----- ----<br>---- --- --- ----- --- ---- ---- ------- ----- ---- -------<br>--- --- -- ----- -- --- ---- -- --- ---- -- ------ ------<br>--- ----- -- ----,158500.09999999963,158498.59999999963,158187.726,158190.69999999925,158204.369,158504.117,,8,fulfilling
screen,html.Screen,2_1_0_1_9,2022-04-25T11:55:43.655Z,,,,,,,,,,,,,,,,,53,,,,,,,,,,,,,,295.0829999992566,,response,,,,99,,,,,,,Space,keypress(Space),,,,,,,,"---- -- ----- -- ------ - ------- --- ----------<br>relationship, ------ ------ ---- ---- ------- ----- -- ----<br>-------- ------- -- ---------- --- - --- ----- ----- ----<br>---- --- --- ----- --- ---- ---- ------- ----- ---- -------<br>--- --- -- ----- -- --- ---- -- --- ---- -- ------ ------<br>--- ----- -- ----",158801.59999999963,158799.19999999925,158487.697,158500.29999999888,158504.117,158804.12,,9,"relationship,"
screen,html.Screen,2_1_0_1_10,2022-04-25T11:55:43.944Z,,,,,,,,,,,,,,,,,53,,,,,,,,,,,,,,284.77999999851454,,response,,,,99,,,,,,,Space,keypress(Space),,,,,,,,---- -- ----- -- ------ - ------- --- ----------<br>------------- common ------ ---- ---- ------- ----- -- ----<br>-------- ------- -- ---------- --- - --- ----- ----- ----<br>---- --- --- ----- --- ---- ---- ------- ----- ---- -------<br>--- --- -- ----- -- --- ---- -- --- ---- -- ------ ------<br>--- ----- -- ----,159090.09999999963,159088.8999999985,158787.639,158801.8999999985,158804.12,159104.012,,10,common
screen,html.Screen,2_1_0_1_11,2022-04-25T11:55:45.610Z,,,,,,,,,,,,,,,,,53,,,,,,,,,,,,,,1650.687999999267,,response,,,,99,,,,,,,Space,keypress(Space),,,,,,,,---- -- ----- -- ------ - ------- --- ----------<br>------------- ------ wisdom ---- ---- ------- ----- -- ----<br>-------- ------- -- ---------- --- - --- ----- ----- ----<br>---- --- --- ----- --- ---- ---- ------- ----- ---- -------<br>--- --- -- ----- -- --- ---- -- --- ---- -- ------ ------<br>--- ----- -- ----,160756.09999999963,160754.69999999925,159087.506,159090.29999999888,159104.012,160770.293,,11,wisdom
screen,html.Screen,2_1_0_1_12,2022-04-25T11:55:47.420Z,,,,,,,,,,,,,,,,,53,,,,,,,,,,,,,,1794.8069999996223,,response,,,,99,,,,,,,Space,keypress(Space),,,,,,,,---- -- ----- -- ------ - ------- --- ----------<br>------------- ------ ------ says ---- ------- ----- -- ----<br>-------- ------- -- ---------- --- - --- ----- ----- ----<br>---- --- --- ----- --- ---- ---- ------- ----- ---- -------<br>--- --- -- ----- -- --- ---- -- --- ---- -- ------ ------<br>--- ----- -- ----,162566.5,162565.09999999963,160753.945,160756.29999999888,160770.293,162570.019,,12,says
screen,html.Screen,2_1_0_1_13,2022-04-25T11:55:47.851Z,,,,,,,,,,,,,,,,,53,,,,,,,,,,,,,,426.08099999962724,,response,,,,99,,,,,,,Space,keypress(Space),,,,,,,,---- -- ----- -- ------ - ------- --- ----------<br>------------- ------ ------ ---- that ------- ----- -- ----<br>-------- ------- -- ---------- --- - --- ----- ----- ----<br>---- --- --- ----- --- ---- ---- ------- ----- ---- -------<br>--- --- -- ----- -- --- ---- -- --- ---- -- ------ ------<br>--- ----- -- ----,162997.59999999963,162996.09999999963,162553.8,162566.69999999925,162570.019,163003.303,,13,that
screen,html.Screen,2_1_0_1_14,2022-04-25T11:55:48.366Z,,,,,,,,,,,,,,,,,53,,,,,,,,,,,,,,508.19699999998556,,response,,,,99,,,,,,,Space,keypress(Space),,,,,,,,---- -- ----- -- ------ - ------- --- ----------<br>------------- ------ ------ ---- ---- feeling ----- -- ----<br>-------- ------- -- ---------- --- - --- ----- ----- ----<br>---- --- --- ----- --- ---- ---- ------- ----- ---- -------<br>--- --- -- ----- -- --- ---- -- --- ---- -- ------ ------<br>--- ----- -- ----,163512.8999999985,163511.5,162986.799,162997.79999999888,163003.303,163519.766,,14,feeling
screen,html.Screen,2_1_0_1_15,2022-04-25T11:55:49.006Z,,,,,,,,,,,,,,,,,53,,,,,,,,,,,,,,630.6339999985066,,response,,,,99,,,,,,,Space,keypress(Space),,,,,,,,---- -- ----- -- ------ - ------- --- ----------<br>------------- ------ ------ ---- ---- ------- close -- ----<br>-------- ------- -- ---------- --- - --- ----- ----- ----<br>---- --- --- ----- --- ---- ---- ------- ----- ---- -------<br>--- --- -- ----- -- --- ---- -- --- ---- -- ------ ------<br>--- ----- -- ----,164152.19999999925,164150.3999999985,163503.222,163513.09999999963,163519.766,164170.185,,15,close
screen,html.Screen,2_1_0_1_16,2022-04-25T11:55:49.409Z,,,,,,,,,,,,,,,,,53,,,,,,,,,,,,,,383.51499999925727,,response,,,,99,,,,,,,Space,keypress(Space),,,,,,,,---- -- ----- -- ------ - ------- --- ----------<br>------------- ------ ------ ---- ---- ------- ----- to ----<br>-------- ------- -- ---------- --- - --- ----- ----- ----<br>---- --- --- ----- --- ---- ---- ------- ----- ---- -------<br>--- --- -- ----- -- --- ---- -- --- ---- -- ------ ------<br>--- ----- -- ----,164555.19999999925,164553.69999999925,164136.644,164152.29999999888,164170.185,164569.817,,16,to
screen,html.Screen,2_1_0_1_17,2022-04-25T11:55:49.875Z,,,,,,,,,,,,,,,,,53,,,,,,,,,,,,,,449.88299999924493,,response,,,,99,,,,,,,Space,keypress(Space),,,,,,,,---- -- ----- -- ------ - ------- --- ----------<br>------------- ------ ------ ---- ---- ------- ----- -- your<br>-------- ------- -- ---------- --- - --- ----- ----- ----<br>---- --- --- ----- --- ---- ---- ------- ----- ---- -------<br>--- --- -- ----- -- --- ---- -- --- ---- -- ------ ------<br>--- ----- -- ----,165021.09999999963,165019.69999999925,164553.188,164555.3999999985,164569.817,165036.392,,17,your
screen,html.Screen,2_1_0_1_18,2022-04-25T11:55:50.345Z,,,,,,,,,,,,,,,,,53,,,,,,,,,,,,,,454.10800000000745,,response,,,,99,,,,,,,Space,keypress(Space),,,,,,,,---- -- ----- -- ------ - ------- --- ----------<br>------------- ------ ------ ---- ---- ------- ----- -- ----<br>romantic ------- -- ---------- --- - --- ----- ----- ----<br>---- --- --- ----- --- ---- ---- ------- ----- ---- -------<br>--- --- -- ----- -- --- ---- -- --- ---- -- ------ ------<br>--- ----- -- ----,165491.8999999985,165490.5,165019.654,165021.19999999925,165036.392,165502.944,,18,romantic
screen,html.Screen,2_1_0_1_19,2022-04-25T11:55:50.914Z,,,,,,,,,,,,,,,,,53,,,,,,,,,,,,,,555.5560000000114,,response,,,,99,,,,,,,Space,keypress(Space),,,,,,,,---- -- ----- -- ------ - ------- --- ----------<br>------------- ------ ------ ---- ---- ------- ----- -- ----<br>-------- partner -- ---------- --- - --- ----- ----- ----<br>---- --- --- ----- --- ---- ---- ------- ----- ---- -------<br>--- --- -- ----- -- --- ---- -- --- ---- -- ------ ------<br>--- ----- -- ----,166060.19999999925,166058.5,165486.194,165492,165502.944,166069.321,,19,partner
screen,html.Screen,2_1_0_1_20,2022-04-25T11:55:51.554Z,,,,,,,,,,,,,,,,,53,,,,,,,,,,,,,,629.5789999985136,,response,,,,99,,,,,,,Space,keypress(Space),,,,,,,,---- -- ----- -- ------ - ------- --- ----------<br>------------- ------ ------ ---- ---- ------- ----- -- ----<br>-------- ------- is ---------- --- - --- ----- ----- ----<br>---- --- --- ----- --- ---- ---- ------- ----- ---- -------<br>--- --- -- ----- -- --- ---- -- --- ---- -- ------ ------<br>--- ----- -- ----,166700.3999999985,166698.8999999985,166052.75,166060.3999999985,166069.321,166702.488,,20,is
screen,html.Screen,2_1_0_1_21,2022-04-25T11:55:53.308Z,,,,,,,,,,,,,,,,,53,,,,,,,,,,,,,,1750.9119999984978,,response,,,,99,,,,,,,Space,keypress(Space),,,,,,,,---- -- ----- -- ------ - ------- --- ----------<br>------------- ------ ------ ---- ---- ------- ----- -- ----<br>-------- ------- -- paramount. --- - --- ----- ----- ----<br>---- --- --- ----- --- ---- ---- ------- ----- ---- -------<br>--- --- -- ----- -- --- ---- -- --- ---- -- ------ ------<br>--- ----- -- ----,168454.8999999985,168453.3999999985,166686.136,166700.59999999963,166702.488,168469.054,,21,paramount.
screen,html.Screen,2_1_0_1_22,2022-04-25T11:55:54.135Z,,,,,,,,,,,,,,,,,53,,,,,,,,,,,,,,810.8459999985062,,response,,,,99,,,,,,,Space,keypress(Space),,,,,,,,---- -- ----- -- ------ - ------- --- ----------<br>------------- ------ ------ ---- ---- ------- ----- -- ----<br>-------- ------- -- ---------- But - --- ----- ----- ----<br>---- --- --- ----- --- ---- ---- ------- ----- ---- -------<br>--- --- -- ----- -- --- ---- -- --- ---- -- ------ ------<br>--- ----- -- ----,169281.29999999888,169279.8999999985,168452.637,168455.09999999963,168469.054,169285.32,,22,But
screen,html.Screen,2_1_0_1_23,2022-04-25T11:55:54.523Z,,,,,,,,,,,,,,,,,53,,,,,,,,,,,,,,383.0799999985029,,response,,,,99,,,,,,,Space,keypress(Space),,,,,,,,---- -- ----- -- ------ - ------- --- ----------<br>------------- ------ ------ ---- ---- ------- ----- -- ----<br>-------- ------- -- ---------- --- a --- ----- ----- ----<br>---- --- --- ----- --- ---- ---- ------- ----- ---- -------<br>--- --- -- ----- -- --- ---- -- --- ---- -- ------ ------<br>--- ----- -- ----,169669.59999999963,169668.3999999985,169268.818,169281.5,169285.32,169685.266,,23,a
screen,html.Screen,2_1_0_1_24,2022-04-25T11:55:54.947Z,,,,,,,,,,,,,,,,,53,,,,,,,,,,,,,,407.1339999985066,,response,,,,99,,,,,,,Space,keypress(Space),,,,,,,,---- -- ----- -- ------ - ------- --- ----------<br>------------- ------ ------ ---- ---- ------- ----- -- ----<br>-------- ------- -- ---------- --- - new ----- ----- ----<br>---- --- --- ----- --- ---- ---- ------- ----- ---- -------<br>--- --- -- ----- -- --- ---- -- --- ---- -- ------ ------<br>--- ----- -- ----,170094,170092.3999999985,169668.641,169669.69999999925,169685.266,170101.835,,24,new
screen,html.Screen,2_1_0_1_25,2022-04-25T11:55:55.481Z,,,,,,,,,,,,,,,,,53,,,,,,,,,,,,,,524.064999998518,,response,,,,99,,,,,,,Space,keypress(Space),,,,,,,,---- -- ----- -- ------ - ------- --- ----------<br>------------- ------ ------ ---- ---- ------- ----- -- ----<br>-------- ------- -- ---------- --- - --- study ----- ----<br>---- --- --- ----- --- ---- ---- ------- ----- ---- -------<br>--- --- -- ----- -- --- ---- -- --- ---- -- ------ ------<br>--- ----- -- ----,170627.19999999925,170625.8999999985,170085.235,170094.09999999963,170101.835,170635.034,,25,study
screen,html.Screen,2_1_0_1_26,2022-04-25T11:55:56.054Z,,,,,,,,,,,,,,,,,53,,,,,,,,,,,,,,563.5659999996133,,response,,,,99,,,,,,,Space,keypress(Space),,,,,,,,---- -- ----- -- ------ - ------- --- ----------<br>------------- ------ ------ ---- ---- ------- ----- -- ----<br>-------- ------- -- ---------- --- - --- ----- finds ----<br>---- --- --- ----- --- ---- ---- ------- ----- ---- -------<br>--- --- -- ----- -- --- ---- -- --- ---- -- ------ ------<br>--- ----- -- ----,171200,171198.59999999963,170618.681,170627.3999999985,170635.034,171224.585,,26,finds
screen,html.Screen,2_1_0_1_27,2022-04-25T11:55:56.595Z,,,,,,,,,,,,,,,,,53,,,,,,,,,,,,,,515.814999998518,,response,,,,99,,,,,,,Space,keypress(Space),,,,,,,,---- -- ----- -- ------ - ------- --- ----------<br>------------- ------ ------ ---- ---- ------- ----- -- ----<br>-------- ------- -- ---------- --- - --- ----- ----- that<br>---- --- --- ----- --- ---- ---- ------- ----- ---- -------<br>--- --- -- ----- -- --- ---- -- --- ---- -- ------ ------<br>--- ----- -- ----,171741.79999999888,171740.3999999985,171185.249,171200.19999999925,171224.585,171751.48,,27,that
screen,html.Screen,2_1_0_1_28,2022-04-25T11:55:57.044Z,,,,,,,,,,,,,,,,,53,,,,,,,,,,,,,,437.4199999984994,,response,,,,99,,,,,,,Space,keypress(Space),,,,,,,,---- -- ----- -- ------ - ------- --- ----------<br>------------- ------ ------ ---- ---- ------- ----- -- ----<br>-------- ------- -- ---------- --- - --- ----- ----- ----<br>it's --- --- ----- --- ---- ---- ------- ----- ---- -------<br>--- --- -- ----- -- --- ---- -- --- ---- -- ------ ------<br>--- ----- -- ----,172190.5,172188.8999999985,171735.086,171741.8999999985,171751.48,172201.654,,28,it's
screen,html.Screen,2_1_0_1_29,2022-04-25T11:55:57.494Z,,,,,,,,,,,,,,,,,53,,,,,,,,,,,,,,437.24599999850034,,response,,,,99,,,,,,,Space,keypress(Space),,,,,,,,---- -- ----- -- ------ - ------- --- ----------<br>------------- ------ ------ ---- ---- ------- ----- -- ----<br>-------- ------- -- ---------- --- - --- ----- ----- ----<br>---- not --- ----- --- ---- ---- ------- ----- ---- -------<br>--- --- -- ----- -- --- ---- -- --- ---- -- ------ ------<br>--- ----- -- ----,172640.3999999985,172638.8999999985,172184.837,172190.69999999925,172201.654,172651.539,,29,not
screen,html.Screen,2_1_0_1_30,2022-04-25T11:55:57.914Z,,,,,,,,,,,,,,,,,53,,,,,,,,,,,,,,407.86099999852013,,response,,,,99,,,,,,,Space,keypress(Space),,,,,,,,---- -- ----- -- ------ - ------- --- ----------<br>------------- ------ ------ ---- ---- ------- ----- -- ----<br>-------- ------- -- ---------- --- - --- ----- ----- ----<br>---- --- how ----- --- ---- ---- ------- ----- ---- -------<br>--- --- -- ----- -- --- ---- -- --- ---- -- ------ ------<br>--- ----- -- ----,173060.8999999985,173059.3999999985,172634.941,172640.5,172651.539,173067.89,,30,how
screen,html.Screen,2_1_0_1_31,2022-04-25T11:55:58.308Z,,,,,,,,,,,,,,,,,53,,,,,,,,,,,,,,385.309999999241,,response,,,,99,,,,,,,Space,keypress(Space),,,,,,,,---- -- ----- -- ------ - ------- --- ----------<br>------------- ------ ------ ---- ---- ------- ----- -- ----<br>-------- ------- -- ---------- --- - --- ----- ----- ----<br>---- --- --- close --- ---- ---- ------- ----- ---- -------<br>--- --- -- ----- -- --- ---- -- --- ---- -- ------ ------<br>--- ----- -- ----,173454.59999999963,173453.19999999925,173051.343,173061,173067.89,173468.077,,31,close
screen,html.Screen,2_1_0_1_32,2022-04-25T11:55:58.687Z,,,,,,,,,,,,,,,,,53,,,,,,,,,,,,,,364.2229999988922,,response,,,,99,,,,,,,Space,keypress(Space),,,,,,,,---- -- ----- -- ------ - ------- --- ----------<br>------------- ------ ------ ---- ---- ------- ----- -- ----<br>-------- ------- -- ---------- --- - --- ----- ----- ----<br>---- --- --- ----- you ---- ---- ------- ----- ---- -------<br>--- --- -- ----- -- --- ---- -- --- ---- -- ------ ------<br>--- ----- -- ----,173833.69999999925,173832.29999999888,173451.476,173454.79999999888,173468.077,173851.328,,32,you
screen,html.Screen,2_1_0_1_33,2022-04-25T11:55:59.384Z,,,,,,,,,,,,,,,,,53,,,,,,,,,,,,,,677.7719999996189,,response,,,,99,,,,,,,Space,keypress(Space),,,,,,,,---- -- ----- -- ------ - ------- --- ----------<br>------------- ------ ------ ---- ---- ------- ----- -- ----<br>-------- ------- -- ---------- --- - --- ----- ----- ----<br>---- --- --- ----- --- feel ---- ------- ----- ---- -------<br>--- --- -- ----- -- --- ---- -- --- ---- -- ------ ------<br>--- ----- -- ----,174530.8999999985,174529.09999999963,173834.511,173833.79999999888,173851.328,174534.278,,33,feel
screen,html.Screen,2_1_0_1_34,2022-04-25T11:55:59.810Z,,,,,,,,,,,,,,,,,53,,,,,,,,,,,,,,421.02199999889126,,response,,,,99,,,,,,,Space,keypress(Space),,,,,,,,---- -- ----- -- ------ - ------- --- ----------<br>------------- ------ ------ ---- ---- ------- ----- -- ----<br>-------- ------- -- ---------- --- - --- ----- ----- ----<br>---- --- --- ----- --- ---- that ------- ----- ---- -------<br>--- --- -- ----- -- --- ---- -- --- ---- -- ------ ------<br>--- ----- -- ----,174956.69999999925,174955.29999999888,174517.751,174531.09999999963,174534.278,174967.783,,34,that
screen,html.Screen,2_1_0_1_35,2022-04-25T11:56:00.283Z,,,,,,,,,,,,,,,,,53,,,,,,,,,,,,,,460.7170000000042,,response,,,,99,,,,,,,Space,keypress(Space),,,,,,,,---- -- ----- -- ------ - ------- --- ----------<br>------------- ------ ------ ---- ---- ------- ----- -- ----<br>-------- ------- -- ---------- --- - --- ----- ----- ----<br>---- --- --- ----- --- ---- ---- matters ----- ---- -------<br>--- --- -- ----- -- --- ---- -- --- ---- -- ------ ------<br>--- ----- -- ----,175429.8999999985,175428.5,174951.155,174956.8999999985,174967.783,175434.149,,35,matters
screen,html.Screen,2_1_0_1_36,2022-04-25T11:56:01.087Z,,,,,,,,,,,,,,,,,53,,,,,,,,,,,,,,798.250999998505,,response,,,,99,,,,,,,Space,keypress(Space),,,,,,,,"---- -- ----- -- ------ - ------- --- ----------<br>------------- ------ ------ ---- ---- ------- ----- -- ----<br>-------- ------- -- ---------- --- - --- ----- ----- ----<br>---- --- --- ----- --- ---- ---- ------- most, ---- -------<br>--- --- -- ----- -- --- ---- -- --- ---- -- ------ ------<br>--- ----- -- ----",176233.79999999888,176232.3999999985,175417.73,175430,175434.149,176250.859,,36,"most,"
screen,html.Screen,2_1_0_1_37,2022-04-25T11:56:01.785Z,,,,,,,,,,,,,,,,,53,,,,,,,,,,,,,,679.9409999988857,,response,,,,99,,,,,,,Space,keypress(Space),,,,,,,,---- -- ----- -- ------ - ------- --- ----------<br>------------- ------ ------ ---- ---- ------- ----- -- ----<br>-------- ------- -- ---------- --- - --- ----- ----- ----<br>---- --- --- ----- --- ---- ---- ------- ----- it's -------<br>--- --- -- ----- -- --- ---- -- --- ---- -- ------ ------<br>--- ----- -- ----,176931.8999999985,176930.79999999888,176234.297,176234,176250.859,176951.356,,37,it's
screen,html.Screen,2_1_0_1_38,2022-04-25T11:56:02.250Z,,,,,,,,,,,,,,,,,53,,,,,,,,,,,,,,444.14400000000023,,response,,,,99,,,,,,,Space,keypress(Space),,,,,,,,---- -- ----- -- ------ - ------- --- ----------<br>------------- ------ ------ ---- ---- ------- ----- -- ----<br>-------- ------- -- ---------- --- - --- ----- ----- ----<br>---- --- --- ----- --- ---- ---- ------- ----- ---- whether<br>--- --- -- ----- -- --- ---- -- --- ---- -- ------ ------<br>--- ----- -- ----,177396.79999999888,177395.5,176917.473,176932.69999999925,176951.356,177400.419,,38,whether
screen,html.Screen,2_1_0_1_39,2022-04-25T11:56:02.670Z,,,,,,,,,,,,,,,,,53,,,,,,,,,,,,,,414.18099999963306,,response,,,,99,,,,,,,Space,keypress(Space),,,,,,,,---- -- ----- -- ------ - ------- --- ----------<br>------------- ------ ------ ---- ---- ------- ----- -- ----<br>-------- ------- -- ---------- --- - --- ----- ----- ----<br>---- --- --- ----- --- ---- ---- ------- ----- ---- -------<br>you --- -- ----- -- --- ---- -- --- ---- -- ------ ------<br>--- ----- -- ----,177816.09999999963,177814.59999999963,177384.048,177397,177400.419,177833.86,,39,you
screen,html.Screen,2_1_0_1_40,2022-04-25T11:56:03.079Z,,,,,,,,,,,,,,,,,53,,,,,,,,,,,,,,390.23999999964144,,response,,,,99,,,,,,,Space,keypress(Space),,,,,,,,---- -- ----- -- ------ - ------- --- ----------<br>------------- ------ ------ ---- ---- ------- ----- -- ----<br>-------- ------- -- ---------- --- - --- ----- ----- ----<br>---- --- --- ----- --- ---- ---- ------- ----- ---- -------<br>--- are -- ----- -- --- ---- -- --- ---- -- ------ ------<br>--- ----- -- ----,178225.5,178224.09999999963,177800.593,177816.29999999888,177833.86,178233.811,,40,are
screen,html.Screen,2_1_0_1_41,2022-04-25T11:56:03.463Z,,,,,,,,,,,,,,,,,53,,,,,,,,,,,,,,373.98899999889545,,response,,,,99,,,,,,,Space,keypress(Space),,,,,,,,---- -- ----- -- ------ - ------- --- ----------<br>------------- ------ ------ ---- ---- ------- ----- -- ----<br>-------- ------- -- ---------- --- - --- ----- ----- ----<br>---- --- --- ----- --- ---- ---- ------- ----- ---- -------<br>--- --- as ----- -- --- ---- -- --- ---- -- ------ ------<br>--- ----- -- ----,178609.59999999963,178607.79999999888,178217.176,178225.59999999963,178233.811,178616.799,,41,as
screen,html.Screen,2_1_0_1_42,2022-04-25T11:56:03.829Z,,,,,,,,,,,,,,,,,53,,,,,,,,,,,,,,357.3009999996284,,response,,,,99,,,,,,,Space,keypress(Space),,,,,,,,---- -- ----- -- ------ - ------- --- ----------<br>------------- ------ ------ ---- ---- ------- ----- -- ----<br>-------- ------- -- ---------- --- - --- ----- ----- ----<br>---- --- --- ----- --- ---- ---- ------- ----- ---- -------<br>--- --- -- close -- --- ---- -- --- ---- -- ------ ------<br>--- ----- -- ----,178975.59999999963,178974.09999999963,178600.319,178609.79999999888,178616.799,178983.633,,42,close
screen,html.Screen,2_1_0_1_43,2022-04-25T11:56:04.207Z,,,,,,,,,,,,,,,,,53,,,,,,,,,,,,,,368.26699999850825,,response,,,,99,,,,,,,Space,keypress(Space),,,,,,,,---- -- ----- -- ------ - ------- --- ----------<br>------------- ------ ------ ---- ---- ------- ----- -- ----<br>-------- ------- -- ---------- --- - --- ----- ----- ----<br>---- --- --- ----- --- ---- ---- ------- ----- ---- -------<br>--- --- -- ----- as --- ---- -- --- ---- -- ------ ------<br>--- ----- -- ----,179353.29999999888,179351.8999999985,178966.992,178975.79999999888,178983.633,179366.853,,43,as
screen,html.Screen,2_1_0_1_44,2022-04-25T11:56:04.716Z,,,,,,,,,,,,,,,,,53,,,,,,,,,,,,,,493.7469999996247,,response,,,,99,,,,,,,Space,keypress(Space),,,,,,,,---- -- ----- -- ------ - ------- --- ----------<br>------------- ------ ------ ---- ---- ------- ----- -- ----<br>-------- ------- -- ---------- --- - --- ----- ----- ----<br>---- --- --- ----- --- ---- ---- ------- ----- ---- -------<br>--- --- -- ----- -- you ---- -- --- ---- -- ------ ------<br>--- ----- -- ----,179862.09999999963,179860.59999999963,179350.134,179353.3999999985,179366.853,179866.609,,44,you
screen,html.Screen,2_1_0_1_45,2022-04-25T11:56:05.118Z,,,,,,,,,,,,,,,,,53,,,,,,,,,,,,,,396.49099999963073,,response,,,,99,,,,,,,Space,keypress(Space),,,,,,,,---- -- ----- -- ------ - ------- --- ----------<br>------------- ------ ------ ---- ---- ------- ----- -- ----<br>-------- ------- -- ---------- --- - --- ----- ----- ----<br>---- --- --- ----- --- ---- ---- ------- ----- ---- -------<br>--- --- -- ----- -- --- want -- --- ---- -- ------ ------<br>--- ----- -- ----,180264.5,180263.09999999963,179849.985,179862.19999999925,179866.609,180284.474,,45,want
screen,html.Screen,2_1_0_1_46,2022-04-25T11:56:05.476Z,,,,,,,,,,,,,,,,,53,,,,,,,,,,,,,,335.92599999852246,,response,,,,99,,,,,,,Space,keypress(Space),,,,,,,,---- -- ----- -- ------ - ------- --- ----------<br>------------- ------ ------ ---- ---- ------- ----- -- ----<br>-------- ------- -- ---------- --- - --- ----- ----- ----<br>---- --- --- ----- --- ---- ---- ------- ----- ---- -------<br>--- --- -- ----- -- --- ---- to --- ---- -- ------ ------<br>--- ----- -- ----,180622.3999999985,180620.3999999985,180250.114,180264.69999999925,180284.474,180633.304,,46,to
screen,html.Screen,2_1_0_1_47,2022-04-25T11:56:05.884Z,,,,,,,,,,,,,,,,,53,,,,,,,,,,,,,,395.3959999992512,,response,,,,99,,,,,,,Space,keypress(Space),,,,,,,,"---- -- ----- -- ------ - ------- --- ----------<br>------------- ------ ------ ---- ---- ------- ----- -- ----<br>-------- ------- -- ---------- --- - --- ----- ----- ----<br>---- --- --- ----- --- ---- ---- ------- ----- ---- -------<br>--- --- -- ----- -- --- ---- -- be, ---- -- ------ ------<br>--- ----- -- ----",181030.09999999963,181028.69999999925,180616.697,180622.5,180633.304,181033.022,,47,"be,"
screen,html.Screen,2_1_0_1_48,2022-04-25T11:56:06.235Z,,,,,,,,,,,,,,,,,53,,,,,,,,,,,,,,347.07799999963026,,response,,,,99,,,,,,,Space,keypress(Space),,,,,,,,---- -- ----- -- ------ - ------- --- ----------<br>------------- ------ ------ ---- ---- ------- ----- -- ----<br>-------- ------- -- ---------- --- - --- ----- ----- ----<br>---- --- --- ----- --- ---- ---- ------- ----- ---- -------<br>--- --- -- ----- -- --- ---- -- --- even -- ------ ------<br>--- ----- -- ----,181381.5,181380.09999999963,181016.623,181030.19999999925,181033.022,181410.28,,48,even
screen,html.Screen,2_1_0_1_49,2022-04-25T11:56:06.631Z,,,,,,,,,,,,,,,,,53,,,,,,,,,,,,,,366.4199999992561,,response,,,,99,,,,,,,Space,keypress(Space),,,,,,,,---- -- ----- -- ------ - ------- --- ----------<br>------------- ------ ------ ---- ---- ------- ----- -- ----<br>-------- ------- -- ---------- --- - --- ----- ----- ----<br>---- --- --- ----- --- ---- ---- ------- ----- ---- -------<br>--- --- -- ----- -- --- ---- -- --- ---- if ------ ------<br>--- ----- -- ----,181778.09999999963,181776.69999999925,181366.551,181381.59999999963,181410.28,181782.926,,49,if
screen,html.Screen,2_1_0_1_50,2022-04-25T11:56:07.032Z,,,,,,,,,,,,,,,,,53,,,,,,,,,,,,,,394.37399999887566,,response,,,,99,,,,,,,Space,keypress(Space),,,,,,,,---- -- ----- -- ------ - ------- --- ----------<br>------------- ------ ------ ---- ---- ------- ----- -- ----<br>-------- ------- -- ---------- --- - --- ----- ----- ----<br>---- --- --- ----- --- ---- ---- ------- ----- ---- -------<br>--- --- -- ----- -- --- ---- -- --- ---- -- that's ------<br>--- ----- -- ----,182178.8999999985,182177.29999999888,181766.477,181778.19999999925,181782.926,182182.82,,50,that's
screen,html.Screen,2_1_0_1_51,2022-04-25T11:56:07.433Z,,,,,,,,,,,,,,,,,53,,,,,,,,,,,,,,395.7799999996205,,response,,,,99,,,,,,,Space,keypress(Space),,,,,,,,---- -- ----- -- ------ - ------- --- ----------<br>------------- ------ ------ ---- ---- ------- ----- -- ----<br>-------- ------- -- ---------- --- - --- ----- ----- ----<br>---- --- --- ----- --- ---- ---- ------- ----- ---- -------<br>--- --- -- ----- -- --- ---- -- --- ---- -- ------ really<br>--- ----- -- ----,182579.8999999985,182578.59999999963,182166.399,182179,182182.82,182582.699,,51,really
screen,html.Screen,2_1_0_1_52,2022-04-25T11:56:07.865Z,,,,,,,,,,,,,,,,,53,,,,,,,,,,,,,,427.0009999992617,,response,,,,99,,,,,,,Space,keypress(Space),,,,,,,,---- -- ----- -- ------ - ------- --- ----------<br>------------- ------ ------ ---- ---- ------- ----- -- ----<br>-------- ------- -- ---------- --- - --- ----- ----- ----<br>---- --- --- ----- --- ---- ---- ------- ----- ---- -------<br>--- --- -- ----- -- --- ---- -- --- ---- -- ------ ------<br>not ----- -- ----,183011.5,183009.69999999925,182566.322,182580.09999999963,182582.699,183015.967,,52,not
screen,html.Screen,2_1_0_1_53,2022-04-25T11:56:08.338Z,,,,,,,,,,,,,,,,,53,,,,,,,,,,,,,,467.1329999996233,,response,,,,99,,,,,,,Space,keypress(Space),,,,,,,,---- -- ----- -- ------ - ------- --- ----------<br>------------- ------ ------ ---- ---- ------- ----- -- ----<br>-------- ------- -- ---------- --- - --- ----- ----- ----<br>---- --- --- ----- --- ---- ---- ------- ----- ---- -------<br>--- --- -- ----- -- --- ---- -- --- ---- -- ------ ------<br>--- close -- ----,183484.59999999963,183483.09999999963,182999.576,183011.8999999985,183015.967,183499.436,,53,close
screen,html.Screen,2_1_0_1_54,2022-04-25T11:56:08.746Z,,,,,,,,,,,,,,,,,53,,,,,,,,,,,,,,392.1639999996405,,response,,,,99,,,,,,,Space,keypress(Space),,,,,,,,---- -- ----- -- ------ - ------- --- ----------<br>------------- ------ ------ ---- ---- ------- ----- -- ----<br>-------- ------- -- ---------- --- - --- ----- ----- ----<br>---- --- --- ----- --- ---- ---- ------- ----- ---- -------<br>--- --- -- ----- -- --- ---- -- --- ---- -- ------ ------<br>--- ----- at ----,183893.09999999963,183891.59999999963,183482.822,183484.69999999925,183499.436,183899.137,,54,at
screen,html.Screen,2_1_0_1_55,2022-04-25T11:56:09.366Z,,,,,,,,,,,,,,,,,53,,,,,,,,,,,,,,611.9629999996396,,response,,,,99,,,,,,,Space,keypress(Space),,,,,,,,---- -- ----- -- ------ - ------- --- ----------<br>------------- ------ ------ ---- ---- ------- ----- -- ----<br>-------- ------- -- ---------- --- - --- ----- ----- ----<br>---- --- --- ----- --- ---- ---- ------- ----- ---- -------<br>--- --- -- ----- -- --- ---- -- --- ---- -- ------ ------<br>--- ----- -- all.,184512.5,184511.09999999963,183882.585,183893.19999999925,183899.137,184515.708,,55,all.
Item 99,flow.Loop,2_1_0_1,2022-04-25T11:56:09.366Z,,,,,,,,,,,,,,,,,,,,,,,,,,,,,,,30339.26099999962,,completion,,,,,A,,,,,,,,,,,silence,,,,,184513.09999999963,184511.09999999963,154038.344,154039.3999999985,154171.839,184515.708,,,
Question 1,html.Screen,2_1_0_2,2022-04-25T11:56:17.088Z,,,,,,,,,,,,,,,,,,,,,,,,,,,,true,FALSE,,7716.491999999242,,response,,,,99,A,,,,,,FALSE,click #choice-2,,,,silence,,,,,192234.69999999925,192232.19999999925,184499.69,184513.29999999888,184515.708,192247.555,,,
Question 2,html.Screen,2_1_0_3,2022-04-25T11:56:21.315Z,,,,,,,,,,,,,,,,,,,,,,,,,,,,true,TRUE,,4211.744999998889,,response,,,,99,A,,,,,,TRUE,click #choice-1,,,,silence,,,,,196461.69999999925,196459.29999999888,192231.064,192234.79999999888,192247.555,196463.387,,,
Item 99,flow.Sequence,2_1_0,2022-04-25T11:56:21.315Z,,,,,,,,,,,,,,,,,,,,,,,,,,,,,,,52402.297999998875,,completion,,,,,,,,,,,,,,,,,,,,,196461.8999999985,196459.29999999888,143990.529,144051.79999999888,144057.002,196463.387,,,
Holding screen,html.Screen,2_1_1_0,2022-04-25T11:56:31.299Z,,,,,,,,,,,,,,,,,,,,,,,,,,,,,,,9997.976000000024,,timeout,,,,,,,,,,,,,,,,,,,,,206445.59999999963,206444.906,196446.902,196462.09999999963,196463.387,206461.363,,,
screen,html.Screen,2_1_1_1_0,2022-04-25T11:56:32.188Z,,,,,,,,,,,,,,,,,54,,,,,,,,,,,,,,871.4369999988703,,response,,,,100,,,,,,,Space,keypress(Space),,,,,,,,At --- ---- --- ------ ----- ------- ---- -- --- ------- --<br>------- ---------- ------ -- ----- -- ----- -- ---- ------<br>--- ----- --- --- ------ -------- ----- --- ------ ----- --<br>----- ----- ---------- --- --- ------ ------ ---- -- ------<br>------- --- ------ ----- --- ---- ------- -- ---- --- --<br>------- ------,207334.79999999888,207332.79999999888,206444.906,206445.8999999985,206461.363,207344.508,,0,At
screen,html.Screen,2_1_1_1_1,2022-04-25T11:56:32.532Z,,,,,,,,,,,,,,,,,54,,,,,,,,,,,,,,332.59199999962584,,response,,,,100,,,,,,,Space,keypress(Space),,,,,,,,-- the ---- --- ------ ----- ------- ---- -- --- ------- --<br>------- ---------- ------ -- ----- -- ----- -- ---- ------<br>--- ----- --- --- ------ -------- ----- --- ------ ----- --<br>----- ----- ---------- --- --- ------ ------ ---- -- ------<br>------- --- ------ ----- --- ---- ------- -- ---- --- --<br>------- ------,207678.59999999963,207677.09999999963,207328.009,207334.8999999985,207344.508,207694.511,,1,the
screen,html.Screen,2_1_1_1_2,2022-04-25T11:56:33.010Z,,,,,,,,,,,,,,,,,54,,,,,,,,,,,,,,460.7889999988838,,response,,,,100,,,,,,,Space,keypress(Space),,,,,,,,-- --- time --- ------ ----- ------- ---- -- --- ------- --<br>------- ---------- ------ -- ----- -- ----- -- ---- ------<br>--- ----- --- --- ------ -------- ----- --- ------ ----- --<br>----- ----- ---------- --- --- ------ ------ ---- -- ------<br>------- --- ------ ----- --- ---- ------- -- ---- --- --<br>------- ------,208157,208155.29999999888,207678.068,207678.69999999925,207694.511,208161.031,,2,time
screen,html.Screen,2_1_1_1_3,2022-04-25T11:56:33.372Z,,,,,,,,,,,,,,,,,54,,,,,,,,,,,,,,355.9690000000119,,response,,,,100,,,,,,,Space,keypress(Space),,,,,,,,-- --- ---- the ------ ----- ------- ---- -- --- ------- --<br>------- ---------- ------ -- ----- -- ----- -- ---- ------<br>--- ----- --- --- ------ -------- ----- --- ------ ----- --<br>----- ----- ---------- --- --- ------ ------ ---- -- ------<br>------- --- ------ ----- --- ---- ------- -- ---- --- --<br>------- ------,208518.5,208517,208144.696,208157.09999999963,208161.031,208527.595,,3,the
screen,html.Screen,2_1_1_1_4,2022-04-25T11:56:33.918Z,,,,,,,,,,,,,,,,,54,,,,,,,,,,,,,,535.9049999999988,,response,,,,100,,,,,,,Space,keypress(Space),,,,,,,,-- --- ---- --- French ----- ------- ---- -- --- ------- --<br>------- ---------- ------ -- ----- -- ----- -- ---- ------<br>--- ----- --- --- ------ -------- ----- --- ------ ----- --<br>----- ----- ---------- --- --- ------ ------ ---- -- ------<br>------- --- ------ ----- --- ---- ------- -- ---- --- --<br>------- ------,209065.09999999963,209063.5,208511.18,208518.59999999963,208527.595,209077.641,,4,French
screen,html.Screen,2_1_1_1_5,2022-04-25T11:56:34.347Z,,,,,,,,,,,,,,,,,54,,,,,,,,,,,,,,414.4589999996242,,response,,,,100,,,,,,,Space,keypress(Space),,,,,,,,-- --- ---- --- ------ crown ------- ---- -- --- ------- --<br>------- ---------- ------ -- ----- -- ----- -- ---- ------<br>--- ----- --- --- ------ -------- ----- --- ------ ----- --<br>----- ----- ---------- --- --- ------ ------ ---- -- ------<br>------- --- ------ ----- --- ---- ------- -- ---- --- --<br>------- ------,209493.5,209492.09999999963,209060.953,209065.19999999925,209077.641,209510.996,,5,crown
screen,html.Screen,2_1_1_1_6,2022-04-25T11:56:34.808Z,,,,,,,,,,,,,,,,,54,,,,,,,,,,,,,,442.00399999998626,,response,,,,100,,,,,,,Space,keypress(Space),,,,,,,,-- --- ---- --- ------ ----- secured ---- -- --- ------- --<br>------- ---------- ------ -- ----- -- ----- -- ---- ------<br>--- ----- --- --- ------ -------- ----- --- ------ ----- --<br>----- ----- ---------- --- --- ------ ------ ---- -- ------<br>------- --- ------ ----- --- ---- ------- -- ---- --- --<br>------- ------,209954.3999999985,209953,209494.318,209493.69999999925,209510.996,209960.685,,6,secured
screen,html.Screen,2_1_1_1_7,2022-04-25T11:56:35.433Z,,,,,,,,,,,,,,,,,54,,,,,,,,,,,,,,617.9149999996298,,response,,,,100,,,,,,,Space,keypress(Space),,,,,,,,-- --- ---- --- ------ ----- ------- much -- --- ------- --<br>------- ---------- ------ -- ----- -- ----- -- ---- ------<br>--- ----- --- --- ------ -------- ----- --- ------ ----- --<br>----- ----- ---------- --- --- ------ ------ ---- -- ------<br>------- --- ------ ----- --- ---- ------- -- ---- --- --<br>------- ------,210580.19999999925,210578.59999999963,209944.286,209954.59999999963,209960.685,210594.087,,7,much
screen,html.Screen,2_1_1_1_8,2022-04-25T11:56:35.821Z,,,,,,,,,,,,,,,,,54,,,,,,,,,,,,,,372.41300000000047,,response,,,,100,,,,,,,Space,keypress(Space),,,,,,,,-- --- ---- --- ------ ----- ------- ---- of --- ------- --<br>------- ---------- ------ -- ----- -- ----- -- ---- ------<br>--- ----- --- --- ------ -------- ----- --- ------ ----- --<br>----- ----- ---------- --- --- ------ ------ ---- -- ------<br>------- --- ------ ----- --- ---- ------- -- ---- --- --<br>------- ------,210967.79999999888,210966.5,210577.339,210580.3999999985,210594.087,210977.88,,8,of
screen,html.Screen,2_1_1_1_9,2022-04-25T11:56:36.218Z,,,,,,,,,,,,,,,,,54,,,,,,,,,,,,,,385.91999999887776,,response,,,,100,,,,,,,Space,keypress(Space),,,,,,,,-- --- ---- --- ------ ----- ------- ---- -- its ------- --<br>------- ---------- ------ -- ----- -- ----- -- ---- ------<br>--- ----- --- --- ------ -------- ----- --- ------ ----- --<br>----- ----- ---------- --- --- ------ ------ ---- -- ------<br>------- --- ------ ----- --- ---- ------- -- ---- --- --<br>------- ------,211365.19999999925,211363.79999999888,210960.747,210967.8999999985,210977.88,211377.298,,9,its
screen,html.Screen,2_1_1_1_10,2022-04-25T11:56:36.662Z,,,,,,,,,,,,,,,,,54,,,,,,,,,,,,,,430.1019999985001,,response,,,,100,,,,,,,Space,keypress(Space),,,,,,,,-- --- ---- --- ------ ----- ------- ---- -- --- revenue --<br>------- ---------- ------ -- ----- -- ----- -- ---- ------<br>--- ----- --- --- ------ -------- ----- --- ------ ----- --<br>----- ----- ---------- --- --- ------ ------ ---- -- ------<br>------- --- ------ ----- --- ---- ------- -- ---- --- --<br>------- ------,211808.69999999925,211807.3999999985,211360.649,211365.29999999888,211377.298,211834.402,,10,revenue
screen,html.Screen,2_1_1_1_11,2022-04-25T11:56:37.061Z,,,,,,,,,,,,,,,,,54,,,,,,,,,,,,,,371.89799999888055,,response,,,,100,,,,,,,Space,keypress(Space),,,,,,,,-- --- ---- --- ------ ----- ------- ---- -- --- ------- by<br>------- ---------- ------ -- ----- -- ----- -- ---- ------<br>--- ----- --- --- ------ -------- ----- --- ------ ----- --<br>----- ----- ---------- --- --- ------ ------ ---- -- ------<br>------- --- ------ ----- --- ---- ------- -- ---- --- --<br>------- ------,212207.69999999925,212206.29999999888,211793.738,211808.8999999985,211834.402,212210.251,,11,by
screen,html.Screen,2_1_1_1_12,2022-04-25T11:56:37.592Z,,,,,,,,,,,,,,,,,54,,,,,,,,,,,,,,526.9489999992657,,response,,,,100,,,,,,,Space,keypress(Space),,,,,,,,-- --- ---- --- ------ ----- ------- ---- -- --- ------- --<br>issuing ---------- ------ -- ----- -- ----- -- ---- ------<br>--- ----- --- --- ------ -------- ----- --- ------ ----- --<br>----- ----- ---------- --- --- ------ ------ ---- -- ------<br>------- --- ------ ----- --- ---- ------- -- ---- --- --<br>------- ------,212738.69999999925,212737.19999999925,212193.836,212207.8999999985,212210.251,212743.487,,12,issuing
screen,html.Screen,2_1_1_1_13,2022-04-25T11:56:38.033Z,,,,,,,,,,,,,,,,,54,,,,,,,,,,,,,,434.61299999963376,,response,,,,100,,,,,,,Space,keypress(Space),,,,,,,,-- --- ---- --- ------ ----- ------- ---- -- --- ------- --<br>------- government ------ -- ----- -- ----- -- ---- ------<br>--- ----- --- --- ------ -------- ----- --- ------ ----- --<br>----- ----- ---------- --- --- ------ ------ ---- -- ------<br>------- --- ------ ----- --- ---- ------- -- ---- --- --<br>------- ------,213179.59999999963,213178.09999999963,212727.087,212738.79999999888,212743.487,213193.385,,13,government
screen,html.Screen,2_1_1_1_14,2022-04-25T11:56:38.480Z,,,,,,,,,,,,,,,,,54,,,,,,,,,,,,,,431.71499999961816,,response,,,,100,,,,,,,Space,keypress(Space),,,,,,,,-- --- ---- --- ------ ----- ------- ---- -- --- ------- --<br>------- ---------- bonds. -- ----- -- ----- -- ---- ------<br>--- ----- --- --- ------ -------- ----- --- ------ ----- --<br>----- ----- ---------- --- --- ------ ------ ---- -- ------<br>------- --- ------ ----- --- ---- ------- -- ---- --- --<br>------- ------,213626.5,213625.09999999963,213176.992,213179.8999999985,213193.385,213643.521,,14,bonds.
screen,html.Screen,2_1_1_1_15,2022-04-25T11:56:39.729Z,,,,,,,,,,,,,,,,,54,,,,,,,,,,,,,,1230.878999998502,,response,,,,100,,,,,,,Space,keypress(Space),,,,,,,,-- --- ---- --- ------ ----- ------- ---- -- --- ------- --<br>------- ---------- ------ In ----- -- ----- -- ---- ------<br>--- ----- --- --- ------ -------- ----- --- ------ ----- --<br>----- ----- ---------- --- --- ------ ------ ---- -- ------<br>------- --- ------ ----- --- ---- ------- -- ---- --- --<br>------- ------,214876,214874.3999999985,213626.806,213626.59999999963,213643.521,214893.273,,15,In
screen,html.Screen,2_1_1_1_16,2022-04-25T11:56:40.583Z,,,,,,,,,,,,,,,,,54,,,,,,,,,,,,,,835.2270000000135,,response,,,,100,,,,,,,Space,keypress(Space),,,,,,,,"-- --- ---- --- ------ ----- ------- ---- -- --- ------- --<br>------- ---------- ------ -- 1727, -- ----- -- ---- ------<br>--- ----- --- --- ------ -------- ----- --- ------ ----- --<br>----- ----- ---------- --- --- ------ ------ ---- -- ------<br>------- --- ------ ----- --- ---- ------- -- ---- --- --<br>------- ------",215729.79999999888,215728.5,214876.778,214876.09999999963,214893.273,215743.078,,16,"1727,"
screen,html.Screen,2_1_1_1_17,2022-04-25T11:56:41.001Z,,,,,,,,,,,,,,,,,54,,,,,,,,,,,,,,403.52199999961886,,response,,,,100,,,,,,,Space,keypress(Space),,,,,,,,-- --- ---- --- ------ ----- ------- ---- -- --- ------- --<br>------- ---------- ------ -- ----- in ----- -- ---- ------<br>--- ----- --- --- ------ -------- ----- --- ------ ----- --<br>----- ----- ---------- --- --- ------ ------ ---- -- ------<br>------- --- ------ ----- --- ---- ------- -- ---- --- --<br>------- ------,216148,216146.59999999963,215726.549,215730,215743.078,216159.692,,17,in
screen,html.Screen,2_1_1_1_18,2022-04-25T11:56:41.387Z,,,,,,,,,,,,,,,,,54,,,,,,,,,,,,,,372.90799999961746,,response,,,,100,,,,,,,Space,keypress(Space),,,,,,,,-- --- ---- --- ------ ----- ------- ---- -- --- ------- --<br>------- ---------- ------ -- ----- -- order -- ---- ------<br>--- ----- --- --- ------ -------- ----- --- ------ ----- --<br>----- ----- ---------- --- --- ------ ------ ---- -- ------<br>------- --- ------ ----- --- ---- ------- -- ---- --- --<br>------- ------,216534,216532.59999999963,216143.06,216148.09999999963,216159.692,216542.663,,18,order
screen,html.Screen,2_1_1_1_19,2022-04-25T11:56:41.857Z,,,,,,,,,,,,,,,,,54,,,,,,,,,,,,,,460.2369999985094,,response,,,,100,,,,,,,Space,keypress(Space),,,,,,,,-- --- ---- --- ------ ----- ------- ---- -- --- ------- --<br>------- ---------- ------ -- ----- -- ----- to ---- ------<br>--- ----- --- --- ------ -------- ----- --- ------ ----- --<br>----- ----- ---------- --- --- ------ ------ ---- -- ------<br>------- --- ------ ----- --- ---- ------- -- ---- --- --<br>------- ------,217004.29999999888,217002.8999999985,216526.146,216534.09999999963,216542.663,217009.309,,19,to
screen,html.Screen,2_1_1_1_20,2022-04-25T11:56:42.263Z,,,,,,,,,,,,,,,,,54,,,,,,,,,,,,,,398.89099999924656,,response,,,,100,,,,,,,Space,keypress(Space),,,,,,,,-- --- ---- --- ------ ----- ------- ---- -- --- ------- --<br>------- ---------- ------ -- ----- -- ----- -- save ------<br>--- ----- --- --- ------ -------- ----- --- ------ ----- --<br>----- ----- ---------- --- --- ------ ------ ---- -- ------<br>------- --- ------ ----- --- ---- ------- -- ---- --- --<br>------- ------,217409.59999999963,217408.19999999925,216992.792,217004.5,217009.309,217426.109,,20,save
screen,html.Screen,2_1_1_1_21,2022-04-25T11:56:42.806Z,,,,,,,,,,,,,,,,,54,,,,,,,,,,,,,,525.5909999992582,,response,,,,100,,,,,,,Space,keypress(Space),,,,,,,,"-- --- ---- --- ------ ----- ------- ---- -- --- ------- --<br>------- ---------- ------ -- ----- -- ----- -- ---- money,<br>--- ----- --- --- ------ -------- ----- --- ------ ----- --<br>----- ----- ---------- --- --- ------ ------ ---- -- ------<br>------- --- ------ ----- --- ---- ------- -- ---- --- --<br>------- ------",217953.09999999963,217951.69999999925,217409.542,217409.79999999888,217426.109,217959.133,,21,"money,"
screen,html.Screen,2_1_1_1_22,2022-04-25T11:56:43.274Z,,,,,,,,,,,,,,,,,54,,,,,,,,,,,,,,459.86699999999837,,response,,,,100,,,,,,,Space,keypress(Space),,,,,,,,-- --- ---- --- ------ ----- ------- ---- -- --- ------- --<br>------- ---------- ------ -- ----- -- ----- -- ---- ------<br>the ----- --- --- ------ -------- ----- --- ------ ----- --<br>----- ----- ---------- --- --- ------ ------ ---- -- ------<br>------- --- ------ ----- --- ---- ------- -- ---- --- --<br>------- ------,218420.5,218419,217942.657,217953.29999999888,217959.133,218426.052,,22,the
screen,html.Screen,2_1_1_1_23,2022-04-25T11:56:43.757Z,,,,,,,,,,,,,,,,,54,,,,,,,,,,,,,,476.6479999992589,,response,,,,100,,,,,,,Space,keypress(Space),,,,,,,,-- --- ---- --- ------ ----- ------- ---- -- --- ------- --<br>------- ---------- ------ -- ----- -- ----- -- ---- ------<br>--- state --- --- ------ -------- ----- --- ------ ----- --<br>----- ----- ---------- --- --- ------ ------ ---- -- ------<br>------- --- ------ ----- --- ---- ------- -- ---- --- --<br>------- ------,218904.19999999925,218902.69999999925,218409.296,218420.69999999925,218426.052,218908.953,,23,state
screen,html.Screen,2_1_1_1_24,2022-04-25T11:56:44.154Z,,,,,,,,,,,,,,,,,54,,,,,,,,,,,,,,390.44699999850127,,response,,,,100,,,,,,,Space,keypress(Space),,,,,,,,-- --- ---- --- ------ ----- ------- ---- -- --- ------- --<br>------- ---------- ------ -- ----- -- ----- -- ---- ------<br>--- ----- cut --- ------ -------- ----- --- ------ ----- --<br>----- ----- ---------- --- --- ------ ------ ---- -- ------<br>------- --- ------ ----- --- ---- ------- -- ---- --- --<br>------- ------,219300.8999999985,219299.3999999985,218892.463,218904.29999999888,218908.953,219308.804,,24,cut
screen,html.Screen,2_1_1_1_25,2022-04-25T11:56:44.534Z,,,,,,,,,,,,,,,,,54,,,,,,,,,,,,,,370.3959999992512,,response,,,,100,,,,,,,Space,keypress(Space),,,,,,,,-- --- ---- --- ------ ----- ------- ---- -- --- ------- --<br>------- ---------- ------ -- ----- -- ----- -- ---- ------<br>--- ----- --- the ------ -------- ----- --- ------ ----- --<br>----- ----- ---------- --- --- ------ ------ ---- -- ------<br>------- --- ------ ----- --- ---- ------- -- ---- --- --<br>------- ------,219680.59999999963,219679.19999999925,219292.447,219301,219308.804,219692.311,,25,the
screen,html.Screen,2_1_1_1_26,2022-04-25T11:56:44.942Z,,,,,,,,,,,,,,,,,54,,,,,,,,,,,,,,394.888999999268,,response,,,,100,,,,,,,Space,keypress(Space),,,,,,,,-- --- ---- --- ------ ----- ------- ---- -- --- ------- --<br>------- ---------- ------ -- ----- -- ----- -- ---- ------<br>--- ----- --- --- bonds' -------- ----- --- ------ ----- --<br>----- ----- ---------- --- --- ------ ------ ---- -- ------<br>------- --- ------ ----- --- ---- ------- -- ---- --- --<br>------- ------,220088.5,220087.19999999925,219675.709,219680.79999999888,219692.311,220092.038,,26,bonds'
screen,html.Screen,2_1_1_1_27,2022-04-25T11:56:45.418Z,,,,,,,,,,,,,,,,,54,,,,,,,,,,,,,,471.1619999992545,,response,,,,100,,,,,,,Space,keypress(Space),,,,,,,,-- --- ---- --- ------ ----- ------- ---- -- --- ------- --<br>------- ---------- ------ -- ----- -- ----- -- ---- ------<br>--- ----- --- --- ------ interest ----- --- ------ ----- --<br>----- ----- ---------- --- --- ------ ------ ---- -- ------<br>------- --- ------ ----- --- ---- ------- -- ---- --- --<br>------- ------,220564.5,220563.19999999925,220075.488,220088.69999999925,220092.038,220575.457,,27,interest
screen,html.Screen,2_1_1_1_28,2022-04-25T11:56:45.824Z,,,,,,,,,,,,,,,,,54,,,,,,,,,,,,,,394.34299999888754,,response,,,,100,,,,,,,Space,keypress(Space),,,,,,,,-- --- ---- --- ------ ----- ------- ---- -- --- ------- --<br>------- ---------- ------ -- ----- -- ----- -- ---- ------<br>--- ----- --- --- ------ -------- rate. --- ------ ----- --<br>----- ----- ---------- --- --- ------ ------ ---- -- ------<br>------- --- ------ ----- --- ---- ------- -- ---- --- --<br>------- ------,220971.09999999963,220969.79999999888,220558.871,220564.69999999925,220575.457,220975.212,,28,rate.
screen,html.Screen,2_1_1_1_29,2022-04-25T11:56:46.191Z,,,,,,,,,,,,,,,,,54,,,,,,,,,,,,,,361.0879999988829,,response,,,,100,,,,,,,Space,keypress(Space),,,,,,,,-- --- ---- --- ------ ----- ------- ---- -- --- ------- --<br>------- ---------- ------ -- ----- -- ----- -- ---- ------<br>--- ----- --- --- ------ -------- ----- The ------ ----- --<br>----- ----- ---------- --- --- ------ ------ ---- -- ------<br>------- --- ------ ----- --- ---- ------- -- ---- --- --<br>------- ------,221337.8999999985,221336.29999999888,220958.633,220971.19999999925,220975.212,221341.77,,29,The
screen,html.Screen,2_1_1_1_30,2022-04-25T11:56:46.608Z,,,,,,,,,,,,,,,,,54,,,,,,,,,,,,,,411.82999999963795,,response,,,,100,,,,,,,Space,keypress(Space),,,,,,,,-- --- ---- --- ------ ----- ------- ---- -- --- ------- --<br>------- ---------- ------ -- ----- -- ----- -- ---- ------<br>--- ----- --- --- ------ -------- ----- --- market ----- --<br>----- ----- ---------- --- --- ------ ------ ---- -- ------<br>------- --- ------ ----- --- ---- ------- -- ---- --- --<br>------- ------,221754.8999999985,221753.59999999963,221325.292,221338,221341.77,221758.365,,30,market
screen,html.Screen,2_1_1_1_31,2022-04-25T11:56:46.961Z,,,,,,,,,,,,,,,,,54,,,,,,,,,,,,,,347.7349999996368,,response,,,,100,,,,,,,Space,keypress(Space),,,,,,,,-- --- ---- --- ------ ----- ------- ---- -- --- ------- --<br>------- ---------- ------ -- ----- -- ----- -- ---- ------<br>--- ----- --- --- ------ -------- ----- --- ------ value --<br>----- ----- ---------- --- --- ------ ------ ---- -- ------<br>------- --- ------ ----- --- ---- ------- -- ---- --- --<br>------- ------,222107.5,222106.09999999963,221741.965,221755.09999999963,221758.365,222141.911,,31,value
screen,html.Screen,2_1_1_1_32,2022-04-25T11:56:47.372Z,,,,,,,,,,,,,,,,,54,,,,,,,,,,,,,,375.4889999985171,,response,,,,100,,,,,,,Space,keypress(Space),,,,,,,,-- --- ---- --- ------ ----- ------- ---- -- --- ------- --<br>------- ---------- ------ -- ----- -- ----- -- ---- ------<br>--- ----- --- --- ------ -------- ----- --- ------ ----- of<br>----- ----- ---------- --- --- ------ ------ ---- -- ------<br>------- --- ------ ----- --- ---- ------- -- ---- --- --<br>------- ------,222518.8999999985,222517.3999999985,222125.168,222107.59999999963,222141.911,222524.904,,32,of
screen,html.Screen,2_1_1_1_33,2022-04-25T11:56:47.738Z,,,,,,,,,,,,,,,,,54,,,,,,,,,,,,,,358.6959999996179,,response,,,,100,,,,,,,Space,keypress(Space),,,,,,,,-- --- ---- --- ------ ----- ------- ---- -- --- ------- --<br>------- ---------- ------ -- ----- -- ----- -- ---- ------<br>--- ----- --- --- ------ -------- ----- --- ------ ----- --<br>these ----- ---------- --- --- ------ ------ ---- -- ------<br>------- --- ------ ----- --- ---- ------- -- ---- --- --<br>------- ------,222885.09999999963,222883.59999999963,222508.473,222519,222524.904,222891.479,,33,these
screen,html.Screen,2_1_1_1_34,2022-04-25T11:56:48.098Z,,,,,,,,,,,,,,,,,54,,,,,,,,,,,,,,352.0210000000079,,response,,,,100,,,,,,,Space,keypress(Space),,,,,,,,-- --- ---- --- ------ ----- ------- ---- -- --- ------- --<br>------- ---------- ------ -- ----- -- ----- -- ---- ------<br>--- ----- --- --- ------ -------- ----- --- ------ ----- --<br>----- bonds ---------- --- --- ------ ------ ---- -- ------<br>------- --- ------ ----- --- ---- ------- -- ---- --- --<br>------- ------,223244.8999999985,223243.5,222875.1,222885.29999999888,222891.479,223258.298,,34,bonds
screen,html.Screen,2_1_1_1_35,2022-04-25T11:56:48.501Z,,,,,,,,,,,,,,,,,54,,,,,,,,,,,,,,388.2019999999902,,response,,,,100,,,,,,,Space,keypress(Space),,,,,,,,"-- --- ---- --- ------ ----- ------- ---- -- --- ------- --<br>------- ---------- ------ -- ----- -- ----- -- ---- ------<br>--- ----- --- --- ------ -------- ----- --- ------ ----- --<br>----- ----- plummeted, --- --- ------ ------ ---- -- ------<br>------- --- ------ ----- --- ---- ------- -- ---- --- --<br>------- ------",223647.8999999985,223646.5,223241.465,223245,223258.298,223657.959,,35,"plummeted,"
screen,html.Screen,2_1_1_1_36,2022-04-25T11:56:48.864Z,,,,,,,,,,,,,,,,,54,,,,,,,,,,,,,,351.6409999996249,,response,,,,100,,,,,,,Space,keypress(Space),,,,,,,,-- --- ---- --- ------ ----- ------- ---- -- --- ------- --<br>------- ---------- ------ -- ----- -- ----- -- ---- ------<br>--- ----- --- --- ------ -------- ----- --- ------ ----- --<br>----- ----- ---------- and --- ------ ------ ---- -- ------<br>------- --- ------ ----- --- ---- ------- -- ---- --- --<br>------- ------,224011,224009.59999999963,223641.457,223648,223657.959,224024.631,,36,and
screen,html.Screen,2_1_1_1_37,2022-04-25T11:56:49.259Z,,,,,,,,,,,,,,,,,54,,,,,,,,,,,,,,379.76899999851594,,response,,,,100,,,,,,,Space,keypress(Space),,,,,,,,-- --- ---- --- ------ ----- ------- ---- -- --- ------- --<br>------- ---------- ------ -- ----- -- ----- -- ---- ------<br>--- ----- --- --- ------ -------- ----- --- ------ ----- --<br>----- ----- ---------- --- the ------ ------ ---- -- ------<br>------- --- ------ ----- --- ---- ------- -- ---- --- --<br>------- ------,224405.8999999985,224404.3999999985,224008.187,224011.09999999963,224024.631,224433.82,,37,the
screen,html.Screen,2_1_1_1_38,2022-04-25T11:56:49.633Z,,,,,,,,,,,,,,,,,54,,,,,,,,,,,,,,344.179999999993,,response,,,,100,,,,,,,Space,keypress(Space),,,,,,,,-- --- ---- --- ------ ----- ------- ---- -- --- ------- --<br>------- ---------- ------ -- ----- -- ----- -- ---- ------<br>--- ----- --- --- ------ -------- ----- --- ------ ----- --<br>----- ----- ---------- --- --- market ------ ---- -- ------<br>------- --- ------ ----- --- ---- ------- -- ---- --- --<br>------- ------,224779.3999999985,224778,224391.435,224406,224433.82,224791.299,,38,market
screen,html.Screen,2_1_1_1_39,2022-04-25T11:56:49.993Z,,,,,,,,,,,,,,,,,54,,,,,,,,,,,,,,346.9009999992559,,response,,,,100,,,,,,,Space,keypress(Space),,,,,,,,-- --- ---- --- ------ ----- ------- ---- -- --- ------- --<br>------- ---------- ------ -- ----- -- ----- -- ---- ------<br>--- ----- --- --- ------ -------- ----- --- ------ ----- --<br>----- ----- ---------- --- --- ------ became ---- -- ------<br>------- --- ------ ----- --- ---- ------- -- ---- --- --<br>------- ------,225139.59999999963,225138.19999999925,224774.699,224779.59999999963,224791.299,225171.826,,39,became
screen,html.Screen,2_1_1_1_40,2022-04-25T11:56:50.338Z,,,,,,,,,,,,,,,,,54,,,,,,,,,,,,,,311.07399999850895,,response,,,,100,,,,,,,Space,keypress(Space),,,,,,,,-- --- ---- --- ------ ----- ------- ---- -- --- ------- --<br>------- ---------- ------ -- ----- -- ----- -- ---- ------<br>--- ----- --- --- ------ -------- ----- --- ------ ----- --<br>----- ----- ---------- --- --- ------ ------ wary -- ------<br>------- --- ------ ----- --- ---- ------- -- ---- --- --<br>------- ------,225484.29999999888,225482.8999999985,225124.428,225139.69999999925,225171.826,225491,,40,wary
screen,html.Screen,2_1_1_1_41,2022-04-25T11:56:50.686Z,,,,,,,,,,,,,,,,,54,,,,,,,,,,,,,,340.59999999962747,,response,,,,100,,,,,,,Space,keypress(Space),,,,,,,,-- --- ---- --- ------ ----- ------- ---- -- --- ------- --<br>------- ---------- ------ -- ----- -- ----- -- ---- ------<br>--- ----- --- --- ------ -------- ----- --- ------ ----- --<br>----- ----- ---------- --- --- ------ ------ ---- of ------<br>------- --- ------ ----- --- ---- ------- -- ---- --- --<br>------- ------,225833,225831.59999999963,225474.578,225484.3999999985,225491,225841.116,,41,of
screen,html.Screen,2_1_1_1_42,2022-04-25T11:56:51.052Z,,,,,,,,,,,,,,,,,54,,,,,,,,,,,,,,356.08399999924586,,response,,,,100,,,,,,,Space,keypress(Space),,,,,,,,-- --- ---- --- ------ ----- ------- ---- -- --- ------- --<br>------- ---------- ------ -- ----- -- ----- -- ---- ------<br>--- ----- --- --- ------ -------- ----- --- ------ ----- --<br>----- ----- ---------- --- --- ------ ------ ---- -- French<br>------- --- ------ ----- --- ---- ------- -- ---- --- --<br>------- ------,226198.59999999963,226197.19999999925,225824.313,225833.19999999925,225841.116,226207.455,,42,French
screen,html.Screen,2_1_1_1_43,2022-04-25T11:56:51.387Z,,,,,,,,,,,,,,,,,54,,,,,,,,,,,,,,324.74499999926775,,response,,,,100,,,,,,,Space,keypress(Space),,,,,,,,-- --- ---- --- ------ ----- ------- ---- -- --- ------- --<br>------- ---------- ------ -- ----- -- ----- -- ---- ------<br>--- ----- --- --- ------ -------- ----- --- ------ ----- --<br>----- ----- ---------- --- --- ------ ------ ---- -- ------<br>credit. --- ------ ----- --- ---- ------- -- ---- --- --<br>------- ------,226533.5,226532.19999999925,226190.873,226198.79999999888,226207.455,226540.74,,43,credit.
screen,html.Screen,2_1_1_1_44,2022-04-25T11:56:51.772Z,,,,,,,,,,,,,,,,,54,,,,,,,,,,,,,,376.7600000000093,,response,,,,100,,,,,,,Space,keypress(Space),,,,,,,,-- --- ---- --- ------ ----- ------- ---- -- --- ------- --<br>------- ---------- ------ -- ----- -- ----- -- ---- ------<br>--- ----- --- --- ------ -------- ----- --- ------ ----- --<br>----- ----- ---------- --- --- ------ ------ ---- -- ------<br>------- The ------ ----- --- ---- ------- -- ---- --- --<br>------- ------,226919.09999999963,226917.5,226524.221,226533.69999999925,226540.74,226924.013,,44,The
screen,html.Screen,2_1_1_1_45,2022-04-25T11:56:52.163Z,,,,,,,,,,,,,,,,,54,,,,,,,,,,,,,,384.7869999988761,,response,,,,100,,,,,,,Space,keypress(Space),,,,,,,,-- --- ---- --- ------ ----- ------- ---- -- --- ------- --<br>------- ---------- ------ -- ----- -- ----- -- ---- ------<br>--- ----- --- --- ------ -------- ----- --- ------ ----- --<br>----- ----- ---------- --- --- ------ ------ ---- -- ------<br>------- --- French ----- --- ---- ------- -- ---- --- --<br>------- ------,227310.19999999925,227308.79999999888,226907.653,226919.29999999888,226924.013,227324.138,,45,French
screen,html.Screen,2_1_1_1_46,2022-04-25T11:56:52.541Z,,,,,,,,,,,,,,,,,54,,,,,,,,,,,,,,362.7619999985036,,response,,,,100,,,,,,,Space,keypress(Space),,,,,,,,-- --- ---- --- ------ ----- ------- ---- -- --- ------- --<br>------- ---------- ------ -- ----- -- ----- -- ---- ------<br>--- ----- --- --- ------ -------- ----- --- ------ ----- --<br>----- ----- ---------- --- --- ------ ------ ---- -- ------<br>------- --- ------ state --- ---- ------- -- ---- --- --<br>------- ------,227688.19999999925,227686.8999999985,227307.54,227310.3999999985,227324.138,227690.579,,46,state
screen,html.Screen,2_1_1_1_47,2022-04-25T11:56:52.947Z,,,,,,,,,,,,,,,,,54,,,,,,,,,,,,,,402.12099999925704,,response,,,,100,,,,,,,Space,keypress(Space),,,,,,,,-- --- ---- --- ------ ----- ------- ---- -- --- ------- --<br>------- ---------- ------ -- ----- -- ----- -- ---- ------<br>--- ----- --- --- ------ -------- ----- --- ------ ----- --<br>----- ----- ---------- --- --- ------ ------ ---- -- ------<br>------- --- ------ ----- was ---- ------- -- ---- --- --<br>------- ------,228094,228092.69999999925,227674.124,227688.3999999985,227690.579,228107.348,,47,was
screen,html.Screen,2_1_1_1_48,2022-04-25T11:56:53.314Z,,,,,,,,,,,,,,,,,54,,,,,,,,,,,,,,352.05199999851175,,response,,,,100,,,,,,,Space,keypress(Space),,,,,,,,-- --- ---- --- ------ ----- ------- ---- -- --- ------- --<br>------- ---------- ------ -- ----- -- ----- -- ---- ------<br>--- ----- --- --- ------ -------- ----- --- ------ ----- --<br>----- ----- ---------- --- --- ------ ------ ---- -- ------<br>------- --- ------ ----- --- left ------- -- ---- --- --<br>------- ------,228460.8999999985,228459.3999999985,228090.723,228094.19999999925,228107.348,228473.91,,48,left
screen,html.Screen,2_1_1_1_49,2022-04-25T11:56:53.632Z,,,,,,,,,,,,,,,,,54,,,,,,,,,,,,,,303.9899999985064,,response,,,,100,,,,,,,Space,keypress(Space),,,,,,,,-- --- ---- --- ------ ----- ------- ---- -- --- ------- --<br>------- ---------- ------ -- ----- -- ----- -- ---- ------<br>--- ----- --- --- ------ -------- ----- --- ------ ----- --<br>----- ----- ---------- --- --- ------ ------ ---- -- ------<br>------- --- ------ ----- --- ---- without -- ---- --- --<br>------- ------,228779.19999999925,228777.8999999985,228457.271,228461,228473.91,228790.303,,49,without
screen,html.Screen,2_1_1_1_50,2022-04-25T11:56:54.027Z,,,,,,,,,,,,,,,,,54,,,,,,,,,,,,,,381.8969999992405,,response,,,,100,,,,,,,Space,keypress(Space),,,,,,,,-- --- ---- --- ------ ----- ------- ---- -- --- ------- --<br>------- ---------- ------ -- ----- -- ----- -- ---- ------<br>--- ----- --- --- ------ -------- ----- --- ------ ----- --<br>----- ----- ---------- --- --- ------ ------ ---- -- ------<br>------- --- ------ ----- --- ---- ------- an ---- --- --<br>------- ------,229173.59999999963,229172.19999999925,228773.896,228779.3999999985,228790.303,229190.466,,50,an
screen,html.Screen,2_1_1_1_51,2022-04-25T11:56:54.396Z,,,,,,,,,,,,,,,,,54,,,,,,,,,,,,,,350.6339999996417,,response,,,,100,,,,,,,Space,keypress(Space),,,,,,,,-- --- ---- --- ------ ----- ------- ---- -- --- ------- --<br>------- ---------- ------ -- ----- -- ----- -- ---- ------<br>--- ----- --- --- ------ -------- ----- --- ------ ----- --<br>----- ----- ---------- --- --- ------ ------ ---- -- ------<br>------- --- ------ ----- --- ---- ------- -- easy --- --<br>------- ------,229542.5,229541.09999999963,229173.836,229173.79999999888,229190.466,229557.06,,51,easy
screen,html.Screen,2_1_1_1_52,2022-04-25T11:56:54.816Z,,,,,,,,,,,,,,,,,54,,,,,,,,,,,,,,404.5399999996298,,response,,,,100,,,,,,,Space,keypress(Space),,,,,,,,-- --- ---- --- ------ ----- ------- ---- -- --- ------- --<br>------- ---------- ------ -- ----- -- ----- -- ---- ------<br>--- ----- --- --- ------ -------- ----- --- ------ ----- --<br>----- ----- ---------- --- --- ------ ------ ---- -- ------<br>------- --- ------ ----- --- ---- ------- -- ---- way --<br>------- ------,229963,229961.59999999963,229542.528,229542.69999999925,229557.06,229973.618,,52,way
screen,html.Screen,2_1_1_1_53,2022-04-25T11:56:55.219Z,,,,,,,,,,,,,,,,,54,,,,,,,,,,,,,,390.88200000001234,,response,,,,100,,,,,,,Space,keypress(Space),,,,,,,,-- --- ---- --- ------ ----- ------- ---- -- --- ------- --<br>------- ---------- ------ -- ----- -- ----- -- ---- ------<br>--- ----- --- --- ------ -------- ----- --- ------ ----- --<br>----- ----- ---------- --- --- ------ ------ ---- -- ------<br>------- --- ------ ----- --- ---- ------- -- ---- --- of<br>------- ------,230366,230364.5,229956.847,229963.19999999925,229973.618,230373.291,,53,of
screen,html.Screen,2_1_1_1_54,2022-04-25T11:56:55.541Z,,,,,,,,,,,,,,,,,54,,,,,,,,,,,,,,312.80899999963003,,response,,,,100,,,,,,,Space,keypress(Space),,,,,,,,-- --- ---- --- ------ ----- ------- ---- -- --- ------- --<br>------- ---------- ------ -- ----- -- ----- -- ---- ------<br>--- ----- --- --- ------ -------- ----- --- ------ ----- --<br>----- ----- ---------- --- --- ------ ------ ---- -- ------<br>------- --- ------ ----- --- ---- ------- -- ---- --- --<br>raising ------,230687.3999999985,230686.09999999963,230356.803,230366.09999999963,230373.291,230689.935,,54,raising
screen,html.Screen,2_1_1_1_55,2022-04-25T11:56:57.146Z,,,,,,,,,,,,,,,,,54,,,,,,,,,,,,,,1601.2649999992573,,response,,,,100,,,,,,,Space,keypress(Space),,,,,,,,-- --- ---- --- ------ ----- ------- ---- -- --- ------- --<br>------- ---------- ------ -- ----- -- ----- -- ---- ------<br>--- ----- --- --- ------ -------- ----- --- ------ ----- --<br>----- ----- ---------- --- --- ------ ------ ---- -- ------<br>------- --- ------ ----- --- ---- ------- -- ---- --- --<br>------- money.,232292.79999999888,232291.19999999925,230673.58,230687.59999999963,230689.935,232306.327,,55,money.
Item 100,flow.Loop,2_1_1_1,2022-04-25T11:56:57.146Z,,,,,,,,,,,,,,,,,,,,,,,,,,,,,,,25829.836999999243,,completion,,,,,A,,,,,,,,,,,silence,,,,,232293.19999999925,232291.19999999925,206444.906,206445.79999999888,206461.363,232306.327,,,
Question 1,html.Screen,2_1_1_2,2022-04-25T11:56:59.945Z,,,,,,,,,,,,,,,,,,,,,,,,,,,,true,TRUE,,2782.7729999996372,,response,,,,100,A,,,,,,TRUE,click #choice-1,,,,silence,,,,,235091.59999999963,235089.09999999963,232289.875,232293.19999999925,232306.327,235106.089,,,
Question 2,html.Screen,2_1_1_3,2022-04-25T11:57:02.671Z,,,,,,,,,,,,,,,,,,,,,,,,,,,,true,FALSE,,2709.710999998875,,response,,,,100,A,,,,,,FALSE,click #choice-2,,,,silence,,,,,237817.79999999888,237815.79999999888,235089.214,235091.69999999925,235106.089,237821.918,,,
Item 100,flow.Sequence,2_1_1,2022-04-25T11:57:02.671Z,,,,,,,,,,,,,,,,,,,,,,,,,,,,,,,41352.412999998895,,completion,,,,,,,,,,,,,,,,,,,,,237818,237815.79999999888,196446.902,196462.09999999963,196463.387,237821.918,,,
End of Practice,html.Page,2_1_2,2022-04-25T11:57:07.363Z,,,,,,,,,,,,,,,,,,,,,,,,,,,,,,,4687.381999998877,,form submission,,,,,,,,,,,,,,,,,,,,,242510,242509.29999999888,237805.448,237818.09999999963,237821.918,242521.114,,,
Practice,flow.Sequence,2_1,2022-04-25T11:57:07.363Z,,,,,,,,,,,,,,,,,,,,,,,,,,,,,,,98452.29799999887,,completion,,,,,,,,,,,,,,,,,,,,,242510.19999999925,242509.29999999888,143990.529,144051.69999999925,144057.002,242521.114,,,
Trap_instruction,html.Page,2_2_0,2022-04-25T11:57:12.911Z,,,,,,,,,,,,,,,,,,,,,,,,,,,,,,,5535.7859999985085,,form submission,,,,,,,,,,,,,,,,,,,,,248057.5,248056.8999999985,242504.524,242510.3999999985,242521.114,248270.009,,,
trap_trial,html.Screen,2_2_1,2022-04-25T11:57:17.484Z,,,,,,,,,,,,,,,,,,,,,,,,,,,,true,1,,4359.2909999988915,,response,,,,,,,,,,,1,click #choice-1,,,,,,,,,252631.29999999888,252629.29999999888,248053.26,248057.69999999925,248270.009,252785.67,,,
end of trap trial,html.Page,2_2_2,2022-04-25T11:57:19.587Z,,,,,,,,,,,,,,,,,,,,,,,,,,,,,,,1947.8299999999872,,form submission,,,,,,,,,,,,,,,,,,,,,254734.3999999985,254733.5,252618.989,252631.59999999963,252785.67,254735.292,,,
Trap 1,flow.Sequence,2_2,2022-04-25T11:57:19.588Z,,,,,,,,,,,,,,,,,,,,,,,,,,,,,,,12212.385999999999,,completion,,,,,,,,,,,,,,,,,,,,,254734.79999999888,254733.5,242504.524,242510.29999999888,242521.114,254735.292,,,
Standby,html.Page,2_3_0,2022-04-25T11:57:27.571Z,,,,,,,,,,,,,,,,,,,,,,,,,,,,,,,7998.291999999987,,timeout,,,,,,,,,,,,,,,,,,,,,262718.0999999996,262717.223,254718.79,254734.8999999985,254735.292,262733.584,,,
Holding screen,html.Screen,2_3_1_0_0,2022-04-25T11:57:34.570Z,,,,,,,,,,,,,,,,,,,,,,,,,,,,,,,6998.668000000005,,timeout,,,,,,,,,,,,,,,,,,,,,269716.5999999996,269715.831,262717.223,262718.3999999985,262733.584,269732.252,,,
screen,html.Screen,2_3_1_0_1_0,2022-04-25T11:57:35.824Z,,,,,,,,,,,,,,,,,19,,,,,,,,,,,,,,1236.1479999985313,,response,,,,17,A,,,,,,Space,keypress(Space),,,,silence,,,,"Interestingly, --- -------- -------- ---------- ---- -------<br>-- ---------- -- --- ----- ------ ----- ---- --------- ----<br>------- ------ -------- -- ------ ---------- ------ ---<br>------ -- -- ---- -- ---------- -------- ------ ---- -------<br>---- --- --------- ------- ----- --------- ---- ----- --<br>------ -------- -- ------ -- ---- ------------",270970.5999999996,270968.3999999985,269715.831,269716.8999999985,269732.252,270982.089,,0,"Interestingly,"
screen,html.Screen,2_3_1_0_1_1,2022-04-25T11:57:36.268Z,,,,,,,,,,,,,,,,,19,,,,,,,,,,,,,,431.31099999853177,,response,,,,17,A,,,,,,Space,keypress(Space),,,,silence,,,,-------------- the -------- -------- ---------- ---- -------<br>-- ---------- -- --- ----- ------ ----- ---- --------- ----<br>------- ------ -------- -- ------ ---------- ------ ---<br>------ -- -- ---- -- ---------- -------- ------ ---- -------<br>---- --- --------- ------- ----- --------- ---- ----- --<br>------ -------- -- ------ -- ---- ------------,271414.8999999985,271413.3999999985,270965.768,270970.69999999925,270982.089,271432.175,,1,the
screen,html.Screen,2_3_1_0_1_2,2022-04-25T11:57:36.624Z,,,,,,,,,,,,,,,,,19,,,,,,,,,,,,,,337.32500000001164,,response,,,,17,A,,,,,,Space,keypress(Space),,,,silence,,,,-------------- --- heaviest -------- ---------- ---- -------<br>-- ---------- -- --- ----- ------ ----- ---- --------- ----<br>------- ------ -------- -- ------ ---------- ------ ---<br>------ -- -- ---- -- ---------- -------- ------ ---- -------<br>---- --- --------- ------- ----- --------- ---- ----- --<br>------ -------- -- ------ -- ---- ------------,271771,271769.5,271415.557,271415,271432.175,271782.005,,2,heaviest
screen,html.Screen,2_3_1_0_1_3,2022-04-25T11:57:37.009Z,,,,,,,,,,,,,,,,,19,,,,,,,,,,,,,,372.3949999985052,,response,,,,17,A,,,,,,Space,keypress(Space),,,,silence,,,,-------------- --- -------- isotopes ---------- ---- -------<br>-- ---------- -- --- ----- ------ ----- ---- --------- ----<br>------- ------ -------- -- ------ ---------- ------ ---<br>------ -- -- ---- -- ---------- -------- ------ ---- -------<br>---- --- --------- ------- ----- --------- ---- ----- --<br>------ -------- -- ------ -- ---- ------------,272156,272154.3999999985,271765.275,271771.19999999925,271782.005,272165.092,,3,isotopes
screen,html.Screen,2_3_1_0_1_4,2022-04-25T11:57:37.842Z,,,,,,,,,,,,,,,,,19,,,,,,,,,,,,,,822.9079999999958,,response,,,,17,A,,,,,,Space,keypress(Space),,,,silence,,,,-------------- --- -------- -------- physicists ---- -------<br>-- ---------- -- --- ----- ------ ----- ---- --------- ----<br>------- ------ -------- -- ------ ---------- ------ ---<br>------ -- -- ---- -- ---------- -------- ------ ---- -------<br>---- --- --------- ------- ----- --------- ---- ----- --<br>------ -------- -- ------ -- ---- ------------,272989.19999999925,272988,272148.538,272156.0999999996,272165.092,272998.295,,4,physicists
screen,html.Screen,2_3_1_0_1_5,2022-04-25T11:57:38.421Z,,,,,,,,,,,,,,,,,19,,,,,,,,,,,,,,568.4049999992712,,response,,,,17,A,,,,,,Space,keypress(Space),,,,silence,,,,-------------- --- -------- -------- ---------- have -------<br>-- ---------- -- --- ----- ------ ----- ---- --------- ----<br>------- ------ -------- -- ------ ---------- ------ ---<br>------ -- -- ---- -- ---------- -------- ------ ---- -------<br>---- --- --------- ------- ----- --------- ---- ----- --<br>------ -------- -- ------ -- ---- ------------,273568.19999999925,273566.69999999925,272981.683,272989.5999999996,272998.295,273581.529,,5,have
screen,html.Screen,2_3_1_0_1_6,2022-04-25T11:57:38.857Z,,,,,,,,,,,,,,,,,19,,,,,,,,,,,,,,420.6709999992745,,response,,,,17,A,,,,,,Space,keypress(Space),,,,silence,,,,-------------- --- -------- -------- ---------- ---- managed<br>-- ---------- -- --- ----- ------ ----- ---- --------- ----<br>------- ------ -------- -- ------ ---------- ------ ---<br>------ -- -- ---- -- ---------- -------- ------ ---- -------<br>---- --- --------- ------- ----- --------- ---- ----- --<br>------ -------- -- ------ -- ---- ------------,274003.8999999985,274002.19999999925,273564.971,273568.3999999985,273581.529,274014.809,,6,managed
screen,html.Screen,2_3_1_0_1_7,2022-04-25T11:57:39.227Z,,,,,,,,,,,,,,,,,19,,,,,,,,,,,,,,357.39099999924656,,response,,,,17,A,,,,,,Space,keypress(Space),,,,silence,,,,-------------- --- -------- -------- ---------- ---- -------<br>to ---------- -- --- ----- ------ ----- ---- --------- ----<br>------- ------ -------- -- ------ ---------- ------ ---<br>------ -- -- ---- -- ---------- -------- ------ ---- -------<br>---- --- --------- ------- ----- --------- ---- ----- --<br>------ -------- -- ------ -- ---- ------------,274373.7999999989,274372.19999999925,273998.182,274004,274014.809,274381.371,,7,to
screen,html.Screen,2_3_1_0_1_8,2022-04-25T11:57:39.793Z,,,,,,,,,,,,,,,,,19,,,,,,,,,,,,,,556.7289999996428,,response,,,,17,A,,,,,,Space,keypress(Space),,,,silence,,,,-------------- --- -------- -------- ---------- ---- -------<br>-- synthesize -- --- ----- ------ ----- ---- --------- ----<br>------- ------ -------- -- ------ ---------- ------ ---<br>------ -- -- ---- -- ---------- -------- ------ ---- -------<br>---- --- --------- ------- ----- --------- ---- ----- --<br>------ -------- -- ------ -- ---- ------------,274939.5999999996,274938.0999999996,274364.773,274373.8999999985,274381.371,274948.177,,8,synthesize
screen,html.Screen,2_3_1_0_1_9,2022-04-25T11:57:40.138Z,,,,,,,,,,,,,,,,,19,,,,,,,,,,,,,,335.12299999885727,,response,,,,17,A,,,,,,Space,keypress(Space),,,,silence,,,,-------------- --- -------- -------- ---------- ---- -------<br>-- ---------- so --- ----- ------ ----- ---- --------- ----<br>------- ------ -------- -- ------ ---------- ------ ---<br>------ -- -- ---- -- ---------- -------- ------ ---- -------<br>---- --- --------- ------- ----- --------- ---- ----- --<br>------ -------- -- ------ -- ---- ------------,275284.8999999985,275283.2999999989,274931.51,274939.69999999925,274948.177,275298.083,,9,so
screen,html.Screen,2_3_1_0_1_10,2022-04-25T11:57:40.594Z,,,,,,,,,,,,,,,,,19,,,,,,,,,,,,,,441.1169999992708,,response,,,,17,A,,,,,,Space,keypress(Space),,,,silence,,,,-------------- --- -------- -------- ---------- ---- -------<br>-- ---------- -- far ----- ------ ----- ---- --------- ----<br>------- ------ -------- -- ------ ---------- ------ ---<br>------ -- -- ---- -- ---------- -------- ------ ---- -------<br>---- --- --------- ------- ----- --------- ---- ----- --<br>------ -------- -- ------ -- ---- ------------,275740.5,275739.19999999925,275281.447,275284.8999999985,275298.083,275747.728,,10,far
screen,html.Screen,2_3_1_0_1_11,2022-04-25T11:57:40.963Z,,,,,,,,,,,,,,,,,19,,,,,,,,,,,,,,360.6719999985071,,response,,,,17,A,,,,,,Space,keypress(Space),,,,silence,,,,-------------- --- -------- -------- ---------- ---- -------<br>-- ---------- -- --- don't ------ ----- ---- --------- ----<br>------- ------ -------- -- ------ ---------- ------ ---<br>------ -- -- ---- -- ---------- -------- ------ ---- -------<br>---- --- --------- ------- ----- --------- ---- ----- --<br>------ -------- -- ------ -- ---- ------------,276109.7999999989,276108.3999999985,275731.377,275740.69999999925,275747.728,276114.379,,11,don't
screen,html.Screen,2_3_1_0_1_12,2022-04-25T11:57:41.487Z,,,,,,,,,,,,,,,,,19,,,,,,,,,,,,,,517.8209999992396,,response,,,,17,A,,,,,,Space,keypress(Space),,,,silence,,,,-------------- --- -------- -------- ---------- ---- -------<br>-- ---------- -- --- ----- behave ----- ---- --------- ----<br>------- ------ -------- -- ------ ---------- ------ ---<br>------ -- -- ---- -- ---------- -------- ------ ---- -------<br>---- --- --------- ------- ----- --------- ---- ----- --<br>------ -------- -- ------ -- ---- ------------,276633.5,276632.19999999925,276097.953,276109.8999999985,276114.379,276647.818,,12,behave
screen,html.Screen,2_3_1_0_1_13,2022-04-25T11:57:41.957Z,,,,,,,,,,,,,,,,,19,,,,,,,,,,,,,,454.5819999984815,,response,,,,17,A,,,,,,Space,keypress(Space),,,,silence,,,,-------------- --- -------- -------- ---------- ---- -------<br>-- ---------- -- --- ----- ------ quite ---- --------- ----<br>------- ------ -------- -- ------ ---------- ------ ---<br>------ -- -- ---- -- ---------- -------- ------ ---- -------<br>---- --- --------- ------- ----- --------- ---- ----- --<br>------ -------- -- ------ -- ---- ------------,277103.8999999985,277102.3999999985,276631.21,276633.69999999925,276647.818,277114.424,,13,quite
screen,html.Screen,2_3_1_0_1_14,2022-04-25T11:57:42.387Z,,,,,,,,,,,,,,,,,19,,,,,,,,,,,,,,417.7759999992559,,response,,,,17,A,,,,,,Space,keypress(Space),,,,silence,,,,-------------- --- -------- -------- ---------- ---- -------<br>-- ---------- -- --- ----- ------ ----- like --------- ----<br>------- ------ -------- -- ------ ---------- ------ ---<br>------ -- -- ---- -- ---------- -------- ------ ---- -------<br>---- --- --------- ------- ----- --------- ---- ----- --<br>------ -------- -- ------ -- ---- ------------,277533.5999999996,277532.19999999925,277097.575,277104,277114.424,277547.641,,14,like
screen,html.Screen,2_3_1_0_1_15,2022-04-25T11:57:42.937Z,,,,,,,,,,,,,,,,,19,,,,,,,,,,,,,,534.5589999992517,,response,,,,17,A,,,,,,Space,keypress(Space),,,,silence,,,,-------------- --- -------- -------- ---------- ---- -------<br>-- ---------- -- --- ----- ------ ----- ---- science's ----<br>------- ------ -------- -- ------ ---------- ------ ---<br>------ -- -- ---- -- ---------- -------- ------ ---- -------<br>---- --- --------- ------- ----- --------- ---- ----- --<br>------ -------- -- ------ -- ---- ------------,278083.8999999985,278082.19999999925,277531.016,277533.69999999925,277547.641,278097.533,,15,science's
screen,html.Screen,2_3_1_0_1_16,2022-04-25T11:57:43.387Z,,,,,,,,,,,,,,,,,19,,,,,,,,,,,,,,434.7669999988866,,response,,,,17,A,,,,,,Space,keypress(Space),,,,silence,,,,-------------- --- -------- -------- ---------- ---- -------<br>-- ---------- -- --- ----- ------ ----- ---- --------- best<br>------- ------ -------- -- ------ ---------- ------ ---<br>------ -- -- ---- -- ---------- -------- ------ ---- -------<br>---- --- --------- ------- ----- --------- ---- ----- --<br>------ -------- -- ------ -- ---- ------------,278533.69999999925,278532.2999999989,278080.728,278084.0999999996,278097.533,278547.446,,16,best
screen,html.Screen,2_3_1_0_1_17,2022-04-25T11:57:43.800Z,,,,,,,,,,,,,,,,,19,,,,,,,,,,,,,,398.4539999985136,,response,,,,17,A,,,,,,Space,keypress(Space),,,,silence,,,,-------------- --- -------- -------- ---------- ---- -------<br>-- ---------- -- --- ----- ------ ----- ---- --------- ----<br>current ------ -------- -- ------ ---------- ------ ---<br>------ -- -- ---- -- ---------- -------- ------ ---- -------<br>---- --- --------- ------- ----- --------- ---- ----- --<br>------ -------- -- ------ -- ---- ------------,278947.19999999925,278945.8999999985,278530.823,278533.7999999989,278547.446,278964.029,,17,current
screen,html.Screen,2_3_1_0_1_18,2022-04-25T11:57:44.223Z,,,,,,,,,,,,,,,,,19,,,,,,,,,,,,,,404.97100000001956,,response,,,,17,A,,,,,,Space,keypress(Space),,,,silence,,,,-------------- --- -------- -------- ---------- ---- -------<br>-- ---------- -- --- ----- ------ ----- ---- --------- ----<br>------- models -------- -- ------ ---------- ------ ---<br>------ -- -- ---- -- ---------- -------- ------ ---- -------<br>---- --- --------- ------- ----- --------- ---- ----- --<br>------ -------- -- ------ -- ---- ------------,279370.3999999985,279369,278947.4,278947.2999999989,278964.029,279380.484,,18,models
screen,html.Screen,2_3_1_0_1_19,2022-04-25T11:57:44.688Z,,,,,,,,,,,,,,,,,19,,,,,,,,,,,,,,452.8159999988857,,response,,,,17,A,,,,,,Space,keypress(Space),,,,silence,,,,"-------------- --- -------- -------- ---------- ---- -------<br>-- ---------- -- --- ----- ------ ----- ---- --------- ----<br>------- ------ predict, -- ------ ---------- ------ ---<br>------ -- -- ---- -- ---------- -------- ------ ---- -------<br>---- --- --------- ------- ----- --------- ---- ----- --<br>------ -------- -- ------ -- ---- ------------",279834.69999999925,279833.2999999989,279363.983,279370.5,279380.484,279847.191,,19,"predict,"
screen,html.Screen,2_3_1_0_1_20,2022-04-25T11:57:45.152Z,,,,,,,,,,,,,,,,,19,,,,,,,,,,,,,,450.5089999992633,,response,,,,17,A,,,,,,Space,keypress(Space),,,,silence,,,,-------------- --- -------- -------- ---------- ---- -------<br>-- ---------- -- --- ----- ------ ----- ---- --------- ----<br>------- ------ -------- so ------ ---------- ------ ---<br>------ -- -- ---- -- ---------- -------- ------ ---- -------<br>---- --- --------- ------- ----- --------- ---- ----- --<br>------ -------- -- ------ -- ---- ------------,280299.0999999996,280297.69999999925,279830.608,279834.7999999989,279847.191,280313.737,,20,so
screen,html.Screen,2_3_1_0_1_21,2022-04-25T11:57:45.549Z,,,,,,,,,,,,,,,,,19,,,,,,,,,,,,,,381.16299999848707,,response,,,,17,A,,,,,,Space,keypress(Space),,,,silence,,,,-------------- --- -------- -------- ---------- ---- -------<br>-- ---------- -- --- ----- ------ ----- ---- --------- ----<br>------- ------ -------- -- stable ---------- ------ ---<br>------ -- -- ---- -- ---------- -------- ------ ---- -------<br>---- --- --------- ------- ----- --------- ---- ----- --<br>------ -------- -- ------ -- ---- ------------,280696.3999999985,280694.8999999985,280296.969,280299.19999999925,280313.737,280713.464,,21,stable
screen,html.Screen,2_3_1_0_1_22,2022-04-25T11:57:46.003Z,,,,,,,,,,,,,,,,,19,,,,,,,,,,,,,,435.3359999989043,,response,,,,17,A,,,,,,Space,keypress(Space),,,,silence,,,,-------------- --- -------- -------- ---------- ---- -------<br>-- ---------- -- --- ----- ------ ----- ---- --------- ----<br>------- ------ -------- -- ------ superheavy ------ ---<br>------ -- -- ---- -- ---------- -------- ------ ---- -------<br>---- --- --------- ------- ----- --------- ---- ----- --<br>------ -------- -- ------ -- ---- ------------,281150.0999999996,281148.7999999989,280696.885,280696.5999999996,280713.464,281163.569,,22,superheavy
screen,html.Screen,2_3_1_0_1_23,2022-04-25T11:57:46.450Z,,,,,,,,,,,,,,,,,19,,,,,,,,,,,,,,431.5309999996098,,response,,,,17,A,,,,,,Space,keypress(Space),,,,silence,,,,-------------- --- -------- -------- ---------- ---- -------<br>-- ---------- -- --- ----- ------ ----- ---- --------- ----<br>------- ------ -------- -- ------ ---------- nuclei ---<br>------ -- -- ---- -- ---------- -------- ------ ---- -------<br>---- --- --------- ------- ----- --------- ---- ----- --<br>------ -------- -- ------ -- ---- ------------,281596.5,281595.0999999996,281146.783,281150.19999999925,281163.569,281613.514,,23,nuclei
screen,html.Screen,2_3_1_0_1_24,2022-04-25T11:57:46.978Z,,,,,,,,,,,,,,,,,19,,,,,,,,,,,,,,509.68599999923026,,response,,,,17,A,,,,,,Space,keypress(Space),,,,silence,,,,-------------- --- -------- -------- ---------- ---- -------<br>-- ---------- -- --- ----- ------ ----- ---- --------- ----<br>------- ------ -------- -- ------ ---------- ------ are<br>------ -- -- ---- -- ---------- -------- ------ ---- -------<br>---- --- --------- ------- ----- --------- ---- ----- --<br>------ -------- -- ------ -- ---- ------------,282124.5999999996,282123.19999999925,281596.889,281596.69999999925,281613.514,282129.968,,24,are
screen,html.Screen,2_3_1_0_1_25,2022-04-25T11:57:47.402Z,,,,,,,,,,,,,,,,,19,,,,,,,,,,,,,,417.131999999634,,response,,,,17,A,,,,,,Space,keypress(Space),,,,silence,,,,-------------- --- -------- -------- ---------- ---- -------<br>-- ---------- -- --- ----- ------ ----- ---- --------- ----<br>------- ------ -------- -- ------ ---------- ------ ---<br>likely -- -- ---- -- ---------- -------- ------ ---- -------<br>---- --- --------- ------- ----- --------- ---- ----- --<br>------ -------- -- ------ -- ---- ------------,282548.5999999996,282547.0999999996,282113.316,282124.69999999925,282129.968,282563.323,,25,likely
screen,html.Screen,2_3_1_0_1_26,2022-04-25T11:57:47.795Z,,,,,,,,,,,,,,,,,19,,,,,,,,,,,,,,377.07699999853503,,response,,,,17,A,,,,,,Space,keypress(Space),,,,silence,,,,-------------- --- -------- -------- ---------- ---- -------<br>-- ---------- -- --- ----- ------ ----- ---- --------- ----<br>------- ------ -------- -- ------ ---------- ------ ---<br>------ to -- ---- -- ---------- -------- ------ ---- -------<br>---- --- --------- ------- ----- --------- ---- ----- --<br>------ -------- -- ------ -- ---- ------------,282941.7999999989,282940.3999999985,282546.698,282548.69999999925,282563.323,282946.383,,26,to
screen,html.Screen,2_3_1_0_1_27,2022-04-25T11:57:48.172Z,,,,,,,,,,,,,,,,,19,,,,,,,,,,,,,,369.71699999965494,,response,,,,17,A,,,,,,Space,keypress(Space),,,,silence,,,,-------------- --- -------- -------- ---------- ---- -------<br>-- ---------- -- --- ----- ------ ----- ---- --------- ----<br>------- ------ -------- -- ------ ---------- ------ ---<br>------ -- be ---- -- ---------- -------- ------ ---- -------<br>---- --- --------- ------- ----- --------- ---- ----- --<br>------ -------- -- ------ -- ---- ------------,283319.3999999985,283316.0999999996,282929.786,282941.8999999985,282946.383,283329.602,,27,be
screen,html.Screen,2_3_1_0_1_28,2022-04-25T11:57:48.494Z,,,,,,,,,,,,,,,,,19,,,,,,,,,,,,,,310.3979999999865,,response,,,,17,A,,,,,,Space,keypress(Space),,,,silence,,,,-------------- --- -------- -------- ---------- ---- -------<br>-- ---------- -- --- ----- ------ ----- ---- --------- ----<br>------- ------ -------- -- ------ ---------- ------ ---<br>------ -- -- full -- ---------- -------- ------ ---- -------<br>---- --- --------- ------- ----- --------- ---- ----- --<br>------ -------- -- ------ -- ---- ------------,283641.2999999989,283640,283313.179,283319.5999999996,283329.602,283646.235,,28,full
screen,html.Screen,2_3_1_0_1_29,2022-04-25T11:57:48.883Z,,,,,,,,,,,,,,,,,19,,,,,,,,,,,,,,382.16499999852385,,response,,,,17,A,,,,,,Space,keypress(Space),,,,silence,,,,-------------- --- -------- -------- ---------- ---- -------<br>-- ---------- -- --- ----- ------ ----- ---- --------- ----<br>------- ------ -------- -- ------ ---------- ------ ---<br>------ -- -- ---- of ---------- -------- ------ ---- -------<br>---- --- --------- ------- ----- --------- ---- ----- --<br>------ -------- -- ------ -- ---- ------------,284030,284028.3999999985,283629.61,283641.3999999985,283646.235,284046.365,,29,of
screen,html.Screen,2_3_1_0_1_30,2022-04-25T11:57:49.228Z,,,,,,,,,,,,,,,,,19,,,,,,,,,,,,,,327.4349999988917,,response,,,,17,A,,,,,,Space,keypress(Space),,,,silence,,,,-------------- --- -------- -------- ---------- ---- -------<br>-- ---------- -- --- ----- ------ ----- ---- --------- ----<br>------- ------ -------- -- ------ ---------- ------ ---<br>------ -- -- ---- -- surprises. -------- ------ ---- -------<br>---- --- --------- ------- ----- --------- ---- ----- --<br>------ -------- -- ------ -- ---- ------------,284375.3999999985,284373.7999999989,284029.74,284030.19999999925,284046.365,284379.431,,30,surprises.
screen,html.Screen,2_3_1_0_1_31,2022-04-25T11:57:49.643Z,,,,,,,,,,,,,,,,,19,,,,,,,,,,,,,,409.0690000000177,,response,,,,17,A,,,,,,Space,keypress(Space),,,,silence,,,,-------------- --- -------- -------- ---------- ---- -------<br>-- ---------- -- --- ----- ------ ----- ---- --------- ----<br>------- ------ -------- -- ------ ---------- ------ ---<br>------ -- -- ---- -- ---------- Chemists ------ ---- -------<br>---- --- --------- ------- ----- --------- ---- ----- --<br>------ -------- -- ------ -- ---- ------------,284789.8999999985,284788.5,284362.853,284375.5,284379.431,284795.999,,31,Chemists
screen,html.Screen,2_3_1_0_1_32,2022-04-25T11:57:50.010Z,,,,,,,,,,,,,,,,,19,,,,,,,,,,,,,,359.20099999924423,,response,,,,17,A,,,,,,Space,keypress(Space),,,,silence,,,,-------------- --- -------- -------- ---------- ---- -------<br>-- ---------- -- --- ----- ------ ----- ---- --------- ----<br>------- ------ -------- -- ------ ---------- ------ ---<br>------ -- -- ---- -- ---------- -------- cannot ---- -------<br>---- --- --------- ------- ----- --------- ---- ----- --<br>------ -------- -- ------ -- ---- ------------,285156.5,285155.19999999925,284779.594,284790.0999999996,284795.999,285162.591,,32,cannot
screen,html.Screen,2_3_1_0_1_33,2022-04-25T11:57:50.358Z,,,,,,,,,,,,,,,,,19,,,,,,,,,,,,,,340.60899999924004,,response,,,,17,A,,,,,,Space,keypress(Space),,,,silence,,,,-------------- --- -------- -------- ---------- ---- -------<br>-- ---------- -- --- ----- ------ ----- ---- --------- ----<br>------- ------ -------- -- ------ ---------- ------ ---<br>------ -- -- ---- -- ---------- -------- ------ even -------<br>---- --- --------- ------- ----- --------- ---- ----- --<br>------ -------- -- ------ -- ---- ------------,285504.5,285503.19999999925,285146.183,285156.69999999925,285162.591,285512.567,,33,even
screen,html.Screen,2_3_1_0_1_34,2022-04-25T11:57:50.709Z,,,,,,,,,,,,,,,,,19,,,,,,,,,,,,,,341.63299999927403,,response,,,,17,A,,,,,,Space,keypress(Space),,,,silence,,,,-------------- --- -------- -------- ---------- ---- -------<br>-- ---------- -- --- ----- ------ ----- ---- --------- ----<br>------- ------ -------- -- ------ ---------- ------ ---<br>------ -- -- ---- -- ---------- -------- ------ ---- predict<br>---- --- --------- ------- ----- --------- ---- ----- --<br>------ -------- -- ------ -- ---- ------------,285855.5999999996,285854.19999999925,285495.888,285504.69999999925,285512.567,285862.421,,34,predict
screen,html.Screen,2_3_1_0_1_35,2022-04-25T11:57:51.068Z,,,,,,,,,,,,,,,,,19,,,,,,,,,,,,,,351.4789999985369,,response,,,,17,A,,,,,,Space,keypress(Space),,,,silence,,,,-------------- --- -------- -------- ---------- ---- -------<br>-- ---------- -- --- ----- ------ ----- ---- --------- ----<br>------- ------ -------- -- ------ ---------- ------ ---<br>------ -- -- ---- -- ---------- -------- ------ ---- -------<br>with --- --------- ------- ----- --------- ---- ----- --<br>------ -------- -- ------ -- ---- ------------,286215.19999999925,286213.8999999985,285846.041,285855.7999999989,285862.421,286229.244,,35,with
screen,html.Screen,2_3_1_0_1_36,2022-04-25T11:57:51.461Z,,,,,,,,,,,,,,,,,19,,,,,,,,,,,,,,377.4559999992489,,response,,,,17,A,,,,,,Space,keypress(Space),,,,silence,,,,-------------- --- -------- -------- ---------- ---- -------<br>-- ---------- -- --- ----- ------ ----- ---- --------- ----<br>------- ------ -------- -- ------ ---------- ------ ---<br>------ -- -- ---- -- ---------- -------- ------ ---- -------<br>---- any --------- ------- ----- --------- ---- ----- --<br>------ -------- -- ------ -- ---- ------------,286608.19999999925,286606.69999999925,286212.637,286215.3999999985,286229.244,286612.3,,36,any
screen,html.Screen,2_3_1_0_1_37,2022-04-25T11:57:51.778Z,,,,,,,,,,,,,,,,,19,,,,,,,,,,,,,,310.8999999992666,,response,,,,17,A,,,,,,Space,keypress(Space),,,,silence,,,,-------------- --- -------- -------- ---------- ---- -------<br>-- ---------- -- --- ----- ------ ----- ---- --------- ----<br>------- ------ -------- -- ------ ---------- ------ ---<br>------ -- -- ---- -- ---------- -------- ------ ---- -------<br>---- --- certainty ------- ----- --------- ---- ----- --<br>------ -------- -- ------ -- ---- ------------,286924.5999999996,286923.19999999925,286595.729,286608.3999999985,286612.3,286928.969,,37,certainty
screen,html.Screen,2_3_1_0_1_38,2022-04-25T11:57:52.131Z,,,,,,,,,,,,,,,,,19,,,,,,,,,,,,,,347.33099999889964,,response,,,,17,A,,,,,,Space,keypress(Space),,,,silence,,,,-------------- --- -------- -------- ---------- ---- -------<br>-- ---------- -- --- ----- ------ ----- ---- --------- ----<br>------- ------ -------- -- ------ ---------- ------ ---<br>------ -- -- ---- -- ---------- -------- ------ ---- -------<br>---- --- --------- whether ----- --------- ---- ----- --<br>------ -------- -- ------ -- ---- ------------,287277.69999999925,287276.2999999989,286912.367,286924.7999999989,286928.969,287300.777,,38,whether
