sender,sender_type,sender_id,timestamp,meta,,Blues,Classical,Country,Dance,Electronic,Folk,Gospel,Hip-Hop,Jazz,Latin,Musical/Film,New-age,Pop,Prolific_id,Provo_ID,R&B,Rap,Reggae,Religious,Rock,Soul,Swing,Traditional,age,artist_name,correct,correctResponse,distraction,duration,education,ended_on,familiarity,gender,headphone_check_performance,item,list,music_frequency,offensiveness,pleasantness,position_correct,preference,response,response_action,snippet_file,song_name,song_rating,sound,stimulus_1,stimulus_2,stimulus_3,text,time_commit,time_end,time_render,time_run,time_show,time_switch,url,word,word_ID
Prolific ID,html.Form,0,2022-05-12T21:15:05.704Z,"{""labjs_version"":""20.2.2"",""labjs_build"":{""flavor"":""production"",""commit"":""a25486e0c714a0ae2ce03ff94b7bb6896854dcfa""},""location"":""https://run.pavlovia.org/mvasilev/prolific3_music_e/"",""userAgent"":""Mozilla/5.0 (Windows NT 6.1; Win64; x64) AppleWebKit/537.36 (KHTML, like Gecko) Chrome/101.0.4951.54 Safari/537.36"",""platform"":""Win32"",""language"":""en-US"",""locale"":""en-US"",""timeZone"":""Europe/Dublin"",""timezoneOffset"":-60,""screen_width"":1366,""screen_height"":768,""scroll_width"":1366,""scroll_height"":577,""window_innerWidth"":1366,""window_innerHeight"":625,""devicePixelRatio"":1}",,,,,,,,,,,,,,,5dc71b96d210e45213e92359,,,,,,,,,,,,,,,33277.4570000001,,form submission,,,,,,,,,,,,,,,,,,,,,62004.39999999991,62002.60000000009,28684.891,28694.399999999907,28725.143,62022.671,{},,
Introduction,html.Screen,1_0,2022-05-12T21:15:16.369Z,,,,,,,,,,,,,,,,,,,,,,,,,,,,,,,10639.028999999719,,response,,,,,,,,,,,continue,click button,,,,,,,,,72669.19999999972,72661.69999999972,61982.397,62005.69999999972,62022.671,72674.85,,,
Volume calibration,html.Screen,1_1,2022-05-12T21:16:15.052Z,,,,,,,,,,,,,,,,,,,,,,,,,,,,,,,58667.5499999999,,response,,,,,,,,,,,continue,click button,,,,,,,,,131351.1000000001,131342.3999999999,72654.714,72669.5,72674.85,131352.25,,,
Task instructions,html.Screen,1_2,2022-05-12T21:16:29.556Z,,,,,,,,,,,,,,,,,,,,,,,,,,,,,,,14500.75,,response,,,,,,,,,,,continue,click button,,,,,,,,,145855.19999999972,145853,131332.108,131351.3999999999,131352.25,145871.294,,,
Sounds,html.Screen,1_3_0_0,2022-05-12T21:16:33.809Z,,,,,,,,,,,,,,,,,,,,,,,,,,,,,,,4249.421999999991,,timeout,,,,,,,,,3,,,,,,,,O,I,S,,150107.69999999972,150100.572,145851.133,145855.69999999972,145871.294,150120.716,,,
Judgement,html.Screen,1_3_0_1,2022-05-12T21:16:38.289Z,,,,,,,,,,,,,,,,,,,,,,,,,,,,true,3,,4463.983999999735,,response,,,,,,,,,3,,3,click #choice-3,,,,,O,I,S,,154587.6000000001,154584.69999999972,150100.572,150108.19999999972,150120.716,154589.915,,,
Trial,flow.Sequence,1_3_0,2022-05-12T21:16:38.295Z,,,,,,,,,,,,,,,,,,,,,,,,,,,,,,,8713.405999999726,,completion,,,,,,,,,3,,,,,,,,O,I,S,,154593.6000000001,154584.69999999972,145851.133,145855.6000000001,145871.294,154589.915,,,
Sounds,html.Screen,1_3_1_0,2022-05-12T21:16:42.521Z,,,,,,,,,,,,,,,,,,,,,,,,,,,,,,,4248.410999999993,,timeout,,,,,,,,,1,,,,,,,,S,I,O,,158820.1000000001,158818.19,154569.773,154594.5,154589.915,158838.326,,,
Judgement,html.Screen,1_3_1_1,2022-05-12T21:16:44.159Z,,,,,,,,,,,,,,,,,,,,,,,,,,,,true,1,,1616.4739999998128,,response,,,,,,,,,1,,1,click #choice-1,,,,,S,I,O,,160457.5,160454.7999999998,158818.19,158820.6000000001,158838.326,160469.396,,,
Trial,flow.Sequence,1_3_1,2022-05-12T21:16:44.159Z,,,,,,,,,,,,,,,,,,,,,,,,,,,,,,,5864.884999999806,,completion,,,,,,,,,1,,,,,,,,S,I,O,,160458.19999999972,160454.7999999998,154569.773,154594,154589.915,160469.396,,,
Sounds,html.Screen,1_3_2_0,2022-05-12T21:16:48.409Z,,,,,,,,,,,,,,,,,,,,,,,,,,,,,,,4256.581000000006,,timeout,,,,,,,,,2,,,,,,,,I,S,O,,164707.6000000001,164705.804,160449.26,160458.7999999998,160469.396,164725.977,,,
Judgement,html.Screen,1_3_2_1,2022-05-12T21:16:49.989Z,,,,,,,,,,,,,,,,,,,,,,,,,,,,true,2,,1559.222999999707,,response,,,,,,,,,2,,2,click #choice-2,,,,,I,S,O,,166287.3999999999,166285.19999999972,164705.804,164708,164725.977,166288.608,,,
Trial,flow.Sequence,1_3_2,2022-05-12T21:16:49.989Z,,,,,,,,,,,,,,,,,,,,,,,,,,,,,,,5815.803999999713,,completion,,,,,,,,,2,,,,,,,,I,S,O,,166288.19999999972,166285.19999999972,160449.26,160458.6000000001,160469.396,166288.608,,,
Sounds,html.Screen,1_3_3_0,2022-05-12T21:16:54.224Z,,,,,,,,,,,,,,,,,,,,,,,,,,,,,,,4252.171000000002,,timeout,,,,,,,,,3,,,,,,,,I,O,S,,170522.7999999998,170520.628,166268.476,166288.6000000001,166288.608,170540.779,,,
Judgement,html.Screen,1_3_3_1,2022-05-12T21:16:55.708Z,,,,,,,,,,,,,,,,,,,,,,,,,,,,true,3,,1464.0209999998042,,response,,,,,,,,,3,,3,click #choice-3,,,,,I,O,S,,172006.8999999999,172004.7999999998,170520.628,170523.19999999972,170540.779,172008.439,,,
Trial,flow.Sequence,1_3_3,2022-05-12T21:16:55.709Z,,,,,,,,,,,,,,,,,,,,,,,,,,,,,,,5716.191999999806,,completion,,,,,,,,,3,,,,,,,,I,O,S,,172007.5,172004.7999999998,166268.476,166288.5,166288.608,172008.439,,,
Sounds,html.Screen,1_3_4_0,2022-05-12T21:16:59.934Z,,,,,,,,,,,,,,,,,,,,,,,,,,,,,,,4243.047999999981,,timeout,,,,,,,,,1,,,,,,,,S,O,I,,176232.7999999998,176231.371,171988.273,172007.8999999999,172008.439,176251.487,,,
Judgement,html.Screen,1_3_4_1,2022-05-12T21:17:00.999Z,,,,,,,,,,,,,,,,,,,,,,,,,,,,true,1,,1044.1130000000994,,response,,,,,,,,,1,,1,click #choice-1,,,,,S,O,I,,177297.7999999998,177295.6000000001,176231.371,176233.19999999972,176251.487,177303.4,,,
Trial,flow.Sequence,1_3_4,2022-05-12T21:17:01.000Z,,,,,,,,,,,,,,,,,,,,,,,,,,,,,,,5287.16100000008,,completion,,,,,,,,,1,,,,,,,,S,O,I,,177298.3999999999,177295.6000000001,171988.273,172007.7999999998,172008.439,177303.4,,,
Sounds,html.Screen,1_3_5_0,2022-05-12T21:17:05.235Z,,,,,,,,,,,,,,,,,,,,,,,,,,,,,,,4248.741000000009,,timeout,,,,,,,,,2,,,,,,,,O,S,I,,181533.7999999998,181532.005,177283.264,177298.69999999972,177303.4,181552.141,,,
Judgement,html.Screen,1_3_5_1,2022-05-12T21:17:07.144Z,,,,,,,,,,,,,,,,,,,,,,,,,,,,true,2,,1886.1589999998105,,response,,,,,,,,,2,,2,click #choice-2,,,,,O,S,I,,183441,183438.2999999998,181532.005,181534.1000000001,181552.141,183465.475,,,
Trial,flow.Sequence,1_3_5,2022-05-12T21:17:07.145Z,,,,,,,,,,,,,,,,,,,,,,,,,,,,,,,6134.89999999982,,completion,,,,,,,,,2,,,,,,,,O,S,I,,183441.5,183438.2999999998,177283.264,177298.6000000001,177303.4,183465.475,,,
Task,flow.Loop,1_3,2022-05-12T21:17:07.160Z,,,,,,,,,,,,,,,,,,,,,,,,,,,,,,,37567.00599999982,,completion,,,1,,,,,,,,,,,,,,,,,,183457.1000000001,183438.2999999998,145851.133,145855.5,145871.294,183465.475,,,
Trap,html.Screen,1_4,2022-05-12T21:17:07.165Z,,,,,,,,,,,,,,,,,,,,,,,,,,,,,,,NaN,,skipped,,,,,,,,,,,,,,,,,,,,,183461.19999999972,183438.2999999998,,183460.8999999999,,183465.475,,,
Thanks,html.Screen,1_5,2022-05-12T21:17:14.713Z,,,,,,,,,,,,,,,,,,,,,,,,,,,,,,,7542.224999999715,,response,,,,,,,,,,,continue,click button,,,,,,,,,191009.8999999999,191007.69999999972,183425.191,183461.6000000001,183465.475,196332.213,,,
Headphone screening,flow.Sequence,1,2022-05-12T21:17:14.714Z,,,,,,,,,,,,,,,,,,,,,,,,,,,,,,,128985.02899999972,,completion,,,,,,,,,,,,,,,,,,,,,191010.5,191007.69999999972,61982.397,62005.60000000009,62022.671,196332.213,,,
Instructions,html.Page,2_0,2022-05-12T21:17:48.625Z,,,,,,,,,,,,,,,,,,,,,,,,,,,,,,,28588.28700000001,,form submission,,,,,,,,,,,,,,,,,,,,,224921.2999999998,224920.5,196312.077,196349.5,196332.213,224938.821,,,
Holding screen,html.Screen,2_1_0_0,2022-05-12T21:17:58.619Z,,,,,,,,,,,,,,,,,,,,,,,,,,,,,,,9995.048999999999,,timeout,,,,,,,,,,,,,,,,,,,,,234915.5,234913.733,224918.691,224922.1000000001,224938.821,234933.87,,,
screen,html.Screen,2_1_0_1_0,2022-05-12T21:18:01.636Z,,,,,,,,,,,,,,,,,53,,,,,,,,,,,,,,2991.6300000000047,,response,,,,99,,,,,,,Space,keypress(Space),,,,,,,,When -- ----- -- ------ - ------- --- ----------<br>------------- ------ ------ ---- ---- ------- ----- -- ----<br>-------- ------- -- ---------- --- - --- ----- ----- ----<br>---- --- --- ----- --- ---- ---- ------- ----- ---- -------<br>--- --- -- ----- -- --- ---- -- --- ---- -- ------ ------<br>--- ----- -- ----,237932.3999999999,237925.5,234913.733,234916,234933.87,237934.05,,0,When
screen,html.Screen,2_1_0_1_1,2022-05-12T21:18:02.810Z,,,,,,,,,,,,,,,,,53,,,,,,,,,,,,,,1170.8499999999185,,response,,,,99,,,,,,,Space,keypress(Space),,,,,,,,---- it ----- -- ------ - ------- --- ----------<br>------------- ------ ------ ---- ---- ------- ----- -- ----<br>-------- ------- -- ---------- --- - --- ----- ----- ----<br>---- --- --- ----- --- ---- ---- ------- ----- ---- -------<br>--- --- -- ----- -- --- ---- -- --- ---- -- ------ ------<br>--- ----- -- ----,239106.3999999999,239104.8999999999,237913.914,237932.7999999998,237934.05,239121.978,,1,it
screen,html.Screen,2_1_0_1_2,2022-05-12T21:18:03.415Z,,,,,,,,,,,,,,,,,53,,,,,,,,,,,,,,588.3219999998109,,response,,,,99,,,,,,,Space,keypress(Space),,,,,,,,---- -- comes -- ------ - ------- --- ----------<br>------------- ------ ------ ---- ---- ------- ----- -- ----<br>-------- ------- -- ---------- --- - --- ----- ----- ----<br>---- --- --- ----- --- ---- ---- ------- ----- ---- -------<br>--- --- -- ----- -- --- ---- -- --- ---- -- ------ ------<br>--- ----- -- ----,239711.69999999972,239710.2999999998,239101.843,239106.7999999998,239121.978,239726.201,,2,comes
screen,html.Screen,2_1_0_1_3,2022-05-12T21:18:03.981Z,,,,,,,,,,,,,,,,,53,,,,,,,,,,,,,,550.1989999999059,,response,,,,99,,,,,,,Space,keypress(Space),,,,,,,,---- -- ----- to ------ - ------- --- ----------<br>------------- ------ ------ ---- ---- ------- ----- -- ----<br>-------- ------- -- ---------- --- - --- ----- ----- ----<br>---- --- --- ----- --- ---- ---- ------- ----- ---- -------<br>--- --- -- ----- -- --- ---- -- --- ---- -- ------ ------<br>--- ----- -- ----,240277.5,240276.3999999999,239706.065,239712,239726.201,240290.027,,3,to
screen,html.Screen,2_1_0_1_4,2022-05-12T21:18:04.546Z,,,,,,,,,,,,,,,,,53,,,,,,,,,,,,,,551.372999999905,,response,,,,99,,,,,,,Space,keypress(Space),,,,,,,,---- -- ----- -- having - ------- --- ----------<br>------------- ------ ------ ---- ---- ------- ----- -- ----<br>-------- ------- -- ---------- --- - --- ----- ----- ----<br>---- --- --- ----- --- ---- ---- ------- ----- ---- -------<br>--- --- -- ----- -- --- ---- -- --- ---- -- ------ ------<br>--- ----- -- ----,240842.6000000001,240841.3999999999,240269.891,240277.8999999999,240290.027,240853.799,,4,having
screen,html.Screen,2_1_0_1_5,2022-05-12T21:18:04.991Z,,,,,,,,,,,,,,,,,53,,,,,,,,,,,,,,433.00099999981467,,response,,,,99,,,,,,,Space,keypress(Space),,,,,,,,---- -- ----- -- ------ a ------- --- ----------<br>------------- ------ ------ ---- ---- ------- ----- -- ----<br>-------- ------- -- ---------- --- - --- ----- ----- ----<br>---- --- --- ----- --- ---- ---- ------- ----- ---- -------<br>--- --- -- ----- -- --- ---- -- --- ---- -- ------ ------<br>--- ----- -- ----,241288.1000000001,241286.7999999998,240833.664,240842.8999999999,240853.799,241296.793,,5,a
screen,html.Screen,2_1_0_1_6,2022-05-12T21:18:05.501Z,,,,,,,,,,,,,,,,,53,,,,,,,,,,,,,,499.0069999998086,,response,,,,99,,,,,,,Space,keypress(Space),,,,,,,,---- -- ----- -- ------ - lasting --- ----------<br>------------- ------ ------ ---- ---- ------- ----- -- ----<br>-------- ------- -- ---------- --- - --- ----- ----- ----<br>---- --- --- ----- --- ---- ---- ------- ----- ---- -------<br>--- --- -- ----- -- --- ---- -- --- ---- -- ------ ------<br>--- ----- -- ----,241797.3999999999,241795.7999999998,241276.658,241288.5,241296.793,241800.29,,6,lasting
screen,html.Screen,2_1_0_1_7,2022-05-12T21:18:06.043Z,,,,,,,,,,,,,,,,,53,,,,,,,,,,,,,,537.6099999998987,,response,,,,99,,,,,,,Space,keypress(Space),,,,,,,,---- -- ----- -- ------ - ------- and ----------<br>------------- ------ ------ ---- ---- ------- ----- -- ----<br>-------- ------- -- ---------- --- - --- ----- ----- ----<br>---- --- --- ----- --- ---- ---- ------- ----- ---- -------<br>--- --- -- ----- -- --- ---- -- --- ---- -- ------ ------<br>--- ----- -- ----,242339.3999999999,242337.8999999999,241780.153,241797.69999999972,241800.29,242343.775,,7,and
screen,html.Screen,2_1_0_1_8,2022-05-12T21:18:06.577Z,,,,,,,,,,,,,,,,,53,,,,,,,,,,,,,,527.5249999998196,,response,,,,99,,,,,,,Space,keypress(Space),,,,,,,,---- -- ----- -- ------ - ------- --- fulfilling<br>------------- ------ ------ ---- ---- ------- ----- -- ----<br>-------- ------- -- ---------- --- - --- ----- ----- ----<br>---- --- --- ----- --- ---- ---- ------- ----- ---- -------<br>--- --- -- ----- -- --- ---- -- --- ---- -- ------ ------<br>--- ----- -- ----,242873.1000000001,242871.2999999998,242323.642,242339.69999999972,242343.775,242887.691,,8,fulfilling
screen,html.Screen,2_1_0_1_9,2022-05-12T21:18:07.543Z,,,,,,,,,,,,,,,,,53,,,,,,,,,,,,,,948.8090000000084,,response,,,,99,,,,,,,Space,keypress(Space),,,,,,,,"---- -- ----- -- ------ - ------- --- ----------<br>relationship, ------ ------ ---- ---- ------- ----- -- ----<br>-------- ------- -- ---------- --- - --- ----- ----- ----<br>---- --- --- ----- --- ---- ---- ------- ----- ---- -------<br>--- --- -- ----- -- --- ---- -- --- ---- -- ------ ------<br>--- ----- -- ----",243838.2999999998,243836.5,242867.554,242873.3999999999,242887.691,243854.169,,9,"relationship,"
screen,html.Screen,2_1_0_1_10,2022-05-12T21:18:08.172Z,,,,,,,,,,,,,,,,,53,,,,,,,,,,,,,,611.5309999997262,,response,,,,99,,,,,,,Space,keypress(Space),,,,,,,,---- -- ----- -- ------ - ------- --- ----------<br>------------- common ------ ---- ---- ------- ----- -- ----<br>-------- ------- -- ---------- --- - --- ----- ----- ----<br>---- --- --- ----- --- ---- ---- ------- ----- ---- -------<br>--- --- -- ----- -- --- ---- -- --- ---- -- ------ ------<br>--- ----- -- ----,244467.3999999999,244465.69999999972,243834.033,243838.6000000001,243854.169,244478.449,,10,common
screen,html.Screen,2_1_0_1_11,2022-05-12T21:18:08.689Z,,,,,,,,,,,,,,,,,53,,,,,,,,,,,,,,504.6510000000999,,response,,,,99,,,,,,,Space,keypress(Space),,,,,,,,---- -- ----- -- ------ - ------- --- ----------<br>------------- ------ wisdom ---- ---- ------- ----- -- ----<br>-------- ------- -- ---------- --- - --- ----- ----- ----<br>---- --- --- ----- --- ---- ---- ------- ----- ---- -------<br>--- --- -- ----- -- --- ---- -- --- ---- -- ------ ------<br>--- ----- -- ----,244984.7999999998,244983.1000000001,244458.313,244467.7999999998,244478.449,245001.993,,11,wisdom
screen,html.Screen,2_1_0_1_12,2022-05-12T21:18:09.191Z,,,,,,,,,,,,,,,,,53,,,,,,,,,,,,,,482.6070000001055,,response,,,,99,,,,,,,Space,keypress(Space),,,,,,,,---- -- ----- -- ------ - ------- --- ----------<br>------------- ------ ------ says ---- ------- ----- -- ----<br>-------- ------- -- ---------- --- - --- ----- ----- ----<br>---- --- --- ----- --- ---- ---- ------- ----- ---- -------<br>--- --- -- ----- -- --- ---- -- --- ---- -- ------ ------<br>--- ----- -- ----,245486.3999999999,245484.6000000001,244981.857,244985.19999999972,245001.993,245505.263,,12,says
screen,html.Screen,2_1_0_1_13,2022-05-12T21:18:09.692Z,,,,,,,,,,,,,,,,,53,,,,,,,,,,,,,,480.83700000008685,,response,,,,99,,,,,,,Space,keypress(Space),,,,,,,,---- -- ----- -- ------ - ------- --- ----------<br>------------- ------ ------ ---- that ------- ----- -- ----<br>-------- ------- -- ---------- --- - --- ----- ----- ----<br>---- --- --- ----- --- ---- ---- ------- ----- ---- -------<br>--- --- -- ----- -- --- ---- -- --- ---- -- ------ ------<br>--- ----- -- ----,245987.69999999972,245986.1000000001,245485.129,245486.7999999998,245505.263,246008.857,,13,that
screen,html.Screen,2_1_0_1_14,2022-05-12T21:18:10.258Z,,,,,,,,,,,,,,,,,53,,,,,,,,,,,,,,542.8429999997315,,response,,,,99,,,,,,,Space,keypress(Space),,,,,,,,---- -- ----- -- ------ - ------- --- ----------<br>------------- ------ ------ ---- ---- feeling ----- -- ----<br>-------- ------- -- ---------- --- - --- ----- ----- ----<br>---- --- --- ----- --- ---- ---- ------- ----- ---- -------<br>--- --- -- ----- -- --- ---- -- --- ---- -- ------ ------<br>--- ----- -- ----,246553.3999999999,246551.69999999972,245988.72,245988.1000000001,246008.857,246572.348,,14,feeling
screen,html.Screen,2_1_0_1_15,2022-05-12T21:18:10.792Z,,,,,,,,,,,,,,,,,53,,,,,,,,,,,,,,512.3519999997225,,response,,,,99,,,,,,,Space,keypress(Space),,,,,,,,---- -- ----- -- ------ - ------- --- ----------<br>------------- ------ ------ ---- ---- ------- close -- ----<br>-------- ------- -- ---------- --- - --- ----- ----- ----<br>---- --- --- ----- --- ---- ---- ------- ----- ---- -------<br>--- --- -- ----- -- --- ---- -- --- ---- -- ------ ------<br>--- ----- -- ----,247087.1000000001,247084.69999999972,246552.216,246553.7999999998,246572.348,247096.213,,15,close
screen,html.Screen,2_1_0_1_16,2022-05-12T21:18:11.277Z,,,,,,,,,,,,,,,,,53,,,,,,,,,,,,,,474.3870000001043,,response,,,,99,,,,,,,Space,keypress(Space),,,,,,,,---- -- ----- -- ------ - ------- --- ----------<br>------------- ------ ------ ---- ---- ------- ----- to ----<br>-------- ------- -- ---------- --- - --- ----- ----- ----<br>---- --- --- ----- --- ---- ---- ------- ----- ---- -------<br>--- --- -- ----- -- --- ---- -- --- ---- -- ------ ------<br>--- ----- -- ----,247572.19999999972,247570.6000000001,247076.075,247087.5,247096.213,247579.261,,16,to
screen,html.Screen,2_1_0_1_17,2022-05-12T21:18:11.779Z,,,,,,,,,,,,,,,,,53,,,,,,,,,,,,,,494.13899999990826,,response,,,,99,,,,,,,Space,keypress(Space),,,,,,,,---- -- ----- -- ------ - ------- --- ----------<br>------------- ------ ------ ---- ---- ------- ----- -- your<br>-------- ------- -- ---------- --- - --- ----- ----- ----<br>---- --- --- ----- --- ---- ---- ------- ----- ---- -------<br>--- --- -- ----- -- --- ---- -- --- ---- -- ------ ------<br>--- ----- -- ----,248075.1000000001,248073.3999999999,247559.127,247572.6000000001,247579.261,248082.931,,17,your
screen,html.Screen,2_1_0_1_18,2022-05-12T21:18:12.336Z,,,,,,,,,,,,,,,,,53,,,,,,,,,,,,,,546.4689999998955,,response,,,,99,,,,,,,Space,keypress(Space),,,,,,,,---- -- ----- -- ------ - ------- --- ----------<br>------------- ------ ------ ---- ---- ------- ----- -- ----<br>romantic ------- -- ---------- --- - --- ----- ----- ----<br>---- --- --- ----- --- ---- ---- ------- ----- ---- -------<br>--- --- -- ----- -- --- ---- -- --- ---- -- ------ ------<br>--- ----- -- ----,248631.1000000001,248629.3999999999,248062.792,248075.2999999998,248082.931,248646.451,,18,romantic
screen,html.Screen,2_1_0_1_19,2022-05-12T21:18:12.805Z,,,,,,,,,,,,,,,,,53,,,,,,,,,,,,,,452.7489999997197,,response,,,,99,,,,,,,Space,keypress(Space),,,,,,,,---- -- ----- -- ------ - ------- --- ----------<br>------------- ------ ------ ---- ---- ------- ----- -- ----<br>-------- partner -- ---------- --- - --- ----- ----- ----<br>---- --- --- ----- --- ---- ---- ------- ----- ---- -------<br>--- --- -- ----- -- --- ---- -- --- ---- -- ------ ------<br>--- ----- -- ----,249100.69999999972,249099.19999999972,248626.318,248631.5,248646.451,249109.858,,19,partner
screen,html.Screen,2_1_0_1_20,2022-05-12T21:18:13.355Z,,,,,,,,,,,,,,,,,53,,,,,,,,,,,,,,538.7420000000857,,response,,,,99,,,,,,,Space,keypress(Space),,,,,,,,---- -- ----- -- ------ - ------- --- ----------<br>------------- ------ ------ ---- ---- ------- ----- -- ----<br>-------- ------- is ---------- --- - --- ----- ----- ----<br>---- --- --- ----- --- ---- ---- ------- ----- ---- -------<br>--- --- -- ----- -- --- ---- -- --- ---- -- ------ ------<br>--- ----- -- ----,249650.19999999972,249648.6000000001,249089.719,249101.1000000001,249109.858,249653.265,,20,is
screen,html.Screen,2_1_0_1_21,2022-05-12T21:18:14.192Z,,,,,,,,,,,,,,,,,53,,,,,,,,,,,,,,832.5349999997998,,response,,,,99,,,,,,,Space,keypress(Space),,,,,,,,---- -- ----- -- ------ - ------- --- ----------<br>------------- ------ ------ ---- ---- ------- ----- -- ----<br>-------- ------- -- paramount. --- - --- ----- ----- ----<br>---- --- --- ----- --- ---- ---- ------- ----- ---- -------<br>--- --- -- ----- -- --- ---- -- --- ---- -- ------ ------<br>--- ----- -- ----,250487.3999999999,250485.7999999998,249633.132,249650.5,249653.265,250499.142,,21,paramount.
screen,html.Screen,2_1_0_1_22,2022-05-12T21:18:14.853Z,,,,,,,,,,,,,,,,,53,,,,,,,,,,,,,,647.9580000001006,,response,,,,99,,,,,,,Space,keypress(Space),,,,,,,,---- -- ----- -- ------ - ------- --- ----------<br>------------- ------ ------ ---- ---- ------- ----- -- ----<br>-------- ------- -- ---------- But - --- ----- ----- ----<br>---- --- --- ----- --- ---- ---- ------- ----- ---- -------<br>--- --- -- ----- -- --- ---- -- --- ---- -- ------ ------<br>--- ----- -- ----,251148.7999999998,251147.1000000001,250479.006,250487.69999999972,250499.142,251163.758,,22,But
screen,html.Screen,2_1_0_1_23,2022-05-12T21:18:15.291Z,,,,,,,,,,,,,,,,,53,,,,,,,,,,,,,,420.441999999719,,response,,,,99,,,,,,,Space,keypress(Space),,,,,,,,---- -- ----- -- ------ - ------- --- ----------<br>------------- ------ ------ ---- ---- ------- ----- -- ----<br>-------- ------- -- ---------- --- a --- ----- ----- ----<br>---- --- --- ----- --- ---- ---- ------- ----- ---- -------<br>--- --- -- ----- -- --- ---- -- --- ---- -- ------ ------<br>--- ----- -- ----,251586.19999999972,251584.19999999972,251143.621,251149.19999999972,251163.758,251606.698,,23,a
screen,html.Screen,2_1_0_1_24,2022-05-12T21:18:15.728Z,,,,,,,,,,,,,,,,,53,,,,,,,,,,,,,,415.6019999998098,,response,,,,99,,,,,,,Space,keypress(Space),,,,,,,,---- -- ----- -- ------ - ------- --- ----------<br>------------- ------ ------ ---- ---- ------- ----- -- ----<br>-------- ------- -- ---------- --- - new ----- ----- ----<br>---- --- --- ----- --- ---- ---- ------- ----- ---- -------<br>--- --- -- ----- -- --- ---- -- --- ---- -- ------ ------<br>--- ----- -- ----,252023.7999999998,252022.2999999998,251586.562,251586.3999999999,251606.698,252029.552,,24,new
screen,html.Screen,2_1_0_1_25,2022-05-12T21:18:16.182Z,,,,,,,,,,,,,,,,,53,,,,,,,,,,,,,,446.2479999998177,,response,,,,99,,,,,,,Space,keypress(Space),,,,,,,,---- -- ----- -- ------ - ------- --- ----------<br>------------- ------ ------ ---- ---- ------- ----- -- ----<br>-------- ------- -- ---------- --- - --- study ----- ----<br>---- --- --- ----- --- ---- ---- ------- ----- ---- -------<br>--- --- -- ----- -- --- ---- -- --- ---- -- ------ ------<br>--- ----- -- ----,252477.3999999999,252475.7999999998,252009.416,252024.1000000001,252029.552,252492.563,,25,study
screen,html.Screen,2_1_0_1_26,2022-05-12T21:18:16.635Z,,,,,,,,,,,,,,,,,53,,,,,,,,,,,,,,436.2369999998191,,response,,,,99,,,,,,,Space,keypress(Space),,,,,,,,---- -- ----- -- ------ - ------- --- ----------<br>------------- ------ ------ ---- ---- ------- ----- -- ----<br>-------- ------- -- ---------- --- - --- ----- finds ----<br>---- --- --- ----- --- ---- ---- ------- ----- ---- -------<br>--- --- -- ----- -- --- ---- -- --- ---- -- ------ ------<br>--- ----- -- ----,252930.3999999999,252928.7999999998,252472.429,252477.69999999972,252492.563,252935.607,,26,finds
screen,html.Screen,2_1_0_1_27,2022-05-12T21:18:17.073Z,,,,,,,,,,,,,,,,,53,,,,,,,,,,,,,,431.1929999998247,,response,,,,99,,,,,,,Space,keypress(Space),,,,,,,,---- -- ----- -- ------ - ------- --- ----------<br>------------- ------ ------ ---- ---- ------- ----- -- ----<br>-------- ------- -- ---------- --- - --- ----- ----- that<br>---- --- --- ----- --- ---- ---- ------- ----- ---- -------<br>--- --- -- ----- -- --- ---- -- --- ---- -- ------ ------<br>--- ----- -- ----,253368.3999999999,253366.7999999998,252915.472,252930.7999999998,252935.607,253378.774,,27,that
screen,html.Screen,2_1_0_1_28,2022-05-12T21:18:17.639Z,,,,,,,,,,,,,,,,,53,,,,,,,,,,,,,,553.7259999999951,,response,,,,99,,,,,,,Space,keypress(Space),,,,,,,,---- -- ----- -- ------ - ------- --- ----------<br>------------- ------ ------ ---- ---- ------- ----- -- ----<br>-------- ------- -- ---------- --- - --- ----- ----- ----<br>it's --- --- ----- --- ---- ---- ------- ----- ---- -------<br>--- --- -- ----- -- --- ---- -- --- ---- -- ------ ------<br>--- ----- -- ----,253934.1000000001,253932.5,253358.636,253368.69999999972,253378.774,253942.368,,28,it's
screen,html.Screen,2_1_0_1_29,2022-05-12T21:18:18.068Z,,,,,,,,,,,,,,,,,53,,,,,,,,,,,,,,419.5319999999192,,response,,,,99,,,,,,,Space,keypress(Space),,,,,,,,---- -- ----- -- ------ - ------- --- ----------<br>------------- ------ ------ ---- ---- ------- ----- -- ----<br>-------- ------- -- ---------- --- - --- ----- ----- ----<br>---- not --- ----- --- ---- ---- ------- ----- ---- -------<br>--- --- -- ----- -- --- ---- -- --- ---- -- ------ ------<br>--- ----- -- ----,254363.5,254361.8999999999,253922.234,253934.3999999999,253942.368,254365.437,,29,not
screen,html.Screen,2_1_0_1_30,2022-05-12T21:18:18.745Z,,,,,,,,,,,,,,,,,53,,,,,,,,,,,,,,673.7629999997152,,response,,,,99,,,,,,,Space,keypress(Space),,,,,,,,---- -- ----- -- ------ - ------- --- ----------<br>------------- ------ ------ ---- ---- ------- ----- -- ----<br>-------- ------- -- ---------- --- - --- ----- ----- ----<br>---- --- how ----- --- ---- ---- ------- ----- ---- -------<br>--- --- -- ----- -- --- ---- -- --- ---- -- ------ ------<br>--- ----- -- ----,255041.1000000001,255039.19999999972,254345.3,254363.8999999999,254365.437,255050.098,,30,how
screen,html.Screen,2_1_0_1_31,2022-05-12T21:18:19.726Z,,,,,,,,,,,,,,,,,53,,,,,,,,,,,,,,970.1019999997225,,response,,,,99,,,,,,,Space,keypress(Space),,,,,,,,---- -- ----- -- ------ - ------- --- ----------<br>------------- ------ ------ ---- ---- ------- ----- -- ----<br>-------- ------- -- ---------- --- - --- ----- ----- ----<br>---- --- --- close --- ---- ---- ------- ----- ---- -------<br>--- --- -- ----- -- --- ---- -- --- ---- -- ------ ------<br>--- ----- -- ----,256021.7999999998,256020.19999999972,255029.961,255041.3999999999,255050.098,256036.535,,31,close
screen,html.Screen,2_1_0_1_32,2022-05-12T21:18:20.323Z,,,,,,,,,,,,,,,,,53,,,,,,,,,,,,,,580.5650000000896,,response,,,,99,,,,,,,Space,keypress(Space),,,,,,,,---- -- ----- -- ------ - ------- --- ----------<br>------------- ------ ------ ---- ---- ------- ----- -- ----<br>-------- ------- -- ---------- --- - --- ----- ----- ----<br>---- --- --- ----- you ---- ---- ------- ----- ---- -------<br>--- --- -- ----- -- --- ---- -- --- ---- -- ------ ------<br>--- ----- -- ----,256618.6000000001,256617.1000000001,256016.401,256022.1000000001,256036.535,256620.699,,32,you
screen,html.Screen,2_1_0_1_33,2022-05-12T21:18:20.761Z,,,,,,,,,,,,,,,,,53,,,,,,,,,,,,,,434.4010000000999,,response,,,,99,,,,,,,Space,keypress(Space),,,,,,,,---- -- ----- -- ------ - ------- --- ----------<br>------------- ------ ------ ---- ---- ------- ----- -- ----<br>-------- ------- -- ---------- --- - --- ----- ----- ----<br>---- --- --- ----- --- feel ---- ------- ----- ---- -------<br>--- --- -- ----- -- --- ---- -- --- ---- -- ------ ------<br>--- ----- -- ----,257056.7999999998,257055.1000000001,256600.563,256619.1000000001,256620.699,257063.512,,33,feel
screen,html.Screen,2_1_0_1_34,2022-05-12T21:18:21.206Z,,,,,,,,,,,,,,,,,53,,,,,,,,,,,,,,436.4880000000121,,response,,,,99,,,,,,,Space,keypress(Space),,,,,,,,---- -- ----- -- ------ - ------- --- ----------<br>------------- ------ ------ ---- ---- ------- ----- -- ----<br>-------- ------- -- ---------- --- - --- ----- ----- ----<br>---- --- --- ----- --- ---- that ------- ----- ---- -------<br>--- --- -- ----- -- --- ---- -- --- ---- -- ------ ------<br>--- ----- -- ----,257501.3999999999,257500,257043.378,257057.1000000001,257063.512,257506.691,,34,that
screen,html.Screen,2_1_0_1_35,2022-05-12T21:18:21.644Z,,,,,,,,,,,,,,,,,53,,,,,,,,,,,,,,431.6089999998221,,response,,,,99,,,,,,,Space,keypress(Space),,,,,,,,---- -- ----- -- ------ - ------- --- ----------<br>------------- ------ ------ ---- ---- ------- ----- -- ----<br>-------- ------- -- ---------- --- - --- ----- ----- ----<br>---- --- --- ----- --- ---- ---- matters ----- ---- -------<br>--- --- -- ----- -- --- ---- -- --- ---- -- ------ ------<br>--- ----- -- ----,257939.8999999999,257938.2999999998,257486.554,257501.6000000001,257506.691,257949.672,,35,matters
screen,html.Screen,2_1_0_1_36,2022-05-12T21:18:22.211Z,,,,,,,,,,,,,,,,,53,,,,,,,,,,,,,,555.2279999999155,,response,,,,99,,,,,,,Space,keypress(Space),,,,,,,,"---- -- ----- -- ------ - ------- --- ----------<br>------------- ------ ------ ---- ---- ------- ----- -- ----<br>-------- ------- -- ---------- --- - --- ----- ----- ----<br>---- --- --- ----- --- ---- ---- ------- most, ---- -------<br>--- --- -- ----- -- --- ---- -- --- ---- -- ------ ------<br>--- ----- -- ----",258506.5,258504.8999999999,257929.535,257940.19999999972,257949.672,258513.281,,36,"most,"
screen,html.Screen,2_1_0_1_37,2022-05-12T21:18:22.679Z,,,,,,,,,,,,,,,,,53,,,,,,,,,,,,,,460.0189999998256,,response,,,,99,,,,,,,Space,keypress(Space),,,,,,,,---- -- ----- -- ------ - ------- --- ----------<br>------------- ------ ------ ---- ---- ------- ----- -- ----<br>-------- ------- -- ---------- --- - --- ----- ----- ----<br>---- --- --- ----- --- ---- ---- ------- ----- it's -------<br>--- --- -- ----- -- --- ---- -- --- ---- -- ------ ------<br>--- ----- -- ----,258975,258973.2999999998,258493.148,258506.69999999972,258513.281,258976.709,,37,it's
screen,html.Screen,2_1_0_1_38,2022-05-12T21:18:23.172Z,,,,,,,,,,,,,,,,,53,,,,,,,,,,,,,,489.6909999999043,,response,,,,99,,,,,,,Space,keypress(Space),,,,,,,,---- -- ----- -- ------ - ------- --- ----------<br>------------- ------ ------ ---- ---- ------- ----- -- ----<br>-------- ------- -- ---------- --- - --- ----- ----- ----<br>---- --- --- ----- --- ---- ---- ------- ----- ---- whether<br>--- --- -- ----- -- --- ---- -- --- ---- -- ------ ------<br>--- ----- -- ----,259467.8999999999,259466.3999999999,258956.571,258975.6000000001,258976.709,259480.031,,38,whether
screen,html.Screen,2_1_0_1_39,2022-05-12T21:18:23.682Z,,,,,,,,,,,,,,,,,53,,,,,,,,,,,,,,496.2689999998256,,response,,,,99,,,,,,,Space,keypress(Space),,,,,,,,---- -- ----- -- ------ - ------- --- ----------<br>------------- ------ ------ ---- ---- ------- ----- -- ----<br>-------- ------- -- ---------- --- - --- ----- ----- ----<br>---- --- --- ----- --- ---- ---- ------- ----- ---- -------<br>you --- -- ----- -- --- ---- -- --- ---- -- ------ ------<br>--- ----- -- ----,259978.1000000001,259976.2999999998,259459.895,259468.19999999972,259480.031,259983.374,,39,you
screen,html.Screen,2_1_0_1_40,2022-05-12T21:18:24.183Z,,,,,,,,,,,,,,,,,53,,,,,,,,,,,,,,494.1259999999893,,response,,,,99,,,,,,,Space,keypress(Space),,,,,,,,---- -- ----- -- ------ - ------- --- ----------<br>------------- ------ ------ ---- ---- ------- ----- -- ----<br>-------- ------- -- ---------- --- - --- ----- ----- ----<br>---- --- --- ----- --- ---- ---- ------- ----- ---- -------<br>--- are -- ----- -- --- ---- -- --- ---- -- ------ ------<br>--- ----- -- ----,260479,260477.5,259963.239,259978.3999999999,259983.374,260486.748,,40,are
screen,html.Screen,2_1_0_1_41,2022-05-12T21:18:24.733Z,,,,,,,,,,,,,,,,,53,,,,,,,,,,,,,,540.4519999997283,,response,,,,99,,,,,,,Space,keypress(Space),,,,,,,,---- -- ----- -- ------ - ------- --- ----------<br>------------- ------ ------ ---- ---- ------- ----- -- ----<br>-------- ------- -- ---------- --- - --- ----- ----- ----<br>---- --- --- ----- --- ---- ---- ------- ----- ---- -------<br>--- --- as ----- -- --- ---- -- --- ---- -- ------ ------<br>--- ----- -- ----,261028.7999999998,261027.19999999972,260466.613,260479.3999999999,260486.748,261030.398,,41,as
screen,html.Screen,2_1_0_1_42,2022-05-12T21:18:25.211Z,,,,,,,,,,,,,,,,,53,,,,,,,,,,,,,,474.40199999982724,,response,,,,99,,,,,,,Space,keypress(Space),,,,,,,,---- -- ----- -- ------ - ------- --- ----------<br>------------- ------ ------ ---- ---- ------- ----- -- ----<br>-------- ------- -- ---------- --- - --- ----- ----- ----<br>---- --- --- ----- --- ---- ---- ------- ----- ---- -------<br>--- --- -- close -- --- ---- -- --- ---- -- ------ ------<br>--- ----- -- ----,261506.3999999999,261504.7999999998,261010.263,261029.2999999998,261030.398,261513.742,,42,close
screen,html.Screen,2_1_0_1_43,2022-05-12T21:18:25.664Z,,,,,,,,,,,,,,,,,53,,,,,,,,,,,,,,444.1579999999085,,response,,,,99,,,,,,,Space,keypress(Space),,,,,,,,---- -- ----- -- ------ - ------- --- ----------<br>------------- ------ ------ ---- ---- ------- ----- -- ----<br>-------- ------- -- ---------- --- - --- ----- ----- ----<br>---- --- --- ----- --- ---- ---- ------- ----- ---- -------<br>--- --- -- ----- as --- ---- -- --- ---- -- ------ ------<br>--- ----- -- ----,261959.5,261957.8999999999,261493.606,261506.8999999999,261513.742,261976.987,,43,as
screen,html.Screen,2_1_0_1_44,2022-05-12T21:18:26.086Z,,,,,,,,,,,,,,,,,53,,,,,,,,,,,,,,402.91299999991315,,response,,,,99,,,,,,,Space,keypress(Space),,,,,,,,---- -- ----- -- ------ - ------- --- ----------<br>------------- ------ ------ ---- ---- ------- ----- -- ----<br>-------- ------- -- ---------- --- - --- ----- ----- ----<br>---- --- --- ----- --- ---- ---- ------- ----- ---- -------<br>--- --- -- ----- -- you ---- -- --- ---- -- ------ ------<br>--- ----- -- ----,262381.5,262379.8999999999,261956.85,261959.8999999999,261976.987,262399.854,,44,you
screen,html.Screen,2_1_0_1_45,2022-05-12T21:18:26.507Z,,,,,,,,,,,,,,,,,53,,,,,,,,,,,,,,401.1460000000079,,response,,,,99,,,,,,,Space,keypress(Space),,,,,,,,---- -- ----- -- ------ - ------- --- ----------<br>------------- ------ ------ ---- ---- ------- ----- -- ----<br>-------- ------- -- ---------- --- - --- ----- ----- ----<br>---- --- --- ----- --- ---- ---- ------- ----- ---- -------<br>--- --- -- ----- -- --- want -- --- ---- -- ------ ------<br>--- ----- -- ----,262802.7999999998,262801,262379.717,262381.8999999999,262399.854,262822.604,,45,want
screen,html.Screen,2_1_0_1_46,2022-05-12T21:18:26.977Z,,,,,,,,,,,,,,,,,53,,,,,,,,,,,,,,448.2959999999148,,response,,,,99,,,,,,,Space,keypress(Space),,,,,,,,---- -- ----- -- ------ - ------- --- ----------<br>------------- ------ ------ ---- ---- ------- ----- -- ----<br>-------- ------- -- ---------- --- - --- ----- ----- ----<br>---- --- --- ----- --- ---- ---- ------- ----- ---- -------<br>--- --- -- ----- -- --- ---- to --- ---- -- ------ ------<br>--- ----- -- ----,263272.6999999997,263270.8999999999,262802.469,262803.1999999997,262822.604,263285.797,,46,to
screen,html.Screen,2_1_0_1_47,2022-05-12T21:18:27.407Z,,,,,,,,,,,,,,,,,53,,,,,,,,,,,,,,414.9029999997001,,response,,,,99,,,,,,,Space,keypress(Space),,,,,,,,"---- -- ----- -- ------ - ------- --- ----------<br>------------- ------ ------ ---- ---- ------- ----- -- ----<br>-------- ------- -- ---------- --- - --- ----- ----- ----<br>---- --- --- ----- --- ---- ---- ------- ----- ---- -------<br>--- --- -- ----- -- --- ---- -- be, ---- -- ------ ------<br>--- ----- -- ----",263702.2999999998,263700.6999999997,263265.661,263273.1000000001,263285.797,263708.719,,47,"be,"
screen,html.Screen,2_1_0_1_48,2022-05-12T21:18:28.012Z,,,,,,,,,,,,,,,,,53,,,,,,,,,,,,,,596.9809999997378,,response,,,,99,,,,,,,Space,keypress(Space),,,,,,,,---- -- ----- -- ------ - ------- --- ----------<br>------------- ------ ------ ---- ---- ------- ----- -- ----<br>-------- ------- -- ---------- --- - --- ----- ----- ----<br>---- --- --- ----- --- ---- ---- ------- ----- ---- -------<br>--- --- -- ----- -- --- ---- -- --- even -- ------ ------<br>--- ----- -- ----,264307.3999999999,264305.6999999997,263688.582,263702.6999999997,263708.719,264312.777,,48,even
screen,html.Screen,2_1_0_1_49,2022-05-12T21:18:28.450Z,,,,,,,,,,,,,,,,,53,,,,,,,,,,,,,,430.72299999999814,,response,,,,99,,,,,,,Space,keypress(Space),,,,,,,,---- -- ----- -- ------ - ------- --- ----------<br>------------- ------ ------ ---- ---- ------- ----- -- ----<br>-------- ------- -- ---------- --- - --- ----- ----- ----<br>---- --- --- ----- --- ---- ---- ------- ----- ---- -------<br>--- --- -- ----- -- --- ---- -- --- ---- if ------ ------<br>--- ----- -- ----,264745.1000000001,264743.5,264292.641,264307.6999999997,264312.777,264755.694,,49,if
screen,html.Screen,2_1_0_1_50,2022-05-12T21:18:28.903Z,,,,,,,,,,,,,,,,,53,,,,,,,,,,,,,,441.40600000007544,,response,,,,99,,,,,,,Space,keypress(Space),,,,,,,,---- -- ----- -- ------ - ------- --- ----------<br>------------- ------ ------ ---- ---- ------- ----- -- ----<br>-------- ------- -- ---------- --- - --- ----- ----- ----<br>---- --- --- ----- --- ---- ---- ------- ----- ---- -------<br>--- --- -- ----- -- --- ---- -- --- ---- -- that's ------<br>--- ----- -- ----,265198.6999999997,265197.1000000001,264735.559,264745.5,264755.694,265218.841,,50,that's
screen,html.Screen,2_1_0_1_51,2022-05-12T21:18:29.381Z,,,,,,,,,,,,,,,,,53,,,,,,,,,,,,,,455.75900000007823,,response,,,,99,,,,,,,Space,keypress(Space),,,,,,,,---- -- ----- -- ------ - ------- --- ----------<br>------------- ------ ------ ---- ---- ------- ----- -- ----<br>-------- ------- -- ---------- --- - --- ----- ----- ----<br>---- --- --- ----- --- ---- ---- ------- ----- ---- -------<br>--- --- -- ----- -- --- ---- -- --- ---- -- ------ really<br>--- ----- -- ----,265676.2999999998,265674.6000000001,265198.706,265199,265218.841,265682.008,,51,really
screen,html.Screen,2_1_0_1_52,2022-05-12T21:18:29.858Z,,,,,,,,,,,,,,,,,53,,,,,,,,,,,,,,470.0920000001206,,response,,,,99,,,,,,,Space,keypress(Space),,,,,,,,---- -- ----- -- ------ - ------- --- ----------<br>------------- ------ ------ ---- ---- ------- ----- -- ----<br>-------- ------- -- ---------- --- - --- ----- ----- ----<br>---- --- --- ----- --- ---- ---- ------- ----- ---- -------<br>--- --- -- ----- -- --- ---- -- --- ---- -- ------ ------<br>not ----- -- ----,266153.8999999999,266152.1000000001,265661.872,265676.6000000001,265682.008,266165.368,,52,not
screen,html.Screen,2_1_0_1_53,2022-05-12T21:18:30.327Z,,,,,,,,,,,,,,,,,53,,,,,,,,,,,,,,455.63199999998324,,response,,,,99,,,,,,,Space,keypress(Space),,,,,,,,---- -- ----- -- ------ - ------- --- ----------<br>------------- ------ ------ ---- ---- ------- ----- -- ----<br>-------- ------- -- ---------- --- - --- ----- ----- ----<br>---- --- --- ----- --- ---- ---- ------- ----- ---- -------<br>--- --- -- ----- -- --- ---- -- --- ---- -- ------ ------<br>--- close -- ----,266622.6000000001,266621,266145.231,266154.2999999998,266165.368,266628.247,,53,close
screen,html.Screen,2_1_0_1_54,2022-05-12T21:18:30.757Z,,,,,,,,,,,,,,,,,53,,,,,,,,,,,,,,422.8530000001192,,response,,,,99,,,,,,,Space,keypress(Space),,,,,,,,---- -- ----- -- ------ - ------- --- ----------<br>------------- ------ ------ ---- ---- ------- ----- -- ----<br>-------- ------- -- ---------- --- - --- ----- ----- ----<br>---- --- --- ----- --- ---- ---- ------- ----- ---- -------<br>--- --- -- ----- -- --- ---- -- --- ---- -- ------ ------<br>--- ----- at ----,267052.8999999999,267051.1000000001,266608.114,266622.8999999999,266628.247,267071.384,,54,at
screen,html.Screen,2_1_0_1_55,2022-05-12T21:18:31.179Z,,,,,,,,,,,,,,,,,53,,,,,,,,,,,,,,401.3159999997006,,response,,,,99,,,,,,,Space,keypress(Space),,,,,,,,---- -- ----- -- ------ - ------- --- ----------<br>------------- ------ ------ ---- ---- ------- ----- -- ----<br>-------- ------- -- ---------- --- - --- ----- ----- ----<br>---- --- --- ----- --- ---- ---- ------- ----- ---- -------<br>--- --- -- ----- -- --- ---- -- --- ---- -- ------ ------<br>--- ----- -- all.,267474.2999999998,267472.6999999997,267051.248,267053.1999999997,267071.384,267494.266,,55,all.
Item 99,flow.Loop,2_1_0_1,2022-05-12T21:18:31.179Z,,,,,,,,,,,,,,,,,,,,,,,,,,,,,,,32538.829999999725,,completion,,,,,E,,,,,,,,,,,silence,,,,,267475,267472.6999999997,234913.733,234915.7999999998,234933.87,267494.266,,,
Question 1,html.Screen,2_1_0_2,2022-05-12T21:18:37.360Z,,,,,,,,,,,,,,,,,,,,,,,,,,,,true,FALSE,,6158.733999999997,,response,,,,99,E,,,,,,FALSE,click #choice-2,,,,silence,,,,,273655.5,273653,267474.13,267475.2999999998,267494.266,273656,,,
Question 2,html.Screen,2_1_0_3,2022-05-12T21:18:44.366Z,,,,,,,,,,,,,,,,,,,,,,,,,,,,true,TRUE,,7003.699999999721,,response,,,,99,E,,,,,,TRUE,click #choice-1,,,,silence,,,,,280661.7999999998,280659.6999999997,273635.865,273655.7999999998,273656,280663.332,,,
Item 99,flow.Sequence,2_1_0,2022-05-12T21:18:44.367Z,,,,,,,,,,,,,,,,,,,,,,,,,,,,,,,55720.878999999724,,completion,,,,,,,,,,,,,,,,,,,,,280662.2999999998,280659.6999999997,224918.691,224921.8999999999,224938.821,280663.332,,,
Holding screen,html.Screen,2_1_1_0,2022-05-12T21:18:54.357Z,,,,,,,,,,,,,,,,,,,,,,,,,,,,,,,10007.783999999985,,timeout,,,,,,,,,,,,,,,,,,,,,290653.1000000001,290650.981,280643.197,280662.6999999997,280663.332,290671.116,,,
screen,html.Screen,2_1_1_1_0,2022-05-12T21:18:57.192Z,,,,,,,,,,,,,,,,,54,,,,,,,,,,,,,,2814.88400000002,,response,,,,100,,,,,,,Space,keypress(Space),,,,,,,,At --- ---- --- ------ ----- ------- ---- -- --- ------- --<br>------- ---------- ------ -- ----- -- ----- -- ---- ------<br>--- ----- --- --- ------ -------- ----- --- ------ ----- --<br>----- ----- ---------- --- --- ------ ------ ---- -- ------<br>------- --- ------ ----- --- ---- ------- -- ---- --- --<br>------- ------,293487.7999999998,293486,290650.981,290653.5,290671.116,293490.544,,0,At
screen,html.Screen,2_1_1_1_1,2022-05-12T21:18:57.684Z,,,,,,,,,,,,,,,,,54,,,,,,,,,,,,,,487.35599999991246,,response,,,,100,,,,,,,Space,keypress(Space),,,,,,,,-- the ---- --- ------ ----- ------- ---- -- --- ------- --<br>------- ---------- ------ -- ----- -- ----- -- ---- ------<br>--- ----- --- --- ------ -------- ----- --- ------ ----- --<br>----- ----- ---------- --- --- ------ ------ ---- -- ------<br>------- --- ------ ----- --- ---- ------- -- ---- --- --<br>------- ------,293979.1999999997,293977.8999999999,293470.407,293488.1000000001,293490.544,293993.763,,1,the
screen,html.Screen,2_1_1_1_2,2022-05-12T21:18:58.138Z,,,,,,,,,,,,,,,,,54,,,,,,,,,,,,,,438.03699999983655,,response,,,,100,,,,,,,Space,keypress(Space),,,,,,,,-- --- time --- ------ ----- ------- ---- -- --- ------- --<br>------- ---------- ------ -- ----- -- ----- -- ---- ------<br>--- ----- --- --- ------ -------- ----- --- ------ ----- --<br>----- ----- ---------- --- --- ------ ------ ---- -- ------<br>------- --- ------ ----- --- ---- ------- -- ---- --- --<br>------- ------,294433.1999999997,294431.7999999998,293973.627,293979.6000000001,293993.763,294436.792,,2,time
screen,html.Screen,2_1_1_1_3,2022-05-12T21:18:58.575Z,,,,,,,,,,,,,,,,,54,,,,,,,,,,,,,,432.3080000000773,,response,,,,100,,,,,,,Space,keypress(Space),,,,,,,,-- --- ---- the ------ ----- ------- ---- -- --- ------- --<br>------- ---------- ------ -- ----- -- ----- -- ---- ------<br>--- ----- --- --- ------ -------- ----- --- ------ ----- --<br>----- ----- ---------- --- --- ------ ------ ---- -- ------<br>------- --- ------ ----- --- ---- ------- -- ---- --- --<br>------- ------,294870.5,294869.1000000001,294416.656,294433.6000000001,294436.792,294879.794,,3,the
screen,html.Screen,2_1_1_1_4,2022-05-12T21:18:59.013Z,,,,,,,,,,,,,,,,,54,,,,,,,,,,,,,,427.10599999991246,,response,,,,100,,,,,,,Space,keypress(Space),,,,,,,,-- --- ---- --- French ----- ------- ---- -- --- ------- --<br>------- ---------- ------ -- ----- -- ----- -- ---- ------<br>--- ----- --- --- ------ -------- ----- --- ------ ----- --<br>----- ----- ---------- --- --- ------ ------ ---- -- ------<br>------- --- ------ ----- --- ---- ------- -- ---- --- --<br>------- ------,295308.3999999999,295306.8999999999,294859.658,294870.7999999998,294879.794,295322.728,,4,French
screen,html.Screen,2_1_1_1_5,2022-05-12T21:18:59.506Z,,,,,,,,,,,,,,,,,54,,,,,,,,,,,,,,477.4719999997178,,response,,,,100,,,,,,,Space,keypress(Space),,,,,,,,-- --- ---- --- ------ crown ------- ---- -- --- ------- --<br>------- ---------- ------ -- ----- -- ----- -- ---- ------<br>--- ----- --- --- ------ -------- ----- --- ------ ----- --<br>----- ----- ---------- --- --- ------ ------ ---- -- ------<br>------- --- ------ ----- --- ---- ------- -- ---- --- --<br>------- ------,295801.6000000001,295800.1999999997,295302.593,295308.6999999997,295322.728,295806.123,,5,crown
screen,html.Screen,2_1_1_1_6,2022-05-12T21:18:59.960Z,,,,,,,,,,,,,,,,,54,,,,,,,,,,,,,,447.8769999999786,,response,,,,100,,,,,,,Space,keypress(Space),,,,,,,,-- --- ---- --- ------ ----- secured ---- -- --- ------- --<br>------- ---------- ------ -- ----- -- ----- -- ---- ------<br>--- ----- --- --- ------ -------- ----- --- ------ ----- --<br>----- ----- ---------- --- --- ------ ------ ---- -- ------<br>------- --- ------ ----- --- ---- ------- -- ---- --- --<br>------- ------,296255.3999999999,296254,295785.986,295802,295806.123,296269.21,,6,secured
screen,html.Screen,2_1_1_1_7,2022-05-12T21:19:00.493Z,,,,,,,,,,,,,,,,,54,,,,,,,,,,,,,,518.3900000000722,,response,,,,100,,,,,,,Space,keypress(Space),,,,,,,,-- --- ---- --- ------ ----- ------- much -- --- ------- --<br>------- ---------- ------ -- ----- -- ----- -- ---- ------<br>--- ----- --- --- ------ -------- ----- --- ------ ----- --<br>----- ----- ---------- --- --- ------ ------ ---- -- ------<br>------- --- ------ ----- --- ---- ------- -- ---- --- --<br>------- ------,296789,296787.6000000001,296249.074,296255.6999999997,296269.21,296792.5,,7,much
screen,html.Screen,2_1_1_1_8,2022-05-12T21:19:00.907Z,,,,,,,,,,,,,,,,,54,,,,,,,,,,,,,,408.5,,response,,,,100,,,,,,,Space,keypress(Space),,,,,,,,-- --- ---- --- ------ ----- ------- ---- of --- ------- --<br>------- ---------- ------ -- ----- -- ----- -- ---- ------<br>--- ----- --- --- ------ -------- ----- --- ------ ----- --<br>----- ----- ---------- --- --- ------ ------ ---- -- ------<br>------- --- ------ ----- --- ---- ------- -- ---- --- --<br>------- ------,297202.2999999998,297201,296772.368,296789.2999999998,296792.5,297215.683,,8,of
screen,html.Screen,2_1_1_1_9,2022-05-12T21:19:01.291Z,,,,,,,,,,,,,,,,,54,,,,,,,,,,,,,,366.41700000007404,,response,,,,100,,,,,,,Space,keypress(Space),,,,,,,,-- --- ---- --- ------ ----- ------- ---- -- its ------- --<br>------- ---------- ------ -- ----- -- ----- -- ---- ------<br>--- ----- --- --- ------ -------- ----- --- ------ ----- --<br>----- ----- ---------- --- --- ------ ------ ---- -- ------<br>------- --- ------ ----- --- ---- ------- -- ---- --- --<br>------- ------,297587.1000000001,297582.1000000001,297195.545,297202.6999999997,297215.683,297598.195,,9,its
screen,html.Screen,2_1_1_1_10,2022-05-12T21:19:01.886Z,,,,,,,,,,,,,,,,,54,,,,,,,,,,,,,,581.9050000000861,,response,,,,100,,,,,,,Space,keypress(Space),,,,,,,,-- --- ---- --- ------ ----- ------- ---- -- --- revenue --<br>------- ---------- ------ -- ----- -- ----- -- ---- ------<br>--- ----- --- --- ------ -------- ----- --- ------ ----- --<br>----- ----- ---------- --- --- ------ ------ ---- -- ------<br>------- --- ------ ----- --- ---- ------- -- ---- --- --<br>------- ------,298181.8999999999,298180.1000000001,297578.059,297587.5,297598.195,298202.289,,10,revenue
screen,html.Screen,2_1_1_1_11,2022-05-12T21:19:02.387Z,,,,,,,,,,,,,,,,,54,,,,,,,,,,,,,,479.1109999999171,,response,,,,100,,,,,,,Space,keypress(Space),,,,,,,,-- --- ---- --- ------ ----- ------- ---- -- --- ------- by<br>------- ---------- ------ -- ----- -- ----- -- ---- ------<br>--- ----- --- --- ------ -------- ----- --- ------ ----- --<br>----- ----- ---------- --- --- ------ ------ ---- -- ------<br>------- --- ------ ----- --- ---- ------- -- ---- --- --<br>------- ------,298683.1000000001,298681.3999999999,298182.153,298182.1999999997,298202.289,298685.569,,11,by
screen,html.Screen,2_1_1_1_12,2022-05-12T21:19:02.913Z,,,,,,,,,,,,,,,,,54,,,,,,,,,,,,,,521.5310000000754,,response,,,,100,,,,,,,Space,keypress(Space),,,,,,,,-- --- ---- --- ------ ----- ------- ---- -- --- ------- --<br>issuing ---------- ------ -- ----- -- ----- -- ---- ------<br>--- ----- --- --- ------ -------- ----- --- ------ ----- --<br>----- ----- ---------- --- --- ------ ------ ---- -- ------<br>------- --- ------ ----- --- ---- ------- -- ---- --- --<br>------- ------,299208.6999999997,299207.1000000001,298665.433,298683.3999999999,298685.569,299229.244,,12,issuing
screen,html.Screen,2_1_1_1_13,2022-05-12T21:19:03.439Z,,,,,,,,,,,,,,,,,54,,,,,,,,,,,,,,503.3560000000871,,response,,,,100,,,,,,,Space,keypress(Space),,,,,,,,-- --- ---- --- ------ ----- ------- ---- -- --- ------- --<br>------- government ------ -- ----- -- ----- -- ---- ------<br>--- ----- --- --- ------ -------- ----- --- ------ ----- --<br>----- ----- ---------- --- --- ------ ------ ---- -- ------<br>------- --- ------ ----- --- ---- ------- -- ---- --- --<br>------- ------,299734.1999999997,299732.6000000001,299209.108,299209,299229.244,299752.712,,13,government
screen,html.Screen,2_1_1_1_14,2022-05-12T21:19:04.715Z,,,,,,,,,,,,,,,,,54,,,,,,,,,,,,,,1256.487999999721,,response,,,,100,,,,,,,Space,keypress(Space),,,,,,,,-- --- ---- --- ------ ----- ------- ---- -- --- ------- --<br>------- ---------- bonds. -- ----- -- ----- -- ---- ------<br>--- ----- --- --- ------ -------- ----- --- ------ ----- --<br>----- ----- ---------- --- --- ------ ------ ---- -- ------<br>------- --- ------ ----- --- ---- ------- -- ---- --- --<br>------- ------,301010.7999999998,301009.1999999997,299732.577,299734.6000000001,299752.712,301021.382,,14,bonds.
screen,html.Screen,2_1_1_1_15,2022-05-12T21:19:05.257Z,,,,,,,,,,,,,,,,,54,,,,,,,,,,,,,,529.3179999997374,,response,,,,100,,,,,,,Space,keypress(Space),,,,,,,,-- --- ---- --- ------ ----- ------- ---- -- --- ------- --<br>------- ---------- ------ In ----- -- ----- -- ---- ------<br>--- ----- --- --- ------ -------- ----- --- ------ ----- --<br>----- ----- ---------- --- --- ------ ------ ---- -- ------<br>------- --- ------ ----- --- ---- ------- -- ---- --- --<br>------- ------,301552.1999999997,301550.6999999997,301001.246,301011,301021.382,301564.96,,15,In
screen,html.Screen,2_1_1_1_16,2022-05-12T21:19:06.358Z,,,,,,,,,,,,,,,,,54,,,,,,,,,,,,,,1086.6400000000722,,response,,,,100,,,,,,,Space,keypress(Space),,,,,,,,"-- --- ---- --- ------ ----- ------- ---- -- --- ------- --<br>------- ---------- ------ -- 1727, -- ----- -- ---- ------<br>--- ----- --- --- ------ -------- ----- --- ------ ----- --<br>----- ----- ---------- --- --- ------ ------ ---- -- ------<br>------- --- ------ ----- --- ---- ------- -- ---- --- --<br>------- ------",302653.5,302651.6000000001,301544.825,301552.5,301564.96,302672.549,,16,"1727,"
screen,html.Screen,2_1_1_1_17,2022-05-12T21:19:06.845Z,,,,,,,,,,,,,,,,,54,,,,,,,,,,,,,,464.25099999981467,,response,,,,100,,,,,,,Space,keypress(Space),,,,,,,,-- --- ---- --- ------ ----- ------- ---- -- --- ------- --<br>------- ---------- ------ -- ----- in ----- -- ---- ------<br>--- ----- --- --- ------ -------- ----- --- ------ ----- --<br>----- ----- ---------- --- --- ------ ------ ---- -- ------<br>------- --- ------ ----- --- ---- ------- -- ---- --- --<br>------- ------,303138.5,303136.7999999998,302652.413,302653.7999999998,302672.549,303155.627,,17,in
screen,html.Screen,2_1_1_1_18,2022-05-12T21:19:07.308Z,,,,,,,,,,,,,,,,,54,,,,,,,,,,,,,,443.8730000000214,,response,,,,100,,,,,,,Space,keypress(Space),,,,,,,,-- --- ---- --- ------ ----- ------- ---- -- --- ------- --<br>------- ---------- ------ -- ----- -- order -- ---- ------<br>--- ----- --- --- ------ -------- ----- --- ------ ----- --<br>----- ----- ---------- --- --- ------ ------ ---- -- ------<br>------- --- ------ ----- --- ---- ------- -- ---- --- --<br>------- ------,303601.2999999998,303599.5,303135.493,303138.7999999998,303155.627,303618.966,,18,order
screen,html.Screen,2_1_1_1_19,2022-05-12T21:19:07.720Z,,,,,,,,,,,,,,,,,54,,,,,,,,,,,,,,393.13400000007823,,response,,,,100,,,,,,,Space,keypress(Space),,,,,,,,-- --- ---- --- ------ ----- ------- ---- -- --- ------- --<br>------- ---------- ------ -- ----- -- ----- to ---- ------<br>--- ----- --- --- ------ -------- ----- --- ------ ----- --<br>----- ----- ---------- --- --- ------ ------ ---- -- ------<br>------- --- ------ ----- --- ---- ------- -- ---- --- --<br>------- ------,304014,304012.1000000001,303598.83,303601.6000000001,303618.966,304021.691,,19,to
screen,html.Screen,2_1_1_1_20,2022-05-12T21:19:08.134Z,,,,,,,,,,,,,,,,,54,,,,,,,,,,,,,,404.1089999998221,,response,,,,100,,,,,,,Space,keypress(Space),,,,,,,,-- --- ---- --- ------ ----- ------- ---- -- --- ------- --<br>------- ---------- ------ -- ----- -- ----- -- save ------<br>--- ----- --- --- ------ -------- ----- --- ------ ----- --<br>----- ----- ---------- --- --- ------ ------ ---- -- ------<br>------- --- ------ ----- --- ---- ------- -- ---- --- --<br>------- ------,304427.5,304425.7999999998,304001.555,304014.2999999998,304021.691,304444.562,,20,save
screen,html.Screen,2_1_1_1_21,2022-05-12T21:19:08.620Z,,,,,,,,,,,,,,,,,54,,,,,,,,,,,,,,466.8379999999306,,response,,,,100,,,,,,,Space,keypress(Space),,,,,,,,"-- --- ---- --- ------ ----- ------- ---- -- --- ------- --<br>------- ---------- ------ -- ----- -- ----- -- ---- money,<br>--- ----- --- --- ------ -------- ----- --- ------ ----- --<br>----- ----- ---------- --- --- ------ ------ ---- -- ------<br>------- --- ------ ----- --- ---- ------- -- ---- --- --<br>------- ------",304913.1999999997,304911.3999999999,304424.426,304427.8999999999,304444.562,304927.791,,21,"money,"
screen,html.Screen,2_1_1_1_22,2022-05-12T21:19:09.129Z,,,,,,,,,,,,,,,,,54,,,,,,,,,,,,,,493.1089999998803,,response,,,,100,,,,,,,Space,keypress(Space),,,,,,,,-- --- ---- --- ------ ----- ------- ---- -- --- ------- --<br>------- ---------- ------ -- ----- -- ----- -- ---- ------<br>the ----- --- --- ------ -------- ----- --- ------ ----- --<br>----- ----- ---------- --- --- ------ ------ ---- -- ------<br>------- --- ------ ----- --- ---- ------- -- ---- --- --<br>------- ------,305422.3999999999,305420.8999999999,304907.656,304913.6000000001,304927.791,305431.232,,22,the
screen,html.Screen,2_1_1_1_23,2022-05-12T21:19:09.598Z,,,,,,,,,,,,,,,,,54,,,,,,,,,,,,,,458.5679999997956,,response,,,,100,,,,,,,Space,keypress(Space),,,,,,,,-- --- ---- --- ------ ----- ------- ---- -- --- ------- --<br>------- ---------- ------ -- ----- -- ----- -- ---- ------<br>--- state --- --- ------ -------- ----- --- ------ ----- --<br>----- ----- ---------- --- --- ------ ------ ---- -- ------<br>------- --- ------ ----- --- ---- ------- -- ---- --- --<br>------- ------,305891.6999999997,305889.7999999998,305411.096,305422.7999999998,305431.232,305894.405,,23,state
screen,html.Screen,2_1_1_1_24,2022-05-12T21:19:10.076Z,,,,,,,,,,,,,,,,,54,,,,,,,,,,,,,,473.59499999997206,,response,,,,100,,,,,,,Space,keypress(Space),,,,,,,,-- --- ---- --- ------ ----- ------- ---- -- --- ------- --<br>------- ---------- ------ -- ----- -- ----- -- ---- ------<br>--- ----- cut --- ------ -------- ----- --- ------ ----- --<br>----- ----- ---------- --- --- ------ ------ ---- -- ------<br>------- --- ------ ----- --- ---- ------- -- ---- --- --<br>------- ------,306369.8999999999,306368,305874.269,305892.2999999998,305894.405,306377.482,,24,cut
screen,html.Screen,2_1_1_1_25,2022-05-12T21:19:10.513Z,,,,,,,,,,,,,,,,,54,,,,,,,,,,,,,,427.8179999997956,,response,,,,100,,,,,,,Space,keypress(Space),,,,,,,,-- --- ---- --- ------ ----- ------- ---- -- --- ------- --<br>------- ---------- ------ -- ----- -- ----- -- ---- ------<br>--- ----- --- the ------ -------- ----- --- ------ ----- --<br>----- ----- ---------- --- --- ------ ------ ---- -- ------<br>------- --- ------ ----- --- ---- ------- -- ---- --- --<br>------- ------,306807,306805.2999999998,306357.349,306370.1000000001,306377.482,306820.687,,25,the
screen,html.Screen,2_1_1_1_26,2022-05-12T21:19:11.063Z,,,,,,,,,,,,,,,,,54,,,,,,,,,,,,,,534.3130000000237,,response,,,,100,,,,,,,Space,keypress(Space),,,,,,,,-- --- ---- --- ------ ----- ------- ---- -- --- ------- --<br>------- ---------- ------ -- ----- -- ----- -- ---- ------<br>--- ----- --- --- bonds' -------- ----- --- ------ ----- --<br>----- ----- ---------- --- --- ------ ------ ---- -- ------<br>------- --- ------ ----- --- ---- ------- -- ---- --- --<br>------- ------,307356.6999999997,307355,306800.55,306807.1999999997,306820.687,307364.182,,26,bonds'
screen,html.Screen,2_1_1_1_27,2022-05-12T21:19:11.564Z,,,,,,,,,,,,,,,,,54,,,,,,,,,,,,,,492.11799999984214,,response,,,,100,,,,,,,Space,keypress(Space),,,,,,,,-- --- ---- --- ------ ----- ------- ---- -- --- ------- --<br>------- ---------- ------ -- ----- -- ----- -- ---- ------<br>--- ----- --- --- ------ interest ----- --- ------ ----- --<br>----- ----- ---------- --- --- ------ ------ ---- -- ------<br>------- --- ------ ----- --- ---- ------- -- ---- --- --<br>------- ------,307857.8999999999,307856.2999999998,307344.048,307357,307364.182,307867.883,,27,interest
screen,html.Screen,2_1_1_1_28,2022-05-12T21:19:12.010Z,,,,,,,,,,,,,,,,,54,,,,,,,,,,,,,,434.3169999997481,,response,,,,100,,,,,,,Space,keypress(Space),,,,,,,,-- --- ---- --- ------ ----- ------- ---- -- --- ------- --<br>------- ---------- ------ -- ----- -- ----- -- ---- ------<br>--- ----- --- --- ------ -------- rate. --- ------ ----- --<br>----- ----- ---------- --- --- ------ ------ ---- -- ------<br>------- --- ------ ----- --- ---- ------- -- ---- --- --<br>------- ------,308303.7999999998,308302.1999999997,307847.744,307858.2999999998,307867.883,308310.558,,28,rate.
screen,html.Screen,2_1_1_1_29,2022-05-12T21:19:12.503Z,,,,,,,,,,,,,,,,,54,,,,,,,,,,,,,,484.54200000007404,,response,,,,100,,,,,,,Space,keypress(Space),,,,,,,,-- --- ---- --- ------ ----- ------- ---- -- --- ------- --<br>------- ---------- ------ -- ----- -- ----- -- ---- ------<br>--- ----- --- --- ------ -------- ----- The ------ ----- --<br>----- ----- ---------- --- --- ------ ------ ---- -- ------<br>------- --- ------ ----- --- ---- ------- -- ---- --- --<br>------- ------,308796.6999999997,308795.1000000001,308290.425,308304.1000000001,308310.558,308814.166,,29,The
screen,html.Screen,2_1_1_1_30,2022-05-12T21:19:12.981Z,,,,,,,,,,,,,,,,,54,,,,,,,,,,,,,,458.9340000000666,,response,,,,100,,,,,,,Space,keypress(Space),,,,,,,,-- --- ---- --- ------ ----- ------- ---- -- --- ------- --<br>------- ---------- ------ -- ----- -- ----- -- ---- ------<br>--- ----- --- --- ------ -------- ----- --- market ----- --<br>----- ----- ---------- --- --- ------ ------ ---- -- ------<br>------- --- ------ ----- --- ---- ------- -- ---- --- --<br>------- ------,309274.6000000001,309273.1000000001,308794.028,308797,308814.166,309277.101,,30,market
screen,html.Screen,2_1_1_1_31,2022-05-12T21:19:13.427Z,,,,,,,,,,,,,,,,,54,,,,,,,,,,,,,,441.4990000000689,,response,,,,100,,,,,,,Space,keypress(Space),,,,,,,,-- --- ---- --- ------ ----- ------- ---- -- --- ------- --<br>------- ---------- ------ -- ----- -- ----- -- ---- ------<br>--- ----- --- --- ------ -------- ----- --- ------ value --<br>----- ----- ---------- --- --- ------ ------ ---- -- ------<br>------- --- ------ ----- --- ---- ------- -- ---- --- --<br>------- ------,309720.1999999997,309718.6000000001,309256.968,309274.8999999999,309277.101,309740.586,,31,value
screen,html.Screen,2_1_1_1_32,2022-05-12T21:19:13.880Z,,,,,,,,,,,,,,,,,54,,,,,,,,,,,,,,431.0140000000829,,response,,,,100,,,,,,,Space,keypress(Space),,,,,,,,-- --- ---- --- ------ ----- ------- ---- -- --- ------- --<br>------- ---------- ------ -- ----- -- ----- -- ---- ------<br>--- ----- --- --- ------ -------- ----- --- ------ ----- of<br>----- ----- ---------- --- --- ------ ------ ---- -- ------<br>------- --- ------ ----- --- ---- ------- -- ---- --- --<br>------- ------,310173.1000000001,310171.6000000001,309720.447,309720.6000000001,309740.586,310183.213,,32,of
screen,html.Screen,2_1_1_1_33,2022-05-12T21:19:14.309Z,,,,,,,,,,,,,,,,,54,,,,,,,,,,,,,,417.8870000001043,,response,,,,100,,,,,,,Space,keypress(Space),,,,,,,,-- --- ---- --- ------ ----- ------- ---- -- --- ------- --<br>------- ---------- ------ -- ----- -- ----- -- ---- ------<br>--- ----- --- --- ------ -------- ----- --- ------ ----- --<br>these ----- ---------- --- --- ------ ------ ---- -- ------<br>------- --- ------ ----- --- ---- ------- -- ---- --- --<br>------- ------,310602.7999999998,310601.1000000001,310163.081,310173.6000000001,310183.213,310606.377,,33,these
screen,html.Screen,2_1_1_1_34,2022-05-12T21:19:14.755Z,,,,,,,,,,,,,,,,,54,,,,,,,,,,,,,,440.42299999983516,,response,,,,100,,,,,,,Space,keypress(Space),,,,,,,,-- --- ---- --- ------ ----- ------- ---- -- --- ------- --<br>------- ---------- ------ -- ----- -- ----- -- ---- ------<br>--- ----- --- --- ------ -------- ----- --- ------ ----- --<br>----- bonds ---------- --- --- ------ ------ ---- -- ------<br>------- --- ------ ----- --- ---- ------- -- ---- --- --<br>------- ------,311048.3999999999,311046.7999999998,310586.239,310603.1000000001,310606.377,311069.258,,34,bonds
screen,html.Screen,2_1_1_1_35,2022-05-12T21:19:15.353Z,,,,,,,,,,,,,,,,,54,,,,,,,,,,,,,,575.2420000000275,,response,,,,100,,,,,,,Space,keypress(Space),,,,,,,,"-- --- ---- --- ------ ----- ------- ---- -- --- ------- --<br>------- ---------- ------ -- ----- -- ----- -- ---- ------<br>--- ----- --- --- ------ -------- ----- --- ------ ----- --<br>----- ----- plummeted, --- --- ------ ------ ---- -- ------<br>------- --- ------ ----- --- ---- ------- -- ---- --- --<br>------- ------",311646,311644.5,311049.125,311048.6999999997,311069.258,311653.354,,35,"plummeted,"
screen,html.Screen,2_1_1_1_36,2022-05-12T21:19:15.894Z,,,,,,,,,,,,,,,,,54,,,,,,,,,,,,,,532.8459999997285,,response,,,,100,,,,,,,Space,keypress(Space),,,,,,,,-- --- ---- --- ------ ----- ------- ---- -- --- ------- --<br>------- ---------- ------ -- ----- -- ----- -- ---- ------<br>--- ----- --- --- ------ -------- ----- --- ------ ----- --<br>----- ----- ---------- and --- ------ ------ ---- -- ------<br>------- --- ------ ----- --- ---- ------- -- ---- --- --<br>------- ------,312187.7999999998,312186.1999999997,311633.218,311646.3999999999,311653.354,312196.977,,36,and
screen,html.Screen,2_1_1_1_37,2022-05-12T21:19:16.332Z,,,,,,,,,,,,,,,,,54,,,,,,,,,,,,,,426.5229999999865,,response,,,,100,,,,,,,Space,keypress(Space),,,,,,,,-- --- ---- --- ------ ----- ------- ---- -- --- ------- --<br>------- ---------- ------ -- ----- -- ----- -- ---- ------<br>--- ----- --- --- ------ -------- ----- --- ------ ----- --<br>----- ----- ---------- --- the ------ ------ ---- -- ------<br>------- --- ------ ----- --- ---- ------- -- ---- --- --<br>------- ------,312625.1000000001,312623.5,312176.842,312188.1000000001,312196.977,312640.018,,37,the
screen,html.Screen,2_1_1_1_38,2022-05-12T21:19:16.737Z,,,,,,,,,,,,,,,,,54,,,,,,,,,,,,,,389.2819999998319,,response,,,,100,,,,,,,Space,keypress(Space),,,,,,,,-- --- ---- --- ------ ----- ------- ---- -- --- ------- --<br>------- ---------- ------ -- ----- -- ----- -- ---- ------<br>--- ----- --- --- ------ -------- ----- --- ------ ----- --<br>----- ----- ---------- --- --- market ------ ---- -- ------<br>------- --- ------ ----- --- ---- ------- -- ---- --- --<br>------- ------,313030.7999999998,313029.2999999998,312619.882,312625.3999999999,312640.018,313042.911,,38,market
screen,html.Screen,2_1_1_1_39,2022-05-12T21:19:17.175Z,,,,,,,,,,,,,,,,,54,,,,,,,,,,,,,,423.5889999999781,,response,,,,100,,,,,,,Space,keypress(Space),,,,,,,,-- --- ---- --- ------ ----- ------- ---- -- --- ------- --<br>------- ---------- ------ -- ----- -- ----- -- ---- ------<br>--- ----- --- --- ------ -------- ----- --- ------ ----- --<br>----- ----- ---------- --- --- ------ became ---- -- ------<br>------- --- ------ ----- --- ---- ------- -- ---- --- --<br>------- ------,313468.1999999997,313466.5,313022.773,313031.1000000001,313042.911,313485.782,,39,became
screen,html.Screen,2_1_1_1_40,2022-05-12T21:19:17.638Z,,,,,,,,,,,,,,,,,54,,,,,,,,,,,,,,444.0179999998072,,response,,,,100,,,,,,,Space,keypress(Space),,,,,,,,-- --- ---- --- ------ ----- ------- ---- -- --- ------- --<br>------- ---------- ------ -- ----- -- ----- -- ---- ------<br>--- ----- --- --- ------ -------- ----- --- ------ ----- --<br>----- ----- ---------- --- --- ------ ------ wary -- ------<br>------- --- ------ ----- --- ---- ------- -- ---- --- --<br>------- ------,313931.3999999999,313929.7999999998,313465.647,313468.5,313485.782,313948.973,,40,wary
screen,html.Screen,2_1_1_1_41,2022-05-12T21:19:18.058Z,,,,,,,,,,,,,,,,,54,,,,,,,,,,,,,,400.92699999990873,,response,,,,100,,,,,,,Space,keypress(Space),,,,,,,,-- --- ---- --- ------ ----- ------- ---- -- --- ------- --<br>------- ---------- ------ -- ----- -- ----- -- ---- ------<br>--- ----- --- --- ------ -------- ----- --- ------ ----- --<br>----- ----- ---------- --- --- ------ ------ ---- of ------<br>------- --- ------ ----- --- ---- ------- -- ---- --- --<br>------- ------,314351.5,314349.8999999999,313928.837,313931.6999999997,313948.973,314371.765,,41,of
screen,html.Screen,2_1_1_1_42,2022-05-12T21:19:18.583Z,,,,,,,,,,,,,,,,,54,,,,,,,,,,,,,,503.03499999979977,,response,,,,100,,,,,,,Space,keypress(Space),,,,,,,,-- --- ---- --- ------ ----- ------- ---- -- --- ------- --<br>------- ---------- ------ -- ----- -- ----- -- ---- ------<br>--- ----- --- --- ------ -------- ----- --- ------ ----- --<br>----- ----- ---------- --- --- ------ ------ ---- -- French<br>------- --- ------ ----- --- ---- ------- -- ---- --- --<br>------- ------,314876.6999999997,314874.7999999998,314351.63,314351.7999999998,314371.765,314895.176,,42,French
screen,html.Screen,2_1_1_1_43,2022-05-12T21:19:19.357Z,,,,,,,,,,,,,,,,,54,,,,,,,,,,,,,,753.3240000000224,,response,,,,100,,,,,,,Space,keypress(Space),,,,,,,,-- --- ---- --- ------ ----- ------- ---- -- --- ------- --<br>------- ---------- ------ -- ----- -- ----- -- ---- ------<br>--- ----- --- --- ------ -------- ----- --- ------ ----- --<br>----- ----- ---------- --- --- ------ ------ ---- -- ------<br>credit. --- ------ ----- --- ---- ------- -- ---- --- --<br>------- ------,315650.1999999997,315648.5,314875.043,314877.1000000001,314895.176,315660.643,,43,credit.
screen,html.Screen,2_1_1_1_44,2022-05-12T21:19:19.834Z,,,,,,,,,,,,,,,,,54,,,,,,,,,,,,,,465.4570000001113,,response,,,,100,,,,,,,Space,keypress(Space),,,,,,,,-- --- ---- --- ------ ----- ------- ---- -- --- ------- --<br>------- ---------- ------ -- ----- -- ----- -- ---- ------<br>--- ----- --- --- ------ -------- ----- --- ------ ----- --<br>----- ----- ---------- --- --- ------ ------ ---- -- ------<br>------- The ------ ----- --- ---- ------- -- ---- --- --<br>------- ------,316127.6999999997,316126.1000000001,315640.505,315650.6000000001,315660.643,316143.812,,44,The
screen,html.Screen,2_1_1_1_45,2022-05-12T21:19:20.336Z,,,,,,,,,,,,,,,,,54,,,,,,,,,,,,,,483.88799999974435,,response,,,,100,,,,,,,Space,keypress(Space),,,,,,,,-- --- ---- --- ------ ----- ------- ---- -- --- ------- --<br>------- ---------- ------ -- ----- -- ----- -- ---- ------<br>--- ----- --- --- ------ -------- ----- --- ------ ----- --<br>----- ----- ---------- --- --- ------ ------ ---- -- ------<br>------- --- French ----- --- ---- ------- -- ---- --- --<br>------- ------,316629.1999999997,316627.6999999997,316123.676,316128.1000000001,316143.812,316647.175,,45,French
screen,html.Screen,2_1_1_1_46,2022-05-12T21:19:20.797Z,,,,,,,,,,,,,,,,,54,,,,,,,,,,,,,,441.9250000001048,,response,,,,100,,,,,,,Space,keypress(Space),,,,,,,,-- --- ---- --- ------ ----- ------- ---- -- --- ------- --<br>------- ---------- ------ -- ----- -- ----- -- ---- ------<br>--- ----- --- --- ------ -------- ----- --- ------ ----- --<br>----- ----- ---------- --- --- ------ ------ ---- -- ------<br>------- --- ------ state --- ---- ------- -- ---- --- --<br>------- ------,317090.7999999998,317089.1000000001,316627.04,316629.6000000001,316647.175,317110.375,,46,state
screen,html.Screen,2_1_1_1_47,2022-05-12T21:19:21.203Z,,,,,,,,,,,,,,,,,54,,,,,,,,,,,,,,384.125,,response,,,,100,,,,,,,Space,keypress(Space),,,,,,,,-- --- ---- --- ------ ----- ------- ---- -- --- ------- --<br>------- ---------- ------ -- ----- -- ----- -- ---- ------<br>--- ----- --- --- ------ -------- ----- --- ------ ----- --<br>----- ----- ---------- --- --- ------ ------ ---- -- ------<br>------- --- ------ ----- was ---- ------- -- ---- --- --<br>------- ------,317496.2999999998,317494.5,317090.239,317091.1999999997,317110.375,317513.035,,47,was
screen,html.Screen,2_1_1_1_48,2022-05-12T21:19:21.640Z,,,,,,,,,,,,,,,,,54,,,,,,,,,,,,,,419.26499999983935,,response,,,,100,,,,,,,Space,keypress(Space),,,,,,,,-- --- ---- --- ------ ----- ------- ---- -- --- ------- --<br>------- ---------- ------ -- ----- -- ----- -- ---- ------<br>--- ----- --- --- ------ -------- ----- --- ------ ----- --<br>----- ----- ---------- --- --- ------ ------ ---- -- ------<br>------- --- ------ ----- --- left ------- -- ---- --- --<br>------- ------,317933.8999999999,317932.2999999998,317492.9,317496.6999999997,317513.035,317935.887,,48,left
screen,html.Screen,2_1_1_1_49,2022-05-12T21:19:22.085Z,,,,,,,,,,,,,,,,,54,,,,,,,,,,,,,,441.3129999997327,,response,,,,100,,,,,,,Space,keypress(Space),,,,,,,,-- --- ---- --- ------ ----- ------- ---- -- --- ------- --<br>------- ---------- ------ -- ----- -- ----- -- ---- ------<br>--- ----- --- --- ------ -------- ----- --- ------ ----- --<br>----- ----- ---------- --- --- ------ ------ ---- -- ------<br>------- --- ------ ----- --- ---- without -- ---- --- --<br>------- ------,318378.5,318377.1999999997,317915.752,317934.1999999997,317935.887,318399.053,,49,without
screen,html.Screen,2_1_1_1_50,2022-05-12T21:19:22.507Z,,,,,,,,,,,,,,,,,54,,,,,,,,,,,,,,400.2469999997993,,response,,,,100,,,,,,,Space,keypress(Space),,,,,,,,-- --- ---- --- ------ ----- ------- ---- -- --- ------- --<br>------- ---------- ------ -- ----- -- ----- -- ---- ------<br>--- ----- --- --- ------ -------- ----- --- ------ ----- --<br>----- ----- ---------- --- --- ------ ------ ---- -- ------<br>------- --- ------ ----- --- ---- ------- an ---- --- --<br>------- ------,318800.8999999999,318799.2999999998,318378.917,318378.7999999998,318399.053,318821.907,,50,an
screen,html.Screen,2_1_1_1_51,2022-05-12T21:19:22.929Z,,,,,,,,,,,,,,,,,54,,,,,,,,,,,,,,399.0929999999935,,response,,,,100,,,,,,,Space,keypress(Space),,,,,,,,-- --- ---- --- ------ ----- ------- ---- -- --- ------- --<br>------- ---------- ------ -- ----- -- ----- -- ---- ------<br>--- ----- --- --- ------ -------- ----- --- ------ ----- --<br>----- ----- ---------- --- --- ------ ------ ---- -- ------<br>------- --- ------ ----- --- ---- ------- -- easy --- --<br>------- ------,319222.6999999997,319221,318801.771,318801.1000000001,318821.907,319224.624,,51,easy
screen,html.Screen,2_1_1_1_52,2022-05-12T21:19:23.365Z,,,,,,,,,,,,,,,,,54,,,,,,,,,,,,,,432.8759999999893,,response,,,,100,,,,,,,Space,keypress(Space),,,,,,,,-- --- ---- --- ------ ----- ------- ---- -- --- ------- --<br>------- ---------- ------ -- ----- -- ----- -- ---- ------<br>--- ----- --- --- ------ -------- ----- --- ------ ----- --<br>----- ----- ---------- --- --- ------ ------ ---- -- ------<br>------- --- ------ ----- --- ---- ------- -- ---- way --<br>------- ------,319658.1999999997,319657.5,319204.489,319223.2999999998,319224.624,319667.485,,52,way
screen,html.Screen,2_1_1_1_53,2022-05-12T21:19:23.780Z,,,,,,,,,,,,,,,,,54,,,,,,,,,,,,,,404.6150000001071,,response,,,,100,,,,,,,Space,keypress(Space),,,,,,,,-- --- ---- --- ------ ----- ------- ---- -- --- ------- --<br>------- ---------- ------ -- ----- -- ----- -- ---- ------<br>--- ----- --- --- ------ -------- ----- --- ------ ----- --<br>----- ----- ---------- --- --- ------ ------ ---- -- ------<br>------- --- ------ ----- --- ---- ------- -- ---- --- of<br>------- ------,320073.6000000001,320072.1000000001,319647.352,319658.3999999999,319667.485,320090.624,,53,of
screen,html.Screen,2_1_1_1_54,2022-05-12T21:19:24.274Z,,,,,,,,,,,,,,,,,54,,,,,,,,,,,,,,474.9760000000824,,response,,,,100,,,,,,,Space,keypress(Space),,,,,,,,-- --- ---- --- ------ ----- ------- ---- -- --- ------- --<br>------- ---------- ------ -- ----- -- ----- -- ---- ------<br>--- ----- --- --- ------ -------- ----- --- ------ ----- --<br>----- ----- ---------- --- --- ------ ------ ---- -- ------<br>------- --- ------ ----- --- ---- ------- -- ---- --- --<br>raising ------,320567.2999999998,320565.6000000001,320070.485,320074,320090.624,320573.62,,54,raising
screen,html.Screen,2_1_1_1_55,2022-05-12T21:19:25.934Z,,,,,,,,,,,,,,,,,54,,,,,,,,,,,,,,1652.2799999999115,,response,,,,100,,,,,,,Space,keypress(Space),,,,,,,,-- --- ---- --- ------ ----- ------- ---- -- --- ------- --<br>------- ---------- ------ -- ----- -- ----- -- ---- ------<br>--- ----- --- --- ------ -------- ----- --- ------ ----- --<br>----- ----- ---------- --- --- ------ ------ ---- -- ------<br>------- --- ------ ----- --- ---- ------- -- ---- --- --<br>------- money.,322227.6999999997,322225.8999999999,320553.487,320567.6000000001,320573.62,322245.442,,55,money.
Item 100,flow.Loop,2_1_1_1,2022-05-12T21:19:25.935Z,,,,,,,,,,,,,,,,,,,,,,,,,,,,,,,31554.783999999927,,completion,,,,,E,,,,,,,,,,,silence,,,,,322228.1999999997,322225.8999999999,290650.981,290653.3999999999,290671.116,322245.442,,,
Question 1,html.Screen,2_1_1_2,2022-05-12T21:19:30.575Z,,,,,,,,,,,,,,,,,,,,,,,,,,,,true,TRUE,,4620.75799999974,,response,,,,100,E,,,,,,TRUE,click #choice-1,,,,silence,,,,,326868.2999999998,326866.1999999997,322225.302,322228.3999999999,322245.442,326876.38,,,
Question 2,html.Screen,2_1_1_3,2022-05-12T21:19:38.456Z,,,,,,,,,,,,,,,,,,,,,,,,,,,,true,FALSE,,7870.7200000000885,,response,,,,100,E,,,,,,FALSE,click #choice-2,,,,silence,,,,,334749.1000000001,334747.1000000001,326856.245,326868.6000000001,326876.38,334749.853,,,
Item 100,flow.Sequence,2_1_1,2022-05-12T21:19:38.456Z,,,,,,,,,,,,,,,,,,,,,,,,,,,,,,,54083.7680000001,,completion,,,,,,,,,,,,,,,,,,,,,334749.6000000001,334747.1000000001,280643.197,280662.6000000001,280663.332,334749.853,,,
End of Practice,html.Page,2_1_2,2022-05-12T21:19:48.282Z,,,,,,,,,,,,,,,,,,,,,,,,,,,,,,,9824.646999999997,,form submission,,,,,,,,,,,,,,,,,,,,,344575.2999999998,344574.5,334729.716,334749.8999999999,334749.853,344576.036,,,
Practice,flow.Sequence,2_1,2022-05-12T21:19:48.283Z,,,,,,,,,,,,,,,,,,,,,,,,,,,,,,,119635.679,,completion,,,,,,,,,,,,,,,,,,,,,344576.1000000001,344574.5,224918.691,224921.69999999972,224938.821,344576.036,,,
Trap_instruction,html.Page,2_2_0,2022-05-12T21:19:57.537Z,,,,,,,,,,,,,,,,,,,,,,,,,,,,,,,9254.363999999885,,form submission,,,,,,,,,,,,,,,,,,,,,353830.8999999999,353830.3999999999,344555.901,344576.7999999998,344576.036,353899.685,,,
trap_trial,html.Screen,2_2_1,2022-05-12T21:20:03.929Z,,,,,,,,,,,,,,,,,,,,,,,,,,,,true,1,,6320.514999999723,,response,,,,,,,,,,,1,click #choice-1,,,,,,,,,360222.6999999997,360220.1999999997,353819.129,353831.1999999997,353899.685,360262.2,,,
end of trap trial,html.Page,2_2_2,2022-05-12T21:20:06.830Z,,,,,,,,,,,,,,,,,,,,,,,,,,,,,,,2861.2999999999884,,form submission,,,,,,,,,,,,,,,,,,,,,363124,363123.5,360201.594,360223,360262.2,363121.982,,,
Trap 1,flow.Sequence,2_2,2022-05-12T21:20:06.831Z,,,,,,,,,,,,,,,,,,,,,,,,,,,,,,,18547.463999999978,,completion,,,,,,,,,,,,,,,,,,,,,363124.6999999997,363123.5,344555.901,344576.5,344576.036,363121.982,,,
Standby,html.Page,2_3_0,2022-05-12T21:20:14.805Z,,,,,,,,,,,,,,,,,,,,,,,,,,,,,,,7993.5320000000065,,timeout,,,,,,,,,,,,,,,,,,,,,371096.7999999998,371095.379,363101.846,363125.1000000001,363121.982,371115.514,,,
Holding screen,html.Screen,2_3_1_0_0,2022-05-12T21:20:21.813Z,,,,,,,,,,,,,,,,,,,,,,,,,,,,,,,7008.031999999948,,timeout,,,,,,,,,,,,,,,,,,,,,378104.6999999997,378103.41,371095.379,371097.3999999999,371115.514,378123.546,,,
screen,html.Screen,2_3_1_0_1_0,2022-05-12T21:20:24.621Z,,,,,,,,,,,,,,,,,40,,,,,,,,,,,,,,2787.2539999998407,,response,,,,9,E,,,,,,Space,keypress(Space),,,,silence,,,,Police -- ------- ---- ---- ---- - -------- ----- --- --<br>----- ----- ------ -- ---- -- --- - ---- -- - ----- -----<br>------ ---- ------ ---- - -------- ------- -- --- --------<br>-------- ----------- ---- ------ ---- ------ ---- --- ---<br>-------- --- -----,380912.5,380910.7999999998,378103.41,378105.1999999997,378123.546,380922.25,,0,Police
screen,html.Screen,2_3_1_0_1_1,2022-05-12T21:20:25.248Z,,,,,,,,,,,,,,,,,40,,,,,,,,,,,,,,616.3500000000931,,response,,,,9,E,,,,,,Space,keypress(Space),,,,silence,,,,------ in ------- ---- ---- ---- - -------- ----- --- --<br>----- ----- ------ -- ---- -- --- - ---- -- - ----- -----<br>------ ---- ------ ---- - -------- ------- -- --- --------<br>-------- ----------- ---- ------ ---- ------ ---- --- ---<br>-------- --- -----,381540.1000000001,381538.6000000001,380902.115,380912.8999999999,380922.25,381546.898,,1,in
screen,html.Screen,2_3_1_0_1_2,2022-05-12T21:20:25.845Z,,,,,,,,,,,,,,,,,40,,,,,,,,,,,,,,588.7020000001066,,response,,,,9,E,,,,,,Space,keypress(Space),,,,silence,,,,------ -- Georgia ---- ---- ---- - -------- ----- --- --<br>----- ----- ------ -- ---- -- --- - ---- -- - ----- -----<br>------ ---- ------ ---- - -------- ------- -- --- --------<br>-------- ----------- ---- ------ ---- ------ ---- --- ---<br>-------- --- -----,382137.1000000001,382135.6000000001,381526.761,381540.3999999999,381546.898,382150.749,,2,Georgia
screen,html.Screen,2_3_1_0_1_3,2022-05-12T21:20:26.299Z,,,,,,,,,,,,,,,,,40,,,,,,,,,,,,,,438.9509999997099,,response,,,,9,E,,,,,,Space,keypress(Space),,,,silence,,,,------ -- ------- have ---- ---- - -------- ----- --- --<br>----- ----- ------ -- ---- -- --- - ---- -- - ----- -----<br>------ ---- ------ ---- - -------- ------- -- --- --------<br>-------- ----------- ---- ------ ---- ------ ---- --- ---<br>-------- --- -----,382591.2999999998,382589.6999999997,382130.614,382137.5,382150.749,382593.829,,3,have
screen,html.Screen,2_3_1_0_1_4,2022-05-12T21:20:26.761Z,,,,,,,,,,,,,,,,,40,,,,,,,,,,,,,,457.3709999996936,,response,,,,9,E,,,,,,Space,keypress(Space),,,,silence,,,,------ -- ------- ---- shut ---- - -------- ----- --- --<br>----- ----- ------ -- ---- -- --- - ---- -- - ----- -----<br>------ ---- ------ ---- - -------- ------- -- --- --------<br>-------- ----------- ---- ------ ---- ------ ---- --- ---<br>-------- --- -----,383052.6999999997,383051.1999999997,382573.693,382591.6000000001,382593.829,383057.038,,4,shut
screen,html.Screen,2_3_1_0_1_5,2022-05-12T21:20:27.198Z,,,,,,,,,,,,,,,,,40,,,,,,,,,,,,,,431.76199999981327,,response,,,,9,E,,,,,,Space,keypress(Space),,,,silence,,,,------ -- ------- ---- ---- down - -------- ----- --- --<br>----- ----- ------ -- ---- -- --- - ---- -- - ----- -----<br>------ ---- ------ ---- - -------- ------- -- --- --------<br>-------- ----------- ---- ------ ---- ------ ---- --- ---<br>-------- --- -----,383490.2999999998,383488.7999999998,383036.901,383053.1000000001,383057.038,383499.877,,5,down
screen,html.Screen,2_3_1_0_1_6,2022-05-12T21:20:27.748Z,,,,,,,,,,,,,,,,,40,,,,,,,,,,,,,,538.322999999742,,response,,,,9,E,,,,,,Space,keypress(Space),,,,silence,,,,------ -- ------- ---- ---- ---- a -------- ----- --- --<br>----- ----- ------ -- ---- -- --- - ---- -- - ----- -----<br>------ ---- ------ ---- - -------- ------- -- --- --------<br>-------- ----------- ---- ------ ---- ------ ---- --- ---<br>-------- --- -----,384039.6999999997,384038.1999999997,383479.743,383490.6000000001,383499.877,384043.704,,6,a
screen,html.Screen,2_3_1_0_1_7,2022-05-12T21:20:28.233Z,,,,,,,,,,,,,,,,,40,,,,,,,,,,,,,,480.0959999997867,,response,,,,9,E,,,,,,Space,keypress(Space),,,,silence,,,,------ -- ------- ---- ---- ---- - lemonade ----- --- --<br>----- ----- ------ -- ---- -- --- - ---- -- - ----- -----<br>------ ---- ------ ---- - -------- ------- -- --- --------<br>-------- ----------- ---- ------ ---- ------ ---- --- ---<br>-------- --- -----,384525.3999999999,384523.7999999998,384023.567,384040,384043.704,384526.941,,7,lemonade
screen,html.Screen,2_3_1_0_1_8,2022-05-12T21:20:28.703Z,,,,,,,,,,,,,,,,,40,,,,,,,,,,,,,,466.3589999998221,,response,,,,9,E,,,,,,Space,keypress(Space),,,,silence,,,,------ -- ------- ---- ---- ---- - -------- stand --- --<br>----- ----- ------ -- ---- -- --- - ---- -- - ----- -----<br>------ ---- ------ ---- - -------- ------- -- --- --------<br>-------- ----------- ---- ------ ---- ------ ---- --- ---<br>-------- --- -----,384994.7999999998,384993.2999999998,384506.805,384525.6000000001,384526.941,385010.218,,8,stand
screen,html.Screen,2_3_1_0_1_9,2022-05-12T21:20:29.164Z,,,,,,,,,,,,,,,,,40,,,,,,,,,,,,,,444.38200000009965,,response,,,,9,E,,,,,,Space,keypress(Space),,,,silence,,,,------ -- ------- ---- ---- ---- - -------- ----- run --<br>----- ----- ------ -- ---- -- --- - ---- -- - ----- -----<br>------ ---- ------ ---- - -------- ------- -- --- --------<br>-------- ----------- ---- ------ ---- ------ ---- --- ---<br>-------- --- -----,385456.2999999998,385454.6000000001,384990.082,384995,385010.218,385473.268,,9,run
screen,html.Screen,2_3_1_0_1_10,2022-05-12T21:20:29.562Z,,,,,,,,,,,,,,,,,40,,,,,,,,,,,,,,379.0319999998319,,response,,,,9,E,,,,,,Space,keypress(Space),,,,silence,,,,------ -- ------- ---- ---- ---- - -------- ----- --- by<br>----- ----- ------ -- ---- -- --- - ---- -- - ----- -----<br>------ ---- ------ ---- - -------- ------- -- --- --------<br>-------- ----------- ---- ------ ---- ------ ---- --- ---<br>-------- --- -----,385854.3999999999,385852.2999999998,385453.133,385456.6000000001,385473.268,385856.048,,10,by
screen,html.Screen,2_3_1_0_1_11,2022-05-12T21:20:30.016Z,,,,,,,,,,,,,,,,,40,,,,,,,,,,,,,,449.75199999980396,,response,,,,9,E,,,,,,Space,keypress(Space),,,,silence,,,,------ -- ------- ---- ---- ---- - -------- ----- --- --<br>three ----- ------ -- ---- -- --- - ---- -- - ----- -----<br>------ ---- ------ ---- - -------- ------- -- --- --------<br>-------- ----------- ---- ------ ---- ------ ---- --- ---<br>-------- --- -----,386307.6000000001,386305.7999999998,385835.91,385854.6999999997,385856.048,386318.878,,11,three
screen,html.Screen,2_3_1_0_1_12,2022-05-12T21:20:30.477Z,,,,,,,,,,,,,,,,,40,,,,,,,,,,,,,,448.5219999998808,,response,,,,9,E,,,,,,Space,keypress(Space),,,,silence,,,,------ -- ------- ---- ---- ---- - -------- ----- --- --<br>----- girls ------ -- ---- -- --- - ---- -- - ----- -----<br>------ ---- ------ ---- - -------- ------- -- --- --------<br>-------- ----------- ---- ------ ---- ------ ---- --- ---<br>-------- --- -----,386769.2999999998,386767.3999999999,386298.746,386307.8999999999,386318.878,386782.311,,12,girls
screen,html.Screen,2_3_1_0_1_13,2022-05-12T21:20:30.915Z,,,,,,,,,,,,,,,,,40,,,,,,,,,,,,,,422.4889999998268,,response,,,,9,E,,,,,,Space,keypress(Space),,,,silence,,,,------ -- ------- ---- ---- ---- - -------- ----- --- --<br>----- ----- trying -- ---- -- --- - ---- -- - ----- -----<br>------ ---- ------ ---- - -------- ------- -- --- --------<br>-------- ----------- ---- ------ ---- ------ ---- --- ---<br>-------- --- -----,387206.5,387204.7999999998,386762.173,386769.6000000001,386782.311,387225.283,,13,trying
screen,html.Screen,2_3_1_0_1_14,2022-05-12T21:20:31.352Z,,,,,,,,,,,,,,,,,40,,,,,,,,,,,,,,416.9169999997248,,response,,,,9,E,,,,,,Space,keypress(Space),,,,silence,,,,------ -- ------- ---- ---- ---- - -------- ----- --- --<br>----- ----- ------ to ---- -- --- - ---- -- - ----- -----<br>------ ---- ------ ---- - -------- ------- -- --- --------<br>-------- ----------- ---- ------ ---- ------ ---- --- ---<br>-------- --- -----,387643.7999999998,387642.1999999997,387205.146,387206.8999999999,387225.283,387648.029,,14,to
screen,html.Screen,2_3_1_0_1_15,2022-05-12T21:20:31.758Z,,,,,,,,,,,,,,,,,40,,,,,,,,,,,,,,399.8709999999264,,response,,,,9,E,,,,,,Space,keypress(Space),,,,silence,,,,------ -- ------- ---- ---- ---- - -------- ----- --- --<br>----- ----- ------ -- save -- --- - ---- -- - ----- -----<br>------ ---- ------ ---- - -------- ------- -- --- --------<br>-------- ----------- ---- ------ ---- ------ ---- --- ---<br>-------- --- -----,388049.5,388047.8999999999,387627.894,387644.1000000001,387648.029,388050.813,,15,save
screen,html.Screen,2_3_1_0_1_16,2022-05-12T21:20:32.179Z,,,,,,,,,,,,,,,,,40,,,,,,,,,,,,,,418.68699999997625,,response,,,,9,E,,,,,,Space,keypress(Space),,,,silence,,,,------ -- ------- ---- ---- ---- - -------- ----- --- --<br>----- ----- ------ -- ---- up --- - ---- -- - ----- -----<br>------ ---- ------ ---- - -------- ------- -- --- --------<br>-------- ----------- ---- ------ ---- ------ ---- --- ---<br>-------- --- -----,388471.1000000001,388469.5,388030.677,388049.8999999999,388050.813,388473.733,,16,up
screen,html.Screen,2_3_1_0_1_17,2022-05-12T21:20:32.569Z,,,,,,,,,,,,,,,,,40,,,,,,,,,,,,,,385.6669999998994,,response,,,,9,E,,,,,,Space,keypress(Space),,,,silence,,,,------ -- ------- ---- ---- ---- - -------- ----- --- --<br>----- ----- ------ -- ---- -- for - ---- -- - ----- -----<br>------ ---- ------ ---- - -------- ------- -- --- --------<br>-------- ----------- ---- ------ ---- ------ ---- --- ---<br>-------- --- -----,388860.8999999999,388859.3999999999,388453.596,388471.3999999999,388473.733,388876.22,,17,for
screen,html.Screen,2_3_1_0_1_18,2022-05-12T21:20:32.966Z,,,,,,,,,,,,,,,,,40,,,,,,,,,,,,,,380.3800000001211,,response,,,,9,E,,,,,,Space,keypress(Space),,,,silence,,,,------ -- ------- ---- ---- ---- - -------- ----- --- --<br>----- ----- ------ -- ---- -- --- a ---- -- - ----- -----<br>------ ---- ------ ---- - -------- ------- -- --- --------<br>-------- ----------- ---- ------ ---- ------ ---- --- ---<br>-------- --- -----,389258.2999999998,389256.6000000001,388856.088,388861.2999999998,388876.22,389279.217,,18,a
screen,html.Screen,2_3_1_0_1_19,2022-05-12T21:20:33.396Z,,,,,,,,,,,,,,,,,40,,,,,,,,,,,,,,407.4829999997164,,response,,,,9,E,,,,,,Space,keypress(Space),,,,silence,,,,------ -- ------- ---- ---- ---- - -------- ----- --- --<br>----- ----- ------ -- ---- -- --- - trip -- - ----- -----<br>------ ---- ------ ---- - -------- ------- -- --- --------<br>-------- ----------- ---- ------ ---- ------ ---- --- ---<br>-------- --- -----,389688.3999999999,389686.6999999997,389259.079,389258.6000000001,389279.217,389701.947,,19,trip
screen,html.Screen,2_3_1_0_1_20,2022-05-12T21:20:33.826Z,,,,,,,,,,,,,,,,,40,,,,,,,,,,,,,,414.15300000010757,,response,,,,9,E,,,,,,Space,keypress(Space),,,,silence,,,,------ -- ------- ---- ---- ---- - -------- ----- --- --<br>----- ----- ------ -- ---- -- --- - ---- to - ----- -----<br>------ ---- ------ ---- - -------- ------- -- --- --------<br>-------- ----------- ---- ------ ---- ------ ---- --- ---<br>-------- --- -----,390117.8999999999,390116.1000000001,389681.812,389688.6000000001,389701.947,390124.935,,20,to
screen,html.Screen,2_3_1_0_1_21,2022-05-12T21:20:34.239Z,,,,,,,,,,,,,,,,,40,,,,,,,,,,,,,,404.66500000009546,,response,,,,9,E,,,,,,Space,keypress(Space),,,,silence,,,,------ -- ------- ---- ---- ---- - -------- ----- --- --<br>----- ----- ------ -- ---- -- --- - ---- -- a ----- -----<br>------ ---- ------ ---- - -------- ------- -- --- --------<br>-------- ----------- ---- ------ ---- ------ ---- --- ---<br>-------- --- -----,390531.2999999998,390529.6000000001,390104.798,390118.1999999997,390124.935,390547.639,,21,a
screen,html.Screen,2_3_1_0_1_22,2022-05-12T21:20:34.670Z,,,,,,,,,,,,,,,,,40,,,,,,,,,,,,,,413.0609999996959,,response,,,,9,E,,,,,,Space,keypress(Space),,,,silence,,,,------ -- ------- ---- ---- ---- - -------- ----- --- --<br>----- ----- ------ -- ---- -- --- - ---- -- - water -----<br>------ ---- ------ ---- - -------- ------- -- --- --------<br>-------- ----------- ---- ------ ---- ------ ---- --- ---<br>-------- --- -----,390962.3999999999,390960.6999999997,390527.505,390531.6000000001,390547.639,390970.585,,22,water
screen,html.Screen,2_3_1_0_1_23,2022-05-12T21:20:35.474Z,,,,,,,,,,,,,,,,,40,,,,,,,,,,,,,,793.7149999997928,,response,,,,9,E,,,,,,Space,keypress(Space),,,,silence,,,,"------ -- ------- ---- ---- ---- - -------- ----- --- --<br>----- ----- ------ -- ---- -- --- - ---- -- - ----- park,<br>------ ---- ------ ---- - -------- ------- -- --- --------<br>-------- ----------- ---- ------ ---- ------ ---- --- ---<br>-------- --- -----",391765.7999999998,391764.2999999998,390950.449,390962.6999999997,390970.585,391776.037,,23,"park,"
screen,html.Screen,2_3_1_0_1_24,2022-05-12T21:20:35.949Z,,,,,,,,,,,,,,,,,40,,,,,,,,,,,,,,464.6629999997094,,response,,,,9,E,,,,,,Space,keypress(Space),,,,silence,,,,------ -- ------- ---- ---- ---- - -------- ----- --- --<br>----- ----- ------ -- ---- -- --- - ---- -- - ----- -----<br>saying ---- ------ ---- - -------- ------- -- --- --------<br>-------- ----------- ---- ------ ---- ------ ---- --- ---<br>-------- --- -----,392241.3999999999,392240.6999999997,391755.901,391766.1999999997,391776.037,392259.324,,24,saying
screen,html.Screen,2_3_1_0_1_25,2022-05-12T21:20:36.374Z,,,,,,,,,,,,,,,,,40,,,,,,,,,,,,,,404.5759999998845,,response,,,,9,E,,,,,,Space,keypress(Space),,,,silence,,,,------ -- ------- ---- ---- ---- - -------- ----- --- --<br>----- ----- ------ -- ---- -- --- - ---- -- - ----- -----<br>------ they ------ ---- - -------- ------- -- --- --------<br>-------- ----------- ---- ------ ---- ------ ---- --- ---<br>-------- --- -----,392665.5,392663.8999999999,392239.188,392241.3999999999,392259.324,392682.105,,25,they
screen,html.Screen,2_3_1_0_1_26,2022-05-12T21:20:36.819Z,,,,,,,,,,,,,,,,,40,,,,,,,,,,,,,,426.99500000011176,,response,,,,9,E,,,,,,Space,keypress(Space),,,,silence,,,,------ -- ------- ---- ---- ---- - -------- ----- --- --<br>----- ----- ------ -- ---- -- --- - ---- -- - ----- -----<br>------ ---- didn't ---- - -------- ------- -- --- --------<br>-------- ----------- ---- ------ ---- ------ ---- --- ---<br>-------- --- -----,393110.7999999998,393109.1000000001,392661.97,392665.8999999999,392682.105,393125.103,,26,didn't
screen,html.Screen,2_3_1_0_1_27,2022-05-12T21:20:37.240Z,,,,,,,,,,,,,,,,,40,,,,,,,,,,,,,,405.5969999997178,,response,,,,9,E,,,,,,Space,keypress(Space),,,,silence,,,,------ -- ------- ---- ---- ---- - -------- ----- --- --<br>----- ----- ------ -- ---- -- --- - ---- -- - ----- -----<br>------ ---- ------ have - -------- ------- -- --- --------<br>-------- ----------- ---- ------ ---- ------ ---- --- ---<br>-------- --- -----,393532.2999999998,393530.6999999997,393104.968,393111.1000000001,393125.103,393548.126,,27,have
screen,html.Screen,2_3_1_0_1_28,2022-05-12T21:20:37.630Z,,,,,,,,,,,,,,,,,40,,,,,,,,,,,,,,371.8740000000107,,response,,,,9,E,,,,,,Space,keypress(Space),,,,silence,,,,------ -- ------- ---- ---- ---- - -------- ----- --- --<br>----- ----- ------ -- ---- -- --- - ---- -- - ----- -----<br>------ ---- ------ ---- a -------- ------- -- --- --------<br>-------- ----------- ---- ------ ---- ------ ---- --- ---<br>-------- --- -----,393921.7999999998,393920,393527.988,393532.6000000001,393548.126,393930.657,,28,a
screen,html.Screen,2_3_1_0_1_29,2022-05-12T21:20:38.091Z,,,,,,,,,,,,,,,,,40,,,,,,,,,,,,,,451.1429999998072,,response,,,,9,E,,,,,,Space,keypress(Space),,,,silence,,,,------ -- ------- ---- ---- ---- - -------- ----- --- --<br>----- ----- ------ -- ---- -- --- - ---- -- - ----- -----<br>------ ---- ------ ---- - business ------- -- --- --------<br>-------- ----------- ---- ------ ---- ------ ---- --- ---<br>-------- --- -----,394383.3999999999,394381.7999999998,393910.521,393922.1999999997,393930.657,394393.807,,29,business
screen,html.Screen,2_3_1_0_1_30,2022-05-12T21:20:38.545Z,,,,,,,,,,,,,,,,,40,,,,,,,,,,,,,,441.1930000000284,,response,,,,9,E,,,,,,Space,keypress(Space),,,,silence,,,,------ -- ------- ---- ---- ---- - -------- ----- --- --<br>----- ----- ------ -- ---- -- --- - ---- -- - ----- -----<br>------ ---- ------ ---- - -------- license -- --- --------<br>-------- ----------- ---- ------ ---- ------ ---- --- ---<br>-------- --- -----,394836.6999999997,394835,394373.671,394383.6999999997,394393.807,394856.823,,30,license
screen,html.Screen,2_3_1_0_1_31,2022-05-12T21:20:38.983Z,,,,,,,,,,,,,,,,,40,,,,,,,,,,,,,,416.076999999932,,response,,,,9,E,,,,,,Space,keypress(Space),,,,silence,,,,------ -- ------- ---- ---- ---- - -------- ----- --- --<br>----- ----- ------ -- ---- -- --- - ---- -- - ----- -----<br>------ ---- ------ ---- - -------- ------- or --- --------<br>-------- ----------- ---- ------ ---- ------ ---- --- ---<br>-------- --- -----,395275,395272.8999999999,394836.689,394837.1000000001,394856.823,395279.848,,31,or
screen,html.Screen,2_3_1_0_1_32,2022-05-12T21:20:39.412Z,,,,,,,,,,,,,,,,,40,,,,,,,,,,,,,,422.65200000000186,,response,,,,9,E,,,,,,Space,keypress(Space),,,,silence,,,,------ -- ------- ---- ---- ---- - -------- ----- --- --<br>----- ----- ------ -- ---- -- --- - ---- -- - ----- -----<br>------ ---- ------ ---- - -------- ------- -- the --------<br>-------- ----------- ---- ------ ---- ------ ---- --- ---<br>-------- --- -----,395704.1999999997,395702.5,395259.711,395275.2999999998,395279.848,395722.807,,32,the
screen,html.Screen,2_3_1_0_1_33,2022-05-12T21:20:39.922Z,,,,,,,,,,,,,,,,,40,,,,,,,,,,,,,,489.0929999999353,,response,,,,9,E,,,,,,Space,keypress(Space),,,,silence,,,,------ -- ------- ---- ---- ---- - -------- ----- --- --<br>----- ----- ------ -- ---- -- --- - ---- -- - ----- -----<br>------ ---- ------ ---- - -------- ------- -- --- required<br>-------- ----------- ---- ------ ---- ------ ---- --- ---<br>-------- --- -----,396213.6000000001,396211.8999999999,395702.671,395704.5,395722.807,396226.154,,33,required
screen,html.Screen,2_3_1_0_1_34,2022-05-12T21:20:40.943Z,,,,,,,,,,,,,,,,,40,,,,,,,,,,,,,,1006.7459999999264,,response,,,,9,E,,,,,,Space,keypress(Space),,,,silence,,,,------ -- ------- ---- ---- ---- - -------- ----- --- --<br>----- ----- ------ -- ---- -- --- - ---- -- - ----- -----<br>------ ---- ------ ---- - -------- ------- -- --- --------<br>permits. ----------- ---- ------ ---- ------ ---- --- ---<br>-------- --- -----,397234.6999999997,397232.8999999999,396206.019,396213.8999999999,396226.154,397253.151,,34,permits.
screen,html.Screen,2_3_1_0_1_35,2022-05-12T21:20:41.700Z,,,,,,,,,,,,,,,,,40,,,,,,,,,,,,,,737.048999999708,,response,,,,9,E,,,,,,Space,keypress(Space),,,,silence,,,,------ -- ------- ---- ---- ---- - -------- ----- --- --<br>----- ----- ------ -- ---- -- --- - ---- -- - ----- -----<br>------ ---- ------ ---- - -------- ------- -- --- --------<br>-------- Morningstar ---- ------ ---- ------ ---- --- ---<br>-------- --- -----,397992.1000000001,397990.1999999997,397233.015,397235,397253.151,397998.066,,35,Morningstar
screen,html.Screen,2_3_1_0_1_36,2022-05-12T21:20:42.161Z,,,,,,,,,,,,,,,,,40,,,,,,,,,,,,,,453.633999999729,,response,,,,9,E,,,,,,Space,keypress(Space),,,,silence,,,,------ -- ------- ---- ---- ---- - -------- ----- --- --<br>----- ----- ------ -- ---- -- --- - ---- -- - ----- -----<br>------ ---- ------ ---- - -------- ------- -- --- --------<br>-------- ----------- says ------ ---- ------ ---- --- ---<br>-------- --- -----,398453.3999999999,398451.6999999997,397977.931,397992.2999999998,397998.066,398461.303,,36,says
screen,html.Screen,2_3_1_0_1_37,2022-05-12T21:20:42.639Z,,,,,,,,,,,,,,,,,40,,,,,,,,,,,,,,468.09699999989243,,response,,,,9,E,,,,,,Space,keypress(Space),,,,silence,,,,------ -- ------- ---- ---- ---- - -------- ----- --- --<br>----- ----- ------ -- ---- -- --- - ---- -- - ----- -----<br>------ ---- ------ ---- - -------- ------- -- --- --------<br>-------- ----------- ---- police ---- ------ ---- --- ---<br>-------- --- -----,398930.8999999999,398929.3999999999,398441.167,398453.6999999997,398461.303,398944.614,,37,police
screen,html.Screen,2_3_1_0_1_38,2022-05-12T21:20:43.125Z,,,,,,,,,,,,,,,,,40,,,,,,,,,,,,,,470.3859999999986,,response,,,,9,E,,,,,,Space,keypress(Space),,,,silence,,,,------ -- ------- ---- ---- ---- - -------- ----- --- --<br>----- ----- ------ -- ---- -- --- - ---- -- - ----- -----<br>------ ---- ------ ---- - -------- ------- -- --- --------<br>-------- ----------- ---- ------ also ------ ---- --- ---<br>-------- --- -----,399416.6999999997,399415,398924.478,398931.2999999998,398944.614,399427.699,,38,also
screen,html.Screen,2_3_1_0_1_39,2022-05-12T21:20:43.626Z,,,,,,,,,,,,,,,,,40,,,,,,,,,,,,,,488.2009999998845,,response,,,,9,E,,,,,,Space,keypress(Space),,,,silence,,,,------ -- ------- ---- ---- ---- - -------- ----- --- --<br>----- ----- ------ -- ---- -- --- - ---- -- - ----- -----<br>------ ---- ------ ---- - -------- ------- -- --- --------<br>-------- ----------- ---- ------ ---- didn't ---- --- ---<br>-------- --- -----,399917.7999999998,399915.8999999999,399407.566,399417.1000000001,399427.699,399931.332,,39,didn't
screen,html.Screen,2_3_1_0_1_40,2022-05-12T21:20:44.071Z,,,,,,,,,,,,,,,,,40,,,,,,,,,,,,,,429.96799999981886,,response,,,,9,E,,,,,,Space,keypress(Space),,,,silence,,,,------ -- ------- ---- ---- ---- - -------- ----- --- --<br>----- ----- ------ -- ---- -- --- - ---- -- - ----- -----<br>------ ---- ------ ---- - -------- ------- -- --- --------<br>-------- ----------- ---- ------ ---- ------ know --- ---<br>-------- --- -----,400363.1000000001,400361.2999999998,399911.195,399918.1999999997,399931.332,400374.342,,40,know
screen,html.Screen,2_3_1_0_1_41,2022-05-12T21:20:44.501Z,,,,,,,,,,,,,,,,,40,,,,,,,,,,,,,,416.8579999997164,,response,,,,9,E,,,,,,Space,keypress(Space),,,,silence,,,,------ -- ------- ---- ---- ---- - -------- ----- --- --<br>----- ----- ------ -- ---- -- --- - ---- -- - ----- -----<br>------ ---- ------ ---- - -------- ------- -- --- --------<br>-------- ----------- ---- ------ ---- ------ ---- how ---<br>-------- --- -----,400793.1000000001,400791.1999999997,400354.205,400363.5,400374.342,400797.084,,41,how
screen,html.Screen,2_3_1_0_1_42,2022-05-12T21:20:44.900Z,,,,,,,,,,,,,,,,,40,,,,,,,,,,,,,,393.3159999999334,,response,,,,9,E,,,,,,Space,keypress(Space),,,,silence,,,,------ -- ------- ---- ---- ---- - -------- ----- --- --<br>----- ----- ------ -- ---- -- --- - ---- -- - ----- -----<br>------ ---- ------ ---- - -------- ------- -- --- --------<br>-------- ----------- ---- ------ ---- ------ ---- --- the<br>-------- --- -----,401192.1999999997,401190.3999999999,400776.949,400793.3999999999,400797.084,401199.882,,42,the
screen,html.Screen,2_3_1_0_1_43,2022-05-12T21:20:45.369Z,,,,,,,,,,,,,,,,,40,,,,,,,,,,,,,,458.9179999998305,,response,,,,9,E,,,,,,Space,keypress(Space),,,,silence,,,,------ -- ------- ---- ---- ---- - -------- ----- --- --<br>----- ----- ------ -- ---- -- --- - ---- -- - ----- -----<br>------ ---- ------ ---- - -------- ------- -- --- --------<br>-------- ----------- ---- ------ ---- ------ ---- --- ---<br>lemonade --- -----,401660.6999999997,401658.7999999998,401179.746,401192.5,401199.882,401662.846,,43,lemonade
screen,html.Screen,2_3_1_0_1_44,2022-05-12T21:20:45.790Z,,,,,,,,,,,,,,,,,40,,,,,,,,,,,,,,416.7540000000736,,response,,,,9,E,,,,,,Space,keypress(Space),,,,silence,,,,------ -- ------- ---- ---- ---- - -------- ----- --- --<br>----- ----- ------ -- ---- -- --- - ---- -- - ----- -----<br>------ ---- ------ ---- - -------- ------- -- --- --------<br>-------- ----------- ---- ------ ---- ------ ---- --- ---<br>-------- was -----,402081.5,402079.6000000001,401642.713,401661.1000000001,401662.846,402086.019,,44,was
screen,html.Screen,2_3_1_0_1_45,2022-05-12T21:20:46.587Z,,,,,,,,,,,,,,,,,40,,,,,,,,,,,,,,791.1809999997495,,response,,,,9,E,,,,,,Space,keypress(Space),,,,silence,,,,------ -- ------- ---- ---- ---- - -------- ----- --- --<br>----- ----- ------ -- ---- -- --- - ---- -- - ----- -----<br>------ ---- ------ ---- - -------- ------- -- --- --------<br>-------- ----------- ---- ------ ---- ------ ---- --- ---<br>-------- --- made.,402879.1000000001,402877.1999999997,402065.88,402081.7999999998,402086.019,402891.33,,45,made.
Item 9,flow.Loop,2_3_1_0_1,2022-05-12T21:20:46.588Z,,,,,,,,,,,,,,,,,,,,,,,,,,,,,,,24753.653999999748,,completion,,,,,,,,,,,,,,,,,,,,,402879.7999999998,402877.1999999997,378103.41,378105.1000000001,378123.546,402891.33,,,
Question 1,html.Screen,2_3_1_0_2,2022-05-12T21:20:50.805Z,,,,,,,,,,,,,,,,,,,,,,,,,,,,true,FALSE,,4203.469999999797,,response,,,,9,E,,,,,,FALSE,click #choice-2,,,,silence,,,,,407097.1000000001,407094.7999999998,402871.194,402880.1000000001,402891.33,407099.807,,,
Question 2,html.Screen,2_3_1_0_3,2022-05-12T21:20:55.214Z,,,,,,,,,,,,,,,,,,,,,,,,,,,,true,FALSE,,4403.592999999935,,response,,,,9,E,,,,,,FALSE,click #choice-2,,,,silence,,,,,411505.6999999997,411503.3999999999,407079.671,407097.2999999998,407099.807,411509.633,,,
