sender,sender_type,sender_id,timestamp,meta,,Blues,Classical,Country,Dance,Electronic,Folk,Gospel,Hip-Hop,Jazz,Latin,Musical/Film,New-age,Pop,Prolific_id,Provo_ID,R&B,Rap,Reggae,Religious,Rock,Soul,Swing,Traditional,age,artist_name,correct,correctResponse,distraction,duration,education,ended_on,familiarity,gender,headphone_check_performance,item,list,music_frequency,offensiveness,pleasantness,position_correct,preference,response,response_action,snippet_file,song_name,song_rating,sound,stimulus_1,stimulus_2,stimulus_3,text,time_commit,time_end,time_render,time_run,time_show,time_switch,url,word,word_ID
Prolific ID,html.Form,0,2022-05-03T12:43:39.676Z,"{""labjs_version"":""20.2.2"",""labjs_build"":{""flavor"":""production"",""commit"":""a25486e0c714a0ae2ce03ff94b7bb6896854dcfa""},""location"":""https://run.pavlovia.org/mvasilev/prolific3_music_h/"",""userAgent"":""Mozilla/5.0 (Windows NT 10.0; Win64; x64; rv:99.0) Gecko/20100101 Firefox/99.0"",""platform"":""Win32"",""language"":""en-GB"",""locale"":""en-GB"",""timeZone"":""Europe/London"",""timezoneOffset"":-60,""screen_width"":2560,""screen_height"":1080,""scroll_width"":2560,""scroll_height"":879,""window_innerWidth"":2560,""window_innerHeight"":927,""devicePixelRatio"":1}",,,,,,,,,,,,,,,61373cef59ea3c83ec42227e,,,,,,,,,,,,,,,11591.9,,form submission,,,,,,,,,,,,,,,,,,,,,17783,17783,6181.66,6182,6191.1,17792.8,{},,
Introduction,html.Screen,1_0,2022-05-03T12:43:52.469Z,,,,,,,,,,,,,,,,,,,,,,,,,,,,,,,12774.2,,response,,,,,,,,,,,continue,click button,,,,,,,,,30575,30567,17780.9,17784,17792.8,30576.14,,,
Volume calibration,html.Screen,1_1,2022-05-03T12:45:12.584Z,,,,,,,,,,,,,,,,,,,,,,,,,,,,,,,80099.86,,response,,,,,,,,,,,continue,click button,,,,,,,,,110690,110676,30575.06,30576,30576.14,110692.82,,,
Task instructions,html.Screen,1_2,2022-05-03T12:45:19.610Z,,,,,,,,,,,,,,,,,,,,,,,,,,,,,,,7015.179999999993,,response,,,,,,,,,,,continue,click button,,,,,,,,,117717,117708,110689.36,110691,110692.82,117726.14,,,
Sounds,html.Screen,1_3_0_0,2022-05-03T12:45:23.855Z,,,,,,,,,,,,,,,,,,,,,,,,,,,,,,,4250,,timeout,,,,,,,,,1,,,,,,,,S,O,I,,121961,121959.48,117716.34,117717,117726.14,121976.14,,,
Judgement,html.Screen,1_3_0_1,2022-05-03T12:45:30.658Z,,,,,,,,,,,,,,,,,,,,,,,,,,,,true,1,,6778.860000000001,,response,,,,,,,,,1,,1,click #choice-1,,,,,S,O,I,,128765,128755,121959.48,121961,121976.14,128776.14,,,
Trial,flow.Sequence,1_3_0,2022-05-03T12:45:30.659Z,,,,,,,,,,,,,,,,,,,,,,,,,,,,,,,11028.86,,completion,,,,,,,,,1,,,,,,,,S,O,I,,128766,128755,117716.34,117717,117726.14,128776.14,,,
Sounds,html.Screen,1_3_1_0,2022-05-03T12:45:34.905Z,,,,,,,,,,,,,,,,,,,,,,,,,,,,,,,4250.020000000004,,timeout,,,,,,,,,3,,,,,,,,I,O,S,,133012,133009.48,128765.06,128766,128776.14,133026.16,,,
Judgement,html.Screen,1_3_1_1,2022-05-03T12:45:36.120Z,,,,,,,,,,,,,,,,,,,,,,,,,,,,true,3,,1196.8399999999965,,response,,,,,,,,,3,,3,click #choice-3,,,,,I,O,S,,134227,134223,133009.48,133012,133026.16,134242.82,,,
Trial,flow.Sequence,1_3_1,2022-05-03T12:45:36.120Z,,,,,,,,,,,,,,,,,,,,,,,,,,,,,,,5446.860000000001,,completion,,,,,,,,,3,,,,,,,,I,O,S,,134227,134223,128765.06,128766,128776.14,134242.82,,,
Sounds,html.Screen,1_3_2_0,2022-05-03T12:45:40.372Z,,,,,,,,,,,,,,,,,,,,,,,,,,,,,,,4250,,timeout,,,,,,,,,2,,,,,,,,O,S,I,,138479,138476.16,134226.16,134227,134242.82,138492.82,,,
Judgement,html.Screen,1_3_2_1,2022-05-03T12:45:40.835Z,,,,,,,,,,,,,,,,,,,,,,,,,,,,true,2,,433.179999999993,,response,,,,,,,,,2,,2,click #choice-2,,,,,O,S,I,,138941,138926,138476.16,138479,138492.82,138942.82,,,
Trial,flow.Sequence,1_3_2,2022-05-03T12:45:40.835Z,,,,,,,,,,,,,,,,,,,,,,,,,,,,,,,4683.179999999993,,completion,,,,,,,,,2,,,,,,,,O,S,I,,138941,138926,134226.16,134227,134242.82,138942.82,,,
Sounds,html.Screen,1_3_3_0,2022-05-03T12:45:45.072Z,,,,,,,,,,,,,,,,,,,,,,,,,,,,,,,4250,,timeout,,,,,,,,,3,,,,,,,,O,I,S,,143178,143176.16,138941.02,138942,138942.82,143192.82,,,
Judgement,html.Screen,1_3_3_1,2022-05-03T12:45:45.811Z,,,,,,,,,,,,,,,,,,,,,,,,,,,,true,3,,718.179999999993,,response,,,,,,,,,3,,3,click #choice-3,,,,,O,I,S,,143918,143911,143176.16,143179,143192.82,143926.16,,,
Trial,flow.Sequence,1_3_3,2022-05-03T12:45:45.811Z,,,,,,,,,,,,,,,,,,,,,,,,,,,,,,,4968.179999999993,,completion,,,,,,,,,3,,,,,,,,O,I,S,,143918,143911,138941.02,138941,138942.82,143926.16,,,
Sounds,html.Screen,1_3_4_0,2022-05-03T12:45:50.055Z,,,,,,,,,,,,,,,,,,,,,,,,,,,,,,,4251.739999999991,,timeout,,,,,,,,,2,,,,,,,,I,S,O,,148161,148161.22,143917.16,143918,143926.16,148177.9,,,
Judgement,html.Screen,1_3_4_1,2022-05-03T12:45:50.534Z,,,,,,,,,,,,,,,,,,,,,,,,,,,,true,2,,452.1000000000058,,response,,,,,,,,,2,,2,click #choice-2,,,,,I,S,O,,148641,148630,148161.22,148162,148177.9,148644.56,,,
Trial,flow.Sequence,1_3_4,2022-05-03T12:45:50.535Z,,,,,,,,,,,,,,,,,,,,,,,,,,,,,,,4703.8399999999965,,completion,,,,,,,,,2,,,,,,,,I,S,O,,148641,148630,143917.16,143918,143926.16,148644.56,,,
Sounds,html.Screen,1_3_5_0,2022-05-03T12:45:54.772Z,,,,,,,,,,,,,,,,,,,,,,,,,,,,,,,4250,,timeout,,,,,,,,,1,,,,,,,,S,I,O,,152878,152877.9,148640.96,148642,148644.56,152894.56,,,
Judgement,html.Screen,1_3_5_1,2022-05-03T12:45:55.503Z,,,,,,,,,,,,,,,,,,,,,,,,,,,,true,1,,703.4400000000023,,response,,,,,,,,,1,,1,click #choice-1,,,,,S,I,O,,153611,153598,152877.9,152878,152894.56,153611.22,,,
Trial,flow.Sequence,1_3_5,2022-05-03T12:45:55.504Z,,,,,,,,,,,,,,,,,,,,,,,,,,,,,,,4953.440000000002,,completion,,,,,,,,,1,,,,,,,,S,I,O,,153611,153598,148640.96,148642,148644.56,153611.22,,,
Task,flow.Loop,1_3,2022-05-03T12:45:55.504Z,,,,,,,,,,,,,,,,,,,,,,,,,,,,,,,35871.86,,completion,,,1,,,,,,,,,,,,,,,,,,153611,153598,117716.34,117717,117726.14,153611.22,,,
Trap,html.Screen,1_4,2022-05-03T12:45:55.505Z,,,,,,,,,,,,,,,,,,,,,,,,,,,,,,,NaN,,skipped,,,,,,,,,,,,,,,,,,,,,153612,153598,,153612,,153611.22,,,
Thanks,html.Screen,1_5,2022-05-03T12:46:00.333Z,,,,,,,,,,,,,,,,,,,,,,,,,,,,,,,4815.779999999999,,response,,,,,,,,,,,continue,click button,,,,,,,,,158441,158427,153610.02,153613,153611.22,175611.22,,,
Headphone screening,flow.Sequence,1,2022-05-03T12:46:00.334Z,,,,,,,,,,,,,,,,,,,,,,,,,,,,,,,140634.2,,completion,,,,,,,,,,,,,,,,,,,,,158441,158427,17780.9,17784,17792.8,175611.22,,,
Instructions,html.Page,2_0,2022-05-03T12:46:48.660Z,,,,,,,,,,,,,,,,,,,,,,,,,,,,,,,31154.78,,form submission,,,,,,,,,,,,,,,,,,,,,206768,206766,175594.56,175593,175611.22,206777.9,,,
Holding screen,html.Screen,2_1_0_0,2022-05-03T12:46:58.656Z,,,,,,,,,,,,,,,,,,,,,,,,,,,,,,,10000,,timeout,,,,,,,,,,,,,,,,,,,,,216763,216761.22,206765.32,206768,206777.9,216777.9,,,
screen,html.Screen,2_1_0_1_0,2022-05-03T12:46:59.660Z,,,,,,,,,,,,,,,,,53,,,,,,,,,,,,,,977.1000000000058,,response,,,,99,,,,,,,Space,keypress(Space),,,,,,,,When -- ----- -- ------ - ------- --- ----------<br>------------- ------ ------ ---- ---- ------- ----- -- ----<br>-------- ------- -- ---------- --- - --- ----- ----- ----<br>---- --- --- ----- --- ---- ---- ------- ----- ---- -------<br>--- --- -- ----- -- --- ---- -- --- ---- -- ------ ------<br>--- ----- -- ----,217767,217755,216761.22,216764,216777.9,217777.9,,0,When
screen,html.Screen,2_1_0_1_1,2022-05-03T12:47:00.102Z,,,,,,,,,,,,,,,,,53,,,,,,,,,,,,,,414.1000000000058,,response,,,,99,,,,,,,Space,keypress(Space),,,,,,,,---- it ----- -- ------ - ------- --- ----------<br>------------- ------ ------ ---- ---- ------- ----- -- ----<br>-------- ------- -- ---------- --- - --- ----- ----- ----<br>---- --- --- ----- --- ---- ---- ------- ----- ---- -------<br>--- --- -- ----- -- --- ---- -- --- ---- -- ------ ------<br>--- ----- -- ----,218209,218192,217767.42,217767,217777.9,218211.22,,1,it
screen,html.Screen,2_1_0_1_2,2022-05-03T12:47:00.828Z,,,,,,,,,,,,,,,,,53,,,,,,,,,,,,,,714.7799999999988,,response,,,,99,,,,,,,Space,keypress(Space),,,,,,,,---- -- comes -- ------ - ------- --- ----------<br>------------- ------ ------ ---- ---- ------- ----- -- ----<br>-------- ------- -- ---------- --- - --- ----- ----- ----<br>---- --- --- ----- --- ---- ---- ------- ----- ---- -------<br>--- --- -- ----- -- --- ---- -- --- ---- -- ------ ------<br>--- ----- -- ----,218935,218926,218208.9,218209,218211.22,218944.56,,2,comes
screen,html.Screen,2_1_0_1_3,2022-05-03T12:47:01.518Z,,,,,,,,,,,,,,,,,53,,,,,,,,,,,,,,669.4400000000023,,response,,,,99,,,,,,,Space,keypress(Space),,,,,,,,---- -- ----- to ------ - ------- --- ----------<br>------------- ------ ------ ---- ---- ------- ----- -- ----<br>-------- ------- -- ---------- --- - --- ----- ----- ----<br>---- --- --- ----- --- ---- ---- ------- ----- ---- -------<br>--- --- -- ----- -- --- ---- -- --- ---- -- ------ ------<br>--- ----- -- ----,219625,219614,218935.28,218936,218944.56,219627.9,,3,to
screen,html.Screen,2_1_0_1_4,2022-05-03T12:47:02.245Z,,,,,,,,,,,,,,,,,53,,,,,,,,,,,,,,720.1000000000058,,response,,,,99,,,,,,,Space,keypress(Space),,,,,,,,---- -- ----- -- having - ------- --- ----------<br>------------- ------ ------ ---- ---- ------- ----- -- ----<br>-------- ------- -- ---------- --- - --- ----- ----- ----<br>---- --- --- ----- --- ---- ---- ------- ----- ---- -------<br>--- --- -- ----- -- --- ---- -- --- ---- -- ------ ------<br>--- ----- -- ----,220352,220348,219624.98,219625,219627.9,220361.22,,4,having
screen,html.Screen,2_1_0_1_5,2022-05-03T12:47:02.828Z,,,,,,,,,,,,,,,,,53,,,,,,,,,,,,,,564.7799999999988,,response,,,,99,,,,,,,Space,keypress(Space),,,,,,,,---- -- ----- -- ------ a ------- --- ----------<br>------------- ------ ------ ---- ---- ------- ----- -- ----<br>-------- ------- -- ---------- --- - --- ----- ----- ----<br>---- --- --- ----- --- ---- ---- ------- ----- ---- -------<br>--- --- -- ----- -- --- ---- -- --- ---- -- ------ ------<br>--- ----- -- ----,220935,220926,220352.22,220352,220361.22,220944.56,,5,a
screen,html.Screen,2_1_0_1_6,2022-05-03T12:47:03.575Z,,,,,,,,,,,,,,,,,53,,,,,,,,,,,,,,731.4400000000023,,response,,,,99,,,,,,,Space,keypress(Space),,,,,,,,---- -- ----- -- ------ - lasting --- ----------<br>------------- ------ ------ ---- ---- ------- ----- -- ----<br>-------- ------- -- ---------- --- - --- ----- ----- ----<br>---- --- --- ----- --- ---- ---- ------- ----- ---- -------<br>--- --- -- ----- -- --- ---- -- --- ---- -- ------ ------<br>--- ----- -- ----,221682,221676,220935.22,220935,220944.56,221694.56,,6,lasting
screen,html.Screen,2_1_0_1_7,2022-05-03T12:47:04.269Z,,,,,,,,,,,,,,,,,53,,,,,,,,,,,,,,669.4400000000023,,response,,,,99,,,,,,,Space,keypress(Space),,,,,,,,---- -- ----- -- ------ - ------- and ----------<br>------------- ------ ------ ---- ---- ------- ----- -- ----<br>-------- ------- -- ---------- --- - --- ----- ----- ----<br>---- --- --- ----- --- ---- ---- ------- ----- ---- -------<br>--- --- -- ----- -- --- ---- -- --- ---- -- ------ ------<br>--- ----- -- ----,222376,222364,221682.16,221682,221694.56,222377.9,,7,and
screen,html.Screen,2_1_0_1_8,2022-05-03T12:47:04.999Z,,,,,,,,,,,,,,,,,53,,,,,,,,,,,,,,720.1000000000058,,response,,,,99,,,,,,,Space,keypress(Space),,,,,,,,---- -- ----- -- ------ - ------- --- fulfilling<br>------------- ------ ------ ---- ---- ------- ----- -- ----<br>-------- ------- -- ---------- --- - --- ----- ----- ----<br>---- --- --- ----- --- ---- ---- ------- ----- ---- -------<br>--- --- -- ----- -- --- ---- -- --- ---- -- ------ ------<br>--- ----- -- ----,223106,223098,222376.16,222377,222377.9,223111.22,,8,fulfilling
screen,html.Screen,2_1_0_1_9,2022-05-03T12:47:06.221Z,,,,,,,,,,,,,,,,,53,,,,,,,,,,,,,,1205.7799999999988,,response,,,,99,,,,,,,Space,keypress(Space),,,,,,,,"---- -- ----- -- ------ - ------- --- ----------<br>relationship, ------ ------ ---- ---- ------- ----- -- ----<br>-------- ------- -- ---------- --- - --- ----- ----- ----<br>---- --- --- ----- --- ---- ---- ------- ----- ---- -------<br>--- --- -- ----- -- --- ---- -- --- ---- -- ------ ------<br>--- ----- -- ----",224328,224317,223106.12,223106,223111.22,224344.56,,9,"relationship,"
screen,html.Screen,2_1_0_1_10,2022-05-03T12:47:06.875Z,,,,,,,,,,,,,,,,,53,,,,,,,,,,,,,,628.4400000000023,,response,,,,99,,,,,,,Space,keypress(Space),,,,,,,,---- -- ----- -- ------ - ------- --- ----------<br>------------- common ------ ---- ---- ------- ----- -- ----<br>-------- ------- -- ---------- --- - --- ----- ----- ----<br>---- --- --- ----- --- ---- ---- ------- ----- ---- -------<br>--- --- -- ----- -- --- ---- -- --- ---- -- ------ ------<br>--- ----- -- ----,224982,224973,224328.14,224328,224344.56,224994.56,,10,common
screen,html.Screen,2_1_0_1_11,2022-05-03T12:47:07.398Z,,,,,,,,,,,,,,,,,53,,,,,,,,,,,,,,494.4400000000023,,response,,,,99,,,,,,,Space,keypress(Space),,,,,,,,---- -- ----- -- ------ - ------- --- ----------<br>------------- ------ wisdom ---- ---- ------- ----- -- ----<br>-------- ------- -- ---------- --- - --- ----- ----- ----<br>---- --- --- ----- --- ---- ---- ------- ----- ---- -------<br>--- --- -- ----- -- --- ---- -- --- ---- -- ------ ------<br>--- ----- -- ----,225505,225489,224982.12,224982,224994.56,225511.24,,11,wisdom
screen,html.Screen,2_1_0_1_12,2022-05-03T12:47:07.989Z,,,,,,,,,,,,,,,,,53,,,,,,,,,,,,,,571.7600000000093,,response,,,,99,,,,,,,Space,keypress(Space),,,,,,,,---- -- ----- -- ------ - ------- --- ----------<br>------------- ------ ------ says ---- ------- ----- -- ----<br>-------- ------- -- ---------- --- - --- ----- ----- ----<br>---- --- --- ----- --- ---- ---- ------- ----- ---- -------<br>--- --- -- ----- -- --- ---- -- --- ---- -- ------ ------<br>--- ----- -- ----,226095,226083,225505,225505,225511.24,226111.24,,12,says
screen,html.Screen,2_1_0_1_13,2022-05-03T12:47:08.521Z,,,,,,,,,,,,,,,,,53,,,,,,,,,,,,,,502.7600000000093,,response,,,,99,,,,,,,Space,keypress(Space),,,,,,,,---- -- ----- -- ------ - ------- --- ----------<br>------------- ------ ------ ---- that ------- ----- -- ----<br>-------- ------- -- ---------- --- - --- ----- ----- ----<br>---- --- --- ----- --- ---- ---- ------- ----- ---- -------<br>--- --- -- ----- -- --- ---- -- --- ---- -- ------ ------<br>--- ----- -- ----,226628,226614,226096.06,226096,226111.24,226644.56,,13,that
screen,html.Screen,2_1_0_1_14,2022-05-03T12:47:09.388Z,,,,,,,,,,,,,,,,,53,,,,,,,,,,,,,,844.4400000000023,,response,,,,99,,,,,,,Space,keypress(Space),,,,,,,,---- -- ----- -- ------ - ------- --- ----------<br>------------- ------ ------ ---- ---- feeling ----- -- ----<br>-------- ------- -- ---------- --- - --- ----- ----- ----<br>---- --- --- ----- --- ---- ---- ------- ----- ---- -------<br>--- --- -- ----- -- --- ---- -- --- ---- -- ------ ------<br>--- ----- -- ----,227495,227489,226628.06,226628,226644.56,227511.24,,14,feeling
screen,html.Screen,2_1_0_1_15,2022-05-03T12:47:09.887Z,,,,,,,,,,,,,,,,,53,,,,,,,,,,,,,,477.7600000000093,,response,,,,99,,,,,,,Space,keypress(Space),,,,,,,,---- -- ----- -- ------ - ------- --- ----------<br>------------- ------ ------ ---- ---- ------- close -- ----<br>-------- ------- -- ---------- --- - --- ----- ----- ----<br>---- --- --- ----- --- ---- ---- ------- ----- ---- -------<br>--- --- -- ----- -- --- ---- -- --- ---- -- ------ ------<br>--- ----- -- ----,227994,227989,227495.5,227495,227511.24,227994.56,,15,close
screen,html.Screen,2_1_0_1_16,2022-05-03T12:47:10.310Z,,,,,,,,,,,,,,,,,53,,,,,,,,,,,,,,416.4400000000023,,response,,,,99,,,,,,,Space,keypress(Space),,,,,,,,---- -- ----- -- ------ - ------- --- ----------<br>------------- ------ ------ ---- ---- ------- ----- to ----<br>-------- ------- -- ---------- --- - --- ----- ----- ----<br>---- --- --- ----- --- ---- ---- ------- ----- ---- -------<br>--- --- -- ----- -- --- ---- -- --- ---- -- ------ ------<br>--- ----- -- ----,228418,228411,227993.94,227994,227994.56,228427.9,,16,to
screen,html.Screen,2_1_0_1_17,2022-05-03T12:47:10.862Z,,,,,,,,,,,,,,,,,53,,,,,,,,,,,,,,530.1000000000058,,response,,,,99,,,,,,,Space,keypress(Space),,,,,,,,---- -- ----- -- ------ - ------- --- ----------<br>------------- ------ ------ ---- ---- ------- ----- -- your<br>-------- ------- -- ---------- --- - --- ----- ----- ----<br>---- --- --- ----- --- ---- ---- ------- ----- ---- -------<br>--- --- -- ----- -- --- ---- -- --- ---- -- ------ ------<br>--- ----- -- ----,228969,228958,228417.84,228418,228427.9,228977.9,,17,your
screen,html.Screen,2_1_0_1_18,2022-05-03T12:47:11.431Z,,,,,,,,,,,,,,,,,53,,,,,,,,,,,,,,558.1000000000058,,response,,,,99,,,,,,,Space,keypress(Space),,,,,,,,---- -- ----- -- ------ - ------- --- ----------<br>------------- ------ ------ ---- ---- ------- ----- -- ----<br>romantic ------- -- ---------- --- - --- ----- ----- ----<br>---- --- --- ----- --- ---- ---- ------- ----- ---- -------<br>--- --- -- ----- -- --- ---- -- --- ---- -- ------ ------<br>--- ----- -- ----,229537,229536,228969.32,228969,228977.9,229544.56,,18,romantic
screen,html.Screen,2_1_0_1_19,2022-05-03T12:47:12.164Z,,,,,,,,,,,,,,,,,53,,,,,,,,,,,,,,710.4400000000023,,response,,,,99,,,,,,,Space,keypress(Space),,,,,,,,---- -- ----- -- ------ - ------- --- ----------<br>------------- ------ ------ ---- ---- ------- ----- -- ----<br>-------- partner -- ---------- --- - --- ----- ----- ----<br>---- --- --- ----- --- ---- ---- ------- ----- ---- -------<br>--- --- -- ----- -- --- ---- -- --- ---- -- ------ ------<br>--- ----- -- ----,230271,230255,229537.98,229538,229544.56,230277.9,,19,partner
screen,html.Screen,2_1_0_1_20,2022-05-03T12:47:12.609Z,,,,,,,,,,,,,,,,,53,,,,,,,,,,,,,,430.1000000000058,,response,,,,99,,,,,,,Space,keypress(Space),,,,,,,,---- -- ----- -- ------ - ------- --- ----------<br>------------- ------ ------ ---- ---- ------- ----- -- ----<br>-------- ------- is ---------- --- - --- ----- ----- ----<br>---- --- --- ----- --- ---- ---- ------- ----- ---- -------<br>--- --- -- ----- -- --- ---- -- --- ---- -- ------ ------<br>--- ----- -- ----,230716,230708,230270.98,230271,230277.9,230727.9,,20,is
screen,html.Screen,2_1_0_1_21,2022-05-03T12:47:13.264Z,,,,,,,,,,,,,,,,,53,,,,,,,,,,,,,,636.1000000000058,,response,,,,99,,,,,,,Space,keypress(Space),,,,,,,,---- -- ----- -- ------ - ------- --- ----------<br>------------- ------ ------ ---- ---- ------- ----- -- ----<br>-------- ------- -- paramount. --- - --- ----- ----- ----<br>---- --- --- ----- --- ---- ---- ------- ----- ---- -------<br>--- --- -- ----- -- --- ---- -- --- ---- -- ------ ------<br>--- ----- -- ----,231371,231364,230716.52,230716,230727.9,231377.9,,21,paramount.
screen,html.Screen,2_1_0_1_22,2022-05-03T12:47:13.748Z,,,,,,,,,,,,,,,,,53,,,,,,,,,,,,,,470.1000000000058,,response,,,,99,,,,,,,Space,keypress(Space),,,,,,,,---- -- ----- -- ------ - ------- --- ----------<br>------------- ------ ------ ---- ---- ------- ----- -- ----<br>-------- ------- -- ---------- But - --- ----- ----- ----<br>---- --- --- ----- --- ---- ---- ------- ----- ---- -------<br>--- --- -- ----- -- --- ---- -- --- ---- -- ------ ------<br>--- ----- -- ----,231854,231848,231370.98,231371,231377.9,231861.24,,22,But
screen,html.Screen,2_1_0_1_23,2022-05-03T12:47:14.205Z,,,,,,,,,,,,,,,,,53,,,,,,,,,,,,,,439.7600000000093,,response,,,,99,,,,,,,Space,keypress(Space),,,,,,,,---- -- ----- -- ------ - ------- --- ----------<br>------------- ------ ------ ---- ---- ------- ----- -- ----<br>-------- ------- -- ---------- --- a --- ----- ----- ----<br>---- --- --- ----- --- ---- ---- ------- ----- ---- -------<br>--- --- -- ----- -- --- ---- -- --- ---- -- ------ ------<br>--- ----- -- ----,232311,232301,231854.44,231854,231861.24,232327.9,,23,a
screen,html.Screen,2_1_0_1_24,2022-05-03T12:47:14.662Z,,,,,,,,,,,,,,,,,53,,,,,,,,,,,,,,427.1000000000058,,response,,,,99,,,,,,,Space,keypress(Space),,,,,,,,---- -- ----- -- ------ - ------- --- ----------<br>------------- ------ ------ ---- ---- ------- ----- -- ----<br>-------- ------- -- ---------- --- - new ----- ----- ----<br>---- --- --- ----- --- ---- ---- ------- ----- ---- -------<br>--- --- -- ----- -- --- ---- -- --- ---- -- ------ ------<br>--- ----- -- ----,232769,232755,232311.76,232311,232327.9,232777.9,,24,new
screen,html.Screen,2_1_0_1_25,2022-05-03T12:47:15.128Z,,,,,,,,,,,,,,,,,53,,,,,,,,,,,,,,445.1000000000058,,response,,,,99,,,,,,,Space,keypress(Space),,,,,,,,---- -- ----- -- ------ - ------- --- ----------<br>------------- ------ ------ ---- ---- ------- ----- -- ----<br>-------- ------- -- ---------- --- - --- study ----- ----<br>---- --- --- ----- --- ---- ---- ------- ----- ---- -------<br>--- --- -- ----- -- --- ---- -- --- ---- -- ------ ------<br>--- ----- -- ----,233236,233223,232768.86,232769,232777.9,233244.56,,25,study
screen,html.Screen,2_1_0_1_26,2022-05-03T12:47:15.575Z,,,,,,,,,,,,,,,,,53,,,,,,,,,,,,,,431.4400000000023,,response,,,,99,,,,,,,Space,keypress(Space),,,,,,,,---- -- ----- -- ------ - ------- --- ----------<br>------------- ------ ------ ---- ---- ------- ----- -- ----<br>-------- ------- -- ---------- --- - --- ----- finds ----<br>---- --- --- ----- --- ---- ---- ------- ----- ---- -------<br>--- --- -- ----- -- --- ---- -- --- ---- -- ------ ------<br>--- ----- -- ----,233683,233676,233235.94,233236,233244.56,233694.56,,26,finds
screen,html.Screen,2_1_0_1_27,2022-05-03T12:47:16.045Z,,,,,,,,,,,,,,,,,53,,,,,,,,,,,,,,450.4400000000023,,response,,,,99,,,,,,,Space,keypress(Space),,,,,,,,---- -- ----- -- ------ - ------- --- ----------<br>------------- ------ ------ ---- ---- ------- ----- -- ----<br>-------- ------- -- ---------- --- - --- ----- ----- that<br>---- --- --- ----- --- ---- ---- ------- ----- ---- -------<br>--- --- -- ----- -- --- ---- -- --- ---- -- ------ ------<br>--- ----- -- ----,234152,234145,233682.92,233683,233694.56,234161.24,,27,that
screen,html.Screen,2_1_0_1_28,2022-05-03T12:47:16.572Z,,,,,,,,,,,,,,,,,53,,,,,,,,,,,,,,514.7600000000093,,response,,,,99,,,,,,,Space,keypress(Space),,,,,,,,---- -- ----- -- ------ - ------- --- ----------<br>------------- ------ ------ ---- ---- ------- ----- -- ----<br>-------- ------- -- ---------- --- - --- ----- ----- ----<br>it's --- --- ----- --- ---- ---- ------- ----- ---- -------<br>--- --- -- ----- -- --- ---- -- --- ---- -- ------ ------<br>--- ----- -- ----,234679,234676,234152.34,234152,234161.24,234694.56,,28,it's
screen,html.Screen,2_1_0_1_29,2022-05-03T12:47:17.048Z,,,,,,,,,,,,,,,,,53,,,,,,,,,,,,,,450.4400000000023,,response,,,,99,,,,,,,Space,keypress(Space),,,,,,,,---- -- ----- -- ------ - ------- --- ----------<br>------------- ------ ------ ---- ---- ------- ----- -- ----<br>-------- ------- -- ---------- --- - --- ----- ----- ----<br>---- not --- ----- --- ---- ---- ------- ----- ---- -------<br>--- --- -- ----- -- --- ---- -- --- ---- -- ------ ------<br>--- ----- -- ----,235155,235145,234678.9,234679,234694.56,235161.24,,29,not
screen,html.Screen,2_1_0_1_30,2022-05-03T12:47:17.495Z,,,,,,,,,,,,,,,,,53,,,,,,,,,,,,,,436.7600000000093,,response,,,,99,,,,,,,Space,keypress(Space),,,,,,,,---- -- ----- -- ------ - ------- --- ----------<br>------------- ------ ------ ---- ---- ------- ----- -- ----<br>-------- ------- -- ---------- --- - --- ----- ----- ----<br>---- --- how ----- --- ---- ---- ------- ----- ---- -------<br>--- --- -- ----- -- --- ---- -- --- ---- -- ------ ------<br>--- ----- -- ----,235601,235598,235154.94,235155,235161.24,235611.24,,30,how
screen,html.Screen,2_1_0_1_31,2022-05-03T12:47:17.959Z,,,,,,,,,,,,,,,,,53,,,,,,,,,,,,,,439.7600000000093,,response,,,,99,,,,,,,Space,keypress(Space),,,,,,,,---- -- ----- -- ------ - ------- --- ----------<br>------------- ------ ------ ---- ---- ------- ----- -- ----<br>-------- ------- -- ---------- --- - --- ----- ----- ----<br>---- --- --- close --- ---- ---- ------- ----- ---- -------<br>--- --- -- ----- -- --- ---- -- --- ---- -- ------ ------<br>--- ----- -- ----,236066,236051,235601.16,235601,235611.24,236077.9,,31,close
screen,html.Screen,2_1_0_1_32,2022-05-03T12:47:18.373Z,,,,,,,,,,,,,,,,,53,,,,,,,,,,,,,,395.1000000000058,,response,,,,99,,,,,,,Space,keypress(Space),,,,,,,,---- -- ----- -- ------ - ------- --- ----------<br>------------- ------ ------ ---- ---- ------- ----- -- ----<br>-------- ------- -- ---------- --- - --- ----- ----- ----<br>---- --- --- ----- you ---- ---- ------- ----- ---- -------<br>--- --- -- ----- -- --- ---- -- --- ---- -- ------ ------<br>--- ----- -- ----,236479,236473,236065.98,236066,236077.9,236494.56,,32,you
screen,html.Screen,2_1_0_1_33,2022-05-03T12:47:18.802Z,,,,,,,,,,,,,,,,,53,,,,,,,,,,,,,,400.4400000000023,,response,,,,99,,,,,,,Space,keypress(Space),,,,,,,,---- -- ----- -- ------ - ------- --- ----------<br>------------- ------ ------ ---- ---- ------- ----- -- ----<br>-------- ------- -- ---------- --- - --- ----- ----- ----<br>---- --- --- ----- --- feel ---- ------- ----- ---- -------<br>--- --- -- ----- -- --- ---- -- --- ---- -- ------ ------<br>--- ----- -- ----,236909,236895,236479.26,236479,236494.56,236911.24,,33,feel
screen,html.Screen,2_1_0_1_34,2022-05-03T12:47:19.293Z,,,,,,,,,,,,,,,,,53,,,,,,,,,,,,,,483.7600000000093,,response,,,,99,,,,,,,Space,keypress(Space),,,,,,,,---- -- ----- -- ------ - ------- --- ----------<br>------------- ------ ------ ---- ---- ------- ----- -- ----<br>-------- ------- -- ---------- --- - --- ----- ----- ----<br>---- --- --- ----- --- ---- that ------- ----- ---- -------<br>--- --- -- ----- -- --- ---- -- --- ---- -- ------ ------<br>--- ----- -- ----,237400,237395,236909.5,236909,236911.24,237411.24,,34,that
screen,html.Screen,2_1_0_1_35,2022-05-03T12:47:19.722Z,,,,,,,,,,,,,,,,,53,,,,,,,,,,,,,,405.7600000000093,,response,,,,99,,,,,,,Space,keypress(Space),,,,,,,,---- -- ----- -- ------ - ------- --- ----------<br>------------- ------ ------ ---- ---- ------- ----- -- ----<br>-------- ------- -- ---------- --- - --- ----- ----- ----<br>---- --- --- ----- --- ---- ---- matters ----- ---- -------<br>--- --- -- ----- -- --- ---- -- --- ---- -- ------ ------<br>--- ----- -- ----,237829,237817,237400.44,237400,237411.24,237844.56,,35,matters
screen,html.Screen,2_1_0_1_36,2022-05-03T12:47:20.347Z,,,,,,,,,,,,,,,,,53,,,,,,,,,,,,,,597.4400000000023,,response,,,,99,,,,,,,Space,keypress(Space),,,,,,,,"---- -- ----- -- ------ - ------- --- ----------<br>------------- ------ ------ ---- ---- ------- ----- -- ----<br>-------- ------- -- ---------- --- - --- ----- ----- ----<br>---- --- --- ----- --- ---- ---- ------- most, ---- -------<br>--- --- -- ----- -- --- ---- -- --- ---- -- ------ ------<br>--- ----- -- ----",238454,238442,237828.84,237829,237844.56,238461.24,,36,"most,"
screen,html.Screen,2_1_0_1_37,2022-05-03T12:47:20.787Z,,,,,,,,,,,,,,,,,53,,,,,,,,,,,,,,418.7600000000093,,response,,,,99,,,,,,,Space,keypress(Space),,,,,,,,---- -- ----- -- ------ - ------- --- ----------<br>------------- ------ ------ ---- ---- ------- ----- -- ----<br>-------- ------- -- ---------- --- - --- ----- ----- ----<br>---- --- --- ----- --- ---- ---- ------- ----- it's -------<br>--- --- -- ----- -- --- ---- -- --- ---- -- ------ ------<br>--- ----- -- ----,238893,238880,238453.8,238454,238461.24,238894.56,,37,it's
screen,html.Screen,2_1_0_1_38,2022-05-03T12:47:21.266Z,,,,,,,,,,,,,,,,,53,,,,,,,,,,,,,,469.4400000000023,,response,,,,99,,,,,,,Space,keypress(Space),,,,,,,,---- -- ----- -- ------ - ------- --- ----------<br>------------- ------ ------ ---- ---- ------- ----- -- ----<br>-------- ------- -- ---------- --- - --- ----- ----- ----<br>---- --- --- ----- --- ---- ---- ------- ----- ---- whether<br>--- --- -- ----- -- --- ---- -- --- ---- -- ------ ------<br>--- ----- -- ----,239373,239364,238893.88,238894,238894.56,239377.9,,38,whether
screen,html.Screen,2_1_0_1_39,2022-05-03T12:47:21.708Z,,,,,,,,,,,,,,,,,53,,,,,,,,,,,,,,423.1000000000058,,response,,,,99,,,,,,,Space,keypress(Space),,,,,,,,---- -- ----- -- ------ - ------- --- ----------<br>------------- ------ ------ ---- ---- ------- ----- -- ----<br>-------- ------- -- ---------- --- - --- ----- ----- ----<br>---- --- --- ----- --- ---- ---- ------- ----- ---- -------<br>you --- -- ----- -- --- ---- -- --- ---- -- ------ ------<br>--- ----- -- ----,239815,239801,239372.52,239373,239377.9,239827.9,,39,you
screen,html.Screen,2_1_0_1_40,2022-05-03T12:47:22.121Z,,,,,,,,,,,,,,,,,53,,,,,,,,,,,,,,395.1000000000058,,response,,,,99,,,,,,,Space,keypress(Space),,,,,,,,---- -- ----- -- ------ - ------- --- ----------<br>------------- ------ ------ ---- ---- ------- ----- -- ----<br>-------- ------- -- ---------- --- - --- ----- ----- ----<br>---- --- --- ----- --- ---- ---- ------- ----- ---- -------<br>--- are -- ----- -- --- ---- -- --- ---- -- ------ ------<br>--- ----- -- ----,240228,240223,239815.42,239815,239827.9,240244.56,,40,are
screen,html.Screen,2_1_0_1_41,2022-05-03T12:47:22.579Z,,,,,,,,,,,,,,,,,53,,,,,,,,,,,,,,431.4400000000023,,response,,,,99,,,,,,,Space,keypress(Space),,,,,,,,---- -- ----- -- ------ - ------- --- ----------<br>------------- ------ ------ ---- ---- ------- ----- -- ----<br>-------- ------- -- ---------- --- - --- ----- ----- ----<br>---- --- --- ----- --- ---- ---- ------- ----- ---- -------<br>--- --- as ----- -- --- ---- -- --- ---- -- ------ ------<br>--- ----- -- ----,240686,240676,240228.38,240228,240244.56,240694.56,,41,as
screen,html.Screen,2_1_0_1_42,2022-05-03T12:47:23.007Z,,,,,,,,,,,,,,,,,53,,,,,,,,,,,,,,403.4400000000023,,response,,,,99,,,,,,,Space,keypress(Space),,,,,,,,---- -- ----- -- ------ - ------- --- ----------<br>------------- ------ ------ ---- ---- ------- ----- -- ----<br>-------- ------- -- ---------- --- - --- ----- ----- ----<br>---- --- --- ----- --- ---- ---- ------- ----- ---- -------<br>--- --- -- close -- --- ---- -- --- ---- -- ------ ------<br>--- ----- -- ----,241114,241098,240685.84,240686,240694.56,241127.9,,42,close
screen,html.Screen,2_1_0_1_43,2022-05-03T12:47:23.505Z,,,,,,,,,,,,,,,,,53,,,,,,,,,,,,,,470.1000000000058,,response,,,,99,,,,,,,Space,keypress(Space),,,,,,,,---- -- ----- -- ------ - ------- --- ----------<br>------------- ------ ------ ---- ---- ------- ----- -- ----<br>-------- ------- -- ---------- --- - --- ----- ----- ----<br>---- --- --- ----- --- ---- ---- ------- ----- ---- -------<br>--- --- -- ----- as --- ---- -- --- ---- -- ------ ------<br>--- ----- -- ----,241612,241598,241114.38,241114,241127.9,241627.9,,43,as
screen,html.Screen,2_1_0_1_44,2022-05-03T12:47:23.944Z,,,,,,,,,,,,,,,,,53,,,,,,,,,,,,,,409.1000000000058,,response,,,,99,,,,,,,Space,keypress(Space),,,,,,,,---- -- ----- -- ------ - ------- --- ----------<br>------------- ------ ------ ---- ---- ------- ----- -- ----<br>-------- ------- -- ---------- --- - --- ----- ----- ----<br>---- --- --- ----- --- ---- ---- ------- ----- ---- -------<br>--- --- -- ----- -- you ---- -- --- ---- -- ------ ------<br>--- ----- -- ----,242051,242037,241611.84,241612,241627.9,242061.24,,44,you
screen,html.Screen,2_1_0_1_45,2022-05-03T12:47:24.396Z,,,,,,,,,,,,,,,,,53,,,,,,,,,,,,,,427.7600000000093,,response,,,,99,,,,,,,Space,keypress(Space),,,,,,,,---- -- ----- -- ------ - ------- --- ----------<br>------------- ------ ------ ---- ---- ------- ----- -- ----<br>-------- ------- -- ---------- --- - --- ----- ----- ----<br>---- --- --- ----- --- ---- ---- ------- ----- ---- -------<br>--- --- -- ----- -- --- want -- --- ---- -- ------ ------<br>--- ----- -- ----,242503,242489,242050.76,242051,242061.24,242511.24,,45,want
screen,html.Screen,2_1_0_1_46,2022-05-03T12:47:24.825Z,,,,,,,,,,,,,,,,,53,,,,,,,,,,,,,,414.7600000000093,,response,,,,99,,,,,,,Space,keypress(Space),,,,,,,,---- -- ----- -- ------ - ------- --- ----------<br>------------- ------ ------ ---- ---- ------- ----- -- ----<br>-------- ------- -- ---------- --- - --- ----- ----- ----<br>---- --- --- ----- --- ---- ---- ------- ----- ---- -------<br>--- --- -- ----- -- --- ---- to --- ---- -- ------ ------<br>--- ----- -- ----,242933,242926,242503.46,242503,242511.24,242944.56,,46,to
screen,html.Screen,2_1_0_1_47,2022-05-03T12:47:25.266Z,,,,,,,,,,,,,,,,,53,,,,,,,,,,,,,,419.4400000000023,,response,,,,99,,,,,,,Space,keypress(Space),,,,,,,,"---- -- ----- -- ------ - ------- --- ----------<br>------------- ------ ------ ---- ---- ------- ----- -- ----<br>-------- ------- -- ---------- --- - --- ----- ----- ----<br>---- --- --- ----- --- ---- ---- ------- ----- ---- -------<br>--- --- -- ----- -- --- ---- -- be, ---- -- ------ ------<br>--- ----- -- ----",243373,243364,242932.7,242933,242944.56,243377.9,,47,"be,"
screen,html.Screen,2_1_0_1_48,2022-05-03T12:47:25.733Z,,,,,,,,,,,,,,,,,53,,,,,,,,,,,,,,455.1000000000058,,response,,,,99,,,,,,,Space,keypress(Space),,,,,,,,---- -- ----- -- ------ - ------- --- ----------<br>------------- ------ ------ ---- ---- ------- ----- -- ----<br>-------- ------- -- ---------- --- - --- ----- ----- ----<br>---- --- --- ----- --- ---- ---- ------- ----- ---- -------<br>--- --- -- ----- -- --- ---- -- --- even -- ------ ------<br>--- ----- -- ----,243840,243833,243372.96,243373,243377.9,243844.56,,48,even
screen,html.Screen,2_1_0_1_49,2022-05-03T12:47:26.186Z,,,,,,,,,,,,,,,,,53,,,,,,,,,,,,,,441.4400000000023,,response,,,,99,,,,,,,Space,keypress(Space),,,,,,,,---- -- ----- -- ------ - ------- --- ----------<br>------------- ------ ------ ---- ---- ------- ----- -- ----<br>-------- ------- -- ---------- --- - --- ----- ----- ----<br>---- --- --- ----- --- ---- ---- ------- ----- ---- -------<br>--- --- -- ----- -- --- ---- -- --- ---- if ------ ------<br>--- ----- -- ----,244293,244286,243840.24,243840,243844.56,244294.56,,49,if
screen,html.Screen,2_1_0_1_50,2022-05-03T12:47:26.664Z,,,,,,,,,,,,,,,,,53,,,,,,,,,,,,,,475.4400000000023,,response,,,,99,,,,,,,Space,keypress(Space),,,,,,,,---- -- ----- -- ------ - ------- --- ----------<br>------------- ------ ------ ---- ---- ------- ----- -- ----<br>-------- ------- -- ---------- --- - --- ----- ----- ----<br>---- --- --- ----- --- ---- ---- ------- ----- ---- -------<br>--- --- -- ----- -- --- ---- -- --- ---- -- that's ------<br>--- ----- -- ----,244771,244770,244292.68,244293,244294.56,244777.9,,50,that's
screen,html.Screen,2_1_0_1_51,2022-05-03T12:47:27.278Z,,,,,,,,,,,,,,,,,53,,,,,,,,,,,,,,602.1000000000058,,response,,,,99,,,,,,,Space,keypress(Space),,,,,,,,---- -- ----- -- ------ - ------- --- ----------<br>------------- ------ ------ ---- ---- ------- ----- -- ----<br>-------- ------- -- ---------- --- - --- ----- ----- ----<br>---- --- --- ----- --- ---- ---- ------- ----- ---- -------<br>--- --- -- ----- -- --- ---- -- --- ---- -- ------ really<br>--- ----- -- ----,245385,245380,244771.82,244772,244777.9,245394.56,,51,really
screen,html.Screen,2_1_0_1_52,2022-05-03T12:47:27.757Z,,,,,,,,,,,,,,,,,53,,,,,,,,,,,,,,453.4400000000023,,response,,,,99,,,,,,,Space,keypress(Space),,,,,,,,---- -- ----- -- ------ - ------- --- ----------<br>------------- ------ ------ ---- ---- ------- ----- -- ----<br>-------- ------- -- ---------- --- - --- ----- ----- ----<br>---- --- --- ----- --- ---- ---- ------- ----- ---- -------<br>--- --- -- ----- -- --- ---- -- --- ---- -- ------ ------<br>not ----- -- ----,245863,245848,245385.7,245385,245394.56,245877.9,,52,not
screen,html.Screen,2_1_0_1_53,2022-05-03T12:47:28.252Z,,,,,,,,,,,,,,,,,53,,,,,,,,,,,,,,470.1000000000058,,response,,,,99,,,,,,,Space,keypress(Space),,,,,,,,---- -- ----- -- ------ - ------- --- ----------<br>------------- ------ ------ ---- ---- ------- ----- -- ----<br>-------- ------- -- ---------- --- - --- ----- ----- ----<br>---- --- --- ----- --- ---- ---- ------- ----- ---- -------<br>--- --- -- ----- -- --- ---- -- --- ---- -- ------ ------<br>--- close -- ----,246359,246348,245863.62,245863,245877.9,246361.24,,53,close
screen,html.Screen,2_1_0_1_54,2022-05-03T12:47:28.719Z,,,,,,,,,,,,,,,,,53,,,,,,,,,,,,,,455.7600000000093,,response,,,,99,,,,,,,Space,keypress(Space),,,,,,,,---- -- ----- -- ------ - ------- --- ----------<br>------------- ------ ------ ---- ---- ------- ----- -- ----<br>-------- ------- -- ---------- --- - --- ----- ----- ----<br>---- --- --- ----- --- ---- ---- ------- ----- ---- -------<br>--- --- -- ----- -- --- ---- -- --- ---- -- ------ ------<br>--- ----- at ----,246825,246817,246359.28,246359,246361.24,246827.9,,54,at
screen,html.Screen,2_1_0_1_55,2022-05-03T12:47:29.158Z,,,,,,,,,,,,,,,,,53,,,,,,,,,,,,,,427.1000000000058,,response,,,,99,,,,,,,Space,keypress(Space),,,,,,,,---- -- ----- -- ------ - ------- --- ----------<br>------------- ------ ------ ---- ---- ------- ----- -- ----<br>-------- ------- -- ---------- --- - --- ----- ----- ----<br>---- --- --- ----- --- ---- ---- ------- ----- ---- -------<br>--- --- -- ----- -- --- ---- -- --- ---- -- ------ ------<br>--- ----- -- all.,247265,247255,246825.72,246826,246827.9,247277.9,,55,all.
Item 99,flow.Loop,2_1_0_1,2022-05-03T12:47:29.159Z,,,,,,,,,,,,,,,,,,,,,,,,,,,,,,,30477.100000000006,,completion,,,,,H,,,,,,,,,,,silence,,,,,247265,247255,216761.22,216764,216777.9,247277.9,,,
Question 1,html.Screen,2_1_0_2,2022-05-03T12:47:34.351Z,,,,,,,,,,,,,,,,,,,,,,,,,,,,false,FALSE,,5164.100000000006,,response,,,,99,H,,,,,,TRUE,click #choice-1,,,,silence,,,,,252457,252442,247265.16,247265,247277.9,252461.24,,,
Question 2,html.Screen,2_1_0_3,2022-05-03T12:47:40.098Z,,,,,,,,,,,,,,,,,,,,,,,,,,,,true,TRUE,,5731.760000000009,,response,,,,99,H,,,,,,TRUE,click #choice-1,,,,silence,,,,,258205,258193,252456.88,252457,252461.24,258211.24,,,
Item 99,flow.Sequence,2_1_0,2022-05-03T12:47:40.099Z,,,,,,,,,,,,,,,,,,,,,,,,,,,,,,,51415.100000000006,,completion,,,,,,,,,,,,,,,,,,,,,258206,258193,206765.32,206768,206777.9,258211.24,,,
Holding screen,html.Screen,2_1_1_0,2022-05-03T12:47:50.089Z,,,,,,,,,,,,,,,,,,,,,,,,,,,,,,,10000,,timeout,,,,,,,,,,,,,,,,,,,,,268197,268194.56,258203.98,258206,258211.24,268211.24,,,
screen,html.Screen,2_1_1_1_0,2022-05-03T12:47:50.784Z,,,,,,,,,,,,,,,,,54,,,,,,,,,,,,,,668.7600000000093,,response,,,,100,,,,,,,Space,keypress(Space),,,,,,,,At --- ---- --- ------ ----- ------- ---- -- --- ------- --<br>------- ---------- ------ -- ----- -- ----- -- ---- ------<br>--- ----- --- --- ------ -------- ----- --- ------ ----- --<br>----- ----- ---------- --- --- ------ ------ ---- -- ------<br>------- --- ------ ----- --- ---- ------- -- ---- --- --<br>------- ------,268890,268880,268194.56,268197,268211.24,268894.56,,0,At
screen,html.Screen,2_1_1_1_1,2022-05-03T12:47:51.165Z,,,,,,,,,,,,,,,,,54,,,,,,,,,,,,,,360.4400000000023,,response,,,,100,,,,,,,Space,keypress(Space),,,,,,,,-- the ---- --- ------ ----- ------- ---- -- --- ------- --<br>------- ---------- ------ -- ----- -- ----- -- ---- ------<br>--- ----- --- --- ------ -------- ----- --- ------ ----- --<br>----- ----- ---------- --- --- ------ ------ ---- -- ------<br>------- --- ------ ----- --- ---- ------- -- ---- --- --<br>------- ------,269271,269255,268890.32,268890,268894.56,269277.9,,1,the
screen,html.Screen,2_1_1_1_2,2022-05-03T12:47:51.554Z,,,,,,,,,,,,,,,,,54,,,,,,,,,,,,,,367.0999999999767,,response,,,,100,,,,,,,Space,keypress(Space),,,,,,,,-- --- time --- ------ ----- ------- ---- -- --- ------- --<br>------- ---------- ------ -- ----- -- ----- -- ---- ------<br>--- ----- --- --- ------ -------- ----- --- ------ ----- --<br>----- ----- ---------- --- --- ------ ------ ---- -- ------<br>------- --- ------ ----- --- ---- ------- -- ---- --- --<br>------- ------,269660,269645,269271.68,269271,269277.9,269661.24,,2,time
screen,html.Screen,2_1_1_1_3,2022-05-03T12:47:51.993Z,,,,,,,,,,,,,,,,,54,,,,,,,,,,,,,,436.7600000000093,,response,,,,100,,,,,,,Space,keypress(Space),,,,,,,,-- --- ---- the ------ ----- ------- ---- -- --- ------- --<br>------- ---------- ------ -- ----- -- ----- -- ---- ------<br>--- ----- --- --- ------ -------- ----- --- ------ ----- --<br>----- ----- ---------- --- --- ------ ------ ---- -- ------<br>------- --- ------ ----- --- ---- ------- -- ---- --- --<br>------- ------,270101,270098,269661.04,269661,269661.24,270111.24,,3,the
screen,html.Screen,2_1_1_1_4,2022-05-03T12:47:52.490Z,,,,,,,,,,,,,,,,,54,,,,,,,,,,,,,,471.7600000000093,,response,,,,100,,,,,,,Space,keypress(Space),,,,,,,,-- --- ---- --- French ----- ------- ---- -- --- ------- --<br>------- ---------- ------ -- ----- -- ----- -- ---- ------<br>--- ----- --- --- ------ -------- ----- --- ------ ----- --<br>----- ----- ---------- --- --- ------ ------ ---- -- ------<br>------- --- ------ ----- --- ---- ------- -- ---- --- --<br>------- ------,270597,270583,270100.82,270101,270111.24,270611.24,,4,French
screen,html.Screen,2_1_1_1_5,2022-05-03T12:47:52.945Z,,,,,,,,,,,,,,,,,54,,,,,,,,,,,,,,424.7600000000093,,response,,,,100,,,,,,,Space,keypress(Space),,,,,,,,-- --- ---- --- ------ crown ------- ---- -- --- ------- --<br>------- ---------- ------ -- ----- -- ----- -- ---- ------<br>--- ----- --- --- ------ -------- ----- --- ------ ----- --<br>----- ----- ---------- --- --- ------ ------ ---- -- ------<br>------- --- ------ ----- --- ---- ------- -- ---- --- --<br>------- ------,271053,271036,270596.94,270597,270611.24,271061.24,,5,crown
screen,html.Screen,2_1_1_1_6,2022-05-03T12:47:53.470Z,,,,,,,,,,,,,,,,,54,,,,,,,,,,,,,,505.7600000000093,,response,,,,100,,,,,,,Space,keypress(Space),,,,,,,,-- --- ---- --- ------ ----- secured ---- -- --- ------- --<br>------- ---------- ------ -- ----- -- ----- -- ---- ------<br>--- ----- --- --- ------ -------- ----- --- ------ ----- --<br>----- ----- ---------- --- --- ------ ------ ---- -- ------<br>------- --- ------ ----- --- ---- ------- -- ---- --- --<br>------- ------,271577,271567,271052.76,271053,271061.24,271579.54,,6,secured
screen,html.Screen,2_1_1_1_7,2022-05-03T12:47:53.933Z,,,,,,,,,,,,,,,,,54,,,,,,,,,,,,,,456.46000000002095,,response,,,,100,,,,,,,Space,keypress(Space),,,,,,,,-- --- ---- --- ------ ----- ------- much -- --- ------- --<br>------- ---------- ------ -- ----- -- ----- -- ---- ------<br>--- ----- --- --- ------ -------- ----- --- ------ ----- --<br>----- ----- ---------- --- --- ------ ------ ---- -- ------<br>------- --- ------ ----- --- ---- ------- -- ---- --- --<br>------- ------,272040,272036,271576.92,271577,271579.54,272046.2,,7,much
screen,html.Screen,2_1_1_1_8,2022-05-03T12:47:54.328Z,,,,,,,,,,,,,,,,,54,,,,,,,,,,,,,,379.79999999998836,,response,,,,100,,,,,,,Space,keypress(Space),,,,,,,,-- --- ---- --- ------ ----- ------- ---- of --- ------- --<br>------- ---------- ------ -- ----- -- ----- -- ---- ------<br>--- ----- --- --- ------ -------- ----- --- ------ ----- --<br>----- ----- ---------- --- --- ------ ------ ---- -- ------<br>------- --- ------ ----- --- ---- ------- -- ---- --- --<br>------- ------,272435,272426,272039.82,272040,272046.2,272446.2,,8,of
screen,html.Screen,2_1_1_1_9,2022-05-03T12:47:54.680Z,,,,,,,,,,,,,,,,,54,,,,,,,,,,,,,,339.79999999998836,,response,,,,100,,,,,,,Space,keypress(Space),,,,,,,,-- --- ---- --- ------ ----- ------- ---- -- its ------- --<br>------- ---------- ------ -- ----- -- ----- -- ---- ------<br>--- ----- --- --- ------ -------- ----- --- ------ ----- --<br>----- ----- ---------- --- --- ------ ------ ---- -- ------<br>------- --- ------ ----- --- ---- ------- -- ---- --- --<br>------- ------,272787,272786,272435.2,272436,272446.2,272796.2,,9,its
screen,html.Screen,2_1_1_1_10,2022-05-03T12:47:55.167Z,,,,,,,,,,,,,,,,,54,,,,,,,,,,,,,,473.79999999998836,,response,,,,100,,,,,,,Space,keypress(Space),,,,,,,,-- --- ---- --- ------ ----- ------- ---- -- --- revenue --<br>------- ---------- ------ -- ----- -- ----- -- ---- ------<br>--- ----- --- --- ------ -------- ----- --- ------ ----- --<br>----- ----- ---------- --- --- ------ ------ ---- -- ------<br>------- --- ------ ----- --- ---- ------- -- ---- --- --<br>------- ------,273274,273270,272787.24,272787,272796.2,273279.54,,10,revenue
screen,html.Screen,2_1_1_1_11,2022-05-03T12:47:55.664Z,,,,,,,,,,,,,,,,,54,,,,,,,,,,,,,,475.46000000002095,,response,,,,100,,,,,,,Space,keypress(Space),,,,,,,,-- --- ---- --- ------ ----- ------- ---- -- --- ------- by<br>------- ---------- ------ -- ----- -- ----- -- ---- ------<br>--- ----- --- --- ------ -------- ----- --- ------ ----- --<br>----- ----- ---------- --- --- ------ ------ ---- -- ------<br>------- --- ------ ----- --- ---- ------- -- ---- --- --<br>------- ------,273771,273755,273273.96,273274,273279.54,273779.54,,11,by
screen,html.Screen,2_1_1_1_12,2022-05-03T12:47:56.191Z,,,,,,,,,,,,,,,,,54,,,,,,,,,,,,,,506.46000000002095,,response,,,,100,,,,,,,Space,keypress(Space),,,,,,,,-- --- ---- --- ------ ----- ------- ---- -- --- ------- --<br>issuing ---------- ------ -- ----- -- ----- -- ---- ------<br>--- ----- --- --- ------ -------- ----- --- ------ ----- --<br>----- ----- ---------- --- --- ------ ------ ---- -- ------<br>------- --- ------ ----- --- ---- ------- -- ---- --- --<br>------- ------,274298,274286,273770.6,273771,273779.54,274312.86,,12,issuing
screen,html.Screen,2_1_1_1_13,2022-05-03T12:47:56.670Z,,,,,,,,,,,,,,,,,54,,,,,,,,,,,,,,458.14000000001397,,response,,,,100,,,,,,,Space,keypress(Space),,,,,,,,-- --- ---- --- ------ ----- ------- ---- -- --- ------- --<br>------- government ------ -- ----- -- ----- -- ---- ------<br>--- ----- --- --- ------ -------- ----- --- ------ ----- --<br>----- ----- ---------- --- --- ------ ------ ---- -- ------<br>------- --- ------ ----- --- ---- ------- -- ---- --- --<br>------- ------,274777,274771,274297.5,274298,274312.86,274779.54,,13,government
screen,html.Screen,2_1_1_1_14,2022-05-03T12:47:57.109Z,,,,,,,,,,,,,,,,,54,,,,,,,,,,,,,,428.46000000002095,,response,,,,100,,,,,,,Space,keypress(Space),,,,,,,,-- --- ---- --- ------ ----- ------- ---- -- --- ------- --<br>------- ---------- bonds. -- ----- -- ----- -- ---- ------<br>--- ----- --- --- ------ -------- ----- --- ------ ----- --<br>----- ----- ---------- --- --- ------ ------ ---- -- ------<br>------- --- ------ ----- --- ---- ------- -- ---- --- --<br>------- ------,275215,275208,274777.4,274777,274779.54,275229.54,,14,bonds.
screen,html.Screen,2_1_1_1_15,2022-05-03T12:47:57.911Z,,,,,,,,,,,,,,,,,54,,,,,,,,,,,,,,775.460000000021,,response,,,,100,,,,,,,Space,keypress(Space),,,,,,,,-- --- ---- --- ------ ----- ------- ---- -- --- ------- --<br>------- ---------- ------ In ----- -- ----- -- ---- ------<br>--- ----- --- --- ------ -------- ----- --- ------ ----- --<br>----- ----- ---------- --- --- ------ ------ ---- -- ------<br>------- --- ------ ----- --- ---- ------- -- ---- --- --<br>------- ------,276018,276005,275215.52,275215,275229.54,276029.54,,15,In
screen,html.Screen,2_1_1_1_16,2022-05-03T12:47:58.379Z,,,,,,,,,,,,,,,,,54,,,,,,,,,,,,,,443.46000000002095,,response,,,,100,,,,,,,Space,keypress(Space),,,,,,,,"-- --- ---- --- ------ ----- ------- ---- -- --- ------- --<br>------- ---------- ------ -- 1727, -- ----- -- ---- ------<br>--- ----- --- --- ------ -------- ----- --- ------ ----- --<br>----- ----- ---------- --- --- ------ ------ ---- -- ------<br>------- --- ------ ----- --- ---- ------- -- ---- --- --<br>------- ------",276486,276473,276018.58,276018,276029.54,276496.2,,16,"1727,"
screen,html.Screen,2_1_1_1_17,2022-05-03T12:47:58.804Z,,,,,,,,,,,,,,,,,54,,,,,,,,,,,,,,398.79999999998836,,response,,,,100,,,,,,,Space,keypress(Space),,,,,,,,-- --- ---- --- ------ ----- ------- ---- -- --- ------- --<br>------- ---------- ------ -- ----- in ----- -- ---- ------<br>--- ----- --- --- ------ -------- ----- --- ------ ----- --<br>----- ----- ---------- --- --- ------ ------ ---- -- ------<br>------- --- ------ ----- --- ---- ------- -- ---- --- --<br>------- ------,276910,276895,276486.04,276486,276496.2,276912.86,,17,in
screen,html.Screen,2_1_1_1_18,2022-05-03T12:47:59.491Z,,,,,,,,,,,,,,,,,54,,,,,,,,,,,,,,670.140000000014,,response,,,,100,,,,,,,Space,keypress(Space),,,,,,,,-- --- ---- --- ------ ----- ------- ---- -- --- ------- --<br>------- ---------- ------ -- ----- -- order -- ---- ------<br>--- ----- --- --- ------ -------- ----- --- ------ ----- --<br>----- ----- ---------- --- --- ------ ------ ---- -- ------<br>------- --- ------ ----- --- ---- ------- -- ---- --- --<br>------- ------,277597,277583,276910.18,276910,276912.86,277612.86,,18,order
screen,html.Screen,2_1_1_1_19,2022-05-03T12:48:00.009Z,,,,,,,,,,,,,,,,,54,,,,,,,,,,,,,,501.14000000001397,,response,,,,100,,,,,,,Space,keypress(Space),,,,,,,,-- --- ---- --- ------ ----- ------- ---- -- --- ------- --<br>------- ---------- ------ -- ----- -- ----- to ---- ------<br>--- ----- --- --- ------ -------- ----- --- ------ ----- --<br>----- ----- ---------- --- --- ------ ------ ---- -- ------<br>------- --- ------ ----- --- ---- ------- -- ---- --- --<br>------- ------,278116,278114,277597.36,277597,277612.86,278129.54,,19,to
screen,html.Screen,2_1_1_1_20,2022-05-03T12:48:00.383Z,,,,,,,,,,,,,,,,,54,,,,,,,,,,,,,,343.46000000002095,,response,,,,100,,,,,,,Space,keypress(Space),,,,,,,,-- --- ---- --- ------ ----- ------- ---- -- --- ------- --<br>------- ---------- ------ -- ----- -- ----- -- save ------<br>--- ----- --- --- ------ -------- ----- --- ------ ----- --<br>----- ----- ---------- --- --- ------ ------ ---- -- ------<br>------- --- ------ ----- --- ---- ------- -- ---- --- --<br>------- ------,278490,278473,278116.04,278116,278129.54,278496.2,,20,save
screen,html.Screen,2_1_1_1_21,2022-05-03T12:48:00.828Z,,,,,,,,,,,,,,,,,54,,,,,,,,,,,,,,429.79999999998836,,response,,,,100,,,,,,,Space,keypress(Space),,,,,,,,"-- --- ---- --- ------ ----- ------- ---- -- --- ------- --<br>------- ---------- ------ -- ----- -- ----- -- ---- money,<br>--- ----- --- --- ------ -------- ----- --- ------ ----- --<br>----- ----- ---------- --- --- ------ ------ ---- -- ------<br>------- --- ------ ----- --- ---- ------- -- ---- --- --<br>------- ------",278935,278926,278490.5,278490,278496.2,278946.2,,21,"money,"
screen,html.Screen,2_1_1_1_22,2022-05-03T12:48:01.235Z,,,,,,,,,,,,,,,,,54,,,,,,,,,,,,,,386.79999999998836,,response,,,,100,,,,,,,Space,keypress(Space),,,,,,,,-- --- ---- --- ------ ----- ------- ---- -- --- ------- --<br>------- ---------- ------ -- ----- -- ----- -- ---- ------<br>the ----- --- --- ------ -------- ----- --- ------ ----- --<br>----- ----- ---------- --- --- ------ ------ ---- -- ------<br>------- --- ------ ----- --- ---- ------- -- ---- --- --<br>------- ------,279342,279333,278935.66,278936,278946.2,279346.2,,22,the
screen,html.Screen,2_1_1_1_23,2022-05-03T12:48:01.641Z,,,,,,,,,,,,,,,,,54,,,,,,,,,,,,,,392.79999999998836,,response,,,,100,,,,,,,Space,keypress(Space),,,,,,,,-- --- ---- --- ------ ----- ------- ---- -- --- ------- --<br>------- ---------- ------ -- ----- -- ----- -- ---- ------<br>--- state --- --- ------ -------- ----- --- ------ ----- --<br>----- ----- ---------- --- --- ------ ------ ---- -- ------<br>------- --- ------ ----- --- ---- ------- -- ---- --- --<br>------- ------,279748,279739,279342.38,279343,279346.2,279762.86,,23,state
screen,html.Screen,2_1_1_1_24,2022-05-03T12:48:02.194Z,,,,,,,,,,,,,,,,,54,,,,,,,,,,,,,,523.140000000014,,response,,,,100,,,,,,,Space,keypress(Space),,,,,,,,-- --- ---- --- ------ ----- ------- ---- -- --- ------- --<br>------- ---------- ------ -- ----- -- ----- -- ---- ------<br>--- ----- cut --- ------ -------- ----- --- ------ ----- --<br>----- ----- ---------- --- --- ------ ------ ---- -- ------<br>------- --- ------ ----- --- ---- ------- -- ---- --- --<br>------- ------,280301,280286,279748.2,279748,279762.86,280312.86,,24,cut
screen,html.Screen,2_1_1_1_25,2022-05-03T12:48:02.569Z,,,,,,,,,,,,,,,,,54,,,,,,,,,,,,,,348.14000000001397,,response,,,,100,,,,,,,Space,keypress(Space),,,,,,,,-- --- ---- --- ------ ----- ------- ---- -- --- ------- --<br>------- ---------- ------ -- ----- -- ----- -- ---- ------<br>--- ----- --- the ------ -------- ----- --- ------ ----- --<br>----- ----- ---------- --- --- ------ ------ ---- -- ------<br>------- --- ------ ----- --- ---- ------- -- ---- --- --<br>------- ------,280675,280661,280301.22,280302,280312.86,280679.54,,25,the
screen,html.Screen,2_1_1_1_26,2022-05-03T12:48:02.935Z,,,,,,,,,,,,,,,,,54,,,,,,,,,,,,,,356.46000000002095,,response,,,,100,,,,,,,Space,keypress(Space),,,,,,,,-- --- ---- --- ------ ----- ------- ---- -- --- ------- --<br>------- ---------- ------ -- ----- -- ----- -- ---- ------<br>--- ----- --- --- bonds' -------- ----- --- ------ ----- --<br>----- ----- ---------- --- --- ------ ------ ---- -- ------<br>------- --- ------ ----- --- ---- ------- -- ---- --- --<br>------- ------,281043,281036,280675.58,280675,280679.54,281046.2,,26,bonds'
screen,html.Screen,2_1_1_1_27,2022-05-03T12:48:03.349Z,,,,,,,,,,,,,,,,,54,,,,,,,,,,,,,,395.79999999998836,,response,,,,100,,,,,,,Space,keypress(Space),,,,,,,,-- --- ---- --- ------ ----- ------- ---- -- --- ------- --<br>------- ---------- ------ -- ----- -- ----- -- ---- ------<br>--- ----- --- --- ------ interest ----- --- ------ ----- --<br>----- ----- ---------- --- --- ------ ------ ---- -- ------<br>------- --- ------ ----- --- ---- ------- -- ---- --- --<br>------- ------,281456,281442,281042.46,281043,281046.2,281462.86,,27,interest
screen,html.Screen,2_1_1_1_28,2022-05-03T12:48:03.732Z,,,,,,,,,,,,,,,,,54,,,,,,,,,,,,,,370.14000000001397,,response,,,,100,,,,,,,Space,keypress(Space),,,,,,,,-- --- ---- --- ------ ----- ------- ---- -- --- ------- --<br>------- ---------- ------ -- ----- -- ----- -- ---- ------<br>--- ----- --- --- ------ -------- rate. --- ------ ----- --<br>----- ----- ---------- --- --- ------ ------ ---- -- ------<br>------- --- ------ ----- --- ---- ------- -- ---- --- --<br>------- ------,281839,281833,281456.24,281457,281462.86,281846.2,,28,rate.
screen,html.Screen,2_1_1_1_29,2022-05-03T12:48:04.210Z,,,,,,,,,,,,,,,,,54,,,,,,,,,,,,,,454.79999999998836,,response,,,,100,,,,,,,Space,keypress(Space),,,,,,,,-- --- ---- --- ------ ----- ------- ---- -- --- ------- --<br>------- ---------- ------ -- ----- -- ----- -- ---- ------<br>--- ----- --- --- ------ -------- ----- The ------ ----- --<br>----- ----- ---------- --- --- ------ ------ ---- -- ------<br>------- --- ------ ----- --- ---- ------- -- ---- --- --<br>------- ------,282317,282301,281839.32,281839,281846.2,282329.54,,29,The
screen,html.Screen,2_1_1_1_30,2022-05-03T12:48:04.636Z,,,,,,,,,,,,,,,,,54,,,,,,,,,,,,,,409.46000000002095,,response,,,,100,,,,,,,Space,keypress(Space),,,,,,,,-- --- ---- --- ------ ----- ------- ---- -- --- ------- --<br>------- ---------- ------ -- ----- -- ----- -- ---- ------<br>--- ----- --- --- ------ -------- ----- --- market ----- --<br>----- ----- ---------- --- --- ------ ------ ---- -- ------<br>------- --- ------ ----- --- ---- ------- -- ---- --- --<br>------- ------,282742,282739,282317.26,282317,282329.54,282746.2,,30,market
screen,html.Screen,2_1_1_1_31,2022-05-03T12:48:04.978Z,,,,,,,,,,,,,,,,,54,,,,,,,,,,,,,,336.79999999998836,,response,,,,100,,,,,,,Space,keypress(Space),,,,,,,,-- --- ---- --- ------ ----- ------- ---- -- --- ------- --<br>------- ---------- ------ -- ----- -- ----- -- ---- ------<br>--- ----- --- --- ------ -------- ----- --- ------ value --<br>----- ----- ---------- --- --- ------ ------ ---- -- ------<br>------- --- ------ ----- --- ---- ------- -- ---- --- --<br>------- ------,283084,283083,282742.52,282743,282746.2,283096.2,,31,value
screen,html.Screen,2_1_1_1_32,2022-05-03T12:48:05.396Z,,,,,,,,,,,,,,,,,54,,,,,,,,,,,,,,392.79999999998836,,response,,,,100,,,,,,,Space,keypress(Space),,,,,,,,-- --- ---- --- ------ ----- ------- ---- -- --- ------- --<br>------- ---------- ------ -- ----- -- ----- -- ---- ------<br>--- ----- --- --- ------ -------- ----- --- ------ ----- of<br>----- ----- ---------- --- --- ------ ------ ---- -- ------<br>------- --- ------ ----- --- ---- ------- -- ---- --- --<br>------- ------,283503,283489,283084.46,283084,283096.2,283512.86,,32,of
screen,html.Screen,2_1_1_1_33,2022-05-03T12:48:05.767Z,,,,,,,,,,,,,,,,,54,,,,,,,,,,,,,,351.14000000001397,,response,,,,100,,,,,,,Space,keypress(Space),,,,,,,,-- --- ---- --- ------ ----- ------- ---- -- --- ------- --<br>------- ---------- ------ -- ----- -- ----- -- ---- ------<br>--- ----- --- --- ------ -------- ----- --- ------ ----- --<br>these ----- ---------- --- --- ------ ------ ---- -- ------<br>------- --- ------ ----- --- ---- ------- -- ---- --- --<br>------- ------,283874,283864,283503.46,283503,283512.86,283879.54,,33,these
screen,html.Screen,2_1_1_1_34,2022-05-03T12:48:06.169Z,,,,,,,,,,,,,,,,,54,,,,,,,,,,,,,,390.46000000002095,,response,,,,100,,,,,,,Space,keypress(Space),,,,,,,,-- --- ---- --- ------ ----- ------- ---- -- --- ------- --<br>------- ---------- ------ -- ----- -- ----- -- ---- ------<br>--- ----- --- --- ------ -------- ----- --- ------ ----- --<br>----- bonds ---------- --- --- ------ ------ ---- -- ------<br>------- --- ------ ----- --- ---- ------- -- ---- --- --<br>------- ------,284276,284270,283873.88,283874,283879.54,284279.54,,34,bonds
screen,html.Screen,2_1_1_1_35,2022-05-03T12:48:06.616Z,,,,,,,,,,,,,,,,,54,,,,,,,,,,,,,,428.46000000002095,,response,,,,100,,,,,,,Space,keypress(Space),,,,,,,,"-- --- ---- --- ------ ----- ------- ---- -- --- ------- --<br>------- ---------- ------ -- ----- -- ----- -- ---- ------<br>--- ----- --- --- ------ -------- ----- --- ------ ----- --<br>----- ----- plummeted, --- --- ------ ------ ---- -- ------<br>------- --- ------ ----- --- ---- ------- -- ---- --- --<br>------- ------",284723,284708,284276.2,284276,284279.54,284729.54,,35,"plummeted,"
screen,html.Screen,2_1_1_1_36,2022-05-03T12:48:07.014Z,,,,,,,,,,,,,,,,,54,,,,,,,,,,,,,,384.46000000002095,,response,,,,100,,,,,,,Space,keypress(Space),,,,,,,,-- --- ---- --- ------ ----- ------- ---- -- --- ------- --<br>------- ---------- ------ -- ----- -- ----- -- ---- ------<br>--- ----- --- --- ------ -------- ----- --- ------ ----- --<br>----- ----- ---------- and --- ------ ------ ---- -- ------<br>------- --- ------ ----- --- ---- ------- -- ---- --- --<br>------- ------,285120,285114,284723.3,284723,284729.54,285129.54,,36,and
screen,html.Screen,2_1_1_1_37,2022-05-03T12:48:07.467Z,,,,,,,,,,,,,,,,,54,,,,,,,,,,,,,,437.46000000002095,,response,,,,100,,,,,,,Space,keypress(Space),,,,,,,,-- --- ---- --- ------ ----- ------- ---- -- --- ------- --<br>------- ---------- ------ -- ----- -- ----- -- ---- ------<br>--- ----- --- --- ------ -------- ----- --- ------ ----- --<br>----- ----- ---------- --- the ------ ------ ---- -- ------<br>------- --- ------ ----- --- ---- ------- -- ---- --- --<br>------- ------,285574,285567,285120.84,285120,285129.54,285579.54,,37,the
screen,html.Screen,2_1_1_1_38,2022-05-03T12:48:07.942Z,,,,,,,,,,,,,,,,,54,,,,,,,,,,,,,,456.46000000002095,,response,,,,100,,,,,,,Space,keypress(Space),,,,,,,,-- --- ---- --- ------ ----- ------- ---- -- --- ------- --<br>------- ---------- ------ -- ----- -- ----- -- ---- ------<br>--- ----- --- --- ------ -------- ----- --- ------ ----- --<br>----- ----- ---------- --- --- market ------ ---- -- ------<br>------- --- ------ ----- --- ---- ------- -- ---- --- --<br>------- ------,286050,286036,285574.5,285575,285579.54,286062.86,,38,market
screen,html.Screen,2_1_1_1_39,2022-05-03T12:48:08.383Z,,,,,,,,,,,,,,,,,54,,,,,,,,,,,,,,410.14000000001397,,response,,,,100,,,,,,,Space,keypress(Space),,,,,,,,-- --- ---- --- ------ ----- ------- ---- -- --- ------- --<br>------- ---------- ------ -- ----- -- ----- -- ---- ------<br>--- ----- --- --- ------ -------- ----- --- ------ ----- --<br>----- ----- ---------- --- --- ------ became ---- -- ------<br>------- --- ------ ----- --- ---- ------- -- ---- --- --<br>------- ------,286490,286473,286049.86,286050,286062.86,286496.2,,39,became
screen,html.Screen,2_1_1_1_40,2022-05-03T12:48:08.841Z,,,,,,,,,,,,,,,,,54,,,,,,,,,,,,,,445.79999999998836,,response,,,,100,,,,,,,Space,keypress(Space),,,,,,,,-- --- ---- --- ------ ----- ------- ---- -- --- ------- --<br>------- ---------- ------ -- ----- -- ----- -- ---- ------<br>--- ----- --- --- ------ -------- ----- --- ------ ----- --<br>----- ----- ---------- --- --- ------ ------ wary -- ------<br>------- --- ------ ----- --- ---- ------- -- ---- --- --<br>------- ------,286947,286942,286490.28,286490,286496.2,286962.86,,40,wary
screen,html.Screen,2_1_1_1_41,2022-05-03T12:48:09.191Z,,,,,,,,,,,,,,,,,54,,,,,,,,,,,,,,323.14000000001397,,response,,,,100,,,,,,,Space,keypress(Space),,,,,,,,-- --- ---- --- ------ ----- ------- ---- -- --- ------- --<br>------- ---------- ------ -- ----- -- ----- -- ---- ------<br>--- ----- --- --- ------ -------- ----- --- ------ ----- --<br>----- ----- ---------- --- --- ------ ------ ---- of ------<br>------- --- ------ ----- --- ---- ------- -- ---- --- --<br>------- ------,287299,287286,286947.42,286947,286962.86,287312.86,,41,of
screen,html.Screen,2_1_1_1_42,2022-05-03T12:48:09.601Z,,,,,,,,,,,,,,,,,54,,,,,,,,,,,,,,379.14000000001397,,response,,,,100,,,,,,,Space,keypress(Space),,,,,,,,-- --- ---- --- ------ ----- ------- ---- -- --- ------- --<br>------- ---------- ------ -- ----- -- ----- -- ---- ------<br>--- ----- --- --- ------ -------- ----- --- ------ ----- --<br>----- ----- ---------- --- --- ------ ------ ---- -- French<br>------- --- ------ ----- --- ---- ------- -- ---- --- --<br>------- ------,287707,287692,287298.46,287299,287312.86,287712.86,,42,French
screen,html.Screen,2_1_1_1_43,2022-05-03T12:48:10.003Z,,,,,,,,,,,,,,,,,54,,,,,,,,,,,,,,385.14000000001397,,response,,,,100,,,,,,,Space,keypress(Space),,,,,,,,-- --- ---- --- ------ ----- ------- ---- -- --- ------- --<br>------- ---------- ------ -- ----- -- ----- -- ---- ------<br>--- ----- --- --- ------ -------- ----- --- ------ ----- --<br>----- ----- ---------- --- --- ------ ------ ---- -- ------<br>credit. --- ------ ----- --- ---- ------- -- ---- --- --<br>------- ------,288109,288098,287707.8,287707,287712.86,288112.86,,43,credit.
screen,html.Screen,2_1_1_1_44,2022-05-03T12:48:10.472Z,,,,,,,,,,,,,,,,,54,,,,,,,,,,,,,,454.14000000001397,,response,,,,100,,,,,,,Space,keypress(Space),,,,,,,,-- --- ---- --- ------ ----- ------- ---- -- --- ------- --<br>------- ---------- ------ -- ----- -- ----- -- ---- ------<br>--- ----- --- --- ------ -------- ----- --- ------ ----- --<br>----- ----- ---------- --- --- ------ ------ ---- -- ------<br>------- The ------ ----- --- ---- ------- -- ---- --- --<br>------- ------,288579,288567,288109.38,288109,288112.86,288579.54,,44,The
screen,html.Screen,2_1_1_1_45,2022-05-03T12:48:10.886Z,,,,,,,,,,,,,,,,,54,,,,,,,,,,,,,,409.46000000002095,,response,,,,100,,,,,,,Space,keypress(Space),,,,,,,,-- --- ---- --- ------ ----- ------- ---- -- --- ------- --<br>------- ---------- ------ -- ----- -- ----- -- ---- ------<br>--- ----- --- --- ------ -------- ----- --- ------ ----- --<br>----- ----- ---------- --- --- ------ ------ ---- -- ------<br>------- --- French ----- --- ---- ------- -- ---- --- --<br>------- ------,288993,288989,288579.38,288579,288579.54,288996.2,,45,French
screen,html.Screen,2_1_1_1_46,2022-05-03T12:48:11.292Z,,,,,,,,,,,,,,,,,54,,,,,,,,,,,,,,398.79999999998836,,response,,,,100,,,,,,,Space,keypress(Space),,,,,,,,-- --- ---- --- ------ ----- ------- ---- -- --- ------- --<br>------- ---------- ------ -- ----- -- ----- -- ---- ------<br>--- ----- --- --- ------ -------- ----- --- ------ ----- --<br>----- ----- ---------- --- --- ------ ------ ---- -- ------<br>------- --- ------ state --- ---- ------- -- ---- --- --<br>------- ------,289399,289395,288993.16,288993,288996.2,289412.86,,46,state
screen,html.Screen,2_1_1_1_47,2022-05-03T12:48:11.724Z,,,,,,,,,,,,,,,,,54,,,,,,,,,,,,,,404.14000000001397,,response,,,,100,,,,,,,Space,keypress(Space),,,,,,,,-- --- ---- --- ------ ----- ------- ---- -- --- ------- --<br>------- ---------- ------ -- ----- -- ----- -- ---- ------<br>--- ----- --- --- ------ -------- ----- --- ------ ----- --<br>----- ----- ---------- --- --- ------ ------ ---- -- ------<br>------- --- ------ ----- was ---- ------- -- ---- --- --<br>------- ------,289831,289817,289399.44,289399,289412.86,289846.2,,47,was
screen,html.Screen,2_1_1_1_48,2022-05-03T12:48:12.125Z,,,,,,,,,,,,,,,,,54,,,,,,,,,,,,,,376.79999999998836,,response,,,,100,,,,,,,Space,keypress(Space),,,,,,,,-- --- ---- --- ------ ----- ------- ---- -- --- ------- --<br>------- ---------- ------ -- ----- -- ----- -- ---- ------<br>--- ----- --- --- ------ -------- ----- --- ------ ----- --<br>----- ----- ---------- --- --- ------ ------ ---- -- ------<br>------- --- ------ ----- --- left ------- -- ---- --- --<br>------- ------,290231,290223,289831.2,289831,289846.2,290246.2,,48,left
screen,html.Screen,2_1_1_1_49,2022-05-03T12:48:12.564Z,,,,,,,,,,,,,,,,,54,,,,,,,,,,,,,,414.79999999998836,,response,,,,100,,,,,,,Space,keypress(Space),,,,,,,,-- --- ---- --- ------ ----- ------- ---- -- --- ------- --<br>------- ---------- ------ -- ----- -- ----- -- ---- ------<br>--- ----- --- --- ------ -------- ----- --- ------ ----- --<br>----- ----- ---------- --- --- ------ ------ ---- -- ------<br>------- --- ------ ----- --- ---- without -- ---- --- --<br>------- ------,290671,290661,290231.48,290231,290246.2,290679.54,,49,without
screen,html.Screen,2_1_1_1_50,2022-05-03T12:48:12.962Z,,,,,,,,,,,,,,,,,54,,,,,,,,,,,,,,387.46000000002095,,response,,,,100,,,,,,,Space,keypress(Space),,,,,,,,-- --- ---- --- ------ ----- ------- ---- -- --- ------- --<br>------- ---------- ------ -- ----- -- ----- -- ---- ------<br>--- ----- --- --- ------ -------- ----- --- ------ ----- --<br>----- ----- ---------- --- --- ------ ------ ---- -- ------<br>------- --- ------ ----- --- ---- ------- an ---- --- --<br>------- ------,291069,291067,290670.94,290671,290679.54,291079.54,,50,an
screen,html.Screen,2_1_1_1_51,2022-05-03T12:48:13.344Z,,,,,,,,,,,,,,,,,54,,,,,,,,,,,,,,362.46000000002095,,response,,,,100,,,,,,,Space,keypress(Space),,,,,,,,-- --- ---- --- ------ ----- ------- ---- -- --- ------- --<br>------- ---------- ------ -- ----- -- ----- -- ---- ------<br>--- ----- --- --- ------ -------- ----- --- ------ ----- --<br>----- ----- ---------- --- --- ------ ------ ---- -- ------<br>------- --- ------ ----- --- ---- ------- -- easy --- --<br>------- ------,291451,291442,291068.98,291069,291079.54,291462.86,,51,easy
screen,html.Screen,2_1_1_1_52,2022-05-03T12:48:13.707Z,,,,,,,,,,,,,,,,,54,,,,,,,,,,,,,,338.14000000001397,,response,,,,100,,,,,,,Space,keypress(Space),,,,,,,,-- --- ---- --- ------ ----- ------- ---- -- --- ------- --<br>------- ---------- ------ -- ----- -- ----- -- ---- ------<br>--- ----- --- --- ------ -------- ----- --- ------ ----- --<br>----- ----- ---------- --- --- ------ ------ ---- -- ------<br>------- --- ------ ----- --- ---- ------- -- ---- way --<br>------- ------,291813,291801,291450.94,291451,291462.86,291829.54,,52,way
screen,html.Screen,2_1_1_1_53,2022-05-03T12:48:14.190Z,,,,,,,,,,,,,,,,,54,,,,,,,,,,,,,,456.46000000002095,,response,,,,100,,,,,,,Space,keypress(Space),,,,,,,,-- --- ---- --- ------ ----- ------- ---- -- --- ------- --<br>------- ---------- ------ -- ----- -- ----- -- ---- ------<br>--- ----- --- --- ------ -------- ----- --- ------ ----- --<br>----- ----- ---------- --- --- ------ ------ ---- -- ------<br>------- --- ------ ----- --- ---- ------- -- ---- --- of<br>------- ------,292297,292286,291813.34,291813,291829.54,292312.86,,53,of
screen,html.Screen,2_1_1_1_54,2022-05-03T12:48:14.733Z,,,,,,,,,,,,,,,,,54,,,,,,,,,,,,,,520.140000000014,,response,,,,100,,,,,,,Space,keypress(Space),,,,,,,,-- --- ---- --- ------ ----- ------- ---- -- --- ------- --<br>------- ---------- ------ -- ----- -- ----- -- ---- ------<br>--- ----- --- --- ------ -------- ----- --- ------ ----- --<br>----- ----- ---------- --- --- ------ ------ ---- -- ------<br>------- --- ------ ----- --- ---- ------- -- ---- --- --<br>raising ------,292840,292833,292297.06,292297,292312.86,292846.2,,54,raising
screen,html.Screen,2_1_1_1_55,2022-05-03T12:48:15.262Z,,,,,,,,,,,,,,,,,54,,,,,,,,,,,,,,517.7999999999884,,response,,,,100,,,,,,,Space,keypress(Space),,,,,,,,-- --- ---- --- ------ ----- ------- ---- -- --- ------- --<br>------- ---------- ------ -- ----- -- ----- -- ---- ------<br>--- ----- --- --- ------ -------- ----- --- ------ ----- --<br>----- ----- ---------- --- --- ------ ------ ---- -- ------<br>------- --- ------ ----- --- ---- ------- -- ---- --- --<br>------- money.,293369,293364,292840.36,292840,292846.2,293379.54,,55,money.
Item 100,flow.Loop,2_1_1_1,2022-05-03T12:48:15.262Z,,,,,,,,,,,,,,,,,,,,,,,,,,,,,,,25152.76000000001,,completion,,,,,H,,,,,,,,,,,silence,,,,,293369,293364,268194.56,268197,268211.24,293379.54,,,
Question 1,html.Screen,2_1_1_2,2022-05-03T12:48:17.936Z,,,,,,,,,,,,,,,,,,,,,,,,,,,,true,TRUE,,2656.460000000021,,response,,,,100,H,,,,,,TRUE,click #choice-1,,,,silence,,,,,296043,296036,293369.66,293369,293379.54,296046.2,,,
Question 2,html.Screen,2_1_1_3,2022-05-03T12:48:22.604Z,,,,,,,,,,,,,,,,,,,,,,,,,,,,true,FALSE,,4661.799999999988,,response,,,,100,H,,,,,,FALSE,click #choice-2,,,,silence,,,,,300710,300708,296042.66,296043,296046.2,300712.86,,,
Item 100,flow.Sequence,2_1_1,2022-05-03T12:48:22.604Z,,,,,,,,,,,,,,,,,,,,,,,,,,,,,,,42496.76000000001,,completion,,,,,,,,,,,,,,,,,,,,,300710,300708,258203.98,258206,258211.24,300712.86,,,
End of Practice,html.Page,2_1_2,2022-05-03T12:48:36.068Z,,,,,,,,,,,,,,,,,,,,,,,,,,,,,,,13462.140000000014,,form submission,,,,,,,,,,,,,,,,,,,,,314175,314175,300709.62,300710,300712.86,314179.54,,,
Practice,flow.Sequence,2_1,2022-05-03T12:48:36.068Z,,,,,,,,,,,,,,,,,,,,,,,,,,,,,,,107397.1,,completion,,,,,,,,,,,,,,,,,,,,,314175,314175,206765.32,206768,206777.9,314179.54,,,
Trap_instruction,html.Page,2_2_0,2022-05-03T12:48:39.739Z,,,,,,,,,,,,,,,,,,,,,,,,,,,,,,,3666.460000000021,,form submission,,,,,,,,,,,,,,,,,,,,,317846,317846,314173.24,314175,314179.54,317846.2,,,
trap_trial,html.Screen,2_2_1,2022-05-03T12:48:43.141Z,,,,,,,,,,,,,,,,,,,,,,,,,,,,true,1,,3392.7999999999884,,response,,,,,,,,,,,1,click #choice-1,,,,,,,,,321248,321239,317845.52,317846,317846.2,321262.86,,,
end of trap trial,html.Page,2_2_2,2022-05-03T12:48:45.330Z,,,,,,,,,,,,,,,,,,,,,,,,,,,,,,,2174.140000000014,,form submission,,,,,,,,,,,,,,,,,,,,,323437,323437,321247.76,321248,321262.86,323446.2,,,
Trap 1,flow.Sequence,2_2,2022-05-03T12:48:45.330Z,,,,,,,,,,,,,,,,,,,,,,,,,,,,,,,9257.460000000021,,completion,,,,,,,,,,,,,,,,,,,,,323437,323437,314173.24,314175,314179.54,323446.2,,,
Standby,html.Page,2_3_0,2022-05-03T12:48:53.324Z,,,,,,,,,,,,,,,,,,,,,,,,,,,,,,,8000,,timeout,,,,,,,,,,,,,,,,,,,,,331430,331429.54,323436.16,323437,323446.2,331446.2,,,
Holding screen,html.Screen,2_3_1_0_0,2022-05-03T12:49:00.324Z,,,,,,,,,,,,,,,,,,,,,,,,,,,,,,,7000,,timeout,,,,,,,,,,,,,,,,,,,,,338431,338429.54,331429.54,331430,331446.2,338446.2,,,
screen,html.Screen,2_3_1_0_1_0,2022-05-03T12:49:01.012Z,,,,,,,,,,,,,,,,,2,,,,,,,,,,,,,,667.7999999999884,,response,,,,1,H,,,,,,Space,keypress(Space),,,,speech,,,,Two ---- ------ --- ------- ---------- ------- ----------<br>--- --------- --- ----------- ------- ----- ------- ---<br>--------- ---- -- --- ---- -- --------- -- ---- -------<br>-- --------- ------ --- ----- ------ ---- --- --------- --<br>------ - ---- -- --- ----------- ------- ---- ----- -----<br>--- -------- - ------ ---- -- ----- ---- --- --- -----------<br>-- -------,339119,339114,338429.54,338431,338446.2,339129.54,,0,Two
screen,html.Screen,2_3_1_0_1_1,2022-05-03T12:49:01.599Z,,,,,,,,,,,,,,,,,2,,,,,,,,,,,,,,563.460000000021,,response,,,,1,H,,,,,,Space,keypress(Space),,,,speech,,,,--- days ------ --- ------- ---------- ------- ----------<br>--- --------- --- ----------- ------- ----- ------- ---<br>--------- ---- -- --- ---- -- --------- -- ---- -------<br>-- --------- ------ --- ----- ------ ---- --- --------- --<br>------ - ---- -- --- ----------- ------- ---- ----- -----<br>--- -------- - ------ ---- -- ----- ---- --- --- -----------<br>-- -------,339706,339693,339119.46,339120,339129.54,339712.86,,1,days
screen,html.Screen,2_3_1_0_1_2,2022-05-03T12:49:02.145Z,,,,,,,,,,,,,,,,,2,,,,,,,,,,,,,,526.140000000014,,response,,,,1,H,,,,,,Space,keypress(Space),,,,speech,,,,"--- ---- later, --- ------- ---------- ------- ----------<br>--- --------- --- ----------- ------- ----- ------- ---<br>--------- ---- -- --- ---- -- --------- -- ---- -------<br>-- --------- ------ --- ----- ------ ---- --- --------- --<br>------ - ---- -- --- ----------- ------- ---- ----- -----<br>--- -------- - ------ ---- -- ----- ---- --- --- -----------<br>-- -------",340253,340239,339705.94,339706,339712.86,340262.86,,2,"later,"
screen,html.Screen,2_3_1_0_1_3,2022-05-03T12:49:02.589Z,,,,,,,,,,,,,,,,,2,,,,,,,,,,,,,,429.14000000001397,,response,,,,1,H,,,,,,Space,keypress(Space),,,,speech,,,,--- ---- ------ the ------- ---------- ------- ----------<br>--- --------- --- ----------- ------- ----- ------- ---<br>--------- ---- -- --- ---- -- --------- -- ---- -------<br>-- --------- ------ --- ----- ------ ---- --- --------- --<br>------ - ---- -- --- ----------- ------- ---- ----- -----<br>--- -------- - ------ ---- -- ----- ---- --- --- -----------<br>-- -------,340695,340692,340252.58,340253,340262.86,340696.2,,3,the
screen,html.Screen,2_3_1_0_1_4,2022-05-03T12:49:03.026Z,,,,,,,,,,,,,,,,,2,,,,,,,,,,,,,,433.79999999998836,,response,,,,1,H,,,,,,Space,keypress(Space),,,,speech,,,,--- ---- ------ --- British ---------- ------- ----------<br>--- --------- --- ----------- ------- ----- ------- ---<br>--------- ---- -- --- ---- -- --------- -- ---- -------<br>-- --------- ------ --- ----- ------ ---- --- --------- --<br>------ - ---- -- --- ----------- ------- ---- ----- -----<br>--- -------- - ------ ---- -- ----- ---- --- --- -----------<br>-- -------,341133,341130,340695.96,340696,340696.2,341146.2,,4,British
screen,html.Screen,2_3_1_0_1_5,2022-05-03T12:49:03.753Z,,,,,,,,,,,,,,,,,2,,,,,,,,,,,,,,701.7999999999884,,response,,,,1,H,,,,,,Space,keypress(Space),,,,speech,,,,--- ---- ------ --- ------- astronomer ------- ----------<br>--- --------- --- ----------- ------- ----- ------- ---<br>--------- ---- -- --- ---- -- --------- -- ---- -------<br>-- --------- ------ --- ----- ------ ---- --- --------- --<br>------ - ---- -- --- ----------- ------- ---- ----- -----<br>--- -------- - ------ ---- -- ----- ---- --- --- -----------<br>-- -------,341861,341848,341133.68,341133,341146.2,341862.86,,5,astronomer
screen,html.Screen,2_3_1_0_1_6,2022-05-03T12:49:04.451Z,,,,,,,,,,,,,,,,,2,,,,,,,,,,,,,,688.140000000014,,response,,,,1,H,,,,,,Space,keypress(Space),,,,speech,,,,--- ---- ------ --- ------- ---------- Richard ----------<br>--- --------- --- ----------- ------- ----- ------- ---<br>--------- ---- -- --- ---- -- --------- -- ---- -------<br>-- --------- ------ --- ----- ------ ---- --- --------- --<br>------ - ---- -- --- ----------- ------- ---- ----- -----<br>--- -------- - ------ ---- -- ----- ---- --- --- -----------<br>-- -------,342558,342551,341860.92,341861,341862.86,342562.86,,6,Richard
screen,html.Screen,2_3_1_0_1_7,2022-05-03T12:49:05.025Z,,,,,,,,,,,,,,,,,2,,,,,,,,,,,,,,567.140000000014,,response,,,,1,H,,,,,,Space,keypress(Space),,,,speech,,,,--- ---- ------ --- ------- ---------- ------- Carrington<br>--- --------- --- ----------- ------- ----- ------- ---<br>--------- ---- -- --- ---- -- --------- -- ---- -------<br>-- --------- ------ --- ----- ------ ---- --- --------- --<br>------ - ---- -- --- ----------- ------- ---- ----- -----<br>--- -------- - ------ ---- -- ----- ---- --- --- -----------<br>-- -------,343132,343130,342558.14,342558,342562.86,343146.2,,7,Carrington
screen,html.Screen,2_3_1_0_1_8,2022-05-03T12:49:05.583Z,,,,,,,,,,,,,,,,,2,,,,,,,,,,,,,,529.7999999999884,,response,,,,1,H,,,,,,Space,keypress(Space),,,,speech,,,,--- ---- ------ --- ------- ---------- ------- ----------<br>was --------- --- ----------- ------- ----- ------- ---<br>--------- ---- -- --- ---- -- --------- -- ---- -------<br>-- --------- ------ --- ----- ------ ---- --- --------- --<br>------ - ---- -- --- ----------- ------- ---- ----- -----<br>--- -------- - ------ ---- -- ----- ---- --- --- -----------<br>-- -------,343690,343676,343131.5,343132,343146.2,343696.2,,8,was
screen,html.Screen,2_3_1_0_1_9,2022-05-03T12:49:06.146Z,,,,,,,,,,,,,,,,,2,,,,,,,,,,,,,,542.7999999999884,,response,,,,1,H,,,,,,Space,keypress(Space),,,,speech,,,,--- ---- ------ --- ------- ---------- ------- ----------<br>--- observing --- ----------- ------- ----- ------- ---<br>--------- ---- -- --- ---- -- --------- -- ---- -------<br>-- --------- ------ --- ----- ------ ---- --- --------- --<br>------ - ---- -- --- ----------- ------- ---- ----- -----<br>--- -------- - ------ ---- -- ----- ---- --- --- -----------<br>-- -------,344252,344239,343689.4,343690,343696.2,344262.86,,9,observing
screen,html.Screen,2_3_1_0_1_10,2022-05-03T12:49:06.645Z,,,,,,,,,,,,,,,,,2,,,,,,,,,,,,,,476.14000000001397,,response,,,,1,H,,,,,,Space,keypress(Space),,,,speech,,,,--- ---- ------ --- ------- ---------- ------- ----------<br>--- --------- the ----------- ------- ----- ------- ---<br>--------- ---- -- --- ---- -- --------- -- ---- -------<br>-- --------- ------ --- ----- ------ ---- --- --------- --<br>------ - ---- -- --- ----------- ------- ---- ----- -----<br>--- -------- - ------ ---- -- ----- ---- --- --- -----------<br>-- -------,344752,344739,344252.52,344252,344262.86,344762.86,,10,the
screen,html.Screen,2_3_1_0_1_11,2022-05-03T12:49:07.281Z,,,,,,,,,,,,,,,,,2,,,,,,,,,,,,,,617.140000000014,,response,,,,1,H,,,,,,Space,keypress(Space),,,,speech,,,,--- ---- ------ --- ------- ---------- ------- ----------<br>--- --------- --- interesting ------- ----- ------- ---<br>--------- ---- -- --- ---- -- --------- -- ---- -------<br>-- --------- ------ --- ----- ------ ---- --- --------- --<br>------ - ---- -- --- ----------- ------- ---- ----- -----<br>--- -------- - ------ ---- -- ----- ---- --- --- -----------<br>-- -------,345387,345380,344752.02,344752,344762.86,345396.2,,11,interesting
screen,html.Screen,2_3_1_0_1_12,2022-05-03T12:49:07.791Z,,,,,,,,,,,,,,,,,2,,,,,,,,,,,,,,498.79999999998836,,response,,,,1,H,,,,,,Space,keypress(Space),,,,speech,,,,--- ---- ------ --- ------- ---------- ------- ----------<br>--- --------- --- ----------- sunspot ----- ------- ---<br>--------- ---- -- --- ---- -- --------- -- ---- -------<br>-- --------- ------ --- ----- ------ ---- --- --------- --<br>------ - ---- -- --- ----------- ------- ---- ----- -----<br>--- -------- - ------ ---- -- ----- ---- --- --- -----------<br>-- -------,345898,345895,345387.3,345387,345396.2,345912.86,,12,sunspot
screen,html.Screen,2_3_1_0_1_13,2022-05-03T12:49:08.281Z,,,,,,,,,,,,,,,,,2,,,,,,,,,,,,,,467.14000000001397,,response,,,,1,H,,,,,,Space,keypress(Space),,,,speech,,,,--- ---- ------ --- ------- ---------- ------- ----------<br>--- --------- --- ----------- ------- group ------- ---<br>--------- ---- -- --- ---- -- --------- -- ---- -------<br>-- --------- ------ --- ----- ------ ---- --- --------- --<br>------ - ---- -- --- ----------- ------- ---- ----- -----<br>--- -------- - ------ ---- -- ----- ---- --- --- -----------<br>-- -------,346388,346380,345897.7,345898,345912.86,346396.2,,13,group
screen,html.Screen,2_3_1_0_1_14,2022-05-03T12:49:09.001Z,,,,,,,,,,,,,,,,,2,,,,,,,,,,,,,,702.7999999999884,,response,,,,1,H,,,,,,Space,keypress(Space),,,,speech,,,,--- ---- ------ --- ------- ---------- ------- ----------<br>--- --------- --- ----------- ------- ----- through ---<br>--------- ---- -- --- ---- -- --------- -- ---- -------<br>-- --------- ------ --- ----- ------ ---- --- --------- --<br>------ - ---- -- --- ----------- ------- ---- ----- -----<br>--- -------- - ------ ---- -- ----- ---- --- --- -----------<br>-- -------,347108,347099,346388.26,346388,346396.2,347112.86,,14,through
screen,html.Screen,2_3_1_0_1_15,2022-05-03T12:49:09.424Z,,,,,,,,,,,,,,,,,2,,,,,,,,,,,,,,407.14000000001397,,response,,,,1,H,,,,,,Space,keypress(Space),,,,speech,,,,--- ---- ------ --- ------- ---------- ------- ----------<br>--- --------- --- ----------- ------- ----- ------- his<br>--------- ---- -- --- ---- -- --------- -- ---- -------<br>-- --------- ------ --- ----- ------ ---- --- --------- --<br>------ - ---- -- --- ----------- ------- ---- ----- -----<br>--- -------- - ------ ---- -- ----- ---- --- --- -----------<br>-- -------,347532,347520,347107.88,347108,347112.86,347546.2,,15,his
screen,html.Screen,2_3_1_0_1_16,2022-05-03T12:49:10.215Z,,,,,,,,,,,,,,,,,2,,,,,,,,,,,,,,770.7999999999884,,response,,,,1,H,,,,,,Space,keypress(Space),,,,speech,,,,--- ---- ------ --- ------- ---------- ------- ----------<br>--- --------- --- ----------- ------- ----- ------- ---<br>telescope ---- -- --- ---- -- --------- -- ---- -------<br>-- --------- ------ --- ----- ------ ---- --- --------- --<br>------ - ---- -- --- ----------- ------- ---- ----- -----<br>--- -------- - ------ ---- -- ----- ---- --- --- -----------<br>-- -------,348322,348317,347531.36,347532,347546.2,348329.54,,16,telescope
screen,html.Screen,2_3_1_0_1_17,2022-05-03T12:49:10.737Z,,,,,,,,,,,,,,,,,2,,,,,,,,,,,,,,503.46000000002095,,response,,,,1,H,,,,,,Space,keypress(Space),,,,speech,,,,--- ---- ------ --- ------- ---------- ------- ----------<br>--- --------- --- ----------- ------- ----- ------- ---<br>--------- when -- --- ---- -- --------- -- ---- -------<br>-- --------- ------ --- ----- ------ ---- --- --------- --<br>------ - ---- -- --- ----------- ------- ---- ----- -----<br>--- -------- - ------ ---- -- ----- ---- --- --- -----------<br>-- -------,348843,348833,348321.98,348322,348329.54,348846.2,,17,when
screen,html.Screen,2_3_1_0_1_18,2022-05-03T12:49:11.136Z,,,,,,,,,,,,,,,,,2,,,,,,,,,,,,,,392.79999999998836,,response,,,,1,H,,,,,,Space,keypress(Space),,,,speech,,,,--- ---- ------ --- ------- ---------- ------- ----------<br>--- --------- --- ----------- ------- ----- ------- ---<br>--------- ---- he --- ---- -- --------- -- ---- -------<br>-- --------- ------ --- ----- ------ ---- --- --------- --<br>------ - ---- -- --- ----------- ------- ---- ----- -----<br>--- -------- - ------ ---- -- ----- ---- --- --- -----------<br>-- -------,349242,349239,348843.86,348843,348846.2,349246.2,,18,he
screen,html.Screen,2_3_1_0_1_19,2022-05-03T12:49:11.518Z,,,,,,,,,,,,,,,,,2,,,,,,,,,,,,,,367.79999999998836,,response,,,,1,H,,,,,,Space,keypress(Space),,,,speech,,,,--- ---- ------ --- ------- ---------- ------- ----------<br>--- --------- --- ----------- ------- ----- ------- ---<br>--------- ---- -- saw ---- -- --------- -- ---- -------<br>-- --------- ------ --- ----- ------ ---- --- --------- --<br>------ - ---- -- --- ----------- ------- ---- ----- -----<br>--- -------- - ------ ---- -- ----- ---- --- --- -----------<br>-- -------,349625,349614,349242.68,349242,349246.2,349629.54,,19,saw
screen,html.Screen,2_3_1_0_1_20,2022-05-03T12:49:11.913Z,,,,,,,,,,,,,,,,,2,,,,,,,,,,,,,,375.46000000002095,,response,,,,1,H,,,,,,Space,keypress(Space),,,,speech,,,,--- ---- ------ --- ------- ---------- ------- ----------<br>--- --------- --- ----------- ------- ----- ------- ---<br>--------- ---- -- --- what -- --------- -- ---- -------<br>-- --------- ------ --- ----- ------ ---- --- --------- --<br>------ - ---- -- --- ----------- ------- ---- ----- -----<br>--- -------- - ------ ---- -- ----- ---- --- --- -----------<br>-- -------,350021,350005,349624.48,349625,349629.54,350029.54,,20,what
screen,html.Screen,2_3_1_0_1_21,2022-05-03T12:49:12.307Z,,,,,,,,,,,,,,,,,2,,,,,,,,,,,,,,381.46000000002095,,response,,,,1,H,,,,,,Space,keypress(Space),,,,speech,,,,--- ---- ------ --- ------- ---------- ------- ----------<br>--- --------- --- ----------- ------- ----- ------- ---<br>--------- ---- -- --- ---- he --------- -- ---- -------<br>-- --------- ------ --- ----- ------ ---- --- --------- --<br>------ - ---- -- --- ----------- ------- ---- ----- -----<br>--- -------- - ------ ---- -- ----- ---- --- --- -----------<br>-- -------,350414,350411,350020.52,350021,350029.54,350429.54,,21,he
screen,html.Screen,2_3_1_0_1_22,2022-05-03T12:49:12.723Z,,,,,,,,,,,,,,,,,2,,,,,,,,,,,,,,387.46000000002095,,response,,,,1,H,,,,,,Space,keypress(Space),,,,speech,,,,--- ---- ------ --- ------- ---------- ------- ----------<br>--- --------- --- ----------- ------- ----- ------- ---<br>--------- ---- -- --- ---- -- described -- ---- -------<br>-- --------- ------ --- ----- ------ ---- --- --------- --<br>------ - ---- -- --- ----------- ------- ---- ----- -----<br>--- -------- - ------ ---- -- ----- ---- --- --- -----------<br>-- -------,350829,350817,350413.98,350414,350429.54,350846.2,,22,described
screen,html.Screen,2_3_1_0_1_23,2022-05-03T12:49:13.165Z,,,,,,,,,,,,,,,,,2,,,,,,,,,,,,,,423.79999999998836,,response,,,,1,H,,,,,,Space,keypress(Space),,,,speech,,,,--- ---- ------ --- ------- ---------- ------- ----------<br>--- --------- --- ----------- ------- ----- ------- ---<br>--------- ---- -- --- ---- -- --------- as ---- -------<br>-- --------- ------ --- ----- ------ ---- --- --------- --<br>------ - ---- -- --- ----------- ------- ---- ----- -----<br>--- -------- - ------ ---- -- ----- ---- --- --- -----------<br>-- -------,351273,351270,350829.88,350830,350846.2,351279.54,,23,as
screen,html.Screen,2_3_1_0_1_24,2022-05-03T12:49:13.601Z,,,,,,,,,,,,,,,,,2,,,,,,,,,,,,,,412.46000000002095,,response,,,,1,H,,,,,,Space,keypress(Space),,,,speech,,,,"--- ---- ------ --- ------- ---------- ------- ----------<br>--- --------- --- ----------- ------- ----- ------- ---<br>--------- ---- -- --- ---- -- --------- -- ""two -------<br>-- --------- ------ --- ----- ------ ---- --- --------- --<br>------ - ---- -- --- ----------- ------- ---- ----- -----<br>--- -------- - ------ ---- -- ----- ---- --- --- -----------<br>-- -------",351708,351692,351272.26,351273,351279.54,351712.86,,24,"""two"
screen,html.Screen,2_3_1_0_1_25,2022-05-03T12:49:14.108Z,,,,,,,,,,,,,,,,,2,,,,,,,,,,,,,,495.14000000001397,,response,,,,1,H,,,,,,Space,keypress(Space),,,,speech,,,,--- ---- ------ --- ------- ---------- ------- ----------<br>--- --------- --- ----------- ------- ----- ------- ---<br>--------- ---- -- --- ---- -- --------- -- ---- patches<br>-- --------- ------ --- ----- ------ ---- --- --------- --<br>------ - ---- -- --- ----------- ------- ---- ----- -----<br>--- -------- - ------ ---- -- ----- ---- --- --- -----------<br>-- -------,352215,352208,351708.58,351709,351712.86,352229.54,,25,patches
screen,html.Screen,2_3_1_0_1_26,2022-05-03T12:49:14.440Z,,,,,,,,,,,,,,,,,2,,,,,,,,,,,,,,306.46000000002095,,response,,,,1,H,,,,,,Space,keypress(Space),,,,speech,,,,--- ---- ------ --- ------- ---------- ------- ----------<br>--- --------- --- ----------- ------- ----- ------- ---<br>--------- ---- -- --- ---- -- --------- -- ---- -------<br>of --------- ------ --- ----- ------ ---- --- --------- --<br>------ - ---- -- --- ----------- ------- ---- ----- -----<br>--- -------- - ------ ---- -- ----- ---- --- --- -----------<br>-- -------,352548,352536,352214.88,352215,352229.54,352562.86,,26,of
screen,html.Screen,2_3_1_0_1_27,2022-05-03T12:49:14.864Z,,,,,,,,,,,,,,,,,2,,,,,,,,,,,,,,395.14000000001397,,response,,,,1,H,,,,,,Space,keypress(Space),,,,speech,,,,--- ---- ------ --- ------- ---------- ------- ----------<br>--- --------- --- ----------- ------- ----- ------- ---<br>--------- ---- -- --- ---- -- --------- -- ---- -------<br>-- intensely ------ --- ----- ------ ---- --- --------- --<br>------ - ---- -- --- ----------- ------- ---- ----- -----<br>--- -------- - ------ ---- -- ----- ---- --- --- -----------<br>-- -------,352971,352958,352547.82,352548,352562.86,352979.54,,27,intensely
screen,html.Screen,2_3_1_0_1_28,2022-05-03T12:49:15.326Z,,,,,,,,,,,,,,,,,2,,,,,,,,,,,,,,446.46000000002095,,response,,,,1,H,,,,,,Space,keypress(Space),,,,speech,,,,--- ---- ------ --- ------- ---------- ------- ----------<br>--- --------- --- ----------- ------- ----- ------- ---<br>--------- ---- -- --- ---- -- --------- -- ---- -------<br>-- --------- bright --- ----- ------ ---- --- --------- --<br>------ - ---- -- --- ----------- ------- ---- ----- -----<br>--- -------- - ------ ---- -- ----- ---- --- --- -----------<br>-- -------,353433,353426,352970.9,352971,352979.54,353446.2,,28,bright
screen,html.Screen,2_3_1_0_1_29,2022-05-03T12:49:15.711Z,,,,,,,,,,,,,,,,,2,,,,,,,,,,,,,,370.79999999998836,,response,,,,1,H,,,,,,Space,keypress(Space),,,,speech,,,,--- ---- ------ --- ------- ---------- ------- ----------<br>--- --------- --- ----------- ------- ----- ------- ---<br>--------- ---- -- --- ---- -- --------- -- ---- -------<br>-- --------- ------ and ----- ------ ---- --- --------- --<br>------ - ---- -- --- ----------- ------- ---- ----- -----<br>--- -------- - ------ ---- -- ----- ---- --- --- -----------<br>-- -------,353819,353817,353433.22,353433,353446.2,353829.54,,29,and
screen,html.Screen,2_3_1_0_1_30,2022-05-03T12:49:16.111Z,,,,,,,,,,,,,,,,,2,,,,,,,,,,,,,,378.46000000002095,,response,,,,1,H,,,,,,Space,keypress(Space),,,,speech,,,,--- ---- ------ --- ------- ---------- ------- ----------<br>--- --------- --- ----------- ------- ----- ------- ---<br>--------- ---- -- --- ---- -- --------- -- ---- -------<br>-- --------- ------ --- white ------ ---- --- --------- --<br>------ - ---- -- --- ----------- ------- ---- ----- -----<br>--- -------- - ------ ---- -- ----- ---- --- --- -----------<br>-- -------,354218,354208,353818.32,353819,353829.54,354229.54,,30,white
screen,html.Screen,2_3_1_0_1_31,2022-05-03T12:49:16.558Z,,,,,,,,,,,,,,,,,2,,,,,,,,,,,,,,431.46000000002095,,response,,,,1,H,,,,,,Space,keypress(Space),,,,speech,,,,"--- ---- ------ --- ------- ---------- ------- ----------<br>--- --------- --- ----------- ------- ----- ------- ---<br>--------- ---- -- --- ---- -- --------- -- ---- -------<br>-- --------- ------ --- ----- light"" ---- --- --------- --<br>------ - ---- -- --- ----------- ------- ---- ----- -----<br>--- -------- - ------ ---- -- ----- ---- --- --- -----------<br>-- -------",354665,354661,354217.72,354218,354229.54,354679.54,,31,"light"""
screen,html.Screen,2_3_1_0_1_32,2022-05-03T12:49:17.087Z,,,,,,,,,,,,,,,,,2,,,,,,,,,,,,,,496.46000000002095,,response,,,,1,H,,,,,,Space,keypress(Space),,,,speech,,,,--- ---- ------ --- ------- ---------- ------- ----------<br>--- --------- --- ----------- ------- ----- ------- ---<br>--------- ---- -- --- ---- -- --------- -- ---- -------<br>-- --------- ------ --- ----- ------ over --- --------- --<br>------ - ---- -- --- ----------- ------- ---- ----- -----<br>--- -------- - ------ ---- -- ----- ---- --- --- -----------<br>-- -------,355193,355176,354664.78,354665,354679.54,355196.2,,32,over
screen,html.Screen,2_3_1_0_1_33,2022-05-03T12:49:17.587Z,,,,,,,,,,,,,,,,,2,,,,,,,,,,,,,,479.79999999998836,,response,,,,1,H,,,,,,Space,keypress(Space),,,,speech,,,,--- ---- ------ --- ------- ---------- ------- ----------<br>--- --------- --- ----------- ------- ----- ------- ---<br>--------- ---- -- --- ---- -- --------- -- ---- -------<br>-- --------- ------ --- ----- ------ ---- the --------- --<br>------ - ---- -- --- ----------- ------- ---- ----- -----<br>--- -------- - ------ ---- -- ----- ---- --- --- -----------<br>-- -------,355694,355676,355193.76,355193,355196.2,355696.2,,33,the
screen,html.Screen,2_3_1_0_1_34,2022-05-03T12:49:18.025Z,,,,,,,,,,,,,,,,,2,,,,,,,,,,,,,,433.79999999998836,,response,,,,1,H,,,,,,Space,keypress(Space),,,,speech,,,,--- ---- ------ --- ------- ---------- ------- ----------<br>--- --------- --- ----------- ------- ----- ------- ---<br>--------- ---- -- --- ---- -- --------- -- ---- -------<br>-- --------- ------ --- ----- ------ ---- --- sunspots. --<br>------ - ---- -- --- ----------- ------- ---- ----- -----<br>--- -------- - ------ ---- -- ----- ---- --- --- -----------<br>-- -------,356131,356130,355693.86,355694,355696.2,356146.2,,34,sunspots.
screen,html.Screen,2_3_1_0_1_35,2022-05-03T12:49:18.817Z,,,,,,,,,,,,,,,,,2,,,,,,,,,,,,,,764.7999999999884,,response,,,,1,H,,,,,,Space,keypress(Space),,,,speech,,,,--- ---- ------ --- ------- ---------- ------- ----------<br>--- --------- --- ----------- ------- ----- ------- ---<br>--------- ---- -- --- ---- -- --------- -- ---- -------<br>-- --------- ------ --- ----- ------ ---- --- --------- He<br>------ - ---- -- --- ----------- ------- ---- ----- -----<br>--- -------- - ------ ---- -- ----- ---- --- --- -----------<br>-- -------,356923,356911,356131.8,356132,356146.2,356929.54,,35,He
screen,html.Screen,2_3_1_0_1_36,2022-05-03T12:49:19.318Z,,,,,,,,,,,,,,,,,2,,,,,,,,,,,,,,481.46000000002095,,response,,,,1,H,,,,,,Space,keypress(Space),,,,speech,,,,--- ---- ------ --- ------- ---------- ------- ----------<br>--- --------- --- ----------- ------- ----- ------- ---<br>--------- ---- -- --- ---- -- --------- -- ---- -------<br>-- --------- ------ --- ----- ------ ---- --- --------- --<br>jotted - ---- -- --- ----------- ------- ---- ----- -----<br>--- -------- - ------ ---- -- ----- ---- --- --- -----------<br>-- -------,357424,357411,356923.7,356923,356929.54,357429.54,,36,jotted
screen,html.Screen,2_3_1_0_1_37,2022-05-03T12:49:19.697Z,,,,,,,,,,,,,,,,,2,,,,,,,,,,,,,,371.46000000002095,,response,,,,1,H,,,,,,Space,keypress(Space),,,,speech,,,,--- ---- ------ --- ------- ---------- ------- ----------<br>--- --------- --- ----------- ------- ----- ------- ---<br>--------- ---- -- --- ---- -- --------- -- ---- -------<br>-- --------- ------ --- ----- ------ ---- --- --------- --<br>------ a ---- -- --- ----------- ------- ---- ----- -----<br>--- -------- - ------ ---- -- ----- ---- --- --- -----------<br>-- -------,357804,357801,357424.84,357425,357429.54,357812.86,,37,a
screen,html.Screen,2_3_1_0_1_38,2022-05-03T12:49:20.077Z,,,,,,,,,,,,,,,,,2,,,,,,,,,,,,,,363.14000000001397,,response,,,,1,H,,,,,,Space,keypress(Space),,,,speech,,,,--- ---- ------ --- ------- ---------- ------- ----------<br>--- --------- --- ----------- ------- ----- ------- ---<br>--------- ---- -- --- ---- -- --------- -- ---- -------<br>-- --------- ------ --- ----- ------ ---- --- --------- --<br>------ - note -- --- ----------- ------- ---- ----- -----<br>--- -------- - ------ ---- -- ----- ---- --- --- -----------<br>-- -------,358183,358176,357803.84,357804,357812.86,358196.2,,38,note
screen,html.Screen,2_3_1_0_1_39,2022-05-03T12:49:20.462Z,,,,,,,,,,,,,,,,,2,,,,,,,,,,,,,,370.79999999998836,,response,,,,1,H,,,,,,Space,keypress(Space),,,,speech,,,,--- ---- ------ --- ------- ---------- ------- ----------<br>--- --------- --- ----------- ------- ----- ------- ---<br>--------- ---- -- --- ---- -- --------- -- ---- -------<br>-- --------- ------ --- ----- ------ ---- --- --------- --<br>------ - ---- in --- ----------- ------- ---- ----- -----<br>--- -------- - ------ ---- -- ----- ---- --- --- -----------<br>-- -------,358569,358567,358183.86,358183,358196.2,358579.54,,39,in
screen,html.Screen,2_3_1_0_1_40,2022-05-03T12:49:20.842Z,,,,,,,,,,,,,,,,,2,,,,,,,,,,,,,,362.46000000002095,,response,,,,1,H,,,,,,Space,keypress(Space),,,,speech,,,,--- ---- ------ --- ------- ---------- ------- ----------<br>--- --------- --- ----------- ------- ----- ------- ---<br>--------- ---- -- --- ---- -- --------- -- ---- -------<br>-- --------- ------ --- ----- ------ ---- --- --------- --<br>------ - ---- -- his ----------- ------- ---- ----- -----<br>--- -------- - ------ ---- -- ----- ---- --- --- -----------<br>-- -------,358948,358942,358569.18,358569,358579.54,358962.86,,40,his
screen,html.Screen,2_3_1_0_1_41,2022-05-03T12:49:21.446Z,,,,,,,,,,,,,,,,,2,,,,,,,,,,,,,,588.140000000014,,response,,,,1,H,,,,,,Space,keypress(Space),,,,speech,,,,--- ---- ------ --- ------- ---------- ------- ----------<br>--- --------- --- ----------- ------- ----- ------- ---<br>--------- ---- -- --- ---- -- --------- -- ---- -------<br>-- --------- ------ --- ----- ------ ---- --- --------- --<br>------ - ---- -- --- painstaking ------- ---- ----- -----<br>--- -------- - ------ ---- -- ----- ---- --- --- -----------<br>-- -------,359554,359551,358948.44,358948,358962.86,359562.88,,41,painstaking
screen,html.Screen,2_3_1_0_1_42,2022-05-03T12:49:21.984Z,,,,,,,,,,,,,,,,,2,,,,,,,,,,,,,,520.1199999999953,,response,,,,1,H,,,,,,Space,keypress(Space),,,,speech,,,,--- ---- ------ --- ------- ---------- ------- ----------<br>--- --------- --- ----------- ------- ----- ------- ---<br>--------- ---- -- --- ---- -- --------- -- ---- -------<br>-- --------- ------ --- ----- ------ ---- --- --------- --<br>------ - ---- -- --- ----------- record. ---- ----- -----<br>--- -------- - ------ ---- -- ----- ---- --- --- -----------<br>-- -------,360092,360083,359553.86,359554,359562.88,360096.2,,42,record.
screen,html.Screen,2_3_1_0_1_43,2022-05-03T12:49:22.538Z,,,,,,,,,,,,,,,,,2,,,,,,,,,,,,,,533.7999999999884,,response,,,,1,H,,,,,,Space,keypress(Space),,,,speech,,,,--- ---- ------ --- ------- ---------- ------- ----------<br>--- --------- --- ----------- ------- ----- ------- ---<br>--------- ---- -- --- ---- -- --------- -- ---- -------<br>-- --------- ------ --- ----- ------ ---- --- --------- --<br>------ - ---- -- --- ----------- ------- That ----- -----<br>--- -------- - ------ ---- -- ----- ---- --- --- -----------<br>-- -------,360645,360630,360091.5,360092,360096.2,360646.2,,43,That
screen,html.Screen,2_3_1_0_1_44,2022-05-03T12:49:22.963Z,,,,,,,,,,,,,,,,,2,,,,,,,,,,,,,,420.79999999998836,,response,,,,1,H,,,,,,Space,keypress(Space),,,,speech,,,,--- ---- ------ --- ------- ---------- ------- ----------<br>--- --------- --- ----------- ------- ----- ------- ---<br>--------- ---- -- --- ---- -- --------- -- ---- -------<br>-- --------- ------ --- ----- ------ ---- --- --------- --<br>------ - ---- -- --- ----------- ------- ---- night -----<br>--- -------- - ------ ---- -- ----- ---- --- --- -----------<br>-- -------,361070,361067,360645.32,360645,360646.2,361079.54,,44,night
screen,html.Screen,2_3_1_0_1_45,2022-05-03T12:49:23.425Z,,,,,,,,,,,,,,,,,2,,,,,,,,,,,,,,440.46000000002095,,response,,,,1,H,,,,,,Space,keypress(Space),,,,speech,,,,--- ---- ------ --- ------- ---------- ------- ----------<br>--- --------- --- ----------- ------- ----- ------- ---<br>--------- ---- -- --- ---- -- --------- -- ---- -------<br>-- --------- ------ --- ----- ------ ---- --- --------- --<br>------ - ---- -- --- ----------- ------- ---- ----- there<br>--- -------- - ------ ---- -- ----- ---- --- --- -----------<br>-- -------,361532,361520,361070.46,361071,361079.54,361546.2,,45,there
screen,html.Screen,2_3_1_0_1_46,2022-05-03T12:49:23.814Z,,,,,,,,,,,,,,,,,2,,,,,,,,,,,,,,364.79999999998836,,response,,,,1,H,,,,,,Space,keypress(Space),,,,speech,,,,--- ---- ------ --- ------- ---------- ------- ----------<br>--- --------- --- ----------- ------- ----- ------- ---<br>--------- ---- -- --- ---- -- --------- -- ---- -------<br>-- --------- ------ --- ----- ------ ---- --- --------- --<br>------ - ---- -- --- ----------- ------- ---- ----- -----<br>was -------- - ------ ---- -- ----- ---- --- --- -----------<br>-- -------,361922,361911,361531.4,361532,361546.2,361929.54,,46,was
screen,html.Screen,2_3_1_0_1_47,2022-05-03T12:49:24.268Z,,,,,,,,,,,,,,,,,2,,,,,,,,,,,,,,434.46000000002095,,response,,,,1,H,,,,,,Space,keypress(Space),,,,speech,,,,--- ---- ------ --- ------- ---------- ------- ----------<br>--- --------- --- ----------- ------- ----- ------- ---<br>--------- ---- -- --- ---- -- --------- -- ---- -------<br>-- --------- ------ --- ----- ------ ---- --- --------- --<br>------ - ---- -- --- ----------- ------- ---- ----- -----<br>--- scarcely - ------ ---- -- ----- ---- --- --- -----------<br>-- -------,362376,362364,361921.72,361922,361929.54,362379.54,,47,scarcely
screen,html.Screen,2_3_1_0_1_48,2022-05-03T12:49:24.624Z,,,,,,,,,,,,,,,,,2,,,,,,,,,,,,,,343.46000000002095,,response,,,,1,H,,,,,,Space,keypress(Space),,,,speech,,,,--- ---- ------ --- ------- ---------- ------- ----------<br>--- --------- --- ----------- ------- ----- ------- ---<br>--------- ---- -- --- ---- -- --------- -- ---- -------<br>-- --------- ------ --- ----- ------ ---- --- --------- --<br>------ - ---- -- --- ----------- ------- ---- ----- -----<br>--- -------- a ------ ---- -- ----- ---- --- --- -----------<br>-- -------,362731,362723,362375.72,362376,362379.54,362746.2,,48,a
