sender,sender_type,sender_id,timestamp,meta,,Blues,Classical,Country,Dance,Electronic,Folk,Gospel,Hip-Hop,Jazz,Latin,Musical/Film,New-age,Pop,Prolific_id,Provo_ID,R&B,Rap,Reggae,Religious,Rock,Soul,Swing,Traditional,age,artist_name,correct,correctResponse,distraction,duration,education,ended_on,familiarity,gender,headphone_check_performance,item,list,music_frequency,offensiveness,pleasantness,position_correct,preference,response,response_action,snippet_file,song_name,song_rating,sound,stimulus_1,stimulus_2,stimulus_3,text,time_commit,time_end,time_render,time_run,time_show,time_switch,url,word,word_ID
Prolific ID,html.Form,0,2022-05-09T10:14:44.161Z,"{""labjs_version"":""20.2.2"",""labjs_build"":{""flavor"":""production"",""commit"":""a25486e0c714a0ae2ce03ff94b7bb6896854dcfa""},""location"":""https://run.pavlovia.org/mvasilev/prolific3_music_c/"",""userAgent"":""Mozilla/5.0 (Windows NT 10.0; Win64; x64) AppleWebKit/537.36 (KHTML, like Gecko) Chrome/101.0.4951.54 Safari/537.36"",""platform"":""Win32"",""language"":""en-US"",""locale"":""en-GB"",""timeZone"":""Europe/London"",""timezoneOffset"":-60,""screen_width"":1280,""screen_height"":720,""scroll_width"":1422,""scroll_height"":629,""window_innerWidth"":1422,""window_innerHeight"":677,""devicePixelRatio"":1.125}",,,,,,,,,,,,,,,5a993b151eda410001365a23,,,,,,,,,,,,,,,55721.46700004768,,form submission,,,,,,,,,,,,,,,,,,,,,70861.29999995232,70860.20000004768,15122.069,15127.900000095367,15138.733,70941.134,{},,
Introduction,html.Screen,1_0,2022-05-09T10:15:01.268Z,,,,,,,,,,,,,,,,,,,,,,,,,,,,,,,17024.766000095362,,response,,,,,,,,,,,continue,click button,,,,,,,,,87968.5,87965.90000009537,70807.822,70862.10000014305,70941.134,87978.75,,,
Volume calibration,html.Screen,1_1,2022-05-09T10:15:15.002Z,,,,,,,,,,,,,,,,,,,,,,,,,,,,,,,13719.150000095367,,response,,,,,,,,,,,continue,click button,,,,,,,,,101702.29999995232,101697.90000009537,87962.086,87968.70000004768,87978.75,101700.287,,,
Task instructions,html.Screen,1_2,2022-05-09T10:15:47.608Z,,,,,,,,,,,,,,,,,,,,,,,,,,,,,,,32607.313000143055,,response,,,,,,,,,,,continue,click button,,,,,,,,,134308.5,134307.60000014305,101683.785,101702.5,101700.287,134310.435,,,
Sounds,html.Screen,1_3_0_0,2022-05-09T10:15:51.855Z,,,,,,,,,,,,,,,,,,,,,,,,,,,,,,,4256.6020000000135,,timeout,,,,,,,,,1,,,,,,,,S,O,I,,138555.29999995232,138550.373,134293.771,134308.79999995232,134310.435,138567.037,,,
Judgement,html.Screen,1_3_0_1,2022-05-09T10:15:53.662Z,,,,,,,,,,,,,,,,,,,,,,,,,,,,true,1,,1794.262999952305,,response,,,,,,,,,1,,1,click #choice-1,,,,,S,O,I,,140362.5,140361.29999995232,138550.373,138555.60000014305,138567.037,140364.255,,,
Trial,flow.Sequence,1_3_0,2022-05-09T10:15:53.662Z,,,,,,,,,,,,,,,,,,,,,,,,,,,,,,,6050.864999952319,,completion,,,,,,,,,1,,,,,,,,S,O,I,,140362.79999995232,140361.29999995232,134293.771,134308.70000004768,134310.435,140364.255,,,
Sounds,html.Screen,1_3_1_0,2022-05-09T10:15:57.897Z,,,,,,,,,,,,,,,,,,,,,,,,,,,,,,,4247.910999999993,,timeout,,,,,,,,,3,,,,,,,,I,O,S,,144597.5,144595.502,140347.591,140363.10000014305,140364.255,144612.166,,,
Judgement,html.Screen,1_3_1_1,2022-05-09T10:15:58.526Z,,,,,,,,,,,,,,,,,,,,,,,,,,,,true,3,,613.1339999523188,,response,,,,,,,,,3,,3,click #choice-3,,,,,I,O,S,,145226.5,145225.29999995232,144595.502,144597.79999995232,144612.166,145227.59,,,
Trial,flow.Sequence,1_3_1,2022-05-09T10:15:58.526Z,,,,,,,,,,,,,,,,,,,,,,,,,,,,,,,4861.044999952312,,completion,,,,,,,,,3,,,,,,,,I,O,S,,145226.70000004768,145225.29999995232,140347.591,140362.90000009537,140364.255,145227.59,,,
Sounds,html.Screen,1_3_2_0,2022-05-09T10:16:02.760Z,,,,,,,,,,,,,,,,,,,,,,,,,,,,,,,4248.56700000001,,timeout,,,,,,,,,2,,,,,,,,O,S,I,,149461,149459.493,145210.926,145227,145227.59,149476.157,,,
Judgement,html.Screen,1_3_2_1,2022-05-09T10:16:03.382Z,,,,,,,,,,,,,,,,,,,,,,,,,,,,true,2,,605.3429999999935,,response,,,,,,,,,2,,2,click #choice-2,,,,,O,S,I,,150082.5,150081.5,149459.493,149461.29999995232,149476.157,150091.692,,,
Trial,flow.Sequence,1_3_2,2022-05-09T10:16:03.382Z,,,,,,,,,,,,,,,,,,,,,,,,,,,,,,,4853.9100000000035,,completion,,,,,,,,,2,,,,,,,,O,S,I,,150082.70000004768,150081.5,145210.926,145226.90000009537,145227.59,150091.692,,,
Sounds,html.Screen,1_3_3_0,2022-05-09T10:16:07.625Z,,,,,,,,,,,,,,,,,,,,,,,,,,,,,,,4248.867999999988,,timeout,,,,,,,,,3,,,,,,,,O,I,S,,154325.40000009537,154323.896,150075.028,150082.90000009537,150091.692,154340.56,,,
Judgement,html.Screen,1_3_3_1,2022-05-09T10:16:08.920Z,,,,,,,,,,,,,,,,,,,,,,,,,,,,true,3,,1278.8400000953698,,response,,,,,,,,,3,,3,click #choice-3,,,,,O,I,S,,155620.29999995232,155619.40000009537,154323.896,154325.60000014305,154340.56,155624.131,,,
Trial,flow.Sequence,1_3_3,2022-05-09T10:16:08.920Z,,,,,,,,,,,,,,,,,,,,,,,,,,,,,,,5527.708000095357,,completion,,,,,,,,,3,,,,,,,,O,I,S,,155620.5,155619.40000009537,150075.028,150082.90000009537,150091.692,155624.131,,,
Sounds,html.Screen,1_3_4_0,2022-05-09T10:16:13.153Z,,,,,,,,,,,,,,,,,,,,,,,,,,,,,,,4244.243000000017,,timeout,,,,,,,,,1,,,,,,,,S,I,O,,159853,159851.71,155607.467,155620.60000014305,155624.131,159868.374,,,
Judgement,html.Screen,1_3_4_1,2022-05-09T10:16:13.648Z,,,,,,,,,,,,,,,,,,,,,,,,,,,,true,1,,479.0260000953567,,response,,,,,,,,,1,,1,click #choice-1,,,,,S,I,O,,160348.20000004768,160347.40000009537,159851.71,159853.29999995232,159868.374,160351.48,,,
Trial,flow.Sequence,1_3_4,2022-05-09T10:16:13.648Z,,,,,,,,,,,,,,,,,,,,,,,,,,,,,,,4723.2690000953735,,completion,,,,,,,,,1,,,,,,,,S,I,O,,160348.40000009537,160347.40000009537,155607.467,155620.60000014305,155624.131,160351.48,,,
Sounds,html.Screen,1_3_5_0,2022-05-09T10:16:17.884Z,,,,,,,,,,,,,,,,,,,,,,,,,,,,,,,4247.834999999992,,timeout,,,,,,,,,2,,,,,,,,I,S,O,,164584.5,164582.651,160334.816,160348.5,160351.48,164599.315,,,
Judgement,html.Screen,1_3_5_1,2022-05-09T10:16:18.578Z,,,,,,,,,,,,,,,,,,,,,,,,,,,,true,2,,677.984999952314,,response,,,,,,,,,2,,2,click #choice-2,,,,,I,S,O,,165278.40000009537,165277.29999995232,164582.651,164584.79999995232,164599.315,165283.032,,,
Trial,flow.Sequence,1_3_5,2022-05-09T10:16:18.578Z,,,,,,,,,,,,,,,,,,,,,,,,,,,,,,,4925.819999952306,,completion,,,,,,,,,2,,,,,,,,I,S,O,,165278.60000014305,165277.29999995232,160334.816,160348.40000009537,160351.48,165283.032,,,
Task,flow.Loop,1_3,2022-05-09T10:16:18.584Z,,,,,,,,,,,,,,,,,,,,,,,,,,,,,,,30966.86499995232,,completion,,,1,,,,,,,,,,,,,,,,,,165284.20000004768,165277.29999995232,134293.771,134308.70000004768,134310.435,165283.032,,,
Trap,html.Screen,1_4,2022-05-09T10:16:18.585Z,,,,,,,,,,,,,,,,,,,,,,,,,,,,,,,NaN,,skipped,,,,,,,,,,,,,,,,,,,,,165285.60000014305,165277.29999995232,,165285.40000009537,,165283.032,,,
Thanks,html.Screen,1_5,2022-05-09T10:16:21.472Z,,,,,,,,,,,,,,,,,,,,,,,,,,,,,,,2888.2679999523098,,response,,,,,,,,,,,continue,click button,,,,,,,,,168172.10000014305,168171.29999995232,165266.368,165285.79999995232,165283.032,171157.066,,,
Headphone screening,flow.Sequence,1,2022-05-09T10:16:21.472Z,,,,,,,,,,,,,,,,,,,,,,,,,,,,,,,97230.16599995231,,completion,,,,,,,,,,,,,,,,,,,,,168172.29999995232,168171.29999995232,70807.822,70862.10000014305,70941.134,171157.066,,,
Instructions,html.Page,2_0,2022-05-09T10:16:40.784Z,,,,,,,,,,,,,,,,,,,,,,,,,,,,,,,16327.233999952325,,form submission,,,,,,,,,,,,,,,,,,,,,187484.79999995232,187484.29999995232,171068.386,171142.40000009537,171157.066,187495.039,,,
Holding screen,html.Screen,2_1_0_0,2022-05-09T10:16:50.778Z,,,,,,,,,,,,,,,,,,,,,,,,,,,,,,,10214.670000000013,,timeout,,,,,,,,,,,,,,,,,,,,,197478,197476.413,187478.375,187484.90000009537,187495.039,197709.709,,,
screen,html.Screen,2_1_0_1_0,2022-05-09T10:16:52.525Z,,,,,,,,,,,,,,,,,53,,,,,,,,,,,,,,1510.1910000953649,,response,,,,99,,,,,,,Space,keypress(Space),,,,,,,,When -- ----- -- ------ - ------- --- ----------<br>------------- ------ ------ ---- ---- ------- ----- -- ----<br>-------- ------- -- ---------- --- - --- ----- ----- ----<br>---- --- --- ----- --- ---- ---- ------- ----- ---- -------<br>--- --- -- ----- -- --- ---- -- --- ---- -- ------ ------<br>--- ----- -- ----,199225.29999995232,199219.90000009537,197476.413,197478.40000009537,197709.709,199222.33,,0,When
screen,html.Screen,2_1_0_1_1,2022-05-09T10:16:53.034Z,,,,,,,,,,,,,,,,,53,,,,,,,,,,,,,,510.6700000000128,,response,,,,99,,,,,,,Space,keypress(Space),,,,,,,,---- it ----- -- ------ - ------- --- ----------<br>------------- ------ ------ ---- ---- ------- ----- -- ----<br>-------- ------- -- ---------- --- - --- ----- ----- ----<br>---- --- --- ----- --- ---- ---- ------- ----- ---- -------<br>--- --- -- ----- -- --- ---- -- --- ---- -- ------ ------<br>--- ----- -- ----,199734.10000014305,199733,199205.666,199225.5,199222.33,199750.811,,1,it
screen,html.Screen,2_1_0_1_2,2022-05-09T10:16:53.592Z,,,,,,,,,,,,,,,,,53,,,,,,,,,,,,,,539.9889999523293,,response,,,,99,,,,,,,Space,keypress(Space),,,,,,,,---- -- comes -- ------ - ------- --- ----------<br>------------- ------ ------ ---- ---- ------- ----- -- ----<br>-------- ------- -- ---------- --- - --- ----- ----- ----<br>---- --- --- ----- --- ---- ---- ------- ----- ---- -------<br>--- --- -- ----- -- --- ---- -- --- ---- -- ------ ------<br>--- ----- -- ----,200292.29999995232,200290.79999995232,199734.147,199734.40000009537,199750.811,200295.03,,2,comes
screen,html.Screen,2_1_0_1_3,2022-05-09T10:16:54.010Z,,,,,,,,,,,,,,,,,53,,,,,,,,,,,,,,414.26999995231745,,response,,,,99,,,,,,,Space,keypress(Space),,,,,,,,---- -- ----- to ------ - ------- --- ----------<br>------------- ------ ------ ---- ---- ------- ----- -- ----<br>-------- ------- -- ---------- --- - --- ----- ----- ----<br>---- --- --- ----- --- ---- ---- ------- ----- ---- -------<br>--- --- -- ----- -- --- ---- -- --- ---- -- ------ ------<br>--- ----- -- ----,200710.79999995232,200709.29999995232,200278.366,200292.5,200295.03,200726.254,,3,to
screen,html.Screen,2_1_0_1_4,2022-05-09T10:16:54.470Z,,,,,,,,,,,,,,,,,53,,,,,,,,,,,,,,443.44600004769745,,response,,,,99,,,,,,,Space,keypress(Space),,,,,,,,---- -- ----- -- having - ------- --- ----------<br>------------- ------ ------ ---- ---- ------- ----- -- ----<br>-------- ------- -- ---------- --- - --- ----- ----- ----<br>---- --- --- ----- --- ---- ---- ------- ----- ---- -------<br>--- --- -- ----- -- --- ---- -- --- ---- -- ------ ------<br>--- ----- -- ----,201170.90000009537,201169.70000004768,200709.59,200711.20000004768,200726.254,201174.168,,4,having
screen,html.Screen,2_1_0_1_5,2022-05-09T10:16:54.987Z,,,,,,,,,,,,,,,,,53,,,,,,,,,,,,,,512.1319999523112,,response,,,,99,,,,,,,Space,keypress(Space),,,,,,,,---- -- ----- -- ------ a ------- --- ----------<br>------------- ------ ------ ---- ---- ------- ----- -- ----<br>-------- ------- -- ---------- --- - --- ----- ----- ----<br>---- --- --- ----- --- ---- ---- ------- ----- ---- -------<br>--- --- -- ----- -- --- ---- -- --- ---- -- ------ ------<br>--- ----- -- ----,201687.40000009537,201686.29999995232,201157.504,201171.10000014305,201174.168,201689.114,,5,a
screen,html.Screen,2_1_0_1_6,2022-05-09T10:16:55.541Z,,,,,,,,,,,,,,,,,53,,,,,,,,,,,,,,551.9860001430498,,response,,,,99,,,,,,,Space,keypress(Space),,,,,,,,---- -- ----- -- ------ - lasting --- ----------<br>------------- ------ ------ ---- ---- ------- ----- -- ----<br>-------- ------- -- ---------- --- - --- ----- ----- ----<br>---- --- --- ----- --- ---- ---- ------- ----- ---- -------<br>--- --- -- ----- -- --- ---- -- --- ---- -- ------ ------<br>--- ----- -- ----,202241.60000014305,202241.10000014305,201672.45,201687.60000014305,201689.114,202253.956,,6,lasting
screen,html.Screen,2_1_0_1_7,2022-05-09T10:16:56.423Z,,,,,,,,,,,,,,,,,53,,,,,,,,,,,,,,868.3439999523107,,response,,,,99,,,,,,,Space,keypress(Space),,,,,,,,---- -- ----- -- ------ - ------- and ----------<br>------------- ------ ------ ---- ---- ------- ----- -- ----<br>-------- ------- -- ---------- --- - --- ----- ----- ----<br>---- --- --- ----- --- ---- ---- ------- ----- ---- -------<br>--- --- -- ----- -- --- ---- -- --- ---- -- ------ ------<br>--- ----- -- ----,203123.5,203122.29999995232,202237.292,202241.70000004768,202253.956,203135.18,,7,and
screen,html.Screen,2_1_0_1_8,2022-05-09T10:16:57.397Z,,,,,,,,,,,,,,,,,53,,,,,,,,,,,,,,961.4200001430581,,response,,,,99,,,,,,,Space,keypress(Space),,,,,,,,---- -- ----- -- ------ - ------- --- fulfilling<br>------------- ------ ------ ---- ---- ------- ----- -- ----<br>-------- ------- -- ---------- --- - --- ----- ----- ----<br>---- --- --- ----- --- ---- ---- ------- ----- ---- -------<br>--- --- -- ----- -- --- ---- -- --- ---- -- ------ ------<br>--- ----- -- ----,204097.90000009537,204096.60000014305,203118.516,203123.79999995232,203135.18,204099.581,,8,fulfilling
screen,html.Screen,2_1_0_1_9,2022-05-09T10:16:58.422Z,,,,,,,,,,,,,,,,,53,,,,,,,,,,,,,,1021.3190000953618,,response,,,,99,,,,,,,Space,keypress(Space),,,,,,,,"---- -- ----- -- ------ - ------- --- ----------<br>relationship, ------ ------ ---- ---- ------- ----- -- ----<br>-------- ------- -- ---------- --- - --- ----- ----- ----<br>---- --- --- ----- --- ---- ---- ------- ----- ---- -------<br>--- --- -- ----- -- --- ---- -- --- ---- -- ------ ------<br>--- ----- -- ----",205122.20000004768,205120.90000009537,204082.917,204098.10000014305,204099.581,205129.366,,9,"relationship,"
screen,html.Screen,2_1_0_1_10,2022-05-09T10:16:59.017Z,,,,,,,,,,,,,,,,,53,,,,,,,,,,,,,,587.5340000953584,,response,,,,99,,,,,,,Space,keypress(Space),,,,,,,,---- -- ----- -- ------ - ------- --- ----------<br>------------- common ------ ---- ---- ------- ----- -- ----<br>-------- ------- -- ---------- --- - --- ----- ----- ----<br>---- --- --- ----- --- ---- ---- ------- ----- ---- -------<br>--- --- -- ----- -- --- ---- -- --- ---- -- ------ ------<br>--- ----- -- ----,205717.5,205716.90000009537,205112.702,205122.5,205129.366,205725.586,,10,common
screen,html.Screen,2_1_0_1_11,2022-05-09T10:16:59.569Z,,,,,,,,,,,,,,,,,53,,,,,,,,,,,,,,542.5140001430409,,response,,,,99,,,,,,,Space,keypress(Space),,,,,,,,---- -- ----- -- ------ - ------- --- ----------<br>------------- ------ wisdom ---- ---- ------- ----- -- ----<br>-------- ------- -- ---------- --- - --- ----- ----- ----<br>---- --- --- ----- --- ---- ---- ------- ----- ---- -------<br>--- --- -- ----- -- --- ---- -- --- ---- -- ------ ------<br>--- ----- -- ----,206269.40000009537,206268.10000014305,205708.922,205717.60000014305,205725.586,206271.568,,11,wisdom
screen,html.Screen,2_1_0_1_12,2022-05-09T10:17:00.080Z,,,,,,,,,,,,,,,,,53,,,,,,,,,,,,,,508.53200014305185,,response,,,,99,,,,,,,Space,keypress(Space),,,,,,,,---- -- ----- -- ------ - ------- --- ----------<br>------------- ------ ------ says ---- ------- ----- -- ----<br>-------- ------- -- ---------- --- - --- ----- ----- ----<br>---- --- --- ----- --- ---- ---- ------- ----- ---- -------<br>--- --- -- ----- -- --- ---- -- --- ---- -- ------ ------<br>--- ----- -- ----,206780.90000009537,206780.10000014305,206254.904,206269.60000014305,206271.568,206785.863,,12,says
screen,html.Screen,2_1_0_1_13,2022-05-09T10:17:00.684Z,,,,,,,,,,,,,,,,,53,,,,,,,,,,,,,,597.3370000476716,,response,,,,99,,,,,,,Space,keypress(Space),,,,,,,,---- -- ----- -- ------ - ------- --- ----------<br>------------- ------ ------ ---- that ------- ----- -- ----<br>-------- ------- -- ---------- --- - --- ----- ----- ----<br>---- --- --- ----- --- ---- ---- ------- ----- ---- -------<br>--- --- -- ----- -- --- ---- -- --- ---- -- ------ ------<br>--- ----- -- ----,207384.5,207383.20000004768,206769.199,206781,206785.863,207400.341,,13,that
screen,html.Screen,2_1_0_1_14,2022-05-09T10:17:01.340Z,,,,,,,,,,,,,,,,,53,,,,,,,,,,,,,,639.2590001430654,,response,,,,99,,,,,,,Space,keypress(Space),,,,,,,,---- -- ----- -- ------ - ------- --- ----------<br>------------- ------ ------ ---- ---- feeling ----- -- ----<br>-------- ------- -- ---------- --- - --- ----- ----- ----<br>---- --- --- ----- --- ---- ---- ------- ----- ---- -------<br>--- --- -- ----- -- --- ---- -- --- ---- -- ------ ------<br>--- ----- -- ----,208040.90000009537,208039.60000014305,207383.677,207384.70000004768,207400.341,208047.841,,14,feeling
screen,html.Screen,2_1_0_1_15,2022-05-09T10:17:04.913Z,,,,,,,,,,,,,,,,,53,,,,,,,,,,,,,,3564.0590000953816,,response,,,,99,,,,,,,Space,keypress(Space),,,,,,,,---- -- ----- -- ------ - ------- --- ----------<br>------------- ------ ------ ---- ---- ------- close -- ----<br>-------- ------- -- ---------- --- - --- ----- ----- ----<br>---- --- --- ----- --- ---- ---- ------- ----- ---- -------<br>--- --- -- ----- -- --- ---- -- --- ---- -- ------ ------<br>--- ----- -- ----,211613.5,211611.90000009537,208031.177,208041.40000009537,208047.841,211628.758,,15,close
screen,html.Screen,2_1_0_1_16,2022-05-09T10:17:05.368Z,,,,,,,,,,,,,,,,,53,,,,,,,,,,,,,,438.9420000476821,,response,,,,99,,,,,,,Space,keypress(Space),,,,,,,,---- -- ----- -- ------ - ------- --- ----------<br>------------- ------ ------ ---- ---- ------- ----- to ----<br>-------- ------- -- ---------- --- - --- ----- ----- ----<br>---- --- --- ----- --- ---- ---- ------- ----- ---- -------<br>--- --- -- ----- -- --- ---- -- --- ---- -- ------ ------<br>--- ----- -- ----,212068.79999995232,212067.70000004768,211612.094,211613.79999995232,211628.758,212076.149,,16,to
screen,html.Screen,2_1_0_1_17,2022-05-09T10:17:05.854Z,,,,,,,,,,,,,,,,,53,,,,,,,,,,,,,,477.5510000476788,,response,,,,99,,,,,,,Space,keypress(Space),,,,,,,,---- -- ----- -- ------ - ------- --- ----------<br>------------- ------ ------ ---- ---- ------- ----- -- your<br>-------- ------- -- ---------- --- - --- ----- ----- ----<br>---- --- --- ----- --- ---- ---- ------- ----- ---- -------<br>--- --- -- ----- -- --- ---- -- --- ---- -- ------ ------<br>--- ----- -- ----,212554.90000009537,212553.70000004768,212059.485,212069.10000014305,212076.149,212562.352,,17,your
screen,html.Screen,2_1_0_1_18,2022-05-09T10:17:06.374Z,,,,,,,,,,,,,,,,,53,,,,,,,,,,,,,,510.74800014303764,,response,,,,99,,,,,,,Space,keypress(Space),,,,,,,,---- -- ----- -- ------ - ------- --- ----------<br>------------- ------ ------ ---- ---- ------- ----- -- ----<br>romantic ------- -- ---------- --- - --- ----- ----- ----<br>---- --- --- ----- --- ---- ---- ------- ----- ---- -------<br>--- --- -- ----- -- --- ---- -- --- ---- -- ------ ------<br>--- ----- -- ----,213074.40000009537,213073.10000014305,212545.688,212555.10000014305,212562.352,213077.227,,18,romantic
screen,html.Screen,2_1_0_1_19,2022-05-09T10:17:06.901Z,,,,,,,,,,,,,,,,,53,,,,,,,,,,,,,,522.7729999999865,,response,,,,99,,,,,,,Space,keypress(Space),,,,,,,,---- -- ----- -- ------ - ------- --- ----------<br>------------- ------ ------ ---- ---- ------- ----- -- ----<br>-------- partner -- ---------- --- - --- ----- ----- ----<br>---- --- --- ----- --- ---- ---- ------- ----- ---- -------<br>--- --- -- ----- -- --- ---- -- --- ---- -- ------ ------<br>--- ----- -- ----,213601.29999995232,213600,213060.563,213074.60000014305,213077.227,213608.657,,19,partner
screen,html.Screen,2_1_0_1_20,2022-05-09T10:17:07.629Z,,,,,,,,,,,,,,,,,53,,,,,,,,,,,,,,719.1429999523098,,response,,,,99,,,,,,,Space,keypress(Space),,,,,,,,---- -- ----- -- ------ - ------- --- ----------<br>------------- ------ ------ ---- ---- ------- ----- -- ----<br>-------- ------- is ---------- --- - --- ----- ----- ----<br>---- --- --- ----- --- ---- ---- ------- ----- ---- -------<br>--- --- -- ----- -- --- ---- -- --- ---- -- ------ ------<br>--- ----- -- ----,214329.10000014305,214327.79999995232,213591.993,213601.5,213608.657,214339.915,,20,is
screen,html.Screen,2_1_0_1_21,2022-05-09T10:17:09.586Z,,,,,,,,,,,,,,,,,53,,,,,,,,,,,,,,1944.9850000953593,,response,,,,99,,,,,,,Space,keypress(Space),,,,,,,,---- -- ----- -- ------ - ------- --- ----------<br>------------- ------ ------ ---- ---- ------- ----- -- ----<br>-------- ------- -- paramount. --- - --- ----- ----- ----<br>---- --- --- ----- --- ---- ---- ------- ----- ---- -------<br>--- --- -- ----- -- --- ---- -- --- ---- -- ------ ------<br>--- ----- -- ----,216286.29999995232,216284.90000009537,214323.251,214329.29999995232,214339.915,216287.565,,21,paramount.
screen,html.Screen,2_1_0_1_22,2022-05-09T10:17:10.188Z,,,,,,,,,,,,,,,,,53,,,,,,,,,,,,,,599.1350000476814,,response,,,,99,,,,,,,Space,keypress(Space),,,,,,,,---- -- ----- -- ------ - ------- --- ----------<br>------------- ------ ------ ---- ---- ------- ----- -- ----<br>-------- ------- -- ---------- But - --- ----- ----- ----<br>---- --- --- ----- --- ---- ---- ------- ----- ---- -------<br>--- --- -- ----- -- --- ---- -- --- ---- -- ------ ------<br>--- ----- -- ----,216888,216886.70000004768,216270.901,216286.40000009537,216287.565,216901.346,,22,But
screen,html.Screen,2_1_0_1_23,2022-05-09T10:17:10.666Z,,,,,,,,,,,,,,,,,53,,,,,,,,,,,,,,464.054000095377,,response,,,,99,,,,,,,Space,keypress(Space),,,,,,,,---- -- ----- -- ------ - ------- --- ----------<br>------------- ------ ------ ---- ---- ------- ----- -- ----<br>-------- ------- -- ---------- --- a --- ----- ----- ----<br>---- --- --- ----- --- ---- ---- ------- ----- ---- -------<br>--- --- -- ----- -- --- ---- -- --- ---- -- ------ ------<br>--- ----- -- ----,217366.60000014305,217365.40000009537,216884.682,216888.20000004768,216901.346,217377.124,,23,a
screen,html.Screen,2_1_0_1_24,2022-05-09T10:17:11.064Z,,,,,,,,,,,,,,,,,53,,,,,,,,,,,,,,385.8759999999893,,response,,,,99,,,,,,,Space,keypress(Space),,,,,,,,---- -- ----- -- ------ - ------- --- ----------<br>------------- ------ ------ ---- ---- ------- ----- -- ----<br>-------- ------- -- ---------- --- - new ----- ----- ----<br>---- --- --- ----- --- ---- ---- ------- ----- ---- -------<br>--- --- -- ----- -- --- ---- -- --- ---- -- ------ ------<br>--- ----- -- ----,217764.10000014305,217763,217360.46,217366.79999995232,217377.124,217774.698,,24,new
screen,html.Screen,2_1_0_1_25,2022-05-09T10:17:11.503Z,,,,,,,,,,,,,,,,,53,,,,,,,,,,,,,,427.80199999999604,,response,,,,99,,,,,,,Space,keypress(Space),,,,,,,,---- -- ----- -- ------ - ------- --- ----------<br>------------- ------ ------ ---- ---- ------- ----- -- ----<br>-------- ------- -- ---------- --- - --- study ----- ----<br>---- --- --- ----- --- ---- ---- ------- ----- ---- -------<br>--- --- -- ----- -- --- ---- -- --- ---- -- ------ ------<br>--- ----- -- ----,218203.79999995232,218202.5,217758.034,217764.40000009537,217774.698,218206.205,,25,study
screen,html.Screen,2_1_0_1_26,2022-05-09T10:17:11.987Z,,,,,,,,,,,,,,,,,53,,,,,,,,,,,,,,480.19500009538024,,response,,,,99,,,,,,,Space,keypress(Space),,,,,,,,---- -- ----- -- ------ - ------- --- ----------<br>------------- ------ ------ ---- ---- ------- ----- -- ----<br>-------- ------- -- ---------- --- - --- ----- finds ----<br>---- --- --- ----- --- ---- ---- ------- ----- ---- -------<br>--- --- -- ----- -- --- ---- -- --- ---- -- ------ ------<br>--- ----- -- ----,218687.79999995232,218686.40000009537,218189.541,218204.10000014305,218206.205,218704.536,,26,finds
screen,html.Screen,2_1_0_1_27,2022-05-09T10:17:12.810Z,,,,,,,,,,,,,,,,,53,,,,,,,,,,,,,,804.7639999523235,,response,,,,99,,,,,,,Space,keypress(Space),,,,,,,,---- -- ----- -- ------ - ------- --- ----------<br>------------- ------ ------ ---- ---- ------- ----- -- ----<br>-------- ------- -- ---------- --- - --- ----- ----- that<br>---- --- --- ----- --- ---- ---- ------- ----- ---- -------<br>--- --- -- ----- -- --- ---- -- --- ---- -- ------ ------<br>--- ----- -- ----,219510.60000014305,219509.29999995232,218687.872,218688,218704.536,219519.422,,27,that
screen,html.Screen,2_1_0_1_28,2022-05-09T10:17:13.324Z,,,,,,,,,,,,,,,,,53,,,,,,,,,,,,,,503.77800004769233,,response,,,,99,,,,,,,Space,keypress(Space),,,,,,,,---- -- ----- -- ------ - ------- --- ----------<br>------------- ------ ------ ---- ---- ------- ----- -- ----<br>-------- ------- -- ---------- --- - --- ----- ----- ----<br>it's --- --- ----- --- ---- ---- ------- ----- ---- -------<br>--- --- -- ----- -- --- ---- -- --- ---- -- ------ ------<br>--- ----- -- ----,220024.5,220023.20000004768,219502.758,219510.79999995232,219519.422,220034.239,,28,it's
screen,html.Screen,2_1_0_1_29,2022-05-09T10:17:13.891Z,,,,,,,,,,,,,,,,,53,,,,,,,,,,,,,,555.8610001430498,,response,,,,99,,,,,,,Space,keypress(Space),,,,,,,,---- -- ----- -- ------ - ------- --- ----------<br>------------- ------ ------ ---- ---- ------- ----- -- ----<br>-------- ------- -- ---------- --- - --- ----- ----- ----<br>---- not --- ----- --- ---- ---- ------- ----- ---- -------<br>--- --- -- ----- -- --- ---- -- --- ---- -- ------ ------<br>--- ----- -- ----,220591.40000009537,220590.10000014305,220017.575,220024.79999995232,220034.239,220597.653,,29,not
screen,html.Screen,2_1_0_1_30,2022-05-09T10:17:14.343Z,,,,,,,,,,,,,,,,,53,,,,,,,,,,,,,,444.44700014306,,response,,,,99,,,,,,,Space,keypress(Space),,,,,,,,---- -- ----- -- ------ - ------- --- ----------<br>------------- ------ ------ ---- ---- ------- ----- -- ----<br>-------- ------- -- ---------- --- - --- ----- ----- ----<br>---- --- how ----- --- ---- ---- ------- ----- ---- -------<br>--- --- -- ----- -- --- ---- -- --- ---- -- ------ ------<br>--- ----- -- ----,221043.40000009537,221042.10000014305,220580.989,220591.70000004768,220597.653,221045.607,,30,how
screen,html.Screen,2_1_0_1_31,2022-05-09T10:17:14.820Z,,,,,,,,,,,,,,,,,53,,,,,,,,,,,,,,473.2930000953784,,response,,,,99,,,,,,,Space,keypress(Space),,,,,,,,---- -- ----- -- ------ - ------- --- ----------<br>------------- ------ ------ ---- ---- ------- ----- -- ----<br>-------- ------- -- ---------- --- - --- ----- ----- ----<br>---- --- --- close --- ---- ---- ------- ----- ---- -------<br>--- --- -- ----- -- --- ---- -- --- ---- -- ------ ------<br>--- ----- -- ----,221520.20000004768,221518.90000009537,221028.943,221043.60000014305,221045.607,221526.708,,31,close
screen,html.Screen,2_1_0_1_32,2022-05-09T10:17:15.256Z,,,,,,,,,,,,,,,,,53,,,,,,,,,,,,,,428.591999952303,,response,,,,99,,,,,,,Space,keypress(Space),,,,,,,,---- -- ----- -- ------ - ------- --- ----------<br>------------- ------ ------ ---- ---- ------- ----- -- ----<br>-------- ------- -- ---------- --- - --- ----- ----- ----<br>---- --- --- ----- you ---- ---- ------- ----- ---- -------<br>--- --- -- ----- -- --- ---- -- --- ---- -- ------ ------<br>--- ----- -- ----,221956.70000004768,221955.29999995232,221510.044,221520.40000009537,221526.708,221958.262,,32,you
screen,html.Screen,2_1_0_1_33,2022-05-09T10:17:15.799Z,,,,,,,,,,,,,,,,,53,,,,,,,,,,,,,,540.1380000953795,,response,,,,99,,,,,,,Space,keypress(Space),,,,,,,,---- -- ----- -- ------ - ------- --- ----------<br>------------- ------ ------ ---- ---- ------- ----- -- ----<br>-------- ------- -- ---------- --- - --- ----- ----- ----<br>---- --- --- ----- --- feel ---- ------- ----- ---- -------<br>--- --- -- ----- -- --- ---- -- --- ---- -- ------ ------<br>--- ----- -- ----,222499.60000014305,222498.40000009537,221941.598,221956.90000009537,221958.262,222506.334,,33,feel
screen,html.Screen,2_1_0_1_34,2022-05-09T10:17:16.316Z,,,,,,,,,,,,,,,,,53,,,,,,,,,,,,,,509.16599999999744,,response,,,,99,,,,,,,Space,keypress(Space),,,,,,,,---- -- ----- -- ------ - ------- --- ----------<br>------------- ------ ------ ---- ---- ------- ----- -- ----<br>-------- ------- -- ---------- --- - --- ----- ----- ----<br>---- --- --- ----- --- ---- that ------- ----- ---- -------<br>--- --- -- ----- -- --- ---- -- --- ---- -- ------ ------<br>--- ----- -- ----,223016.79999995232,223015.5,222489.67,222499.79999995232,222506.334,223021.271,,34,that
screen,html.Screen,2_1_0_1_35,2022-05-09T10:17:16.794Z,,,,,,,,,,,,,,,,,53,,,,,,,,,,,,,,471.7289999999921,,response,,,,99,,,,,,,Space,keypress(Space),,,,,,,,---- -- ----- -- ------ - ------- --- ----------<br>------------- ------ ------ ---- ---- ------- ----- -- ----<br>-------- ------- -- ---------- --- - --- ----- ----- ----<br>---- --- --- ----- --- ---- ---- matters ----- ---- -------<br>--- --- -- ----- -- --- ---- -- --- ---- -- ------ ------<br>--- ----- -- ----,223494.20000004768,223493,223004.607,223017.20000004768,223021.271,223502.437,,35,matters
screen,html.Screen,2_1_0_1_36,2022-05-09T10:17:17.178Z,,,,,,,,,,,,,,,,,53,,,,,,,,,,,,,,375.06299999999464,,response,,,,99,,,,,,,Space,keypress(Space),,,,,,,,"---- -- ----- -- ------ - ------- --- ----------<br>------------- ------ ------ ---- ---- ------- ----- -- ----<br>-------- ------- -- ---------- --- - --- ----- ----- ----<br>---- --- --- ----- --- ---- ---- ------- most, ---- -------<br>--- --- -- ----- -- --- ---- -- --- ---- -- ------ ------<br>--- ----- -- ----",223878.70000004768,223877.5,223485.773,223494.5,223502.437,223883.75,,36,"most,"
screen,html.Screen,2_1_0_1_37,2022-05-09T10:17:17.616Z,,,,,,,,,,,,,,,,,53,,,,,,,,,,,,,,431.35000014305115,,response,,,,99,,,,,,,Space,keypress(Space),,,,,,,,---- -- ----- -- ------ - ------- --- ----------<br>------------- ------ ------ ---- ---- ------- ----- -- ----<br>-------- ------- -- ---------- --- - --- ----- ----- ----<br>---- --- --- ----- --- ---- ---- ------- ----- it's -------<br>--- --- -- ----- -- --- ---- -- --- ---- -- ------ ------<br>--- ----- -- ----,224316.60000014305,224315.10000014305,223867.086,223879,223883.75,224331.83,,37,it's
screen,html.Screen,2_1_0_1_38,2022-05-09T10:17:18.387Z,,,,,,,,,,,,,,,,,53,,,,,,,,,,,,,,754.3700000476965,,response,,,,99,,,,,,,Space,keypress(Space),,,,,,,,---- -- ----- -- ------ - ------- --- ----------<br>------------- ------ ------ ---- ---- ------- ----- -- ----<br>-------- ------- -- ---------- --- - --- ----- ----- ----<br>---- --- --- ----- --- ---- ---- ------- ----- ---- whether<br>--- --- -- ----- -- --- ---- -- --- ---- -- ------ ------<br>--- ----- -- ----,225087.40000009537,225086.20000004768,224315.166,224318.79999995232,224331.83,225096.879,,38,whether
screen,html.Screen,2_1_0_1_39,2022-05-09T10:17:18.694Z,,,,,,,,,,,,,,,,,53,,,,,,,,,,,,,,296.42099995233,,response,,,,99,,,,,,,Space,keypress(Space),,,,,,,,---- -- ----- -- ------ - ------- --- ----------<br>------------- ------ ------ ---- ---- ------- ----- -- ----<br>-------- ------- -- ---------- --- - --- ----- ----- ----<br>---- --- --- ----- --- ---- ---- ------- ----- ---- -------<br>you --- -- ----- -- --- ---- -- --- ---- -- ------ ------<br>--- ----- -- ----,225394.60000014305,225393.29999995232,225080.215,225087.70000004768,225096.879,225411.821,,39,you
screen,html.Screen,2_1_0_1_40,2022-05-09T10:17:18.997Z,,,,,,,,,,,,,,,,,53,,,,,,,,,,,,,,284.1790000000037,,response,,,,99,,,,,,,Space,keypress(Space),,,,,,,,---- -- ----- -- ------ - ------- --- ----------<br>------------- ------ ------ ---- ---- ------- ----- -- ----<br>-------- ------- -- ---------- --- - --- ----- ----- ----<br>---- --- --- ----- --- ---- ---- ------- ----- ---- -------<br>--- are -- ----- -- --- ---- -- --- ---- -- ------ ------<br>--- ----- -- ----,225697.20000004768,225696,225395.157,225394.79999995232,225411.821,225708.837,,40,are
screen,html.Screen,2_1_0_1_41,2022-05-09T10:17:19.273Z,,,,,,,,,,,,,,,,,53,,,,,,,,,,,,,,263.3630000476842,,response,,,,99,,,,,,,Space,keypress(Space),,,,,,,,---- -- ----- -- ------ - ------- --- ----------<br>------------- ------ ------ ---- ---- ------- ----- -- ----<br>-------- ------- -- ---------- --- - --- ----- ----- ----<br>---- --- --- ----- --- ---- ---- ------- ----- ---- -------<br>--- --- as ----- -- --- ---- -- --- ---- -- ------ ------<br>--- ----- -- ----,225973.5,225972.20000004768,225692.173,225697.5,225708.837,225991.014,,41,as
screen,html.Screen,2_1_0_1_42,2022-05-09T10:17:19.587Z,,,,,,,,,,,,,,,,,53,,,,,,,,,,,,,,295.4860000000044,,response,,,,99,,,,,,,Space,keypress(Space),,,,,,,,---- -- ----- -- ------ - ------- --- ----------<br>------------- ------ ------ ---- ---- ------- ----- -- ----<br>-------- ------- -- ---------- --- - --- ----- ----- ----<br>---- --- --- ----- --- ---- ---- ------- ----- ---- -------<br>--- --- -- close -- --- ---- -- --- ---- -- ------ ------<br>--- ----- -- ----,226287.60000014305,226286.5,225974.35,225973.79999995232,225991.014,226289.745,,42,close
screen,html.Screen,2_1_0_1_43,2022-05-09T10:17:19.956Z,,,,,,,,,,,,,,,,,53,,,,,,,,,,,,,,365.9550000476884,,response,,,,99,,,,,,,Space,keypress(Space),,,,,,,,---- -- ----- -- ------ - ------- --- ----------<br>------------- ------ ------ ---- ---- ------- ----- -- ----<br>-------- ------- -- ---------- --- - --- ----- ----- ----<br>---- --- --- ----- --- ---- ---- ------- ----- ---- -------<br>--- --- -- ----- as --- ---- -- --- ---- -- ------ ------<br>--- ----- -- ----,226656.90000009537,226655.70000004768,226273.081,226287.90000009537,226289.745,226672.017,,43,as
screen,html.Screen,2_1_0_1_44,2022-05-09T10:17:20.305Z,,,,,,,,,,,,,,,,,53,,,,,,,,,,,,,,332.5830001430586,,response,,,,99,,,,,,,Space,keypress(Space),,,,,,,,---- -- ----- -- ------ - ------- --- ----------<br>------------- ------ ------ ---- ---- ------- ----- -- ----<br>-------- ------- -- ---------- --- - --- ----- ----- ----<br>---- --- --- ----- --- ---- ---- ------- ----- ---- -------<br>--- --- -- ----- -- you ---- -- --- ---- -- ------ ------<br>--- ----- -- ----,227005.70000004768,227004.60000014305,226655.353,226657.20000004768,226672.017,227020.712,,44,you
screen,html.Screen,2_1_0_1_45,2022-05-09T10:17:20.609Z,,,,,,,,,,,,,,,,,53,,,,,,,,,,,,,,287.3880001430516,,response,,,,99,,,,,,,Space,keypress(Space),,,,,,,,---- -- ----- -- ------ - ------- --- ----------<br>------------- ------ ------ ---- ---- ------- ----- -- ----<br>-------- ------- -- ---------- --- - --- ----- ----- ----<br>---- --- --- ----- --- ---- ---- ------- ----- ---- -------<br>--- --- -- ----- -- --- want -- --- ---- -- ------ ------<br>--- ----- -- ----,227309.29999995232,227308.10000014305,227004.048,227006,227020.712,227319.319,,45,want
screen,html.Screen,2_1_0_1_46,2022-05-09T10:17:21.078Z,,,,,,,,,,,,,,,,,53,,,,,,,,,,,,,,457.78100014306256,,response,,,,99,,,,,,,Space,keypress(Space),,,,,,,,---- -- ----- -- ------ - ------- --- ----------<br>------------- ------ ------ ---- ---- ------- ----- -- ----<br>-------- ------- -- ---------- --- - --- ----- ----- ----<br>---- --- --- ----- --- ---- ---- ------- ----- ---- -------<br>--- --- -- ----- -- --- ---- to --- ---- -- ------ ------<br>--- ----- -- ----,227778.40000009537,227777.10000014305,227302.655,227309.60000014305,227319.319,227784.585,,46,to
screen,html.Screen,2_1_0_1_47,2022-05-09T10:17:21.479Z,,,,,,,,,,,,,,,,,53,,,,,,,,,,,,,,393.91500000000815,,response,,,,99,,,,,,,Space,keypress(Space),,,,,,,,"---- -- ----- -- ------ - ------- --- ----------<br>------------- ------ ------ ---- ---- ------- ----- -- ----<br>-------- ------- -- ---------- --- - --- ----- ----- ----<br>---- --- --- ----- --- ---- ---- ------- ----- ---- -------<br>--- --- -- ----- -- --- ---- -- be, ---- -- ------ ------<br>--- ----- -- ----",228179.79999995232,228178.5,227767.921,227778.70000004768,227784.585,228183.302,,47,"be,"
screen,html.Screen,2_1_0_1_48,2022-05-09T10:17:25.092Z,,,,,,,,,,,,,,,,,53,,,,,,,,,,,,,,3608.198000000004,,response,,,,99,,,,,,,Space,keypress(Space),,,,,,,,---- -- ----- -- ------ - ------- --- ----------<br>------------- ------ ------ ---- ---- ------- ----- -- ----<br>-------- ------- -- ---------- --- - --- ----- ----- ----<br>---- --- --- ----- --- ---- ---- ------- ----- ---- -------<br>--- --- -- ----- -- --- ---- -- --- even -- ------ ------<br>--- ----- -- ----,231792.90000009537,231791.5,228166.638,228180.10000014305,228183.302,231797.615,,48,even
screen,html.Screen,2_1_0_1_49,2022-05-09T10:17:25.390Z,,,,,,,,,,,,,,,,,53,,,,,,,,,,,,,,291.48500014306046,,response,,,,99,,,,,,,Space,keypress(Space),,,,,,,,---- -- ----- -- ------ - ------- --- ----------<br>------------- ------ ------ ---- ---- ------- ----- -- ----<br>-------- ------- -- ---------- --- - --- ----- ----- ----<br>---- --- --- ----- --- ---- ---- ------- ----- ---- -------<br>--- --- -- ----- -- --- ---- -- --- ---- if ------ ------<br>--- ----- -- ----,232090.20000004768,232089.10000014305,231780.951,231793.10000014305,231797.615,232096.044,,49,if
screen,html.Screen,2_1_0_1_50,2022-05-09T10:17:25.633Z,,,,,,,,,,,,,,,,,53,,,,,,,,,,,,,,236.55600014305674,,response,,,,99,,,,,,,Space,keypress(Space),,,,,,,,---- -- ----- -- ------ - ------- --- ----------<br>------------- ------ ------ ---- ---- ------- ----- -- ----<br>-------- ------- -- ---------- --- - --- ----- ----- ----<br>---- --- --- ----- --- ---- ---- ------- ----- ---- -------<br>--- --- -- ----- -- --- ---- -- --- ---- -- that's ------<br>--- ----- -- ----,232333.79999995232,232332.60000014305,232079.38,232090.60000014305,232096.044,232348.771,,50,that's
screen,html.Screen,2_1_0_1_51,2022-05-09T10:17:25.926Z,,,,,,,,,,,,,,,,,53,,,,,,,,,,,,,,276.82900014304323,,response,,,,99,,,,,,,Space,keypress(Space),,,,,,,,---- -- ----- -- ------ - ------- --- ----------<br>------------- ------ ------ ---- ---- ------- ----- -- ----<br>-------- ------- -- ---------- --- - --- ----- ----- ----<br>---- --- --- ----- --- ---- ---- ------- ----- ---- -------<br>--- --- -- ----- -- --- ---- -- --- ---- -- ------ really<br>--- ----- -- ----,232626.70000004768,232625.60000014305,232332.107,232334,232348.771,232630.998,,51,really
screen,html.Screen,2_1_0_1_52,2022-05-09T10:17:26.347Z,,,,,,,,,,,,,,,,,53,,,,,,,,,,,,,,414.9020000953751,,response,,,,99,,,,,,,Space,keypress(Space),,,,,,,,---- -- ----- -- ------ - ------- --- ----------<br>------------- ------ ------ ---- ---- ------- ----- -- ----<br>-------- ------- -- ---------- --- - --- ----- ----- ----<br>---- --- --- ----- --- ---- ---- ------- ----- ---- -------<br>--- --- -- ----- -- --- ---- -- --- ---- -- ------ ------<br>not ----- -- ----,233047.10000014305,233045.90000009537,232614.334,232627,232630.998,233063.304,,52,not
screen,html.Screen,2_1_0_1_53,2022-05-09T10:17:26.615Z,,,,,,,,,,,,,,,,,53,,,,,,,,,,,,,,251.0960000953637,,response,,,,99,,,,,,,Space,keypress(Space),,,,,,,,---- -- ----- -- ------ - ------- --- ----------<br>------------- ------ ------ ---- ---- ------- ----- -- ----<br>-------- ------- -- ---------- --- - --- ----- ----- ----<br>---- --- --- ----- --- ---- ---- ------- ----- ---- -------<br>--- --- -- ----- -- --- ---- -- --- ---- -- ------ ------<br>--- close -- ----,233315.90000009537,233314.40000009537,233046.64,233047.40000009537,233063.304,233328.83,,53,close
screen,html.Screen,2_1_0_1_54,2022-05-09T10:17:27.052Z,,,,,,,,,,,,,,,,,53,,,,,,,,,,,,,,421.9699999523291,,response,,,,99,,,,,,,Space,keypress(Space),,,,,,,,---- -- ----- -- ------ - ------- --- ----------<br>------------- ------ ------ ---- ---- ------- ----- -- ----<br>-------- ------- -- ---------- --- - --- ----- ----- ----<br>---- --- --- ----- --- ---- ---- ------- ----- ---- -------<br>--- --- -- ----- -- --- ---- -- --- ---- -- ------ ------<br>--- ----- at ----,233752.10000014305,233750.79999995232,233312.166,233316.10000014305,233328.83,233760.454,,54,at
screen,html.Screen,2_1_0_1_55,2022-05-09T10:17:29.733Z,,,,,,,,,,,,,,,,,53,,,,,,,,,,,,,,2671.6460001430532,,response,,,,99,,,,,,,Space,keypress(Space),,,,,,,,---- -- ----- -- ------ - ------- --- ----------<br>------------- ------ ------ ---- ---- ------- ----- -- ----<br>-------- ------- -- ---------- --- - --- ----- ----- ----<br>---- --- --- ----- --- ---- ---- ------- ----- ---- -------<br>--- --- -- ----- -- --- ---- -- --- ---- -- ------ ------<br>--- ----- -- all.,236433.60000014305,236432.10000014305,233743.79,233752.20000004768,233760.454,236442.43,,55,all.
Item 99,flow.Loop,2_1_0_1,2022-05-09T10:17:29.734Z,,,,,,,,,,,,,,,,,,,,,,,,,,,,,,,38722.39100014305,,completion,,,,,C,,,,,,,,,,,silence,,,,,236434.10000014305,236432.10000014305,197476.413,197478.29999995232,197709.709,236442.43,,,
Question 1,html.Screen,2_1_0_2,2022-05-09T10:17:36.901Z,,,,,,,,,,,,,,,,,,,,,,,,,,,,true,FALSE,,7158.170000143058,,response,,,,99,C,,,,,,FALSE,click #choice-2,,,,silence,,,,,243601.60000014305,243600.60000014305,236425.766,236434.40000009537,236442.43,243604.256,,,
Question 2,html.Screen,2_1_0_3,2022-05-09T10:17:42.719Z,,,,,,,,,,,,,,,,,,,,,,,,,,,,true,TRUE,,5814.244000000006,,response,,,,99,C,,,,,,TRUE,click #choice-1,,,,silence,,,,,249419.5,249418.5,243587.592,243601.70000004768,243604.256,249431.773,,,
Item 99,flow.Sequence,2_1_0,2022-05-09T10:17:42.719Z,,,,,,,,,,,,,,,,,,,,,,,,,,,,,,,61923.46100000001,,completion,,,,,,,,,,,,,,,,,,,,,249419.70000004768,249418.5,187478.375,187484.90000009537,187495.039,249431.773,,,
Holding screen,html.Screen,2_1_1_0,2022-05-09T10:17:52.714Z,,,,,,,,,,,,,,,,,,,,,,,,,,,,,,,9998.265000000014,,timeout,,,,,,,,,,,,,,,,,,,,,259414.60000014305,259413.374,249415.109,249419.79999995232,249431.773,259430.038,,,
screen,html.Screen,2_1_1_1_0,2022-05-09T10:17:53.971Z,,,,,,,,,,,,,,,,,54,,,,,,,,,,,,,,1240.1620000476833,,response,,,,100,,,,,,,Space,keypress(Space),,,,,,,,At --- ---- --- ------ ----- ------- ---- -- --- ------- --<br>------- ---------- ------ -- ----- -- ----- -- ---- ------<br>--- ----- --- --- ------ -------- ----- --- ------ ----- --<br>----- ----- ---------- --- --- ------ ------ ---- -- ------<br>------- --- ------ ----- --- ---- ------- -- ---- --- --<br>------- ------,260671.5,260670.20000004768,259413.374,259415,259430.038,260675.974,,0,At
screen,html.Screen,2_1_1_1_1,2022-05-09T10:17:54.422Z,,,,,,,,,,,,,,,,,54,,,,,,,,,,,,,,445.42600009538,,response,,,,100,,,,,,,Space,keypress(Space),,,,,,,,-- the ---- --- ------ ----- ------- ---- -- --- ------- --<br>------- ---------- ------ -- ----- -- ----- -- ---- ------<br>--- ----- --- --- ------ -------- ----- --- ------ ----- --<br>----- ----- ---------- --- --- ------ ------ ---- -- ------<br>------- --- ------ ----- --- ---- ------- -- ---- --- --<br>------- ------,261122.5,261121.40000009537,260659.31,260671.70000004768,260675.974,261138.759,,1,the
screen,html.Screen,2_1_1_1_2,2022-05-09T10:17:54.819Z,,,,,,,,,,,,,,,,,54,,,,,,,,,,,,,,379.6410000953765,,response,,,,100,,,,,,,Space,keypress(Space),,,,,,,,-- --- time --- ------ ----- ------- ---- -- --- ------- --<br>------- ---------- ------ -- ----- -- ----- -- ---- ------<br>--- ----- --- --- ------ -------- ----- --- ------ ----- --<br>----- ----- ---------- --- --- ------ ------ ---- -- ------<br>------- --- ------ ----- --- ---- ------- -- ---- --- --<br>------- ------,261519.70000004768,261518.40000009537,261122.095,261122.79999995232,261138.759,261533.931,,2,time
screen,html.Screen,2_1_1_1_3,2022-05-09T10:17:55.158Z,,,,,,,,,,,,,,,,,54,,,,,,,,,,,,,,323.7690000476723,,response,,,,100,,,,,,,Space,keypress(Space),,,,,,,,-- --- ---- the ------ ----- ------- ---- -- --- ------- --<br>------- ---------- ------ -- ----- -- ----- -- ---- ------<br>--- ----- --- --- ------ -------- ----- --- ------ ----- --<br>----- ----- ---------- --- --- ------ ------ ---- -- ------<br>------- --- ------ ----- --- ---- ------- -- ---- --- --<br>------- ------,261858.79999995232,261857.70000004768,261517.267,261520,261533.931,261865.511,,3,the
screen,html.Screen,2_1_1_1_4,2022-05-09T10:17:55.842Z,,,,,,,,,,,,,,,,,54,,,,,,,,,,,,,,675.5890001430525,,response,,,,100,,,,,,,Space,keypress(Space),,,,,,,,-- --- ---- --- French ----- ------- ---- -- --- ------- --<br>------- ---------- ------ -- ----- -- ----- -- ---- ------<br>--- ----- --- --- ------ -------- ----- --- ------ ----- --<br>----- ----- ---------- --- --- ------ ------ ---- -- ------<br>------- --- ------ ----- --- ---- ------- -- ---- --- --<br>------- ------,262542.2000000477,262541.10000014305,261848.847,261859,261865.511,262547.207,,4,French
screen,html.Screen,2_1_1_1_5,2022-05-09T10:17:56.251Z,,,,,,,,,,,,,,,,,54,,,,,,,,,,,,,,402.99300004768884,,response,,,,100,,,,,,,Space,keypress(Space),,,,,,,,-- --- ---- --- ------ crown ------- ---- -- --- ------- --<br>------- ---------- ------ -- ----- -- ----- -- ---- ------<br>--- ----- --- --- ------ -------- ----- --- ------ ----- --<br>----- ----- ---------- --- --- ------ ------ ---- -- ------<br>------- --- ------ ----- --- ---- ------- -- ---- --- --<br>------- ------,262951.2000000477,262950.2000000477,262530.543,262542.40000009537,262547.207,262962.407,,5,crown
screen,html.Screen,2_1_1_1_6,2022-05-09T10:17:57.517Z,,,,,,,,,,,,,,,,,54,,,,,,,,,,,,,,1253.5929999999935,,response,,,,100,,,,,,,Space,keypress(Space),,,,,,,,-- --- ---- --- ------ ----- secured ---- -- --- ------- --<br>------- ---------- ------ -- ----- -- ----- -- ---- ------<br>--- ----- --- --- ------ -------- ----- --- ------ ----- --<br>----- ----- ---------- --- --- ------ ------ ---- -- ------<br>------- --- ------ ----- --- ---- ------- -- ---- --- --<br>------- ------,264217.2000000477,264216,262945.743,262951.5,262962.407,264226.288,,6,secured
screen,html.Screen,2_1_1_1_7,2022-05-09T10:17:58.355Z,,,,,,,,,,,,,,,,,54,,,,,,,,,,,,,,827.8120001430507,,response,,,,100,,,,,,,Space,keypress(Space),,,,,,,,-- --- ---- --- ------ ----- ------- much -- --- ------- --<br>------- ---------- ------ -- ----- -- ----- -- ---- ------<br>--- ----- --- --- ------ -------- ----- --- ------ ----- --<br>----- ----- ---------- --- --- ------ ------ ---- -- ------<br>------- --- ------ ----- --- ---- ------- -- ---- --- --<br>------- ------,265055.2999999523,265054.10000014305,264209.624,264217.5,264226.288,265057.955,,7,much
screen,html.Screen,2_1_1_1_8,2022-05-09T10:17:58.762Z,,,,,,,,,,,,,,,,,54,,,,,,,,,,,,,,403.2450000476674,,response,,,,100,,,,,,,Space,keypress(Space),,,,,,,,-- --- ---- --- ------ ----- ------- ---- of --- ------- --<br>------- ---------- ------ -- ----- -- ----- -- ---- ------<br>--- ----- --- --- ------ -------- ----- --- ------ ----- --<br>----- ----- ---------- --- --- ------ ------ ---- -- ------<br>------- --- ------ ----- --- ---- ------- -- ---- --- --<br>------- ------,265462.5,265461.2000000477,265041.291,265055.5,265057.955,265469.711,,8,of
screen,html.Screen,2_1_1_1_9,2022-05-09T10:17:59.110Z,,,,,,,,,,,,,,,,,54,,,,,,,,,,,,,,339.48900004767347,,response,,,,100,,,,,,,Space,keypress(Space),,,,,,,,-- --- ---- --- ------ ----- ------- ---- -- its ------- --<br>------- ---------- ------ -- ----- -- ----- -- ---- ------<br>--- ----- --- --- ------ -------- ----- --- ------ ----- --<br>----- ----- ---------- --- --- ------ ------ ---- -- ------<br>------- --- ------ ----- --- ---- ------- -- ---- --- --<br>------- ------,265810.2999999523,265809.2000000477,265453.047,265462.7000000477,265469.711,265816.494,,9,its
screen,html.Screen,2_1_1_1_10,2022-05-09T10:17:59.618Z,,,,,,,,,,,,,,,,,54,,,,,,,,,,,,,,500.4060000953614,,response,,,,100,,,,,,,Space,keypress(Space),,,,,,,,-- --- ---- --- ------ ----- ------- ---- -- --- revenue --<br>------- ---------- ------ -- ----- -- ----- -- ---- ------<br>--- ----- --- --- ------ -------- ----- --- ------ ----- --<br>----- ----- ---------- --- --- ------ ------ ---- -- ------<br>------- --- ------ ----- --- ---- ------- -- ---- --- --<br>------- ------,266318.10000014305,266316.90000009537,265799.83,265810.5,265816.494,266331.534,,10,revenue
screen,html.Screen,2_1_1_1_11,2022-05-09T10:18:02.291Z,,,,,,,,,,,,,,,,,54,,,,,,,,,,,,,,2658.8660000953823,,response,,,,100,,,,,,,Space,keypress(Space),,,,,,,,-- --- ---- --- ------ ----- ------- ---- -- --- ------- by<br>------- ---------- ------ -- ----- -- ----- -- ---- ------<br>--- ----- --- --- ------ -------- ----- --- ------ ----- --<br>----- ----- ---------- --- --- ------ ------ ---- -- ------<br>------- --- ------ ----- --- ---- ------- -- ---- --- --<br>------- ------,268991.2999999523,268990.40000009537,266314.87,266318.2999999523,266331.534,268996.42,,11,by
screen,html.Screen,2_1_1_1_12,2022-05-09T10:18:02.747Z,,,,,,,,,,,,,,,,,54,,,,,,,,,,,,,,449.98000009538373,,response,,,,100,,,,,,,Space,keypress(Space),,,,,,,,-- --- ---- --- ------ ----- ------- ---- -- --- ------- --<br>issuing ---------- ------ -- ----- -- ----- -- ---- ------<br>--- ----- --- --- ------ -------- ----- --- ------ ----- --<br>----- ----- ---------- --- --- ------ ------ ---- -- ------<br>------- --- ------ ----- --- ---- ------- -- ---- --- --<br>------- ------,269447.5,269446.40000009537,268979.756,268991.40000009537,268996.42,269458.785,,12,issuing
screen,html.Screen,2_1_1_1_13,2022-05-09T10:18:03.668Z,,,,,,,,,,,,,,,,,54,,,,,,,,,,,,,,909.4150000477093,,response,,,,100,,,,,,,Space,keypress(Space),,,,,,,,-- --- ---- --- ------ ----- ------- ---- -- --- ------- --<br>------- government ------ -- ----- -- ----- -- ---- ------<br>--- ----- --- --- ------ -------- ----- --- ------ ----- --<br>----- ----- ---------- --- --- ------ ------ ---- -- ------<br>------- --- ------ ----- --- ---- ------- -- ---- --- --<br>------- ------,270368.7000000477,270368.2000000477,269442.121,269447.7000000477,269458.785,270383.969,,13,government
screen,html.Screen,2_1_1_1_14,2022-05-09T10:18:04.693Z,,,,,,,,,,,,,,,,,54,,,,,,,,,,,,,,1008.1310001430684,,response,,,,100,,,,,,,Space,keypress(Space),,,,,,,,-- --- ---- --- ------ ----- ------- ---- -- --- ------- --<br>------- ---------- bonds. -- ----- -- ----- -- ---- ------<br>--- ----- --- --- ------ -------- ----- --- ------ ----- --<br>----- ----- ---------- --- --- ------ ------ ---- -- ------<br>------- --- ------ ----- --- ---- ------- -- ---- --- --<br>------- ------,271393.10000014305,271392.10000014305,270367.305,270368.90000009537,270383.969,271398.791,,14,bonds.
screen,html.Screen,2_1_1_1_15,2022-05-09T10:18:05.171Z,,,,,,,,,,,,,,,,,54,,,,,,,,,,,,,,471.8090001430246,,response,,,,100,,,,,,,Space,keypress(Space),,,,,,,,-- --- ---- --- ------ ----- ------- ---- -- --- ------- --<br>------- ---------- ------ In ----- -- ----- -- ---- ------<br>--- ----- --- --- ------ -------- ----- --- ------ ----- --<br>----- ----- ---------- --- --- ------ ------ ---- -- ------<br>------- --- ------ ----- --- ---- ------- -- ---- --- --<br>------- ------,271871.7000000477,271870.60000014305,271382.127,271393.2999999523,271398.791,272028.487,,15,In
screen,html.Screen,2_1_1_1_16,2022-05-09T10:18:05.682Z,,,,,,,,,,,,,,,,,54,,,,,,,,,,,,,,352.61300014302833,,response,,,,100,,,,,,,Space,keypress(Space),,,,,,,,"-- --- ---- --- ------ ----- ------- ---- -- --- ------- --<br>------- ---------- ------ -- 1727, -- ----- -- ---- ------<br>--- ----- --- --- ------ -------- ----- --- ------ ----- --<br>----- ----- ---------- --- --- ------ ------ ---- -- ------<br>------- --- ------ ----- --- ---- ------- -- ---- --- --<br>------- ------",272382.2999999523,272381.10000014305,271861.847,271871.90000009537,272028.487,272391.254,,16,"1727,"
screen,html.Screen,2_1_1_1_17,2022-05-09T10:18:06.388Z,,,,,,,,,,,,,,,,,54,,,,,,,,,,,,,,695.0459999523009,,response,,,,100,,,,,,,Space,keypress(Space),,,,,,,,-- --- ---- --- ------ ----- ------- ---- -- --- ------- --<br>------- ---------- ------ -- ----- in ----- -- ---- ------<br>--- ----- --- --- ------ -------- ----- --- ------ ----- --<br>----- ----- ---------- --- --- ------ ------ ---- -- ------<br>------- --- ------ ----- --- ---- ------- -- ---- --- --<br>------- ------,273087.7999999523,273086.2999999523,272374.59,272382.5,272391.254,273105.293,,17,in
screen,html.Screen,2_1_1_1_18,2022-05-09T10:18:07.000Z,,,,,,,,,,,,,,,,,54,,,,,,,,,,,,,,593.9070000476786,,response,,,,100,,,,,,,Space,keypress(Space),,,,,,,,-- --- ---- --- ------ ----- ------- ---- -- --- ------- --<br>------- ---------- ------ -- ----- -- order -- ---- ------<br>--- ----- --- --- ------ -------- ----- --- ------ ----- --<br>----- ----- ---------- --- --- ------ ------ ---- -- ------<br>------- --- ------ ----- --- ---- ------- -- ---- --- --<br>------- ------,273700.40000009537,273699.2000000477,273088.629,273088.10000014305,273105.293,273703.9,,18,order
screen,html.Screen,2_1_1_1_19,2022-05-09T10:18:07.390Z,,,,,,,,,,,,,,,,,54,,,,,,,,,,,,,,385.5999999999767,,response,,,,100,,,,,,,Space,keypress(Space),,,,,,,,-- --- ---- --- ------ ----- ------- ---- -- --- ------- --<br>------- ---------- ------ -- ----- -- ----- to ---- ------<br>--- ----- --- --- ------ -------- ----- --- ------ ----- --<br>----- ----- ---------- --- --- ------ ------ ---- -- ------<br>------- --- ------ ----- --- ---- ------- -- ---- --- --<br>------- ------,274090.7999999523,274089.5,273687.236,273700.60000014305,273703.9,274101.124,,19,to
screen,html.Screen,2_1_1_1_20,2022-05-09T10:18:07.771Z,,,,,,,,,,,,,,,,,54,,,,,,,,,,,,,,369.576000047673,,response,,,,100,,,,,,,Space,keypress(Space),,,,,,,,-- --- ---- --- ------ ----- ------- ---- -- --- ------- --<br>------- ---------- ------ -- ----- -- ----- -- save ------<br>--- ----- --- --- ------ -------- ----- --- ------ ----- --<br>----- ----- ---------- --- --- ------ ------ ---- -- ------<br>------- --- ------ ----- --- ---- ------- -- ---- --- --<br>------- ------,274471.7999999523,274470.7000000477,274084.46,274091.10000014305,274101.124,274482.102,,20,save
screen,html.Screen,2_1_1_1_21,2022-05-09T10:18:08.408Z,,,,,,,,,,,,,,,,,54,,,,,,,,,,,,,,625.0980000476702,,response,,,,100,,,,,,,Space,keypress(Space),,,,,,,,"-- --- ---- --- ------ ----- ------- ---- -- --- ------- --<br>------- ---------- ------ -- ----- -- ----- -- ---- money,<br>--- ----- --- --- ------ -------- ----- --- ------ ----- --<br>----- ----- ---------- --- --- ------ ------ ---- -- ------<br>------- --- ------ ----- --- ---- ------- -- ---- --- --<br>------- ------",275108.2999999523,275107.2000000477,274465.438,274472,274482.102,275113.78,,21,"money,"
screen,html.Screen,2_1_1_1_22,2022-05-09T10:18:09.367Z,,,,,,,,,,,,,,,,,54,,,,,,,,,,,,,,951.9200000476558,,response,,,,100,,,,,,,Space,keypress(Space),,,,,,,,-- --- ---- --- ------ ----- ------- ---- -- --- ------- --<br>------- ---------- ------ -- ----- -- ----- -- ---- ------<br>the ----- --- --- ------ -------- ----- --- ------ ----- --<br>----- ----- ---------- --- --- ------ ------ ---- -- ------<br>------- --- ------ ----- --- ---- ------- -- ---- --- --<br>------- ------,276067,276065.7000000477,275097.116,275108.60000014305,275113.78,276078.78,,22,the
screen,html.Screen,2_1_1_1_23,2022-05-09T10:18:09.816Z,,,,,,,,,,,,,,,,,54,,,,,,,,,,,,,,436.3200001430232,,response,,,,100,,,,,,,Space,keypress(Space),,,,,,,,-- --- ---- --- ------ ----- ------- ---- -- --- ------- --<br>------- ---------- ------ -- ----- -- ----- -- ---- ------<br>--- state --- --- ------ -------- ----- --- ------ ----- --<br>----- ----- ---------- --- --- ------ ------ ---- -- ------<br>------- --- ------ ----- --- ---- ------- -- ---- --- --<br>------- ------,276516.40000009537,276515.10000014305,276062.116,276067.2000000477,276078.78,276526.338,,23,state
screen,html.Screen,2_1_1_1_24,2022-05-09T10:18:10.198Z,,,,,,,,,,,,,,,,,54,,,,,,,,,,,,,,370.7620001430623,,response,,,,100,,,,,,,Space,keypress(Space),,,,,,,,-- --- ---- --- ------ ----- ------- ---- -- --- ------- --<br>------- ---------- ------ -- ----- -- ----- -- ---- ------<br>--- ----- cut --- ------ -------- ----- --- ------ ----- --<br>----- ----- ---------- --- --- ------ ------ ---- -- ------<br>------- --- ------ ----- --- ---- ------- -- ---- --- --<br>------- ------,276898.2999999523,276897.10000014305,276509.674,276516.7000000477,276526.338,276905.945,,24,cut
screen,html.Screen,2_1_1_1_25,2022-05-09T10:18:10.606Z,,,,,,,,,,,,,,,,,54,,,,,,,,,,,,,,399.25500004767673,,response,,,,100,,,,,,,Space,keypress(Space),,,,,,,,-- --- ---- --- ------ ----- ------- ---- -- --- ------- --<br>------- ---------- ------ -- ----- -- ----- -- ---- ------<br>--- ----- --- the ------ -------- ----- --- ------ ----- --<br>----- ----- ---------- --- --- ------ ------ ---- -- ------<br>------- --- ------ ----- --- ---- ------- -- ---- --- --<br>------- ------,277306.5,277305.2000000477,276889.281,276898.60000014305,276905.945,277320.883,,25,the
screen,html.Screen,2_1_1_1_26,2022-05-09T10:18:11.065Z,,,,,,,,,,,,,,,,,54,,,,,,,,,,,,,,443.1170000000275,,response,,,,100,,,,,,,Space,keypress(Space),,,,,,,,-- --- ---- --- ------ ----- ------- ---- -- --- ------- --<br>------- ---------- ------ -- ----- -- ----- -- ---- ------<br>--- ----- --- --- bonds' -------- ----- --- ------ ----- --<br>----- ----- ---------- --- --- ------ ------ ---- -- ------<br>------- --- ------ ----- --- ---- ------- -- ---- --- --<br>------- ------,277765.2000000477,277764,277304.219,277306.7000000477,277320.883,277769.337,,26,bonds'
screen,html.Screen,2_1_1_1_27,2022-05-09T10:18:12.648Z,,,,,,,,,,,,,,,,,54,,,,,,,,,,,,,,1577.063000095368,,response,,,,100,,,,,,,Space,keypress(Space),,,,,,,,-- --- ---- --- ------ ----- ------- ---- -- --- ------- --<br>------- ---------- ------ -- ----- -- ----- -- ---- ------<br>--- ----- --- --- ------ interest ----- --- ------ ----- --<br>----- ----- ---------- --- --- ------ ------ ---- -- ------<br>------- --- ------ ----- --- ---- ------- -- ---- --- --<br>------- ------,279347.90000009537,279346.40000009537,277752.673,277765.40000009537,277769.337,279350.898,,27,interest
screen,html.Screen,2_1_1_1_28,2022-05-09T10:18:13.117Z,,,,,,,,,,,,,,,,,54,,,,,,,,,,,,,,464.70200014306465,,response,,,,100,,,,,,,Space,keypress(Space),,,,,,,,-- --- ---- --- ------ ----- ------- ---- -- --- ------- --<br>------- ---------- ------ -- ----- -- ----- -- ---- ------<br>--- ----- --- --- ------ -------- rate. --- ------ ----- --<br>----- ----- ---------- --- --- ------ ------ ---- -- ------<br>------- --- ------ ----- --- ---- ------- -- ---- --- --<br>------- ------,279817,279815.60000014305,279334.234,279348.10000014305,279350.898,279832.37,,28,rate.
screen,html.Screen,2_1_1_1_29,2022-05-09T10:18:13.680Z,,,,,,,,,,,,,,,,,54,,,,,,,,,,,,,,546.7300001430558,,response,,,,100,,,,,,,Space,keypress(Space),,,,,,,,-- --- ---- --- ------ ----- ------- ---- -- --- ------- --<br>------- ---------- ------ -- ----- -- ----- -- ---- ------<br>--- ----- --- --- ------ -------- ----- The ------ ----- --<br>----- ----- ---------- --- --- ------ ------ ---- -- ------<br>------- --- ------ ----- --- ---- ------- -- ---- --- --<br>------- ------,280380.5,280379.10000014305,279815.706,279817.40000009537,279832.37,280392.928,,29,The
screen,html.Screen,2_1_1_1_30,2022-05-09T10:18:14.085Z,,,,,,,,,,,,,,,,,54,,,,,,,,,,,,,,390.7720000476693,,response,,,,100,,,,,,,Space,keypress(Space),,,,,,,,-- --- ---- --- ------ ----- ------- ---- -- --- ------- --<br>------- ---------- ------ -- ----- -- ----- -- ---- ------<br>--- ----- --- --- ------ -------- ----- --- market ----- --<br>----- ----- ---------- --- --- ------ ------ ---- -- ------<br>------- --- ------ ----- --- ---- ------- -- ---- --- --<br>------- ------,280784.90000009537,280783.7000000477,280376.264,280380.7999999523,280392.928,280791.029,,30,market
screen,html.Screen,2_1_1_1_31,2022-05-09T10:18:14.712Z,,,,,,,,,,,,,,,,,54,,,,,,,,,,,,,,620.5710001430707,,response,,,,100,,,,,,,Space,keypress(Space),,,,,,,,-- --- ---- --- ------ ----- ------- ---- -- --- ------- --<br>------- ---------- ------ -- ----- -- ----- -- ---- ------<br>--- ----- --- --- ------ -------- ----- --- ------ value --<br>----- ----- ---------- --- --- ------ ------ ---- -- ------<br>------- --- ------ ----- --- ---- ------- -- ---- --- --<br>------- ------,281412.2000000477,281411.60000014305,280774.365,280785.10000014305,280791.029,281422.122,,31,value
screen,html.Screen,2_1_1_1_32,2022-05-09T10:18:15.160Z,,,,,,,,,,,,,,,,,54,,,,,,,,,,,,,,437.67799995234236,,response,,,,100,,,,,,,Space,keypress(Space),,,,,,,,-- --- ---- --- ------ ----- ------- ---- -- --- ------- --<br>------- ---------- ------ -- ----- -- ----- -- ---- ------<br>--- ----- --- --- ------ -------- ----- --- ------ ----- of<br>----- ----- ---------- --- --- ------ ------ ---- -- ------<br>------- --- ------ ----- --- ---- ------- -- ---- --- --<br>------- ------,281860.40000009537,281859.7999999523,281405.458,281412.2999999523,281422.122,281870.445,,32,of
screen,html.Screen,2_1_1_1_33,2022-05-09T10:18:15.604Z,,,,,,,,,,,,,,,,,54,,,,,,,,,,,,,,433.45500009536045,,response,,,,100,,,,,,,Space,keypress(Space),,,,,,,,-- --- ---- --- ------ ----- ------- ---- -- --- ------- --<br>------- ---------- ------ -- ----- -- ----- -- ---- ------<br>--- ----- --- --- ------ -------- ----- --- ------ ----- --<br>these ----- ---------- --- --- ------ ------ ---- -- ------<br>------- --- ------ ----- --- ---- ------- -- ---- --- --<br>------- ------,282304.5,282303.90000009537,281853.781,281860.60000014305,281870.445,282318.01,,33,these
screen,html.Screen,2_1_1_1_34,2022-05-09T10:18:16.028Z,,,,,,,,,,,,,,,,,54,,,,,,,,,,,,,,409.59000014304183,,response,,,,100,,,,,,,Space,keypress(Space),,,,,,,,-- --- ---- --- ------ ----- ------- ---- -- --- ------- --<br>------- ---------- ------ -- ----- -- ----- -- ---- ------<br>--- ----- --- --- ------ -------- ----- --- ------ ----- --<br>----- bonds ---------- --- --- ------ ------ ---- -- ------<br>------- --- ------ ----- --- ---- ------- -- ---- --- --<br>------- ------,282728.7999999523,282727.60000014305,282301.346,282305.2000000477,282318.01,282732.899,,34,bonds
screen,html.Screen,2_1_1_1_35,2022-05-09T10:18:18.304Z,,,,,,,,,,,,,,,,,54,,,,,,,,,,,,,,2270.101000000024,,response,,,,100,,,,,,,Space,keypress(Space),,,,,,,,"-- --- ---- --- ------ ----- ------- ---- -- --- ------- --<br>------- ---------- ------ -- ----- -- ----- -- ---- ------<br>--- ----- --- --- ------ -------- ----- --- ------ ----- --<br>----- ----- plummeted, --- --- ------ ------ ---- -- ------<br>------- --- ------ ----- --- ---- ------- -- ---- --- --<br>------- ------",285003.90000009537,285003,282716.235,282729,282732.899,285014.156,,35,"plummeted,"
screen,html.Screen,2_1_1_1_36,2022-05-09T10:18:19.054Z,,,,,,,,,,,,,,,,,54,,,,,,,,,,,,,,738.7440000953502,,response,,,,100,,,,,,,Space,keypress(Space),,,,,,,,-- --- ---- --- ------ ----- ------- ---- -- --- ------- --<br>------- ---------- ------ -- ----- -- ----- -- ---- ------<br>--- ----- --- --- ------ -------- ----- --- ------ ----- --<br>----- ----- ---------- and --- ------ ------ ---- -- ------<br>------- --- ------ ----- --- ---- ------- -- ---- --- --<br>------- ------,285754.2000000477,285752.90000009537,284997.492,285004.10000014305,285014.156,285762.396,,36,and
screen,html.Screen,2_1_1_1_37,2022-05-09T10:18:19.464Z,,,,,,,,,,,,,,,,,54,,,,,,,,,,,,,,400.1039999999921,,response,,,,100,,,,,,,Space,keypress(Space),,,,,,,,-- --- ---- --- ------ ----- ------- ---- -- --- ------- --<br>------- ---------- ------ -- ----- -- ----- -- ---- ------<br>--- ----- --- --- ------ -------- ----- --- ------ ----- --<br>----- ----- ---------- --- the ------ ------ ---- -- ------<br>------- --- ------ ----- --- ---- ------- -- ---- --- --<br>------- ------,286163.7999999523,286162.5,285745.732,285754.40000009537,285762.396,286170.389,,37,the
screen,html.Screen,2_1_1_1_38,2022-05-09T10:18:19.818Z,,,,,,,,,,,,,,,,,54,,,,,,,,,,,,,,346.51100009534275,,response,,,,100,,,,,,,Space,keypress(Space),,,,,,,,-- --- ---- --- ------ ----- ------- ---- -- --- ------- --<br>------- ---------- ------ -- ----- -- ----- -- ---- ------<br>--- ----- --- --- ------ -------- ----- --- ------ ----- --<br>----- ----- ---------- --- --- market ------ ---- -- ------<br>------- --- ------ ----- --- ---- ------- -- ---- --- --<br>------- ------,286518,286516.90000009537,286153.725,286164.10000014305,286170.389,286534.121,,38,market
screen,html.Screen,2_1_1_1_39,2022-05-09T10:18:20.165Z,,,,,,,,,,,,,,,,,54,,,,,,,,,,,,,,330.37900000001537,,response,,,,100,,,,,,,Space,keypress(Space),,,,,,,,-- --- ---- --- ------ ----- ------- ---- -- --- ------- --<br>------- ---------- ------ -- ----- -- ----- -- ---- ------<br>--- ----- --- --- ------ -------- ----- --- ------ ----- --<br>----- ----- ---------- --- --- ------ became ---- -- ------<br>------- --- ------ ----- --- ---- ------- -- ---- --- --<br>------- ------,286865.60000014305,286864.5,286517.457,286518.2999999523,286534.121,286882.414,,39,became
screen,html.Screen,2_1_1_1_40,2022-05-09T10:18:20.511Z,,,,,,,,,,,,,,,,,54,,,,,,,,,,,,,,327.6860001430614,,response,,,,100,,,,,,,Space,keypress(Space),,,,,,,,-- --- ---- --- ------ ----- ------- ---- -- --- ------- --<br>------- ---------- ------ -- ----- -- ----- -- ---- ------<br>--- ----- --- --- ------ -------- ----- --- ------ ----- --<br>----- ----- ---------- --- --- ------ ------ wary -- ------<br>------- --- ------ ----- --- ---- ------- -- ---- --- --<br>------- ------,287211.2999999523,287210.10000014305,286865.75,286865.90000009537,286882.414,287214.463,,40,wary
screen,html.Screen,2_1_1_1_41,2022-05-09T10:18:20.849Z,,,,,,,,,,,,,,,,,54,,,,,,,,,,,,,,333.2370000476949,,response,,,,100,,,,,,,Space,keypress(Space),,,,,,,,-- --- ---- --- ------ ----- ------- ---- -- --- ------- --<br>------- ---------- ------ -- ----- -- ----- -- ---- ------<br>--- ----- --- --- ------ -------- ----- --- ------ ----- --<br>----- ----- ---------- --- --- ------ ------ ---- of ------<br>------- --- ------ ----- --- ---- ------- -- ---- --- --<br>------- ------,287548.90000009537,287547.7000000477,287197.799,287211.5,287214.463,287563.077,,41,of
screen,html.Screen,2_1_1_1_42,2022-05-09T10:18:21.282Z,,,,,,,,,,,,,,,,,54,,,,,,,,,,,,,,417.8230000953772,,response,,,,100,,,,,,,Space,keypress(Space),,,,,,,,-- --- ---- --- ------ ----- ------- ---- -- --- ------- --<br>------- ---------- ------ -- ----- -- ----- -- ---- ------<br>--- ----- --- --- ------ -------- ----- --- ------ ----- --<br>----- ----- ---------- --- --- ------ ------ ---- -- French<br>------- --- ------ ----- --- ---- ------- -- ---- --- --<br>------- ------,287982.2999999523,287980.90000009537,287546.413,287549.2000000477,287563.077,287994.994,,42,French
screen,html.Screen,2_1_1_1_43,2022-05-09T10:18:22.661Z,,,,,,,,,,,,,,,,,54,,,,,,,,,,,,,,1365.106000143045,,response,,,,100,,,,,,,Space,keypress(Space),,,,,,,,-- --- ---- --- ------ ----- ------- ---- -- --- ------- --<br>------- ---------- ------ -- ----- -- ----- -- ---- ------<br>--- ----- --- --- ------ -------- ----- --- ------ ----- --<br>----- ----- ---------- --- --- ------ ------ ---- -- ------<br>credit. --- ------ ----- --- ---- ------- -- ---- --- --<br>------- ------,289361.2000000477,289360.10000014305,287978.33,287982.60000014305,287994.994,289376.841,,43,credit.
screen,html.Screen,2_1_1_1_44,2022-05-09T10:18:23.964Z,,,,,,,,,,,,,,,,,54,,,,,,,,,,,,,,1286.2590001430362,,response,,,,100,,,,,,,Space,keypress(Space),,,,,,,,-- --- ---- --- ------ ----- ------- ---- -- --- ------- --<br>------- ---------- ------ -- ----- -- ----- -- ---- ------<br>--- ----- --- --- ------ -------- ----- --- ------ ----- --<br>----- ----- ---------- --- --- ------ ------ ---- -- ------<br>------- The ------ ----- --- ---- ------- -- ---- --- --<br>------- ------,290664.2000000477,290663.10000014305,289360.177,289361.5,289376.841,290674.986,,44,The
screen,html.Screen,2_1_1_1_45,2022-05-09T10:18:24.362Z,,,,,,,,,,,,,,,,,54,,,,,,,,,,,,,,385.81399995234096,,response,,,,100,,,,,,,Space,keypress(Space),,,,,,,,-- --- ---- --- ------ ----- ------- ---- -- --- ------- --<br>------- ---------- ------ -- ----- -- ----- -- ---- ------<br>--- ----- --- --- ------ -------- ----- --- ------ ----- --<br>----- ----- ---------- --- --- ------ ------ ---- -- ------<br>------- --- French ----- --- ---- ------- -- ---- --- --<br>------- ------,291061.90000009537,291060.7999999523,290658.322,290664.60000014305,290674.986,291069.596,,45,French
screen,html.Screen,2_1_1_1_46,2022-05-09T10:18:24.749Z,,,,,,,,,,,,,,,,,54,,,,,,,,,,,,,,378.3040000953479,,response,,,,100,,,,,,,Space,keypress(Space),,,,,,,,-- --- ---- --- ------ ----- ------- ---- -- --- ------- --<br>------- ---------- ------ -- ----- -- ----- -- ---- ------<br>--- ----- --- --- ------ -------- ----- --- ------ ----- --<br>----- ----- ---------- --- --- ------ ------ ---- -- ------<br>------- --- ------ state --- ---- ------- -- ---- --- --<br>------- ------,291449.10000014305,291447.90000009537,291052.932,291062.2000000477,291069.596,291464.595,,46,state
screen,html.Screen,2_1_1_1_47,2022-05-09T10:18:25.106Z,,,,,,,,,,,,,,,,,54,,,,,,,,,,,,,,340.80500009539537,,response,,,,100,,,,,,,Space,keypress(Space),,,,,,,,-- --- ---- --- ------ ----- ------- ---- -- --- ------- --<br>------- ---------- ------ -- ----- -- ----- -- ---- ------<br>--- ----- --- --- ------ -------- ----- --- ------ ----- --<br>----- ----- ---------- --- --- ------ ------ ---- -- ------<br>------- --- ------ ----- was ---- ------- -- ---- --- --<br>------- ------,291806.2999999523,291805.40000009537,291447.931,291449.40000009537,291464.595,291812.99,,47,was
screen,html.Screen,2_1_1_1_48,2022-05-09T10:18:25.448Z,,,,,,,,,,,,,,,,,54,,,,,,,,,,,,,,334.21000004769303,,response,,,,100,,,,,,,Space,keypress(Space),,,,,,,,-- --- ---- --- ------ ----- ------- ---- -- --- ------- --<br>------- ---------- ------ -- ----- -- ----- -- ---- ------<br>--- ----- --- --- ------ -------- ----- --- ------ ----- --<br>----- ----- ---------- --- --- ------ ------ ---- -- ------<br>------- --- ------ ----- --- left ------- -- ---- --- --<br>------- ------,292147.7999999523,292147.2000000477,291796.326,291806.40000009537,291812.99,292161.497,,48,left
screen,html.Screen,2_1_1_1_49,2022-05-09T10:18:25.795Z,,,,,,,,,,,,,,,,,54,,,,,,,,,,,,,,332.80299995234236,,response,,,,100,,,,,,,Space,keypress(Space),,,,,,,,-- --- ---- --- ------ ----- ------- ---- -- --- ------- --<br>------- ---------- ------ -- ----- -- ----- -- ---- ------<br>--- ----- --- --- ------ -------- ----- --- ------ ----- --<br>----- ----- ---------- --- --- ------ ------ ---- -- ------<br>------- --- ------ ----- --- ---- without -- ---- --- --<br>------- ------,292495.60000014305,292494.2999999523,292144.833,292147.90000009537,292161.497,292510.052,,49,without
screen,html.Screen,2_1_1_1_50,2022-05-09T10:18:26.128Z,,,,,,,,,,,,,,,,,54,,,,,,,,,,,,,,316.548000143026,,response,,,,100,,,,,,,Space,keypress(Space),,,,,,,,-- --- ---- --- ------ ----- ------- ---- -- --- ------- --<br>------- ---------- ------ -- ----- -- ----- -- ---- ------<br>--- ----- --- --- ------ -------- ----- --- ------ ----- --<br>----- ----- ---------- --- --- ------ ------ ---- -- ------<br>------- --- ------ ----- --- ---- ------- an ---- --- --<br>------- ------,292827.7999999523,292826.60000014305,292493.388,292495.90000009537,292510.052,292842.09,,50,an
screen,html.Screen,2_1_1_1_51,2022-05-09T10:18:26.474Z,,,,,,,,,,,,,,,,,54,,,,,,,,,,,,,,330.9099999999744,,response,,,,100,,,,,,,Space,keypress(Space),,,,,,,,-- --- ---- --- ------ ----- ------- ---- -- --- ------- --<br>------- ---------- ------ -- ----- -- ----- -- ---- ------<br>--- ----- --- --- ------ -------- ----- --- ------ ----- --<br>----- ----- ---------- --- --- ------ ------ ---- -- ------<br>------- --- ------ ----- --- ---- ------- -- easy --- --<br>------- ------,293174,293173,292825.426,292828.10000014305,292842.09,293190.607,,51,easy
screen,html.Screen,2_1_1_1_52,2022-05-09T10:18:26.797Z,,,,,,,,,,,,,,,,,54,,,,,,,,,,,,,,305.29300009534927,,response,,,,100,,,,,,,Space,keypress(Space),,,,,,,,-- --- ---- --- ------ ----- ------- ---- -- --- ------- --<br>------- ---------- ------ -- ----- -- ----- -- ---- ------<br>--- ----- --- --- ------ -------- ----- --- ------ ----- --<br>----- ----- ---------- --- --- ------ ------ ---- -- ------<br>------- --- ------ ----- --- ---- ------- -- ---- way --<br>------- ------,293497.10000014305,293495.90000009537,293173.943,293174.2999999523,293190.607,293505.995,,52,way
screen,html.Screen,2_1_1_1_53,2022-05-09T10:18:27.222Z,,,,,,,,,,,,,,,,,54,,,,,,,,,,,,,,415.50500000000466,,response,,,,100,,,,,,,Space,keypress(Space),,,,,,,,-- --- ---- --- ------ ----- ------- ---- -- --- ------- --<br>------- ---------- ------ -- ----- -- ----- -- ---- ------<br>--- ----- --- --- ------ -------- ----- --- ------ ----- --<br>----- ----- ---------- --- --- ------ ------ ---- -- ------<br>------- --- ------ ----- --- ---- ------- -- ---- --- of<br>------- ------,293922.7000000477,293921.5,293489.331,293497.2999999523,293505.995,293937.916,,53,of
screen,html.Screen,2_1_1_1_54,2022-05-09T10:18:27.581Z,,,,,,,,,,,,,,,,,54,,,,,,,,,,,,,,342.58399999997346,,response,,,,100,,,,,,,Space,keypress(Space),,,,,,,,-- --- ---- --- ------ ----- ------- ---- -- --- ------- --<br>------- ---------- ------ -- ----- -- ----- -- ---- ------<br>--- ----- --- --- ------ -------- ----- --- ------ ----- --<br>----- ----- ---------- --- --- ------ ------ ---- -- ------<br>------- --- ------ ----- --- ---- ------- -- ---- --- --<br>raising ------,294281.40000009537,294280.5,293921.252,293922.90000009537,293937.916,294286.62,,54,raising
screen,html.Screen,2_1_1_1_55,2022-05-09T10:18:28.431Z,,,,,,,,,,,,,,,,,54,,,,,,,,,,,,,,844.2800000953721,,response,,,,100,,,,,,,Space,keypress(Space),,,,,,,,-- --- ---- --- ------ ----- ------- ---- -- --- ------- --<br>------- ---------- ------ -- ----- -- ----- -- ---- ------<br>--- ----- --- --- ------ -------- ----- --- ------ ----- --<br>----- ----- ---------- --- --- ------ ------ ---- -- ------<br>------- --- ------ ----- --- ---- ------- -- ---- --- --<br>------- money.,295131.60000014305,295130.90000009537,294269.956,294281.60000014305,294286.62,295134.912,,55,money.
Item 100,flow.Loop,2_1_1_1,2022-05-09T10:18:28.432Z,,,,,,,,,,,,,,,,,,,,,,,,,,,,,,,35700.86200009537,,completion,,,,,C,,,,,,,,,,,silence,,,,,295132,295130.90000009537,259413.374,259415,259430.038,295134.912,,,
Question 1,html.Screen,2_1_1_2,2022-05-09T10:18:31.621Z,,,,,,,,,,,,,,,,,,,,,,,,,,,,true,TRUE,,3185.18800014304,,response,,,,100,C,,,,,,TRUE,click #choice-1,,,,silence,,,,,298320.7999999523,298320.10000014305,295118.248,295132.10000014305,295134.912,298322.019,,,
Question 2,html.Screen,2_1_1_3,2022-05-09T10:18:35.965Z,,,,,,,,,,,,,,,,,,,,,,,,,,,,true,FALSE,,4341.981000000029,,response,,,,100,C,,,,,,FALSE,click #choice-2,,,,silence,,,,,302664.90000009537,302664,298305.355,298321,298322.019,302672.106,,,
Item 100,flow.Sequence,2_1_1,2022-05-09T10:18:35.965Z,,,,,,,,,,,,,,,,,,,,,,,,,,,,,,,53232.22700000001,,completion,,,,,,,,,,,,,,,,,,,,,302665,302664,249415.109,249419.70000004768,249431.773,302672.106,,,
End of Practice,html.Page,2_1_2,2022-05-09T10:18:44.045Z,,,,,,,,,,,,,,,,,,,,,,,,,,,,,,,8072.794000095339,,form submission,,,,,,,,,,,,,,,,,,,,,310745.2000000477,310744.90000009537,302655.442,302665.10000014305,302672.106,310753.281,,,
Practice,flow.Sequence,2_1,2022-05-09T10:18:44.045Z,,,,,,,,,,,,,,,,,,,,,,,,,,,,,,,123249.86100009538,,completion,,,,,,,,,,,,,,,,,,,,,310745.2999999523,310744.90000009537,187478.375,187484.79999995232,187495.039,310753.281,,,
Trap_instruction,html.Page,2_2_0,2022-05-09T10:18:50.826Z,,,,,,,,,,,,,,,,,,,,,,,,,,,,,,,6773.61900009535,,form submission,,,,,,,,,,,,,,,,,,,,,317527.2000000477,317526.90000009537,310736.617,310745.60000014305,310753.281,317583.045,,,
trap_trial,html.Screen,2_2_1,2022-05-09T10:18:56.332Z,,,,,,,,,,,,,,,,,,,,,,,,,,,,true,1,,5448.754999952333,,response,,,,,,,,,,,1,click #choice-1,,,,,,,,,323032.60000014305,323031.7999999523,317516.389,317527.2999999523,317583.045,323073.17,,,
end of trap trial,html.Page,2_2_2,2022-05-09T10:18:57.958Z,,,,,,,,,,,,,,,,,,,,,,,,,,,,,,,1585.5300000477,,form submission,,,,,,,,,,,,,,,,,,,,,324658.90000009537,324658.7000000477,323023.178,323032.7000000477,323073.17,324665.371,,,
Trap 1,flow.Sequence,2_2,2022-05-09T10:18:57.958Z,,,,,,,,,,,,,,,,,,,,,,,,,,,,,,,13905.419000047666,,completion,,,,,,,,,,,,,,,,,,,,,324659.2000000477,324658.7000000477,310736.617,310745.5,310753.281,324665.371,,,
Standby,html.Page,2_3_0,2022-05-09T10:19:05.945Z,,,,,,,,,,,,,,,,,,,,,,,,,,,,,,,7996.244000000006,,timeout,,,,,,,,,,,,,,,,,,,,,332645.90000009537,332644.951,324648.707,324659.2999999523,324665.371,332661.615,,,
Holding screen,html.Screen,2_3_1_0_0,2022-05-09T10:19:12.945Z,,,,,,,,,,,,,,,,,,,,,,,,,,,,,,,6999.1870000000345,,timeout,,,,,,,,,,,,,,,,,,,,,339645.7000000477,339644.138,332644.951,332646.2999999523,332661.615,339660.802,,,
screen,html.Screen,2_3_1_0_1_0,2022-05-09T10:19:14.262Z,,,,,,,,,,,,,,,,,51,,,,,,,,,,,,,,1300.9979999522911,,response,,,,13,C,,,,,,Space,keypress(Space),,,,instrumental,,,,American -------- --- --- ---- --- --- ------ -- --------<br>---- --------- --- ------- ------------ ---------- ---------<br>--- ---------- ------- ---------- ------- -- -------- ----<br>---- --- ------ ----- ------ -- ---- --- ----- -- - -------<br>-------- -- --- --- -- ----- ----------- ----- -----------<br>---- --- ---------- --- ---- --- -- ----------,340963.10000014305,340961.7999999523,339644.138,339646.10000014305,339660.802,340973.395,,0,American
screen,html.Screen,2_3_1_0_1_1,2022-05-09T10:19:14.796Z,,,,,,,,,,,,,,,,,51,,,,,,,,,,,,,,522.4049999522977,,response,,,,13,C,,,,,,Space,keypress(Space),,,,instrumental,,,,-------- industry --- --- ---- --- --- ------ -- --------<br>---- --------- --- ------- ------------ ---------- ---------<br>--- ---------- ------- ---------- ------- -- -------- ----<br>---- --- ------ ----- ------ -- ---- --- ----- -- - -------<br>-------- -- --- --- -- ----- ----------- ----- -----------<br>---- --- ---------- --- ---- --- -- ----------,341496.7000000477,341495.7999999523,340956.731,340963.2999999523,340973.395,341502.829,,1,industry
screen,html.Screen,2_3_1_0_1_2,2022-05-09T10:19:15.309Z,,,,,,,,,,,,,,,,,51,,,,,,,,,,,,,,506.27100014302414,,response,,,,13,C,,,,,,Space,keypress(Space),,,,instrumental,,,,-------- -------- may --- ---- --- --- ------ -- --------<br>---- --------- --- ------- ------------ ---------- ---------<br>--- ---------- ------- ---------- ------- -- -------- ----<br>---- --- ------ ----- ------ -- ---- --- ----- -- - -------<br>-------- -- --- --- -- ----- ----------- ----- -----------<br>---- --- ---------- --- ---- --- -- ----------,342010.2000000477,342009.10000014305,341486.165,341496.90000009537,341502.829,342014.371,,2,may
screen,html.Screen,2_3_1_0_1_3,2022-05-09T10:19:15.836Z,,,,,,,,,,,,,,,,,51,,,,,,,,,,,,,,521.5290000953828,,response,,,,13,C,,,,,,Space,keypress(Space),,,,instrumental,,,,-------- -------- --- not ---- --- --- ------ -- --------<br>---- --------- --- ------- ------------ ---------- ---------<br>--- ---------- ------- ---------- ------- -- -------- ----<br>---- --- ------ ----- ------ -- ---- --- ----- -- - -------<br>-------- -- --- --- -- ----- ----------- ----- -----------<br>---- --- ---------- --- ---- --- -- ----------,342537,342535.90000009537,341997.707,342010.40000009537,342014.371,342545.636,,3,not
screen,html.Screen,2_3_1_0_1_4,2022-05-09T10:19:16.387Z,,,,,,,,,,,,,,,,,51,,,,,,,,,,,,,,541.0640000476851,,response,,,,13,C,,,,,,Space,keypress(Space),,,,instrumental,,,,-------- -------- --- --- know --- --- ------ -- --------<br>---- --------- --- ------- ------------ ---------- ---------<br>--- ---------- ------- ---------- ------- -- -------- ----<br>---- --- ------ ----- ------ -- ---- --- ----- -- - -------<br>-------- -- --- --- -- ----- ----------- ----- -----------<br>---- --- ---------- --- ---- --- -- ----------,343087.60000014305,343086.7000000477,342528.972,342537.2000000477,342545.636,343093.584,,4,know
screen,html.Screen,2_3_1_0_1_5,2022-05-09T10:19:16.869Z,,,,,,,,,,,,,,,,,51,,,,,,,,,,,,,,475.61600004771026,,response,,,,13,C,,,,,,Space,keypress(Space),,,,instrumental,,,,"-------- -------- --- --- ---- it, --- ------ -- --------<br>---- --------- --- ------- ------------ ---------- ---------<br>--- ---------- ------- ---------- ------- -- -------- ----<br>---- --- ------ ----- ------ -- ---- --- ----- -- - -------<br>-------- -- --- --- -- ----- ----------- ----- -----------<br>---- --- ---------- --- ---- --- -- ----------",343570.2000000477,343569.2000000477,343076.92,343087.90000009537,343093.584,343574.812,,5,"it,"
screen,html.Screen,2_3_1_0_1_6,2022-05-09T10:19:17.736Z,,,,,,,,,,,,,,,,,51,,,,,,,,,,,,,,860.48799995234,,response,,,,13,C,,,,,,Space,keypress(Space),,,,instrumental,,,,-------- -------- --- --- ---- --- but ------ -- --------<br>---- --------- --- ------- ------------ ---------- ---------<br>--- ---------- ------- ---------- ------- -- -------- ----<br>---- --- ------ ----- ------ -- ---- --- ----- -- - -------<br>-------- -- --- --- -- ----- ----------- ----- -----------<br>---- --- ---------- --- ---- --- -- ----------,344436.60000014305,344435.2999999523,343558.148,343570.40000009537,343574.812,344439.239,,6,but
screen,html.Screen,2_3_1_0_1_7,2022-05-09T10:19:18.458Z,,,,,,,,,,,,,,,,,51,,,,,,,,,,,,,,718.161000095366,,response,,,,13,C,,,,,,Space,keypress(Space),,,,instrumental,,,,-------- -------- --- --- ---- --- --- debate -- --------<br>---- --------- --- ------- ------------ ---------- ---------<br>--- ---------- ------- ---------- ------- -- -------- ----<br>---- --- ------ ----- ------ -- ---- --- ----- -- - -------<br>-------- -- --- --- -- ----- ----------- ----- -----------<br>---- --- ---------- --- ---- --- -- ----------,345158.60000014305,345157.40000009537,344422.575,344436.7999999523,344439.239,345170.622,,7,debate
screen,html.Screen,2_3_1_0_1_8,2022-05-09T10:19:19.126Z,,,,,,,,,,,,,,,,,51,,,,,,,,,,,,,,655.2780000953935,,response,,,,13,C,,,,,,Space,keypress(Space),,,,instrumental,,,,-------- -------- --- --- ---- --- --- ------ in --------<br>---- --------- --- ------- ------------ ---------- ---------<br>--- ---------- ------- ---------- ------- -- -------- ----<br>---- --- ------ ----- ------ -- ---- --- ----- -- - -------<br>-------- -- --- --- -- ----- ----------- ----- -----------<br>---- --- ---------- --- ---- --- -- ----------,345827,345825.90000009537,345153.958,345158.90000009537,345170.622,345833.893,,8,in
screen,html.Screen,2_3_1_0_1_9,2022-05-09T10:19:20.956Z,,,,,,,,,,,,,,,,,51,,,,,,,,,,,,,,1821.7070001430693,,response,,,,13,C,,,,,,Space,keypress(Space),,,,instrumental,,,,-------- -------- --- --- ---- --- --- ------ -- Congress<br>---- --------- --- ------- ------------ ---------- ---------<br>--- ---------- ------- ---------- ------- -- -------- ----<br>---- --- ------ ----- ------ -- ---- --- ----- -- - -------<br>-------- -- --- --- -- ----- ----------- ----- -----------<br>---- --- ---------- --- ---- --- -- ----------,347656.7999999523,347655.60000014305,345817.229,345827.2000000477,345833.893,347664.133,,9,Congress
screen,html.Screen,2_3_1_0_1_10,2022-05-09T10:19:21.449Z,,,,,,,,,,,,,,,,,51,,,,,,,,,,,,,,484.0670000477112,,response,,,,13,C,,,,,,Space,keypress(Space),,,,instrumental,,,,-------- -------- --- --- ---- --- --- ------ -- --------<br>over --------- --- ------- ------------ ---------- ---------<br>--- ---------- ------- ---------- ------- -- -------- ----<br>---- --- ------ ----- ------ -- ---- --- ----- -- - -------<br>-------- -- --- --- -- ----- ----------- ----- -----------<br>---- --- ---------- --- ---- --- -- ----------,348149.40000009537,348148.2000000477,347647.469,347657,347664.133,348161.513,,10,over
screen,html.Screen,2_3_1_0_1_11,2022-05-09T10:19:21.920Z,,,,,,,,,,,,,,,,,51,,,,,,,,,,,,,,457.88700009539025,,response,,,,13,C,,,,,,Space,keypress(Space),,,,instrumental,,,,-------- -------- --- --- ---- --- --- ------ -- --------<br>---- reforming --- ------- ------------ ---------- ---------<br>--- ---------- ------- ---------- ------- -- -------- ----<br>---- --- ------ ----- ------ -- ---- --- ----- -- - -------<br>-------- -- --- --- -- ----- ----------- ----- -----------<br>---- --- ---------- --- ---- --- -- ----------,348620.60000014305,348619.40000009537,348144.849,348149.7000000477,348161.513,348637.8,,11,reforming
screen,html.Screen,2_3_1_0_1_12,2022-05-09T10:19:22.355Z,,,,,,,,,,,,,,,,,51,,,,,,,,,,,,,,416.90000004769536,,response,,,,13,C,,,,,,Space,keypress(Space),,,,instrumental,,,,-------- -------- --- --- ---- --- --- ------ -- --------<br>---- --------- the ------- ------------ ---------- ---------<br>--- ---------- ------- ---------- ------- -- -------- ----<br>---- --- ------ ----- ------ -- ---- --- ----- -- - -------<br>-------- -- --- --- -- ----- ----------- ----- -----------<br>---- --- ---------- --- ---- --- -- ----------,349055.90000009537,349054.7000000477,348621.136,348620.7999999523,348637.8,349069.175,,12,the
screen,html.Screen,2_3_1_0_1_13,2022-05-09T10:19:22.803Z,,,,,,,,,,,,,,,,,51,,,,,,,,,,,,,,433.6249999523279,,response,,,,13,C,,,,,,Space,keypress(Space),,,,instrumental,,,,-------- -------- --- --- ---- --- --- ------ -- --------<br>---- --------- --- federal ------------ ---------- ---------<br>--- ---------- ------- ---------- ------- -- -------- ----<br>---- --- ------ ----- ------ -- ---- --- ----- -- - -------<br>-------- -- --- --- -- ----- ----------- ----- -----------<br>---- --- ---------- --- ---- --- -- ----------,349503.2999999523,349502.7999999523,349052.511,349056.2000000477,349069.175,349517.33,,13,federal
screen,html.Screen,2_3_1_0_1_14,2022-05-09T10:19:23.462Z,,,,,,,,,,,,,,,,,51,,,,,,,,,,,,,,644.4699999523,,response,,,,13,C,,,,,,Space,keypress(Space),,,,instrumental,,,,-------- -------- --- --- ---- --- --- ------ -- --------<br>---- --------- --- ------- government's ---------- ---------<br>--- ---------- ------- ---------- ------- -- -------- ----<br>---- --- ------ ----- ------ -- ---- --- ----- -- - -------<br>-------- -- --- --- -- ----- ----------- ----- -----------<br>---- --- ---------- --- ---- --- -- ----------,350163.10000014305,350161.7999999523,349500.666,349503.40000009537,349517.33,350180.72,,14,government's
screen,html.Screen,2_3_1_0_1_15,2022-05-09T10:19:26.899Z,,,,,,,,,,,,,,,,,51,,,,,,,,,,,,,,3417.880000143079,,response,,,,13,C,,,,,,Space,keypress(Space),,,,instrumental,,,,-------- -------- --- --- ---- --- --- ------ -- --------<br>---- --------- --- ------- ------------ regulatory ---------<br>--- ---------- ------- ---------- ------- -- -------- ----<br>---- --- ------ ----- ------ -- ---- --- ----- -- - -------<br>-------- -- --- --- -- ----- ----------- ----- -----------<br>---- --- ---------- --- ---- --- -- ----------,353599.7999999523,353598.60000014305,350164.056,350163.40000009537,350180.72,353612.796,,15,regulatory
screen,html.Screen,2_3_1_0_1_16,2022-05-09T10:19:27.381Z,,,,,,,,,,,,,,,,,51,,,,,,,,,,,,,,467.60400009539444,,response,,,,13,C,,,,,,Space,keypress(Space),,,,instrumental,,,,-------- -------- --- --- ---- --- --- ------ -- --------<br>---- --------- --- ------- ------------ ---------- apparatus<br>--- ---------- ------- ---------- ------- -- -------- ----<br>---- --- ------ ----- ------ -- ---- --- ----- -- - -------<br>-------- -- --- --- -- ----- ----------- ----- -----------<br>---- --- ---------- --- ---- --- -- ----------,354081.40000009537,354080.40000009537,353596.132,353600,353612.796,354089.195,,16,apparatus
screen,html.Screen,2_3_1_0_1_17,2022-05-09T10:19:27.958Z,,,,,,,,,,,,,,,,,51,,,,,,,,,,,,,,568.7050000953604,,response,,,,13,C,,,,,,Space,keypress(Space),,,,instrumental,,,,-------- -------- --- --- ---- --- --- ------ -- --------<br>---- --------- --- ------- ------------ ---------- ---------<br>may ---------- ------- ---------- ------- -- -------- ----<br>---- --- ------ ----- ------ -- ---- --- ----- -- - -------<br>-------- -- --- --- -- ----- ----------- ----- -----------<br>---- --- ---------- --- ---- --- -- ----------,354659.10000014305,354657.90000009537,354072.531,354081.7000000477,354089.195,354664.143,,17,may
screen,html.Screen,2_3_1_0_1_18,2022-05-09T10:19:28.505Z,,,,,,,,,,,,,,,,,51,,,,,,,,,,,,,,540.8570000000182,,response,,,,13,C,,,,,,Space,keypress(Space),,,,instrumental,,,,-------- -------- --- --- ---- --- --- ------ -- --------<br>---- --------- --- ------- ------------ ---------- ---------<br>--- profoundly ------- ---------- ------- -- -------- ----<br>---- --- ------ ----- ------ -- ---- --- ----- -- - -------<br>-------- -- --- --- -- ----- ----------- ----- -----------<br>---- --- ---------- --- ---- --- -- ----------,355206.10000014305,355205,354647.479,354659.2999999523,354664.143,355212.203,,18,profoundly
screen,html.Screen,2_3_1_0_1_19,2022-05-09T10:19:29.021Z,,,,,,,,,,,,,,,,,51,,,,,,,,,,,,,,508.1970000953879,,response,,,,13,C,,,,,,Space,keypress(Space),,,,instrumental,,,,-------- -------- --- --- ---- --- --- ------ -- --------<br>---- --------- --- ------- ------------ ---------- ---------<br>--- ---------- improve ---------- ------- -- -------- ----<br>---- --- ------ ----- ------ -- ---- --- ----- -- - -------<br>-------- -- --- --- -- ----- ----------- ----- -----------<br>---- --- ---------- --- ---- --- -- ----------,355721.5,355720.40000009537,355195.539,355206.2999999523,355212.203,355726.51,,19,improve
screen,html.Screen,2_3_1_0_1_20,2022-05-09T10:19:29.928Z,,,,,,,,,,,,,,,,,51,,,,,,,,,,,,,,901.1900000476744,,response,,,,13,C,,,,,,Space,keypress(Space),,,,instrumental,,,,-------- -------- --- --- ---- --- --- ------ -- --------<br>---- --------- --- ------- ------------ ---------- ---------<br>--- ---------- ------- companies' ------- -- -------- ----<br>---- --- ------ ----- ------ -- ---- --- ----- -- - -------<br>-------- -- --- --- -- ----- ----------- ----- -----------<br>---- --- ---------- --- ---- --- -- ----------,356628.90000009537,356627.7000000477,355709.846,355721.7000000477,355726.51,356641.023,,20,companies'
screen,html.Screen,2_3_1_0_1_21,2022-05-09T10:19:30.764Z,,,,,,,,,,,,,,,,,51,,,,,,,,,,,,,,822.2769999523298,,response,,,,13,C,,,,,,Space,keypress(Space),,,,instrumental,,,,-------- -------- --- --- ---- --- --- ------ -- --------<br>---- --------- --- ------- ------------ ---------- ---------<br>--- ---------- ------- ---------- ability -- -------- ----<br>---- --- ------ ----- ------ -- ---- --- ----- -- - -------<br>-------- -- --- --- -- ----- ----------- ----- -----------<br>---- --- ---------- --- ---- --- -- ----------,357464.5,357463.2999999523,356624.359,356629.2000000477,356641.023,357471.546,,21,ability
screen,html.Screen,2_3_1_0_1_22,2022-05-09T10:19:31.256Z,,,,,,,,,,,,,,,,,51,,,,,,,,,,,,,,483.6540000477107,,response,,,,13,C,,,,,,Space,keypress(Space),,,,instrumental,,,,-------- -------- --- --- ---- --- --- ------ -- --------<br>---- --------- --- ------- ------------ ---------- ---------<br>--- ---------- ------- ---------- ------- to -------- ----<br>---- --- ------ ----- ------ -- ---- --- ----- -- - -------<br>-------- -- --- --- -- ----- ----------- ----- -----------<br>---- --- ---------- --- ---- --- -- ----------,357956.40000009537,357955.2000000477,357454.882,357464.7000000477,357471.546,357968.682,,22,to
screen,html.Screen,2_3_1_0_1_23,2022-05-09T10:19:31.688Z,,,,,,,,,,,,,,,,,51,,,,,,,,,,,,,,418.6179999523447,,response,,,,13,C,,,,,,Space,keypress(Space),,,,instrumental,,,,-------- -------- --- --- ---- --- --- ------ -- --------<br>---- --------- --- ------- ------------ ---------- ---------<br>--- ---------- ------- ---------- ------- -- survive. ----<br>---- --- ------ ----- ------ -- ---- --- ----- -- - -------<br>-------- -- --- --- -- ----- ----------- ----- -----------<br>---- --- ---------- --- ---- --- -- ----------,358388.40000009537,358387.2999999523,357952.018,357956.5,357968.682,358398.779,,23,survive.
screen,html.Screen,2_3_1_0_1_24,2022-05-09T10:19:33.169Z,,,,,,,,,,,,,,,,,51,,,,,,,,,,,,,,1469.4210000477033,,response,,,,13,C,,,,,,Space,keypress(Space),,,,instrumental,,,,-------- -------- --- --- ---- --- --- ------ -- --------<br>---- --------- --- ------- ------------ ---------- ---------<br>--- ---------- ------- ---------- ------- -- -------- This<br>---- --- ------ ----- ------ -- ---- --- ----- -- - -------<br>-------- -- --- --- -- ----- ----------- ----- -----------<br>---- --- ---------- --- ---- --- -- ----------,359869.40000009537,359868.2000000477,358382.115,358388.60000014305,358398.779,359879.98,,24,This
screen,html.Screen,2_3_1_0_1_25,2022-05-09T10:19:33.633Z,,,,,,,,,,,,,,,,,51,,,,,,,,,,,,,,452.72000004770234,,response,,,,13,C,,,,,,Space,keypress(Space),,,,instrumental,,,,-------- -------- --- --- ---- --- --- ------ -- --------<br>---- --------- --- ------- ------------ ---------- ---------<br>--- ---------- ------- ---------- ------- -- -------- ----<br>week --- ------ ----- ------ -- ---- --- ----- -- - -------<br>-------- -- --- --- -- ----- ----------- ----- -----------<br>---- --- ---------- --- ---- --- -- ----------,360333.7999999523,360332.7000000477,359863.316,359869.60000014305,359879.98,360344.913,,25,week
screen,html.Screen,2_3_1_0_1_26,2022-05-09T10:19:34.051Z,,,,,,,,,,,,,,,,,51,,,,,,,,,,,,,,405.8869999523158,,response,,,,13,C,,,,,,Space,keypress(Space),,,,instrumental,,,,-------- -------- --- --- ---- --- --- ------ -- --------<br>---- --------- --- ------- ------------ ---------- ---------<br>--- ---------- ------- ---------- ------- -- -------- ----<br>---- the ------ ----- ------ -- ---- --- ----- -- - -------<br>-------- -- --- --- -- ----- ----------- ----- -----------<br>---- --- ---------- --- ---- --- -- ----------,360751.90000009537,360750.7999999523,360328.249,360334,360344.913,360755.867,,26,the
screen,html.Screen,2_3_1_0_1_27,2022-05-09T10:19:34.438Z,,,,,,,,,,,,,,,,,51,,,,,,,,,,,,,,381.7330001430237,,response,,,,13,C,,,,,,Space,keypress(Space),,,,instrumental,,,,-------- -------- --- --- ---- --- --- ------ -- --------<br>---- --------- --- ------- ------------ ---------- ---------<br>--- ---------- ------- ---------- ------- -- -------- ----<br>---- --- Senate ----- ------ -- ---- --- ----- -- - -------<br>-------- -- --- --- -- ----- ----------- ----- -----------<br>---- --- ---------- --- ---- --- -- ----------,361138.7999999523,361137.60000014305,360739.203,360752.2000000477,360755.867,361154.03,,27,Senate
screen,html.Screen,2_3_1_0_1_28,2022-05-09T10:19:34.900Z,,,,,,,,,,,,,,,,,51,,,,,,,,,,,,,,445.46999999997206,,response,,,,13,C,,,,,,Space,keypress(Space),,,,instrumental,,,,-------- -------- --- --- ---- --- --- ------ -- --------<br>---- --------- --- ------- ------------ ---------- ---------<br>--- ---------- ------- ---------- ------- -- -------- ----<br>---- --- ------ seems ------ -- ---- --- ----- -- - -------<br>-------- -- --- --- -- ----- ----------- ----- -----------<br>---- --- ---------- --- ---- --- -- ----------,361600.60000014305,361599.5,361137.366,361138.90000009537,361154.03,361602.377,,28,seems
screen,html.Screen,2_3_1_0_1_29,2022-05-09T10:19:35.762Z,,,,,,,,,,,,,,,,,51,,,,,,,,,,,,,,859.1230000000214,,response,,,,13,C,,,,,,Space,keypress(Space),,,,instrumental,,,,-------- -------- --- --- ---- --- --- ------ -- --------<br>---- --------- --- ------- ------------ ---------- ---------<br>--- ---------- ------- ---------- ------- -- -------- ----<br>---- --- ------ ----- poised -- ---- --- ----- -- - -------<br>-------- -- --- --- -- ----- ----------- ----- -----------<br>---- --- ---------- --- ---- --- -- ----------,362462.7000000477,362461.5,361585.713,361600.7999999523,361602.377,362467.451,,29,poised
screen,html.Screen,2_3_1_0_1_30,2022-05-09T10:19:36.243Z,,,,,,,,,,,,,,,,,51,,,,,,,,,,,,,,474.7490000476828,,response,,,,13,C,,,,,,Space,keypress(Space),,,,instrumental,,,,-------- -------- --- --- ---- --- --- ------ -- --------<br>---- --------- --- ------- ------------ ---------- ---------<br>--- ---------- ------- ---------- ------- -- -------- ----<br>---- --- ------ ----- ------ to ---- --- ----- -- - -------<br>-------- -- --- --- -- ----- ----------- ----- -----------<br>---- --- ---------- --- ---- --- -- ----------,362943.2999999523,362942.2000000477,362450.787,362462.90000009537,362467.451,362948.901,,30,to
screen,html.Screen,2_3_1_0_1_31,2022-05-09T10:19:36.636Z,,,,,,,,,,,,,,,,,51,,,,,,,,,,,,,,386.5989999999874,,response,,,,13,C,,,,,,Space,keypress(Space),,,,instrumental,,,,-------- -------- --- --- ---- --- --- ------ -- --------<br>---- --------- --- ------- ------------ ---------- ---------<br>--- ---------- ------- ---------- ------- -- -------- ----<br>---- --- ------ ----- ------ -- join --- ----- -- - -------<br>-------- -- --- --- -- ----- ----------- ----- -----------<br>---- --- ---------- --- ---- --- -- ----------,363336.7000000477,363335.5,362932.237,362943.5,362948.901,363345.548,,31,join
screen,html.Screen,2_3_1_0_1_32,2022-05-09T10:19:37.071Z,,,,,,,,,,,,,,,,,51,,,,,,,,,,,,,,424.85200009535765,,response,,,,13,C,,,,,,Space,keypress(Space),,,,instrumental,,,,-------- -------- --- --- ---- --- --- ------ -- --------<br>---- --------- --- ------- ------------ ---------- ---------<br>--- ---------- ------- ---------- ------- -- -------- ----<br>---- --- ------ ----- ------ -- ---- the ----- -- - -------<br>-------- -- --- --- -- ----- ----------- ----- -----------<br>---- --- ---------- --- ---- --- -- ----------,363771.5,363770.40000009537,363328.884,363336.90000009537,363345.548,363776.996,,32,the
screen,html.Screen,2_3_1_0_1_33,2022-05-09T10:19:37.460Z,,,,,,,,,,,,,,,,,51,,,,,,,,,,,,,,382.30399995233165,,response,,,,13,C,,,,,,Space,keypress(Space),,,,instrumental,,,,-------- -------- --- --- ---- --- --- ------ -- --------<br>---- --------- --- ------- ------------ ---------- ---------<br>--- ---------- ------- ---------- ------- -- -------- ----<br>---- --- ------ ----- ------ -- ---- --- House -- - -------<br>-------- -- --- --- -- ----- ----------- ----- -----------<br>---- --- ---------- --- ---- --- -- ----------,364160.5,364159.2999999523,363760.332,363771.7000000477,363776.996,364175.372,,33,House
screen,html.Screen,2_3_1_0_1_34,2022-05-09T10:19:37.911Z,,,,,,,,,,,,,,,,,51,,,,,,,,,,,,,,434.92799995234236,,response,,,,13,C,,,,,,Space,keypress(Space),,,,instrumental,,,,-------- -------- --- --- ---- --- --- ------ -- --------<br>---- --------- --- ------- ------------ ---------- ---------<br>--- ---------- ------- ---------- ------- -- -------- ----<br>---- --- ------ ----- ------ -- ---- --- ----- in - -------<br>-------- -- --- --- -- ----- ----------- ----- -----------<br>---- --- ---------- --- ---- --- -- ----------,364611.5,364610.2999999523,364158.708,364160.7000000477,364175.372,364623.69,,34,in
screen,html.Screen,2_3_1_0_1_35,2022-05-09T10:19:38.309Z,,,,,,,,,,,,,,,,,51,,,,,,,,,,,,,,384.3099999999977,,response,,,,13,C,,,,,,Space,keypress(Space),,,,instrumental,,,,-------- -------- --- --- ---- --- --- ------ -- --------<br>---- --------- --- ------- ------------ ---------- ---------<br>--- ---------- ------- ---------- ------- -- -------- ----<br>---- --- ------ ----- ------ -- ---- --- ----- -- a -------<br>-------- -- --- --- -- ----- ----------- ----- -----------<br>---- --- ---------- --- ---- --- -- ----------,365009.2999999523,365008,364607.026,364611.7000000477,364623.69,365022.172,,35,a
screen,html.Screen,2_3_1_0_1_36,2022-05-09T10:19:38.843Z,,,,,,,,,,,,,,,,,51,,,,,,,,,,,,,,520.7280000953469,,response,,,,13,C,,,,,,Space,keypress(Space),,,,instrumental,,,,-------- -------- --- --- ---- --- --- ------ -- --------<br>---- --------- --- ------- ------------ ---------- ---------<br>--- ---------- ------- ---------- ------- -- -------- ----<br>---- --- ------ ----- ------ -- ---- --- ----- -- - massive<br>-------- -- --- --- -- ----- ----------- ----- -----------<br>---- --- ---------- --- ---- --- -- ----------,365544.2000000477,365542.90000009537,365005.508,365009.90000009537,365022.172,365553.714,,36,massive
screen,html.Screen,2_3_1_0_1_37,2022-05-09T10:19:40.814Z,,,,,,,,,,,,,,,,,51,,,,,,,,,,,,,,1959.2860000000219,,response,,,,13,C,,,,,,Space,keypress(Space),,,,instrumental,,,,-------- -------- --- --- ---- --- --- ------ -- --------<br>---- --------- --- ------- ------------ ---------- ---------<br>--- ---------- ------- ---------- ------- -- -------- ----<br>---- --- ------ ----- ------ -- ---- --- ----- -- - -------<br>overhaul -- --- --- -- ----- ----------- ----- -----------<br>---- --- ---------- --- ---- --- -- ----------,367514.40000009537,367513,365537.05,365544.40000009537,365553.714,367518.511,,37,overhaul
screen,html.Screen,2_3_1_0_1_38,2022-05-09T10:19:41.207Z,,,,,,,,,,,,,,,,,51,,,,,,,,,,,,,,388.58900014305254,,response,,,,13,C,,,,,,Space,keypress(Space),,,,instrumental,,,,-------- -------- --- --- ---- --- --- ------ -- --------<br>---- --------- --- ------- ------------ ---------- ---------<br>--- ---------- ------- ---------- ------- -- -------- ----<br>---- --- ------ ----- ------ -- ---- --- ----- -- - -------<br>-------- of --- --- -- ----- ----------- ----- -----------<br>---- --- ---------- --- ---- --- -- ----------,367908.2999999523,367907.10000014305,367501.847,367514.7000000477,367518.511,367916.357,,38,of
