sender,sender_type,sender_id,timestamp,meta,,Blues,Classical,Country,Dance,Electronic,Folk,Gospel,Hip-Hop,Jazz,Latin,Musical/Film,New-age,Pop,Prolific_id,Provo_ID,R&B,Rap,Reggae,Religious,Rock,Soul,Swing,Traditional,age,artist_name,correct,correctResponse,distraction,duration,education,ended_on,familiarity,gender,headphone_check_performance,item,list,music_frequency,offensiveness,pleasantness,position_correct,preference,response,response_action,snippet_file,song_name,song_rating,sound,stimulus_1,stimulus_2,stimulus_3,text,time_commit,time_end,time_render,time_run,time_show,time_switch,url,word,word_ID
Prolific ID,html.Form,0,2022-05-02T09:43:25.030Z,"{""labjs_version"":""20.2.2"",""labjs_build"":{""flavor"":""production"",""commit"":""a25486e0c714a0ae2ce03ff94b7bb6896854dcfa""},""location"":""https://run.pavlovia.org/mvasilev/prolific3_music_e/"",""userAgent"":""Mozilla/5.0 (Windows NT 10.0; Win64; x64) AppleWebKit/537.36 (KHTML, like Gecko) Chrome/100.0.4896.127 Safari/537.36"",""platform"":""Win32"",""language"":""en-GB"",""locale"":""en-GB"",""timeZone"":""Europe/London"",""timezoneOffset"":-60,""screen_width"":1280,""screen_height"":720,""scroll_width"":1280,""scroll_height"":569,""window_innerWidth"":1280,""window_innerHeight"":569,""devicePixelRatio"":2}",,,,,,,,,,,,,,,5fe519488929f03278ce82e6,,,,,,,,,,,,,,,8227.72999999106,,form submission,,,,,,,,,,,,,,,,,,,,,12462.79999999702,12462.39999999106,4201.308,4203.70000000298,4234.67,12466.44,{},,
Introduction,html.Screen,1_0,2022-05-02T09:43:32.324Z,,,,,,,,,,,,,,,,,,,,,,,,,,,,,,,7289.159999994039,,response,,,,,,,,,,,continue,click button,,,,,,,,,19756.89999999106,19755.59999999404,12449.787,12462.79999999702,12466.44,19765.019,,,
Volume calibration,html.Screen,1_1,2022-05-02T09:43:47.860Z,,,,,,,,,,,,,,,,,,,,,,,,,,,,,,,15527.380999991059,,response,,,,,,,,,,,continue,click button,,,,,,,,,35293.29999999702,35292.39999999106,19748.435,19757,19765.019,35295.4,,,
Task instructions,html.Screen,1_2,2022-05-02T09:43:50.083Z,,,,,,,,,,,,,,,,,,,,,,,,,,,,,,,2220.499999991058,,response,,,,,,,,,,,continue,click button,,,,,,,,,37516.39999999106,37515.89999999106,35278.754,35293.29999999702,35295.4,37528.288,,,
Sounds,html.Screen,1_3_0_0,2022-05-02T09:43:54.330Z,,,,,,,,,,,,,,,,,,,,,,,,,,,,,,,4249.211000000003,,timeout,,,,,,,,,1,,,,,,,,S,O,I,,41763.59999999404,41760.856,37511.652,37516.5,37528.288,41777.499,,,
Judgement,html.Screen,1_3_0_1,2022-05-02T09:44:00.312Z,,,,,,,,,,,,,,,,,,,,,,,,,,,,false,1,,5966.900999991056,,response,,,,,,,,,1,,3,click #choice-3,,,,,S,O,I,,47745.39999999106,47744.39999999106,41760.856,41763.70000000298,41777.499,47759.678,,,
Trial,flow.Sequence,1_3_0,2022-05-02T09:44:00.314Z,,,,,,,,,,,,,,,,,,,,,,,,,,,,,,,10216.111999991059,,completion,,,,,,,,,1,,,,,,,,S,O,I,,47746.70000000298,47744.39999999106,37511.652,37516.5,37528.288,47759.678,,,
Sounds,html.Screen,1_3_1_0,2022-05-02T09:44:04.560Z,,,,,,,,,,,,,,,,,,,,,,,,,,,,,,,4249.233999999997,,timeout,,,,,,,,,2,,,,,,,,I,S,O,,51993,51992.253,47743.021,47746.89999999106,47759.678,52008.912,,,
Judgement,html.Screen,1_3_1_1,2022-05-02T09:44:05.243Z,,,,,,,,,,,,,,,,,,,,,,,,,,,,true,2,,665.8879999970231,,response,,,,,,,,,2,,2,click #choice-2,,,,,I,S,O,,52676,52674.79999999702,51992.253,51993.09999999404,52008.912,52692.159,,,
Trial,flow.Sequence,1_3_1,2022-05-02T09:44:05.243Z,,,,,,,,,,,,,,,,,,,,,,,,,,,,,,,4915.12199999702,,completion,,,,,,,,,2,,,,,,,,I,S,O,,52676.09999999404,52674.79999999702,47743.021,47746.70000000298,47759.678,52692.159,,,
Sounds,html.Screen,1_3_2_0,2022-05-02T09:44:09.493Z,,,,,,,,,,,,,,,,,,,,,,,,,,,,,,,4249.084999999999,,timeout,,,,,,,,,2,,,,,,,,O,S,I,,56925.70000000298,56924.77,52675.397,52676.20000000298,52692.159,56941.244,,,
Judgement,html.Screen,1_3_2_1,2022-05-02T09:44:09.991Z,,,,,,,,,,,,,,,,,,,,,,,,,,,,true,2,,482.055999997021,,response,,,,,,,,,2,,2,click #choice-2,,,,,O,S,I,,57423.89999999106,57423.29999999702,56924.77,56925.89999999106,56941.244,57452.742,,,
Trial,flow.Sequence,1_3_2,2022-05-02T09:44:09.991Z,,,,,,,,,,,,,,,,,,,,,,,,,,,,,,,4731.14099999702,,completion,,,,,,,,,2,,,,,,,,O,S,I,,57424,57423.29999999702,52675.397,52676.09999999404,52692.159,57452.742,,,
Sounds,html.Screen,1_3_3_0,2022-05-02T09:44:14.258Z,,,,,,,,,,,,,,,,,,,,,,,,,,,,,,,4254.3110000000015,,timeout,,,,,,,,,3,,,,,,,,I,O,S,,61690.89999999106,61690.362,57408.068,57424,57452.742,61707.053,,,
Judgement,html.Screen,1_3_3_1,2022-05-02T09:44:14.942Z,,,,,,,,,,,,,,,,,,,,,,,,,,,,true,3,,667.1470000029803,,response,,,,,,,,,3,,3,click #choice-3,,,,,I,O,S,,62375,62374.20000000298,61690.362,61691,61707.053,62390.208,,,
Trial,flow.Sequence,1_3_3,2022-05-02T09:44:14.942Z,,,,,,,,,,,,,,,,,,,,,,,,,,,,,,,4921.458000002982,,completion,,,,,,,,,3,,,,,,,,I,O,S,,62375.20000000298,62374.20000000298,57408.068,57424,57452.742,62390.208,,,
Sounds,html.Screen,1_3_4_0,2022-05-02T09:44:19.190Z,,,,,,,,,,,,,,,,,,,,,,,,,,,,,,,4249.209000000003,,timeout,,,,,,,,,3,,,,,,,,O,I,S,,66623.70000000298,66622.793,62373.633,62375.29999999702,62390.208,66639.417,,,
Judgement,html.Screen,1_3_4_1,2022-05-02T09:44:19.802Z,,,,,,,,,,,,,,,,,,,,,,,,,,,,true,3,,595.1829999940383,,response,,,,,,,,,3,,3,click #choice-3,,,,,O,I,S,,67235.29999999702,67234.59999999404,66622.793,66623.70000000298,66639.417,67239.294,,,
Trial,flow.Sequence,1_3_4,2022-05-02T09:44:19.802Z,,,,,,,,,,,,,,,,,,,,,,,,,,,,,,,4844.391999994041,,completion,,,,,,,,,3,,,,,,,,O,I,S,,67235.39999999106,67234.59999999404,62373.633,62375.29999999702,62390.208,67239.294,,,
Sounds,html.Screen,1_3_5_0,2022-05-02T09:44:24.040Z,,,,,,,,,,,,,,,,,,,,,,,,,,,,,,,4249.222000000009,,timeout,,,,,,,,,1,,,,,,,,S,I,O,,71472.89999999106,71471.905,67222.778,67235.5,67239.294,71488.516,,,
Judgement,html.Screen,1_3_5_1,2022-05-02T09:44:24.727Z,,,,,,,,,,,,,,,,,,,,,,,,,,,,true,1,,671.2839999970165,,response,,,,,,,,,1,,1,click #choice-1,,,,,S,I,O,,72160.59999999404,72159.79999999702,71471.905,71473,71488.516,72171.71,,,
Trial,flow.Sequence,1_3_5,2022-05-02T09:44:24.728Z,,,,,,,,,,,,,,,,,,,,,,,,,,,,,,,4920.505999997025,,completion,,,,,,,,,1,,,,,,,,S,I,O,,72160.70000000298,72159.79999999702,67222.778,67235.5,67239.294,72171.71,,,
Task,flow.Loop,1_3,2022-05-02T09:44:24.730Z,,,,,,,,,,,,,,,,,,,,,,,,,,,,,,,34631.51199999702,,completion,,,0.8333333333333334,,,,,,,,,,,,,,,,,,72163.20000000298,72159.79999999702,37511.652,37516.5,37528.288,72171.71,,,
Trap,html.Screen,1_4,2022-05-02T09:44:24.731Z,,,,,,,,,,,,,,,,,,,,,,,,,,,,,,,NaN,,skipped,,,,,,,,,,,,,,,,,,,,,72163.70000000298,72159.79999999702,,72163.70000000298,,72171.71,,,
Thanks,html.Screen,1_5,2022-05-02T09:44:29.911Z,,,,,,,,,,,,,,,,,,,,,,,,,,,,,,,5172.089999997013,,response,,,,,,,,,,,continue,click button,,,,,,,,,77344.59999999404,77343.79999999702,72155.063,72163.79999999702,72171.71,80736.704,,,
Headphone screening,flow.Sequence,1,2022-05-02T09:44:29.912Z,,,,,,,,,,,,,,,,,,,,,,,,,,,,,,,64877.35999999702,,completion,,,,,,,,,,,,,,,,,,,,,77344.70000000298,77343.79999999702,12449.787,12462.79999999702,12466.44,80736.704,,,
Instructions,html.Page,2_0,2022-05-02T09:44:53.664Z,,,,,,,,,,,,,,,,,,,,,,,,,,,,,,,20360.19599999106,,form submission,,,,,,,,,,,,,,,,,,,,,101097.09999999404,101096.89999999106,80720.118,80735.70000000298,80736.704,101099.503,,,
Holding screen,html.Screen,2_1_0_0,2022-05-02T09:45:03.649Z,,,,,,,,,,,,,,,,,,,,,,,,,,,,,,,9998.055000000008,,timeout,,,,,,,,,,,,,,,,,,,,,111082.29999999702,111081.331,101082.828,101097.29999999702,101099.503,111097.558,,,
screen,html.Screen,2_1_0_1_0,2022-05-02T09:45:05.314Z,,,,,,,,,,,,,,,,,53,,,,,,,,,,,,,,1647.4419999999955,,response,,,,99,,,,,,,Space,keypress(Space),,,,,,,,When -- ----- -- ------ - ------- --- ----------<br>------------- ------ ------ ---- ---- ------- ----- -- ----<br>-------- ------- -- ---------- --- - --- ----- ----- ----<br>---- --- --- ----- --- ---- ---- ------- ----- ---- -------<br>--- --- -- ----- -- --- ---- -- --- ---- -- ------ ------<br>--- ----- -- ----,112746.79999999702,112745,111081.331,111082.59999999404,111097.558,112780.809,,0,When
screen,html.Screen,2_1_0_1_1,2022-05-02T09:45:06.803Z,,,,,,,,,,,,,,,,,53,,,,,,,,,,,,,,1454.7909999940457,,response,,,,99,,,,,,,Space,keypress(Space),,,,,,,,---- it ----- -- ------ - ------- --- ----------<br>------------- ------ ------ ---- ---- ------- ----- -- ----<br>-------- ------- -- ---------- --- - --- ----- ----- ----<br>---- --- --- ----- --- ---- ---- ------- ----- ---- -------<br>--- --- -- ----- -- --- ---- -- --- ---- -- ------ ------<br>--- ----- -- ----,114236.20000000298,114235.59999999404,112764.068,112747,112780.809,114247.268,,1,it
screen,html.Screen,2_1_0_1_2,2022-05-02T09:45:07.336Z,,,,,,,,,,,,,,,,,53,,,,,,,,,,,,,,522.0319999970234,,response,,,,99,,,,,,,Space,keypress(Space),,,,,,,,---- -- comes -- ------ - ------- --- ----------<br>------------- ------ ------ ---- ---- ------- ----- -- ----<br>-------- ------- -- ---------- --- - --- ----- ----- ----<br>---- --- --- ----- --- ---- ---- ------- ----- ---- -------<br>--- --- -- ----- -- --- ---- -- --- ---- -- ------ ------<br>--- ----- -- ----,114769.59999999404,114769.29999999702,114231.081,114236.20000000298,114247.268,114780.3,,2,comes
screen,html.Screen,2_1_0_1_3,2022-05-02T09:45:07.938Z,,,,,,,,,,,,,,,,,53,,,,,,,,,,,,,,590.4999999970169,,response,,,,99,,,,,,,Space,keypress(Space),,,,,,,,---- -- ----- to ------ - ------- --- ----------<br>------------- ------ ------ ---- ---- ------- ----- -- ----<br>-------- ------- -- ---------- --- - --- ----- ----- ----<br>---- --- --- ----- --- ---- ---- ------- ----- ---- -------<br>--- --- -- ----- -- --- ---- -- --- ---- -- ------ ------<br>--- ----- -- ----,115371.20000000298,115370.79999999702,114764.023,114769.59999999404,114780.3,115380.166,,3,to
screen,html.Screen,2_1_0_1_4,2022-05-02T09:45:08.364Z,,,,,,,,,,,,,,,,,53,,,,,,,,,,,,,,416.23399999106186,,response,,,,99,,,,,,,Space,keypress(Space),,,,,,,,---- -- ----- -- having - ------- --- ----------<br>------------- ------ ------ ---- ---- ------- ----- -- ----<br>-------- ------- -- ---------- --- - --- ----- ----- ----<br>---- --- --- ----- --- ---- ---- ------- ----- ---- -------<br>--- --- -- ----- -- --- ---- -- --- ---- -- ------ ------<br>--- ----- -- ----,115796.79999999702,115796.39999999106,115363.524,115371.29999999702,115380.166,115813.373,,4,having
screen,html.Screen,2_1_0_1_5,2022-05-02T09:45:08.803Z,,,,,,,,,,,,,,,,,53,,,,,,,,,,,,,,422.32700000297336,,response,,,,99,,,,,,,Space,keypress(Space),,,,,,,,---- -- ----- -- ------ a ------- --- ----------<br>------------- ------ ------ ---- ---- ------- ----- -- ----<br>-------- ------- -- ---------- --- - --- ----- ----- ----<br>---- --- --- ----- --- ---- ---- ------- ----- ---- -------<br>--- --- -- ----- -- --- ---- -- --- ---- -- ------ ------<br>--- ----- -- ----,116236,116235.70000000298,115797.075,115797,115813.373,116247.226,,5,a
screen,html.Screen,2_1_0_1_6,2022-05-02T09:45:09.300Z,,,,,,,,,,,,,,,,,53,,,,,,,,,,,,,,485.07399999702466,,response,,,,99,,,,,,,Space,keypress(Space),,,,,,,,---- -- ----- -- ------ - lasting --- ----------<br>------------- ------ ------ ---- ---- ------- ----- -- ----<br>-------- ------- -- ---------- --- - --- ----- ----- ----<br>---- --- --- ----- --- ---- ---- ------- ----- ---- -------<br>--- --- -- ----- -- --- ---- -- --- ---- -- ------ ------<br>--- ----- -- ----,116732.79999999702,116732.29999999702,116230.202,116236,116247.226,116746.675,,6,lasting
screen,html.Screen,2_1_0_1_7,2022-05-02T09:45:09.676Z,,,,,,,,,,,,,,,,,53,,,,,,,,,,,,,,362.2249999910564,,response,,,,99,,,,,,,Space,keypress(Space),,,,,,,,---- -- ----- -- ------ - ------- and ----------<br>------------- ------ ------ ---- ---- ------- ----- -- ----<br>-------- ------- -- ---------- --- - --- ----- ----- ----<br>---- --- --- ----- --- ---- ---- ------- ----- ---- -------<br>--- --- -- ----- -- --- ---- -- --- ---- -- ------ ------<br>--- ----- -- ----,117109.39999999106,117108.89999999106,116729.96,116732.79999999702,116746.675,117113.094,,7,and
screen,html.Screen,2_1_0_1_8,2022-05-02T09:45:10.172Z,,,,,,,,,,,,,,,,,53,,,,,,,,,,,,,,491.4060000000027,,response,,,,99,,,,,,,Space,keypress(Space),,,,,,,,---- -- ----- -- ------ - ------- --- fulfilling<br>------------- ------ ------ ---- ---- ------- ----- -- ----<br>-------- ------- -- ---------- --- - --- ----- ----- ----<br>---- --- --- ----- --- ---- ---- ------- ----- ---- -------<br>--- --- -- ----- -- --- ---- -- --- ---- -- ------ ------<br>--- ----- -- ----,117604.70000000298,117604.5,117096.875,117109.39999999106,117113.094,117613.062,,8,fulfilling
screen,html.Screen,2_1_0_1_9,2022-05-02T09:45:10.680Z,,,,,,,,,,,,,,,,,53,,,,,,,,,,,,,,499.6380000029749,,response,,,,99,,,,,,,Space,keypress(Space),,,,,,,,"---- -- ----- -- ------ - ------- --- ----------<br>relationship, ------ ------ ---- ---- ------- ----- -- ----<br>-------- ------- -- ---------- --- - --- ----- ----- ----<br>---- --- --- ----- --- ---- ---- ------- ----- ---- -------<br>--- --- -- ----- -- --- ---- -- --- ---- -- ------ ------<br>--- ----- -- ----",118113.20000000298,118112.70000000298,117596.512,117604.70000000298,117613.062,118129.673,,9,"relationship,"
screen,html.Screen,2_1_0_1_10,2022-05-02T09:45:11.324Z,,,,,,,,,,,,,,,,,53,,,,,,,,,,,,,,626.4269999940443,,response,,,,99,,,,,,,Space,keypress(Space),,,,,,,,---- -- ----- -- ------ - ------- --- ----------<br>------------- common ------ ---- ---- ------- ----- -- ----<br>-------- ------- -- ---------- --- - --- ----- ----- ----<br>---- --- --- ----- --- ---- ---- ------- ----- ---- -------<br>--- --- -- ----- -- --- ---- -- --- ---- -- ------ ------<br>--- ----- -- ----,118756.70000000298,118756.09999999404,118113.012,118113.20000000298,118129.673,118762.983,,10,common
screen,html.Screen,2_1_0_1_11,2022-05-02T09:45:11.764Z,,,,,,,,,,,,,,,,,53,,,,,,,,,,,,,,433.4169999910664,,response,,,,99,,,,,,,Space,keypress(Space),,,,,,,,---- -- ----- -- ------ - ------- --- ----------<br>------------- ------ wisdom ---- ---- ------- ----- -- ----<br>-------- ------- -- ---------- --- - --- ----- ----- ----<br>---- --- --- ----- --- ---- ---- ------- ----- ---- -------<br>--- --- -- ----- -- --- ---- -- --- ---- -- ------ ------<br>--- ----- -- ----,119196.89999999106,119196.39999999106,118746.59,118756.79999999702,118762.983,119212.744,,11,wisdom
screen,html.Screen,2_1_0_1_12,2022-05-02T09:45:12.228Z,,,,,,,,,,,,,,,,,53,,,,,,,,,,,,,,448.3559999940335,,response,,,,99,,,,,,,Space,keypress(Space),,,,,,,,---- -- ----- -- ------ - ------- --- ----------<br>------------- ------ ------ says ---- ------- ----- -- ----<br>-------- ------- -- ---------- --- - --- ----- ----- ----<br>---- --- --- ----- --- ---- ---- ------- ----- ---- -------<br>--- --- -- ----- -- --- ---- -- --- ---- -- ------ ------<br>--- ----- -- ----,119661.59999999404,119661.09999999404,119196.109,119196.89999999106,119212.744,119691.865,,12,says
screen,html.Screen,2_1_0_1_13,2022-05-02T09:45:12.683Z,,,,,,,,,,,,,,,,,53,,,,,,,,,,,,,,423.43499999701453,,response,,,,99,,,,,,,Space,keypress(Space),,,,,,,,---- -- ----- -- ------ - ------- --- ----------<br>------------- ------ ------ ---- that ------- ----- -- ----<br>-------- ------- -- ---------- --- - --- ----- ----- ----<br>---- --- --- ----- --- ---- ---- ------- ----- ---- -------<br>--- --- -- ----- -- --- ---- -- --- ---- -- ------ ------<br>--- ----- -- ----,120115.70000000298,120115.29999999702,119646.412,119661.70000000298,119691.865,120129.259,,13,that
screen,html.Screen,2_1_0_1_14,2022-05-02T09:45:13.200Z,,,,,,,,,,,,,,,,,53,,,,,,,,,,,,,,503.84099999403406,,response,,,,99,,,,,,,Space,keypress(Space),,,,,,,,---- -- ----- -- ------ - ------- --- ----------<br>------------- ------ ------ ---- ---- feeling ----- -- ----<br>-------- ------- -- ---------- --- - --- ----- ----- ----<br>---- --- --- ----- --- ---- ---- ------- ----- ---- -------<br>--- --- -- ----- -- --- ---- -- --- ---- -- ------ ------<br>--- ----- -- ----,120633.70000000298,120633.09999999404,120112.898,120115.79999999702,120129.259,120645.916,,14,feeling
screen,html.Screen,2_1_0_1_15,2022-05-02T09:45:13.637Z,,,,,,,,,,,,,,,,,53,,,,,,,,,,,,,,423.58400000000256,,response,,,,99,,,,,,,Space,keypress(Space),,,,,,,,---- -- ----- -- ------ - ------- --- ----------<br>------------- ------ ------ ---- ---- ------- close -- ----<br>-------- ------- -- ---------- --- - --- ----- ----- ----<br>---- --- --- ----- --- ---- ---- ------- ----- ---- -------<br>--- --- -- ----- -- --- ---- -- --- ---- -- ------ ------<br>--- ----- -- ----,121069.79999999702,121069.5,120629.59,120633.70000000298,120645.916,121079.411,,15,close
screen,html.Screen,2_1_0_1_16,2022-05-02T09:45:14.012Z,,,,,,,,,,,,,,,,,53,,,,,,,,,,,,,,365.888999997027,,response,,,,99,,,,,,,Space,keypress(Space),,,,,,,,---- -- ----- -- ------ - ------- --- ----------<br>------------- ------ ------ ---- ---- ------- ----- to ----<br>-------- ------- -- ---------- --- - --- ----- ----- ----<br>---- --- --- ----- --- ---- ---- ------- ----- ---- -------<br>--- --- -- ----- -- --- ---- -- --- ---- -- ------ ------<br>--- ----- -- ----,121445.5,121445.29999999702,121062.503,121069.79999999702,121079.411,121462.329,,16,to
screen,html.Screen,2_1_0_1_17,2022-05-02T09:45:14.416Z,,,,,,,,,,,,,,,,,53,,,,,,,,,,,,,,386.6710000000021,,response,,,,99,,,,,,,Space,keypress(Space),,,,,,,,---- -- ----- -- ------ - ------- --- ----------<br>------------- ------ ------ ---- ---- ------- ----- -- your<br>-------- ------- -- ---------- --- - --- ----- ----- ----<br>---- --- --- ----- --- ---- ---- ------- ----- ---- -------<br>--- --- -- ----- -- --- ---- -- --- ---- -- ------ ------<br>--- ----- -- ----,121849.39999999106,121849,121429.397,121445.59999999404,121462.329,121862.288,,17,your
screen,html.Screen,2_1_0_1_18,2022-05-02T09:45:14.882Z,,,,,,,,,,,,,,,,,53,,,,,,,,,,,,,,452.71199999999953,,response,,,,99,,,,,,,Space,keypress(Space),,,,,,,,---- -- ----- -- ------ - ------- --- ----------<br>------------- ------ ------ ---- ---- ------- ----- -- ----<br>romantic ------- -- ---------- --- - --- ----- ----- ----<br>---- --- --- ----- --- ---- ---- ------- ----- ---- -------<br>--- --- -- ----- -- --- ---- -- --- ---- -- ------ ------<br>--- ----- -- ----,122315.29999999702,122315,121845.653,121849.39999999106,121862.288,122329.186,,18,romantic
screen,html.Screen,2_1_0_1_19,2022-05-02T09:45:15.276Z,,,,,,,,,,,,,,,,,53,,,,,,,,,,,,,,379.913999994038,,response,,,,99,,,,,,,Space,keypress(Space),,,,,,,,---- -- ----- -- ------ - ------- --- ----------<br>------------- ------ ------ ---- ---- ------- ----- -- ----<br>-------- partner -- ---------- --- - --- ----- ----- ----<br>---- --- --- ----- --- ---- ---- ------- ----- ---- -------<br>--- --- -- ----- -- --- ---- -- --- ---- -- ------ ------<br>--- ----- -- ----,122709.39999999106,122709.09999999404,122312.301,122315.39999999106,122329.186,122712.046,,19,partner
screen,html.Screen,2_1_0_1_20,2022-05-02T09:45:15.744Z,,,,,,,,,,,,,,,,,53,,,,,,,,,,,,,,465.3539999910572,,response,,,,99,,,,,,,Space,keypress(Space),,,,,,,,---- -- ----- -- ------ - ------- --- ----------<br>------------- ------ ------ ---- ---- ------- ----- -- ----<br>-------- ------- is ---------- --- - --- ----- ----- ----<br>---- --- --- ----- --- ---- ---- ------- ----- ---- -------<br>--- --- -- ----- -- --- ---- -- --- ---- -- ------ ------<br>--- ----- -- ----,123177.79999999702,123177.39999999106,122695.43,122709.5,122712.046,123203.597,,20,is
screen,html.Screen,2_1_0_1_21,2022-05-02T09:45:16.191Z,,,,,,,,,,,,,,,,,53,,,,,,,,,,,,,,420.50299999404524,,response,,,,99,,,,,,,Space,keypress(Space),,,,,,,,---- -- ----- -- ------ - ------- --- ----------<br>------------- ------ ------ ---- ---- ------- ----- -- ----<br>-------- ------- -- paramount. --- - --- ----- ----- ----<br>---- --- --- ----- --- ---- ---- ------- ----- ---- -------<br>--- --- -- ----- -- --- ---- -- --- ---- -- ------ ------<br>--- ----- -- ----,123624.39999999106,123624.09999999404,123162.049,123177.79999999702,123203.597,123628.878,,21,paramount.
screen,html.Screen,2_1_0_1_22,2022-05-02T09:45:17.143Z,,,,,,,,,,,,,,,,,53,,,,,,,,,,,,,,946.8220000029833,,response,,,,99,,,,,,,Space,keypress(Space),,,,,,,,---- -- ----- -- ------ - ------- --- ----------<br>------------- ------ ------ ---- ---- ------- ----- -- ----<br>-------- ------- -- ---------- But - --- ----- ----- ----<br>---- --- --- ----- --- ---- ---- ------- ----- ---- -------<br>--- --- -- ----- -- --- ---- -- --- ---- -- ------ ------<br>--- ----- -- ----,124576.29999999702,124575.70000000298,123612.295,123624.59999999404,123628.878,124578.388,,22,But
screen,html.Screen,2_1_0_1_23,2022-05-02T09:45:17.728Z,,,,,,,,,,,,,,,,,53,,,,,,,,,,,,,,582.7119999940332,,response,,,,99,,,,,,,Space,keypress(Space),,,,,,,,---- -- ----- -- ------ - ------- --- ----------<br>------------- ------ ------ ---- ---- ------- ----- -- ----<br>-------- ------- -- ---------- --- a --- ----- ----- ----<br>---- --- --- ----- --- ---- ---- ------- ----- ---- -------<br>--- --- -- ----- -- --- ---- -- --- ---- -- ------ ------<br>--- ----- -- ----,125161.59999999404,125161.09999999404,124561.946,124576.29999999702,124578.388,125178.243,,23,a
screen,html.Screen,2_1_0_1_24,2022-05-02T09:45:18.089Z,,,,,,,,,,,,,,,,,53,,,,,,,,,,,,,,343.55699999701756,,response,,,,99,,,,,,,Space,keypress(Space),,,,,,,,---- -- ----- -- ------ - ------- --- ----------<br>------------- ------ ------ ---- ---- ------- ----- -- ----<br>-------- ------- -- ---------- --- - new ----- ----- ----<br>---- --- --- ----- --- ---- ---- ------- ----- ---- -------<br>--- --- -- ----- -- --- ---- -- --- ---- -- ------ ------<br>--- ----- -- ----,125522,125521.79999999702,125161.701,125161.59999999404,125178.243,125528.559,,24,new
screen,html.Screen,2_1_0_1_25,2022-05-02T09:45:18.491Z,,,,,,,,,,,,,,,,,53,,,,,,,,,,,,,,395.5409999940457,,response,,,,99,,,,,,,Space,keypress(Space),,,,,,,,---- -- ----- -- ------ - ------- --- ----------<br>------------- ------ ------ ---- ---- ------- ----- -- ----<br>-------- ------- -- ---------- --- - --- study ----- ----<br>---- --- --- ----- --- ---- ---- ------- ----- ---- -------<br>--- --- -- ----- -- --- ---- -- --- ---- -- ------ ------<br>--- ----- -- ----,125924.59999999404,125924.09999999404,125511.707,125522.09999999404,125528.559,125928.083,,25,study
screen,html.Screen,2_1_0_1_26,2022-05-02T09:45:18.866Z,,,,,,,,,,,,,,,,,53,,,,,,,,,,,,,,370.8169999910606,,response,,,,99,,,,,,,Space,keypress(Space),,,,,,,,---- -- ----- -- ------ - ------- --- ----------<br>------------- ------ ------ ---- ---- ------- ----- -- ----<br>-------- ------- -- ---------- --- - --- ----- finds ----<br>---- --- --- ----- --- ---- ---- ------- ----- ---- -------<br>--- --- -- ----- -- --- ---- -- --- ---- -- ------ ------<br>--- ----- -- ----,126299.20000000298,126298.89999999106,125911.76,125924.79999999702,125928.083,126311.72,,26,finds
screen,html.Screen,2_1_0_1_27,2022-05-02T09:45:19.297Z,,,,,,,,,,,,,,,,,53,,,,,,,,,,,,,,417.98000000297907,,response,,,,99,,,,,,,Space,keypress(Space),,,,,,,,---- -- ----- -- ------ - ------- --- ----------<br>------------- ------ ------ ---- ---- ------- ----- -- ----<br>-------- ------- -- ---------- --- - --- ----- ----- that<br>---- --- --- ----- --- ---- ---- ------- ----- ---- -------<br>--- --- -- ----- -- --- ---- -- --- ---- -- ------ ------<br>--- ----- -- ----,126730,126729.70000000298,126294.802,126299.29999999702,126311.72,126744.69,,27,that
screen,html.Screen,2_1_0_1_28,2022-05-02T09:45:19.768Z,,,,,,,,,,,,,,,,,53,,,,,,,,,,,,,,456.0100000029779,,response,,,,99,,,,,,,Space,keypress(Space),,,,,,,,---- -- ----- -- ------ - ------- --- ----------<br>------------- ------ ------ ---- ---- ------- ----- -- ----<br>-------- ------- -- ---------- --- - --- ----- ----- ----<br>it's --- --- ----- --- ---- ---- ------- ----- ---- -------<br>--- --- -- ----- -- --- ---- -- --- ---- -- ------ ------<br>--- ----- -- ----,127201.09999999404,127200.70000000298,126728,126730.09999999404,126744.69,127211.207,,28,it's
screen,html.Screen,2_1_0_1_29,2022-05-02T09:45:20.156Z,,,,,,,,,,,,,,,,,53,,,,,,,,,,,,,,377.99300000298535,,response,,,,99,,,,,,,Space,keypress(Space),,,,,,,,---- -- ----- -- ------ - ------- --- ----------<br>------------- ------ ------ ---- ---- ------- ----- -- ----<br>-------- ------- -- ---------- --- - --- ----- ----- ----<br>---- not --- ----- --- ---- ---- ------- ----- ---- -------<br>--- --- -- ----- -- --- ---- -- --- ---- -- ------ ------<br>--- ----- -- ----,127589.79999999702,127589.20000000298,127194.892,127201.09999999404,127211.207,127594.995,,29,not
screen,html.Screen,2_1_0_1_30,2022-05-02T09:45:20.922Z,,,,,,,,,,,,,,,,,53,,,,,,,,,,,,,,760.2050000029849,,response,,,,99,,,,,,,Space,keypress(Space),,,,,,,,---- -- ----- -- ------ - ------- --- ----------<br>------------- ------ ------ ---- ---- ------- ----- -- ----<br>-------- ------- -- ---------- --- - --- ----- ----- ----<br>---- --- how ----- --- ---- ---- ------- ----- ---- -------<br>--- --- -- ----- -- --- ---- -- --- ---- -- ------ ------<br>--- ----- -- ----,128355.59999999404,128355.20000000298,127578.127,127589.79999999702,127594.995,128360.926,,30,how
screen,html.Screen,2_1_0_1_31,2022-05-02T09:45:21.351Z,,,,,,,,,,,,,,,,,53,,,,,,,,,,,,,,423.1739999940328,,response,,,,99,,,,,,,Space,keypress(Space),,,,,,,,---- -- ----- -- ------ - ------- --- ----------<br>------------- ------ ------ ---- ---- ------- ----- -- ----<br>-------- ------- -- ---------- --- - --- ----- ----- ----<br>---- --- --- close --- ---- ---- ------- ----- ---- -------<br>--- --- -- ----- -- --- ---- -- --- ---- -- ------ ------<br>--- ----- -- ----,128784.29999999702,128784.09999999404,128344.532,128355.70000000298,128360.926,128794.189,,31,close
screen,html.Screen,2_1_0_1_32,2022-05-02T09:45:21.763Z,,,,,,,,,,,,,,,,,53,,,,,,,,,,,,,,401.6109999970213,,response,,,,99,,,,,,,Space,keypress(Space),,,,,,,,---- -- ----- -- ------ - ------- --- ----------<br>------------- ------ ------ ---- ---- ------- ----- -- ----<br>-------- ------- -- ---------- --- - --- ----- ----- ----<br>---- --- --- ----- you ---- ---- ------- ----- ---- -------<br>--- --- -- ----- -- --- ---- -- --- ---- -- ------ ------<br>--- ----- -- ----,129196.20000000298,129195.79999999702,128777.645,128784.39999999106,128794.189,129210.919,,32,you
screen,html.Screen,2_1_0_1_33,2022-05-02T09:45:22.215Z,,,,,,,,,,,,,,,,,53,,,,,,,,,,,,,,437.2810000029858,,response,,,,99,,,,,,,Space,keypress(Space),,,,,,,,---- -- ----- -- ------ - ------- --- ----------<br>------------- ------ ------ ---- ---- ------- ----- -- ----<br>-------- ------- -- ---------- --- - --- ----- ----- ----<br>---- --- --- ----- --- feel ---- ------- ----- ---- -------<br>--- --- -- ----- -- --- ---- -- --- ---- -- ------ ------<br>--- ----- -- ----,129648.79999999702,129648.20000000298,129194.304,129196.20000000298,129210.919,129660.818,,33,feel
screen,html.Screen,2_1_0_1_34,2022-05-02T09:45:22.623Z,,,,,,,,,,,,,,,,,53,,,,,,,,,,,,,,394.98199999702047,,response,,,,99,,,,,,,Space,keypress(Space),,,,,,,,---- -- ----- -- ------ - ------- --- ----------<br>------------- ------ ------ ---- ---- ------- ----- -- ----<br>-------- ------- -- ---------- --- - --- ----- ----- ----<br>---- --- --- ----- --- ---- that ------- ----- ---- -------<br>--- --- -- ----- -- --- ---- -- --- ---- -- ------ ------<br>--- ----- -- ----,130056.20000000298,130055.79999999702,129644.51,129648.79999999702,129660.818,130060.656,,34,that
screen,html.Screen,2_1_0_1_35,2022-05-02T09:45:23.066Z,,,,,,,,,,,,,,,,,53,,,,,,,,,,,,,,438.04400000297755,,response,,,,99,,,,,,,Space,keypress(Space),,,,,,,,---- -- ----- -- ------ - ------- --- ----------<br>------------- ------ ------ ---- ---- ------- ----- -- ----<br>-------- ------- -- ---------- --- - --- ----- ----- ----<br>---- --- --- ----- --- ---- ---- matters ----- ---- -------<br>--- --- -- ----- -- --- ---- -- --- ---- -- ------ ------<br>--- ----- -- ----,130499.20000000298,130498.70000000298,130044.082,130056.29999999702,130060.656,130510.946,,35,matters
screen,html.Screen,2_1_0_1_36,2022-05-02T09:45:24.072Z,,,,,,,,,,,,,,,,,53,,,,,,,,,,,,,,993.953999991063,,response,,,,99,,,,,,,Space,keypress(Space),,,,,,,,"---- -- ----- -- ------ - ------- --- ----------<br>------------- ------ ------ ---- ---- ------- ----- -- ----<br>-------- ------- -- ---------- --- - --- ----- ----- ----<br>---- --- --- ----- --- ---- ---- ------- most, ---- -------<br>--- --- -- ----- -- --- ---- -- --- ---- -- ------ ------<br>--- ----- -- ----",131505.39999999106,131504.89999999106,130494.364,130499.20000000298,130510.946,131510.38,,36,"most,"
screen,html.Screen,2_1_0_1_37,2022-05-02T09:45:24.537Z,,,,,,,,,,,,,,,,,53,,,,,,,,,,,,,,459.3200000029756,,response,,,,99,,,,,,,Space,keypress(Space),,,,,,,,---- -- ----- -- ------ - ------- --- ----------<br>------------- ------ ------ ---- ---- ------- ----- -- ----<br>-------- ------- -- ---------- --- - --- ----- ----- ----<br>---- --- --- ----- --- ---- ---- ------- ----- it's -------<br>--- --- -- ----- -- --- ---- -- --- ---- -- ------ ------<br>--- ----- -- ----,131970.09999999404,131969.70000000298,131494.248,131505.5,131510.38,131976.903,,37,it's
screen,html.Screen,2_1_0_1_38,2022-05-02T09:45:25.036Z,,,,,,,,,,,,,,,,,53,,,,,,,,,,,,,,492.2970000029891,,response,,,,99,,,,,,,Space,keypress(Space),,,,,,,,---- -- ----- -- ------ - ------- --- ----------<br>------------- ------ ------ ---- ---- ------- ----- -- ----<br>-------- ------- -- ---------- --- - --- ----- ----- ----<br>---- --- --- ----- --- ---- ---- ------- ----- ---- whether<br>--- --- -- ----- -- --- ---- -- --- ---- -- ------ ------<br>--- ----- -- ----,132469.79999999702,132469.20000000298,131960.345,131970.09999999404,131976.903,132476.87,,38,whether
screen,html.Screen,2_1_0_1_39,2022-05-02T09:45:25.441Z,,,,,,,,,,,,,,,,,53,,,,,,,,,,,,,,397.4299999970244,,response,,,,99,,,,,,,Space,keypress(Space),,,,,,,,---- -- ----- -- ------ - ------- --- ----------<br>------------- ------ ------ ---- ---- ------- ----- -- ----<br>-------- ------- -- ---------- --- - --- ----- ----- ----<br>---- --- --- ----- --- ---- ---- ------- ----- ---- -------<br>you --- -- ----- -- --- ---- -- --- ---- -- ------ ------<br>--- ----- -- ----,132874.59999999404,132874.29999999702,132460.514,132469.89999999106,132476.87,132876.777,,39,you
screen,html.Screen,2_1_0_1_40,2022-05-02T09:45:25.836Z,,,,,,,,,,,,,,,,,53,,,,,,,,,,,,,,391.92300000297837,,response,,,,99,,,,,,,Space,keypress(Space),,,,,,,,---- -- ----- -- ------ - ------- --- ----------<br>------------- ------ ------ ---- ---- ------- ----- -- ----<br>-------- ------- -- ---------- --- - --- ----- ----- ----<br>---- --- --- ----- --- ---- ---- ------- ----- ---- -------<br>--- are -- ----- -- --- ---- -- --- ---- -- ------ ------<br>--- ----- -- ----,133269,133268.70000000298,132860.352,132874.70000000298,132876.777,133276.827,,40,are
screen,html.Screen,2_1_0_1_41,2022-05-02T09:45:26.324Z,,,,,,,,,,,,,,,,,53,,,,,,,,,,,,,,480.47299999702955,,response,,,,99,,,,,,,Space,keypress(Space),,,,,,,,---- -- ----- -- ------ - ------- --- ----------<br>------------- ------ ------ ---- ---- ------- ----- -- ----<br>-------- ------- -- ---------- --- - --- ----- ----- ----<br>---- --- --- ----- --- ---- ---- ------- ----- ---- -------<br>--- --- as ----- -- --- ---- -- --- ---- -- ------ ------<br>--- ----- -- ----,133757.70000000298,133757.29999999702,133260.133,133269,133276.827,133759.926,,41,as
screen,html.Screen,2_1_0_1_42,2022-05-02T09:45:26.753Z,,,,,,,,,,,,,,,,,53,,,,,,,,,,,,,,426.373999997013,,response,,,,99,,,,,,,Space,keypress(Space),,,,,,,,---- -- ----- -- ------ - ------- --- ----------<br>------------- ------ ------ ---- ---- ------- ----- -- ----<br>-------- ------- -- ---------- --- - --- ----- ----- ----<br>---- --- --- ----- --- ---- ---- ------- ----- ---- -------<br>--- --- -- close -- --- ---- -- --- ---- -- ------ ------<br>--- ----- -- ----,134186.5,134186.29999999702,133743.514,133757.70000000298,133759.926,134193.222,,42,close
screen,html.Screen,2_1_0_1_43,2022-05-02T09:45:27.279Z,,,,,,,,,,,,,,,,,53,,,,,,,,,,,,,,518.0779999970109,,response,,,,99,,,,,,,Space,keypress(Space),,,,,,,,---- -- ----- -- ------ - ------- --- ----------<br>------------- ------ ------ ---- ---- ------- ----- -- ----<br>-------- ------- -- ---------- --- - --- ----- ----- ----<br>---- --- --- ----- --- ---- ---- ------- ----- ---- -------<br>--- --- -- ----- as --- ---- -- --- ---- -- ------ ------<br>--- ----- -- ----,134711.89999999106,134711.29999999702,134176.841,134186.59999999404,134193.222,134726.424,,43,as
screen,html.Screen,2_1_0_1_44,2022-05-02T09:45:27.708Z,,,,,,,,,,,,,,,,,53,,,,,,,,,,,,,,414.47599999106023,,response,,,,99,,,,,,,Space,keypress(Space),,,,,,,,---- -- ----- -- ------ - ------- --- ----------<br>------------- ------ ------ ---- ---- ------- ----- -- ----<br>-------- ------- -- ---------- --- - --- ----- ----- ----<br>---- --- --- ----- --- ---- ---- ------- ----- ---- -------<br>--- --- -- ----- -- you ---- -- --- ---- -- ------ ------<br>--- ----- -- ----,135141.39999999106,135140.89999999106,134709.941,134712,134726.424,135143.047,,44,you
screen,html.Screen,2_1_0_1_45,2022-05-02T09:45:28.138Z,,,,,,,,,,,,,,,,,53,,,,,,,,,,,,,,427.55299999404815,,response,,,,99,,,,,,,Space,keypress(Space),,,,,,,,---- -- ----- -- ------ - ------- --- ----------<br>------------- ------ ------ ---- ---- ------- ----- -- ----<br>-------- ------- -- ---------- --- - --- ----- ----- ----<br>---- --- --- ----- --- ---- ---- ------- ----- ---- -------<br>--- --- -- ----- -- --- want -- --- ---- -- ------ ------<br>--- ----- -- ----,135570.89999999106,135570.59999999404,135126.521,135141.5,135143.047,135576.531,,45,want
screen,html.Screen,2_1_0_1_46,2022-05-02T09:45:28.739Z,,,,,,,,,,,,,,,,,53,,,,,,,,,,,,,,595.3689999910712,,response,,,,99,,,,,,,Space,keypress(Space),,,,,,,,---- -- ----- -- ------ - ------- --- ----------<br>------------- ------ ------ ---- ---- ------- ----- -- ----<br>-------- ------- -- ---------- --- - --- ----- ----- ----<br>---- --- --- ----- --- ---- ---- ------- ----- ---- -------<br>--- --- -- ----- -- --- ---- to --- ---- -- ------ ------<br>--- ----- -- ----,136172.39999999106,136171.89999999106,135559.7,135571,135576.531,136176.147,,46,to
screen,html.Screen,2_1_0_1_47,2022-05-02T09:45:29.168Z,,,,,,,,,,,,,,,,,53,,,,,,,,,,,,,,424.553000002983,,response,,,,99,,,,,,,Space,keypress(Space),,,,,,,,"---- -- ----- -- ------ - ------- --- ----------<br>------------- ------ ------ ---- ---- ------- ----- -- ----<br>-------- ------- -- ---------- --- - --- ----- ----- ----<br>---- --- --- ----- --- ---- ---- ------- ----- ---- -------<br>--- --- -- ----- -- --- ---- -- be, ---- -- ------ ------<br>--- ----- -- ----",136601.09999999404,136600.70000000298,136159.547,136172.5,136176.147,136609.58,,47,"be,"
screen,html.Screen,2_1_0_1_48,2022-05-02T09:45:29.832Z,,,,,,,,,,,,,,,,,53,,,,,,,,,,,,,,655.7199999970326,,response,,,,99,,,,,,,Space,keypress(Space),,,,,,,,---- -- ----- -- ------ - ------- --- ----------<br>------------- ------ ------ ---- ---- ------- ----- -- ----<br>-------- ------- -- ---------- --- - --- ----- ----- ----<br>---- --- --- ----- --- ---- ---- ------- ----- ---- -------<br>--- --- -- ----- -- --- ---- -- --- even -- ------ ------<br>--- ----- -- ----,137265.79999999702,137265.29999999702,136592.893,136601.09999999404,136609.58,137276.547,,48,even
screen,html.Screen,2_1_0_1_49,2022-05-02T09:45:30.280Z,,,,,,,,,,,,,,,,,53,,,,,,,,,,,,,,436.55299999404815,,response,,,,99,,,,,,,Space,keypress(Space),,,,,,,,---- -- ----- -- ------ - ------- --- ----------<br>------------- ------ ------ ---- ---- ------- ----- -- ----<br>-------- ------- -- ---------- --- - --- ----- ----- ----<br>---- --- --- ----- --- ---- ---- ------- ----- ---- -------<br>--- --- -- ----- -- --- ---- -- --- ---- if ------ ------<br>--- ----- -- ----,137713.59999999404,137713.09999999404,137259.42,137265.79999999702,137276.547,137725.841,,49,if
screen,html.Screen,2_1_0_1_50,2022-05-02T09:45:30.703Z,,,,,,,,,,,,,,,,,53,,,,,,,,,,,,,,410.1590000000142,,response,,,,99,,,,,,,Space,keypress(Space),,,,,,,,---- -- ----- -- ------ - ------- --- ----------<br>------------- ------ ------ ---- ---- ------- ----- -- ----<br>-------- ------- -- ---------- --- - --- ----- ----- ----<br>---- --- --- ----- --- ---- ---- ------- ----- ---- -------<br>--- --- -- ----- -- --- ---- -- --- ---- -- that's ------<br>--- ----- -- ----,138136.5,138136,137709.354,137713.59999999404,137725.841,138142.494,,50,that's
screen,html.Screen,2_1_0_1_51,2022-05-02T09:45:31.175Z,,,,,,,,,,,,,,,,,53,,,,,,,,,,,,,,465.50599999999395,,response,,,,99,,,,,,,Space,keypress(Space),,,,,,,,---- -- ----- -- ------ - ------- --- ----------<br>------------- ------ ------ ---- ---- ------- ----- -- ----<br>-------- ------- -- ---------- --- - --- ----- ----- ----<br>---- --- --- ----- --- ---- ---- ------- ----- ---- -------<br>--- --- -- ----- -- --- ---- -- --- ---- -- ------ really<br>--- ----- -- ----,138608.59999999404,138608,138126.15,138136.59999999404,138142.494,138626.062,,51,really
screen,html.Screen,2_1_0_1_52,2022-05-02T09:45:31.736Z,,,,,,,,,,,,,,,,,53,,,,,,,,,,,,,,543.1380000029749,,response,,,,99,,,,,,,Space,keypress(Space),,,,,,,,---- -- ----- -- ------ - ------- --- ----------<br>------------- ------ ------ ---- ---- ------- ----- -- ----<br>-------- ------- -- ---------- --- - --- ----- ----- ----<br>---- --- --- ----- --- ---- ---- ------- ----- ---- -------<br>--- --- -- ----- -- --- ---- -- --- ---- -- ------ ------<br>not ----- -- ----,139169.70000000298,139169.20000000298,138592.501,138608.70000000298,138626.062,139175.619,,52,not
screen,html.Screen,2_1_0_1_53,2022-05-02T09:45:32.156Z,,,,,,,,,,,,,,,,,53,,,,,,,,,,,,,,412.9809999940335,,response,,,,99,,,,,,,Space,keypress(Space),,,,,,,,---- -- ----- -- ------ - ------- --- ----------<br>------------- ------ ------ ---- ---- ------- ----- -- ----<br>-------- ------- -- ---------- --- - --- ----- ----- ----<br>---- --- --- ----- --- ---- ---- ------- ----- ---- -------<br>--- --- -- ----- -- --- ---- -- --- ---- -- ------ ------<br>--- close -- ----,139589.20000000298,139588.59999999404,139159.085,139169.79999999702,139175.619,139592.154,,53,close
screen,html.Screen,2_1_0_1_54,2022-05-02T09:45:32.616Z,,,,,,,,,,,,,,,,,53,,,,,,,,,,,,,,457.1459999970102,,response,,,,99,,,,,,,Space,keypress(Space),,,,,,,,---- -- ----- -- ------ - ------- --- ----------<br>------------- ------ ------ ---- ---- ------- ----- -- ----<br>-------- ------- -- ---------- --- - --- ----- ----- ----<br>---- --- --- ----- --- ---- ---- ------- ----- ---- -------<br>--- --- -- ----- -- --- ---- -- --- ---- -- ------ ------<br>--- ----- at ----,140049.70000000298,140049.29999999702,139575.628,139589.20000000298,139592.154,140058.803,,54,at
screen,html.Screen,2_1_0_1_55,2022-05-02T09:45:34.126Z,,,,,,,,,,,,,,,,,53,,,,,,,,,,,,,,1499.796999994025,,response,,,,99,,,,,,,Space,keypress(Space),,,,,,,,---- -- ----- -- ------ - ------- --- ----------<br>------------- ------ ------ ---- ---- ------- ----- -- ----<br>-------- ------- -- ---------- --- - --- ----- ----- ----<br>---- --- --- ----- --- ---- ---- ------- ----- ---- -------<br>--- --- -- ----- -- --- ---- -- --- ---- -- ------ ------<br>--- ----- -- all.,141559.09999999404,141558.59999999404,140042.551,140049.70000000298,140058.803,141575.109,,55,all.
Item 99,flow.Loop,2_1_0_1,2022-05-02T09:45:34.126Z,,,,,,,,,,,,,,,,,,,,,,,,,,,,,,,30461.041999994035,,completion,,,,,E,,,,,,,,,,,silence,,,,,141559.29999999702,141558.59999999404,111081.331,111082.5,111097.558,141575.109,,,
Question 1,html.Screen,2_1_0_2,2022-05-02T09:45:40.149Z,,,,,,,,,,,,,,,,,,,,,,,,,,,,true,FALSE,,6006.690999997023,,response,,,,99,E,,,,,,FALSE,click #choice-2,,,,silence,,,,,147582.79999999702,147581.79999999702,141558.838,141559.29999999702,141575.109,147590.582,,,
Question 2,html.Screen,2_1_0_3,2022-05-02T09:45:47.218Z,,,,,,,,,,,,,,,,,,,,,,,,,,,,true,TRUE,,7059.817999991064,,response,,,,99,E,,,,,,TRUE,click #choice-1,,,,silence,,,,,154651.09999999404,154650.39999999106,147573.984,147582.79999999702,147590.582,154655.993,,,
Item 99,flow.Sequence,2_1_0,2022-05-02T09:45:47.218Z,,,,,,,,,,,,,,,,,,,,,,,,,,,,,,,53550.89699999106,,completion,,,,,,,,,,,,,,,,,,,,,154651.29999999702,154650.39999999106,101082.828,101097.29999999702,101099.503,154655.993,,,
Holding screen,html.Screen,2_1_1_0,2022-05-02T09:45:57.205Z,,,,,,,,,,,,,,,,,,,,,,,,,,,,,,,9998.146000000008,,timeout,,,,,,,,,,,,,,,,,,,,,164638.20000000298,164637.44,154639.355,154651.39999999106,154655.993,164654.139,,,
screen,html.Screen,2_1_1_1_0,2022-05-02T09:45:58.879Z,,,,,,,,,,,,,,,,,54,,,,,,,,,,,,,,1657.3610000000044,,response,,,,100,,,,,,,Space,keypress(Space),,,,,,,,At --- ---- --- ------ ----- ------- ---- -- --- ------- --<br>------- ---------- ------ -- ----- -- ----- -- ---- ------<br>--- ----- --- --- ------ -------- ----- --- ------ ----- --<br>----- ----- ---------- --- --- ------ ------ ---- -- ------<br>------- --- ------ ----- --- ---- ------- -- ---- --- --<br>------- ------,166312,166311.5,164637.44,164638.5,164654.139,166320.348,,0,At
screen,html.Screen,2_1_1_1_1,2022-05-02T09:45:59.311Z,,,,,,,,,,,,,,,,,54,,,,,,,,,,,,,,423.55199999106117,,response,,,,100,,,,,,,Space,keypress(Space),,,,,,,,-- the ---- --- ------ ----- ------- ---- -- --- ------- --<br>------- ---------- ------ -- ----- -- ----- -- ---- ------<br>--- ----- --- --- ------ -------- ----- --- ------ ----- --<br>----- ----- ---------- --- --- ------ ------ ---- -- ------<br>------- --- ------ ----- --- ---- ------- -- ---- --- --<br>------- ------,166744.5,166743.89999999106,166304.183,166312.09999999404,166320.348,166754.046,,1,the
screen,html.Screen,2_1_1_1_2,2022-05-02T09:45:59.721Z,,,,,,,,,,,,,,,,,54,,,,,,,,,,,,,,400.05399999403744,,response,,,,100,,,,,,,Space,keypress(Space),,,,,,,,-- --- time --- ------ ----- ------- ---- -- --- ------- --<br>------- ---------- ------ -- ----- -- ----- -- ---- ------<br>--- ----- --- --- ------ -------- ----- --- ------ ----- --<br>----- ----- ---------- --- --- ------ ------ ---- -- ------<br>------- --- ------ ----- --- ---- ------- -- ---- --- --<br>------- ------,167154.5,167154.09999999404,166737.078,166744.5,166754.046,167170.378,,2,time
screen,html.Screen,2_1_1_1_3,2022-05-02T09:46:00.121Z,,,,,,,,,,,,,,,,,54,,,,,,,,,,,,,,383.622000000003,,response,,,,100,,,,,,,Space,keypress(Space),,,,,,,,-- --- ---- the ------ ----- ------- ---- -- --- ------- --<br>------- ---------- ------ -- ----- -- ----- -- ---- ------<br>--- ----- --- --- ------ -------- ----- --- ------ ----- --<br>----- ----- ---------- --- --- ------ ------ ---- -- ------<br>------- --- ------ ----- --- ---- ------- -- ---- --- --<br>------- ------,167554.39999999106,167554,167153.651,167154.59999999404,167170.378,167570.23,,3,the
screen,html.Screen,2_1_1_1_4,2022-05-02T09:46:00.541Z,,,,,,,,,,,,,,,,,54,,,,,,,,,,,,,,404.0699999970093,,response,,,,100,,,,,,,Space,keypress(Space),,,,,,,,-- --- ---- --- French ----- ------- ---- -- --- ------- --<br>------- ---------- ------ -- ----- -- ----- -- ---- ------<br>--- ----- --- --- ------ -------- ----- --- ------ ----- --<br>----- ----- ---------- --- --- ------ ------ ---- -- ------<br>------- --- ------ ----- --- ---- ------- -- ---- --- --<br>------- ------,167974.59999999404,167974.29999999702,167553.912,167554.5,167570.23,167987.254,,4,French
screen,html.Screen,2_1_1_1_5,2022-05-02T09:46:00.939Z,,,,,,,,,,,,,,,,,54,,,,,,,,,,,,,,384.74600000001374,,response,,,,100,,,,,,,Space,keypress(Space),,,,,,,,-- --- ---- --- ------ crown ------- ---- -- --- ------- --<br>------- ---------- ------ -- ----- -- ----- -- ---- ------<br>--- ----- --- --- ------ -------- ----- --- ------ ----- --<br>----- ----- ---------- --- --- ------ ------ ---- -- ------<br>------- --- ------ ----- --- ---- ------- -- ---- --- --<br>------- ------,168372.5,168372,167970.502,167974.70000000298,167987.254,168386.703,,5,crown
screen,html.Screen,2_1_1_1_6,2022-05-02T09:46:01.310Z,,,,,,,,,,,,,,,,,54,,,,,,,,,,,,,,356.2969999999914,,response,,,,100,,,,,,,Space,keypress(Space),,,,,,,,-- --- ---- --- ------ ----- secured ---- -- --- ------- --<br>------- ---------- ------ -- ----- -- ----- -- ---- ------<br>--- ----- --- --- ------ -------- ----- --- ------ ----- --<br>----- ----- ---------- --- --- ------ ------ ---- -- ------<br>------- --- ------ ----- --- ---- ------- -- ---- --- --<br>------- ------,168743.5,168743,168370.413,168372.5,168386.703,168753.753,,6,secured
screen,html.Screen,2_1_1_1_7,2022-05-02T09:46:01.864Z,,,,,,,,,,,,,,,,,54,,,,,,,,,,,,,,543.5469999970228,,response,,,,100,,,,,,,Space,keypress(Space),,,,,,,,-- --- ---- --- ------ ----- ------- much -- --- ------- --<br>------- ---------- ------ -- ----- -- ----- -- ---- ------<br>--- ----- --- --- ------ -------- ----- --- ------ ----- --<br>----- ----- ---------- --- --- ------ ------ ---- -- ------<br>------- --- ------ ----- --- ---- ------- -- ---- --- --<br>------- ------,169297.79999999702,169297.29999999702,168736.699,168743.5,168753.753,169303.177,,7,much
screen,html.Screen,2_1_1_1_8,2022-05-02T09:46:02.398Z,,,,,,,,,,,,,,,,,54,,,,,,,,,,,,,,527.323000000004,,response,,,,100,,,,,,,Space,keypress(Space),,,,,,,,-- --- ---- --- ------ ----- ------- ---- of --- ------- --<br>------- ---------- ------ -- ----- -- ----- -- ---- ------<br>--- ----- --- --- ------ -------- ----- --- ------ ----- --<br>----- ----- ---------- --- --- ------ ------ ---- -- ------<br>------- --- ------ ----- --- ---- ------- -- ---- --- --<br>------- ------,169831,169830.5,169286.655,169297.79999999702,169303.177,169836.431,,8,of
screen,html.Screen,2_1_1_1_9,2022-05-02T09:46:02.826Z,,,,,,,,,,,,,,,,,54,,,,,,,,,,,,,,422.5689999999886,,response,,,,100,,,,,,,Space,keypress(Space),,,,,,,,-- --- ---- --- ------ ----- ------- ---- -- its ------- --<br>------- ---------- ------ -- ----- -- ----- -- ---- ------<br>--- ----- --- --- ------ -------- ----- --- ------ ----- --<br>----- ----- ---------- --- --- ------ ------ ---- -- ------<br>------- --- ------ ----- --- ---- ------- -- ---- --- --<br>------- ------,170259.29999999702,170259,169819.802,169831,169836.431,170269.669,,9,its
screen,html.Screen,2_1_1_1_10,2022-05-02T09:46:03.244Z,,,,,,,,,,,,,,,,,54,,,,,,,,,,,,,,407.5310000029858,,response,,,,100,,,,,,,Space,keypress(Space),,,,,,,,-- --- ---- --- ------ ----- ------- ---- -- --- revenue --<br>------- ---------- ------ -- ----- -- ----- -- ---- ------<br>--- ----- --- --- ------ -------- ----- --- ------ ----- --<br>----- ----- ---------- --- --- ------ ------ ---- -- ------<br>------- --- ------ ----- --- ---- ------- -- ---- --- --<br>------- ------,170677.79999999702,170677.20000000298,170253.364,170259.39999999106,170269.669,170686.259,,10,revenue
screen,html.Screen,2_1_1_1_11,2022-05-02T09:46:03.842Z,,,,,,,,,,,,,,,,,54,,,,,,,,,,,,,,589.2410000000091,,response,,,,100,,,,,,,Space,keypress(Space),,,,,,,,-- --- ---- --- ------ ----- ------- ---- -- --- ------- by<br>------- ---------- ------ -- ----- -- ----- -- ---- ------<br>--- ----- --- --- ------ -------- ----- --- ------ ----- --<br>----- ----- ---------- --- --- ------ ------ ---- -- ------<br>------- --- ------ ----- --- ---- ------- -- ---- --- --<br>------- ------,171275.79999999702,171275.5,170669.625,170677.79999999702,170686.259,171286.705,,11,by
screen,html.Screen,2_1_1_1_12,2022-05-02T09:46:04.366Z,,,,,,,,,,,,,,,,,54,,,,,,,,,,,,,,511.89499999405234,,response,,,,100,,,,,,,Space,keypress(Space),,,,,,,,-- --- ---- --- ------ ----- ------- ---- -- --- ------- --<br>issuing ---------- ------ -- ----- -- ----- -- ---- ------<br>--- ----- --- --- ------ -------- ----- --- ------ ----- --<br>----- ----- ---------- --- --- ------ ------ ---- -- ------<br>------- --- ------ ----- --- ---- ------- -- ---- --- --<br>------- ------,171799,171798.59999999404,171269.654,171275.79999999702,171286.705,171802.683,,12,issuing
screen,html.Screen,2_1_1_1_13,2022-05-02T09:46:04.788Z,,,,,,,,,,,,,,,,,54,,,,,,,,,,,,,,418.7169999910693,,response,,,,100,,,,,,,Space,keypress(Space),,,,,,,,-- --- ---- --- ------ ----- ------- ---- -- --- ------- --<br>------- government ------ -- ----- -- ----- -- ---- ------<br>--- ----- --- --- ------ -------- ----- --- ------ ----- --<br>----- ----- ---------- --- --- ------ ------ ---- -- ------<br>------- --- ------ ----- --- ---- ------- -- ---- --- --<br>------- ------,172221.70000000298,172221.39999999106,171786.226,171799,171802.683,172236.026,,13,government
screen,html.Screen,2_1_1_1_14,2022-05-02T09:46:05.420Z,,,,,,,,,,,,,,,,,54,,,,,,,,,,,,,,617.1740000029677,,response,,,,100,,,,,,,Space,keypress(Space),,,,,,,,-- --- ---- --- ------ ----- ------- ---- -- --- ------- --<br>------- ---------- bonds. -- ----- -- ----- -- ---- ------<br>--- ----- --- --- ------ -------- ----- --- ------ ----- --<br>----- ----- ---------- --- --- ------ ------ ---- -- ------<br>------- --- ------ ----- --- ---- ------- -- ---- --- --<br>------- ------,172853.79999999702,172853.20000000298,172219.398,172221.89999999106,172236.026,172869.124,,14,bonds.
screen,html.Screen,2_1_1_1_15,2022-05-02T09:46:06.375Z,,,,,,,,,,,,,,,,,54,,,,,,,,,,,,,,938.9759999940288,,response,,,,100,,,,,,,Space,keypress(Space),,,,,,,,-- --- ---- --- ------ ----- ------- ---- -- --- ------- --<br>------- ---------- ------ In ----- -- ----- -- ---- ------<br>--- ----- --- --- ------ -------- ----- --- ------ ----- --<br>----- ----- ---------- --- --- ------ ------ ---- -- ------<br>------- --- ------ ----- --- ---- ------- -- ---- --- --<br>------- ------,173808.59999999404,173808.09999999404,172852.91,172853.79999999702,172869.124,173818.963,,15,In
screen,html.Screen,2_1_1_1_16,2022-05-02T09:46:06.781Z,,,,,,,,,,,,,,,,,54,,,,,,,,,,,,,,394.83699999703094,,response,,,,100,,,,,,,Space,keypress(Space),,,,,,,,"-- --- ---- --- ------ ----- ------- ---- -- --- ------- --<br>------- ---------- ------ -- 1727, -- ----- -- ---- ------<br>--- ----- --- --- ------ -------- ----- --- ------ ----- --<br>----- ----- ---------- --- --- ------ ------ ---- -- ------<br>------- --- ------ ----- --- ---- ------- -- ---- --- --<br>------- ------",174214.20000000298,174213.79999999702,173802.814,173808.70000000298,173818.963,174218.839,,16,"1727,"
screen,html.Screen,2_1_1_1_17,2022-05-02T09:46:07.187Z,,,,,,,,,,,,,,,,,54,,,,,,,,,,,,,,401.46099999701255,,response,,,,100,,,,,,,Space,keypress(Space),,,,,,,,-- --- ---- --- ------ ----- ------- ---- -- --- ------- --<br>------- ---------- ------ -- ----- in ----- -- ---- ------<br>--- ----- --- --- ------ -------- ----- --- ------ ----- --<br>----- ----- ---------- --- --- ------ ------ ---- -- ------<br>------- --- ------ ----- --- ---- ------- -- ---- --- --<br>------- ------,174620.79999999702,174620.29999999702,174202.635,174214.29999999702,174218.839,174635.588,,17,in
screen,html.Screen,2_1_1_1_18,2022-05-02T09:46:07.683Z,,,,,,,,,,,,,,,,,54,,,,,,,,,,,,,,480.4120000000112,,response,,,,100,,,,,,,Space,keypress(Space),,,,,,,,-- --- ---- --- ------ ----- ------- ---- -- --- ------- --<br>------- ---------- ------ -- ----- -- order -- ---- ------<br>--- ----- --- --- ------ -------- ----- --- ------ ----- --<br>----- ----- ---------- --- --- ------ ------ ---- -- ------<br>------- --- ------ ----- --- ---- ------- -- ---- --- --<br>------- ------,175116.29999999702,175116,174618.995,174620.79999999702,174635.588,175118.692,,18,order
screen,html.Screen,2_1_1_1_19,2022-05-02T09:46:08.429Z,,,,,,,,,,,,,,,,,54,,,,,,,,,,,,,,742.6079999970098,,response,,,,100,,,,,,,Space,keypress(Space),,,,,,,,-- --- ---- --- ------ ----- ------- ---- -- --- ------- --<br>------- ---------- ------ -- ----- -- ----- to ---- ------<br>--- ----- --- --- ------ -------- ----- --- ------ ----- --<br>----- ----- ---------- --- --- ------ ------ ---- -- ------<br>------- --- ------ ----- --- ---- ------- -- ---- --- --<br>------- ------,175861.79999999702,175861.29999999702,175102.459,175116.39999999106,175118.692,175868.796,,19,to
screen,html.Screen,2_1_1_1_20,2022-05-02T09:46:08.767Z,,,,,,,,,,,,,,,,,54,,,,,,,,,,,,,,330.7039999999979,,response,,,,100,,,,,,,Space,keypress(Space),,,,,,,,-- --- ---- --- ------ ----- ------- ---- -- --- ------- --<br>------- ---------- ------ -- ----- -- ----- -- save ------<br>--- ----- --- --- ------ -------- ----- --- ------ ----- --<br>----- ----- ---------- --- --- ------ ------ ---- -- ------<br>------- --- ------ ----- --- ---- ------- -- ---- --- --<br>------- ------,176200,176199.5,175852.393,175862,175868.796,176201.829,,20,save
screen,html.Screen,2_1_1_1_21,2022-05-02T09:46:09.136Z,,,,,,,,,,,,,,,,,54,,,,,,,,,,,,,,367.5709999910614,,response,,,,100,,,,,,,Space,keypress(Space),,,,,,,,"-- --- ---- --- ------ ----- ------- ---- -- --- ------- --<br>------- ---------- ------ -- ----- -- ----- -- ---- money,<br>--- ----- --- --- ------ -------- ----- --- ------ ----- --<br>----- ----- ---------- --- --- ------ ------ ---- -- ------<br>------- --- ------ ----- --- ---- ------- -- ---- --- --<br>------- ------",176569.70000000298,176569.39999999106,176185.219,176200.09999999404,176201.829,176585.094,,21,"money,"
screen,html.Screen,2_1_1_1_22,2022-05-02T09:46:09.976Z,,,,,,,,,,,,,,,,,54,,,,,,,,,,,,,,823.2059999970079,,response,,,,100,,,,,,,Space,keypress(Space),,,,,,,,-- --- ---- --- ------ ----- ------- ---- -- --- ------- --<br>------- ---------- ------ -- ----- -- ----- -- ---- ------<br>the ----- --- --- ------ -------- ----- --- ------ ----- --<br>----- ----- ---------- --- --- ------ ------ ---- -- ------<br>------- --- ------ ----- --- ---- ------- -- ---- --- --<br>------- ------,177408.89999999106,177408.29999999702,176568.876,176569.79999999702,176585.094,177418.344,,22,the
screen,html.Screen,2_1_1_1_23,2022-05-02T09:46:10.434Z,,,,,,,,,,,,,,,,,54,,,,,,,,,,,,,,448.75599999402766,,response,,,,100,,,,,,,Space,keypress(Space),,,,,,,,-- --- ---- --- ------ ----- ------- ---- -- --- ------- --<br>------- ---------- ------ -- ----- -- ----- -- ---- ------<br>--- state --- --- ------ -------- ----- --- ------ ----- --<br>----- ----- ---------- --- --- ------ ------ ---- -- ------<br>------- --- ------ ----- --- ---- ------- -- ---- --- --<br>------- ------,177867.5,177867.09999999404,177401.849,177408.89999999106,177418.344,177899.889,,23,state
screen,html.Screen,2_1_1_1_24,2022-05-02T09:46:10.813Z,,,,,,,,,,,,,,,,,54,,,,,,,,,,,,,,346.31100000298466,,response,,,,100,,,,,,,Space,keypress(Space),,,,,,,,-- --- ---- --- ------ ----- ------- ---- -- --- ------- --<br>------- ---------- ------ -- ----- -- ----- -- ---- ------<br>--- ----- cut --- ------ -------- ----- --- ------ ----- --<br>----- ----- ---------- --- --- ------ ------ ---- -- ------<br>------- --- ------ ----- --- ---- ------- -- ---- --- --<br>------- ------,178246.59999999404,178246.20000000298,177851.926,177867.59999999404,177899.889,178251.483,,24,cut
screen,html.Screen,2_1_1_1_25,2022-05-02T09:46:11.321Z,,,,,,,,,,,,,,,,,54,,,,,,,,,,,,,,502.7170000029728,,response,,,,100,,,,,,,Space,keypress(Space),,,,,,,,-- --- ---- --- ------ ----- ------- ---- -- --- ------- --<br>------- ---------- ------ -- ----- -- ----- -- ---- ------<br>--- ----- --- the ------ -------- ----- --- ------ ----- --<br>----- ----- ---------- --- --- ------ ------ ---- -- ------<br>------- --- ------ ----- --- ---- ------- -- ---- --- --<br>------- ------,178754.5,178754.20000000298,178235.165,178246.59999999404,178251.483,178768.216,,25,the
screen,html.Screen,2_1_1_1_26,2022-05-02T09:46:11.784Z,,,,,,,,,,,,,,,,,54,,,,,,,,,,,,,,448.88399999405374,,response,,,,100,,,,,,,Space,keypress(Space),,,,,,,,-- --- ---- --- ------ ----- ------- ---- -- --- ------- --<br>------- ---------- ------ -- ----- -- ----- -- ---- ------<br>--- ----- --- --- bonds' -------- ----- --- ------ ----- --<br>----- ----- ---------- --- --- ------ ------ ---- -- ------<br>------- --- ------ ----- --- ---- ------- -- ---- --- --<br>------- ------,179217.39999999106,179217.09999999404,178751.706,178754.5,178768.216,179234.693,,26,bonds'
screen,html.Screen,2_1_1_1_27,2022-05-02T09:46:12.229Z,,,,,,,,,,,,,,,,,54,,,,,,,,,,,,,,427.20699999106,,response,,,,100,,,,,,,Space,keypress(Space),,,,,,,,-- --- ---- --- ------ ----- ------- ---- -- --- ------- --<br>------- ---------- ------ -- ----- -- ----- -- ---- ------<br>--- ----- --- --- ------ interest ----- --- ------ ----- --<br>----- ----- ---------- --- --- ------ ------ ---- -- ------<br>------- --- ------ ----- --- ---- ------- -- ---- --- --<br>------- ------,179662.39999999106,179661.89999999106,179201.694,179217.5,179234.693,179668.108,,27,interest
screen,html.Screen,2_1_1_1_28,2022-05-02T09:46:13.285Z,,,,,,,,,,,,,,,,,54,,,,,,,,,,,,,,1049.2919999910519,,response,,,,100,,,,,,,Space,keypress(Space),,,,,,,,-- --- ---- --- ------ ----- ------- ---- -- --- ------- --<br>------- ---------- ------ -- ----- -- ----- -- ---- ------<br>--- ----- --- --- ------ -------- rate. --- ------ ----- --<br>----- ----- ---------- --- --- ------ ------ ---- -- ------<br>------- --- ------ ----- --- ---- ------- -- ---- --- --<br>------- ------,180718.09999999404,180717.39999999106,179651.316,179662.39999999106,179668.108,180734.809,,28,rate.
screen,html.Screen,2_1_1_1_29,2022-05-02T09:46:13.799Z,,,,,,,,,,,,,,,,,54,,,,,,,,,,,,,,496.9909999970114,,response,,,,100,,,,,,,Space,keypress(Space),,,,,,,,-- --- ---- --- ------ ----- ------- ---- -- --- ------- --<br>------- ---------- ------ -- ----- -- ----- -- ---- ------<br>--- ----- --- --- ------ -------- ----- The ------ ----- --<br>----- ----- ---------- --- --- ------ ------ ---- -- ------<br>------- --- ------ ----- --- ---- ------- -- ---- --- --<br>------- ------,181232.29999999702,181231.79999999702,180717.911,180718.20000000298,180734.809,181234.177,,29,The
screen,html.Screen,2_1_1_1_30,2022-05-02T09:46:14.322Z,,,,,,,,,,,,,,,,,54,,,,,,,,,,,,,,520.7229999910633,,response,,,,100,,,,,,,Space,keypress(Space),,,,,,,,-- --- ---- --- ------ ----- ------- ---- -- --- ------- --<br>------- ---------- ------ -- ----- -- ----- -- ---- ------<br>--- ----- --- --- ------ -------- ----- --- market ----- --<br>----- ----- ---------- --- --- ------ ------ ---- -- ------<br>------- --- ------ ----- --- ---- ------- -- ---- --- --<br>------- ------,181755.20000000298,181754.89999999106,181217.993,181232.39999999106,181234.177,181767.559,,30,market
screen,html.Screen,2_1_1_1_31,2022-05-02T09:46:14.698Z,,,,,,,,,,,,,,,,,54,,,,,,,,,,,,,,362.4409999999916,,response,,,,100,,,,,,,Space,keypress(Space),,,,,,,,-- --- ---- --- ------ ----- ------- ---- -- --- ------- --<br>------- ---------- ------ -- ----- -- ----- -- ---- ------<br>--- ----- --- --- ------ -------- ----- --- ------ value --<br>----- ----- ---------- --- --- ------ ------ ---- -- ------<br>------- --- ------ ----- --- ---- ------- -- ---- --- --<br>------- ------,182130.5,182130,181751.244,181755.39999999106,181767.559,182134.082,,31,value
screen,html.Screen,2_1_1_1_32,2022-05-02T09:46:15.071Z,,,,,,,,,,,,,,,,,54,,,,,,,,,,,,,,369.11800000298535,,response,,,,100,,,,,,,Space,keypress(Space),,,,,,,,-- --- ---- --- ------ ----- ------- ---- -- --- ------- --<br>------- ---------- ------ -- ----- -- ----- -- ---- ------<br>--- ----- --- --- ------ -------- ----- --- ------ ----- of<br>----- ----- ---------- --- --- ------ ------ ---- -- ------<br>------- --- ------ ----- --- ---- ------- -- ---- --- --<br>------- ------,182503.70000000298,182503.20000000298,182117.686,182130.59999999404,182134.082,182517.441,,32,of
screen,html.Screen,2_1_1_1_33,2022-05-02T09:46:15.465Z,,,,,,,,,,,,,,,,,54,,,,,,,,,,,,,,379.7590000029886,,response,,,,100,,,,,,,Space,keypress(Space),,,,,,,,-- --- ---- --- ------ ----- ------- ---- -- --- ------- --<br>------- ---------- ------ -- ----- -- ----- -- ---- ------<br>--- ----- --- --- ------ -------- ----- --- ------ ----- --<br>these ----- ---------- --- --- ------ ------ ---- -- ------<br>------- --- ------ ----- --- ---- ------- -- ---- --- --<br>------- ------,182897.70000000298,182897.20000000298,182500.915,182503.79999999702,182517.441,182900.527,,33,these
screen,html.Screen,2_1_1_1_34,2022-05-02T09:46:15.837Z,,,,,,,,,,,,,,,,,54,,,,,,,,,,,,,,368.47299999999814,,response,,,,100,,,,,,,Space,keypress(Space),,,,,,,,-- --- ---- --- ------ ----- ------- ---- -- --- ------- --<br>------- ---------- ------ -- ----- -- ----- -- ---- ------<br>--- ----- --- --- ------ -------- ----- --- ------ ----- --<br>----- bonds ---------- --- --- ------ ------ ---- -- ------<br>------- --- ------ ----- --- ---- ------- -- ---- --- --<br>------- ------,183269.59999999404,183269,182884.079,182897.79999999702,182900.527,183284.2,,34,bonds
screen,html.Screen,2_1_1_1_35,2022-05-02T09:46:16.258Z,,,,,,,,,,,,,,,,,54,,,,,,,,,,,,,,406.69999999104766,,response,,,,100,,,,,,,Space,keypress(Space),,,,,,,,"-- --- ---- --- ------ ----- ------- ---- -- --- ------- --<br>------- ---------- ------ -- ----- -- ----- -- ---- ------<br>--- ----- --- --- ------ -------- ----- --- ------ ----- --<br>----- ----- plummeted, --- --- ------ ------ ---- -- ------<br>------- --- ------ ----- --- ---- ------- -- ---- --- --<br>------- ------",183691.20000000298,183690.89999999106,183267.601,183269.59999999404,183284.2,183700.561,,35,"plummeted,"
screen,html.Screen,2_1_1_1_36,2022-05-02T09:46:16.685Z,,,,,,,,,,,,,,,,,54,,,,,,,,,,,,,,416.33899999107234,,response,,,,100,,,,,,,Space,keypress(Space),,,,,,,,-- --- ---- --- ------ ----- ------- ---- -- --- ------- --<br>------- ---------- ------ -- ----- -- ----- -- ---- ------<br>--- ----- --- --- ------ -------- ----- --- ------ ----- --<br>----- ----- ---------- and --- ------ ------ ---- -- ------<br>------- --- ------ ----- --- ---- ------- -- ---- --- --<br>------- ------,184117.59999999404,184116.89999999106,183684.207,183691.29999999702,183700.561,184133.662,,36,and
screen,html.Screen,2_1_1_1_37,2022-05-02T09:46:17.039Z,,,,,,,,,,,,,,,,,54,,,,,,,,,,,,,,338.43799999402836,,response,,,,100,,,,,,,Space,keypress(Space),,,,,,,,-- --- ---- --- ------ ----- ------- ---- -- --- ------- --<br>------- ---------- ------ -- ----- -- ----- -- ---- ------<br>--- ----- --- --- ------ -------- ----- --- ------ ----- --<br>----- ----- ---------- --- the ------ ------ ---- -- ------<br>------- --- ------ ----- --- ---- ------- -- ---- --- --<br>------- ------,184472.5,184472.09999999404,184117.228,184117.79999999702,184133.662,184483.614,,37,the
screen,html.Screen,2_1_1_1_38,2022-05-02T09:46:17.428Z,,,,,,,,,,,,,,,,,54,,,,,,,,,,,,,,376.7859999910579,,response,,,,100,,,,,,,Space,keypress(Space),,,,,,,,-- --- ---- --- ------ ----- ------- ---- -- --- ------- --<br>------- ---------- ------ -- ----- -- ----- -- ---- ------<br>--- ----- --- --- ------ -------- ----- --- ------ ----- --<br>----- ----- ---------- --- --- market ------ ---- -- ------<br>------- --- ------ ----- --- ---- ------- -- ---- --- --<br>------- ------,184860.89999999106,184860.39999999106,184467.352,184472.5,184483.614,184867.107,,38,market
screen,html.Screen,2_1_1_1_39,2022-05-02T09:46:17.864Z,,,,,,,,,,,,,,,,,54,,,,,,,,,,,,,,430.0930000029912,,response,,,,100,,,,,,,Space,keypress(Space),,,,,,,,-- --- ---- --- ------ ----- ------- ---- -- --- ------- --<br>------- ---------- ------ -- ----- -- ----- -- ---- ------<br>--- ----- --- --- ------ -------- ----- --- ------ ----- --<br>----- ----- ---------- --- --- ------ became ---- -- ------<br>------- --- ------ ----- --- ---- ------- -- ---- --- --<br>------- ------,185297.5,185297.20000000298,184850.266,184861.09999999404,184867.107,185300.081,,39,became
screen,html.Screen,2_1_1_1_40,2022-05-02T09:46:18.238Z,,,,,,,,,,,,,,,,,54,,,,,,,,,,,,,,370.2189999970142,,response,,,,100,,,,,,,Space,keypress(Space),,,,,,,,-- --- ---- --- ------ ----- ------- ---- -- --- ------- --<br>------- ---------- ------ -- ----- -- ----- -- ---- ------<br>--- ----- --- --- ------ -------- ----- --- ------ ----- --<br>----- ----- ---------- --- --- ------ ------ wary -- ------<br>------- --- ------ ----- --- ---- ------- -- ---- --- --<br>------- ------,185670.70000000298,185670.29999999702,185283.601,185297.5,185300.081,185683.413,,40,wary
screen,html.Screen,2_1_1_1_41,2022-05-02T09:46:18.639Z,,,,,,,,,,,,,,,,,54,,,,,,,,,,,,,,387.78700000297977,,response,,,,100,,,,,,,Space,keypress(Space),,,,,,,,-- --- ---- --- ------ ----- ------- ---- -- --- ------- --<br>------- ---------- ------ -- ----- -- ----- -- ---- ------<br>--- ----- --- --- ------ -------- ----- --- ------ ----- --<br>----- ----- ---------- --- --- ------ ------ ---- of ------<br>------- --- ------ ----- --- ---- ------- -- ---- --- --<br>------- ------,186071.79999999702,186071.20000000298,185666.745,185670.79999999702,185683.413,186083.685,,41,of
screen,html.Screen,2_1_1_1_42,2022-05-02T09:46:19.213Z,,,,,,,,,,,,,,,,,54,,,,,,,,,,,,,,562.4149999940419,,response,,,,100,,,,,,,Space,keypress(Space),,,,,,,,-- --- ---- --- ------ ----- ------- ---- -- --- ------- --<br>------- ---------- ------ -- ----- -- ----- -- ---- ------<br>--- ----- --- --- ------ -------- ----- --- ------ ----- --<br>----- ----- ---------- --- --- ------ ------ ---- -- French<br>------- --- ------ ----- --- ---- ------- -- ---- --- --<br>------- ------,186646.39999999106,186646.09999999404,186066.958,186071.89999999106,186083.685,186649.791,,42,French
screen,html.Screen,2_1_1_1_43,2022-05-02T09:46:19.702Z,,,,,,,,,,,,,,,,,54,,,,,,,,,,,,,,484.60899999106186,,response,,,,100,,,,,,,Space,keypress(Space),,,,,,,,-- --- ---- --- ------ ----- ------- ---- -- --- ------- --<br>------- ---------- ------ -- ----- -- ----- -- ---- ------<br>--- ----- --- --- ------ -------- ----- --- ------ ----- --<br>----- ----- ---------- --- --- ------ ------ ---- -- ------<br>credit. --- ------ ----- --- ---- ------- -- ---- --- --<br>------- ------,187134.89999999106,187134.39999999106,186633.25,186646.5,186649.791,187149.844,,43,credit.
screen,html.Screen,2_1_1_1_44,2022-05-02T09:46:20.373Z,,,,,,,,,,,,,,,,,54,,,,,,,,,,,,,,656.3560000029684,,response,,,,100,,,,,,,Space,keypress(Space),,,,,,,,-- --- ---- --- ------ ----- ------- ---- -- --- ------- --<br>------- ---------- ------ -- ----- -- ----- -- ---- ------<br>--- ----- --- --- ------ -------- ----- --- ------ ----- --<br>----- ----- ---------- --- --- ------ ------ ---- -- ------<br>------- The ------ ----- --- ---- ------- -- ---- --- --<br>------- ------,187806.5,187806.20000000298,187133.162,187134.89999999106,187149.844,187816.739,,44,The
screen,html.Screen,2_1_1_1_45,2022-05-02T09:46:20.729Z,,,,,,,,,,,,,,,,,54,,,,,,,,,,,,,,345.06099999701837,,response,,,,100,,,,,,,Space,keypress(Space),,,,,,,,-- --- ---- --- ------ ----- ------- ---- -- --- ------- --<br>------- ---------- ------ -- ----- -- ----- -- ---- ------<br>--- ----- --- --- ------ -------- ----- --- ------ ----- --<br>----- ----- ---------- --- --- ------ ------ ---- -- ------<br>------- --- French ----- --- ---- ------- -- ---- --- --<br>------- ------,188162.20000000298,188161.79999999702,187800.08,187806.59999999404,187816.739,188166.292,,45,French
screen,html.Screen,2_1_1_1_46,2022-05-02T09:46:21.125Z,,,,,,,,,,,,,,,,,54,,,,,,,,,,,,,,391.00799999703304,,response,,,,100,,,,,,,Space,keypress(Space),,,,,,,,-- --- ---- --- ------ ----- ------- ---- -- --- ------- --<br>------- ---------- ------ -- ----- -- ----- -- ---- ------<br>--- ----- --- --- ------ -------- ----- --- ------ ----- --<br>----- ----- ---------- --- --- ------ ------ ---- -- ------<br>------- --- ------ state --- ---- ------- -- ---- --- --<br>------- ------,188557.70000000298,188557.29999999702,188149.673,188162.29999999702,188166.292,188566.111,,46,state
screen,html.Screen,2_1_1_1_47,2022-05-02T09:46:21.522Z,,,,,,,,,,,,,,,,,54,,,,,,,,,,,,,,388.8889999999956,,response,,,,100,,,,,,,Space,keypress(Space),,,,,,,,-- --- ---- --- ------ ----- ------- ---- -- --- ------- --<br>------- ---------- ------ -- ----- -- ----- -- ---- ------<br>--- ----- --- --- ------ -------- ----- --- ------ ----- --<br>----- ----- ---------- --- --- ------ ------ ---- -- ------<br>------- --- ------ ----- was ---- ------- -- ---- --- --<br>------- ------,188955.39999999106,188955,188549.675,188557.70000000298,188566.111,188966.123,,47,was
screen,html.Screen,2_1_1_1_48,2022-05-02T09:46:22.199Z,,,,,,,,,,,,,,,,,54,,,,,,,,,,,,,,665.1769999970275,,response,,,,100,,,,,,,Space,keypress(Space),,,,,,,,-- --- ---- --- ------ ----- ------- ---- -- --- ------- --<br>------- ---------- ------ -- ----- -- ----- -- ---- ------<br>--- ----- --- --- ------ -------- ----- --- ------ ----- --<br>----- ----- ---------- --- --- ------ ------ ---- -- ------<br>------- --- ------ ----- --- left ------- -- ---- --- --<br>------- ------,189631.59999999404,189631.29999999702,188949.449,188955.5,188966.123,189664.454,,48,left
screen,html.Screen,2_1_1_1_49,2022-05-02T09:46:22.629Z,,,,,,,,,,,,,,,,,54,,,,,,,,,,,,,,397.34599999702186,,response,,,,100,,,,,,,Space,keypress(Space),,,,,,,,-- --- ---- --- ------ ----- ------- ---- -- --- ------- --<br>------- ---------- ------ -- ----- -- ----- -- ---- ------<br>--- ----- --- --- ------ -------- ----- --- ------ ----- --<br>----- ----- ---------- --- --- ------ ------ ---- -- ------<br>------- --- ------ ----- --- ---- without -- ---- --- --<br>------- ------,190062.29999999702,190061.79999999702,189616.031,189631.59999999404,189664.454,190065.822,,49,without
screen,html.Screen,2_1_1_1_50,2022-05-02T09:46:23.095Z,,,,,,,,,,,,,,,,,54,,,,,,,,,,,,,,461.67800000001444,,response,,,,100,,,,,,,Space,keypress(Space),,,,,,,,-- --- ---- --- ------ ----- ------- ---- -- --- ------- --<br>------- ---------- ------ -- ----- -- ----- -- ---- ------<br>--- ----- --- --- ------ -------- ----- --- ------ ----- --<br>----- ----- ---------- --- --- ------ ------ ---- -- ------<br>------- --- ------ ----- --- ---- ------- an ---- --- --<br>------- ------,190527.79999999702,190527.5,190049.3,190062.29999999702,190065.822,190532.451,,50,an
screen,html.Screen,2_1_1_1_51,2022-05-02T09:46:23.591Z,,,,,,,,,,,,,,,,,54,,,,,,,,,,,,,,491.34899999701884,,response,,,,100,,,,,,,Space,keypress(Space),,,,,,,,-- --- ---- --- ------ ----- ------- ---- -- --- ------- --<br>------- ---------- ------ -- ----- -- ----- -- ---- ------<br>--- ----- --- --- ------ -------- ----- --- ------ ----- --<br>----- ----- ---------- --- --- ------ ------ ---- -- ------<br>------- --- ------ ----- --- ---- ------- -- easy --- --<br>------- ------,191024.39999999106,191023.79999999702,190515.876,190527.89999999106,190532.451,191032.541,,51,easy
screen,html.Screen,2_1_1_1_52,2022-05-02T09:46:24.010Z,,,,,,,,,,,,,,,,,54,,,,,,,,,,,,,,409.6590000029828,,response,,,,100,,,,,,,Space,keypress(Space),,,,,,,,-- --- ---- --- ------ ----- ------- ---- -- --- ------- --<br>------- ---------- ------ -- ----- -- ----- -- ---- ------<br>--- ----- --- --- ------ -------- ----- --- ------ ----- --<br>----- ----- ---------- --- --- ------ ------ ---- -- ------<br>------- --- ------ ----- --- ---- ------- -- ---- way --<br>------- ------,191442.70000000298,191442.20000000298,191015.84,191024.5,191032.541,191448.914,,52,way
screen,html.Screen,2_1_1_1_53,2022-05-02T09:46:24.486Z,,,,,,,,,,,,,,,,,54,,,,,,,,,,,,,,469.2860000029905,,response,,,,100,,,,,,,Space,keypress(Space),,,,,,,,-- --- ---- --- ------ ----- ------- ---- -- --- ------- --<br>------- ---------- ------ -- ----- -- ----- -- ---- ------<br>--- ----- --- --- ------ -------- ----- --- ------ ----- --<br>----- ----- ---------- --- --- ------ ------ ---- -- ------<br>------- --- ------ ----- --- ---- ------- -- ---- --- of<br>------- ------,191918.70000000298,191918.20000000298,191432.305,191442.79999999702,191448.914,191932.256,,53,of
screen,html.Screen,2_1_1_1_54,2022-05-02T09:46:24.991Z,,,,,,,,,,,,,,,,,54,,,,,,,,,,,,,,491.0439999970258,,response,,,,100,,,,,,,Space,keypress(Space),,,,,,,,-- --- ---- --- ------ ----- ------- ---- -- --- ------- --<br>------- ---------- ------ -- ----- -- ----- -- ---- ------<br>--- ----- --- --- ------ -------- ----- --- ------ ----- --<br>----- ----- ---------- --- --- ------ ------ ---- -- ------<br>------- --- ------ ----- --- ---- ------- -- ---- --- --<br>raising ------,192423.79999999702,192423.29999999702,191915.823,191918.79999999702,191932.256,192432.336,,54,raising
screen,html.Screen,2_1_1_1_55,2022-05-02T09:46:28.253Z,,,,,,,,,,,,,,,,,54,,,,,,,,,,,,,,3252.9639999970095,,response,,,,100,,,,,,,Space,keypress(Space),,,,,,,,-- --- ---- --- ------ ----- ------- ---- -- --- ------- --<br>------- ---------- ------ -- ----- -- ----- -- ---- ------<br>--- ----- --- --- ------ -------- ----- --- ------ ----- --<br>----- ----- ---------- --- --- ------ ------ ---- -- ------<br>------- --- ------ ----- --- ---- ------- -- ---- --- --<br>------- money.,195685.59999999404,195685.29999999702,192415.851,192424,192432.336,195698.095,,55,money.
Item 100,flow.Loop,2_1_1_1,2022-05-02T09:46:28.253Z,,,,,,,,,,,,,,,,,,,,,,,,,,,,,,,31031.160999997024,,completion,,,,,E,,,,,,,,,,,silence,,,,,195685.70000000298,195685.29999999702,164637.44,164638.39999999106,164654.139,195698.095,,,
Question 1,html.Screen,2_1_1_2,2022-05-02T09:46:32.877Z,,,,,,,,,,,,,,,,,,,,,,,,,,,,false,TRUE,,4611.004999994038,,response,,,,100,E,,,,,,FALSE,click #choice-2,,,,silence,,,,,200309.89999999106,200309.09999999404,195681.65,195685.70000000298,195698.095,200313.887,,,
Question 2,html.Screen,2_1_1_3,2022-05-02T09:46:35.764Z,,,,,,,,,,,,,,,,,,,,,,,,,,,,true,FALSE,,2882.412999997032,,response,,,,100,E,,,,,,FALSE,click #choice-2,,,,silence,,,,,203197.09999999404,203196.29999999702,200297.281,200309.89999999106,200313.887,203213.371,,,
Item 100,flow.Sequence,2_1_1,2022-05-02T09:46:35.764Z,,,,,,,,,,,,,,,,,,,,,,,,,,,,,,,48540.30699999703,,completion,,,,,,,,,,,,,,,,,,,,,203197.20000000298,203196.29999999702,154639.355,154651.29999999702,154655.993,203213.371,,,
End of Practice,html.Page,2_1_2,2022-05-02T09:46:39.233Z,,,,,,,,,,,,,,,,,,,,,,,,,,,,,,,3452.3290000029665,,form submission,,,,,,,,,,,,,,,,,,,,,206665.89999999106,206665.70000000298,203196.677,203197.20000000298,203213.371,206679.326,,,
Practice,flow.Sequence,2_1,2022-05-02T09:46:39.233Z,,,,,,,,,,,,,,,,,,,,,,,,,,,,,,,105566.19700000298,,completion,,,,,,,,,,,,,,,,,,,,,206666,206665.70000000298,101082.828,101097.29999999702,101099.503,206679.326,,,
Trap_instruction,html.Page,2_2_0,2022-05-02T09:46:42.068Z,,,,,,,,,,,,,,,,,,,,,,,,,,,,,,,2821.8740000029793,,form submission,,,,,,,,,,,,,,,,,,,,,209501.39999999106,209501.20000000298,206662.645,206666.09999999404,206679.326,209512.127,,,
trap_trial,html.Screen,2_2_1,2022-05-02T09:46:46.599Z,,,,,,,,,,,,,,,,,,,,,,,,,,,,true,1,,4519.472999994032,,response,,,,,,,,,,,1,click #choice-1,,,,,,,,,214032.29999999702,214031.59999999404,209495.496,209501.5,209512.127,214044.655,,,
end of trap trial,html.Page,2_2_2,2022-05-02T09:46:48.967Z,,,,,,,,,,,,,,,,,,,,,,,,,,,,,,,2355.0450000029814,,form submission,,,,,,,,,,,,,,,,,,,,,216399.89999999106,216399.70000000298,214027.917,214032.39999999106,214044.655,216410.87,,,
Trap 1,flow.Sequence,2_2,2022-05-02T09:46:48.967Z,,,,,,,,,,,,,,,,,,,,,,,,,,,,,,,9720.37400000298,,completion,,,,,,,,,,,,,,,,,,,,,216400.09999999404,216399.70000000298,206662.645,206666.09999999404,206679.326,216410.87,,,
Standby,html.Page,2_3_0,2022-05-02T09:46:56.960Z,,,,,,,,,,,,,,,,,,,,,,,,,,,,,,,7998.395000000019,,timeout,,,,,,,,,,,,,,,,,,,,,224393.09999999404,224392.631,216394.146,216400.09999999404,216410.87,224409.265,,,
Holding screen,html.Screen,2_3_1_0_0,2022-05-02T09:47:03.959Z,,,,,,,,,,,,,,,,,,,,,,,,,,,,,,,6999.061999999976,,timeout,,,,,,,,,,,,,,,,,,,,,231392.29999999702,231391.568,224392.631,224393.29999999702,224409.265,231408.327,,,
screen,html.Screen,2_3_1_0_1_0,2022-05-02T09:47:05.439Z,,,,,,,,,,,,,,,,,40,,,,,,,,,,,,,,1463.4729999970295,,response,,,,9,E,,,,,,Space,keypress(Space),,,,silence,,,,Police -- ------- ---- ---- ---- - -------- ----- --- --<br>----- ----- ------ -- ---- -- --- - ---- -- - ----- -----<br>------ ---- ------ ---- - -------- ------- -- --- --------<br>-------- ----------- ---- ------ ---- ------ ---- --- ---<br>-------- --- -----,232872.29999999702,232871.79999999702,231391.568,231392.39999999106,231408.327,232874.342,,0,Police
screen,html.Screen,2_3_1_0_1_1,2022-05-02T09:47:05.909Z,,,,,,,,,,,,,,,,,40,,,,,,,,,,,,,,467.5579999910551,,response,,,,9,E,,,,,,Space,keypress(Space),,,,silence,,,,------ in ------- ---- ---- ---- - -------- ----- --- --<br>----- ----- ------ -- ---- -- --- - ---- -- - ----- -----<br>------ ---- ------ ---- - -------- ------- -- --- --------<br>-------- ----------- ---- ------ ---- ------ ---- --- ---<br>-------- --- -----,233342.29999999702,233341.89999999106,232858.466,232872.39999999106,232874.342,233357.933,,1,in
screen,html.Screen,2_3_1_0_1_2,2022-05-02T09:47:06.509Z,,,,,,,,,,,,,,,,,40,,,,,,,,,,,,,,583.7670000029902,,response,,,,9,E,,,,,,Space,keypress(Space),,,,silence,,,,------ -- Georgia ---- ---- ---- - -------- ----- --- --<br>----- ----- ------ -- ---- -- --- - ---- -- - ----- -----<br>------ ---- ------ ---- - -------- ------- -- --- --------<br>-------- ----------- ---- ------ ---- ------ ---- --- ---<br>-------- --- -----,233942,233941.70000000298,233341.01,233342.39999999106,233357.933,233957.838,,2,Georgia
screen,html.Screen,2_3_1_0_1_3,2022-05-02T09:47:07.024Z,,,,,,,,,,,,,,,,,40,,,,,,,,,,,,,,498.8620000029914,,response,,,,9,E,,,,,,Space,keypress(Space),,,,silence,,,,------ -- ------- have ---- ---- - -------- ----- --- --<br>----- ----- ------ -- ---- -- --- - ---- -- - ----- -----<br>------ ---- ------ ---- - -------- ------- -- --- --------<br>-------- ----------- ---- ------ ---- ------ ---- --- ---<br>-------- --- -----,234457.39999999106,234456.70000000298,233941.23,233942.09999999404,233957.838,234474.095,,3,have
screen,html.Screen,2_3_1_0_1_4,2022-05-02T09:47:07.492Z,,,,,,,,,,,,,,,,,40,,,,,,,,,,,,,,450.2049999970186,,response,,,,9,E,,,,,,Space,keypress(Space),,,,silence,,,,------ -- ------- ---- shut ---- - -------- ----- --- --<br>----- ----- ------ -- ---- -- --- - ---- -- - ----- -----<br>------ ---- ------ ---- - -------- ------- -- --- --------<br>-------- ----------- ---- ------ ---- ------ ---- --- ---<br>-------- --- -----,234924.79999999702,234924.29999999702,234457.45,234457.5,234474.095,234940.83,,4,shut
screen,html.Screen,2_3_1_0_1_5,2022-05-02T09:47:07.906Z,,,,,,,,,,,,,,,,,40,,,,,,,,,,,,,,397.6700000000128,,response,,,,9,E,,,,,,Space,keypress(Space),,,,silence,,,,------ -- ------- ---- ---- down - -------- ----- --- --<br>----- ----- ------ -- ---- -- --- - ---- -- - ----- -----<br>------ ---- ------ ---- - -------- ------- -- --- --------<br>-------- ----------- ---- ------ ---- ------ ---- --- ---<br>-------- --- -----,235338.79999999702,235338.5,234924.004,234924.89999999106,234940.83,235340.505,,5,down
screen,html.Screen,2_3_1_0_1_6,2022-05-02T09:47:08.326Z,,,,,,,,,,,,,,,,,40,,,,,,,,,,,,,,417.6950000029756,,response,,,,9,E,,,,,,Space,keypress(Space),,,,silence,,,,------ -- ------- ---- ---- ---- a -------- ----- --- --<br>----- ----- ------ -- ---- -- --- - ---- -- - ----- -----<br>------ ---- ------ ---- - -------- ------- -- --- --------<br>-------- ----------- ---- ------ ---- ------ ---- --- ---<br>-------- --- -----,235758.79999999702,235758.20000000298,235323.895,235338.79999999702,235340.505,235773.882,,6,a
screen,html.Screen,2_3_1_0_1_7,2022-05-02T09:47:08.938Z,,,,,,,,,,,,,,,,,40,,,,,,,,,,,,,,596.2179999940272,,response,,,,9,E,,,,,,Space,keypress(Space),,,,silence,,,,------ -- ------- ---- ---- ---- - lemonade ----- --- --<br>----- ----- ------ -- ---- -- --- - ---- -- - ----- -----<br>------ ---- ------ ---- - -------- ------- -- --- --------<br>-------- ----------- ---- ------ ---- ------ ---- --- ---<br>-------- --- -----,236370.59999999404,236370.09999999404,235757.19,235758.89999999106,235773.882,236373.639,,7,lemonade
screen,html.Screen,2_3_1_0_1_8,2022-05-02T09:47:09.299Z,,,,,,,,,,,,,,,,,40,,,,,,,,,,,,,,357.6609999970242,,response,,,,9,E,,,,,,Space,keypress(Space),,,,silence,,,,------ -- ------- ---- ---- ---- - -------- stand --- --<br>----- ----- ------ -- ---- -- --- - ---- -- - ----- -----<br>------ ---- ------ ---- - -------- ------- -- --- --------<br>-------- ----------- ---- ------ ---- ------ ---- --- ---<br>-------- --- -----,236731.70000000298,236731.29999999702,236357.474,236370.59999999404,236373.639,236740.221,,8,stand
screen,html.Screen,2_3_1_0_1_9,2022-05-02T09:47:09.707Z,,,,,,,,,,,,,,,,,40,,,,,,,,,,,,,,399.0789999970293,,response,,,,9,E,,,,,,Space,keypress(Space),,,,silence,,,,------ -- ------- ---- ---- ---- - -------- ----- run --<br>----- ----- ------ -- ---- -- --- - ---- -- - ----- -----<br>------ ---- ------ ---- - -------- ------- -- --- --------<br>-------- ----------- ---- ------ ---- ------ ---- --- ---<br>-------- --- -----,237139.70000000298,237139.29999999702,236723.653,236731.79999999702,236740.221,237171.066,,9,run
screen,html.Screen,2_3_1_0_1_10,2022-05-02T09:47:10.127Z,,,,,,,,,,,,,,,,,40,,,,,,,,,,,,,,388.23399999702815,,response,,,,9,E,,,,,,Space,keypress(Space),,,,silence,,,,------ -- ------- ---- ---- ---- - -------- ----- --- by<br>----- ----- ------ -- ---- -- --- - ---- -- - ----- -----<br>------ ---- ------ ---- - -------- ------- -- --- --------<br>-------- ----------- ---- ------ ---- ------ ---- --- ---<br>-------- --- -----,237559.89999999106,237559.29999999702,237123.974,237139.70000000298,237171.066,237573.744,,10,by
screen,html.Screen,2_3_1_0_1_11,2022-05-02T09:47:10.468Z,,,,,,,,,,,,,,,,,40,,,,,,,,,,,,,,326.9560000029742,,response,,,,9,E,,,,,,Space,keypress(Space),,,,silence,,,,------ -- ------- ---- ---- ---- - -------- ----- --- --<br>three ----- ------ -- ---- -- --- - ---- -- - ----- -----<br>------ ---- ------ ---- - -------- ------- -- --- --------<br>-------- ----------- ---- ------ ---- ------ ---- --- ---<br>-------- --- -----,237901.09999999404,237900.70000000298,237556.847,237560,237573.744,237907.357,,11,three
screen,html.Screen,2_3_1_0_1_12,2022-05-02T09:47:10.904Z,,,,,,,,,,,,,,,,,40,,,,,,,,,,,,,,429.2429999940505,,response,,,,9,E,,,,,,Space,keypress(Space),,,,silence,,,,------ -- ------- ---- ---- ---- - -------- ----- --- --<br>----- girls ------ -- ---- -- --- - ---- -- - ----- -----<br>------ ---- ------ ---- - -------- ------- -- --- --------<br>-------- ----------- ---- ------ ---- ------ ---- --- ---<br>-------- --- -----,238336.89999999106,238336.59999999404,237890.2,237901.20000000298,237907.357,238339.959,,12,girls
screen,html.Screen,2_3_1_0_1_13,2022-05-02T09:47:11.320Z,,,,,,,,,,,,,,,,,40,,,,,,,,,,,,,,412.3409999970172,,response,,,,9,E,,,,,,Space,keypress(Space),,,,silence,,,,------ -- ------- ---- ---- ---- - -------- ----- --- --<br>----- ----- trying -- ---- -- --- - ---- -- - ----- -----<br>------ ---- ------ ---- - -------- ------- -- --- --------<br>-------- ----------- ---- ------ ---- ------ ---- --- ---<br>-------- --- -----,238752.79999999702,238752.29999999702,238323.479,238336.89999999106,238339.959,238756.542,,13,trying
screen,html.Screen,2_3_1_0_1_14,2022-05-02T09:47:11.720Z,,,,,,,,,,,,,,,,,40,,,,,,,,,,,,,,395.8579999910726,,response,,,,9,E,,,,,,Space,keypress(Space),,,,silence,,,,------ -- ------- ---- ---- ---- - -------- ----- --- --<br>----- ----- ------ to ---- -- --- - ---- -- - ----- -----<br>------ ---- ------ ---- - -------- ------- -- --- --------<br>-------- ----------- ---- ------ ---- ------ ---- --- ---<br>-------- --- -----,239152.89999999106,239152.39999999106,238739.983,238752.79999999702,238756.542,239156.464,,14,to
screen,html.Screen,2_3_1_0_1_15,2022-05-02T09:47:12.079Z,,,,,,,,,,,,,,,,,40,,,,,,,,,,,,,,354.736000002973,,response,,,,9,E,,,,,,Space,keypress(Space),,,,silence,,,,------ -- ------- ---- ---- ---- - -------- ----- --- --<br>----- ----- ------ -- save -- --- - ---- -- - ----- -----<br>------ ---- ------ ---- - -------- ------- -- --- --------<br>-------- ----------- ---- ------ ---- ------ ---- --- ---<br>-------- --- -----,239511.5,239511.20000000298,239139.912,239153,239156.464,239523.106,,15,save
screen,html.Screen,2_3_1_0_1_16,2022-05-02T09:47:12.459Z,,,,,,,,,,,,,,,,,40,,,,,,,,,,,,,,367.99399999403977,,response,,,,9,E,,,,,,Space,keypress(Space),,,,silence,,,,------ -- ------- ---- ---- ---- - -------- ----- --- --<br>----- ----- ------ -- ---- up --- - ---- -- - ----- -----<br>------ ---- ------ ---- - -------- ------- -- --- --------<br>-------- ----------- ---- ------ ---- ------ ---- --- ---<br>-------- --- -----,239891.5,239891.09999999404,239506.482,239511.59999999404,239523.106,239906.651,,16,up
screen,html.Screen,2_3_1_0_1_17,2022-05-02T09:47:12.838Z,,,,,,,,,,,,,,,,,40,,,,,,,,,,,,,,363.94899999402696,,response,,,,9,E,,,,,,Space,keypress(Space),,,,silence,,,,------ -- ------- ---- ---- ---- - -------- ----- --- --<br>----- ----- ------ -- ---- -- for - ---- -- - ----- -----<br>------ ---- ------ ---- - -------- ------- -- --- --------<br>-------- ----------- ---- ------ ---- ------ ---- --- ---<br>-------- --- -----,240270.89999999106,240270.59999999404,239889.724,239891.59999999404,239906.651,240272.909,,17,for
screen,html.Screen,2_3_1_0_1_18,2022-05-02T09:47:13.163Z,,,,,,,,,,,,,,,,,40,,,,,,,,,,,,,,322.5909999999858,,response,,,,9,E,,,,,,Space,keypress(Space),,,,silence,,,,------ -- ------- ---- ---- ---- - -------- ----- --- --<br>----- ----- ------ -- ---- -- --- a ---- -- - ----- -----<br>------ ---- ------ ---- - -------- ------- -- --- --------<br>-------- ----------- ---- ------ ---- ------ ---- --- ---<br>-------- --- -----,240596,240595.5,240256.326,240271,240272.909,240606.3,,18,a
screen,html.Screen,2_3_1_0_1_19,2022-05-02T09:47:13.437Z,,,,,,,,,,,,,,,,,40,,,,,,,,,,,,,,262.9999999970314,,response,,,,9,E,,,,,,Space,keypress(Space),,,,silence,,,,------ -- ------- ---- ---- ---- - -------- ----- --- --<br>----- ----- ------ -- ---- -- --- - trip -- - ----- -----<br>------ ---- ------ ---- - -------- ------- -- --- --------<br>-------- ----------- ---- ------ ---- ------ ---- --- ---<br>-------- --- -----,240869.79999999702,240869.29999999702,240589.737,240596.09999999404,240606.3,240872.795,,19,trip
screen,html.Screen,2_3_1_0_1_20,2022-05-02T09:47:13.708Z,,,,,,,,,,,,,,,,,40,,,,,,,,,,,,,,267.50499999700696,,response,,,,9,E,,,,,,Space,keypress(Space),,,,silence,,,,------ -- ------- ---- ---- ---- - -------- ----- --- --<br>----- ----- ------ -- ---- -- --- - ---- to - ----- -----<br>------ ---- ------ ---- - -------- ------- -- --- --------<br>-------- ----------- ---- ------ ---- ------ ---- --- ---<br>-------- --- -----,241140.79999999702,241140.29999999702,240856.162,240869.89999999106,240872.795,241156.083,,20,to
screen,html.Screen,2_3_1_0_1_21,2022-05-02T09:47:14.001Z,,,,,,,,,,,,,,,,,40,,,,,,,,,,,,,,277.7169999970065,,response,,,,9,E,,,,,,Space,keypress(Space),,,,silence,,,,------ -- ------- ---- ---- ---- - -------- ----- --- --<br>----- ----- ------ -- ---- -- --- - ---- -- a ----- -----<br>------ ---- ------ ---- - -------- ------- -- --- --------<br>-------- ----------- ---- ------ ---- ------ ---- --- ---<br>-------- --- -----,241434.20000000298,241433.79999999702,241139.435,241140.79999999702,241156.083,241439.326,,21,a
screen,html.Screen,2_3_1_0_1_22,2022-05-02T09:47:15.088Z,,,,,,,,,,,,,,,,,40,,,,,,,,,,,,,,1080.8740000029793,,response,,,,9,E,,,,,,Space,keypress(Space),,,,silence,,,,------ -- ------- ---- ---- ---- - -------- ----- --- --<br>----- ----- ------ -- ---- -- --- - ---- -- - water -----<br>------ ---- ------ ---- - -------- ------- -- --- --------<br>-------- ----------- ---- ------ ---- ------ ---- --- ---<br>-------- --- -----,242520.70000000298,242520.20000000298,241422.893,241434.29999999702,241439.326,242522.492,,22,water
screen,html.Screen,2_3_1_0_1_23,2022-05-02T09:47:16.047Z,,,,,,,,,,,,,,,,,40,,,,,,,,,,,,,,956.4079999910609,,response,,,,9,E,,,,,,Space,keypress(Space),,,,silence,,,,"------ -- ------- ---- ---- ---- - -------- ----- --- --<br>----- ----- ------ -- ---- -- --- - ---- -- - ----- park,<br>------ ---- ------ ---- - -------- ------- -- --- --------<br>-------- ----------- ---- ------ ---- ------ ---- --- ---<br>-------- --- -----",243479.29999999702,243478.89999999106,242506.231,242520.89999999106,242522.492,243489.102,,23,"park,"
screen,html.Screen,2_3_1_0_1_24,2022-05-02T09:47:16.505Z,,,,,,,,,,,,,,,,,40,,,,,,,,,,,,,,448.0980000029667,,response,,,,9,E,,,,,,Space,keypress(Space),,,,silence,,,,------ -- ------- ---- ---- ---- - -------- ----- --- --<br>----- ----- ------ -- ---- -- --- - ---- -- - ----- -----<br>saying ---- ------ ---- - -------- ------- -- --- --------<br>-------- ----------- ---- ------ ---- ------ ---- --- ---<br>-------- --- -----,243937.59999999404,243937.20000000298,243472.749,243479.39999999106,243489.102,243968.871,,24,saying
screen,html.Screen,2_3_1_0_1_25,2022-05-02T09:47:16.893Z,,,,,,,,,,,,,,,,,40,,,,,,,,,,,,,,356.52899999104557,,response,,,,9,E,,,,,,Space,keypress(Space),,,,silence,,,,------ -- ------- ---- ---- ---- - -------- ----- --- --<br>----- ----- ------ -- ---- -- --- - ---- -- - ----- -----<br>------ they ------ ---- - -------- ------- -- --- --------<br>-------- ----------- ---- ------ ---- ------ ---- --- ---<br>-------- --- -----,244325.89999999106,244325.39999999106,243922.659,243937.79999999702,243968.871,244338.877,,25,they
screen,html.Screen,2_3_1_0_1_26,2022-05-02T09:47:17.248Z,,,,,,,,,,,,,,,,,40,,,,,,,,,,,,,,341.5229999910516,,response,,,,9,E,,,,,,Space,keypress(Space),,,,silence,,,,------ -- ------- ---- ---- ---- - -------- ----- --- --<br>----- ----- ------ -- ---- -- --- - ---- -- - ----- -----<br>------ ---- didn't ---- - -------- ------- -- --- --------<br>-------- ----------- ---- ------ ---- ------ ---- --- ---<br>-------- --- -----,244680.89999999106,244680.39999999106,244322.347,244326,244338.877,244689.329,,26,didn't
screen,html.Screen,2_3_1_0_1_27,2022-05-02T09:47:17.670Z,,,,,,,,,,,,,,,,,40,,,,,,,,,,,,,,412.5709999910614,,response,,,,9,E,,,,,,Space,keypress(Space),,,,silence,,,,------ -- ------- ---- ---- ---- - -------- ----- --- --<br>----- ----- ------ -- ---- -- --- - ---- -- - ----- -----<br>------ ---- ------ have - -------- ------- -- --- --------<br>-------- ----------- ---- ------ ---- ------ ---- --- ---<br>-------- --- -----,245102.09999999404,245101.89999999106,244672.104,244681,244689.329,245105.943,,27,have
screen,html.Screen,2_3_1_0_1_28,2022-05-02T09:47:18.108Z,,,,,,,,,,,,,,,,,40,,,,,,,,,,,,,,434.25700000298093,,response,,,,9,E,,,,,,Space,keypress(Space),,,,silence,,,,------ -- ------- ---- ---- ---- - -------- ----- --- --<br>----- ----- ------ -- ---- -- --- - ---- -- - ----- -----<br>------ ---- ------ ---- a -------- ------- -- --- --------<br>-------- ----------- ---- ------ ---- ------ ---- --- ---<br>-------- --- -----,245540.5,245540.20000000298,245089.124,245102.20000000298,245105.943,245555.459,,28,a
screen,html.Screen,2_3_1_0_1_29,2022-05-02T09:47:18.574Z,,,,,,,,,,,,,,,,,40,,,,,,,,,,,,,,450.54099999999744,,response,,,,9,E,,,,,,Space,keypress(Space),,,,silence,,,,------ -- ------- ---- ---- ---- - -------- ----- --- --<br>----- ----- ------ -- ---- -- --- - ---- -- - ----- -----<br>------ ---- ------ ---- - business ------- -- --- --------<br>-------- ----------- ---- ------ ---- ------ ---- --- ---<br>-------- --- -----,246006.5,246006,245539.003,245540.59999999404,245555.459,246021.987,,29,business
screen,html.Screen,2_3_1_0_1_30,2022-05-02T09:47:19.028Z,,,,,,,,,,,,,,,,,40,,,,,,,,,,,,,,437.9129999910656,,response,,,,9,E,,,,,,Space,keypress(Space),,,,silence,,,,------ -- ------- ---- ---- ---- - -------- ----- --- --<br>----- ----- ------ -- ---- -- --- - ---- -- - ----- -----<br>------ ---- ------ ---- - -------- license -- --- --------<br>-------- ----------- ---- ------ ---- ------ ---- --- ---<br>-------- --- -----,246460.29999999702,246459.89999999106,246005.343,246006.59999999404,246021.987,246471.999,,30,license
screen,html.Screen,2_3_1_0_1_31,2022-05-02T09:47:19.470Z,,,,,,,,,,,,,,,,,40,,,,,,,,,,,,,,430.30099999700906,,response,,,,9,E,,,,,,Space,keypress(Space),,,,silence,,,,------ -- ------- ---- ---- ---- - -------- ----- --- --<br>----- ----- ------ -- ---- -- --- - ---- -- - ----- -----<br>------ ---- ------ ---- - -------- ------- or --- --------<br>-------- ----------- ---- ------ ---- ------ ---- --- ---<br>-------- --- -----,246902.79999999702,246902.29999999702,246455.501,246460.29999999702,246471.999,246904.949,,31,or
screen,html.Screen,2_3_1_0_1_32,2022-05-02T09:47:19.850Z,,,,,,,,,,,,,,,,,40,,,,,,,,,,,,,,377.1509999940463,,response,,,,9,E,,,,,,Space,keypress(Space),,,,silence,,,,------ -- ------- ---- ---- ---- - -------- ----- --- --<br>----- ----- ------ -- ---- -- --- - ---- -- - ----- -----<br>------ ---- ------ ---- - -------- ------- -- the --------<br>-------- ----------- ---- ------ ---- ------ ---- --- ---<br>-------- --- -----,247282.5,247282.09999999404,246888.666,246902.89999999106,246904.949,247288.287,,32,the
screen,html.Screen,2_3_1_0_1_33,2022-05-02T09:47:20.271Z,,,,,,,,,,,,,,,,,40,,,,,,,,,,,,,,414.81299999402836,,response,,,,9,E,,,,,,Space,keypress(Space),,,,silence,,,,------ -- ------- ---- ---- ---- - -------- ----- --- --<br>----- ----- ------ -- ---- -- --- - ---- -- - ----- -----<br>------ ---- ------ ---- - -------- ------- -- --- required<br>-------- ----------- ---- ------ ---- ------ ---- --- ---<br>-------- --- -----,247703.5,247703.09999999404,247271.67,247282.5,247288.287,247737.162,,33,required
screen,html.Screen,2_3_1_0_1_34,2022-05-02T09:47:20.671Z,,,,,,,,,,,,,,,,,40,,,,,,,,,,,,,,365.93799999402836,,response,,,,9,E,,,,,,Space,keypress(Space),,,,silence,,,,------ -- ------- ---- ---- ---- - -------- ----- --- --<br>----- ----- ------ -- ---- -- --- - ---- -- - ----- -----<br>------ ---- ------ ---- - -------- ------- -- --- --------<br>permits. ----------- ---- ------ ---- ------ ---- --- ---<br>-------- --- -----,248103.5,248103.09999999404,247688.558,247703.5,247737.162,248122.736,,34,permits.
screen,html.Screen,2_3_1_0_1_35,2022-05-02T09:47:22.176Z,,,,,,,,,,,,,,,,,40,,,,,,,,,,,,,,1485.0639999970153,,response,,,,9,E,,,,,,Space,keypress(Space),,,,silence,,,,------ -- ------- ---- ---- ---- - -------- ----- --- --<br>----- ----- ------ -- ---- -- --- - ---- -- - ----- -----<br>------ ---- ------ ---- - -------- ------- -- --- --------<br>-------- Morningstar ---- ------ ---- ------ ---- --- ---<br>-------- --- -----,249608.29999999702,249607.79999999702,248088.168,248103.59999999404,248122.736,249621.538,,35,Morningstar
screen,html.Screen,2_3_1_0_1_36,2022-05-02T09:47:22.628Z,,,,,,,,,,,,,,,,,40,,,,,,,,,,,,,,438.56199999403907,,response,,,,9,E,,,,,,Space,keypress(Space),,,,silence,,,,------ -- ------- ---- ---- ---- - -------- ----- --- --<br>----- ----- ------ -- ---- -- --- - ---- -- - ----- -----<br>------ ---- ------ ---- - -------- ------- -- --- --------<br>-------- ----------- says ------ ---- ------ ---- --- ---<br>-------- --- -----,250060.39999999106,250060.09999999404,249604.721,249608.29999999702,249621.538,250071.111,,36,says
screen,html.Screen,2_3_1_0_1_37,2022-05-02T09:47:23.149Z,,,,,,,,,,,,,,,,,40,,,,,,,,,,,,,,509.5890000029758,,response,,,,9,E,,,,,,Space,keypress(Space),,,,silence,,,,------ -- ------- ---- ---- ---- - -------- ----- --- --<br>----- ----- ------ -- ---- -- --- - ---- -- - ----- -----<br>------ ---- ------ ---- - -------- ------- -- --- --------<br>-------- ----------- ---- police ---- ------ ---- --- ---<br>-------- --- -----,250581.20000000298,250580.70000000298,250054.441,250060.39999999106,250071.111,250587.812,,37,police
screen,html.Screen,2_3_1_0_1_38,2022-05-02T09:47:23.598Z,,,,,,,,,,,,,,,,,40,,,,,,,,,,,,,,442.2879999940342,,response,,,,9,E,,,,,,Space,keypress(Space),,,,silence,,,,------ -- ------- ---- ---- ---- - -------- ----- --- --<br>----- ----- ------ -- ---- -- --- - ---- -- - ----- -----<br>------ ---- ------ ---- - -------- ------- -- --- --------<br>-------- ----------- ---- ------ also ------ ---- --- ---<br>-------- --- -----,251030.39999999106,251030.09999999404,250571.06,250581.39999999106,250587.812,251037.621,,38,also
screen,html.Screen,2_3_1_0_1_39,2022-05-02T09:47:24.033Z,,,,,,,,,,,,,,,,,40,,,,,,,,,,,,,,428.17899999700603,,response,,,,9,E,,,,,,Space,keypress(Space),,,,silence,,,,------ -- ------- ---- ---- ---- - -------- ----- --- --<br>----- ----- ------ -- ---- -- --- - ---- -- - ----- -----<br>------ ---- ------ ---- - -------- ------- -- --- --------<br>-------- ----------- ---- ------ ---- didn't ---- --- ---<br>-------- --- -----,251466.20000000298,251465.79999999702,251020.99,251030.39999999106,251037.621,251470.745,,39,didn't
screen,html.Screen,2_3_1_0_1_40,2022-05-02T09:47:24.434Z,,,,,,,,,,,,,,,,,40,,,,,,,,,,,,,,395.5549999970244,,response,,,,9,E,,,,,,Space,keypress(Space),,,,silence,,,,------ -- ------- ---- ---- ---- - -------- ----- --- --<br>----- ----- ------ -- ---- -- --- - ---- -- - ----- -----<br>------ ---- ------ ---- - -------- ------- -- --- --------<br>-------- ----------- ---- ------ ---- ------ know --- ---<br>-------- --- -----,251866.79999999702,251866.29999999702,251454.238,251466.20000000298,251470.745,251870.659,,40,know
screen,html.Screen,2_3_1_0_1_41,2022-05-02T09:47:25.114Z,,,,,,,,,,,,,,,,,40,,,,,,,,,,,,,,675.541000002966,,response,,,,9,E,,,,,,Space,keypress(Space),,,,silence,,,,------ -- ------- ---- ---- ---- - -------- ----- --- --<br>----- ----- ------ -- ---- -- --- - ---- -- - ----- -----<br>------ ---- ------ ---- - -------- ------- -- --- --------<br>-------- ----------- ---- ------ ---- ------ ---- how ---<br>-------- --- -----,252546.5,252546.20000000298,251854.473,251866.89999999106,251870.659,252554.374,,41,how
screen,html.Screen,2_3_1_0_1_42,2022-05-02T09:47:25.560Z,,,,,,,,,,,,,,,,,40,,,,,,,,,,,,,,437.8260000029695,,response,,,,9,E,,,,,,Space,keypress(Space),,,,silence,,,,------ -- ------- ---- ---- ---- - -------- ----- --- --<br>----- ----- ------ -- ---- -- --- - ---- -- - ----- -----<br>------ ---- ------ ---- - -------- ------- -- --- --------<br>-------- ----------- ---- ------ ---- ------ ---- --- the<br>-------- --- -----,252992.39999999106,252992.20000000298,252537.36,252546.5,252554.374,253003.97,,42,the
screen,html.Screen,2_3_1_0_1_43,2022-05-02T09:47:25.996Z,,,,,,,,,,,,,,,,,40,,,,,,,,,,,,,,424.23000000297907,,response,,,,9,E,,,,,,Space,keypress(Space),,,,silence,,,,------ -- ------- ---- ---- ---- - -------- ----- --- --<br>----- ----- ------ -- ---- -- --- - ---- -- - ----- -----<br>------ ---- ------ ---- - -------- ------- -- --- --------<br>-------- ----------- ---- ------ ---- ------ ---- --- ---<br>lemonade --- -----,253428.70000000298,253428.20000000298,252987.266,252992.5,253003.97,253437.231,,43,lemonade
screen,html.Screen,2_3_1_0_1_44,2022-05-02T09:47:26.354Z,,,,,,,,,,,,,,,,,40,,,,,,,,,,,,,,349.56899999702,,response,,,,9,E,,,,,,Space,keypress(Space),,,,silence,,,,------ -- ------- ---- ---- ---- - -------- ----- --- --<br>----- ----- ------ -- ---- -- --- - ---- -- - ----- -----<br>------ ---- ------ ---- - -------- ------- -- --- --------<br>-------- ----------- ---- ------ ---- ------ ---- --- ---<br>-------- was -----,253787,253786.79999999702,253420.513,253428.89999999106,253437.231,253803.801,,44,was
screen,html.Screen,2_3_1_0_1_45,2022-05-02T09:47:27.725Z,,,,,,,,,,,,,,,,,40,,,,,,,,,,,,,,1353.498999997013,,response,,,,9,E,,,,,,Space,keypress(Space),,,,silence,,,,------ -- ------- ---- ---- ---- - -------- ----- --- --<br>----- ----- ------ -- ---- -- --- - ---- -- - ----- -----<br>------ ---- ------ ---- - -------- ------- -- --- --------<br>-------- ----------- ---- ------ ---- ------ ---- --- ---<br>-------- --- made.,255157.70000000298,255157.29999999702,253787.128,253787.09999999404,253803.801,255170.392,,45,made.
Item 9,flow.Loop,2_3_1_0_1,2022-05-02T09:47:27.725Z,,,,,,,,,,,,,,,,,,,,,,,,,,,,,,,23748.97299999703,,completion,,,,,,,,,,,,,,,,,,,,,255157.89999999106,255157.29999999702,231391.568,231392.39999999106,231408.327,255170.392,,,
Question 1,html.Screen,2_3_1_0_2,2022-05-02T09:47:31.329Z,,,,,,,,,,,,,,,,,,,,,,,,,,,,true,FALSE,,3590.3080000029877,,response,,,,9,E,,,,,,FALSE,click #choice-2,,,,silence,,,,,258761.29999999702,258760.70000000298,255153.994,255157.89999999106,255170.392,258769.435,,,
