sender,sender_type,sender_id,timestamp,meta,,Blues,Classical,Country,Dance,Electronic,Folk,Gospel,Hip-Hop,Jazz,Latin,Musical/Film,New-age,Pop,Prolific_id,Provo_ID,R&B,Rap,Reggae,Religious,Rock,Soul,Swing,Traditional,age,artist_name,correct,correctResponse,distraction,duration,education,ended_on,familiarity,gender,headphone_check_performance,item,list,music_frequency,offensiveness,pleasantness,position_correct,preference,response,response_action,snippet_file,song_name,song_rating,sound,stimulus_1,stimulus_2,stimulus_3,text,time_commit,time_end,time_render,time_run,time_show,time_switch,url,word,word_ID
Prolific ID,html.Form,0,2022-05-02T10:40:09.486Z,"{""labjs_version"":""20.2.2"",""labjs_build"":{""flavor"":""production"",""commit"":""a25486e0c714a0ae2ce03ff94b7bb6896854dcfa""},""location"":""https://run.pavlovia.org/mvasilev/prolific3_music_f/"",""userAgent"":""Mozilla/5.0 (Windows NT 10.0; Win64; x64; rv:99.0) Gecko/20100101 Firefox/99.0"",""platform"":""Win32"",""language"":""en-GB"",""locale"":""en-GB"",""timeZone"":""Europe/London"",""timezoneOffset"":-60,""screen_width"":1536,""screen_height"":864,""scroll_width"":1536,""scroll_height"":687,""window_innerWidth"":1536,""window_innerHeight"":735,""devicePixelRatio"":1.25}",,,,,,,,,,,,,,,59bc25620ac77f0001f05574,,,,,,,,,,,,,,,12329.02,,form submission,,,,,,,,,,,,,,,,,,,,,27660,27659,15329.62,15330,15329.98,27666.28,{},,
Introduction,html.Screen,1_0,2022-05-02T10:40:18.159Z,,,,,,,,,,,,,,,,,,,,,,,,,,,,,,,8657.720000000001,,response,,,,,,,,,,,continue,click button,,,,,,,,,36332,36324,27654.04,27660,27666.28,36340.42,,,
Volume calibration,html.Screen,1_1,2022-05-02T10:40:44.755Z,,,,,,,,,,,,,,,,,,,,,,,,,,,,,,,26577.58,,response,,,,,,,,,,,continue,click button,,,,,,,,,62928,62918,36331.66,36333,36340.42,62929.12,,,
Task instructions,html.Screen,1_2,2022-05-02T10:40:51.588Z,,,,,,,,,,,,,,,,,,,,,,,,,,,,,,,6816.879999999997,,response,,,,,,,,,,,continue,click button,,,,,,,,,69762,69746,62927.98,62929,62929.12,69771.96,,,
Sounds,html.Screen,1_3_0_0,2022-05-02T10:40:55.831Z,,,,,,,,,,,,,,,,,,,,,,,,,,,,,,,4245.539999999994,,timeout,,,,,,,,,1,,,,,,,,S,I,O,,74004,74000.86,69761.62,69763,69771.96,74017.5,,,
Judgement,html.Screen,1_3_0_1,2022-05-02T10:40:57.684Z,,,,,,,,,,,,,,,,,,,,,,,,,,,,true,1,,1822.5,,response,,,,,,,,,1,,1,click #choice-1,,,,,S,I,O,,75858,75840,74000.86,74007,74017.5,75865.56,,,
Trial,flow.Sequence,1_3_0,2022-05-02T10:40:57.685Z,,,,,,,,,,,,,,,,,,,,,,,,,,,,,,,6068.039999999994,,completion,,,,,,,,,1,,,,,,,,S,I,O,,75859,75840,69761.62,69763,69771.96,75865.56,,,
Sounds,html.Screen,1_3_1_0,2022-05-02T10:41:01.923Z,,,,,,,,,,,,,,,,,,,,,,,,,,,,,,,4245.479999999996,,timeout,,,,,,,,,1,,,,,,,,S,O,I,,80096,80094.4,75856.9,75860,75865.56,80111.04,,,
Judgement,html.Screen,1_3_1_1,2022-05-02T10:41:02.572Z,,,,,,,,,,,,,,,,,,,,,,,,,,,,true,1,,619.9600000000064,,response,,,,,,,,,1,,1,click #choice-1,,,,,S,O,I,,80746,80731,80094.4,80098,80111.04,80760.62,,,
Trial,flow.Sequence,1_3_1,2022-05-02T10:41:02.573Z,,,,,,,,,,,,,,,,,,,,,,,,,,,,,,,4865.440000000002,,completion,,,,,,,,,1,,,,,,,,S,O,I,,80747,80731,75856.9,75860,75865.56,80760.62,,,
Sounds,html.Screen,1_3_2_0,2022-05-02T10:41:06.818Z,,,,,,,,,,,,,,,,,,,,,,,,,,,,,,,4245.300000000003,,timeout,,,,,,,,,2,,,,,,,,I,S,O,,84992,84989.28,80745.88,80747,80760.62,85005.92,,,
Judgement,html.Screen,1_3_2_1,2022-05-02T10:41:07.463Z,,,,,,,,,,,,,,,,,,,,,,,,,,,,true,2,,615.0800000000017,,response,,,,,,,,,2,,2,click #choice-2,,,,,I,S,O,,85637,85621,84989.28,84992,85005.92,85638.54,,,
Trial,flow.Sequence,1_3_2,2022-05-02T10:41:07.464Z,,,,,,,,,,,,,,,,,,,,,,,,,,,,,,,4860.380000000005,,completion,,,,,,,,,2,,,,,,,,I,S,O,,85637,85621,80745.88,80747,80760.62,85638.54,,,
Sounds,html.Screen,1_3_3_0,2022-05-02T10:41:11.695Z,,,,,,,,,,,,,,,,,,,,,,,,,,,,,,,4245.580000000002,,timeout,,,,,,,,,2,,,,,,,,O,S,I,,89869,89867.46,85636.18,85638,85638.54,89884.12,,,
Judgement,html.Screen,1_3_3_1,2022-05-02T10:41:12.258Z,,,,,,,,,,,,,,,,,,,,,,,,,,,,true,2,,533.8800000000047,,response,,,,,,,,,2,,2,click #choice-2,,,,,O,S,I,,90432,90418,89867.46,89869,89884.12,90433.48,,,
Trial,flow.Sequence,1_3_3,2022-05-02T10:41:12.259Z,,,,,,,,,,,,,,,,,,,,,,,,,,,,,,,4779.460000000006,,completion,,,,,,,,,2,,,,,,,,O,S,I,,90432,90418,85636.18,85638,85638.54,90433.48,,,
Sounds,html.Screen,1_3_4_0,2022-05-02T10:41:16.489Z,,,,,,,,,,,,,,,,,,,,,,,,,,,,,,,4245.580000000002,,timeout,,,,,,,,,3,,,,,,,,I,O,S,,94663,94662.42,90431.58,90432,90433.48,94679.06,,,
Judgement,html.Screen,1_3_4_1,2022-05-02T10:41:17.034Z,,,,,,,,,,,,,,,,,,,,,,,,,,,,true,3,,519.9400000000023,,response,,,,,,,,,3,,3,click #choice-3,,,,,I,O,S,,95207,95199,94662.42,94663,94679.06,95211.92,,,
Trial,flow.Sequence,1_3_4,2022-05-02T10:41:17.034Z,,,,,,,,,,,,,,,,,,,,,,,,,,,,,,,4765.520000000004,,completion,,,,,,,,,3,,,,,,,,I,O,S,,95207,95199,90431.58,90432,90433.48,95211.92,,,
Sounds,html.Screen,1_3_5_0,2022-05-02T10:41:21.268Z,,,,,,,,,,,,,,,,,,,,,,,,,,,,,,,4245.460000000006,,timeout,,,,,,,,,3,,,,,,,,O,I,S,,99442,99440.74,95206.56,95207,95211.92,99457.38,,,
Judgement,html.Screen,1_3_5_1,2022-05-02T10:41:21.810Z,,,,,,,,,,,,,,,,,,,,,,,,,,,,true,3,,507.61999999999534,,response,,,,,,,,,3,,3,click #choice-3,,,,,O,I,S,,99985,99965,99440.74,99442,99457.38,99990.12,,,
Trial,flow.Sequence,1_3_5,2022-05-02T10:41:21.811Z,,,,,,,,,,,,,,,,,,,,,,,,,,,,,,,4753.080000000002,,completion,,,,,,,,,3,,,,,,,,O,I,S,,99985,99965,95206.56,95207,95211.92,99990.12,,,
Task,flow.Loop,1_3,2022-05-02T10:41:21.811Z,,,,,,,,,,,,,,,,,,,,,,,,,,,,,,,30193.039999999994,,completion,,,1,,,,,,,,,,,,,,,,,,99985,99965,69761.62,69763,69771.96,99990.12,,,
Trap,html.Screen,1_4,2022-05-02T10:41:21.814Z,,,,,,,,,,,,,,,,,,,,,,,,,,,,,,,NaN,,skipped,,,,,,,,,,,,,,,,,,,,,99988,99965,,99988,,99990.12,,,
Thanks,html.Screen,1_5,2022-05-02T10:41:25.942Z,,,,,,,,,,,,,,,,,,,,,,,,,,,,,,,4115.880000000005,,response,,,,,,,,,,,continue,click button,,,,,,,,,104115,104106,99984.02,99988,99990.12,106549.92,,,
Headphone screening,flow.Sequence,1,2022-05-02T10:41:25.942Z,,,,,,,,,,,,,,,,,,,,,,,,,,,,,,,76439.72,,completion,,,,,,,,,,,,,,,,,,,,,104116,104106,27654.04,27660,27666.28,106549.92,,,
Instructions,html.Page,2_0,2022-05-02T10:41:54.371Z,,,,,,,,,,,,,,,,,,,,,,,,,,,,,,,25994.08,,form submission,,,,,,,,,,,,,,,,,,,,,132545,132544,106539.64,106529,106549.92,132555.84,,,
Holding screen,html.Screen,2_1_0_0,2022-05-02T10:42:04.373Z,,,,,,,,,,,,,,,,,,,,,,,,,,,,,,,10006.140000000014,,timeout,,,,,,,,,,,,,,,,,,,,,142546,142545.38,132541.58,132546,132555.84,142561.98,,,
screen,html.Screen,2_1_0_1_0,2022-05-02T10:42:05.364Z,,,,,,,,,,,,,,,,,53,,,,,,,,,,,,,,966.0199999999895,,response,,,,99,,,,,,,Space,keypress(Space),,,,,,,,When -- ----- -- ------ - ------- --- ----------<br>------------- ------ ------ ---- ---- ------- ----- -- ----<br>-------- ------- -- ---------- --- - --- ----- ----- ----<br>---- --- --- ----- --- ---- ---- ------- ----- ---- -------<br>--- --- -- ----- -- --- ---- -- --- ---- -- ------ ------<br>--- ----- -- ----,143538,143528,142545.38,142547,142561.98,143538.44,,0,When
screen,html.Screen,2_1_0_1_1,2022-05-02T10:42:06.030Z,,,,,,,,,,,,,,,,,53,,,,,,,,,,,,,,660.5599999999977,,response,,,,99,,,,,,,Space,keypress(Space),,,,,,,,---- it ----- -- ------ - ------- --- ----------<br>------------- ------ ------ ---- ---- ------- ----- -- ----<br>-------- ------- -- ---------- --- - --- ----- ----- ----<br>---- --- --- ----- --- ---- ---- ------- ----- ---- -------<br>--- --- -- ----- -- --- ---- -- --- ---- -- ------ ------<br>--- ----- -- ----,144204,144199,143538.22,143538,143538.44,144204.8,,1,it
screen,html.Screen,2_1_0_1_2,2022-05-02T10:42:06.539Z,,,,,,,,,,,,,,,,,53,,,,,,,,,,,,,,494.20000000001164,,response,,,,99,,,,,,,Space,keypress(Space),,,,,,,,---- -- comes -- ------ - ------- --- ----------<br>------------- ------ ------ ---- ---- ------- ----- -- ----<br>-------- ------- -- ---------- --- - --- ----- ----- ----<br>---- --- --- ----- --- ---- ---- ------- ----- ---- -------<br>--- --- -- ----- -- --- ---- -- --- ---- -- ------ ------<br>--- ----- -- ----,144713,144699,144204.28,144205,144204.8,144713.84,,2,comes
screen,html.Screen,2_1_0_1_3,2022-05-02T10:42:06.984Z,,,,,,,,,,,,,,,,,53,,,,,,,,,,,,,,439.1600000000035,,response,,,,99,,,,,,,Space,keypress(Space),,,,,,,,---- -- ----- to ------ - ------- --- ----------<br>------------- ------ ------ ---- ---- ------- ----- -- ----<br>-------- ------- -- ---------- --- - --- ----- ----- ----<br>---- --- --- ----- --- ---- ---- ------- ----- ---- -------<br>--- --- -- ----- -- --- ---- -- --- ---- -- ------ ------<br>--- ----- -- ----,145159,145153,144713.3,144713,144713.84,145159.68,,3,to
screen,html.Screen,2_1_0_1_4,2022-05-02T10:42:07.569Z,,,,,,,,,,,,,,,,,53,,,,,,,,,,,,,,571.320000000007,,response,,,,99,,,,,,,Space,keypress(Space),,,,,,,,---- -- ----- -- having - ------- --- ----------<br>------------- ------ ------ ---- ---- ------- ----- -- ----<br>-------- ------- -- ---------- --- - --- ----- ----- ----<br>---- --- --- ----- --- ---- ---- ------- ----- ---- -------<br>--- --- -- ----- -- --- ---- -- --- ---- -- ------ ------<br>--- ----- -- ----,145742,145731,145159.2,145159,145159.68,145743.72,,4,having
screen,html.Screen,2_1_0_1_5,2022-05-02T10:42:08.044Z,,,,,,,,,,,,,,,,,53,,,,,,,,,,,,,,455.27999999999884,,response,,,,99,,,,,,,Space,keypress(Space),,,,,,,,---- -- ----- -- ------ a ------- --- ----------<br>------------- ------ ------ ---- ---- ------- ----- -- ----<br>-------- ------- -- ---------- --- - --- ----- ----- ----<br>---- --- --- ----- --- ---- ---- ------- ----- ---- -------<br>--- --- -- ----- -- --- ---- -- --- ---- -- ------ ------<br>--- ----- -- ----,146217,146199,145743.3,145743,145743.72,146218.58,,5,a
screen,html.Screen,2_1_0_1_6,2022-05-02T10:42:08.577Z,,,,,,,,,,,,,,,,,53,,,,,,,,,,,,,,527.4200000000128,,response,,,,99,,,,,,,Space,keypress(Space),,,,,,,,---- -- ----- -- ------ - lasting --- ----------<br>------------- ------ ------ ---- ---- ------- ----- -- ----<br>-------- ------- -- ---------- --- - --- ----- ----- ----<br>---- --- --- ----- --- ---- ---- ------- ----- ---- -------<br>--- --- -- ----- -- --- ---- -- --- ---- -- ------ ------<br>--- ----- -- ----,146750,146746,146218.08,146218,146218.58,146751.64,,6,lasting
screen,html.Screen,2_1_0_1_7,2022-05-02T10:42:09.065Z,,,,,,,,,,,,,,,,,53,,,,,,,,,,,,,,479.35999999998603,,response,,,,99,,,,,,,Space,keypress(Space),,,,,,,,---- -- ----- -- ------ - ------- and ----------<br>------------- ------ ------ ---- ---- ------- ----- -- ----<br>-------- ------- -- ---------- --- - --- ----- ----- ----<br>---- --- --- ----- --- ---- ---- ------- ----- ---- -------<br>--- --- -- ----- -- --- ---- -- --- ---- -- ------ ------<br>--- ----- -- ----,147239,147231,146751.02,146751,146751.64,147239.84,,7,and
screen,html.Screen,2_1_0_1_8,2022-05-02T10:42:09.596Z,,,,,,,,,,,,,,,,,53,,,,,,,,,,,,,,522.1600000000035,,response,,,,99,,,,,,,Space,keypress(Space),,,,,,,,---- -- ----- -- ------ - ------- --- fulfilling<br>------------- ------ ------ ---- ---- ------- ----- -- ----<br>-------- ------- -- ---------- --- - --- ----- ----- ----<br>---- --- --- ----- --- ---- ---- ------- ----- ---- -------<br>--- --- -- ----- -- --- ---- -- --- ---- -- ------ ------<br>--- ----- -- ----,147770,147762,147239.34,147239,147239.84,147770.82,,8,fulfilling
screen,html.Screen,2_1_0_1_9,2022-05-02T10:42:10.096Z,,,,,,,,,,,,,,,,,53,,,,,,,,,,,,,,491.179999999993,,response,,,,99,,,,,,,Space,keypress(Space),,,,,,,,"---- -- ----- -- ------ - ------- --- ----------<br>relationship, ------ ------ ---- ---- ------- ----- -- ----<br>-------- ------- -- ---------- --- - --- ----- ----- ----<br>---- --- --- ----- --- ---- ---- ------- ----- ---- -------<br>--- --- -- ----- -- --- ---- -- --- ---- -- ------ ------<br>--- ----- -- ----",148269,148262,147770.34,147770,147770.82,148269.82,,9,"relationship,"
screen,html.Screen,2_1_0_1_10,2022-05-02T10:42:10.606Z,,,,,,,,,,,,,,,,,53,,,,,,,,,,,,,,492.179999999993,,response,,,,99,,,,,,,Space,keypress(Space),,,,,,,,---- -- ----- -- ------ - ------- --- ----------<br>------------- common ------ ---- ---- ------- ----- -- ----<br>-------- ------- -- ---------- --- - --- ----- ----- ----<br>---- --- --- ----- --- ---- ---- ------- ----- ---- -------<br>--- --- -- ----- -- --- ---- -- --- ---- -- ------ ------<br>--- ----- -- ----,148780,148762,148269.4,148269,148269.82,148780.68,,10,common
screen,html.Screen,2_1_0_1_11,2022-05-02T10:42:11.132Z,,,,,,,,,,,,,,,,,53,,,,,,,,,,,,,,512.320000000007,,response,,,,99,,,,,,,Space,keypress(Space),,,,,,,,---- -- ----- -- ------ - ------- --- ----------<br>------------- ------ wisdom ---- ---- ------- ----- -- ----<br>-------- ------- -- ---------- --- - --- ----- ----- ----<br>---- --- --- ----- --- ---- ---- ------- ----- ---- -------<br>--- --- -- ----- -- --- ---- -- --- ---- -- ------ ------<br>--- ----- -- ----,149307,149293,148780.34,148780,148780.68,149307.48,,11,wisdom
screen,html.Screen,2_1_0_1_12,2022-05-02T10:42:11.623Z,,,,,,,,,,,,,,,,,53,,,,,,,,,,,,,,485.5199999999895,,response,,,,99,,,,,,,Space,keypress(Space),,,,,,,,---- -- ----- -- ------ - ------- --- ----------<br>------------- ------ ------ says ---- ------- ----- -- ----<br>-------- ------- -- ---------- --- - --- ----- ----- ----<br>---- --- --- ----- --- ---- ---- ------- ----- ---- -------<br>--- --- -- ----- -- --- ---- -- --- ---- -- ------ ------<br>--- ----- -- ----,149798,149793,149306.76,149307,149307.48,149798.3,,12,says
screen,html.Screen,2_1_0_1_13,2022-05-02T10:42:12.097Z,,,,,,,,,,,,,,,,,53,,,,,,,,,,,,,,463.70000000001164,,response,,,,99,,,,,,,Space,keypress(Space),,,,,,,,---- -- ----- -- ------ - ------- --- ----------<br>------------- ------ ------ ---- that ------- ----- -- ----<br>-------- ------- -- ---------- --- - --- ----- ----- ----<br>---- --- --- ----- --- ---- ---- ------- ----- ---- -------<br>--- --- -- ----- -- --- ---- -- --- ---- -- ------ ------<br>--- ----- -- ----,150270,150262,149797.8,149798,149798.3,150271.5,,13,that
screen,html.Screen,2_1_0_1_14,2022-05-02T10:42:12.605Z,,,,,,,,,,,,,,,,,53,,,,,,,,,,,,,,490.5,,response,,,,99,,,,,,,Space,keypress(Space),,,,,,,,---- -- ----- -- ------ - ------- --- ----------<br>------------- ------ ------ ---- ---- feeling ----- -- ----<br>-------- ------- -- ---------- --- - --- ----- ----- ----<br>---- --- --- ----- --- ---- ---- ------- ----- ---- -------<br>--- --- -- ----- -- --- ---- -- --- ---- -- ------ ------<br>--- ----- -- ----,150779,150762,150271,150270,150271.5,150779.22,,14,feeling
screen,html.Screen,2_1_0_1_15,2022-05-02T10:42:13.095Z,,,,,,,,,,,,,,,,,53,,,,,,,,,,,,,,482.77999999999884,,response,,,,99,,,,,,,Space,keypress(Space),,,,,,,,---- -- ----- -- ------ - ------- --- ----------<br>------------- ------ ------ ---- ---- ------- close -- ----<br>-------- ------- -- ---------- --- - --- ----- ----- ----<br>---- --- --- ----- --- ---- ---- ------- ----- ---- -------<br>--- --- -- ----- -- --- ---- -- --- ---- -- ------ ------<br>--- ----- -- ----,151269,151262,150778.76,150779,150779.22,151270.02,,15,close
screen,html.Screen,2_1_0_1_16,2022-05-02T10:42:13.554Z,,,,,,,,,,,,,,,,,53,,,,,,,,,,,,,,444.9800000000105,,response,,,,99,,,,,,,Space,keypress(Space),,,,,,,,---- -- ----- -- ------ - ------- --- ----------<br>------------- ------ ------ ---- ---- ------- ----- to ----<br>-------- ------- -- ---------- --- - --- ----- ----- ----<br>---- --- --- ----- --- ---- ---- ------- ----- ---- -------<br>--- --- -- ----- -- --- ---- -- --- ---- -- ------ ------<br>--- ----- -- ----,151728,151715,151269.52,151270,151270.02,151728.86,,16,to
screen,html.Screen,2_1_0_1_17,2022-05-02T10:42:14.075Z,,,,,,,,,,,,,,,,,53,,,,,,,,,,,,,,502.14000000001397,,response,,,,99,,,,,,,Space,keypress(Space),,,,,,,,---- -- ----- -- ------ - ------- --- ----------<br>------------- ------ ------ ---- ---- ------- ----- -- your<br>-------- ------- -- ---------- --- - --- ----- ----- ----<br>---- --- --- ----- --- ---- ---- ------- ----- ---- -------<br>--- --- -- ----- -- --- ---- -- --- ---- -- ------ ------<br>--- ----- -- ----,152249,152231,151728.38,151728,151728.86,152251.78,,17,your
screen,html.Screen,2_1_0_1_18,2022-05-02T10:42:14.585Z,,,,,,,,,,,,,,,,,53,,,,,,,,,,,,,,494.22000000000116,,response,,,,99,,,,,,,Space,keypress(Space),,,,,,,,---- -- ----- -- ------ - ------- --- ----------<br>------------- ------ ------ ---- ---- ------- ----- -- ----<br>romantic ------- -- ---------- --- - --- ----- ----- ----<br>---- --- --- ----- --- ---- ---- ------- ----- ---- -------<br>--- --- -- ----- -- --- ---- -- --- ---- -- ------ ------<br>--- ----- -- ----,152759,152746,152249.62,152250,152251.78,152760.2,,18,romantic
screen,html.Screen,2_1_0_1_19,2022-05-02T10:42:15.051Z,,,,,,,,,,,,,,,,,53,,,,,,,,,,,,,,454.79999999998836,,response,,,,99,,,,,,,Space,keypress(Space),,,,,,,,---- -- ----- -- ------ - ------- --- ----------<br>------------- ------ ------ ---- ---- ------- ----- -- ----<br>-------- partner -- ---------- --- - --- ----- ----- ----<br>---- --- --- ----- --- ---- ---- ------- ----- ---- -------<br>--- --- -- ----- -- --- ---- -- --- ---- -- ------ ------<br>--- ----- -- ----,153225,153215,152759.44,152760,152760.2,153225.92,,19,partner
screen,html.Screen,2_1_0_1_20,2022-05-02T10:42:15.836Z,,,,,,,,,,,,,,,,,53,,,,,,,,,,,,,,770.0799999999872,,response,,,,99,,,,,,,Space,keypress(Space),,,,,,,,---- -- ----- -- ------ - ------- --- ----------<br>------------- ------ ------ ---- ---- ------- ----- -- ----<br>-------- ------- is ---------- --- - --- ----- ----- ----<br>---- --- --- ----- --- ---- ---- ------- ----- ---- -------<br>--- --- -- ----- -- --- ---- -- --- ---- -- ------ ------<br>--- ----- -- ----,154010,153996,153225.36,153226,153225.92,154010.74,,20,is
screen,html.Screen,2_1_0_1_21,2022-05-02T10:42:16.706Z,,,,,,,,,,,,,,,,,53,,,,,,,,,,,,,,860.2600000000093,,response,,,,99,,,,,,,Space,keypress(Space),,,,,,,,---- -- ----- -- ------ - ------- --- ----------<br>------------- ------ ------ ---- ---- ------- ----- -- ----<br>-------- ------- -- paramount. --- - --- ----- ----- ----<br>---- --- --- ----- --- ---- ---- ------- ----- ---- -------<br>--- --- -- ----- -- --- ---- -- --- ---- -- ------ ------<br>--- ----- -- ----,154879,154871,154010.24,154010,154010.74,154880.64,,21,paramount.
screen,html.Screen,2_1_0_1_22,2022-05-02T10:42:17.235Z,,,,,,,,,,,,,,,,,53,,,,,,,,,,,,,,522.359999999986,,response,,,,99,,,,,,,Space,keypress(Space),,,,,,,,---- -- ----- -- ------ - ------- --- ----------<br>------------- ------ ------ ---- ---- ------- ----- -- ----<br>-------- ------- -- ---------- But - --- ----- ----- ----<br>---- --- --- ----- --- ---- ---- ------- ----- ---- -------<br>--- --- -- ----- -- --- ---- -- --- ---- -- ------ ------<br>--- ----- -- ----,155409,155403,154880,154879,154880.64,155410.3,,22,But
screen,html.Screen,2_1_0_1_23,2022-05-02T10:42:17.820Z,,,,,,,,,,,,,,,,,53,,,,,,,,,,,,,,570.7000000000116,,response,,,,99,,,,,,,Space,keypress(Space),,,,,,,,---- -- ----- -- ------ - ------- --- ----------<br>------------- ------ ------ ---- ---- ------- ----- -- ----<br>-------- ------- -- ---------- --- a --- ----- ----- ----<br>---- --- --- ----- --- ---- ---- ------- ----- ---- -------<br>--- --- -- ----- -- --- ---- -- --- ---- -- ------ ------<br>--- ----- -- ----,155994,155981,155409.76,155410,155410.3,155994.16,,23,a
screen,html.Screen,2_1_0_1_24,2022-05-02T10:42:18.302Z,,,,,,,,,,,,,,,,,53,,,,,,,,,,,,,,470.8399999999965,,response,,,,99,,,,,,,Space,keypress(Space),,,,,,,,---- -- ----- -- ------ - ------- --- ----------<br>------------- ------ ------ ---- ---- ------- ----- -- ----<br>-------- ------- -- ---------- --- - new ----- ----- ----<br>---- --- --- ----- --- ---- ---- ------- ----- ---- -------<br>--- --- -- ----- -- --- ---- -- --- ---- -- ------ ------<br>--- ----- -- ----,156476,156465,155993.68,155994,155994.16,156476.8,,24,new
screen,html.Screen,2_1_0_1_25,2022-05-02T10:42:18.793Z,,,,,,,,,,,,,,,,,53,,,,,,,,,,,,,,472.20000000001164,,response,,,,99,,,,,,,Space,keypress(Space),,,,,,,,---- -- ----- -- ------ - ------- --- ----------<br>------------- ------ ------ ---- ---- ------- ----- -- ----<br>-------- ------- -- ---------- --- - --- study ----- ----<br>---- --- --- ----- --- ---- ---- ------- ----- ---- -------<br>--- --- -- ----- -- --- ---- -- --- ---- -- ------ ------<br>--- ----- -- ----,156968,156949,156476.38,156477,156476.8,156968.26,,25,study
screen,html.Screen,2_1_0_1_26,2022-05-02T10:42:19.266Z,,,,,,,,,,,,,,,,,53,,,,,,,,,,,,,,465.7399999999907,,response,,,,99,,,,,,,Space,keypress(Space),,,,,,,,---- -- ----- -- ------ - ------- --- ----------<br>------------- ------ ------ ---- ---- ------- ----- -- ----<br>-------- ------- -- ---------- --- - --- ----- finds ----<br>---- --- --- ----- --- ---- ---- ------- ----- ---- -------<br>--- --- -- ----- -- --- ---- -- --- ---- -- ------ ------<br>--- ----- -- ----,157440,157434,156967.74,156968,156968.26,157441.52,,26,finds
screen,html.Screen,2_1_0_1_27,2022-05-02T10:42:19.808Z,,,,,,,,,,,,,,,,,53,,,,,,,,,,,,,,523.4800000000105,,response,,,,99,,,,,,,Space,keypress(Space),,,,,,,,---- -- ----- -- ------ - ------- --- ----------<br>------------- ------ ------ ---- ---- ------- ----- -- ----<br>-------- ------- -- ---------- --- - --- ----- ----- that<br>---- --- --- ----- --- ---- ---- ------- ----- ---- -------<br>--- --- -- ----- -- --- ---- -- --- ---- -- ------ ------<br>--- ----- -- ----,157982,157965,157441.02,157441,157441.52,157982.44,,27,that
screen,html.Screen,2_1_0_1_28,2022-05-02T10:42:20.382Z,,,,,,,,,,,,,,,,,53,,,,,,,,,,,,,,560.5599999999977,,response,,,,99,,,,,,,Space,keypress(Space),,,,,,,,---- -- ----- -- ------ - ------- --- ----------<br>------------- ------ ------ ---- ---- ------- ----- -- ----<br>-------- ------- -- ---------- --- - --- ----- ----- ----<br>it's --- --- ----- --- ---- ---- ------- ----- ---- -------<br>--- --- -- ----- -- --- ---- -- --- ---- -- ------ ------<br>--- ----- -- ----,158556,158543,157981.94,157982,157982.44,158556.74,,28,it's
screen,html.Screen,2_1_0_1_29,2022-05-02T10:42:20.846Z,,,,,,,,,,,,,,,,,53,,,,,,,,,,,,,,456.2600000000093,,response,,,,99,,,,,,,Space,keypress(Space),,,,,,,,---- -- ----- -- ------ - ------- --- ----------<br>------------- ------ ------ ---- ---- ------- ----- -- ----<br>-------- ------- -- ---------- --- - --- ----- ----- ----<br>---- not --- ----- --- ---- ---- ------- ----- ---- -------<br>--- --- -- ----- -- --- ---- -- --- ---- -- ------ ------<br>--- ----- -- ----,159020,159013,158556.26,158556,158556.74,159021.04,,29,not
screen,html.Screen,2_1_0_1_30,2022-05-02T10:42:21.324Z,,,,,,,,,,,,,,,,,53,,,,,,,,,,,,,,459.95999999999185,,response,,,,99,,,,,,,Space,keypress(Space),,,,,,,,---- -- ----- -- ------ - ------- --- ----------<br>------------- ------ ------ ---- ---- ------- ----- -- ----<br>-------- ------- -- ---------- --- - --- ----- ----- ----<br>---- --- how ----- --- ---- ---- ------- ----- ---- -------<br>--- --- -- ----- -- --- ---- -- --- ---- -- ------ ------<br>--- ----- -- ----,159497,159481,159020.58,159020,159021.04,159498.66,,30,how
screen,html.Screen,2_1_0_1_31,2022-05-02T10:42:21.836Z,,,,,,,,,,,,,,,,,53,,,,,,,,,,,,,,497.3399999999965,,response,,,,99,,,,,,,Space,keypress(Space),,,,,,,,---- -- ----- -- ------ - ------- --- ----------<br>------------- ------ ------ ---- ---- ------- ----- -- ----<br>-------- ------- -- ---------- --- - --- ----- ----- ----<br>---- --- --- close --- ---- ---- ------- ----- ---- -------<br>--- --- -- ----- -- --- ---- -- --- ---- -- ------ ------<br>--- ----- -- ----,160009,159996,159498.16,159498,159498.66,160009.96,,31,close
screen,html.Screen,2_1_0_1_32,2022-05-02T10:42:22.319Z,,,,,,,,,,,,,,,,,53,,,,,,,,,,,,,,471.04000000000815,,response,,,,99,,,,,,,Space,keypress(Space),,,,,,,,---- -- ----- -- ------ - ------- --- ----------<br>------------- ------ ------ ---- ---- ------- ----- -- ----<br>-------- ------- -- ---------- --- - --- ----- ----- ----<br>---- --- --- ----- you ---- ---- ------- ----- ---- -------<br>--- --- -- ----- -- --- ---- -- --- ---- -- ------ ------<br>--- ----- -- ----,160493,160481,160009.46,160009,160009.96,160493.9,,32,you
screen,html.Screen,2_1_0_1_33,2022-05-02T10:42:22.949Z,,,,,,,,,,,,,,,,,53,,,,,,,,,,,,,,612.1000000000058,,response,,,,99,,,,,,,Space,keypress(Space),,,,,,,,---- -- ----- -- ------ - ------- --- ----------<br>------------- ------ ------ ---- ---- ------- ----- -- ----<br>-------- ------- -- ---------- --- - --- ----- ----- ----<br>---- --- --- ----- --- feel ---- ------- ----- ---- -------<br>--- --- -- ----- -- --- ---- -- --- ---- -- ------ ------<br>--- ----- -- ----,161123,161106,160493.4,160493,160493.9,161124.98,,33,feel
screen,html.Screen,2_1_0_1_34,2022-05-02T10:42:23.536Z,,,,,,,,,,,,,,,,,53,,,,,,,,,,,,,,574.0199999999895,,response,,,,99,,,,,,,Space,keypress(Space),,,,,,,,---- -- ----- -- ------ - ------- --- ----------<br>------------- ------ ------ ---- ---- ------- ----- -- ----<br>-------- ------- -- ---------- --- - --- ----- ----- ----<br>---- --- --- ----- --- ---- that ------- ----- ---- -------<br>--- --- -- ----- -- --- ---- -- --- ---- -- ------ ------<br>--- ----- -- ----,161710,161699,161124.08,161124,161124.98,161710.92,,34,that
screen,html.Screen,2_1_0_1_35,2022-05-02T10:42:24.064Z,,,,,,,,,,,,,,,,,53,,,,,,,,,,,,,,521.0799999999872,,response,,,,99,,,,,,,Space,keypress(Space),,,,,,,,---- -- ----- -- ------ - ------- --- ----------<br>------------- ------ ------ ---- ---- ------- ----- -- ----<br>-------- ------- -- ---------- --- - --- ----- ----- ----<br>---- --- --- ----- --- ---- ---- matters ----- ---- -------<br>--- --- -- ----- -- --- ---- -- --- ---- -- ------ ------<br>--- ----- -- ----,162238,162232,161710.42,161710,161710.92,162238.8,,35,matters
screen,html.Screen,2_1_0_1_36,2022-05-02T10:42:24.719Z,,,,,,,,,,,,,,,,,53,,,,,,,,,,,,,,648.2000000000116,,response,,,,99,,,,,,,Space,keypress(Space),,,,,,,,"---- -- ----- -- ------ - ------- --- ----------<br>------------- ------ ------ ---- ---- ------- ----- -- ----<br>-------- ------- -- ---------- --- - --- ----- ----- ----<br>---- --- --- ----- --- ---- ---- ------- most, ---- -------<br>--- --- -- ----- -- --- ---- -- --- ---- -- ------ ------<br>--- ----- -- ----",162893,162887,162238.34,162238,162238.8,162893.8,,36,"most,"
screen,html.Screen,2_1_0_1_37,2022-05-02T10:42:25.264Z,,,,,,,,,,,,,,,,,53,,,,,,,,,,,,,,540.2000000000116,,response,,,,99,,,,,,,Space,keypress(Space),,,,,,,,---- -- ----- -- ------ - ------- --- ----------<br>------------- ------ ------ ---- ---- ------- ----- -- ----<br>-------- ------- -- ---------- --- - --- ----- ----- ----<br>---- --- --- ----- --- ---- ---- ------- ----- it's -------<br>--- --- -- ----- -- --- ---- -- --- ---- -- ------ ------<br>--- ----- -- ----,163438,163434,162893.4,162893,162893.8,163440.02,,37,it's
screen,html.Screen,2_1_0_1_38,2022-05-02T10:42:25.774Z,,,,,,,,,,,,,,,,,53,,,,,,,,,,,,,,493.9800000000105,,response,,,,99,,,,,,,Space,keypress(Space),,,,,,,,---- -- ----- -- ------ - ------- --- ----------<br>------------- ------ ------ ---- ---- ------- ----- -- ----<br>-------- ------- -- ---------- --- - --- ----- ----- ----<br>---- --- --- ----- --- ---- ---- ------- ----- ---- whether<br>--- --- -- ----- -- --- ---- -- --- ---- -- ------ ------<br>--- ----- -- ----,163948,163934,163438.28,163438,163440.02,163956.5,,38,whether
screen,html.Screen,2_1_0_1_39,2022-05-02T10:42:26.315Z,,,,,,,,,,,,,,,,,53,,,,,,,,,,,,,,525.5,,response,,,,99,,,,,,,Space,keypress(Space),,,,,,,,---- -- ----- -- ------ - ------- --- ----------<br>------------- ------ ------ ---- ---- ------- ----- -- ----<br>-------- ------- -- ---------- --- - --- ----- ----- ----<br>---- --- --- ----- --- ---- ---- ------- ----- ---- -------<br>you --- -- ----- -- --- ---- -- --- ---- -- ------ ------<br>--- ----- -- ----,164489,164482,163949.4,163948,163956.5,164489.34,,39,you
screen,html.Screen,2_1_0_1_40,2022-05-02T10:42:26.817Z,,,,,,,,,,,,,,,,,53,,,,,,,,,,,,,,491.6600000000035,,response,,,,99,,,,,,,Space,keypress(Space),,,,,,,,---- -- ----- -- ------ - ------- --- ----------<br>------------- ------ ------ ---- ---- ------- ----- -- ----<br>-------- ------- -- ---------- --- - --- ----- ----- ----<br>---- --- --- ----- --- ---- ---- ------- ----- ---- -------<br>--- are -- ----- -- --- ---- -- --- ---- -- ------ ------<br>--- ----- -- ----,164991,164981,164488.84,164489,164489.34,164991.54,,40,are
screen,html.Screen,2_1_0_1_41,2022-05-02T10:42:27.547Z,,,,,,,,,,,,,,,,,53,,,,,,,,,,,,,,723.4599999999919,,response,,,,99,,,,,,,Space,keypress(Space),,,,,,,,---- -- ----- -- ------ - ------- --- ----------<br>------------- ------ ------ ---- ---- ------- ----- -- ----<br>-------- ------- -- ---------- --- - --- ----- ----- ----<br>---- --- --- ----- --- ---- ---- ------- ----- ---- -------<br>--- --- as ----- -- --- ---- -- --- ---- -- ------ ------<br>--- ----- -- ----,165721,165715,164991.16,164991,164991.54,165722.14,,41,as
screen,html.Screen,2_1_0_1_42,2022-05-02T10:42:28.274Z,,,,,,,,,,,,,,,,,53,,,,,,,,,,,,,,711.859999999986,,response,,,,99,,,,,,,Space,keypress(Space),,,,,,,,---- -- ----- -- ------ - ------- --- ----------<br>------------- ------ ------ ---- ---- ------- ----- -- ----<br>-------- ------- -- ---------- --- - --- ----- ----- ----<br>---- --- --- ----- --- ---- ---- ------- ----- ---- -------<br>--- --- -- close -- --- ---- -- --- ---- -- ------ ------<br>--- ----- -- ----,166447,166434,165721.5,165721,165722.14,166448.14,,42,close
screen,html.Screen,2_1_0_1_43,2022-05-02T10:42:28.988Z,,,,,,,,,,,,,,,,,53,,,,,,,,,,,,,,704.859999999986,,response,,,,99,,,,,,,Space,keypress(Space),,,,,,,,---- -- ----- -- ------ - ------- --- ----------<br>------------- ------ ------ ---- ---- ------- ----- -- ----<br>-------- ------- -- ---------- --- - --- ----- ----- ----<br>---- --- --- ----- --- ---- ---- ------- ----- ---- -------<br>--- --- -- ----- as --- ---- -- --- ---- -- ------ ------<br>--- ----- -- ----,167161,167153,166447.62,166448,166448.14,167161.8,,43,as
screen,html.Screen,2_1_0_1_44,2022-05-02T10:42:29.589Z,,,,,,,,,,,,,,,,,53,,,,,,,,,,,,,,584.2000000000116,,response,,,,99,,,,,,,Space,keypress(Space),,,,,,,,---- -- ----- -- ------ - ------- --- ----------<br>------------- ------ ------ ---- ---- ------- ----- -- ----<br>-------- ------- -- ---------- --- - --- ----- ----- ----<br>---- --- --- ----- --- ---- ---- ------- ----- ---- -------<br>--- --- -- ----- -- you ---- -- --- ---- -- ------ ------<br>--- ----- -- ----,167763,167746,167161.42,167161,167161.8,167764.44,,44,you
screen,html.Screen,2_1_0_1_45,2022-05-02T10:42:30.154Z,,,,,,,,,,,,,,,,,53,,,,,,,,,,,,,,559.5599999999977,,response,,,,99,,,,,,,Space,keypress(Space),,,,,,,,---- -- ----- -- ------ - ------- --- ----------<br>------------- ------ ------ ---- ---- ------- ----- -- ----<br>-------- ------- -- ---------- --- - --- ----- ----- ----<br>---- --- --- ----- --- ---- ---- ------- ----- ---- -------<br>--- --- -- ----- -- --- want -- --- ---- -- ------ ------<br>--- ----- -- ----,168328,168324,167763.9,167764,167764.44,168329.2,,45,want
screen,html.Screen,2_1_0_1_46,2022-05-02T10:42:30.662Z,,,,,,,,,,,,,,,,,53,,,,,,,,,,,,,,494.79999999998836,,response,,,,99,,,,,,,Space,keypress(Space),,,,,,,,---- -- ----- -- ------ - ------- --- ----------<br>------------- ------ ------ ---- ---- ------- ----- -- ----<br>-------- ------- -- ---------- --- - --- ----- ----- ----<br>---- --- --- ----- --- ---- ---- ------- ----- ---- -------<br>--- --- -- ----- -- --- ---- to --- ---- -- ------ ------<br>--- ----- -- ----,168836,168824,168328.2,168328,168329.2,168836.98,,46,to
screen,html.Screen,2_1_0_1_47,2022-05-02T10:42:31.142Z,,,,,,,,,,,,,,,,,53,,,,,,,,,,,,,,472.0199999999895,,response,,,,99,,,,,,,Space,keypress(Space),,,,,,,,"---- -- ----- -- ------ - ------- --- ----------<br>------------- ------ ------ ---- ---- ------- ----- -- ----<br>-------- ------- -- ---------- --- - --- ----- ----- ----<br>---- --- --- ----- --- ---- ---- ------- ----- ---- -------<br>--- --- -- ----- -- --- ---- -- be, ---- -- ------ ------<br>--- ----- -- ----",169316,169309,168836.5,168836,168836.98,169317.38,,47,"be,"
screen,html.Screen,2_1_0_1_48,2022-05-02T10:42:31.656Z,,,,,,,,,,,,,,,,,53,,,,,,,,,,,,,,506.61999999999534,,response,,,,99,,,,,,,Space,keypress(Space),,,,,,,,---- -- ----- -- ------ - ------- --- ----------<br>------------- ------ ------ ---- ---- ------- ----- -- ----<br>-------- ------- -- ---------- --- - --- ----- ----- ----<br>---- --- --- ----- --- ---- ---- ------- ----- ---- -------<br>--- --- -- ----- -- --- ---- -- --- even -- ------ ------<br>--- ----- -- ----,169831,169824,169316.92,169316,169317.38,169831.44,,48,even
screen,html.Screen,2_1_0_1_49,2022-05-02T10:42:32.151Z,,,,,,,,,,,,,,,,,53,,,,,,,,,,,,,,477.5599999999977,,response,,,,99,,,,,,,Space,keypress(Space),,,,,,,,---- -- ----- -- ------ - ------- --- ----------<br>------------- ------ ------ ---- ---- ------- ----- -- ----<br>-------- ------- -- ---------- --- - --- ----- ----- ----<br>---- --- --- ----- --- ---- ---- ------- ----- ---- -------<br>--- --- -- ----- -- --- ---- -- --- ---- if ------ ------<br>--- ----- -- ----,170325,170309,169830.92,169831,169831.44,170326.38,,49,if
screen,html.Screen,2_1_0_1_50,2022-05-02T10:42:32.664Z,,,,,,,,,,,,,,,,,53,,,,,,,,,,,,,,497.61999999999534,,response,,,,99,,,,,,,Space,keypress(Space),,,,,,,,---- -- ----- -- ------ - ------- --- ----------<br>------------- ------ ------ ---- ---- ------- ----- -- ----<br>-------- ------- -- ---------- --- - --- ----- ----- ----<br>---- --- --- ----- --- ---- ---- ------- ----- ---- -------<br>--- --- -- ----- -- --- ---- -- --- ---- -- that's ------<br>--- ----- -- ----,170838,170824,170325.84,170325,170326.38,170838.4,,50,that's
screen,html.Screen,2_1_0_1_51,2022-05-02T10:42:33.177Z,,,,,,,,,,,,,,,,,53,,,,,,,,,,,,,,501.6000000000058,,response,,,,99,,,,,,,Space,keypress(Space),,,,,,,,---- -- ----- -- ------ - ------- --- ----------<br>------------- ------ ------ ---- ---- ------- ----- -- ----<br>-------- ------- -- ---------- --- - --- ----- ----- ----<br>---- --- --- ----- --- ---- ---- ------- ----- ---- -------<br>--- --- -- ----- -- --- ---- -- --- ---- -- ------ really<br>--- ----- -- ----,171351,171340,170838.2,170838,170838.4,171352.7,,51,really
screen,html.Screen,2_1_0_1_52,2022-05-02T10:42:33.694Z,,,,,,,,,,,,,,,,,53,,,,,,,,,,,,,,504.29999999998836,,response,,,,99,,,,,,,Space,keypress(Space),,,,,,,,---- -- ----- -- ------ - ------- --- ----------<br>------------- ------ ------ ---- ---- ------- ----- -- ----<br>-------- ------- -- ---------- --- - --- ----- ----- ----<br>---- --- --- ----- --- ---- ---- ------- ----- ---- -------<br>--- --- -- ----- -- --- ---- -- --- ---- -- ------ ------<br>not ----- -- ----,171868,171857,171352.26,171352,171352.7,171868.94,,52,not
screen,html.Screen,2_1_0_1_53,2022-05-02T10:42:34.194Z,,,,,,,,,,,,,,,,,53,,,,,,,,,,,,,,487.0599999999977,,response,,,,99,,,,,,,Space,keypress(Space),,,,,,,,---- -- ----- -- ------ - ------- --- ----------<br>------------- ------ ------ ---- ---- ------- ----- -- ----<br>-------- ------- -- ---------- --- - --- ----- ----- ----<br>---- --- --- ----- --- ---- ---- ------- ----- ---- -------<br>--- --- -- ----- -- --- ---- -- --- ---- -- ------ ------<br>--- close -- ----,172369,172356,171868.46,171868,171868.94,172370.06,,53,close
screen,html.Screen,2_1_0_1_54,2022-05-02T10:42:34.756Z,,,,,,,,,,,,,,,,,53,,,,,,,,,,,,,,547.9400000000023,,response,,,,99,,,,,,,Space,keypress(Space),,,,,,,,---- -- ----- -- ------ - ------- --- ----------<br>------------- ------ ------ ---- ---- ------- ----- -- ----<br>-------- ------- -- ---------- --- - --- ----- ----- ----<br>---- --- --- ----- --- ---- ---- ------- ----- ---- -------<br>--- --- -- ----- -- --- ---- -- --- ---- -- ------ ------<br>--- ----- at ----,172931,172918,172369.66,172369,172370.06,172931.42,,54,at
screen,html.Screen,2_1_0_1_55,2022-05-02T10:42:35.711Z,,,,,,,,,,,,,,,,,53,,,,,,,,,,,,,,939.5799999999872,,response,,,,99,,,,,,,Space,keypress(Space),,,,,,,,---- -- ----- -- ------ - ------- --- ----------<br>------------- ------ ------ ---- ---- ------- ----- -- ----<br>-------- ------- -- ---------- --- - --- ----- ----- ----<br>---- --- --- ----- --- ---- ---- ------- ----- ---- -------<br>--- --- -- ----- -- --- ---- -- --- ---- -- ------ ------<br>--- ----- -- all.,173885,173871,172930.92,172931,172931.42,173886.82,,55,all.
Item 99,flow.Loop,2_1_0_1,2022-05-02T10:42:35.712Z,,,,,,,,,,,,,,,,,,,,,,,,,,,,,,,31309.01999999999,,completion,,,,,F,,,,,,,,,,,silence,,,,,173886,173871,142545.38,142547,142561.98,173886.82,,,
Question 1,html.Screen,2_1_0_2,2022-05-02T10:42:41.420Z,,,,,,,,,,,,,,,,,,,,,,,,,,,,true,FALSE,,5704.179999999993,,response,,,,99,F,,,,,,FALSE,click #choice-2,,,,silence,,,,,179594,179591,173886.32,173886,173886.82,179606.26,,,
Question 2,html.Screen,2_1_0_3,2022-05-02T10:42:46.646Z,,,,,,,,,,,,,,,,,,,,,,,,,,,,true,TRUE,,5202.739999999991,,response,,,,99,F,,,,,,TRUE,click #choice-1,,,,silence,,,,,184820,184809,179593.84,179594,179606.26,184834.06,,,
Item 99,flow.Sequence,2_1_0,2022-05-02T10:42:46.647Z,,,,,,,,,,,,,,,,,,,,,,,,,,,,,,,52253.16,,completion,,,,,,,,,,,,,,,,,,,,,184821,184809,132541.58,132546,132555.84,184834.06,,,
Holding screen,html.Screen,2_1_1_0,2022-05-02T10:42:56.651Z,,,,,,,,,,,,,,,,,,,,,,,,,,,,,,,10006.179999999993,,timeout,,,,,,,,,,,,,,,,,,,,,194824,194823.6,184819.94,184821,184834.06,194840.24,,,
screen,html.Screen,2_1_1_1_0,2022-05-02T10:42:57.319Z,,,,,,,,,,,,,,,,,54,,,,,,,,,,,,,,640.7600000000093,,response,,,,100,,,,,,,Space,keypress(Space),,,,,,,,At --- ---- --- ------ ----- ------- ---- -- --- ------- --<br>------- ---------- ------ -- ----- -- ----- -- ---- ------<br>--- ----- --- --- ------ -------- ----- --- ------ ----- --<br>----- ----- ---------- --- --- ------ ------ ---- -- ------<br>------- --- ------ ----- --- ---- ------- -- ---- --- --<br>------- ------,195493,195481,194823.6,194824,194840.24,195493.52,,0,At
screen,html.Screen,2_1_1_1_1,2022-05-02T10:42:57.827Z,,,,,,,,,,,,,,,,,54,,,,,,,,,,,,,,502.4800000000105,,response,,,,100,,,,,,,Space,keypress(Space),,,,,,,,-- the ---- --- ------ ----- ------- ---- -- --- ------- --<br>------- ---------- ------ -- ----- -- ----- -- ---- ------<br>--- ----- --- --- ------ -------- ----- --- ------ ----- --<br>----- ----- ---------- --- --- ------ ------ ---- -- ------<br>------- --- ------ ----- --- ---- ------- -- ---- --- --<br>------- ------,196001,195996,195493.12,195493,195493.52,196001.22,,1,the
screen,html.Screen,2_1_1_1_2,2022-05-02T10:42:58.505Z,,,,,,,,,,,,,,,,,54,,,,,,,,,,,,,,666.7799999999988,,response,,,,100,,,,,,,Space,keypress(Space),,,,,,,,-- --- time --- ------ ----- ------- ---- -- --- ------- --<br>------- ---------- ------ -- ----- -- ----- -- ---- ------<br>--- ----- --- --- ------ -------- ----- --- ------ ----- --<br>----- ----- ---------- --- --- ------ ------ ---- -- ------<br>------- --- ------ ----- --- ---- ------- -- ---- --- --<br>------- ------,196679,196668,196000.74,196001,196001.22,196679.86,,2,time
screen,html.Screen,2_1_1_1_3,2022-05-02T10:42:59.002Z,,,,,,,,,,,,,,,,,54,,,,,,,,,,,,,,489.14000000001397,,response,,,,100,,,,,,,Space,keypress(Space),,,,,,,,-- --- ---- the ------ ----- ------- ---- -- --- ------- --<br>------- ---------- ------ -- ----- -- ----- -- ---- ------<br>--- ----- --- --- ------ -------- ----- --- ------ ----- --<br>----- ----- ---------- --- --- ------ ------ ---- -- ------<br>------- --- ------ ----- --- ---- ------- -- ---- --- --<br>------- ------,197175,197169,196679.36,196680,196679.86,197176.52,,3,the
screen,html.Screen,2_1_1_1_4,2022-05-02T10:42:59.552Z,,,,,,,,,,,,,,,,,54,,,,,,,,,,,,,,538.4800000000105,,response,,,,100,,,,,,,Space,keypress(Space),,,,,,,,-- --- ---- --- French ----- ------- ---- -- --- ------- --<br>------- ---------- ------ -- ----- -- ----- -- ---- ------<br>--- ----- --- --- ------ -------- ----- --- ------ ----- --<br>----- ----- ---------- --- --- ------ ------ ---- -- ------<br>------- --- ------ ----- --- ---- ------- -- ---- --- --<br>------- ------,197726,197715,197176.12,197176,197176.52,197727.08,,4,French
screen,html.Screen,2_1_1_1_5,2022-05-02T10:43:00.032Z,,,,,,,,,,,,,,,,,54,,,,,,,,,,,,,,471.9200000000128,,response,,,,100,,,,,,,Space,keypress(Space),,,,,,,,-- --- ---- --- ------ crown ------- ---- -- --- ------- --<br>------- ---------- ------ -- ----- -- ----- -- ---- ------<br>--- ----- --- --- ------ -------- ----- --- ------ ----- --<br>----- ----- ---------- --- --- ------ ------ ---- -- ------<br>------- --- ------ ----- --- ---- ------- -- ---- --- --<br>------- ------,198206,198199,197726.62,197726,197727.08,198207.88,,5,crown
screen,html.Screen,2_1_1_1_6,2022-05-02T10:43:00.545Z,,,,,,,,,,,,,,,,,54,,,,,,,,,,,,,,507.11999999999534,,response,,,,100,,,,,,,Space,keypress(Space),,,,,,,,-- --- ---- --- ------ ----- secured ---- -- --- ------- --<br>------- ---------- ------ -- ----- -- ----- -- ---- ------<br>--- ----- --- --- ------ -------- ----- --- ------ ----- --<br>----- ----- ---------- --- --- ------ ------ ---- -- ------<br>------- --- ------ ----- --- ---- ------- -- ---- --- --<br>------- ------,198719,198715,198207.4,198207,198207.88,198719.9,,6,secured
screen,html.Screen,2_1_1_1_7,2022-05-02T10:43:01.046Z,,,,,,,,,,,,,,,,,54,,,,,,,,,,,,,,495.1000000000058,,response,,,,100,,,,,,,Space,keypress(Space),,,,,,,,-- --- ---- --- ------ ----- ------- much -- --- ------- --<br>------- ---------- ------ -- ----- -- ----- -- ---- ------<br>--- ----- --- --- ------ -------- ----- --- ------ ----- --<br>----- ----- ---------- --- --- ------ ------ ---- -- ------<br>------- --- ------ ----- --- ---- ------- -- ---- --- --<br>------- ------,199220,199215,198719.16,198719,198719.9,199220.82,,7,much
screen,html.Screen,2_1_1_1_8,2022-05-02T10:43:01.525Z,,,,,,,,,,,,,,,,,54,,,,,,,,,,,,,,463.179999999993,,response,,,,100,,,,,,,Space,keypress(Space),,,,,,,,-- --- ---- --- ------ ----- ------- ---- of --- ------- --<br>------- ---------- ------ -- ----- -- ----- -- ---- ------<br>--- ----- --- --- ------ -------- ----- --- ------ ----- --<br>----- ----- ---------- --- --- ------ ------ ---- -- ------<br>------- --- ------ ----- --- ---- ------- -- ---- --- --<br>------- ------,199698,199684,199220.42,199220,199220.82,199698.72,,8,of
screen,html.Screen,2_1_1_1_9,2022-05-02T10:43:01.973Z,,,,,,,,,,,,,,,,,54,,,,,,,,,,,,,,438.27999999999884,,response,,,,100,,,,,,,Space,keypress(Space),,,,,,,,-- --- ---- --- ------ ----- ------- ---- -- its ------- --<br>------- ---------- ------ -- ----- -- ----- -- ---- ------<br>--- ----- --- --- ------ -------- ----- --- ------ ----- --<br>----- ----- ---------- --- --- ------ ------ ---- -- ------<br>------- --- ------ ----- --- ---- ------- -- ---- --- --<br>------- ------,200146,200137,199698.36,199698,199698.72,200147.28,,9,its
screen,html.Screen,2_1_1_1_10,2022-05-02T10:43:02.487Z,,,,,,,,,,,,,,,,,54,,,,,,,,,,,,,,505.72000000000116,,response,,,,100,,,,,,,Space,keypress(Space),,,,,,,,-- --- ---- --- ------ ----- ------- ---- -- --- revenue --<br>------- ---------- ------ -- ----- -- ----- -- ---- ------<br>--- ----- --- --- ------ -------- ----- --- ------ ----- --<br>----- ----- ---------- --- --- ------ ------ ---- -- ------<br>------- --- ------ ----- --- ---- ------- -- ---- --- --<br>------- ------,200660,200653,200146.98,200147,200147.28,200661.58,,10,revenue
screen,html.Screen,2_1_1_1_11,2022-05-02T10:43:02.932Z,,,,,,,,,,,,,,,,,54,,,,,,,,,,,,,,428.4200000000128,,response,,,,100,,,,,,,Space,keypress(Space),,,,,,,,-- --- ---- --- ------ ----- ------- ---- -- --- ------- by<br>------- ---------- ------ -- ----- -- ----- -- ---- ------<br>--- ----- --- --- ------ -------- ----- --- ------ ----- --<br>----- ----- ---------- --- --- ------ ------ ---- -- ------<br>------- --- ------ ----- --- ---- ------- -- ---- --- --<br>------- ------,201107,201090,200661.06,200661,200661.58,201107,,11,by
screen,html.Screen,2_1_1_1_12,2022-05-02T10:43:03.458Z,,,,,,,,,,,,,,,,,54,,,,,,,,,,,,,,514,,response,,,,100,,,,,,,Space,keypress(Space),,,,,,,,-- --- ---- --- ------ ----- ------- ---- -- --- ------- --<br>issuing ---------- ------ -- ----- -- ----- -- ---- ------<br>--- ----- --- --- ------ -------- ----- --- ------ ----- --<br>----- ----- ---------- --- --- ------ ------ ---- -- ------<br>------- --- ------ ----- --- ---- ------- -- ---- --- --<br>------- ------,201633,201621,201106.74,201107,201107,201632.62,,12,issuing
screen,html.Screen,2_1_1_1_13,2022-05-02T10:43:03.955Z,,,,,,,,,,,,,,,,,54,,,,,,,,,,,,,,488.38000000000466,,response,,,,100,,,,,,,Space,keypress(Space),,,,,,,,-- --- ---- --- ------ ----- ------- ---- -- --- ------- --<br>------- government ------ -- ----- -- ----- -- ---- ------<br>--- ----- --- --- ------ -------- ----- --- ------ ----- --<br>----- ----- ---------- --- --- ------ ------ ---- -- ------<br>------- --- ------ ----- --- ---- ------- -- ---- --- --<br>------- ------,202129,202121,201632.4,201633,201632.62,202129.54,,13,government
screen,html.Screen,2_1_1_1_14,2022-05-02T10:43:04.438Z,,,,,,,,,,,,,,,,,54,,,,,,,,,,,,,,476.45999999999185,,response,,,,100,,,,,,,Space,keypress(Space),,,,,,,,-- --- ---- --- ------ ----- ------- ---- -- --- ------- --<br>------- ---------- bonds. -- ----- -- ----- -- ---- ------<br>--- ----- --- --- ------ -------- ----- --- ------ ----- --<br>----- ----- ---------- --- --- ------ ------ ---- -- ------<br>------- --- ------ ----- --- ---- ------- -- ---- --- --<br>------- ------,202612,202606,202129.24,202129,202129.54,202613.02,,14,bonds.
screen,html.Screen,2_1_1_1_15,2022-05-02T10:43:04.911Z,,,,,,,,,,,,,,,,,54,,,,,,,,,,,,,,460.9800000000105,,response,,,,100,,,,,,,Space,keypress(Space),,,,,,,,-- --- ---- --- ------ ----- ------- ---- -- --- ------- --<br>------- ---------- ------ In ----- -- ----- -- ---- ------<br>--- ----- --- --- ------ -------- ----- --- ------ ----- --<br>----- ----- ---------- --- --- ------ ------ ---- -- ------<br>------- --- ------ ----- --- ---- ------- -- ---- --- --<br>------- ------,203085,203074,202612.48,202612,202613.02,203085.94,,15,In
screen,html.Screen,2_1_1_1_16,2022-05-02T10:43:06.585Z,,,,,,,,,,,,,,,,,54,,,,,,,,,,,,,,1660.0599999999977,,response,,,,100,,,,,,,Space,keypress(Space),,,,,,,,"-- --- ---- --- ------ ----- ------- ---- -- --- ------- --<br>------- ---------- ------ -- 1727, -- ----- -- ---- ------<br>--- ----- --- --- ------ -------- ----- --- ------ ----- --<br>----- ----- ---------- --- --- ------ ------ ---- -- ------<br>------- --- ------ ----- --- ---- ------- -- ---- --- --<br>------- ------",204759,204746,203085.44,203085,203085.94,204759.66,,16,"1727,"
screen,html.Screen,2_1_1_1_17,2022-05-02T10:43:07.190Z,,,,,,,,,,,,,,,,,54,,,,,,,,,,,,,,596.3399999999965,,response,,,,100,,,,,,,Space,keypress(Space),,,,,,,,-- --- ---- --- ------ ----- ------- ---- -- --- ------- --<br>------- ---------- ------ -- ----- in ----- -- ---- ------<br>--- ----- --- --- ------ -------- ----- --- ------ ----- --<br>----- ----- ---------- --- --- ------ ------ ---- -- ------<br>------- --- ------ ----- --- ---- ------- -- ---- --- --<br>------- ------,205363,205356,204759.22,204759,204759.66,205364.66,,17,in
screen,html.Screen,2_1_1_1_18,2022-05-02T10:43:07.758Z,,,,,,,,,,,,,,,,,54,,,,,,,,,,,,,,553.3399999999965,,response,,,,100,,,,,,,Space,keypress(Space),,,,,,,,-- --- ---- --- ------ ----- ------- ---- -- --- ------- --<br>------- ---------- ------ -- ----- -- order -- ---- ------<br>--- ----- --- --- ------ -------- ----- --- ------ ----- --<br>----- ----- ---------- --- --- ------ ------ ---- -- ------<br>------- --- ------ ----- --- ---- ------- -- ---- --- --<br>------- ------,205931,205918,205364.16,205364,205364.66,205932.84,,18,order
screen,html.Screen,2_1_1_1_19,2022-05-02T10:43:08.283Z,,,,,,,,,,,,,,,,,54,,,,,,,,,,,,,,516.1600000000035,,response,,,,100,,,,,,,Space,keypress(Space),,,,,,,,-- --- ---- --- ------ ----- ------- ---- -- --- ------- --<br>------- ---------- ------ -- ----- -- ----- to ---- ------<br>--- ----- --- --- ------ -------- ----- --- ------ ----- --<br>----- ----- ---------- --- --- ------ ------ ---- -- ------<br>------- --- ------ ----- --- ---- ------- -- ---- --- --<br>------- ------,206458,206449,205932.34,205932,205932.84,206458.42,,19,to
screen,html.Screen,2_1_1_1_20,2022-05-02T10:43:09.042Z,,,,,,,,,,,,,,,,,54,,,,,,,,,,,,,,740.5799999999872,,response,,,,100,,,,,,,Space,keypress(Space),,,,,,,,-- --- ---- --- ------ ----- ------- ---- -- --- ------- --<br>------- ---------- ------ -- ----- -- ----- -- save ------<br>--- ----- --- --- ------ -------- ----- --- ------ ----- --<br>----- ----- ---------- --- --- ------ ------ ---- -- ------<br>------- --- ------ ----- --- ---- ------- -- ---- --- --<br>------- ------,207215,207199,206457.96,206458,206458.42,207216.82,,20,save
screen,html.Screen,2_1_1_1_21,2022-05-02T10:43:09.712Z,,,,,,,,,,,,,,,,,54,,,,,,,,,,,,,,654.179999999993,,response,,,,100,,,,,,,Space,keypress(Space),,,,,,,,"-- --- ---- --- ------ ----- ------- ---- -- --- ------- --<br>------- ---------- ------ -- ----- -- ----- -- ---- money,<br>--- ----- --- --- ------ -------- ----- --- ------ ----- --<br>----- ----- ---------- --- --- ------ ------ ---- -- ------<br>------- --- ------ ----- --- ---- ------- -- ---- --- --<br>------- ------",207887,207871,207216.34,207216,207216.82,207887.54,,21,"money,"
screen,html.Screen,2_1_1_1_22,2022-05-02T10:43:10.315Z,,,,,,,,,,,,,,,,,54,,,,,,,,,,,,,,593.4599999999919,,response,,,,100,,,,,,,Space,keypress(Space),,,,,,,,-- --- ---- --- ------ ----- ------- ---- -- --- ------- --<br>------- ---------- ------ -- ----- -- ----- -- ---- ------<br>the ----- --- --- ------ -------- ----- --- ------ ----- --<br>----- ----- ---------- --- --- ------ ------ ---- -- ------<br>------- --- ------ ----- --- ---- ------- -- ---- --- --<br>------- ------,208488,208481,207887.1,207887,207887.54,208489.46,,22,the
screen,html.Screen,2_1_1_1_23,2022-05-02T10:43:10.884Z,,,,,,,,,,,,,,,,,54,,,,,,,,,,,,,,553.5400000000081,,response,,,,100,,,,,,,Space,keypress(Space),,,,,,,,-- --- ---- --- ------ ----- ------- ---- -- --- ------- --<br>------- ---------- ------ -- ----- -- ----- -- ---- ------<br>--- state --- --- ------ -------- ----- --- ------ ----- --<br>----- ----- ---------- --- --- ------ ------ ---- -- ------<br>------- --- ------ ----- --- ---- ------- -- ---- --- --<br>------- ------,209058,209043,208488.96,208489,208489.46,209058.9,,23,state
screen,html.Screen,2_1_1_1_24,2022-05-02T10:43:11.642Z,,,,,,,,,,,,,,,,,54,,,,,,,,,,,,,,750.1000000000058,,response,,,,100,,,,,,,Space,keypress(Space),,,,,,,,-- --- ---- --- ------ ----- ------- ---- -- --- ------- --<br>------- ---------- ------ -- ----- -- ----- -- ---- ------<br>--- ----- cut --- ------ -------- ----- --- ------ ----- --<br>----- ----- ---------- --- --- ------ ------ ---- -- ------<br>------- --- ------ ----- --- ---- ------- -- ---- --- --<br>------- ------,209816,209809,209058.4,209059,209058.9,209817.2,,24,cut
screen,html.Screen,2_1_1_1_25,2022-05-02T10:43:12.331Z,,,,,,,,,,,,,,,,,54,,,,,,,,,,,,,,678.7999999999884,,response,,,,100,,,,,,,Space,keypress(Space),,,,,,,,-- --- ---- --- ------ ----- ------- ---- -- --- ------- --<br>------- ---------- ------ -- ----- -- ----- -- ---- ------<br>--- ----- --- the ------ -------- ----- --- ------ ----- --<br>----- ----- ---------- --- --- ------ ------ ---- -- ------<br>------- --- ------ ----- --- ---- ------- -- ---- --- --<br>------- ------,210505,210496,209816.76,209816,209817.2,210505.4,,25,the
screen,html.Screen,2_1_1_1_26,2022-05-02T10:43:12.988Z,,,,,,,,,,,,,,,,,54,,,,,,,,,,,,,,647.6000000000058,,response,,,,100,,,,,,,Space,keypress(Space),,,,,,,,-- --- ---- --- ------ ----- ------- ---- -- --- ------- --<br>------- ---------- ------ -- ----- -- ----- -- ---- ------<br>--- ----- --- --- bonds' -------- ----- --- ------ ----- --<br>----- ----- ---------- --- --- ------ ------ ---- -- ------<br>------- --- ------ ----- --- ---- ------- -- ---- --- --<br>------- ------,211161,211153,210504.9,210505,210505.4,211161.92,,26,bonds'
screen,html.Screen,2_1_1_1_27,2022-05-02T10:43:13.479Z,,,,,,,,,,,,,,,,,54,,,,,,,,,,,,,,475.0799999999872,,response,,,,100,,,,,,,Space,keypress(Space),,,,,,,,-- --- ---- --- ------ ----- ------- ---- -- --- ------- --<br>------- ---------- ------ -- ----- -- ----- -- ---- ------<br>--- ----- --- --- ------ interest ----- --- ------ ----- --<br>----- ----- ---------- --- --- ------ ------ ---- -- ------<br>------- --- ------ ----- --- ---- ------- -- ---- --- --<br>------- ------,211652,211637,211161.54,211161,211161.92,211653.12,,27,interest
screen,html.Screen,2_1_1_1_28,2022-05-02T10:43:13.997Z,,,,,,,,,,,,,,,,,54,,,,,,,,,,,,,,514.8800000000047,,response,,,,100,,,,,,,Space,keypress(Space),,,,,,,,-- --- ---- --- ------ ----- ------- ---- -- --- ------- --<br>------- ---------- ------ -- ----- -- ----- -- ---- ------<br>--- ----- --- --- ------ -------- rate. --- ------ ----- --<br>----- ----- ---------- --- --- ------ ------ ---- -- ------<br>------- --- ------ ----- --- ---- ------- -- ---- --- --<br>------- ------,212171,212168,211652.98,211653,211653.12,212172.3,,28,rate.
screen,html.Screen,2_1_1_1_29,2022-05-02T10:43:14.495Z,,,,,,,,,,,,,,,,,54,,,,,,,,,,,,,,480.70000000001164,,response,,,,100,,,,,,,Space,keypress(Space),,,,,,,,-- --- ---- --- ------ ----- ------- ---- -- --- ------- --<br>------- ---------- ------ -- ----- -- ----- -- ---- ------<br>--- ----- --- --- ------ -------- ----- The ------ ----- --<br>----- ----- ---------- --- --- ------ ------ ---- -- ------<br>------- --- ------ ----- --- ---- ------- -- ---- --- --<br>------- ------,212669,212653,212171.94,212172,212172.3,212671.48,,29,The
screen,html.Screen,2_1_1_1_30,2022-05-02T10:43:15.108Z,,,,,,,,,,,,,,,,,54,,,,,,,,,,,,,,606.5199999999895,,response,,,,100,,,,,,,Space,keypress(Space),,,,,,,,-- --- ---- --- ------ ----- ------- ---- -- --- ------- --<br>------- ---------- ------ -- ----- -- ----- -- ---- ------<br>--- ----- --- --- ------ -------- ----- --- market ----- --<br>----- ----- ---------- --- --- ------ ------ ---- -- ------<br>------- --- ------ ----- --- ---- ------- -- ---- --- --<br>------- ------,213282,213278,212669.18,212670,212671.48,213282.56,,30,market
screen,html.Screen,2_1_1_1_31,2022-05-02T10:43:17.282Z,,,,,,,,,,,,,,,,,54,,,,,,,,,,,,,,2166.4400000000023,,response,,,,100,,,,,,,Space,keypress(Space),,,,,,,,-- --- ---- --- ------ ----- ------- ---- -- --- ------- --<br>------- ---------- ------ -- ----- -- ----- -- ---- ------<br>--- ----- --- --- ------ -------- ----- --- ------ value --<br>----- ----- ---------- --- --- ------ ------ ---- -- ------<br>------- --- ------ ----- --- ---- ------- -- ---- --- --<br>------- ------,215456,215449,213282.04,213282,213282.56,215457.1,,31,value
screen,html.Screen,2_1_1_1_32,2022-05-02T10:43:18.084Z,,,,,,,,,,,,,,,,,54,,,,,,,,,,,,,,788.8999999999942,,response,,,,100,,,,,,,Space,keypress(Space),,,,,,,,-- --- ---- --- ------ ----- ------- ---- -- --- ------- --<br>------- ---------- ------ -- ----- -- ----- -- ---- ------<br>--- ----- --- --- ------ -------- ----- --- ------ ----- of<br>----- ----- ---------- --- --- ------ ------ ---- -- ------<br>------- --- ------ ----- --- ---- ------- -- ---- --- --<br>------- ------,216258,216246,215456.6,215457,215457.1,216259.12,,32,of
screen,html.Screen,2_1_1_1_33,2022-05-02T10:43:18.898Z,,,,,,,,,,,,,,,,,54,,,,,,,,,,,,,,799.8800000000047,,response,,,,100,,,,,,,Space,keypress(Space),,,,,,,,-- --- ---- --- ------ ----- ------- ---- -- --- ------- --<br>------- ---------- ------ -- ----- -- ----- -- ---- ------<br>--- ----- --- --- ------ -------- ----- --- ------ ----- --<br>these ----- ---------- --- --- ------ ------ ---- -- ------<br>------- --- ------ ----- --- ---- ------- -- ---- --- --<br>------- ------,217072,217059,216258.62,216258,216259.12,217072.6,,33,these
screen,html.Screen,2_1_1_1_34,2022-05-02T10:43:19.565Z,,,,,,,,,,,,,,,,,54,,,,,,,,,,,,,,658.3999999999942,,response,,,,100,,,,,,,Space,keypress(Space),,,,,,,,-- --- ---- --- ------ ----- ------- ---- -- --- ------- --<br>------- ---------- ------ -- ----- -- ----- -- ---- ------<br>--- ----- --- --- ------ -------- ----- --- ------ ----- --<br>----- bonds ---------- --- --- ------ ------ ---- -- ------<br>------- --- ------ ----- --- ---- ------- -- ---- --- --<br>------- ------,217740,217731,217072.08,217072,217072.6,217740.64,,34,bonds
screen,html.Screen,2_1_1_1_35,2022-05-02T10:43:20.517Z,,,,,,,,,,,,,,,,,54,,,,,,,,,,,,,,944.359999999986,,response,,,,100,,,,,,,Space,keypress(Space),,,,,,,,"-- --- ---- --- ------ ----- ------- ---- -- --- ------- --<br>------- ---------- ------ -- ----- -- ----- -- ---- ------<br>--- ----- --- --- ------ -------- ----- --- ------ ----- --<br>----- ----- plummeted, --- --- ------ ------ ---- -- ------<br>------- --- ------ ----- --- ---- ------- -- ---- --- --<br>------- ------",218691,218685,217740.14,217740,217740.64,218691.94,,35,"plummeted,"
screen,html.Screen,2_1_1_1_36,2022-05-02T10:43:21.410Z,,,,,,,,,,,,,,,,,54,,,,,,,,,,,,,,883.0599999999977,,response,,,,100,,,,,,,Space,keypress(Space),,,,,,,,-- --- ---- --- ------ ----- ------- ---- -- --- ------- --<br>------- ---------- ------ -- ----- -- ----- -- ---- ------<br>--- ----- --- --- ------ -------- ----- --- ------ ----- --<br>----- ----- ---------- and --- ------ ------ ---- -- ------<br>------- --- ------ ----- --- ---- ------- -- ---- --- --<br>------- ------,219584,219575,218691.44,218692,218691.94,219584.46,,36,and
screen,html.Screen,2_1_1_1_37,2022-05-02T10:43:21.936Z,,,,,,,,,,,,,,,,,54,,,,,,,,,,,,,,521.5400000000081,,response,,,,100,,,,,,,Space,keypress(Space),,,,,,,,-- --- ---- --- ------ ----- ------- ---- -- --- ------- --<br>------- ---------- ------ -- ----- -- ----- -- ---- ------<br>--- ----- --- --- ------ -------- ----- --- ------ ----- --<br>----- ----- ---------- --- the ------ ------ ---- -- ------<br>------- --- ------ ----- --- ---- ------- -- ---- --- --<br>------- ------,220110,220106,219583.96,219584,219584.46,220110.5,,37,the
screen,html.Screen,2_1_1_1_38,2022-05-02T10:43:22.712Z,,,,,,,,,,,,,,,,,54,,,,,,,,,,,,,,760.5,,response,,,,100,,,,,,,Space,keypress(Space),,,,,,,,-- --- ---- --- ------ ----- ------- ---- -- --- ------- --<br>------- ---------- ------ -- ----- -- ----- -- ---- ------<br>--- ----- --- --- ------ -------- ----- --- ------ ----- --<br>----- ----- ---------- --- --- market ------ ---- -- ------<br>------- --- ------ ----- --- ---- ------- -- ---- --- --<br>------- ------,220885,220871,220110.02,220110,220110.5,220886.22,,38,market
screen,html.Screen,2_1_1_1_39,2022-05-02T10:43:23.263Z,,,,,,,,,,,,,,,,,54,,,,,,,,,,,,,,531.7799999999988,,response,,,,100,,,,,,,Space,keypress(Space),,,,,,,,-- --- ---- --- ------ ----- ------- ---- -- --- ------- --<br>------- ---------- ------ -- ----- -- ----- -- ---- ------<br>--- ----- --- --- ------ -------- ----- --- ------ ----- --<br>----- ----- ---------- --- --- ------ became ---- -- ------<br>------- --- ------ ----- --- ---- ------- -- ---- --- --<br>------- ------,221437,221418,220885.76,220885,220886.22,221438.2,,39,became
screen,html.Screen,2_1_1_1_40,2022-05-02T10:43:24.010Z,,,,,,,,,,,,,,,,,54,,,,,,,,,,,,,,729.7999999999884,,response,,,,100,,,,,,,Space,keypress(Space),,,,,,,,-- --- ---- --- ------ ----- ------- ---- -- --- ------- --<br>------- ---------- ------ -- ----- -- ----- -- ---- ------<br>--- ----- --- --- ------ -------- ----- --- ------ ----- --<br>----- ----- ---------- --- --- ------ ------ wary -- ------<br>------- --- ------ ----- --- ---- ------- -- ---- --- --<br>------- ------,222184,222168,221437.74,221438,221438.2,222185.92,,40,wary
screen,html.Screen,2_1_1_1_41,2022-05-02T10:43:24.712Z,,,,,,,,,,,,,,,,,54,,,,,,,,,,,,,,685.0799999999872,,response,,,,100,,,,,,,Space,keypress(Space),,,,,,,,-- --- ---- --- ------ ----- ------- ---- -- --- ------- --<br>------- ---------- ------ -- ----- -- ----- -- ---- ------<br>--- ----- --- --- ------ -------- ----- --- ------ ----- --<br>----- ----- ---------- --- --- ------ ------ ---- of ------<br>------- --- ------ ----- --- ---- ------- -- ---- --- --<br>------- ------,222887,222871,222184.96,222185,222185.92,222887.68,,41,of
screen,html.Screen,2_1_1_1_42,2022-05-02T10:43:25.330Z,,,,,,,,,,,,,,,,,54,,,,,,,,,,,,,,608.320000000007,,response,,,,100,,,,,,,Space,keypress(Space),,,,,,,,-- --- ---- --- ------ ----- ------- ---- -- --- ------- --<br>------- ---------- ------ -- ----- -- ----- -- ---- ------<br>--- ----- --- --- ------ -------- ----- --- ------ ----- --<br>----- ----- ---------- --- --- ------ ------ ---- -- French<br>------- --- ------ ----- --- ---- ------- -- ---- --- --<br>------- ------,223504,223496,222887.22,222887,222887.68,223504.3,,42,French
screen,html.Screen,2_1_1_1_43,2022-05-02T10:43:25.873Z,,,,,,,,,,,,,,,,,54,,,,,,,,,,,,,,538.7000000000116,,response,,,,100,,,,,,,Space,keypress(Space),,,,,,,,-- --- ---- --- ------ ----- ------- ---- -- --- ------- --<br>------- ---------- ------ -- ----- -- ----- -- ---- ------<br>--- ----- --- --- ------ -------- ----- --- ------ ----- --<br>----- ----- ---------- --- --- ------ ------ ---- -- ------<br>credit. --- ------ ----- --- ---- ------- -- ---- --- --<br>------- ------,224047,224043,223503.8,223504,223504.3,224047.7,,43,credit.
screen,html.Screen,2_1_1_1_44,2022-05-02T10:43:26.375Z,,,,,,,,,,,,,,,,,54,,,,,,,,,,,,,,496.29999999998836,,response,,,,100,,,,,,,Space,keypress(Space),,,,,,,,-- --- ---- --- ------ ----- ------- ---- -- --- ------- --<br>------- ---------- ------ -- ----- -- ----- -- ---- ------<br>--- ----- --- --- ------ -------- ----- --- ------ ----- --<br>----- ----- ---------- --- --- ------ ------ ---- -- ------<br>------- The ------ ----- --- ---- ------- -- ---- --- --<br>------- ------,224549,224544,224047.22,224047,224047.7,224550.22,,44,The
screen,html.Screen,2_1_1_1_45,2022-05-02T10:43:27.067Z,,,,,,,,,,,,,,,,,54,,,,,,,,,,,,,,680.7799999999988,,response,,,,100,,,,,,,Space,keypress(Space),,,,,,,,-- --- ---- --- ------ ----- ------- ---- -- --- ------- --<br>------- ---------- ------ -- ----- -- ----- -- ---- ------<br>--- ----- --- --- ------ -------- ----- --- ------ ----- --<br>----- ----- ---------- --- --- ------ ------ ---- -- ------<br>------- --- French ----- --- ---- ------- -- ---- --- --<br>------- ------,225241,225231,224549.72,224550,224550.22,225242.82,,45,French
screen,html.Screen,2_1_1_1_46,2022-05-02T10:43:27.753Z,,,,,,,,,,,,,,,,,54,,,,,,,,,,,,,,675.179999999993,,response,,,,100,,,,,,,Space,keypress(Space),,,,,,,,-- --- ---- --- ------ ----- ------- ---- -- --- ------- --<br>------- ---------- ------ -- ----- -- ----- -- ---- ------<br>--- ----- --- --- ------ -------- ----- --- ------ ----- --<br>----- ----- ---------- --- --- ------ ------ ---- -- ------<br>------- --- ------ state --- ---- ------- -- ---- --- --<br>------- ------,225926,225918,225241.78,225242,225242.82,225927.06,,46,state
screen,html.Screen,2_1_1_1_47,2022-05-02T10:43:28.567Z,,,,,,,,,,,,,,,,,54,,,,,,,,,,,,,,803.9400000000023,,response,,,,100,,,,,,,Space,keypress(Space),,,,,,,,-- --- ---- --- ------ ----- ------- ---- -- --- ------- --<br>------- ---------- ------ -- ----- -- ----- -- ---- ------<br>--- ----- --- --- ------ -------- ----- --- ------ ----- --<br>----- ----- ---------- --- --- ------ ------ ---- -- ------<br>------- --- ------ ----- was ---- ------- -- ---- --- --<br>------- ------,226740,226731,225926.84,225926,225927.06,226741.28,,47,was
screen,html.Screen,2_1_1_1_48,2022-05-02T10:43:29.156Z,,,,,,,,,,,,,,,,,54,,,,,,,,,,,,,,582.7200000000012,,response,,,,100,,,,,,,Space,keypress(Space),,,,,,,,-- --- ---- --- ------ ----- ------- ---- -- --- ------- --<br>------- ---------- ------ -- ----- -- ----- -- ---- ------<br>--- ----- --- --- ------ -------- ----- --- ------ ----- --<br>----- ----- ---------- --- --- ------ ------ ---- -- ------<br>------- --- ------ ----- --- left ------- -- ---- --- --<br>------- ------,227329,227324,226740.8,226741,226741.28,227330.24,,48,left
screen,html.Screen,2_1_1_1_49,2022-05-02T10:43:29.822Z,,,,,,,,,,,,,,,,,54,,,,,,,,,,,,,,650.7600000000093,,response,,,,100,,,,,,,Space,keypress(Space),,,,,,,,-- --- ---- --- ------ ----- ------- ---- -- --- ------- --<br>------- ---------- ------ -- ----- -- ----- -- ---- ------<br>--- ----- --- --- ------ -------- ----- --- ------ ----- --<br>----- ----- ---------- --- --- ------ ------ ---- -- ------<br>------- --- ------ ----- --- ---- without -- ---- --- --<br>------- ------,227996,227981,227329.76,227329,227330.24,227997.3,,49,without
screen,html.Screen,2_1_1_1_50,2022-05-02T10:43:30.507Z,,,,,,,,,,,,,,,,,54,,,,,,,,,,,,,,670.7000000000116,,response,,,,100,,,,,,,Space,keypress(Space),,,,,,,,-- --- ---- --- ------ ----- ------- ---- -- --- ------- --<br>------- ---------- ------ -- ----- -- ----- -- ---- ------<br>--- ----- --- --- ------ -------- ----- --- ------ ----- --<br>----- ----- ---------- --- --- ------ ------ ---- -- ------<br>------- --- ------ ----- --- ---- ------- an ---- --- --<br>------- ------,228681,228668,227996.64,227996,227997.3,228681.7,,50,an
screen,html.Screen,2_1_1_1_51,2022-05-02T10:43:31.162Z,,,,,,,,,,,,,,,,,54,,,,,,,,,,,,,,642.2999999999884,,response,,,,100,,,,,,,Space,keypress(Space),,,,,,,,-- --- ---- --- ------ ----- ------- ---- -- --- ------- --<br>------- ---------- ------ -- ----- -- ----- -- ---- ------<br>--- ----- --- --- ------ -------- ----- --- ------ ----- --<br>----- ----- ---------- --- --- ------ ------ ---- -- ------<br>------- --- ------ ----- --- ---- ------- -- easy --- --<br>------- ------,229336,229324,228681.32,228682,228681.7,229337.2,,51,easy
screen,html.Screen,2_1_1_1_52,2022-05-02T10:43:31.883Z,,,,,,,,,,,,,,,,,54,,,,,,,,,,,,,,705.7999999999884,,response,,,,100,,,,,,,Space,keypress(Space),,,,,,,,-- --- ---- --- ------ ----- ------- ---- -- --- ------- --<br>------- ---------- ------ -- ----- -- ----- -- ---- ------<br>--- ----- --- --- ------ -------- ----- --- ------ ----- --<br>----- ----- ---------- --- --- ------ ------ ---- -- ------<br>------- --- ------ ----- --- ---- ------- -- ---- way --<br>------- ------,230057,230043,229336.86,229337,229337.2,230058.08,,52,way
screen,html.Screen,2_1_1_1_53,2022-05-02T10:43:32.355Z,,,,,,,,,,,,,,,,,54,,,,,,,,,,,,,,454.9200000000128,,response,,,,100,,,,,,,Space,keypress(Space),,,,,,,,-- --- ---- --- ------ ----- ------- ---- -- --- ------- --<br>------- ---------- ------ -- ----- -- ----- -- ---- ------<br>--- ----- --- --- ------ -------- ----- --- ------ ----- --<br>----- ----- ---------- --- --- ------ ------ ---- -- ------<br>------- --- ------ ----- --- ---- ------- -- ---- --- of<br>------- ------,230529,230513,230057.74,230057,230058.08,230529.44,,53,of
screen,html.Screen,2_1_1_1_54,2022-05-02T10:43:32.870Z,,,,,,,,,,,,,,,,,54,,,,,,,,,,,,,,498.5599999999977,,response,,,,100,,,,,,,Space,keypress(Space),,,,,,,,-- --- ---- --- ------ ----- ------- ---- -- --- ------- --<br>------- ---------- ------ -- ----- -- ----- -- ---- ------<br>--- ----- --- --- ------ -------- ----- --- ------ ----- --<br>----- ----- ---------- --- --- ------ ------ ---- -- ------<br>------- --- ------ ----- --- ---- ------- -- ---- --- --<br>raising ------,231044,231028,230528.94,230529,230529.44,231044.44,,54,raising
screen,html.Screen,2_1_1_1_55,2022-05-02T10:43:37.874Z,,,,,,,,,,,,,,,,,54,,,,,,,,,,,,,,4998.559999999998,,response,,,,100,,,,,,,Space,keypress(Space),,,,,,,,-- --- ---- --- ------ ----- ------- ---- -- --- ------- --<br>------- ---------- ------ -- ----- -- ----- -- ---- ------<br>--- ----- --- --- ------ -------- ----- --- ------ ----- --<br>----- ----- ---------- --- --- ------ ------ ---- -- ------<br>------- --- ------ ----- --- ---- ------- -- ---- --- --<br>------- money.,236048,236043,231043.88,231044,231044.44,236050.06,,55,money.
Item 100,flow.Loop,2_1_1_1,2022-05-02T10:43:37.875Z,,,,,,,,,,,,,,,,,,,,,,,,,,,,,,,41202.76000000001,,completion,,,,,F,,,,,,,,,,,silence,,,,,236050,236043,194823.6,194824,194840.24,236050.06,,,
Question 1,html.Screen,2_1_1_2,2022-05-02T10:43:40.624Z,,,,,,,,,,,,,,,,,,,,,,,,,,,,true,TRUE,,2727.9400000000023,,response,,,,100,F,,,,,,TRUE,click #choice-1,,,,silence,,,,,238797,238778,236049.56,236050,236050.06,238810.84,,,
Question 2,html.Screen,2_1_1_3,2022-05-02T10:43:42.864Z,,,,,,,,,,,,,,,,,,,,,,,,,,,,true,FALSE,,2217.1600000000035,,response,,,,100,F,,,,,,FALSE,click #choice-2,,,,silence,,,,,241038,241028,238797.54,238798,238810.84,241041.42,,,
Item 100,flow.Sequence,2_1_1,2022-05-02T10:43:42.864Z,,,,,,,,,,,,,,,,,,,,,,,,,,,,,,,56193.94,,completion,,,,,,,,,,,,,,,,,,,,,241038,241028,184819.94,184821,184834.06,241041.42,,,
End of Practice,html.Page,2_1_2,2022-05-02T10:43:46.315Z,,,,,,,,,,,,,,,,,,,,,,,,,,,,,,,3446.579999999987,,form submission,,,,,,,,,,,,,,,,,,,,,244489,244488,241037.64,241038,241041.42,244487.96,,,
Practice,flow.Sequence,2_1,2022-05-02T10:43:46.315Z,,,,,,,,,,,,,,,,,,,,,,,,,,,,,,,111932.16,,completion,,,,,,,,,,,,,,,,,,,,,244489,244488,132541.58,132546,132555.84,244487.96,,,
Trap_instruction,html.Page,2_2_0,2022-05-02T10:43:53.233Z,,,,,,,,,,,,,,,,,,,,,,,,,,,,,,,6920.040000000008,,form submission,,,,,,,,,,,,,,,,,,,,,251408,251408,244485.6,244489,244487.96,251413.94,,,
trap_trial,html.Screen,2_2_1,2022-05-02T10:43:55.511Z,,,,,,,,,,,,,,,,,,,,,,,,,,,,true,1,,2255.0599999999977,,response,,,,,,,,,,,1,click #choice-1,,,,,,,,,253685,253669,251404.78,251408,251413.94,253694.88,,,
end of trap trial,html.Page,2_2_2,2022-05-02T10:43:57.864Z,,,,,,,,,,,,,,,,,,,,,,,,,,,,,,,2343.1199999999953,,form submission,,,,,,,,,,,,,,,,,,,,,256038,256038,253684.48,253685,253694.88,256042.48,,,
Trap 1,flow.Sequence,2_2,2022-05-02T10:43:57.864Z,,,,,,,,,,,,,,,,,,,,,,,,,,,,,,,11550.040000000008,,completion,,,,,,,,,,,,,,,,,,,,,256038,256038,244485.6,244489,244487.96,256042.48,,,
Standby,html.Page,2_3_0,2022-05-02T10:44:05.862Z,,,,,,,,,,,,,,,,,,,,,,,,,,,,,,,8008.220000000001,,timeout,,,,,,,,,,,,,,,,,,,,,264035,264034.06,256035.34,256039,256042.48,264050.7,,,
Holding screen,html.Screen,2_3_1_0_0,2022-05-02T10:44:12.853Z,,,,,,,,,,,,,,,,,,,,,,,,,,,,,,,6992.580000000016,,timeout,,,,,,,,,,,,,,,,,,,,,271027,271026.64,264034.06,264036,264050.7,271043.28,,,
screen,html.Screen,2_3_1_0_1_0,2022-05-02T10:44:13.586Z,,,,,,,,,,,,,,,,,2,,,,,,,,,,,,,,702.7199999999721,,response,,,,1,F,,,,,,Space,keypress(Space),,,,lyrical,,,,Two ---- ------ --- ------- ---------- ------- ----------<br>--- --------- --- ----------- ------- ----- ------- ---<br>--------- ---- -- --- ---- -- --------- -- ---- -------<br>-- --------- ------ --- ----- ------ ---- --- --------- --<br>------ - ---- -- --- ----------- ------- ---- ----- -----<br>--- -------- - ------ ---- -- ----- ---- --- --- -----------<br>-- -------,271760,271746,271026.64,271027,271043.28,271761.14,,0,Two
screen,html.Screen,2_3_1_0_1_1,2022-05-02T10:44:13.995Z,,,,,,,,,,,,,,,,,2,,,,,,,,,,,,,,391.85999999998603,,response,,,,1,F,,,,,,Space,keypress(Space),,,,lyrical,,,,--- days ------ --- ------- ---------- ------- ----------<br>--- --------- --- ----------- ------- ----- ------- ---<br>--------- ---- -- --- ---- -- --------- -- ---- -------<br>-- --------- ------ --- ----- ------ ---- --- --------- --<br>------ - ---- -- --- ----------- ------- ---- ----- -----<br>--- -------- - ------ ---- -- ----- ---- --- --- -----------<br>-- -------,272168,272153,271760.64,271761,271761.14,272169,,1,days
screen,html.Screen,2_3_1_0_1_2,2022-05-02T10:44:14.375Z,,,,,,,,,,,,,,,,,2,,,,,,,,,,,,,,374,,response,,,,1,F,,,,,,Space,keypress(Space),,,,lyrical,,,,"--- ---- later, --- ------- ---------- ------- ----------<br>--- --------- --- ----------- ------- ----- ------- ---<br>--------- ---- -- --- ---- -- --------- -- ---- -------<br>-- --------- ------ --- ----- ------ ---- --- --------- --<br>------ - ---- -- --- ----------- ------- ---- ----- -----<br>--- -------- - ------ ---- -- ----- ---- --- --- -----------<br>-- -------",272550,272543,272168.52,272169,272169,272550.4,,2,"later,"
screen,html.Screen,2_3_1_0_1_3,2022-05-02T10:44:14.785Z,,,,,,,,,,,,,,,,,2,,,,,,,,,,,,,,398.5999999999767,,response,,,,1,F,,,,,,Space,keypress(Space),,,,lyrical,,,,--- ---- ------ the ------- ---------- ------- ----------<br>--- --------- --- ----------- ------- ----- ------- ---<br>--------- ---- -- --- ---- -- --------- -- ---- -------<br>-- --------- ------ --- ----- ------ ---- --- --------- --<br>------ - ---- -- --- ----------- ------- ---- ----- -----<br>--- -------- - ------ ---- -- ----- ---- --- --- -----------<br>-- -------,272959,272949,272549.92,272550,272550.4,272959.62,,3,the
screen,html.Screen,2_3_1_0_1_4,2022-05-02T10:44:15.243Z,,,,,,,,,,,,,,,,,2,,,,,,,,,,,,,,443.38000000000466,,response,,,,1,F,,,,,,Space,keypress(Space),,,,lyrical,,,,--- ---- ------ --- British ---------- ------- ----------<br>--- --------- --- ----------- ------- ----- ------- ---<br>--------- ---- -- --- ---- -- --------- -- ---- -------<br>-- --------- ------ --- ----- ------ ---- --- --------- --<br>------ - ---- -- --- ----------- ------- ---- ----- -----<br>--- -------- - ------ ---- -- ----- ---- --- --- -----------<br>-- -------,273417,273403,272959.12,272959,272959.62,273417.7,,4,British
screen,html.Screen,2_3_1_0_1_5,2022-05-02T10:44:15.668Z,,,,,,,,,,,,,,,,,2,,,,,,,,,,,,,,406.29999999998836,,response,,,,1,F,,,,,,Space,keypress(Space),,,,lyrical,,,,--- ---- ------ --- ------- astronomer ------- ----------<br>--- --------- --- ----------- ------- ----- ------- ---<br>--------- ---- -- --- ---- -- --------- -- ---- -------<br>-- --------- ------ --- ----- ------ ---- --- --------- --<br>------ - ---- -- --- ----------- ------- ---- ----- -----<br>--- -------- - ------ ---- -- ----- ---- --- --- -----------<br>-- -------,273842,273824,273417.22,273417,273417.7,273842.34,,5,astronomer
screen,html.Screen,2_3_1_0_1_6,2022-05-02T10:44:16.185Z,,,,,,,,,,,,,,,,,2,,,,,,,,,,,,,,497.6599999999744,,response,,,,1,F,,,,,,Space,keypress(Space),,,,lyrical,,,,--- ---- ------ --- ------- ---------- Richard ----------<br>--- --------- --- ----------- ------- ----- ------- ---<br>--------- ---- -- --- ---- -- --------- -- ---- -------<br>-- --------- ------ --- ----- ------ ---- --- --------- --<br>------ - ---- -- --- ----------- ------- ---- ----- -----<br>--- -------- - ------ ---- -- ----- ---- --- --- -----------<br>-- -------,274359,274340,273841.96,273842,273842.34,274359.76,,6,Richard
screen,html.Screen,2_3_1_0_1_7,2022-05-02T10:44:16.749Z,,,,,,,,,,,,,,,,,2,,,,,,,,,,,,,,558.2399999999907,,response,,,,1,F,,,,,,Space,keypress(Space),,,,lyrical,,,,--- ---- ------ --- ------- ---------- ------- Carrington<br>--- --------- --- ----------- ------- ----- ------- ---<br>--------- ---- -- --- ---- -- --------- -- ---- -------<br>-- --------- ------ --- ----- ------ ---- --- --------- --<br>------ - ---- -- --- ----------- ------- ---- ----- -----<br>--- -------- - ------ ---- -- ----- ---- --- --- -----------<br>-- -------,274923,274918,274359.42,274360,274359.76,274923.38,,7,Carrington
screen,html.Screen,2_3_1_0_1_8,2022-05-02T10:44:17.385Z,,,,,,,,,,,,,,,,,2,,,,,,,,,,,,,,619.6199999999953,,response,,,,1,F,,,,,,Space,keypress(Space),,,,lyrical,,,,--- ---- ------ --- ------- ---------- ------- ----------<br>was --------- --- ----------- ------- ----- ------- ---<br>--------- ---- -- --- ---- -- --------- -- ---- -------<br>-- --------- ------ --- ----- ------ ---- --- --------- --<br>------ - ---- -- --- ----------- ------- ---- ----- -----<br>--- -------- - ------ ---- -- ----- ---- --- --- -----------<br>-- -------,275559,275543,274923.06,274923,274923.38,275559.18,,8,was
screen,html.Screen,2_3_1_0_1_9,2022-05-02T10:44:17.890Z,,,,,,,,,,,,,,,,,2,,,,,,,,,,,,,,499.820000000007,,response,,,,1,F,,,,,,Space,keypress(Space),,,,lyrical,,,,--- ---- ------ --- ------- ---------- ------- ----------<br>--- observing --- ----------- ------- ----- ------- ---<br>--------- ---- -- --- ---- -- --------- -- ---- -------<br>-- --------- ------ --- ----- ------ ---- --- --------- --<br>------ - ---- -- --- ----------- ------- ---- ----- -----<br>--- -------- - ------ ---- -- ----- ---- --- --- -----------<br>-- -------,276064,276059,275558.86,275559,275559.18,276065.26,,9,observing
screen,html.Screen,2_3_1_0_1_10,2022-05-02T10:44:18.417Z,,,,,,,,,,,,,,,,,2,,,,,,,,,,,,,,508.7399999999907,,response,,,,1,F,,,,,,Space,keypress(Space),,,,lyrical,,,,--- ---- ------ --- ------- ---------- ------- ----------<br>--- --------- the ----------- ------- ----- ------- ---<br>--------- ---- -- --- ---- -- --------- -- ---- -------<br>-- --------- ------ --- ----- ------ ---- --- --------- --<br>------ - ---- -- --- ----------- ------- ---- ----- -----<br>--- -------- - ------ ---- -- ----- ---- --- --- -----------<br>-- -------,276591,276574,276064.9,276064,276065.26,276591.34,,10,the
screen,html.Screen,2_3_1_0_1_11,2022-05-02T10:44:18.985Z,,,,,,,,,,,,,,,,,2,,,,,,,,,,,,,,561.6599999999744,,response,,,,1,F,,,,,,Space,keypress(Space),,,,lyrical,,,,--- ---- ------ --- ------- ---------- ------- ----------<br>--- --------- --- interesting ------- ----- ------- ---<br>--------- ---- -- --- ---- -- --------- -- ---- -------<br>-- --------- ------ --- ----- ------ ---- --- --------- --<br>------ - ---- -- --- ----------- ------- ---- ----- -----<br>--- -------- - ------ ---- -- ----- ---- --- --- -----------<br>-- -------,277159,277153,276590.86,276591,276591.34,277159.8,,11,interesting
screen,html.Screen,2_3_1_0_1_12,2022-05-02T10:44:19.537Z,,,,,,,,,,,,,,,,,2,,,,,,,,,,,,,,539.2000000000116,,response,,,,1,F,,,,,,Space,keypress(Space),,,,lyrical,,,,--- ---- ------ --- ------- ---------- ------- ----------<br>--- --------- --- ----------- sunspot ----- ------- ---<br>--------- ---- -- --- ---- -- --------- -- ---- -------<br>-- --------- ------ --- ----- ------ ---- --- --------- --<br>------ - ---- -- --- ----------- ------- ---- ----- -----<br>--- -------- - ------ ---- -- ----- ---- --- --- -----------<br>-- -------,277711,277699,277159.32,277160,277159.8,277711.7,,12,sunspot
screen,html.Screen,2_3_1_0_1_13,2022-05-02T10:44:20.118Z,,,,,,,,,,,,,,,,,2,,,,,,,,,,,,,,566.2999999999884,,response,,,,1,F,,,,,,Space,keypress(Space),,,,lyrical,,,,--- ---- ------ --- ------- ---------- ------- ----------<br>--- --------- --- ----------- ------- group ------- ---<br>--------- ---- -- --- ---- -- --------- -- ---- -------<br>-- --------- ------ --- ----- ------ ---- --- --------- --<br>------ - ---- -- --- ----------- ------- ---- ----- -----<br>--- -------- - ------ ---- -- ----- ---- --- --- -----------<br>-- -------,278291,278278,277711.24,277711,277711.7,278292,,13,group
screen,html.Screen,2_3_1_0_1_14,2022-05-02T10:44:20.787Z,,,,,,,,,,,,,,,,,2,,,,,,,,,,,,,,657,,response,,,,1,F,,,,,,Space,keypress(Space),,,,lyrical,,,,--- ---- ------ --- ------- ---------- ------- ----------<br>--- --------- --- ----------- ------- ----- through ---<br>--------- ---- -- --- ---- -- --------- -- ---- -------<br>-- --------- ------ --- ----- ------ ---- --- --------- --<br>------ - ---- -- --- ----------- ------- ---- ----- -----<br>--- -------- - ------ ---- -- ----- ---- --- --- -----------<br>-- -------,278961,278949,278291.54,278291,278292,278962.28,,14,through
screen,html.Screen,2_3_1_0_1_15,2022-05-02T10:44:21.571Z,,,,,,,,,,,,,,,,,2,,,,,,,,,,,,,,768.7199999999721,,response,,,,1,F,,,,,,Space,keypress(Space),,,,lyrical,,,,--- ---- ------ --- ------- ---------- ------- ----------<br>--- --------- --- ----------- ------- ----- ------- his<br>--------- ---- -- --- ---- -- --------- -- ---- -------<br>-- --------- ------ --- ----- ------ ---- --- --------- --<br>------ - ---- -- --- ----------- ------- ---- ----- -----<br>--- -------- - ------ ---- -- ----- ---- --- --- -----------<br>-- -------,279745,279731,278961.8,278961,278962.28,279745.6,,15,his
screen,html.Screen,2_3_1_0_1_16,2022-05-02T10:44:22.185Z,,,,,,,,,,,,,,,,,2,,,,,,,,,,,,,,610.4000000000233,,response,,,,1,F,,,,,,Space,keypress(Space),,,,lyrical,,,,--- ---- ------ --- ------- ---------- ------- ----------<br>--- --------- --- ----------- ------- ----- ------- ---<br>telescope ---- -- --- ---- -- --------- -- ---- -------<br>-- --------- ------ --- ----- ------ ---- --- --------- --<br>------ - ---- -- --- ----------- ------- ---- ----- -----<br>--- -------- - ------ ---- -- ----- ---- --- --- -----------<br>-- -------,280359,280356,279745.16,279745,279745.6,280360.22,,16,telescope
screen,html.Screen,2_3_1_0_1_17,2022-05-02T10:44:22.831Z,,,,,,,,,,,,,,,,,2,,,,,,,,,,,,,,635.7800000000279,,response,,,,1,F,,,,,,Space,keypress(Space),,,,lyrical,,,,--- ---- ------ --- ------- ---------- ------- ----------<br>--- --------- --- ----------- ------- ----- ------- ---<br>--------- when -- --- ---- -- --------- -- ---- -------<br>-- --------- ------ --- ----- ------ ---- --- --------- --<br>------ - ---- -- --- ----------- ------- ---- ----- -----<br>--- -------- - ------ ---- -- ----- ---- --- --- -----------<br>-- -------,281005,280996,280359.76,280359,280360.22,281006.14,,17,when
screen,html.Screen,2_3_1_0_1_18,2022-05-02T10:44:23.605Z,,,,,,,,,,,,,,,,,2,,,,,,,,,,,,,,755.859999999986,,response,,,,1,F,,,,,,Space,keypress(Space),,,,lyrical,,,,--- ---- ------ --- ------- ---------- ------- ----------<br>--- --------- --- ----------- ------- ----- ------- ---<br>--------- ---- he --- ---- -- --------- -- ---- -------<br>-- --------- ------ --- ----- ------ ---- --- --------- --<br>------ - ---- -- --- ----------- ------- ---- ----- -----<br>--- -------- - ------ ---- -- ----- ---- --- --- -----------<br>-- -------,281778,281762,281005.76,281006,281006.14,281779.58,,18,he
screen,html.Screen,2_3_1_0_1_19,2022-05-02T10:44:24.385Z,,,,,,,,,,,,,,,,,2,,,,,,,,,,,,,,763.4199999999837,,response,,,,1,F,,,,,,Space,keypress(Space),,,,lyrical,,,,--- ---- ------ --- ------- ---------- ------- ----------<br>--- --------- --- ----------- ------- ----- ------- ---<br>--------- ---- -- saw ---- -- --------- -- ---- -------<br>-- --------- ------ --- ----- ------ ---- --- --------- --<br>------ - ---- -- --- ----------- ------- ---- ----- -----<br>--- -------- - ------ ---- -- ----- ---- --- --- -----------<br>-- -------,282559,282543,281779.06,281779,281779.58,282559.64,,19,saw
screen,html.Screen,2_3_1_0_1_20,2022-05-02T10:44:25.113Z,,,,,,,,,,,,,,,,,2,,,,,,,,,,,,,,718.359999999986,,response,,,,1,F,,,,,,Space,keypress(Space),,,,lyrical,,,,--- ---- ------ --- ------- ---------- ------- ----------<br>--- --------- --- ----------- ------- ----- ------- ---<br>--------- ---- -- --- what -- --------- -- ---- -------<br>-- --------- ------ --- ----- ------ ---- --- --------- --<br>------ - ---- -- --- ----------- ------- ---- ----- -----<br>--- -------- - ------ ---- -- ----- ---- --- --- -----------<br>-- -------,283287,283278,282559.16,282559,282559.64,283287.34,,20,what
screen,html.Screen,2_3_1_0_1_21,2022-05-02T10:44:25.689Z,,,,,,,,,,,,,,,,,2,,,,,,,,,,,,,,568.6599999999744,,response,,,,1,F,,,,,,Space,keypress(Space),,,,lyrical,,,,--- ---- ------ --- ------- ---------- ------- ----------<br>--- --------- --- ----------- ------- ----- ------- ---<br>--------- ---- -- --- ---- he --------- -- ---- -------<br>-- --------- ------ --- ----- ------ ---- --- --------- --<br>------ - ---- -- --- ----------- ------- ---- ----- -----<br>--- -------- - ------ ---- -- ----- ---- --- --- -----------<br>-- -------,283863,283856,283286.96,283287,283287.34,283864.26,,21,he
screen,html.Screen,2_3_1_0_1_22,2022-05-02T10:44:26.289Z,,,,,,,,,,,,,,,,,2,,,,,,,,,,,,,,584.7399999999907,,response,,,,1,F,,,,,,Space,keypress(Space),,,,lyrical,,,,--- ---- ------ --- ------- ---------- ------- ----------<br>--- --------- --- ----------- ------- ----- ------- ---<br>--------- ---- -- --- ---- -- described -- ---- -------<br>-- --------- ------ --- ----- ------ ---- --- --------- --<br>------ - ---- -- --- ----------- ------- ---- ----- -----<br>--- -------- - ------ ---- -- ----- ---- --- --- -----------<br>-- -------,284463,284449,283863.74,283863,283864.26,284463.72,,22,described
screen,html.Screen,2_3_1_0_1_23,2022-05-02T10:44:27.007Z,,,,,,,,,,,,,,,,,2,,,,,,,,,,,,,,704.2800000000279,,response,,,,1,F,,,,,,Space,keypress(Space),,,,lyrical,,,,--- ---- ------ --- ------- ---------- ------- ----------<br>--- --------- --- ----------- ------- ----- ------- ---<br>--------- ---- -- --- ---- -- --------- as ---- -------<br>-- --------- ------ --- ----- ------ ---- --- --------- --<br>------ - ---- -- --- ----------- ------- ---- ----- -----<br>--- -------- - ------ ---- -- ----- ---- --- --- -----------<br>-- -------,285181,285168,284463.24,284463,284463.72,285181.86,,23,as
screen,html.Screen,2_3_1_0_1_24,2022-05-02T10:44:27.554Z,,,,,,,,,,,,,,,,,2,,,,,,,,,,,,,,533.140000000014,,response,,,,1,F,,,,,,Space,keypress(Space),,,,lyrical,,,,"--- ---- ------ --- ------- ---------- ------- ----------<br>--- --------- --- ----------- ------- ----- ------- ---<br>--------- ---- -- --- ---- -- --------- -- ""two -------<br>-- --------- ------ --- ----- ------ ---- --- --------- --<br>------ - ---- -- --- ----------- ------- ---- ----- -----<br>--- -------- - ------ ---- -- ----- ---- --- --- -----------<br>-- -------",285728,285715,285181.58,285181,285181.86,285728.9,,24,"""two"
screen,html.Screen,2_3_1_0_1_25,2022-05-02T10:44:28.071Z,,,,,,,,,,,,,,,,,2,,,,,,,,,,,,,,502.0999999999767,,response,,,,1,F,,,,,,Space,keypress(Space),,,,lyrical,,,,--- ---- ------ --- ------- ---------- ------- ----------<br>--- --------- --- ----------- ------- ----- ------- ---<br>--------- ---- -- --- ---- -- --------- -- ---- patches<br>-- --------- ------ --- ----- ------ ---- --- --------- --<br>------ - ---- -- --- ----------- ------- ---- ----- -----<br>--- -------- - ------ ---- -- ----- ---- --- --- -----------<br>-- -------,286245,286231,285728.22,285728,285728.9,286246.14,,25,patches
screen,html.Screen,2_3_1_0_1_26,2022-05-02T10:44:28.821Z,,,,,,,,,,,,,,,,,2,,,,,,,,,,,,,,734.859999999986,,response,,,,1,F,,,,,,Space,keypress(Space),,,,lyrical,,,,--- ---- ------ --- ------- ---------- ------- ----------<br>--- --------- --- ----------- ------- ----- ------- ---<br>--------- ---- -- --- ---- -- --------- -- ---- -------<br>of --------- ------ --- ----- ------ ---- --- --------- --<br>------ - ---- -- --- ----------- ------- ---- ----- -----<br>--- -------- - ------ ---- -- ----- ---- --- --- -----------<br>-- -------,286995,286981,286245.7,286245,286246.14,286996.02,,26,of
screen,html.Screen,2_3_1_0_1_27,2022-05-02T10:44:29.379Z,,,,,,,,,,,,,,,,,2,,,,,,,,,,,,,,546.9799999999814,,response,,,,1,F,,,,,,Space,keypress(Space),,,,lyrical,,,,--- ---- ------ --- ------- ---------- ------- ----------<br>--- --------- --- ----------- ------- ----- ------- ---<br>--------- ---- -- --- ---- -- --------- -- ---- -------<br>-- intensely ------ --- ----- ------ ---- --- --------- --<br>------ - ---- -- --- ----------- ------- ---- ----- -----<br>--- -------- - ------ ---- -- ----- ---- --- --- -----------<br>-- -------,287553,287543,286995.36,286995,286996.02,287553.8,,27,intensely
screen,html.Screen,2_3_1_0_1_28,2022-05-02T10:44:29.997Z,,,,,,,,,,,,,,,,,2,,,,,,,,,,,,,,599.2000000000116,,response,,,,1,F,,,,,,Space,keypress(Space),,,,lyrical,,,,--- ---- ------ --- ------- ---------- ------- ----------<br>--- --------- --- ----------- ------- ----- ------- ---<br>--------- ---- -- --- ---- -- --------- -- ---- -------<br>-- --------- bright --- ----- ------ ---- --- --------- --<br>------ - ---- -- --- ----------- ------- ---- ----- -----<br>--- -------- - ------ ---- -- ----- ---- --- --- -----------<br>-- -------,288171,288153,287553.32,287553,287553.8,288171.72,,28,bright
screen,html.Screen,2_3_1_0_1_29,2022-05-02T10:44:30.583Z,,,,,,,,,,,,,,,,,2,,,,,,,,,,,,,,574.2800000000279,,response,,,,1,F,,,,,,Space,keypress(Space),,,,lyrical,,,,--- ---- ------ --- ------- ---------- ------- ----------<br>--- --------- --- ----------- ------- ----- ------- ---<br>--------- ---- -- --- ---- -- --------- -- ---- -------<br>-- --------- ------ and ----- ------ ---- --- --------- --<br>------ - ---- -- --- ----------- ------- ---- ----- -----<br>--- -------- - ------ ---- -- ----- ---- --- --- -----------<br>-- -------,288757,288746,288170.8,288171,288171.72,288758.04,,29,and
screen,html.Screen,2_3_1_0_1_30,2022-05-02T10:44:31.381Z,,,,,,,,,,,,,,,,,2,,,,,,,,,,,,,,784.960000000021,,response,,,,1,F,,,,,,Space,keypress(Space),,,,lyrical,,,,--- ---- ------ --- ------- ---------- ------- ----------<br>--- --------- --- ----------- ------- ----- ------- ---<br>--------- ---- -- --- ---- -- --------- -- ---- -------<br>-- --------- ------ --- white ------ ---- --- --------- --<br>------ - ---- -- --- ----------- ------- ---- ----- -----<br>--- -------- - ------ ---- -- ----- ---- --- --- -----------<br>-- -------,289555,289543,288757.58,288758,288758.04,289557.14,,30,white
screen,html.Screen,2_3_1_0_1_31,2022-05-02T10:44:32.054Z,,,,,,,,,,,,,,,,,2,,,,,,,,,,,,,,657.859999999986,,response,,,,1,F,,,,,,Space,keypress(Space),,,,lyrical,,,,"--- ---- ------ --- ------- ---------- ------- ----------<br>--- --------- --- ----------- ------- ----- ------- ---<br>--------- ---- -- --- ---- -- --------- -- ---- -------<br>-- --------- ------ --- ----- light"" ---- --- --------- --<br>------ - ---- -- --- ----------- ------- ---- ----- -----<br>--- -------- - ------ ---- -- ----- ---- --- --- -----------<br>-- -------",290227,290215,289555.52,289555,289557.14,290228.84,,31,"light"""
screen,html.Screen,2_3_1_0_1_32,2022-05-02T10:44:32.542Z,,,,,,,,,,,,,,,,,2,,,,,,,,,,,,,,470.1599999999744,,response,,,,1,F,,,,,,Space,keypress(Space),,,,lyrical,,,,--- ---- ------ --- ------- ---------- ------- ----------<br>--- --------- --- ----------- ------- ----- ------- ---<br>--------- ---- -- --- ---- -- --------- -- ---- -------<br>-- --------- ------ --- ----- ------ over --- --------- --<br>------ - ---- -- --- ----------- ------- ---- ----- -----<br>--- -------- - ------ ---- -- ----- ---- --- --- -----------<br>-- -------,290716,290699,290228.46,290229,290228.84,290716.68,,32,over
screen,html.Screen,2_3_1_0_1_33,2022-05-02T10:44:33.135Z,,,,,,,,,,,,,,,,,2,,,,,,,,,,,,,,576.320000000007,,response,,,,1,F,,,,,,Space,keypress(Space),,,,lyrical,,,,--- ---- ------ --- ------- ---------- ------- ----------<br>--- --------- --- ----------- ------- ----- ------- ---<br>--------- ---- -- --- ---- -- --------- -- ---- -------<br>-- --------- ------ --- ----- ------ ---- the --------- --<br>------ - ---- -- --- ----------- ------- ---- ----- -----<br>--- -------- - ------ ---- -- ----- ---- --- --- -----------<br>-- -------,291308,291293,290716.18,290716,290716.68,291309.2,,33,the
screen,html.Screen,2_3_1_0_1_34,2022-05-02T10:44:33.854Z,,,,,,,,,,,,,,,,,2,,,,,,,,,,,,,,702.7999999999884,,response,,,,1,F,,,,,,Space,keypress(Space),,,,lyrical,,,,--- ---- ------ --- ------- ---------- ------- ----------<br>--- --------- --- ----------- ------- ----- ------- ---<br>--------- ---- -- --- ---- -- --------- -- ---- -------<br>-- --------- ------ --- ----- ------ ---- --- sunspots. --<br>------ - ---- -- --- ----------- ------- ---- ----- -----<br>--- -------- - ------ ---- -- ----- ---- --- --- -----------<br>-- -------,292028,292012,291308.72,291309,291309.2,292028.06,,34,sunspots.
screen,html.Screen,2_3_1_0_1_35,2022-05-02T10:44:34.415Z,,,,,,,,,,,,,,,,,2,,,,,,,,,,,,,,545.9400000000023,,response,,,,1,F,,,,,,Space,keypress(Space),,,,lyrical,,,,--- ---- ------ --- ------- ---------- ------- ----------<br>--- --------- --- ----------- ------- ----- ------- ---<br>--------- ---- -- --- ---- -- --------- -- ---- -------<br>-- --------- ------ --- ----- ------ ---- --- --------- He<br>------ - ---- -- --- ----------- ------- ---- ----- -----<br>--- -------- - ------ ---- -- ----- ---- --- --- -----------<br>-- -------,292589,292574,292027.62,292028,292028.06,292590.2,,35,He
screen,html.Screen,2_3_1_0_1_36,2022-05-02T10:44:34.956Z,,,,,,,,,,,,,,,,,2,,,,,,,,,,,,,,530.7999999999884,,response,,,,1,F,,,,,,Space,keypress(Space),,,,lyrical,,,,--- ---- ------ --- ------- ---------- ------- ----------<br>--- --------- --- ----------- ------- ----- ------- ---<br>--------- ---- -- --- ---- -- --------- -- ---- -------<br>-- --------- ------ --- ----- ------ ---- --- --------- --<br>jotted - ---- -- --- ----------- ------- ---- ----- -----<br>--- -------- - ------ ---- -- ----- ---- --- --- -----------<br>-- -------,293130,293121,292589.7,292589,292590.2,293130.12,,36,jotted
screen,html.Screen,2_3_1_0_1_37,2022-05-02T10:44:35.476Z,,,,,,,,,,,,,,,,,2,,,,,,,,,,,,,,507.88000000000466,,response,,,,1,F,,,,,,Space,keypress(Space),,,,lyrical,,,,--- ---- ------ --- ------- ---------- ------- ----------<br>--- --------- --- ----------- ------- ----- ------- ---<br>--------- ---- -- --- ---- -- --------- -- ---- -------<br>-- --------- ------ --- ----- ------ ---- --- --------- --<br>------ a ---- -- --- ----------- ------- ---- ----- -----<br>--- -------- - ------ ---- -- ----- ---- --- --- -----------<br>-- -------,293650,293638,293129.78,293130,293130.12,293650.78,,37,a
screen,html.Screen,2_3_1_0_1_38,2022-05-02T10:44:36.067Z,,,,,,,,,,,,,,,,,2,,,,,,,,,,,,,,580.2199999999721,,response,,,,1,F,,,,,,Space,keypress(Space),,,,lyrical,,,,--- ---- ------ --- ------- ---------- ------- ----------<br>--- --------- --- ----------- ------- ----- ------- ---<br>--------- ---- -- --- ---- -- --------- -- ---- -------<br>-- --------- ------ --- ----- ------ ---- --- --------- --<br>------ - note -- --- ----------- ------- ---- ----- -----<br>--- -------- - ------ ---- -- ----- ---- --- --- -----------<br>-- -------,294241,294231,293650.28,293650,293650.78,294242,,38,note
screen,html.Screen,2_3_1_0_1_39,2022-05-02T10:44:36.571Z,,,,,,,,,,,,,,,,,2,,,,,,,,,,,,,,489,,response,,,,1,F,,,,,,Space,keypress(Space),,,,lyrical,,,,--- ---- ------ --- ------- ---------- ------- ----------<br>--- --------- --- ----------- ------- ----- ------- ---<br>--------- ---- -- --- ---- -- --------- -- ---- -------<br>-- --------- ------ --- ----- ------ ---- --- --------- --<br>------ - ---- in --- ----------- ------- ---- ----- -----<br>--- -------- - ------ ---- -- ----- ---- --- --- -----------<br>-- -------,294745,294731,294241.5,294241,294242,294745.18,,39,in
screen,html.Screen,2_3_1_0_1_40,2022-05-02T10:44:37.015Z,,,,,,,,,,,,,,,,,2,,,,,,,,,,,,,,438.820000000007,,response,,,,1,F,,,,,,Space,keypress(Space),,,,lyrical,,,,--- ---- ------ --- ------- ---------- ------- ----------<br>--- --------- --- ----------- ------- ----- ------- ---<br>--------- ---- -- --- ---- -- --------- -- ---- -------<br>-- --------- ------ --- ----- ------ ---- --- --------- --<br>------ - ---- -- his ----------- ------- ---- ----- -----<br>--- -------- - ------ ---- -- ----- ---- --- --- -----------<br>-- -------,295189,295184,294744.82,294745,294745.18,295190.08,,40,his
screen,html.Screen,2_3_1_0_1_41,2022-05-02T10:44:37.549Z,,,,,,,,,,,,,,,,,2,,,,,,,,,,,,,,524.9199999999837,,response,,,,1,F,,,,,,Space,keypress(Space),,,,lyrical,,,,--- ---- ------ --- ------- ---------- ------- ----------<br>--- --------- --- ----------- ------- ----- ------- ---<br>--------- ---- -- --- ---- -- --------- -- ---- -------<br>-- --------- ------ --- ----- ------ ---- --- --------- --<br>------ - ---- -- --- painstaking ------- ---- ----- -----<br>--- -------- - ------ ---- -- ----- ---- --- --- -----------<br>-- -------,295724,295715,295189.58,295189,295190.08,295724.46,,41,painstaking
screen,html.Screen,2_3_1_0_1_42,2022-05-02T10:44:38.435Z,,,,,,,,,,,,,,,,,2,,,,,,,,,,,,,,865.539999999979,,response,,,,1,F,,,,,,Space,keypress(Space),,,,lyrical,,,,--- ---- ------ --- ------- ---------- ------- ----------<br>--- --------- --- ----------- ------- ----- ------- ---<br>--------- ---- -- --- ---- -- --------- -- ---- -------<br>-- --------- ------ --- ----- ------ ---- --- --------- --<br>------ - ---- -- --- ----------- record. ---- ----- -----<br>--- -------- - ------ ---- -- ----- ---- --- --- -----------<br>-- -------,296609,296590,295723.98,295724,295724.46,296609.5,,42,record.
screen,html.Screen,2_3_1_0_1_43,2022-05-02T10:44:39.161Z,,,,,,,,,,,,,,,,,2,,,,,,,,,,,,,,714.5,,response,,,,1,F,,,,,,Space,keypress(Space),,,,lyrical,,,,--- ---- ------ --- ------- ---------- ------- ----------<br>--- --------- --- ----------- ------- ----- ------- ---<br>--------- ---- -- --- ---- -- --------- -- ---- -------<br>-- --------- ------ --- ----- ------ ---- --- --------- --<br>------ - ---- -- --- ----------- ------- That ----- -----<br>--- -------- - ------ ---- -- ----- ---- --- --- -----------<br>-- -------,297335,297324,296609,296609,296609.5,297335.4,,43,That
screen,html.Screen,2_3_1_0_1_44,2022-05-02T10:44:40.546Z,,,,,,,,,,,,,,,,,2,,,,,,,,,,,,,,1379.5999999999767,,response,,,,1,F,,,,,,Space,keypress(Space),,,,lyrical,,,,--- ---- ------ --- ------- ---------- ------- ----------<br>--- --------- --- ----------- ------- ----- ------- ---<br>--------- ---- -- --- ---- -- --------- -- ---- -------<br>-- --------- ------ --- ----- ------ ---- --- --------- --<br>------ - ---- -- --- ----------- ------- ---- night -----<br>--- -------- - ------ ---- -- ----- ---- --- --- -----------<br>-- -------,298720,298715,297335,297335,297335.4,298720.9,,44,night
screen,html.Screen,2_3_1_0_1_45,2022-05-02T10:44:41.087Z,,,,,,,,,,,,,,,,,2,,,,,,,,,,,,,,525.0999999999767,,response,,,,1,F,,,,,,Space,keypress(Space),,,,lyrical,,,,--- ---- ------ --- ------- ---------- ------- ----------<br>--- --------- --- ----------- ------- ----- ------- ---<br>--------- ---- -- --- ---- -- --------- -- ---- -------<br>-- --------- ------ --- ----- ------ ---- --- --------- --<br>------ - ---- -- --- ----------- ------- ---- ----- there<br>--- -------- - ------ ---- -- ----- ---- --- --- -----------<br>-- -------,299261,299246,298720.4,298720,298720.9,299260.88,,45,there
screen,html.Screen,2_3_1_0_1_46,2022-05-02T10:44:41.591Z,,,,,,,,,,,,,,,,,2,,,,,,,,,,,,,,501.11999999999534,,response,,,,1,F,,,,,,Space,keypress(Space),,,,lyrical,,,,--- ---- ------ --- ------- ---------- ------- ----------<br>--- --------- --- ----------- ------- ----- ------- ---<br>--------- ---- -- --- ---- -- --------- -- ---- -------<br>-- --------- ------ --- ----- ------ ---- --- --------- --<br>------ - ---- -- --- ----------- ------- ---- ----- -----<br>was -------- - ------ ---- -- ----- ---- --- --- -----------<br>-- -------,299765,299762,299260.66,299261,299260.88,299766.28,,46,was
screen,html.Screen,2_3_1_0_1_47,2022-05-02T10:44:42.182Z,,,,,,,,,,,,,,,,,2,,,,,,,,,,,,,,573.7199999999721,,response,,,,1,F,,,,,,Space,keypress(Space),,,,lyrical,,,,--- ---- ------ --- ------- ---------- ------- ----------<br>--- --------- --- ----------- ------- ----- ------- ---<br>--------- ---- -- --- ---- -- --------- -- ---- -------<br>-- --------- ------ --- ----- ------ ---- --- --------- --<br>------ - ---- -- --- ----------- ------- ---- ----- -----<br>--- scarcely - ------ ---- -- ----- ---- --- --- -----------<br>-- -------,300356,300340,299765.78,299765,299766.28,300356.88,,47,scarcely
screen,html.Screen,2_3_1_0_1_48,2022-05-02T10:44:42.696Z,,,,,,,,,,,,,,,,,2,,,,,,,,,,,,,,499.11999999999534,,response,,,,1,F,,,,,,Space,keypress(Space),,,,lyrical,,,,--- ---- ------ --- ------- ---------- ------- ----------<br>--- --------- --- ----------- ------- ----- ------- ---<br>--------- ---- -- --- ---- -- --------- -- ---- -------<br>-- --------- ------ --- ----- ------ ---- --- --------- --<br>------ - ---- -- --- ----------- ------- ---- ----- -----<br>--- -------- a ------ ---- -- ----- ---- --- --- -----------<br>-- -------,300870,300856,300356.28,300356,300356.88,300870.86,,48,a
