sender,sender_type,sender_id,timestamp,meta,,Blues,Classical,Country,Dance,Electronic,Folk,Gospel,Hip-Hop,Jazz,Latin,Musical/Film,New-age,Pop,Prolific_id,Provo_ID,R&B,Rap,Reggae,Religious,Rock,Soul,Swing,Traditional,age,artist_name,correct,correctResponse,distraction,duration,education,ended_on,familiarity,gender,headphone_check_performance,item,list,music_frequency,offensiveness,pleasantness,position_correct,preference,response,response_action,snippet_file,song_name,song_rating,sound,stimulus_1,stimulus_2,stimulus_3,text,time_commit,time_end,time_render,time_run,time_show,time_switch,url,word,word_ID
Prolific ID,html.Form,0,2022-05-02T11:42:09.147Z,"{""labjs_version"":""20.2.2"",""labjs_build"":{""flavor"":""production"",""commit"":""a25486e0c714a0ae2ce03ff94b7bb6896854dcfa""},""location"":""https://run.pavlovia.org/mvasilev/prolific3_music_g/"",""userAgent"":""Mozilla/5.0 (Windows NT 10.0; Win64; x64) AppleWebKit/537.36 (KHTML, like Gecko) Chrome/100.0.4896.127 Safari/537.36"",""platform"":""Win32"",""language"":""en-GB"",""locale"":""en-GB"",""timeZone"":""Europe/London"",""timezoneOffset"":-60,""screen_width"":1463,""screen_height"":823,""scroll_width"":1464,""scroll_height"":671,""window_innerWidth"":1464,""window_innerHeight"":719,""devicePixelRatio"":1.3125}",,,,,,,,,,,,,,,62349099af33a7e0ca9357f5,,,,,,,,,,,,,,,7384.769000023842,,form submission,,,,,,,,,,,,,,,,,,,,,14310.899999976158,14310.600000023842,6908.473,6910.600000023842,6925.831,14309.134,{},,
Introduction,html.Screen,1_0,2022-05-02T11:43:41.733Z,,,,,,,,,,,,,,,,,,,,,,,,,,,,,,,92586.26599997615,,response,,,,,,,,,,,continue,click button,,,,,,,,,106897.10000002384,106895.39999997616,14292.538,14311,14309.134,106909.093,,,
Volume calibration,html.Screen,1_1,2022-05-02T11:44:02.387Z,,,,,,,,,,,,,,,,,,,,,,,,,,,,,,,20639.907000000007,,response,,,,,,,,,,,continue,click button,,,,,,,,,127551,127549,106892.8,106897.20000004768,106909.093,127559.116,,,
Task instructions,html.Screen,1_2,2022-05-02T11:44:20.840Z,,,,,,,,,,,,,,,,,,,,,,,,,,,,,,,18443.783999976164,,response,,,,,,,,,,,continue,click button,,,,,,,,,146003.5,146002.89999997616,127542.482,127551,127559.116,146010.388,,,
Sounds,html.Screen,1_3_0_0,2022-05-02T11:44:25.080Z,,,,,,,,,,,,,,,,,,,,,,,,,,,,,,,4248.729999999981,,timeout,,,,,,,,,2,,,,,,,,I,S,O,,150243.79999995232,150242.523,145992.782,146003.60000002384,146010.388,150259.118,,,
Judgement,html.Screen,1_3_0_1,2022-05-02T11:44:28.863Z,,,,,,,,,,,,,,,,,,,,,,,,,,,,false,2,,3767.3820000000123,,response,,,,,,,,,2,,1,click #choice-1,,,,,I,S,O,,154027.20000004768,154026.5,150242.523,150243.89999997616,150259.118,154042.802,,,
Trial,flow.Sequence,1_3_0,2022-05-02T11:44:28.864Z,,,,,,,,,,,,,,,,,,,,,,,,,,,,,,,8016.111999999994,,completion,,,,,,,,,2,,,,,,,,I,S,O,,154028.10000002384,154026.5,145992.782,146003.5,146010.388,154042.802,,,
Sounds,html.Screen,1_3_1_0,2022-05-02T11:44:33.113Z,,,,,,,,,,,,,,,,,,,,,,,,,,,,,,,4249.643000000011,,timeout,,,,,,,,,3,,,,,,,,I,O,S,,158276.70000004768,158276.115,154024.784,154028.20000004768,154042.802,158292.445,,,
Judgement,html.Screen,1_3_1_1,2022-05-02T11:44:34.128Z,,,,,,,,,,,,,,,,,,,,,,,,,,,,true,3,,998.7550000476767,,response,,,,,,,,,3,,3,click #choice-3,,,,,I,O,S,,159291.89999997616,159291.20000004768,158276.115,158276.79999995232,158292.445,159316.884,,,
Trial,flow.Sequence,1_3_1,2022-05-02T11:44:34.128Z,,,,,,,,,,,,,,,,,,,,,,,,,,,,,,,5248.398000047688,,completion,,,,,,,,,3,,,,,,,,I,O,S,,159292,159291.20000004768,154024.784,154028.20000004768,154042.802,159316.884,,,
Sounds,html.Screen,1_3_2_0,2022-05-02T11:44:38.380Z,,,,,,,,,,,,,,,,,,,,,,,,,,,,,,,4242.248000000021,,timeout,,,,,,,,,1,,,,,,,,S,O,I,,163543.39999997616,163542.706,159276.128,159292.10000002384,159316.884,163559.132,,,
Judgement,html.Screen,1_3_2_1,2022-05-02T11:44:38.982Z,,,,,,,,,,,,,,,,,,,,,,,,,,,,true,1,,586.2679999761458,,response,,,,,,,,,1,,1,click #choice-1,,,,,S,O,I,,164146.10000002384,164145.39999997616,163542.706,163543.39999997616,163559.132,164159.358,,,
Trial,flow.Sequence,1_3_2,2022-05-02T11:44:38.982Z,,,,,,,,,,,,,,,,,,,,,,,,,,,,,,,4828.515999976167,,completion,,,,,,,,,1,,,,,,,,S,O,I,,164146.20000004768,164145.39999997616,159276.128,159292,159316.884,164159.358,,,
Sounds,html.Screen,1_3_3_0,2022-05-02T11:44:43.230Z,,,,,,,,,,,,,,,,,,,,,,,,,,,,,,,4249.736999999994,,timeout,,,,,,,,,1,,,,,,,,S,I,O,,168393.60000002384,168392.765,164142.696,164146.29999995232,164159.358,168409.095,,,
Judgement,html.Screen,1_3_3_1,2022-05-02T11:44:44.209Z,,,,,,,,,,,,,,,,,,,,,,,,,,,,true,1,,962.9049999999988,,response,,,,,,,,,1,,1,click #choice-1,,,,,S,I,O,,169372.5,169372,168392.765,168393.60000002384,168409.095,169375.826,,,
Trial,flow.Sequence,1_3_3,2022-05-02T11:44:44.209Z,,,,,,,,,,,,,,,,,,,,,,,,,,,,,,,5212.641999999993,,completion,,,,,,,,,1,,,,,,,,S,I,O,,169372.60000002384,169372,164142.696,164146.29999995232,164159.358,169375.826,,,
Sounds,html.Screen,1_3_4_0,2022-05-02T11:44:48.447Z,,,,,,,,,,,,,,,,,,,,,,,,,,,,,,,4250.1570000000065,,timeout,,,,,,,,,2,,,,,,,,O,S,I,,173610.60000002384,173609.15,169359.348,169372.70000004768,169375.826,173625.983,,,
Judgement,html.Screen,1_3_4_1,2022-05-02T11:44:48.938Z,,,,,,,,,,,,,,,,,,,,,,,,,,,,true,2,,475.21700004767627,,response,,,,,,,,,2,,2,click #choice-2,,,,,O,S,I,,174101.79999995232,174101.20000004768,173609.15,173610.60000002384,173625.983,174126.105,,,
Trial,flow.Sequence,1_3_4,2022-05-02T11:44:48.938Z,,,,,,,,,,,,,,,,,,,,,,,,,,,,,,,4725.374000047683,,completion,,,,,,,,,2,,,,,,,,O,S,I,,174101.89999997616,174101.20000004768,169359.348,169372.70000004768,169375.826,174126.105,,,
Sounds,html.Screen,1_3_5_0,2022-05-02T11:44:53.196Z,,,,,,,,,,,,,,,,,,,,,,,,,,,,,,,4249.676999999996,,timeout,,,,,,,,,3,,,,,,,,O,I,S,,178359.5,178359.116,174109.335,174102,174126.105,178375.782,,,
Judgement,html.Screen,1_3_5_1,2022-05-02T11:44:53.626Z,,,,,,,,,,,,,,,,,,,,,,,,,,,,true,3,,413.1179999761516,,response,,,,,,,,,3,,3,click #choice-3,,,,,O,I,S,,178789.60000002384,178788.89999997616,178359.116,178359.60000002384,178375.782,178792.409,,,
Trial,flow.Sequence,1_3_5,2022-05-02T11:44:53.626Z,,,,,,,,,,,,,,,,,,,,,,,,,,,,,,,4662.794999976148,,completion,,,,,,,,,3,,,,,,,,O,I,S,,178789.70000004768,178788.89999997616,174109.335,174102,174126.105,178792.409,,,
Task,flow.Loop,1_3,2022-05-02T11:44:53.628Z,,,,,,,,,,,,,,,,,,,,,,,,,,,,,,,32778.51199997615,,completion,,,0.8333333333333334,,,,,,,,,,,,,,,,,,178792,178788.89999997616,145992.782,146003.5,146010.388,178792.409,,,
Trap,html.Screen,1_4,2022-05-02T11:44:53.629Z,,,,,,,,,,,,,,,,,,,,,,,,,,,,,,,NaN,,skipped,,,,,,,,,,,,,,,,,,,,,178792.70000004768,178788.89999997616,,178792.60000002384,,178792.409,,,
Thanks,html.Screen,1_5,2022-05-02T11:44:57.911Z,,,,,,,,,,,,,,,,,,,,,,,,,,,,,,,4281.890999952302,,response,,,,,,,,,,,continue,click button,,,,,,,,,183075,183074.29999995232,178776.04,178792.79999995232,178792.409,188242.4,,,
Headphone screening,flow.Sequence,1,2022-05-02T11:44:57.911Z,,,,,,,,,,,,,,,,,,,,,,,,,,,,,,,168765.16599995233,,completion,,,,,,,,,,,,,,,,,,,,,183075.10000002384,183074.29999995232,14292.538,14311,14309.134,188242.4,,,
Instructions,html.Page,2_0,2022-05-02T11:45:25.438Z,,,,,,,,,,,,,,,,,,,,,,,,,,,,,,,22359.30000004769,,form submission,,,,,,,,,,,,,,,,,,,,,210602,210601.70000004768,188226.031,188238.5,188242.4,210609.085,,,
Holding screen,html.Screen,2_1_0_0,2022-05-02T11:45:35.429Z,,,,,,,,,,,,,,,,,,,,,,,,,,,,,,,10000.06700000001,,timeout,,,,,,,,,,,,,,,,,,,,,220592.79999995232,220592.494,210592.444,210602.10000002384,210609.085,220609.152,,,
screen,html.Screen,2_1_0_1_0,2022-05-02T11:45:36.606Z,,,,,,,,,,,,,,,,,53,,,,,,,,,,,,,,1159.3479999999981,,response,,,,99,,,,,,,Space,keypress(Space),,,,,,,,When -- ----- -- ------ - ------- --- ----------<br>------------- ------ ------ ---- ---- ------- ----- -- ----<br>-------- ------- -- ---------- --- - --- ----- ----- ----<br>---- --- --- ----- --- ---- ---- ------- ----- ---- -------<br>--- --- -- ----- -- --- ---- -- --- ---- -- ------ ------<br>--- ----- -- ----,221770,221768.5,220592.494,220592.89999997616,220609.152,221775.76,,0,When
screen,html.Screen,2_1_0_1_1,2022-05-02T11:45:37.741Z,,,,,,,,,,,,,,,,,53,,,,,,,,,,,,,,1128.4400000476744,,response,,,,99,,,,,,,Space,keypress(Space),,,,,,,,---- it ----- -- ------ - ------- --- ----------<br>------------- ------ ------ ---- ---- ------- ----- -- ----<br>-------- ------- -- ---------- --- - --- ----- ----- ----<br>---- --- --- ----- --- ---- ---- ------- ----- ---- -------<br>--- --- -- ----- -- --- ---- -- --- ---- -- ------ ------<br>--- ----- -- ----,222904.60000002384,222904.20000004768,221759.158,221770,221775.76,222909.146,,1,it
screen,html.Screen,2_1_0_1_2,2022-05-02T11:45:38.685Z,,,,,,,,,,,,,,,,,53,,,,,,,,,,,,,,939.3539999999921,,response,,,,99,,,,,,,Space,keypress(Space),,,,,,,,---- -- comes -- ------ - ------- --- ----------<br>------------- ------ ------ ---- ---- ------- ----- -- ----<br>-------- ------- -- ---------- --- - --- ----- ----- ----<br>---- --- --- ----- --- ---- ---- ------- ----- ---- -------<br>--- --- -- ----- -- --- ---- -- --- ---- -- ------ ------<br>--- ----- -- ----,223849,223848.5,222892.145,222904.60000002384,222909.146,223859.138,,2,comes
screen,html.Screen,2_1_0_1_3,2022-05-02T11:45:39.375Z,,,,,,,,,,,,,,,,,53,,,,,,,,,,,,,,679.4620000238356,,response,,,,99,,,,,,,Space,keypress(Space),,,,,,,,---- -- ----- to ------ - ------- --- ----------<br>------------- ------ ------ ---- ---- ------- ----- -- ----<br>-------- ------- -- ---------- --- - --- ----- ----- ----<br>---- --- --- ----- --- ---- ---- ------- ----- ---- -------<br>--- --- -- ----- -- --- ---- -- --- ---- -- ------ ------<br>--- ----- -- ----,224539.10000002384,224538.60000002384,223842.544,223849.10000002384,223859.138,224542.44,,3,to
screen,html.Screen,2_1_0_1_4,2022-05-02T11:45:40.236Z,,,,,,,,,,,,,,,,,53,,,,,,,,,,,,,,856.7600000476814,,response,,,,99,,,,,,,Space,keypress(Space),,,,,,,,---- -- ----- -- having - ------- --- ----------<br>------------- ------ ------ ---- ---- ------- ----- -- ----<br>-------- ------- -- ---------- --- - --- ----- ----- ----<br>---- --- --- ----- --- ---- ---- ------- ----- ---- -------<br>--- --- -- ----- -- --- ---- -- --- ---- -- ------ ------<br>--- ----- -- ----,225399.60000002384,225399.20000004768,224525.594,224539.20000004768,224542.44,225409.154,,4,having
screen,html.Screen,2_1_0_1_5,2022-05-02T11:45:40.727Z,,,,,,,,,,,,,,,,,53,,,,,,,,,,,,,,481.14599995230674,,response,,,,99,,,,,,,Space,keypress(Space),,,,,,,,---- -- ----- -- ------ a ------- --- ----------<br>------------- ------ ------ ---- ---- ------- ----- -- ----<br>-------- ------- -- ---------- --- - --- ----- ----- ----<br>---- --- --- ----- --- ---- ---- ------- ----- ---- -------<br>--- --- -- ----- -- --- ---- -- --- ---- -- ------ ------<br>--- ----- -- ----,225890.70000004768,225890.29999995232,225392.442,225399.70000004768,225409.154,225892.43,,5,a
screen,html.Screen,2_1_0_1_6,2022-05-02T11:45:41.508Z,,,,,,,,,,,,,,,,,53,,,,,,,,,,,,,,778.9699999761651,,response,,,,99,,,,,,,Space,keypress(Space),,,,,,,,---- -- ----- -- ------ - lasting --- ----------<br>------------- ------ ------ ---- ---- ------- ----- -- ----<br>-------- ------- -- ---------- --- - --- ----- ----- ----<br>---- --- --- ----- --- ---- ---- ------- ----- ---- -------<br>--- --- -- ----- -- --- ---- -- --- ---- -- ------ ------<br>--- ----- -- ----,226671.79999995232,226671.39999997616,225875.649,225890.79999995232,225892.43,226675.844,,6,lasting
screen,html.Screen,2_1_0_1_7,2022-05-02T11:45:42.286Z,,,,,,,,,,,,,,,,,53,,,,,,,,,,,,,,773.6559999999881,,response,,,,99,,,,,,,Space,keypress(Space),,,,,,,,---- -- ----- -- ------ - ------- and ----------<br>------------- ------ ------ ---- ---- ------- ----- -- ----<br>-------- ------- -- ---------- --- - --- ----- ----- ----<br>---- --- --- ----- --- ---- ---- ------- ----- ---- -------<br>--- --- -- ----- -- --- ---- -- --- ---- -- ------ ------<br>--- ----- -- ----,227449.79999995232,227449.5,226659.177,226671.89999997616,226675.844,227459.283,,7,and
screen,html.Screen,2_1_0_1_8,2022-05-02T11:45:43.453Z,,,,,,,,,,,,,,,,,53,,,,,,,,,,,,,,1157.2170000000042,,response,,,,99,,,,,,,Space,keypress(Space),,,,,,,,---- -- ----- -- ------ - ------- --- fulfilling<br>------------- ------ ------ ---- ---- ------- ----- -- ----<br>-------- ------- -- ---------- --- - --- ----- ----- ----<br>---- --- --- ----- --- ---- ---- ------- ----- ---- -------<br>--- --- -- ----- -- --- ---- -- --- ---- -- ------ ------<br>--- ----- -- ----,228617,228616.5,227442.555,227449.89999997616,227459.283,228625.818,,8,fulfilling
screen,html.Screen,2_1_0_1_9,2022-05-02T11:45:45.068Z,,,,,,,,,,,,,,,,,53,,,,,,,,,,,,,,1605.0819999761588,,response,,,,99,,,,,,,Space,keypress(Space),,,,,,,,"---- -- ----- -- ------ - ------- --- ----------<br>relationship, ------ ------ ---- ---- ------- ----- -- ----<br>-------- ------- -- ---------- --- - --- ----- ----- ----<br>---- --- --- ----- --- ---- ---- ------- ----- ---- -------<br>--- --- -- ----- -- --- ---- -- --- ---- -- ------ ------<br>--- ----- -- ----",230231.89999997616,230230.89999997616,228609.018,228617,228625.818,230242.422,,9,"relationship,"
screen,html.Screen,2_1_0_1_10,2022-05-02T11:45:46.095Z,,,,,,,,,,,,,,,,,53,,,,,,,,,,,,,,1015.8779999523249,,response,,,,99,,,,,,,Space,keypress(Space),,,,,,,,---- -- ----- -- ------ - ------- --- ----------<br>------------- common ------ ---- ---- ------- ----- -- ----<br>-------- ------- -- ---------- --- - --- ----- ----- ----<br>---- --- --- ----- --- ---- ---- ------- ----- ---- -------<br>--- --- -- ----- -- --- ---- -- --- ---- -- ------ ------<br>--- ----- -- ----,231258.60000002384,231258.29999995232,230225.829,230231.89999997616,230242.422,231276.129,,10,common
screen,html.Screen,2_1_0_1_11,2022-05-02T11:45:47.029Z,,,,,,,,,,,,,,,,,53,,,,,,,,,,,,,,916.67099995233,,response,,,,99,,,,,,,Space,keypress(Space),,,,,,,,---- -- ----- -- ------ - ------- --- ----------<br>------------- ------ wisdom ---- ---- ------- ----- -- ----<br>-------- ------- -- ---------- --- - --- ----- ----- ----<br>---- --- --- ----- --- ---- ---- ------- ----- ---- -------<br>--- --- -- ----- -- --- ---- -- --- ---- -- ------ ------<br>--- ----- -- ----,232193.20000004768,232192.79999995232,231258.818,231258.60000002384,231276.129,232209.171,,11,wisdom
screen,html.Screen,2_1_0_1_12,2022-05-02T11:45:47.770Z,,,,,,,,,,,,,,,,,53,,,,,,,,,,,,,,723.9290000238398,,response,,,,99,,,,,,,Space,keypress(Space),,,,,,,,---- -- ----- -- ------ - ------- --- ----------<br>------------- ------ ------ says ---- ------- ----- -- ----<br>-------- ------- -- ---------- --- - --- ----- ----- ----<br>---- --- --- ----- --- ---- ---- ------- ----- ---- -------<br>--- --- -- ----- -- --- ---- -- --- ---- -- ------ ------<br>--- ----- -- ----,232933.60000002384,232933.10000002384,232192.403,232193.20000004768,232209.171,232942.478,,12,says
screen,html.Screen,2_1_0_1_13,2022-05-02T11:45:48.356Z,,,,,,,,,,,,,,,,,53,,,,,,,,,,,,,,576.8219999523135,,response,,,,99,,,,,,,Space,keypress(Space),,,,,,,,---- -- ----- -- ------ - ------- --- ----------<br>------------- ------ ------ ---- that ------- ----- -- ----<br>-------- ------- -- ---------- --- - --- ----- ----- ----<br>---- --- --- ----- --- ---- ---- ------- ----- ---- -------<br>--- --- -- ----- -- --- ---- -- --- ---- -- ------ ------<br>--- ----- -- ----,233519.70000004768,233519.29999995232,232925.841,232933.60000002384,232942.478,233525.818,,13,that
screen,html.Screen,2_1_0_1_14,2022-05-02T11:45:49.161Z,,,,,,,,,,,,,,,,,53,,,,,,,,,,,,,,798.481999952317,,response,,,,99,,,,,,,Space,keypress(Space),,,,,,,,---- -- ----- -- ------ - ------- --- ----------<br>------------- ------ ------ ---- ---- feeling ----- -- ----<br>-------- ------- -- ---------- --- - --- ----- ----- ----<br>---- --- --- ----- --- ---- ---- ------- ----- ---- -------<br>--- --- -- ----- -- --- ---- -- --- ---- -- ------ ------<br>--- ----- -- ----,234324.70000004768,234324.29999995232,233509.168,233519.79999995232,233525.818,234346.263,,14,feeling
screen,html.Screen,2_1_0_1_15,2022-05-02T11:45:49.704Z,,,,,,,,,,,,,,,,,53,,,,,,,,,,,,,,521.2369999999937,,response,,,,99,,,,,,,Space,keypress(Space),,,,,,,,---- -- ----- -- ------ - ------- --- ----------<br>------------- ------ ------ ---- ---- ------- close -- ----<br>-------- ------- -- ---------- --- - --- ----- ----- ----<br>---- --- --- ----- --- ---- ---- ------- ----- ---- -------<br>--- --- -- ----- -- --- ---- -- --- ---- -- ------ ------<br>--- ----- -- ----,234867.79999995232,234867.5,234309.195,234324.79999995232,234346.263,234875.809,,15,close
screen,html.Screen,2_1_0_1_16,2022-05-02T11:45:50.057Z,,,,,,,,,,,,,,,,,53,,,,,,,,,,,,,,344.6909999999916,,response,,,,99,,,,,,,Space,keypress(Space),,,,,,,,---- -- ----- -- ------ - ------- --- ----------<br>------------- ------ ------ ---- ---- ------- ----- to ----<br>-------- ------- -- ---------- --- - --- ----- ----- ----<br>---- --- --- ----- --- ---- ---- ------- ----- ---- -------<br>--- --- -- ----- -- --- ---- -- --- ---- -- ------ ------<br>--- ----- -- ----,235220.79999995232,235220.5,234859.321,234867.89999997616,234875.809,235225.855,,16,to
screen,html.Screen,2_1_0_1_17,2022-05-02T11:45:50.513Z,,,,,,,,,,,,,,,,,53,,,,,,,,,,,,,,450.34500004767324,,response,,,,99,,,,,,,Space,keypress(Space),,,,,,,,---- -- ----- -- ------ - ------- --- ----------<br>------------- ------ ------ ---- ---- ------- ----- -- your<br>-------- ------- -- ---------- --- - --- ----- ----- ----<br>---- --- --- ----- --- ---- ---- ------- ----- ---- -------<br>--- --- -- ----- -- --- ---- -- --- ---- -- ------ ------<br>--- ----- -- ----,235676.60000002384,235676.20000004768,235209.139,235220.89999997616,235225.855,235692.685,,17,your
screen,html.Screen,2_1_0_1_18,2022-05-02T11:45:51.097Z,,,,,,,,,,,,,,,,,53,,,,,,,,,,,,,,567.9150000238442,,response,,,,99,,,,,,,Space,keypress(Space),,,,,,,,---- -- ----- -- ------ - ------- --- ----------<br>------------- ------ ------ ---- ---- ------- ----- -- ----<br>romantic ------- -- ---------- --- - --- ----- ----- ----<br>---- --- --- ----- --- ---- ---- ------- ----- ---- -------<br>--- --- -- ----- -- --- ---- -- --- ---- -- ------ ------<br>--- ----- -- ----,236261.20000004768,236260.60000002384,235675.661,235676.70000004768,235692.685,236276.064,,18,romantic
screen,html.Screen,2_1_0_1_19,2022-05-02T11:45:51.676Z,,,,,,,,,,,,,,,,,53,,,,,,,,,,,,,,562.935999999987,,response,,,,99,,,,,,,Space,keypress(Space),,,,,,,,---- -- ----- -- ------ - ------- --- ----------<br>------------- ------ ------ ---- ---- ------- ----- -- ----<br>-------- partner -- ---------- --- - --- ----- ----- ----<br>---- --- --- ----- --- ---- ---- ------- ----- ---- -------<br>--- --- -- ----- -- --- ---- -- --- ---- -- ------ ------<br>--- ----- -- ----,236839.39999997616,236839,236258.948,236261.20000004768,236276.064,236842.422,,19,partner
screen,html.Screen,2_1_0_1_20,2022-05-02T11:45:52.569Z,,,,,,,,,,,,,,,,,53,,,,,,,,,,,,,,889.9779999761668,,response,,,,99,,,,,,,Space,keypress(Space),,,,,,,,---- -- ----- -- ------ - ------- --- ----------<br>------------- ------ ------ ---- ---- ------- ----- -- ----<br>-------- ------- is ---------- --- - --- ----- ----- ----<br>---- --- --- ----- --- ---- ---- ------- ----- ---- -------<br>--- --- -- ----- -- --- ---- -- --- ---- -- ------ ------<br>--- ----- -- ----,237732.79999995232,237732.39999997616,236825.689,236839.5,236842.422,237742.453,,20,is
screen,html.Screen,2_1_0_1_21,2022-05-02T11:45:53.977Z,,,,,,,,,,,,,,,,,53,,,,,,,,,,,,,,1397.5469999999914,,response,,,,99,,,,,,,Space,keypress(Space),,,,,,,,---- -- ----- -- ------ - ------- --- ----------<br>------------- ------ ------ ---- ---- ------- ----- -- ----<br>-------- ------- -- paramount. --- - --- ----- ----- ----<br>---- --- --- ----- --- ---- ---- ------- ----- ---- -------<br>--- --- -- ----- -- --- ---- -- --- ---- -- ------ ------<br>--- ----- -- ----,239140.60000002384,239140,237725.736,237732.79999995232,237742.453,239142.412,,21,paramount.
screen,html.Screen,2_1_0_1_22,2022-05-02T11:45:55.568Z,,,,,,,,,,,,,,,,,53,,,,,,,,,,,,,,1588.7880000476725,,response,,,,99,,,,,,,Space,keypress(Space),,,,,,,,---- -- ----- -- ------ - ------- --- ----------<br>------------- ------ ------ ---- ---- ------- ----- -- ----<br>-------- ------- -- ---------- But - --- ----- ----- ----<br>---- --- --- ----- --- ---- ---- ------- ----- ---- -------<br>--- --- -- ----- -- --- ---- -- --- ---- -- ------ ------<br>--- ----- -- ----,240731.70000004768,240731.20000004768,239125.633,239140.70000004768,239142.412,240742.689,,22,But
screen,html.Screen,2_1_0_1_23,2022-05-02T11:45:56.257Z,,,,,,,,,,,,,,,,,53,,,,,,,,,,,,,,677.4110000238288,,response,,,,99,,,,,,,Space,keypress(Space),,,,,,,,---- -- ----- -- ------ - ------- --- ----------<br>------------- ------ ------ ---- ---- ------- ----- -- ----<br>-------- ------- -- ---------- --- a --- ----- ----- ----<br>---- --- --- ----- --- ---- ---- ------- ----- ---- -------<br>--- --- -- ----- -- --- ---- -- --- ---- -- ------ ------<br>--- ----- -- ----,241420.5,241420.10000002384,240725.352,240732.39999997616,240742.689,241425.765,,23,a
screen,html.Screen,2_1_0_1_24,2022-05-02T11:45:56.636Z,,,,,,,,,,,,,,,,,53,,,,,,,,,,,,,,373.6349999761442,,response,,,,99,,,,,,,Space,keypress(Space),,,,,,,,---- -- ----- -- ------ - ------- --- ----------<br>------------- ------ ------ ---- ---- ------- ----- -- ----<br>-------- ------- -- ---------- --- - new ----- ----- ----<br>---- --- --- ----- --- ---- ---- ------- ----- ---- -------<br>--- --- -- ----- -- --- ---- -- --- ---- -- ------ ------<br>--- ----- -- ----,241799.70000004768,241799.39999997616,241408.997,241420.5,241425.765,241809.259,,24,new
screen,html.Screen,2_1_0_1_25,2022-05-02T11:45:57.032Z,,,,,,,,,,,,,,,,,53,,,,,,,,,,,,,,386.1409999761672,,response,,,,99,,,,,,,Space,keypress(Space),,,,,,,,---- -- ----- -- ------ - ------- --- ----------<br>------------- ------ ------ ---- ---- ------- ----- -- ----<br>-------- ------- -- ---------- --- - --- study ----- ----<br>---- --- --- ----- --- ---- ---- ------- ----- ---- -------<br>--- --- -- ----- -- --- ---- -- --- ---- -- ------ ------<br>--- ----- -- ----,242195.79999995232,242195.39999997616,241792.541,241799.79999995232,241809.259,242209.342,,25,study
screen,html.Screen,2_1_0_1_26,2022-05-02T11:45:57.372Z,,,,,,,,,,,,,,,,,53,,,,,,,,,,,,,,326.4579999523121,,response,,,,99,,,,,,,Space,keypress(Space),,,,,,,,---- -- ----- -- ------ - ------- --- ----------<br>------------- ------ ------ ---- ---- ------- ----- -- ----<br>-------- ------- -- ---------- --- - --- ----- finds ----<br>---- --- --- ----- --- ---- ---- ------- ----- ---- -------<br>--- --- -- ----- -- --- ---- -- --- ---- -- ------ ------<br>--- ----- -- ----,242536.20000004768,242535.79999995232,242192.653,242195.79999995232,242209.342,242542.474,,26,finds
screen,html.Screen,2_1_0_1_27,2022-05-02T11:45:57.888Z,,,,,,,,,,,,,,,,,53,,,,,,,,,,,,,,508.62600002385443,,response,,,,99,,,,,,,Space,keypress(Space),,,,,,,,---- -- ----- -- ------ - ------- --- ----------<br>------------- ------ ------ ---- ---- ------- ----- -- ----<br>-------- ------- -- ---------- --- - --- ----- ----- that<br>---- --- --- ----- --- ---- ---- ------- ----- ---- -------<br>--- --- -- ----- -- --- ---- -- --- ---- -- ------ ------<br>--- ----- -- ----,243051.70000004768,243051.10000002384,242525.867,242536.20000004768,242542.474,243059.121,,27,that
screen,html.Screen,2_1_0_1_28,2022-05-02T11:45:58.378Z,,,,,,,,,,,,,,,,,53,,,,,,,,,,,,,,481.9790000238281,,response,,,,99,,,,,,,Space,keypress(Space),,,,,,,,---- -- ----- -- ------ - ------- --- ----------<br>------------- ------ ------ ---- ---- ------- ----- -- ----<br>-------- ------- -- ---------- --- - --- ----- ----- ----<br>it's --- --- ----- --- ---- ---- ------- ----- ---- -------<br>--- --- -- ----- -- --- ---- -- --- ---- -- ------ ------<br>--- ----- -- ----,243541.5,243541.10000002384,243042.53,243051.70000004768,243059.121,243567.471,,28,it's
screen,html.Screen,2_1_0_1_29,2022-05-02T11:45:58.760Z,,,,,,,,,,,,,,,,,53,,,,,,,,,,,,,,355.9289999761677,,response,,,,99,,,,,,,Space,keypress(Space),,,,,,,,---- -- ----- -- ------ - ------- --- ----------<br>------------- ------ ------ ---- ---- ------- ----- -- ----<br>-------- ------- -- ---------- --- - --- ----- ----- ----<br>---- not --- ----- --- ---- ---- ------- ----- ---- -------<br>--- --- -- ----- -- --- ---- -- --- ---- -- ------ ------<br>--- ----- -- ----,243923.79999995232,243923.39999997616,243525.629,243541.60000002384,243567.471,243925.782,,29,not
screen,html.Screen,2_1_0_1_30,2022-05-02T11:45:59.122Z,,,,,,,,,,,,,,,,,53,,,,,,,,,,,,,,359.7179999999935,,response,,,,99,,,,,,,Space,keypress(Space),,,,,,,,---- -- ----- -- ------ - ------- --- ----------<br>------------- ------ ------ ---- ---- ------- ----- -- ----<br>-------- ------- -- ---------- --- - --- ----- ----- ----<br>---- --- how ----- --- ---- ---- ------- ----- ---- -------<br>--- --- -- ----- -- --- ---- -- --- ---- -- ------ ------<br>--- ----- -- ----,244285.89999997616,244285.5,243909.267,243923.79999995232,243925.782,244292.457,,30,how
screen,html.Screen,2_1_0_1_31,2022-05-02T11:45:59.627Z,,,,,,,,,,,,,,,,,53,,,,,,,,,,,,,,497.74300004768884,,response,,,,99,,,,,,,Space,keypress(Space),,,,,,,,---- -- ----- -- ------ - ------- --- ----------<br>------------- ------ ------ ---- ---- ------- ----- -- ----<br>-------- ------- -- ---------- --- - --- ----- ----- ----<br>---- --- --- close --- ---- ---- ------- ----- ---- -------<br>--- --- -- ----- -- --- ---- -- --- ---- -- ------ ------<br>--- ----- -- ----,244790.5,244790.20000004768,244276.053,244285.89999997616,244292.457,244792.419,,31,close
screen,html.Screen,2_1_0_1_32,2022-05-02T11:45:59.994Z,,,,,,,,,,,,,,,,,53,,,,,,,,,,,,,,364.98099997616373,,response,,,,99,,,,,,,Space,keypress(Space),,,,,,,,---- -- ----- -- ------ - ------- --- ----------<br>------------- ------ ------ ---- ---- ------- ----- -- ----<br>-------- ------- -- ---------- --- - --- ----- ----- ----<br>---- --- --- ----- you ---- ---- ------- ----- ---- -------<br>--- --- -- ----- -- --- ---- -- --- ---- -- ------ ------<br>--- ----- -- ----,245157.79999995232,245157.39999997616,244775.652,244790.5,244792.419,245184.084,,32,you
screen,html.Screen,2_1_0_1_33,2022-05-02T11:46:00.447Z,,,,,,,,,,,,,,,,,53,,,,,,,,,,,,,,426.0160000238393,,response,,,,99,,,,,,,Space,keypress(Space),,,,,,,,---- -- ----- -- ------ - ------- --- ----------<br>------------- ------ ------ ---- ---- ------- ----- -- ----<br>-------- ------- -- ---------- --- - --- ----- ----- ----<br>---- --- --- ----- --- feel ---- ------- ----- ---- -------<br>--- --- -- ----- -- --- ---- -- --- ---- -- ------ ------<br>--- ----- -- ----,245610.5,245610.10000002384,245142.537,245157.89999997616,245184.084,245625.829,,33,feel
screen,html.Screen,2_1_0_1_34,2022-05-02T11:46:00.904Z,,,,,,,,,,,,,,,,,53,,,,,,,,,,,,,,441.6710000000021,,response,,,,99,,,,,,,Space,keypress(Space),,,,,,,,---- -- ----- -- ------ - ------- --- ----------<br>------------- ------ ------ ---- ---- ------- ----- -- ----<br>-------- ------- -- ---------- --- - --- ----- ----- ----<br>---- --- --- ----- --- ---- that ------- ----- ---- -------<br>--- --- -- ----- -- --- ---- -- --- ---- -- ------ ------<br>--- ----- -- ----,246068,246067.5,245609.311,245610.5,245625.829,246075.783,,34,that
screen,html.Screen,2_1_0_1_35,2022-05-02T11:46:01.397Z,,,,,,,,,,,,,,,,,53,,,,,,,,,,,,,,484.5169999523205,,response,,,,99,,,,,,,Space,keypress(Space),,,,,,,,---- -- ----- -- ------ - ------- --- ----------<br>------------- ------ ------ ---- ---- ------- ----- -- ----<br>-------- ------- -- ---------- --- - --- ----- ----- ----<br>---- --- --- ----- --- ---- ---- matters ----- ---- -------<br>--- --- -- ----- -- --- ---- -- --- ---- -- ------ ------<br>--- ----- -- ----,246560.79999995232,246560.29999995232,246059.057,246068,246075.783,246575.807,,35,matters
screen,html.Screen,2_1_0_1_36,2022-05-02T11:46:01.724Z,,,,,,,,,,,,,,,,,53,,,,,,,,,,,,,,311.4929999523156,,response,,,,99,,,,,,,Space,keypress(Space),,,,,,,,"---- -- ----- -- ------ - ------- --- ----------<br>------------- ------ ------ ---- ---- ------- ----- -- ----<br>-------- ------- -- ---------- --- - --- ----- ----- ----<br>---- --- --- ----- --- ---- ---- ------- most, ---- -------<br>--- --- -- ----- -- --- ---- -- --- ---- -- ------ ------<br>--- ----- -- ----",246887.70000004768,246887.29999995232,246558.974,246560.79999995232,246575.807,246892.477,,36,"most,"
screen,html.Screen,2_1_0_1_37,2022-05-02T11:46:02.382Z,,,,,,,,,,,,,,,,,53,,,,,,,,,,,,,,652.8229999523028,,response,,,,99,,,,,,,Space,keypress(Space),,,,,,,,---- -- ----- -- ------ - ------- --- ----------<br>------------- ------ ------ ---- ---- ------- ----- -- ----<br>-------- ------- -- ---------- --- - --- ----- ----- ----<br>---- --- --- ----- --- ---- ---- ------- ----- it's -------<br>--- --- -- ----- -- --- ---- -- --- ---- -- ------ ------<br>--- ----- -- ----,247545.60000002384,247545.29999995232,246875.875,246887.79999995232,246892.477,247559.101,,37,it's
screen,html.Screen,2_1_0_1_38,2022-05-02T11:46:02.802Z,,,,,,,,,,,,,,,,,53,,,,,,,,,,,,,,406.29899997616303,,response,,,,99,,,,,,,Space,keypress(Space),,,,,,,,---- -- ----- -- ------ - ------- --- ----------<br>------------- ------ ------ ---- ---- ------- ----- -- ----<br>-------- ------- -- ---------- --- - --- ----- ----- ----<br>---- --- --- ----- --- ---- ---- ------- ----- ---- whether<br>--- --- -- ----- -- --- ---- -- --- ---- -- ------ ------<br>--- ----- -- ----,247965.79999995232,247965.39999997616,247542.535,247545.70000004768,247559.101,247976.101,,38,whether
screen,html.Screen,2_1_0_1_39,2022-05-02T11:46:03.222Z,,,,,,,,,,,,,,,,,53,,,,,,,,,,,,,,409.49900002384675,,response,,,,99,,,,,,,Space,keypress(Space),,,,,,,,---- -- ----- -- ------ - ------- --- ----------<br>------------- ------ ------ ---- ---- ------- ----- -- ----<br>-------- ------- -- ---------- --- - --- ----- ----- ----<br>---- --- --- ----- --- ---- ---- ------- ----- ---- -------<br>you --- -- ----- -- --- ---- -- --- ---- -- ------ ------<br>--- ----- -- ----,248386,248385.60000002384,247959.195,247965.89999997616,247976.101,248392.421,,39,you
screen,html.Screen,2_1_0_1_40,2022-05-02T11:46:03.605Z,,,,,,,,,,,,,,,,,53,,,,,,,,,,,,,,375.67900002383976,,response,,,,99,,,,,,,Space,keypress(Space),,,,,,,,---- -- ----- -- ------ - ------- --- ----------<br>------------- ------ ------ ---- ---- ------- ----- -- ----<br>-------- ------- -- ---------- --- - --- ----- ----- ----<br>---- --- --- ----- --- ---- ---- ------- ----- ---- -------<br>--- are -- ----- -- --- ---- -- --- ---- -- ------ ------<br>--- ----- -- ----,248768.60000002384,248768.10000002384,248375.856,248386,248392.421,248775.81,,40,are
screen,html.Screen,2_1_0_1_41,2022-05-02T11:46:03.951Z,,,,,,,,,,,,,,,,,53,,,,,,,,,,,,,,338.58999997616047,,response,,,,99,,,,,,,Space,keypress(Space),,,,,,,,---- -- ----- -- ------ - ------- --- ----------<br>------------- ------ ------ ---- ---- ------- ----- -- ----<br>-------- ------- -- ---------- --- - --- ----- ----- ----<br>---- --- --- ----- --- ---- ---- ------- ----- ---- -------<br>--- --- as ----- -- --- ---- -- --- ---- -- ------ ------<br>--- ----- -- ----,249114.79999995232,249114.39999997616,248759.076,248768.60000002384,248775.81,249126.06,,41,as
screen,html.Screen,2_1_0_1_42,2022-05-02T11:46:04.433Z,,,,,,,,,,,,,,,,,53,,,,,,,,,,,,,,469.9400000000023,,response,,,,99,,,,,,,Space,keypress(Space),,,,,,,,---- -- ----- -- ------ - ------- --- ----------<br>------------- ------ ------ ---- ---- ------- ----- -- ----<br>-------- ------- -- ---------- --- - --- ----- ----- ----<br>---- --- --- ----- --- ---- ---- ------- ----- ---- -------<br>--- --- -- close -- --- ---- -- --- ---- -- ------ ------<br>--- ----- -- ----,249596.60000002384,249596,249109.308,249114.89999997616,249126.06,249609.101,,42,close
screen,html.Screen,2_1_0_1_43,2022-05-02T11:46:04.821Z,,,,,,,,,,,,,,,,,53,,,,,,,,,,,,,,375.1989999523212,,response,,,,99,,,,,,,Space,keypress(Space),,,,,,,,---- -- ----- -- ------ - ------- --- ----------<br>------------- ------ ------ ---- ---- ------- ----- -- ----<br>-------- ------- -- ---------- --- - --- ----- ----- ----<br>---- --- --- ----- --- ---- ---- ------- ----- ---- -------<br>--- --- -- ----- as --- ---- -- --- ---- -- ------ ------<br>--- ----- -- ----,249984.70000004768,249984.29999995232,249592.599,249596.60000002384,249609.101,249992.501,,43,as
screen,html.Screen,2_1_0_1_44,2022-05-02T11:46:05.218Z,,,,,,,,,,,,,,,,,53,,,,,,,,,,,,,,389.39899997616885,,response,,,,99,,,,,,,Space,keypress(Space),,,,,,,,---- -- ----- -- ------ - ------- --- ----------<br>------------- ------ ------ ---- ---- ------- ----- -- ----<br>-------- ------- -- ---------- --- - --- ----- ----- ----<br>---- --- --- ----- --- ---- ---- ------- ----- ---- -------<br>--- --- -- ----- -- you ---- -- --- ---- -- ------ ------<br>--- ----- -- ----,250382.20000004768,250381.89999997616,249975.627,249984.70000004768,249992.501,250392.443,,44,you
screen,html.Screen,2_1_0_1_45,2022-05-02T11:46:05.616Z,,,,,,,,,,,,,,,,,53,,,,,,,,,,,,,,386.95699997615884,,response,,,,99,,,,,,,Space,keypress(Space),,,,,,,,---- -- ----- -- ------ - ------- --- ----------<br>------------- ------ ------ ---- ---- ------- ----- -- ----<br>-------- ------- -- ---------- --- - --- ----- ----- ----<br>---- --- --- ----- --- ---- ---- ------- ----- ---- -------<br>--- --- -- ----- -- --- want -- --- ---- -- ------ ------<br>--- ----- -- ----,250779.79999995232,250779.39999997616,250375.672,250382.29999995232,250392.443,250792.46,,45,want
screen,html.Screen,2_1_0_1_46,2022-05-02T11:46:06.091Z,,,,,,,,,,,,,,,,,53,,,,,,,,,,,,,,461.54000000000815,,response,,,,99,,,,,,,Space,keypress(Space),,,,,,,,---- -- ----- -- ------ - ------- --- ----------<br>------------- ------ ------ ---- ---- ------- ----- -- ----<br>-------- ------- -- ---------- --- - --- ----- ----- ----<br>---- --- --- ----- --- ---- ---- ------- ----- ---- -------<br>--- --- -- ----- -- --- ---- to --- ---- -- ------ ------<br>--- ----- -- ----,251254.39999997616,251254,250775.726,250779.79999995232,250792.46,251259.053,,46,to
screen,html.Screen,2_1_0_1_47,2022-05-02T11:46:06.555Z,,,,,,,,,,,,,,,,,53,,,,,,,,,,,,,,459.0470000238274,,response,,,,99,,,,,,,Space,keypress(Space),,,,,,,,"---- -- ----- -- ------ - ------- --- ----------<br>------------- ------ ------ ---- ---- ------- ----- -- ----<br>-------- ------- -- ---------- --- - --- ----- ----- ----<br>---- --- --- ----- --- ---- ---- ------- ----- ---- -------<br>--- --- -- ----- -- --- ---- -- be, ---- -- ------ ------<br>--- ----- -- ----",251718.60000002384,251718.10000002384,251242.318,251254.5,251259.053,251725.775,,47,"be,"
screen,html.Screen,2_1_0_1_48,2022-05-02T11:46:07.057Z,,,,,,,,,,,,,,,,,53,,,,,,,,,,,,,,494.5249999523221,,response,,,,99,,,,,,,Space,keypress(Space),,,,,,,,---- -- ----- -- ------ - ------- --- ----------<br>------------- ------ ------ ---- ---- ------- ----- -- ----<br>-------- ------- -- ---------- --- - --- ----- ----- ----<br>---- --- --- ----- --- ---- ---- ------- ----- ---- -------<br>--- --- -- ----- -- --- ---- -- --- even -- ------ ------<br>--- ----- -- ----,252220.60000002384,252220.29999995232,251708.986,251718.60000002384,251725.775,252225.768,,48,even
screen,html.Screen,2_1_0_1_49,2022-05-02T11:46:07.397Z,,,,,,,,,,,,,,,,,53,,,,,,,,,,,,,,334.9320000476728,,response,,,,99,,,,,,,Space,keypress(Space),,,,,,,,---- -- ----- -- ------ - ------- --- ----------<br>------------- ------ ------ ---- ---- ------- ----- -- ----<br>-------- ------- -- ---------- --- - --- ----- ----- ----<br>---- --- --- ----- --- ---- ---- ------- ----- ---- -------<br>--- --- -- ----- -- --- ---- -- --- ---- if ------ ------<br>--- ----- -- ----,252561.10000002384,252560.70000004768,252209.292,252220.70000004768,252225.768,252576.017,,49,if
screen,html.Screen,2_1_0_1_50,2022-05-02T11:46:07.669Z,,,,,,,,,,,,,,,,,53,,,,,,,,,,,,,,256.28299995232373,,response,,,,99,,,,,,,Space,keypress(Space),,,,,,,,---- -- ----- -- ------ - ------- --- ----------<br>------------- ------ ------ ---- ---- ------- ----- -- ----<br>-------- ------- -- ---------- --- - --- ----- ----- ----<br>---- --- --- ----- --- ---- ---- ------- ----- ---- -------<br>--- --- -- ----- -- --- ---- -- --- ---- -- that's ------<br>--- ----- -- ----,252832.79999995232,252832.29999995232,252559.294,252561.10000002384,252576.017,252842.523,,50,that's
screen,html.Screen,2_1_0_1_51,2022-05-02T11:46:08.097Z,,,,,,,,,,,,,,,,,53,,,,,,,,,,,,,,417.57700002385536,,response,,,,99,,,,,,,Space,keypress(Space),,,,,,,,---- -- ----- -- ------ - ------- --- ----------<br>------------- ------ ------ ---- ---- ------- ----- -- ----<br>-------- ------- -- ---------- --- - --- ----- ----- ----<br>---- --- --- ----- --- ---- ---- ------- ----- ---- -------<br>--- --- -- ----- -- --- ---- -- --- ---- -- ------ really<br>--- ----- -- ----,253260.39999997616,253260.10000002384,252825.725,252832.89999997616,252842.523,253276.09,,51,really
screen,html.Screen,2_1_0_1_52,2022-05-02T11:46:08.369Z,,,,,,,,,,,,,,,,,53,,,,,,,,,,,,,,255.9100000000035,,response,,,,99,,,,,,,Space,keypress(Space),,,,,,,,---- -- ----- -- ------ - ------- --- ----------<br>------------- ------ ------ ---- ---- ------- ----- -- ----<br>-------- ------- -- ---------- --- - --- ----- ----- ----<br>---- --- --- ----- --- ---- ---- ------- ----- ---- -------<br>--- --- -- ----- -- --- ---- -- --- ---- -- ------ ------<br>not ----- -- ----,253532.39999997616,253532,253259.257,253260.60000002384,253276.09,253542.637,,52,not
screen,html.Screen,2_1_0_1_53,2022-05-02T11:46:08.747Z,,,,,,,,,,,,,,,,,53,,,,,,,,,,,,,,367.46300002385397,,response,,,,99,,,,,,,Space,keypress(Space),,,,,,,,---- -- ----- -- ------ - ------- --- ----------<br>------------- ------ ------ ---- ---- ------- ----- -- ----<br>-------- ------- -- ---------- --- - --- ----- ----- ----<br>---- --- --- ----- --- ---- ---- ------- ----- ---- -------<br>--- --- -- ----- -- --- ---- -- --- ---- -- ------ ------<br>--- close -- ----,253910.60000002384,253910.10000002384,253525.742,253532.5,253542.637,253926.011,,53,close
screen,html.Screen,2_1_0_1_54,2022-05-02T11:46:09.056Z,,,,,,,,,,,,,,,,,53,,,,,,,,,,,,,,293.2889999523177,,response,,,,99,,,,,,,Space,keypress(Space),,,,,,,,---- -- ----- -- ------ - ------- --- ----------<br>------------- ------ ------ ---- ---- ------- ----- -- ----<br>-------- ------- -- ---------- --- - --- ----- ----- ----<br>---- --- --- ----- --- ---- ---- ------- ----- ---- -------<br>--- --- -- ----- -- --- ---- -- --- ---- -- ------ ------<br>--- ----- at ----,254219.70000004768,254219.29999995232,253908.953,253910.60000002384,253926.011,254225.814,,54,at
screen,html.Screen,2_1_0_1_55,2022-05-02T11:46:09.380Z,,,,,,,,,,,,,,,,,53,,,,,,,,,,,,,,317.48599995230325,,response,,,,99,,,,,,,Space,keypress(Space),,,,,,,,---- -- ----- -- ------ - ------- --- ----------<br>------------- ------ ------ ---- ---- ------- ----- -- ----<br>-------- ------- -- ---------- --- - --- ----- ----- ----<br>---- --- --- ----- --- ---- ---- ------- ----- ---- -------<br>--- --- -- ----- -- --- ---- -- --- ---- -- ------ ------<br>--- ----- -- all.,254543.70000004768,254543.29999995232,254209.344,254219.70000004768,254225.814,254559.387,,55,all.
Item 99,flow.Loop,2_1_0_1,2022-05-02T11:46:09.380Z,,,,,,,,,,,,,,,,,,,,,,,,,,,,,,,33934.147999952314,,completion,,,,,G,,,,,,,,,,,silence,,,,,254543.79999995232,254543.29999995232,220592.494,220592.89999997616,220609.152,254559.387,,,
Question 1,html.Screen,2_1_0_2,2022-05-02T11:46:19.425Z,,,,,,,,,,,,,,,,,,,,,,,,,,,,true,FALSE,,10028.813000047696,,response,,,,99,G,,,,,,FALSE,click #choice-2,,,,silence,,,,,264588.7000000477,264588.2000000477,254542.555,254543.79999995232,254559.387,264592.464,,,
Question 2,html.Screen,2_1_0_3,2022-05-02T11:46:26.106Z,,,,,,,,,,,,,,,,,,,,,,,,,,,,true,TRUE,,6676.636000023864,,response,,,,99,G,,,,,,TRUE,click #choice-1,,,,silence,,,,,271269.7999999523,271269.10000002384,264576.068,264588.89999997616,264592.464,271275.836,,,
Item 99,flow.Sequence,2_1_0,2022-05-02T11:46:26.106Z,,,,,,,,,,,,,,,,,,,,,,,,,,,,,,,60660.01500002385,,completion,,,,,,,,,,,,,,,,,,,,,271269.89999997616,271269.10000002384,210592.444,210602.10000002384,210609.085,271275.836,,,
Holding screen,html.Screen,2_1_1_0,2022-05-02T11:46:36.096Z,,,,,,,,,,,,,,,,,,,,,,,,,,,,,,,9999.950000000012,,timeout,,,,,,,,,,,,,,,,,,,,,281259.7999999523,281259.388,271259.368,271269.89999997616,271275.836,281275.786,,,
screen,html.Screen,2_1_1_1_0,2022-05-02T11:46:37.205Z,,,,,,,,,,,,,,,,,54,,,,,,,,,,,,,,1091.9140000476618,,response,,,,100,,,,,,,Space,keypress(Space),,,,,,,,At --- ---- --- ------ ----- ------- ---- -- --- ------- --<br>------- ---------- ------ -- ----- -- ----- -- ---- ------<br>--- ----- --- --- ------ -------- ----- --- ------ ----- --<br>----- ----- ---------- --- --- ------ ------ ---- -- ------<br>------- --- ------ ----- --- ---- ------- -- ---- --- --<br>------- ------,282368.2000000477,282367.7000000477,281259.388,281259.7999999523,281275.786,282375.774,,0,At
screen,html.Screen,2_1_1_1_1,2022-05-02T11:46:37.971Z,,,,,,,,,,,,,,,,,54,,,,,,,,,,,,,,758.6259999761824,,response,,,,100,,,,,,,Space,keypress(Space),,,,,,,,-- the ---- --- ------ ----- ------- ---- -- --- ------- --<br>------- ---------- ------ -- ----- -- ----- -- ---- ------<br>--- ----- --- --- ------ -------- ----- --- ------ ----- --<br>----- ----- ---------- --- --- ------ ------ ---- -- ------<br>------- --- ------ ----- --- ---- ------- -- ---- --- --<br>------- ------,283134.7999999523,283134.39999997616,282359.006,282368.2000000477,282375.774,283142.667,,1,the
screen,html.Screen,2_1_1_1_2,2022-05-02T11:46:38.323Z,,,,,,,,,,,,,,,,,54,,,,,,,,,,,,,,343.5330000476679,,response,,,,100,,,,,,,Space,keypress(Space),,,,,,,,-- --- time --- ------ ----- ------- ---- -- --- ------- --<br>------- ---------- ------ -- ----- -- ----- -- ---- ------<br>--- ----- --- --- ------ -------- ----- --- ------ ----- --<br>----- ----- ---------- --- --- ------ ------ ---- -- ------<br>------- --- ------ ----- --- ---- ------- -- ---- --- --<br>------- ------,283486.60000002384,283486.2000000477,283126.072,283134.89999997616,283142.667,283492.475,,2,time
screen,html.Screen,2_1_1_1_3,2022-05-02T11:46:38.757Z,,,,,,,,,,,,,,,,,54,,,,,,,,,,,,,,428.12500002386514,,response,,,,100,,,,,,,Space,keypress(Space),,,,,,,,-- --- ---- the ------ ----- ------- ---- -- --- ------- --<br>------- ---------- ------ -- ----- -- ----- -- ---- ------<br>--- ----- --- --- ------ -------- ----- --- ------ ----- --<br>----- ----- ---------- --- --- ------ ------ ---- -- ------<br>------- --- ------ ----- --- ---- ------- -- ---- --- --<br>------- ------,283921,283920.60000002384,283476.038,283486.60000002384,283492.475,283925.804,,3,the
screen,html.Screen,2_1_1_1_4,2022-05-02T11:46:39.217Z,,,,,,,,,,,,,,,,,54,,,,,,,,,,,,,,454.29600002383813,,response,,,,100,,,,,,,Space,keypress(Space),,,,,,,,-- --- ---- --- French ----- ------- ---- -- --- ------- --<br>------- ---------- ------ -- ----- -- ----- -- ---- ------<br>--- ----- --- --- ------ -------- ----- --- ------ ----- --<br>----- ----- ---------- --- --- ------ ------ ---- -- ------<br>------- --- ------ ----- --- ---- ------- -- ---- --- --<br>------- ------,284380.5,284380.10000002384,283909.29,283921,283925.804,284392.463,,4,French
screen,html.Screen,2_1_1_1_5,2022-05-02T11:46:39.614Z,,,,,,,,,,,,,,,,,54,,,,,,,,,,,,,,384.5370000000112,,response,,,,100,,,,,,,Space,keypress(Space),,,,,,,,-- --- ---- --- ------ crown ------- ---- -- --- ------- --<br>------- ---------- ------ -- ----- -- ----- -- ---- ------<br>--- ----- --- --- ------ -------- ----- --- ------ ----- --<br>----- ----- ---------- --- --- ------ ------ ---- -- ------<br>------- --- ------ ----- --- ---- ------- -- ---- --- --<br>------- ------,284777.5,284777,284375.949,284380.60000002384,284392.463,284792.456,,5,crown
screen,html.Screen,2_1_1_1_6,2022-05-02T11:46:40.236Z,,,,,,,,,,,,,,,,,54,,,,,,,,,,,,,,606.6440000238363,,response,,,,100,,,,,,,Space,keypress(Space),,,,,,,,-- --- ---- --- ------ ----- secured ---- -- --- ------- --<br>------- ---------- ------ -- ----- -- ----- -- ---- ------<br>--- ----- --- --- ------ -------- ----- --- ------ ----- --<br>----- ----- ---------- --- --- ------ ------ ---- -- ------<br>------- --- ------ ----- --- ---- ------- -- ---- --- --<br>------- ------,285399.5,285399.10000002384,284775.853,284777.5,284792.456,285409.087,,6,secured
screen,html.Screen,2_1_1_1_7,2022-05-02T11:46:40.922Z,,,,,,,,,,,,,,,,,54,,,,,,,,,,,,,,676.4130000000005,,response,,,,100,,,,,,,Space,keypress(Space),,,,,,,,-- --- ---- --- ------ ----- ------- much -- --- ------- --<br>------- ---------- ------ -- ----- -- ----- -- ---- ------<br>--- ----- --- --- ------ -------- ----- --- ------ ----- --<br>----- ----- ---------- --- --- ------ ------ ---- -- ------<br>------- --- ------ ----- --- ---- ------- -- ---- --- --<br>------- ------,286085.89999997616,286085.5,285392.321,285399.60000002384,285409.087,286092.425,,7,much
screen,html.Screen,2_1_1_1_8,2022-05-02T11:46:41.732Z,,,,,,,,,,,,,,,,,54,,,,,,,,,,,,,,802.8749999523279,,response,,,,100,,,,,,,Space,keypress(Space),,,,,,,,-- --- ---- --- ------ ----- ------- ---- of --- ------- --<br>------- ---------- ------ -- ----- -- ----- -- ---- ------<br>--- ----- --- --- ------ -------- ----- --- ------ ----- --<br>----- ----- ---------- --- --- ------ ------ ---- -- ------<br>------- --- ------ ----- --- ---- ------- -- ---- --- --<br>------- ------,286895.60000002384,286895.2999999523,286075.533,286086,286092.425,286909.412,,8,of
screen,html.Screen,2_1_1_1_9,2022-05-02T11:46:42.139Z,,,,,,,,,,,,,,,,,54,,,,,,,,,,,,,,392.6880000238307,,response,,,,100,,,,,,,Space,keypress(Space),,,,,,,,-- --- ---- --- ------ ----- ------- ---- -- its ------- --<br>------- ---------- ------ -- ----- -- ----- -- ---- ------<br>--- ----- --- --- ------ -------- ----- --- ------ ----- --<br>----- ----- ---------- --- --- ------ ------ ---- -- ------<br>------- --- ------ ----- --- ---- ------- -- ---- --- --<br>------- ------,287302.5,287302.10000002384,286892.448,286895.7000000477,286909.412,287309.062,,9,its
screen,html.Screen,2_1_1_1_10,2022-05-02T11:46:43.318Z,,,,,,,,,,,,,,,,,54,,,,,,,,,,,,,,1172.0380000238656,,response,,,,100,,,,,,,Space,keypress(Space),,,,,,,,-- --- ---- --- ------ ----- ------- ---- -- --- revenue --<br>------- ---------- ------ -- ----- -- ----- -- ---- ------<br>--- ----- --- --- ------ -------- ----- --- ------ ----- --<br>----- ----- ---------- --- --- ------ ------ ---- -- ------<br>------- --- ------ ----- --- ---- ------- -- ---- --- --<br>------- ------,288481.5,288481.10000002384,287292.424,287302.60000002384,287309.062,288492.755,,10,revenue
screen,html.Screen,2_1_1_1_11,2022-05-02T11:46:43.792Z,,,,,,,,,,,,,,,,,54,,,,,,,,,,,,,,462.44500004767906,,response,,,,100,,,,,,,Space,keypress(Space),,,,,,,,-- --- ---- --- ------ ----- ------- ---- -- --- ------- by<br>------- ---------- ------ -- ----- -- ----- -- ---- ------<br>--- ----- --- --- ------ -------- ----- --- ------ ----- --<br>----- ----- ---------- --- --- ------ ------ ---- -- ------<br>------- --- ------ ----- --- ---- ------- -- ---- --- --<br>------- ------,288955.60000002384,288955.2000000477,288475.493,288481.5,288492.755,288959.174,,11,by
screen,html.Screen,2_1_1_1_12,2022-05-02T11:46:44.303Z,,,,,,,,,,,,,,,,,54,,,,,,,,,,,,,,506.82600000000093,,response,,,,100,,,,,,,Space,keypress(Space),,,,,,,,-- --- ---- --- ------ ----- ------- ---- -- --- ------- --<br>issuing ---------- ------ -- ----- -- ----- -- ---- ------<br>--- ----- --- --- ------ -------- ----- --- ------ ----- --<br>----- ----- ---------- --- --- ------ ------ ---- -- ------<br>------- --- ------ ----- --- ---- ------- -- ---- --- --<br>------- ------,289466.39999997616,289466,288942.324,288955.7000000477,288959.174,289475.754,,12,issuing
screen,html.Screen,2_1_1_1_13,2022-05-02T11:46:44.726Z,,,,,,,,,,,,,,,,,54,,,,,,,,,,,,,,413.24599999998463,,response,,,,100,,,,,,,Space,keypress(Space),,,,,,,,-- --- ---- --- ------ ----- ------- ---- -- --- ------- --<br>------- government ------ -- ----- -- ----- -- ---- ------<br>--- ----- --- --- ------ -------- ----- --- ------ ----- --<br>----- ----- ---------- --- --- ------ ------ ---- -- ------<br>------- --- ------ ----- --- ---- ------- -- ---- --- --<br>------- ------,289889.2999999523,289889,289458.964,289466.39999997616,289475.754,289892.436,,13,government
screen,html.Screen,2_1_1_1_14,2022-05-02T11:46:46.667Z,,,,,,,,,,,,,,,,,54,,,,,,,,,,,,,,1937.7640000476968,,response,,,,100,,,,,,,Space,keypress(Space),,,,,,,,-- --- ---- --- ------ ----- ------- ---- -- --- ------- --<br>------- ---------- bonds. -- ----- -- ----- -- ---- ------<br>--- ----- --- --- ------ -------- ----- --- ------ ----- --<br>----- ----- ---------- --- --- ------ ------ ---- -- ------<br>------- --- ------ ----- --- ---- ------- -- ---- --- --<br>------- ------,291830.60000002384,291830.2000000477,289875.655,289889.39999997616,289892.436,291842.751,,14,bonds.
screen,html.Screen,2_1_1_1_15,2022-05-02T11:46:47.145Z,,,,,,,,,,,,,,,,,54,,,,,,,,,,,,,,465.548999952327,,response,,,,100,,,,,,,Space,keypress(Space),,,,,,,,-- --- ---- --- ------ ----- ------- ---- -- --- ------- --<br>------- ---------- ------ In ----- -- ----- -- ---- ------<br>--- ----- --- --- ------ -------- ----- --- ------ ----- --<br>----- ----- ---------- --- --- ------ ------ ---- -- ------<br>------- --- ------ ----- --- ---- ------- -- ---- --- --<br>------- ------,292308.60000002384,292308.2999999523,291825.235,291830.7000000477,291842.751,292325.944,,15,In
screen,html.Screen,2_1_1_1_16,2022-05-02T11:46:48.223Z,,,,,,,,,,,,,,,,,54,,,,,,,,,,,,,,1060.256000047666,,response,,,,100,,,,,,,Space,keypress(Space),,,,,,,,"-- --- ---- --- ------ ----- ------- ---- -- --- ------- --<br>------- ---------- ------ -- 1727, -- ----- -- ---- ------<br>--- ----- --- --- ------ -------- ----- --- ------ ----- --<br>----- ----- ---------- --- --- ------ ------ ---- -- ------<br>------- --- ------ ----- --- ---- ------- -- ---- --- --<br>------- ------",293386.60000002384,293386.2000000477,292308.934,292308.7000000477,292325.944,293392.466,,16,"1727,"
screen,html.Screen,2_1_1_1_17,2022-05-02T11:46:48.712Z,,,,,,,,,,,,,,,,,54,,,,,,,,,,,,,,482.93399997614324,,response,,,,100,,,,,,,Space,keypress(Space),,,,,,,,-- --- ---- --- ------ ----- ------- ---- -- --- ------- --<br>------- ---------- ------ -- ----- in ----- -- ---- ------<br>--- ----- --- --- ------ -------- ----- --- ------ ----- --<br>----- ----- ---------- --- --- ------ ------ ---- -- ------<br>------- --- ------ ----- --- ---- ------- -- ---- --- --<br>------- ------,293875.89999997616,293875.39999997616,293375.952,293386.7000000477,293392.466,293892.462,,17,in
screen,html.Screen,2_1_1_1_18,2022-05-02T11:46:49.476Z,,,,,,,,,,,,,,,,,54,,,,,,,,,,,,,,746.4379999761586,,response,,,,100,,,,,,,Space,keypress(Space),,,,,,,,-- --- ---- --- ------ ----- ------- ---- -- --- ------- --<br>------- ---------- ------ -- ----- -- order -- ---- ------<br>--- ----- --- --- ------ -------- ----- --- ------ ----- --<br>----- ----- ---------- --- --- ------ ------ ---- -- ------<br>------- --- ------ ----- --- ---- ------- -- ---- --- --<br>------- ------,294639.39999997616,294638.89999997616,293875.638,293876.10000002384,293892.462,294642.393,,18,order
screen,html.Screen,2_1_1_1_19,2022-05-02T11:46:49.816Z,,,,,,,,,,,,,,,,,54,,,,,,,,,,,,,,337.10700000001816,,response,,,,100,,,,,,,Space,keypress(Space),,,,,,,,-- --- ---- --- ------ ----- ------- ---- -- --- ------- --<br>------- ---------- ------ -- ----- -- ----- to ---- ------<br>--- ----- --- --- ------ -------- ----- --- ------ ----- --<br>----- ----- ---------- --- --- ------ ------ ---- -- ------<br>------- --- ------ ----- --- ---- ------- -- ---- --- --<br>------- ------,294979.7999999523,294979.5,294625.617,294639.39999997616,294642.393,294992.683,,19,to
screen,html.Screen,2_1_1_1_20,2022-05-02T11:46:50.220Z,,,,,,,,,,,,,,,,,54,,,,,,,,,,,,,,390.3169999999809,,response,,,,100,,,,,,,Space,keypress(Space),,,,,,,,-- --- ---- --- ------ ----- ------- ---- -- --- ------- --<br>------- ---------- ------ -- ----- -- ----- -- save ------<br>--- ----- --- --- ------ -------- ----- --- ------ ----- --<br>----- ----- ---------- --- --- ------ ------ ---- -- ------<br>------- --- ------ ----- --- ---- ------- -- ---- --- --<br>------- ------,295383.2999999523,295383,294975.939,294979.89999997616,294992.683,295392.396,,20,save
screen,html.Screen,2_1_1_1_21,2022-05-02T11:46:50.590Z,,,,,,,,,,,,,,,,,54,,,,,,,,,,,,,,360.70400002383394,,response,,,,100,,,,,,,Space,keypress(Space),,,,,,,,"-- --- ---- --- ------ ----- ------- ---- -- --- ------- --<br>------- ---------- ------ -- ----- -- ----- -- ---- money,<br>--- ----- --- --- ------ -------- ----- --- ------ ----- --<br>----- ----- ---------- --- --- ------ ------ ---- -- ------<br>------- --- ------ ----- --- ---- ------- -- ---- --- --<br>------- ------",295753.5,295753.10000002384,295375.666,295383.39999997616,295392.396,295759.079,,21,"money,"
screen,html.Screen,2_1_1_1_22,2022-05-02T11:46:51.045Z,,,,,,,,,,,,,,,,,54,,,,,,,,,,,,,,449.1210000476567,,response,,,,100,,,,,,,Space,keypress(Space),,,,,,,,-- --- ---- --- ------ ----- ------- ---- -- --- ------- --<br>------- ---------- ------ -- ----- -- ----- -- ---- ------<br>the ----- --- --- ------ -------- ----- --- ------ ----- --<br>----- ----- ---------- --- --- ------ ------ ---- -- ------<br>------- --- ------ ----- --- ---- ------- -- ---- --- --<br>------- ------,296208.7000000477,296208.2000000477,295742.391,295753.60000002384,295759.079,296226.052,,22,the
screen,html.Screen,2_1_1_1_23,2022-05-02T11:46:51.361Z,,,,,,,,,,,,,,,,,54,,,,,,,,,,,,,,298.24799995229114,,response,,,,100,,,,,,,Space,keypress(Space),,,,,,,,-- --- ---- --- ------ ----- ------- ---- -- --- ------- --<br>------- ---------- ------ -- ----- -- ----- -- ---- ------<br>--- state --- --- ------ -------- ----- --- ------ ----- --<br>----- ----- ---------- --- --- ------ ------ ---- -- ------<br>------- --- ------ ----- --- ---- ------- -- ---- --- --<br>------- ------,296524.7000000477,296524.2999999523,296192.654,296208.7999999523,296226.052,296551.884,,23,state
screen,html.Screen,2_1_1_1_24,2022-05-02T11:46:51.690Z,,,,,,,,,,,,,,,,,54,,,,,,,,,,,,,,301.5159999761381,,response,,,,100,,,,,,,Space,keypress(Space),,,,,,,,-- --- ---- --- ------ ----- ------- ---- -- --- ------- --<br>------- ---------- ------ -- ----- -- ----- -- ---- ------<br>--- ----- cut --- ------ -------- ----- --- ------ ----- --<br>----- ----- ---------- --- --- ------ ------ ---- -- ------<br>------- --- ------ ----- --- ---- ------- -- ---- --- --<br>------- ------,296853.89999997616,296853.39999997616,296509.271,296524.7000000477,296551.884,296859.146,,24,cut
screen,html.Screen,2_1_1_1_25,2022-05-02T11:46:52.216Z,,,,,,,,,,,,,,,,,54,,,,,,,,,,,,,,519.9540000238339,,response,,,,100,,,,,,,Space,keypress(Space),,,,,,,,-- --- ---- --- ------ ----- ------- ---- -- --- ------- --<br>------- ---------- ------ -- ----- -- ----- -- ---- ------<br>--- ----- --- the ------ -------- ----- --- ------ ----- --<br>----- ----- ---------- --- --- ------ ------ ---- -- ------<br>------- --- ------ ----- --- ---- ------- -- ---- --- --<br>------- ------,297379.5,297379.10000002384,296842.584,296853.89999997616,296859.146,297392.462,,25,the
screen,html.Screen,2_1_1_1_26,2022-05-02T11:46:53.037Z,,,,,,,,,,,,,,,,,54,,,,,,,,,,,,,,807.7380000476842,,response,,,,100,,,,,,,Space,keypress(Space),,,,,,,,-- --- ---- --- ------ ----- ------- ---- -- --- ------- --<br>------- ---------- ------ -- ----- -- ----- -- ---- ------<br>--- ----- --- --- bonds' -------- ----- --- ------ ----- --<br>----- ----- ---------- --- --- ------ ------ ---- -- ------<br>------- --- ------ ----- --- ---- ------- -- ---- --- --<br>------- ------,298200.60000002384,298200.2000000477,297375.888,297379.60000002384,297392.462,298209.476,,26,bonds'
screen,html.Screen,2_1_1_1_27,2022-05-02T11:46:53.523Z,,,,,,,,,,,,,,,,,54,,,,,,,,,,,,,,476.82399995229207,,response,,,,100,,,,,,,Space,keypress(Space),,,,,,,,-- --- ---- --- ------ ----- ------- ---- -- --- ------- --<br>------- ---------- ------ -- ----- -- ----- -- ---- ------<br>--- ----- --- --- ------ interest ----- --- ------ ----- --<br>----- ----- ---------- --- --- ------ ------ ---- -- ------<br>------- --- ------ ----- --- ---- ------- -- ---- --- --<br>------- ------,298686.7000000477,298686.2999999523,298192.279,298200.60000002384,298209.476,298692.436,,27,interest
screen,html.Screen,2_1_1_1_28,2022-05-02T11:46:53.872Z,,,,,,,,,,,,,,,,,54,,,,,,,,,,,,,,342.8639999523293,,response,,,,100,,,,,,,Space,keypress(Space),,,,,,,,-- --- ---- --- ------ ----- ------- ---- -- --- ------- --<br>------- ---------- ------ -- ----- -- ----- -- ---- ------<br>--- ----- --- --- ------ -------- rate. --- ------ ----- --<br>----- ----- ---------- --- --- ------ ------ ---- -- ------<br>------- --- ------ ----- --- ---- ------- -- ---- --- --<br>------- ------,299035.60000002384,299035.2999999523,298675.898,298686.7999999523,298692.436,299042.407,,28,rate.
screen,html.Screen,2_1_1_1_29,2022-05-02T11:46:54.341Z,,,,,,,,,,,,,,,,,54,,,,,,,,,,,,,,461.9929999761516,,response,,,,100,,,,,,,Space,keypress(Space),,,,,,,,-- --- ---- --- ------ ----- ------- ---- -- --- ------- --<br>------- ---------- ------ -- ----- -- ----- -- ---- ------<br>--- ----- --- --- ------ -------- ----- The ------ ----- --<br>----- ----- ---------- --- --- ------ ------ ---- -- ------<br>------- --- ------ ----- --- ---- ------- -- ---- --- --<br>------- ------,299504.7999999523,299504.39999997616,299025.684,299035.7000000477,299042.407,299509.116,,29,The
screen,html.Screen,2_1_1_1_30,2022-05-02T11:46:54.669Z,,,,,,,,,,,,,,,,,54,,,,,,,,,,,,,,323.08400004770374,,response,,,,100,,,,,,,Space,keypress(Space),,,,,,,,-- --- ---- --- ------ ----- ------- ---- -- --- ------- --<br>------- ---------- ------ -- ----- -- ----- -- ---- ------<br>--- ----- --- --- ------ -------- ----- --- market ----- --<br>----- ----- ---------- --- --- ------ ------ ---- -- ------<br>------- --- ------ ----- --- ---- ------- -- ---- --- --<br>------- ------,299832.5,299832.2000000477,299492.307,299504.7999999523,299509.116,299842.481,,30,market
screen,html.Screen,2_1_1_1_31,2022-05-02T11:46:55.009Z,,,,,,,,,,,,,,,,,54,,,,,,,,,,,,,,329.619000023813,,response,,,,100,,,,,,,Space,keypress(Space),,,,,,,,-- --- ---- --- ------ ----- ------- ---- -- --- ------- --<br>------- ---------- ------ -- ----- -- ----- -- ---- ------<br>--- ----- --- --- ------ -------- ----- --- ------ value --<br>----- ----- ---------- --- --- ------ ------ ---- -- ------<br>------- --- ------ ----- --- ---- ------- -- ---- --- --<br>------- ------,300172.5,300172.10000002384,299825.872,299832.60000002384,299842.481,300175.775,,31,value
screen,html.Screen,2_1_1_1_32,2022-05-02T11:46:55.466Z,,,,,,,,,,,,,,,,,54,,,,,,,,,,,,,,453.42500004766043,,response,,,,100,,,,,,,Space,keypress(Space),,,,,,,,-- --- ---- --- ------ ----- ------- ---- -- --- ------- --<br>------- ---------- ------ -- ----- -- ----- -- ---- ------<br>--- ----- --- --- ------ -------- ----- --- ------ ----- of<br>----- ----- ---------- --- --- ------ ------ ---- -- ------<br>------- --- ------ ----- --- ---- ------- -- ---- --- --<br>------- ------,300629.7000000477,300629.2000000477,300159.067,300172.60000002384,300175.775,300642.514,,32,of
screen,html.Screen,2_1_1_1_33,2022-05-02T11:46:56.039Z,,,,,,,,,,,,,,,,,54,,,,,,,,,,,,,,559.5860000238172,,response,,,,100,,,,,,,Space,keypress(Space),,,,,,,,-- --- ---- --- ------ ----- ------- ---- -- --- ------- --<br>------- ---------- ------ -- ----- -- ----- -- ---- ------<br>--- ----- --- --- ------ -------- ----- --- ------ ----- --<br>these ----- ---------- --- --- ------ ------ ---- -- ------<br>------- --- ------ ----- --- ---- ------- -- ---- --- --<br>------- ------,301202.5,301202.10000002384,300625.951,300629.7999999523,300642.514,301209.13,,33,these
screen,html.Screen,2_1_1_1_34,2022-05-02T11:46:56.411Z,,,,,,,,,,,,,,,,,54,,,,,,,,,,,,,,365.2699999761535,,response,,,,100,,,,,,,Space,keypress(Space),,,,,,,,-- --- ---- --- ------ ----- ------- ---- -- --- ------- --<br>------- ---------- ------ -- ----- -- ----- -- ---- ------<br>--- ----- --- --- ------ -------- ----- --- ------ ----- --<br>----- bonds ---------- --- --- ------ ------ ---- -- ------<br>------- --- ------ ----- --- ---- ------- -- ---- --- --<br>------- ------,301574.7000000477,301574.39999997616,301192.485,301202.60000002384,301209.13,301597.449,,34,bonds
screen,html.Screen,2_1_1_1_35,2022-05-02T11:46:58.467Z,,,,,,,,,,,,,,,,,54,,,,,,,,,,,,,,2033.0509999999776,,response,,,,100,,,,,,,Space,keypress(Space),,,,,,,,"-- --- ---- --- ------ ----- ------- ---- -- --- ------- --<br>------- ---------- ------ -- ----- -- ----- -- ---- ------<br>--- ----- --- --- ------ -------- ----- --- ------ ----- --<br>----- ----- plummeted, --- --- ------ ------ ---- -- ------<br>------- --- ------ ----- --- ---- ------- -- ---- --- --<br>------- ------",303631,303630.5,301559.074,301574.7999999523,301597.449,303642.474,,35,"plummeted,"
screen,html.Screen,2_1_1_1_36,2022-05-02T11:46:59.439Z,,,,,,,,,,,,,,,,,54,,,,,,,,,,,,,,959.5260000000126,,response,,,,100,,,,,,,Space,keypress(Space),,,,,,,,-- --- ---- --- ------ ----- ------- ---- -- --- ------- --<br>------- ---------- ------ -- ----- -- ----- -- ---- ------<br>--- ----- --- --- ------ -------- ----- --- ------ ----- --<br>----- ----- ---------- and --- ------ ------ ---- -- ------<br>------- --- ------ ----- --- ---- ------- -- ---- --- --<br>------- ------,304602.2999999523,304602,303625.194,303631,303642.474,304609.147,,36,and
screen,html.Screen,2_1_1_1_37,2022-05-02T11:46:59.776Z,,,,,,,,,,,,,,,,,54,,,,,,,,,,,,,,329.95300002384465,,response,,,,100,,,,,,,Space,keypress(Space),,,,,,,,-- --- ---- --- ------ ----- ------- ---- -- --- ------- --<br>------- ---------- ------ -- ----- -- ----- -- ---- ------<br>--- ----- --- --- ------ -------- ----- --- ------ ----- --<br>----- ----- ---------- --- the ------ ------ ---- -- ------<br>------- --- ------ ----- --- ---- ------- -- ---- --- --<br>------- ------,304939.5,304939.10000002384,304592.161,304602.39999997616,304609.147,304942.419,,37,the
screen,html.Screen,2_1_1_1_38,2022-05-02T11:47:00.203Z,,,,,,,,,,,,,,,,,54,,,,,,,,,,,,,,423.7810000476893,,response,,,,100,,,,,,,Space,keypress(Space),,,,,,,,-- --- ---- --- ------ ----- ------- ---- -- --- ------- --<br>------- ---------- ------ -- ----- -- ----- -- ---- ------<br>--- ----- --- --- ------ -------- ----- --- ------ ----- --<br>----- ----- ---------- --- --- market ------ ---- -- ------<br>------- --- ------ ----- --- ---- ------- -- ---- --- --<br>------- ------,305366.60000002384,305366.2000000477,304925.686,304939.60000002384,304942.419,305375.769,,38,market
screen,html.Screen,2_1_1_1_39,2022-05-02T11:47:00.568Z,,,,,,,,,,,,,,,,,54,,,,,,,,,,,,,,355.73100000002887,,response,,,,100,,,,,,,Space,keypress(Space),,,,,,,,-- --- ---- --- ------ ----- ------- ---- -- --- ------- --<br>------- ---------- ------ -- ----- -- ----- -- ---- ------<br>--- ----- --- --- ------ -------- ----- --- ------ ----- --<br>----- ----- ---------- --- --- ------ became ---- -- ------<br>------- --- ------ ----- --- ---- ------- -- ---- --- --<br>------- ------,305731.89999997616,305731.5,305358.982,305366.7000000477,305375.769,305742.491,,39,became
screen,html.Screen,2_1_1_1_40,2022-05-02T11:47:01.033Z,,,,,,,,,,,,,,,,,54,,,,,,,,,,,,,,452.90899997617817,,response,,,,100,,,,,,,Space,keypress(Space),,,,,,,,-- --- ---- --- ------ ----- ------- ---- -- --- ------- --<br>------- ---------- ------ -- ----- -- ----- -- ---- ------<br>--- ----- --- --- ------ -------- ----- --- ------ ----- --<br>----- ----- ---------- --- --- ------ ------ wary -- ------<br>------- --- ------ ----- --- ---- ------- -- ---- --- --<br>------- ------,306196,306195.39999997616,305725.662,305731.89999997616,305742.491,306209.473,,40,wary
screen,html.Screen,2_1_1_1_41,2022-05-02T11:47:01.373Z,,,,,,,,,,,,,,,,,54,,,,,,,,,,,,,,326.92699997616,,response,,,,100,,,,,,,Space,keypress(Space),,,,,,,,-- --- ---- --- ------ ----- ------- ---- -- --- ------- --<br>------- ---------- ------ -- ----- -- ----- -- ---- ------<br>--- ----- --- --- ------ -------- ----- --- ------ ----- --<br>----- ----- ---------- --- --- ------ ------ ---- of ------<br>------- --- ------ ----- --- ---- ------- -- ---- --- --<br>------- ------,306536.89999997616,306536.39999997616,306192.296,306196.10000002384,306209.473,306542.471,,41,of
screen,html.Screen,2_1_1_1_42,2022-05-02T11:47:01.755Z,,,,,,,,,,,,,,,,,54,,,,,,,,,,,,,,376.02899999998044,,response,,,,100,,,,,,,Space,keypress(Space),,,,,,,,-- --- ---- --- ------ ----- ------- ---- -- --- ------- --<br>------- ---------- ------ -- ----- -- ----- -- ---- ------<br>--- ----- --- --- ------ -------- ----- --- ------ ----- --<br>----- ----- ---------- --- --- ------ ------ ---- -- French<br>------- --- ------ ----- --- ---- ------- -- ---- --- --<br>------- ------,306918.89999997616,306918.5,306525.729,306537,306542.471,306925.755,,42,French
screen,html.Screen,2_1_1_1_43,2022-05-02T11:47:02.179Z,,,,,,,,,,,,,,,,,54,,,,,,,,,,,,,,416.24499999999534,,response,,,,100,,,,,,,Space,keypress(Space),,,,,,,,-- --- ---- --- ------ ----- ------- ---- -- --- ------- --<br>------- ---------- ------ -- ----- -- ----- -- ---- ------<br>--- ----- --- --- ------ -------- ----- --- ------ ----- --<br>----- ----- ---------- --- --- ------ ------ ---- -- ------<br>credit. --- ------ ----- --- ---- ------- -- ---- --- --<br>------- ------,307342.39999997616,307342,306908.997,306919,306925.755,307359.378,,43,credit.
screen,html.Screen,2_1_1_1_44,2022-05-02T11:47:02.584Z,,,,,,,,,,,,,,,,,54,,,,,,,,,,,,,,388.02199997613207,,response,,,,100,,,,,,,Space,keypress(Space),,,,,,,,-- --- ---- --- ------ ----- ------- ---- -- --- ------- --<br>------- ---------- ------ -- ----- -- ----- -- ---- ------<br>--- ----- --- --- ------ -------- ----- --- ------ ----- --<br>----- ----- ---------- --- --- ------ ------ ---- -- ------<br>------- The ------ ----- --- ---- ------- -- ---- --- --<br>------- ------,307747.7999999523,307747.39999997616,307342.638,307342.39999997616,307359.378,307759.286,,44,The
screen,html.Screen,2_1_1_1_45,2022-05-02T11:47:02.939Z,,,,,,,,,,,,,,,,,54,,,,,,,,,,,,,,343.11399997613626,,response,,,,100,,,,,,,Space,keypress(Space),,,,,,,,-- --- ---- --- ------ ----- ------- ---- -- --- ------- --<br>------- ---------- ------ -- ----- -- ----- -- ---- ------<br>--- ----- --- --- ------ -------- ----- --- ------ ----- --<br>----- ----- ---------- --- --- ------ ------ ---- -- ------<br>------- --- French ----- --- ---- ------- -- ---- --- --<br>------- ------,308102.7999999523,308102.39999997616,307742.318,307747.7999999523,307759.286,308109.104,,45,French
screen,html.Screen,2_1_1_1_46,2022-05-02T11:47:03.321Z,,,,,,,,,,,,,,,,,54,,,,,,,,,,,,,,375.09600004769163,,response,,,,100,,,,,,,Space,keypress(Space),,,,,,,,-- --- ---- --- ------ ----- ------- ---- -- --- ------- --<br>------- ---------- ------ -- ----- -- ----- -- ---- ------<br>--- ----- --- --- ------ -------- ----- --- ------ ----- --<br>----- ----- ---------- --- --- ------ ------ ---- -- ------<br>------- --- ------ state --- ---- ------- -- ---- --- --<br>------- ------,308484.60000002384,308484.2000000477,308092.316,308102.89999997616,308109.104,308492.47,,46,state
screen,html.Screen,2_1_1_1_47,2022-05-02T11:47:03.670Z,,,,,,,,,,,,,,,,,54,,,,,,,,,,,,,,340.9299999761861,,response,,,,100,,,,,,,Space,keypress(Space),,,,,,,,-- --- ---- --- ------ ----- ------- ---- -- --- ------- --<br>------- ---------- ------ -- ----- -- ----- -- ---- ------<br>--- ----- --- --- ------ -------- ----- --- ------ ----- --<br>----- ----- ---------- --- --- ------ ------ ---- -- ------<br>------- --- ------ ----- was ---- ------- -- ---- --- --<br>------- ------,308833.7000000477,308833.39999997616,308475.674,308484.60000002384,308492.47,308842.469,,47,was
screen,html.Screen,2_1_1_1_48,2022-05-02T11:47:03.982Z,,,,,,,,,,,,,,,,,54,,,,,,,,,,,,,,302.93099997617537,,response,,,,100,,,,,,,Space,keypress(Space),,,,,,,,-- --- ---- --- ------ ----- ------- ---- -- --- ------- --<br>------- ---------- ------ -- ----- -- ----- -- ---- ------<br>--- ----- --- --- ------ -------- ----- --- ------ ----- --<br>----- ----- ---------- --- --- ------ ------ ---- -- ------<br>------- --- ------ ----- --- left ------- -- ---- --- --<br>------- ------,309145.7999999523,309145.39999997616,308825.828,308833.89999997616,308842.469,309159.275,,48,left
screen,html.Screen,2_1_1_1_49,2022-05-02T11:47:04.403Z,,,,,,,,,,,,,,,,,54,,,,,,,,,,,,,,407.12499997613486,,response,,,,100,,,,,,,Space,keypress(Space),,,,,,,,-- --- ---- --- ------ ----- ------- ---- -- --- ------- --<br>------- ---------- ------ -- ----- -- ----- -- ---- ------<br>--- ----- --- --- ------ -------- ----- --- ------ ----- --<br>----- ----- ---------- --- --- ------ ------ ---- -- ------<br>------- --- ------ ----- --- ---- without -- ---- --- --<br>------- ------,309566.7999999523,309566.39999997616,309142.346,309145.89999997616,309159.275,309575.765,,49,without
screen,html.Screen,2_1_1_1_50,2022-05-02T11:47:04.728Z,,,,,,,,,,,,,,,,,54,,,,,,,,,,,,,,315.23499999998603,,response,,,,100,,,,,,,Space,keypress(Space),,,,,,,,-- --- ---- --- ------ ----- ------- ---- -- --- ------- --<br>------- ---------- ------ -- ----- -- ----- -- ---- ------<br>--- ----- --- --- ------ -------- ----- --- ------ ----- --<br>----- ----- ---------- --- --- ------ ------ ---- -- ------<br>------- --- ------ ----- --- ---- ------- an ---- --- --<br>------- ------,309891.5,309891,309558.98,309566.89999997616,309575.765,309916.134,,50,an
screen,html.Screen,2_1_1_1_51,2022-05-02T11:47:05.044Z,,,,,,,,,,,,,,,,,54,,,,,,,,,,,,,,291.16599995229626,,response,,,,100,,,,,,,Space,keypress(Space),,,,,,,,-- --- ---- --- ------ ----- ------- ---- -- --- ------- --<br>------- ---------- ------ -- ----- -- ----- -- ---- ------<br>--- ----- --- --- ------ -------- ----- --- ------ ----- --<br>----- ----- ---------- --- --- ------ ------ ---- -- ------<br>------- --- ------ ----- --- ---- ------- -- easy --- --<br>------- ------,310207.7000000477,310207.2999999523,309875.679,309891.5,309916.134,310230.267,,51,easy
screen,html.Screen,2_1_1_1_52,2022-05-02T11:47:05.393Z,,,,,,,,,,,,,,,,,54,,,,,,,,,,,,,,325.6329999761656,,response,,,,100,,,,,,,Space,keypress(Space),,,,,,,,-- --- ---- --- ------ ----- ------- ---- -- --- ------- --<br>------- ---------- ------ -- ----- -- ----- -- ---- ------<br>--- ----- --- --- ------ -------- ----- --- ------ ----- --<br>----- ----- ---------- --- --- ------ ------ ---- -- ------<br>------- --- ------ ----- --- ---- ------- -- ---- way --<br>------- ------,310556.10000002384,310555.89999997616,310192.665,310207.89999997616,310230.267,310559.055,,52,way
screen,html.Screen,2_1_1_1_53,2022-05-02T11:47:05.702Z,,,,,,,,,,,,,,,,,54,,,,,,,,,,,,,,306.04500002384884,,response,,,,100,,,,,,,Space,keypress(Space),,,,,,,,-- --- ---- --- ------ ----- ------- ---- -- --- ------- --<br>------- ---------- ------ -- ----- -- ----- -- ---- ------<br>--- ----- --- --- ------ -------- ----- --- ------ ----- --<br>----- ----- ---------- --- --- ------ ------ ---- -- ------<br>------- --- ------ ----- --- ---- ------- -- ---- --- of<br>------- ------,310865.39999997616,310865.10000002384,310542.626,310556.2000000477,310559.055,310875.723,,53,of
screen,html.Screen,2_1_1_1_54,2022-05-02T11:47:06.103Z,,,,,,,,,,,,,,,,,54,,,,,,,,,,,,,,390.27700000000186,,response,,,,100,,,,,,,Space,keypress(Space),,,,,,,,-- --- ---- --- ------ ----- ------- ---- -- --- ------- --<br>------- ---------- ------ -- ----- -- ----- -- ---- ------<br>--- ----- --- --- ------ -------- ----- --- ------ ----- --<br>----- ----- ---------- --- --- ------ ------ ---- -- ------<br>------- --- ------ ----- --- ---- ------- -- ---- --- --<br>raising ------,311266.5,311266,310858.996,310865.39999997616,310875.723,311276.04,,54,raising
screen,html.Screen,2_1_1_1_55,2022-05-02T11:47:06.809Z,,,,,,,,,,,,,,,,,54,,,,,,,,,,,,,,696.460000000021,,response,,,,100,,,,,,,Space,keypress(Space),,,,,,,,-- --- ---- --- ------ ----- ------- ---- -- --- ------- --<br>------- ---------- ------ -- ----- -- ----- -- ---- ------<br>--- ----- --- --- ------ -------- ----- --- ------ ----- --<br>----- ----- ---------- --- --- ------ ------ ---- -- ------<br>------- --- ------ ----- --- ---- ------- -- ---- --- --<br>------- money.,311972.7999999523,311972.5,311259.04,311266.5,311276.04,311975.734,,55,money.
Item 100,flow.Loop,2_1_1_1,2022-05-02T11:47:06.809Z,,,,,,,,,,,,,,,,,,,,,,,,,,,,,,,30696.713999999978,,completion,,,,,G,,,,,,,,,,,silence,,,,,311973,311972.5,281259.388,281259.7999999523,281275.786,311975.734,,,
Question 1,html.Screen,2_1_1_2,2022-05-02T11:47:11.100Z,,,,,,,,,,,,,,,,,,,,,,,,,,,,true,TRUE,,4286.665999976161,,response,,,,100,G,,,,,,TRUE,click #choice-1,,,,silence,,,,,316263.10000002384,316262.39999997616,311958.901,311973.10000002384,311975.734,316275.755,,,
Question 2,html.Screen,2_1_1_3,2022-05-02T11:47:13.764Z,,,,,,,,,,,,,,,,,,,,,,,,,,,,true,FALSE,,2651.445000047679,,response,,,,100,G,,,,,,FALSE,click #choice-2,,,,silence,,,,,318927.7999999523,318927.2000000477,316259.399,316263.10000002384,316275.755,318942.456,,,
Item 100,flow.Sequence,2_1_1,2022-05-02T11:47:13.764Z,,,,,,,,,,,,,,,,,,,,,,,,,,,,,,,47651.36400004767,,completion,,,,,,,,,,,,,,,,,,,,,318927.89999997616,318927.2000000477,271259.368,271269.89999997616,271275.836,318942.456,,,
End of Practice,html.Page,2_1_2,2022-05-02T11:47:18.371Z,,,,,,,,,,,,,,,,,,,,,,,,,,,,,,,4591.543999999994,,form submission,,,,,,,,,,,,,,,,,,,,,323534.2999999523,323534,318926.033,318927.89999997616,318942.456,323542.434,,,
Practice,flow.Sequence,2_1,2022-05-02T11:47:18.371Z,,,,,,,,,,,,,,,,,,,,,,,,,,,,,,,112924.91500000001,,completion,,,,,,,,,,,,,,,,,,,,,323534.39999997616,323534,210592.444,210602.10000002384,210609.085,323542.434,,,
Trap_instruction,html.Page,2_2_0,2022-05-02T11:47:23.326Z,,,,,,,,,,,,,,,,,,,,,,,,,,,,,,,4947.365999952308,,form submission,,,,,,,,,,,,,,,,,,,,,328490,328489.7999999523,323526.049,323534.39999997616,323542.434,328509.278,,,
trap_trial,html.Screen,2_2_1,2022-05-02T11:47:26.522Z,,,,,,,,,,,,,,,,,,,,,,,,,,,,true,1,,3176.021999952325,,response,,,,,,,,,,,1,click #choice-1,,,,,,,,,331685.89999997616,331685.2999999523,328475.958,328490.10000002384,328509.278,331692.395,,,
end of trap trial,html.Page,2_2_2,2022-05-02T11:47:28.120Z,,,,,,,,,,,,,,,,,,,,,,,,,,,,,,,1590.7050000238232,,form submission,,,,,,,,,,,,,,,,,,,,,333283.2999999523,333283.10000002384,331675.977,331686,331692.395,333292.476,,,
Trap 1,flow.Sequence,2_2,2022-05-02T11:47:28.120Z,,,,,,,,,,,,,,,,,,,,,,,,,,,,,,,9740.666000023833,,completion,,,,,,,,,,,,,,,,,,,,,333283.39999997616,333283.10000002384,323526.049,323534.39999997616,323542.434,333292.476,,,
Standby,html.Page,2_3_0,2022-05-02T11:47:36.113Z,,,,,,,,,,,,,,,,,,,,,,,,,,,,,,,8000.057999999961,,timeout,,,,,,,,,,,,,,,,,,,,,341276.7000000477,341276.007,333276.048,333283.39999997616,333292.476,341292.534,,,
Holding screen,html.Screen,2_3_1_0_0,2022-05-02T11:47:43.113Z,,,,,,,,,,,,,,,,,,,,,,,,,,,,,,,7000.188000000024,,timeout,,,,,,,,,,,,,,,,,,,,,348276.5,348276.02,341276.007,341276.89999997616,341292.534,348292.722,,,
screen,html.Screen,2_3_1_0_1_0,2022-05-02T11:47:45.189Z,,,,,,,,,,,,,,,,,40,,,,,,,,,,,,,,2058.978000047675,,response,,,,9,G,,,,,,Space,keypress(Space),,,,instrumental,,,,Police -- ------- ---- ---- ---- - -------- ----- --- --<br>----- ----- ------ -- ---- -- --- - ---- -- - ----- -----<br>------ ---- ------ ---- - -------- ------- -- --- --------<br>-------- ----------- ---- ------ ---- ------ ---- --- ---<br>-------- --- -----,350352.2999999523,350351.7000000477,348276.02,348276.60000002384,348292.722,350359.131,,0,Police
screen,html.Screen,2_3_1_0_1_1,2022-05-02T11:47:45.615Z,,,,,,,,,,,,,,,,,40,,,,,,,,,,,,,,418.4690000238479,,response,,,,9,G,,,,,,Space,keypress(Space),,,,instrumental,,,,------ in ------- ---- ---- ---- - -------- ----- --- --<br>----- ----- ------ -- ---- -- --- - ---- -- - ----- -----<br>------ ---- ------ ---- - -------- ------- -- --- --------<br>-------- ----------- ---- ------ ---- ------ ---- --- ---<br>-------- --- -----,350778.2999999523,350777.60000002384,350342.079,350352.2999999523,350359.131,350792.749,,1,in
screen,html.Screen,2_3_1_0_1_2,2022-05-02T11:47:46.088Z,,,,,,,,,,,,,,,,,40,,,,,,,,,,,,,,458.451000047673,,response,,,,9,G,,,,,,Space,keypress(Space),,,,instrumental,,,,------ -- Georgia ---- ---- ---- - -------- ----- --- --<br>----- ----- ------ -- ---- -- --- - ---- -- - ----- -----<br>------ ---- ------ ---- - -------- ------- -- --- --------<br>-------- ----------- ---- ------ ---- ------ ---- --- ---<br>-------- --- -----,351251.60000002384,351251.2000000477,350775.848,350778.2999999523,350792.749,351259.341,,2,Georgia
screen,html.Screen,2_3_1_0_1_3,2022-05-02T11:47:47.001Z,,,,,,,,,,,,,,,,,40,,,,,,,,,,,,,,904.9589999523014,,response,,,,9,G,,,,,,Space,keypress(Space),,,,instrumental,,,,------ -- ------- have ---- ---- - -------- ----- --- --<br>----- ----- ------ -- ---- -- --- - ---- -- - ----- -----<br>------ ---- ------ ---- - -------- ------- -- --- --------<br>-------- ----------- ---- ------ ---- ------ ---- --- ---<br>-------- --- -----,352164.7000000477,352164.2999999523,351242.597,351251.60000002384,351259.341,352176.064,,3,have
screen,html.Screen,2_3_1_0_1_4,2022-05-02T11:47:47.337Z,,,,,,,,,,,,,,,,,40,,,,,,,,,,,,,,324.23599995230325,,response,,,,9,G,,,,,,Space,keypress(Space),,,,instrumental,,,,------ -- ------- ---- shut ---- - -------- ----- --- --<br>----- ----- ------ -- ---- -- --- - ---- -- - ----- -----<br>------ ---- ------ ---- - -------- ------- -- --- --------<br>-------- ----------- ---- ------ ---- ------ ---- --- ---<br>-------- --- -----,352500.60000002384,352500.2999999523,352158.838,352164.7999999523,352176.064,352509.127,,4,shut
screen,html.Screen,2_3_1_0_1_5,2022-05-02T11:47:47.989Z,,,,,,,,,,,,,,,,,40,,,,,,,,,,,,,,643.3730000000214,,response,,,,9,G,,,,,,Space,keypress(Space),,,,instrumental,,,,------ -- ------- ---- ---- down - -------- ----- --- --<br>----- ----- ------ -- ---- -- --- - ---- -- - ----- -----<br>------ ---- ------ ---- - -------- ------- -- --- --------<br>-------- ----------- ---- ------ ---- ------ ---- --- ---<br>-------- --- -----,353152.89999997616,353152.5,352492.592,352500.60000002384,352509.127,353159.068,,5,down
screen,html.Screen,2_3_1_0_1_6,2022-05-02T11:47:48.346Z,,,,,,,,,,,,,,,,,40,,,,,,,,,,,,,,350.1320000476553,,response,,,,9,G,,,,,,Space,keypress(Space),,,,instrumental,,,,------ -- ------- ---- ---- ---- a -------- ----- --- --<br>----- ----- ------ -- ---- -- --- - ---- -- - ----- -----<br>------ ---- ------ ---- - -------- ------- -- --- --------<br>-------- ----------- ---- ------ ---- ------ ---- --- ---<br>-------- --- -----,353509.60000002384,353509.2000000477,353142.494,353153,353159.068,353526.084,,6,a
screen,html.Screen,2_3_1_0_1_7,2022-05-02T11:47:49.434Z,,,,,,,,,,,,,,,,,40,,,,,,,,,,,,,,1070.9160000000265,,response,,,,9,G,,,,,,Space,keypress(Space),,,,instrumental,,,,------ -- ------- ---- ---- ---- - lemonade ----- --- --<br>----- ----- ------ -- ---- -- --- - ---- -- - ----- -----<br>------ ---- ------ ---- - -------- ------- -- --- --------<br>-------- ----------- ---- ------ ---- ------ ---- --- ---<br>-------- --- -----,354597.5,354597,353509.262,353509.60000002384,353526.084,354609.09,,7,lemonade
screen,html.Screen,2_3_1_0_1_8,2022-05-02T11:47:50.123Z,,,,,,,,,,,,,,,,,40,,,,,,,,,,,,,,677.1100000476581,,response,,,,9,G,,,,,,Space,keypress(Space),,,,instrumental,,,,------ -- ------- ---- ---- ---- - -------- stand --- --<br>----- ----- ------ -- ---- -- --- - ---- -- - ----- -----<br>------ ---- ------ ---- - -------- ------- -- --- --------<br>-------- ----------- ---- ------ ---- ------ ---- --- ---<br>-------- --- -----,355286.7999999523,355286.2000000477,354592.428,354597.5,354609.09,355292.451,,8,stand
screen,html.Screen,2_3_1_0_1_9,2022-05-02T11:47:50.403Z,,,,,,,,,,,,,,,,,40,,,,,,,,,,,,,,273.84899995231535,,response,,,,9,G,,,,,,Space,keypress(Space),,,,instrumental,,,,------ -- ------- ---- ---- ---- - -------- ----- run --<br>----- ----- ------ -- ---- -- --- - ---- -- - ----- -----<br>------ ---- ------ ---- - -------- ------- -- --- --------<br>-------- ----------- ---- ------ ---- ------ ---- --- ---<br>-------- --- -----,355566.60000002384,355566.2999999523,355275.581,355286.89999997616,355292.451,355575.818,,9,run
screen,html.Screen,2_3_1_0_1_10,2022-05-02T11:47:50.801Z,,,,,,,,,,,,,,,,,40,,,,,,,,,,,,,,388.28200002381345,,response,,,,9,G,,,,,,Space,keypress(Space),,,,instrumental,,,,------ -- ------- ---- ---- ---- - -------- ----- --- by<br>----- ----- ------ -- ---- -- --- - ---- -- - ----- -----<br>------ ---- ------ ---- - -------- ------- -- --- --------<br>-------- ----------- ---- ------ ---- ------ ---- --- ---<br>-------- --- -----,355964.60000002384,355964.10000002384,355559.067,355566.7000000477,355575.818,355975.72,,10,by
screen,html.Screen,2_3_1_0_1_11,2022-05-02T11:47:51.210Z,,,,,,,,,,,,,,,,,40,,,,,,,,,,,,,,397.6799999761861,,response,,,,9,G,,,,,,Space,keypress(Space),,,,instrumental,,,,------ -- ------- ---- ---- ---- - -------- ----- --- --<br>three ----- ------ -- ---- -- --- - ---- -- - ----- -----<br>------ ---- ------ ---- - -------- ------- -- --- --------<br>-------- ----------- ---- ------ ---- ------ ---- --- ---<br>-------- --- -----,356373.7999999523,356373.39999997616,355958.989,355964.60000002384,355975.72,356375.72,,11,three
screen,html.Screen,2_3_1_0_1_12,2022-05-02T11:47:51.558Z,,,,,,,,,,,,,,,,,40,,,,,,,,,,,,,,345.48000004771166,,response,,,,9,G,,,,,,Space,keypress(Space),,,,instrumental,,,,------ -- ------- ---- ---- ---- - -------- ----- --- --<br>----- girls ------ -- ---- -- --- - ---- -- - ----- -----<br>------ ---- ------ ---- - -------- ------- -- --- --------<br>-------- ----------- ---- ------ ---- ------ ---- --- ---<br>-------- --- -----,356721.5,356721.2000000477,356359.322,356373.89999997616,356375.72,356725.735,,12,girls
screen,html.Screen,2_3_1_0_1_13,2022-05-02T11:47:51.907Z,,,,,,,,,,,,,,,,,40,,,,,,,,,,,,,,344.3650000238558,,response,,,,9,G,,,,,,Space,keypress(Space),,,,instrumental,,,,------ -- ------- ---- ---- ---- - -------- ----- --- --<br>----- ----- trying -- ---- -- --- - ---- -- - ----- -----<br>------ ---- ------ ---- - -------- ------- -- --- --------<br>-------- ----------- ---- ------ ---- ------ ---- --- ---<br>-------- --- -----,357070.7999999523,357070.10000002384,356709.132,356721.60000002384,356725.735,357075.78,,13,trying
screen,html.Screen,2_3_1_0_1_14,2022-05-02T11:47:52.264Z,,,,,,,,,,,,,,,,,40,,,,,,,,,,,,,,351.51999995228834,,response,,,,9,G,,,,,,Space,keypress(Space),,,,instrumental,,,,------ -- ------- ---- ---- ---- - -------- ----- --- --<br>----- ----- ------ to ---- -- --- - ---- -- - ----- -----<br>------ ---- ------ ---- - -------- ------- -- --- --------<br>-------- ----------- ---- ------ ---- ------ ---- --- ---<br>-------- --- -----,357427.7000000477,357427.2999999523,357059.234,357070.89999997616,357075.78,357442.447,,14,to
screen,html.Screen,2_3_1_0_1_15,2022-05-02T11:47:52.765Z,,,,,,,,,,,,,,,,,40,,,,,,,,,,,,,,485.8529999523307,,response,,,,9,G,,,,,,Space,keypress(Space),,,,instrumental,,,,------ -- ------- ---- ---- ---- - -------- ----- --- --<br>----- ----- ------ -- save -- --- - ---- -- - ----- -----<br>------ ---- ------ ---- - -------- ------- -- --- --------<br>-------- ----------- ---- ------ ---- ------ ---- --- ---<br>-------- --- -----,357928.7999999523,357928.2999999523,357425.724,357427.89999997616,357442.447,357942.708,,15,save
screen,html.Screen,2_3_1_0_1_16,2022-05-02T11:47:53.098Z,,,,,,,,,,,,,,,,,40,,,,,,,,,,,,,,318.5919999523321,,response,,,,9,G,,,,,,Space,keypress(Space),,,,instrumental,,,,------ -- ------- ---- ---- ---- - -------- ----- --- --<br>----- ----- ------ -- ---- up --- - ---- -- - ----- -----<br>------ ---- ------ ---- - -------- ------- -- --- --------<br>-------- ----------- ---- ------ ---- ------ ---- --- ---<br>-------- --- -----,358261.7000000477,358261.2999999523,357925.894,357928.89999997616,357942.708,358276.038,,16,up
screen,html.Screen,2_3_1_0_1_17,2022-05-02T11:47:53.462Z,,,,,,,,,,,,,,,,,40,,,,,,,,,,,,,,349.2619999523158,,response,,,,9,G,,,,,,Space,keypress(Space),,,,instrumental,,,,------ -- ------- ---- ---- ---- - -------- ----- --- --<br>----- ----- ------ -- ---- -- for - ---- -- - ----- -----<br>------ ---- ------ ---- - -------- ------- -- --- --------<br>-------- ----------- ---- ------ ---- ------ ---- --- ---<br>-------- --- -----,358625.7000000477,358625.2999999523,358259.285,358261.7000000477,358276.038,358642.727,,17,for
screen,html.Screen,2_3_1_0_1_18,2022-05-02T11:47:53.758Z,,,,,,,,,,,,,,,,,40,,,,,,,,,,,,,,278.4730000476702,,response,,,,9,G,,,,,,Space,keypress(Space),,,,instrumental,,,,------ -- ------- ---- ---- ---- - -------- ----- --- --<br>----- ----- ------ -- ---- -- --- a ---- -- - ----- -----<br>------ ---- ------ ---- - -------- ------- -- --- --------<br>-------- ----------- ---- ------ ---- ------ ---- --- ---<br>-------- --- -----,358921.5,358921.2000000477,358625.725,358625.7999999523,358642.727,358925.738,,18,a
screen,html.Screen,2_3_1_0_1_19,2022-05-02T11:47:54.071Z,,,,,,,,,,,,,,,,,40,,,,,,,,,,,,,,308.0619999523042,,response,,,,9,G,,,,,,Space,keypress(Space),,,,instrumental,,,,------ -- ------- ---- ---- ---- - -------- ----- --- --<br>----- ----- ------ -- ---- -- --- - trip -- - ----- -----<br>------ ---- ------ ---- - -------- ------- -- --- --------<br>-------- ----------- ---- ------ ---- ------ ---- --- ---<br>-------- --- -----,359234.39999997616,359233.7999999523,358908.982,358921.60000002384,358925.738,359242.772,,19,trip
screen,html.Screen,2_3_1_0_1_20,2022-05-02T11:47:54.435Z,,,,,,,,,,,,,,,,,40,,,,,,,,,,,,,,355.5279999523191,,response,,,,9,G,,,,,,Space,keypress(Space),,,,instrumental,,,,------ -- ------- ---- ---- ---- - -------- ----- --- --<br>----- ----- ------ -- ---- -- --- - ---- to - ----- -----<br>------ ---- ------ ---- - -------- ------- -- --- --------<br>-------- ----------- ---- ------ ---- ------ ---- --- ---<br>-------- --- -----,359598.89999997616,359598.2999999523,359226.001,359234.39999997616,359242.772,359609.372,,20,to
screen,html.Screen,2_3_1_0_1_21,2022-05-02T11:47:54.767Z,,,,,,,,,,,,,,,,,40,,,,,,,,,,,,,,320.6280000000261,,response,,,,9,G,,,,,,Space,keypress(Space),,,,instrumental,,,,------ -- ------- ---- ---- ---- - -------- ----- --- --<br>----- ----- ------ -- ---- -- --- - ---- -- a ----- -----<br>------ ---- ------ ---- - -------- ------- -- --- --------<br>-------- ----------- ---- ------ ---- ------ ---- --- ---<br>-------- --- -----,359930.5,359930,359592.601,359598.89999997616,359609.372,359942.49,,21,a
screen,html.Screen,2_3_1_0_1_22,2022-05-02T11:47:55.189Z,,,,,,,,,,,,,,,,,40,,,,,,,,,,,,,,409.40999997616746,,response,,,,9,G,,,,,,Space,keypress(Space),,,,instrumental,,,,------ -- ------- ---- ---- ---- - -------- ----- --- --<br>----- ----- ------ -- ---- -- --- - ---- -- - water -----<br>------ ---- ------ ---- - -------- ------- -- --- --------<br>-------- ----------- ---- ------ ---- ------ ---- --- ---<br>-------- --- -----,360352.2999999523,360351.89999997616,359925.679,359930.5,359942.49,360359.031,,22,water
screen,html.Screen,2_3_1_0_1_23,2022-05-02T11:47:56.537Z,,,,,,,,,,,,,,,,,40,,,,,,,,,,,,,,1341.5690000238246,,response,,,,9,G,,,,,,Space,keypress(Space),,,,instrumental,,,,"------ -- ------- ---- ---- ---- - -------- ----- --- --<br>----- ----- ------ -- ---- -- --- - ---- -- - ----- park,<br>------ ---- ------ ---- - -------- ------- -- --- --------<br>-------- ----------- ---- ------ ---- ------ ---- --- ---<br>-------- --- -----",361701,361700.60000002384,360342.313,360352.2999999523,360359.031,361709.031,,23,"park,"
screen,html.Screen,2_3_1_0_1_24,2022-05-02T11:47:57.115Z,,,,,,,,,,,,,,,,,40,,,,,,,,,,,,,,569.3689999761409,,response,,,,9,G,,,,,,Space,keypress(Space),,,,instrumental,,,,------ -- ------- ---- ---- ---- - -------- ----- --- --<br>----- ----- ------ -- ---- -- --- - ---- -- - ----- -----<br>saying ---- ------ ---- - -------- ------- -- --- --------<br>-------- ----------- ---- ------ ---- ------ ---- --- ---<br>-------- --- -----,362279,362278.39999997616,361692.281,361701.10000002384,361709.031,362292.705,,24,saying
screen,html.Screen,2_3_1_0_1_25,2022-05-02T11:47:57.468Z,,,,,,,,,,,,,,,,,40,,,,,,,,,,,,,,338.69499997614184,,response,,,,9,G,,,,,,Space,keypress(Space),,,,instrumental,,,,------ -- ------- ---- ---- ---- - -------- ----- --- --<br>----- ----- ------ -- ---- -- --- - ---- -- - ----- -----<br>------ they ------ ---- - -------- ------- -- --- --------<br>-------- ----------- ---- ------ ---- ------ ---- --- ---<br>-------- --- -----,362631.7999999523,362631.39999997616,362275.721,362279,362292.705,362642.494,,25,they
screen,html.Screen,2_3_1_0_1_26,2022-05-02T11:47:58.710Z,,,,,,,,,,,,,,,,,40,,,,,,,,,,,,,,1231.005999999994,,response,,,,9,G,,,,,,Space,keypress(Space),,,,instrumental,,,,------ -- ------- ---- ---- ---- - -------- ----- --- --<br>----- ----- ------ -- ---- -- --- - ---- -- - ----- -----<br>------ ---- didn't ---- - -------- ------- -- --- --------<br>-------- ----------- ---- ------ ---- ------ ---- --- ---<br>-------- --- -----,363873.89999997616,363873.5,362625.954,362631.89999997616,362642.494,363875.72,,26,didn't
screen,html.Screen,2_3_1_0_1_27,2022-05-02T11:47:59.390Z,,,,,,,,,,,,,,,,,40,,,,,,,,,,,,,,677.5799999523442,,response,,,,9,G,,,,,,Space,keypress(Space),,,,instrumental,,,,------ -- ------- ---- ---- ---- - -------- ----- --- --<br>----- ----- ------ -- ---- -- --- - ---- -- - ----- -----<br>------ ---- ------ have - -------- ------- -- --- --------<br>-------- ----------- ---- ------ ---- ------ ---- --- ---<br>-------- --- -----,364553.7000000477,364553.2999999523,363859.006,363874,363875.72,364559.092,,27,have
screen,html.Screen,2_3_1_0_1_28,2022-05-02T11:47:59.892Z,,,,,,,,,,,,,,,,,40,,,,,,,,,,,,,,496.1080000476795,,response,,,,9,G,,,,,,Space,keypress(Space),,,,instrumental,,,,------ -- ------- ---- ---- ---- - -------- ----- --- --<br>----- ----- ------ -- ---- -- --- - ---- -- - ----- -----<br>------ ---- ------ ---- a -------- ------- -- --- --------<br>-------- ----------- ---- ------ ---- ------ ---- --- ---<br>-------- --- -----,365055.60000002384,365055.2000000477,364542.268,364553.7999999523,364559.092,365059.121,,28,a
screen,html.Screen,2_3_1_0_1_29,2022-05-02T11:48:01.012Z,,,,,,,,,,,,,,,,,40,,,,,,,,,,,,,,1116.1789999523317,,response,,,,9,G,,,,,,Space,keypress(Space),,,,instrumental,,,,------ -- ------- ---- ---- ---- - -------- ----- --- --<br>----- ----- ------ -- ---- -- --- - ---- -- - ----- -----<br>------ ---- ------ ---- - business ------- -- --- --------<br>-------- ----------- ---- ------ ---- ------ ---- --- ---<br>-------- --- -----,366175.7000000477,366175.2999999523,365042.524,365055.60000002384,365059.121,366192.714,,29,business
screen,html.Screen,2_3_1_0_1_30,2022-05-02T11:48:01.312Z,,,,,,,,,,,,,,,,,40,,,,,,,,,,,,,,282.4860000477056,,response,,,,9,G,,,,,,Space,keypress(Space),,,,instrumental,,,,------ -- ------- ---- ---- ---- - -------- ----- --- --<br>----- ----- ------ -- ---- -- --- - ---- -- - ----- -----<br>------ ---- ------ ---- - -------- license -- --- --------<br>-------- ----------- ---- ------ ---- ------ ---- --- ---<br>-------- --- -----,366475.7000000477,366475.2000000477,366175.663,366175.7999999523,366192.714,366492.726,,30,license
screen,html.Screen,2_3_1_0_1_31,2022-05-02T11:48:01.645Z,,,,,,,,,,,,,,,,,40,,,,,,,,,,,,,,315.4740000476595,,response,,,,9,G,,,,,,Space,keypress(Space),,,,instrumental,,,,------ -- ------- ---- ---- ---- - -------- ----- --- --<br>----- ----- ------ -- ---- -- --- - ---- -- - ----- -----<br>------ ---- ------ ---- - -------- ------- or --- --------<br>-------- ----------- ---- ------ ---- ------ ---- --- ---<br>-------- --- -----,366808.60000002384,366808.2000000477,366475.891,366475.7999999523,366492.726,366825.828,,31,or
screen,html.Screen,2_3_1_0_1_32,2022-05-02T11:48:01.900Z,,,,,,,,,,,,,,,,,40,,,,,,,,,,,,,,237.47199995233677,,response,,,,9,G,,,,,,Space,keypress(Space),,,,instrumental,,,,------ -- ------- ---- ---- ---- - -------- ----- --- --<br>----- ----- ------ -- ---- -- --- - ---- -- - ----- -----<br>------ ---- ------ ---- - -------- ------- -- the --------<br>-------- ----------- ---- ------ ---- ------ ---- --- ---<br>-------- --- -----,367063.60000002384,367063.2999999523,366792.613,366808.7000000477,366825.828,367076.035,,32,the
screen,html.Screen,2_3_1_0_1_33,2022-05-02T11:48:02.265Z,,,,,,,,,,,,,,,,,40,,,,,,,,,,,,,,352.06500002386747,,response,,,,9,G,,,,,,Space,keypress(Space),,,,instrumental,,,,------ -- ------- ---- ---- ---- - -------- ----- --- --<br>----- ----- ------ -- ---- -- --- - ---- -- - ----- -----<br>------ ---- ------ ---- - -------- ------- -- --- required<br>-------- ----------- ---- ------ ---- ------ ---- --- ---<br>-------- --- -----,367428.60000002384,367428.10000002384,367059.29,367063.7999999523,367076.035,367442.715,,33,required
screen,html.Screen,2_3_1_0_1_34,2022-05-02T11:48:02.549Z,,,,,,,,,,,,,,,,,40,,,,,,,,,,,,,,269.4850000476581,,response,,,,9,G,,,,,,Space,keypress(Space),,,,instrumental,,,,------ -- ------- ---- ---- ---- - -------- ----- --- --<br>----- ----- ------ -- ---- -- --- - ---- -- - ----- -----<br>------ ---- ------ ---- - -------- ------- -- --- --------<br>permits. ----------- ---- ------ ---- ------ ---- --- ---<br>-------- --- -----,367712.60000002384,367712.2000000477,367425.909,367428.60000002384,367442.715,367725.988,,34,permits.
screen,html.Screen,2_3_1_0_1_35,2022-05-02T11:48:03.571Z,,,,,,,,,,,,,,,,,40,,,,,,,,,,,,,,1008.3119999523042,,response,,,,9,G,,,,,,Space,keypress(Space),,,,instrumental,,,,------ -- ------- ---- ---- ---- - -------- ----- --- --<br>----- ----- ------ -- ---- -- --- - ---- -- - ----- -----<br>------ ---- ------ ---- - -------- ------- -- --- --------<br>-------- Morningstar ---- ------ ---- ------ ---- --- ---<br>-------- --- -----,368734.7999999523,368734.2999999523,367709.298,367712.7000000477,367725.988,368742.726,,35,Morningstar
screen,html.Screen,2_3_1_0_1_36,2022-05-02T11:48:03.867Z,,,,,,,,,,,,,,,,,40,,,,,,,,,,,,,,287.4740000476595,,response,,,,9,G,,,,,,Space,keypress(Space),,,,instrumental,,,,------ -- ------- ---- ---- ---- - -------- ----- --- --<br>----- ----- ------ -- ---- -- --- - ---- -- - ----- -----<br>------ ---- ------ ---- - -------- ------- -- --- --------<br>-------- ----------- says ------ ---- ------ ---- --- ---<br>-------- --- -----,369030.89999997616,369030.2000000477,368725.768,368734.7999999523,368742.726,369042.691,,36,says
screen,html.Screen,2_3_1_0_1_37,2022-05-02T11:48:04.155Z,,,,,,,,,,,,,,,,,40,,,,,,,,,,,,,,275.60899995232467,,response,,,,9,G,,,,,,Space,keypress(Space),,,,instrumental,,,,------ -- ------- ---- ---- ---- - -------- ----- --- --<br>----- ----- ------ -- ---- -- --- - ---- -- - ----- -----<br>------ ---- ------ ---- - -------- ------- -- --- --------<br>-------- ----------- ---- police ---- ------ ---- --- ---<br>-------- --- -----,369318.7000000477,369318.2999999523,369025.965,369031,369042.691,369325.788,,37,police
screen,html.Screen,2_3_1_0_1_38,2022-05-02T11:48:04.516Z,,,,,,,,,,,,,,,,,40,,,,,,,,,,,,,,353.41200004768325,,response,,,,9,G,,,,,,Space,keypress(Space),,,,instrumental,,,,------ -- ------- ---- ---- ---- - -------- ----- --- --<br>----- ----- ------ -- ---- -- --- - ---- -- - ----- -----<br>------ ---- ------ ---- - -------- ------- -- --- --------<br>-------- ----------- ---- ------ also ------ ---- --- ---<br>-------- --- -----,369679.60000002384,369679.2000000477,369309.309,369318.7999999523,369325.788,369692.405,,38,also
screen,html.Screen,2_3_1_0_1_39,2022-05-02T11:48:04.787Z,,,,,,,,,,,,,,,,,40,,,,,,,,,,,,,,257.9949999761302,,response,,,,9,G,,,,,,Space,keypress(Space),,,,instrumental,,,,------ -- ------- ---- ---- ---- - -------- ----- --- --<br>----- ----- ------ -- ---- -- --- - ---- -- - ----- -----<br>------ ---- ------ ---- - -------- ------- -- --- --------<br>-------- ----------- ---- ------ ---- didn't ---- --- ---<br>-------- --- -----,369950.89999997616,369950.39999997616,369675.873,369679.7000000477,369692.405,369959.074,,39,didn't
screen,html.Screen,2_3_1_0_1_40,2022-05-02T11:48:05.165Z,,,,,,,,,,,,,,,,,40,,,,,,,,,,,,,,369.3259999761358,,response,,,,9,G,,,,,,Space,keypress(Space),,,,instrumental,,,,------ -- ------- ---- ---- ---- - -------- ----- --- --<br>----- ----- ------ -- ---- -- --- - ---- -- - ----- -----<br>------ ---- ------ ---- - -------- ------- -- --- --------<br>-------- ----------- ---- ------ ---- ------ know --- ---<br>-------- --- -----,370328.7000000477,370328.39999997616,369942.583,369950.89999997616,369959.074,370342.73,,40,know
screen,html.Screen,2_3_1_0_1_41,2022-05-02T11:48:05.437Z,,,,,,,,,,,,,,,,,40,,,,,,,,,,,,,,257.5699999523349,,response,,,,9,G,,,,,,Space,keypress(Space),,,,instrumental,,,,------ -- ------- ---- ---- ---- - -------- ----- --- --<br>----- ----- ------ -- ---- -- --- - ---- -- - ----- -----<br>------ ---- ------ ---- - -------- ------- -- --- --------<br>-------- ----------- ---- ------ ---- ------ ---- how ---<br>-------- --- -----,370600.60000002384,370600.2999999523,370325.793,370328.89999997616,370342.73,370609.048,,41,how
screen,html.Screen,2_3_1_0_1_42,2022-05-02T11:48:05.757Z,,,,,,,,,,,,,,,,,40,,,,,,,,,,,,,,310.85199997614836,,response,,,,9,G,,,,,,Space,keypress(Space),,,,instrumental,,,,------ -- ------- ---- ---- ---- - -------- ----- --- --<br>----- ----- ------ -- ---- -- --- - ---- -- - ----- -----<br>------ ---- ------ ---- - -------- ------- -- --- --------<br>-------- ----------- ---- ------ ---- ------ ---- --- the<br>-------- --- -----,370920.2000000477,370919.89999997616,370592.402,370600.7000000477,370609.048,370925.725,,42,the
screen,html.Screen,2_3_1_0_1_43,2022-05-02T11:48:06.124Z,,,,,,,,,,,,,,,,,40,,,,,,,,,,,,,,361.6749999761814,,response,,,,9,G,,,,,,Space,keypress(Space),,,,instrumental,,,,------ -- ------- ---- ---- ---- - -------- ----- --- --<br>----- ----- ------ -- ---- -- --- - ---- -- - ----- -----<br>------ ---- ------ ---- - -------- ------- -- --- --------<br>-------- ----------- ---- ------ ---- ------ ---- --- ---<br>lemonade --- -----,371287.89999997616,371287.39999997616,370908.95,370920.2999999523,370925.725,371292.419,,43,lemonade
screen,html.Screen,2_3_1_0_1_44,2022-05-02T11:48:06.433Z,,,,,,,,,,,,,,,,,40,,,,,,,,,,,,,,303.7810000476893,,response,,,,9,G,,,,,,Space,keypress(Space),,,,instrumental,,,,------ -- ------- ---- ---- ---- - -------- ----- --- --<br>----- ----- ------ -- ---- -- --- - ---- -- - ----- -----<br>------ ---- ------ ---- - -------- ------- -- --- --------<br>-------- ----------- ---- ------ ---- ------ ---- --- ---<br>-------- was -----,371596.7000000477,371596.2000000477,371275.632,371288,371292.419,371609.113,,44,was
screen,html.Screen,2_3_1_0_1_45,2022-05-02T11:48:07.045Z,,,,,,,,,,,,,,,,,40,,,,,,,,,,,,,,599.6869999523042,,response,,,,9,G,,,,,,Space,keypress(Space),,,,instrumental,,,,------ -- ------- ---- ---- ---- - -------- ----- --- --<br>----- ----- ------ -- ---- -- --- - ---- -- - ----- -----<br>------ ---- ------ ---- - -------- ------- -- --- --------<br>-------- ----------- ---- ------ ---- ------ ---- --- ---<br>-------- --- made.,372209.2000000477,372208.7999999523,371592.35,371596.7000000477,371609.113,372226.047,,45,made.
Item 9,flow.Loop,2_3_1_0_1,2022-05-02T11:48:07.046Z,,,,,,,,,,,,,,,,,,,,,,,,,,,,,,,23916.077999952307,,completion,,,,,,,,,,,,,,,,,,,,,372209.2999999523,372208.7999999523,348276.02,348276.60000002384,348292.722,372226.047,,,
