sender,sender_type,sender_id,timestamp,meta,,Blues,Classical,Country,Dance,Electronic,Folk,Gospel,Hip-Hop,Jazz,Latin,Musical/Film,New-age,Pop,Prolific_id,Provo_ID,R&B,Rap,Reggae,Religious,Rock,Soul,Swing,Traditional,age,artist_name,correct,correctResponse,distraction,duration,education,ended_on,familiarity,gender,headphone_check_performance,item,list,music_frequency,offensiveness,pleasantness,position_correct,preference,response,response_action,snippet_file,song_name,song_rating,sound,stimulus_1,stimulus_2,stimulus_3,text,time_commit,time_end,time_render,time_run,time_show,time_switch,url,word,word_ID
Prolific ID,html.Form,0,2022-05-12T21:21:26.073Z,"{""labjs_version"":""20.2.2"",""labjs_build"":{""flavor"":""production"",""commit"":""a25486e0c714a0ae2ce03ff94b7bb6896854dcfa""},""location"":""https://run.pavlovia.org/mvasilev/prolific3_music_e/"",""userAgent"":""Mozilla/5.0 (Windows NT 10.0; Win64; x64) AppleWebKit/537.36 (KHTML, like Gecko) Chrome/101.0.4951.64 Safari/537.36"",""platform"":""Win32"",""language"":""en-GB"",""locale"":""en-GB"",""timeZone"":""Europe/London"",""timezoneOffset"":-60,""screen_width"":1920,""screen_height"":1080,""scroll_width"":1920,""scroll_height"":889,""window_innerWidth"":1920,""window_innerHeight"":937,""devicePixelRatio"":1}",,,,,,,,,,,,,,,5a270517b4a5de00011af15c,,,,,,,,,,,,,,,5297.096000000001,,form submission,,,,,,,,,,,,,,,,,,,,,24056.400000002235,24056,18716.966,18694.400000002235,18758.904,24064.321,{},,
Introduction,html.Screen,1_0,2022-05-12T21:21:38.827Z,,,,,,,,,,,,,,,,,,,,,,,,,,,,,,,12743.079000002235,,response,,,,,,,,,,,continue,click button,,,,,,,,,36810.5,36807.400000002235,24050.977,24056.70000000298,24064.321,36812.742,,,
Volume calibration,html.Screen,1_1,2022-05-12T21:22:04.133Z,,,,,,,,,,,,,,,,,,,,,,,,,,,,,,,25301.258,,response,,,,,,,,,,,continue,click button,,,,,,,,,62116.60000000149,62114,36801.091,36810.60000000149,36812.742,62122.897,,,
Task instructions,html.Screen,1_2,2022-05-12T21:22:12.996Z,,,,,,,,,,,,,,,,,,,,,,,,,,,,,,,8856.003000002238,,response,,,,,,,,,,,continue,click button,,,,,,,,,70979.60000000149,70978.90000000224,62109.55,62116.70000000298,62122.897,70990.856,,,
Sounds,html.Screen,1_3_0_0,2022-05-12T21:22:17.249Z,,,,,,,,,,,,,,,,,,,,,,,,,,,,,,,4253.8429999999935,,timeout,,,,,,,,,1,,,,,,,,S,I,O,,75233.30000000075,75231.371,70977.44,70979.80000000075,70990.856,75244.699,,,
Judgement,html.Screen,1_3_0_1,2022-05-12T21:22:21.077Z,,,,,,,,,,,,,,,,,,,,,,,,,,,,true,1,,3815.201000002242,,response,,,,,,,,,1,,1,click #choice-1,,,,,S,I,O,,79060.80000000075,79059.90000000224,75231.371,75233.5,75244.699,79071.915,,,
Trial,flow.Sequence,1_3_0,2022-05-12T21:22:21.078Z,,,,,,,,,,,,,,,,,,,,,,,,,,,,,,,8069.044000002235,,completion,,,,,,,,,1,,,,,,,,S,I,O,,79062.10000000149,79059.90000000224,70977.44,70979.80000000075,70990.856,79071.915,,,
Sounds,html.Screen,1_3_1_0,2022-05-12T21:22:25.329Z,,,,,,,,,,,,,,,,,,,,,,,,,,,,,,,4253.929000000004,,timeout,,,,,,,,,1,,,,,,,,S,O,I,,83313.30000000075,83312.52,79058.53,79062.30000000075,79071.915,83325.844,,,
Judgement,html.Screen,1_3_1_1,2022-05-12T21:22:27.846Z,,,,,,,,,,,,,,,,,,,,,,,,,,,,true,1,,2502.856000002983,,response,,,,,,,,,1,,1,click #choice-1,,,,,S,O,I,,85829.80000000075,85828.70000000298,83312.52,83313.5,83325.844,85832.861,,,
Trial,flow.Sequence,1_3_1,2022-05-12T21:22:27.846Z,,,,,,,,,,,,,,,,,,,,,,,,,,,,,,,6756.785000002987,,completion,,,,,,,,,1,,,,,,,,S,O,I,,85830.60000000149,85828.70000000298,79058.53,79062.20000000298,79071.915,85832.861,,,
Sounds,html.Screen,1_3_2_0,2022-05-12T21:22:32.090Z,,,,,,,,,,,,,,,,,,,,,,,,,,,,,,,4253.883999999991,,timeout,,,,,,,,,2,,,,,,,,O,S,I,,90074.30000000075,90073.423,85819.489,85830.90000000224,85832.861,90086.745,,,
Judgement,html.Screen,1_3_2_1,2022-05-12T21:22:33.238Z,,,,,,,,,,,,,,,,,,,,,,,,,,,,true,2,,1134.5550000007497,,response,,,,,,,,,2,,2,click #choice-2,,,,,O,S,I,,91222.10000000149,91221.30000000075,90073.423,90074.5,90086.745,91233.574,,,
Trial,flow.Sequence,1_3_2,2022-05-12T21:22:33.238Z,,,,,,,,,,,,,,,,,,,,,,,,,,,,,,,5388.439000000741,,completion,,,,,,,,,2,,,,,,,,O,S,I,,91222.20000000298,91221.30000000075,85819.489,85830.80000000075,85832.861,91233.574,,,
Sounds,html.Screen,1_3_3_0,2022-05-12T21:22:37.491Z,,,,,,,,,,,,,,,,,,,,,,,,,,,,,,,4253.934000000008,,timeout,,,,,,,,,3,,,,,,,,I,O,S,,95475.30000000075,95474.143,91220.233,91222.40000000224,91233.574,95487.508,,,
Judgement,html.Screen,1_3_3_1,2022-05-12T21:22:38.255Z,,,,,,,,,,,,,,,,,,,,,,,,,,,,true,3,,750.1920000029786,,response,,,,,,,,,3,,3,click #choice-3,,,,,I,O,S,,96238.70000000298,96237.70000000298,95474.143,95475.40000000224,95487.508,96247.615,,,
Trial,flow.Sequence,1_3_3,2022-05-12T21:22:38.255Z,,,,,,,,,,,,,,,,,,,,,,,,,,,,,,,5004.126000002987,,completion,,,,,,,,,3,,,,,,,,I,O,S,,96238.80000000075,96237.70000000298,91220.233,91222.40000000224,91233.574,96247.615,,,
Sounds,html.Screen,1_3_4_0,2022-05-12T21:22:42.505Z,,,,,,,,,,,,,,,,,,,,,,,,,,,,,,,4253.899999999994,,timeout,,,,,,,,,3,,,,,,,,O,I,S,,100489,100488.17,96234.252,96239,96247.615,100501.515,,,
Judgement,html.Screen,1_3_4_1,2022-05-12T21:22:43.151Z,,,,,,,,,,,,,,,,,,,,,,,,,,,,true,3,,632.7850000007456,,response,,,,,,,,,3,,3,click #choice-3,,,,,O,I,S,,101135.20000000298,101134.30000000075,100488.17,100489.10000000149,100501.515,101141.627,,,
Trial,flow.Sequence,1_3_4,2022-05-12T21:22:43.151Z,,,,,,,,,,,,,,,,,,,,,,,,,,,,,,,4886.68500000074,,completion,,,,,,,,,3,,,,,,,,O,I,S,,101135.40000000224,101134.30000000075,96234.252,96239,96247.615,101141.627,,,
Sounds,html.Screen,1_3_5_0,2022-05-12T21:22:47.399Z,,,,,,,,,,,,,,,,,,,,,,,,,,,,,,,4253.903000000006,,timeout,,,,,,,,,2,,,,,,,,I,S,O,,105383.20000000298,105382.194,101128.235,101135.40000000224,101141.627,105395.53,,,
Judgement,html.Screen,1_3_5_1,2022-05-12T21:22:47.936Z,,,,,,,,,,,,,,,,,,,,,,,,,,,,true,2,,523.2700000007462,,response,,,,,,,,,2,,2,click #choice-2,,,,,I,S,O,,105919.90000000224,105918.80000000075,105382.194,105383.40000000224,105395.53,105928.929,,,
Trial,flow.Sequence,1_3_5,2022-05-12T21:22:47.936Z,,,,,,,,,,,,,,,,,,,,,,,,,,,,,,,4777.173000000752,,completion,,,,,,,,,2,,,,,,,,I,S,O,,105920,105918.80000000075,101128.235,101135.40000000224,101141.627,105928.929,,,
Task,flow.Loop,1_3,2022-05-12T21:22:47.940Z,,,,,,,,,,,,,,,,,,,,,,,,,,,,,,,34927.944000000745,,completion,,,1,,,,,,,,,,,,,,,,,,105924.10000000149,105918.80000000075,70977.44,70979.80000000075,70990.856,105928.929,,,
Trap,html.Screen,1_4,2022-05-12T21:22:47.942Z,,,,,,,,,,,,,,,,,,,,,,,,,,,,,,,NaN,,skipped,,,,,,,,,,,,,,,,,,,,,105925.90000000224,105918.80000000075,,105925.70000000298,,105928.929,,,
Thanks,html.Screen,1_5,2022-05-12T21:22:51.392Z,,,,,,,,,,,,,,,,,,,,,,,,,,,,,,,3446.2710000029765,,response,,,,,,,,,,,continue,click button,,,,,,,,,109376,109375.20000000298,105915.564,105926,105928.929,112876.528,,,
Headphone screening,flow.Sequence,1,2022-05-12T21:22:51.392Z,,,,,,,,,,,,,,,,,,,,,,,,,,,,,,,85310.87900000298,,completion,,,,,,,,,,,,,,,,,,,,,109376.10000000149,109375.20000000298,24050.977,24056.60000000149,24064.321,112876.528,,,
Instructions,html.Page,2_0,2022-05-12T21:23:14.196Z,,,,,,,,,,,,,,,,,,,,,,,,,,,,,,,19303.172000002975,,form submission,,,,,,,,,,,,,,,,,,,,,132179.90000000224,132179.70000000298,112863.191,112871,112876.528,132185.861,,,
Holding screen,html.Screen,2_1_0_0,2022-05-12T21:23:24.191Z,,,,,,,,,,,,,,,,,,,,,,,,,,,,,,,10001.404999999999,,timeout,,,,,,,,,,,,,,,,,,,,,142174.70000000298,142173.892,132172.523,132180,132185.861,142187.266,,,
screen,html.Screen,2_1_0_1_0,2022-05-12T21:23:25.393Z,,,,,,,,,,,,,,,,,53,,,,,,,,,,,,,,1187.7339999999967,,response,,,,99,,,,,,,Space,keypress(Space),,,,,,,,When -- ----- -- ------ - ------- --- ----------<br>------------- ------ ------ ---- ---- ------- ----- -- ----<br>-------- ------- -- ---------- --- - --- ----- ----- ----<br>---- --- --- ----- --- ---- ---- ------- ----- ---- -------<br>--- --- -- ----- -- --- ---- -- --- ---- -- ------ ------<br>--- ----- -- ----,143377.30000000075,143375,142173.892,142175,142187.266,143387.398,,0,When
screen,html.Screen,2_1_0_1_1,2022-05-12T21:23:25.967Z,,,,,,,,,,,,,,,,,53,,,,,,,,,,,,,,563.3020000029937,,response,,,,99,,,,,,,Space,keypress(Space),,,,,,,,---- it ----- -- ------ - ------- --- ----------<br>------------- ------ ------ ---- ---- ------- ----- -- ----<br>-------- ------- -- ---------- --- - --- ----- ----- ----<br>---- --- --- ----- --- ---- ---- ------- ----- ---- -------<br>--- --- -- ----- -- --- ---- -- --- ---- -- ------ ------<br>--- ----- -- ----,143951.70000000298,143950.70000000298,143373.995,143377.40000000224,143387.398,143960.796,,1,it
screen,html.Screen,2_1_0_1_2,2022-05-12T21:23:26.567Z,,,,,,,,,,,,,,,,,53,,,,,,,,,,,,,,589.804000001488,,response,,,,99,,,,,,,Space,keypress(Space),,,,,,,,---- -- comes -- ------ - ------- --- ----------<br>------------- ------ ------ ---- ---- ------- ----- -- ----<br>-------- ------- -- ---------- --- - --- ----- ----- ----<br>---- --- --- ----- --- ---- ---- ------- ----- ---- -------<br>--- --- -- ----- -- --- ---- -- --- ---- -- ------ ------<br>--- ----- -- ----,144551.30000000075,144550.6000000015,143947.396,143951.80000000075,143960.796,144574.253,,2,comes
screen,html.Screen,2_1_0_1_3,2022-05-12T21:23:27.067Z,,,,,,,,,,,,,,,,,53,,,,,,,,,,,,,,476.247000000003,,response,,,,99,,,,,,,Space,keypress(Space),,,,,,,,---- -- ----- to ------ - ------- --- ----------<br>------------- ------ ------ ---- ---- ------- ----- -- ----<br>-------- ------- -- ---------- --- - --- ----- ----- ----<br>---- --- --- ----- --- ---- ---- ------- ----- ---- -------<br>--- --- -- ----- -- --- ---- -- --- ---- -- ------ ------<br>--- ----- -- ----,145051.30000000075,145050.5,144560.905,144551.40000000224,144574.253,145054.303,,3,to
screen,html.Screen,2_1_0_1_4,2022-05-12T21:23:27.675Z,,,,,,,,,,,,,,,,,53,,,,,,,,,,,,,,604.2970000014757,,response,,,,99,,,,,,,Space,keypress(Space),,,,,,,,---- -- ----- -- having - ------- --- ----------<br>------------- ------ ------ ---- ---- ------- ----- -- ----<br>-------- ------- -- ---------- --- - --- ----- ----- ----<br>---- --- --- ----- --- ---- ---- ------- ----- ---- -------<br>--- --- -- ----- -- --- ---- -- --- ---- -- ------ ------<br>--- ----- -- ----,145659.20000000298,145658.6000000015,145040.911,145051.40000000224,145054.303,145667.704,,4,having
screen,html.Screen,2_1_0_1_5,2022-05-12T21:23:28.049Z,,,,,,,,,,,,,,,,,53,,,,,,,,,,,,,,364.9960000029823,,response,,,,99,,,,,,,Space,keypress(Space),,,,,,,,---- -- ----- -- ------ a ------- --- ----------<br>------------- ------ ------ ---- ---- ------- ----- -- ----<br>-------- ------- -- ---------- --- - --- ----- ----- ----<br>---- --- --- ----- --- ---- ---- ------- ----- ---- -------<br>--- --- -- ----- -- --- ---- -- --- ---- -- ------ ------<br>--- ----- -- ----,146033.20000000298,146032.70000000298,145654.398,145659.40000000224,145667.704,146041.139,,5,a
screen,html.Screen,2_1_0_1_6,2022-05-12T21:23:28.725Z,,,,,,,,,,,,,,,,,53,,,,,,,,,,,,,,667.4610000014945,,response,,,,99,,,,,,,Space,keypress(Space),,,,,,,,---- -- ----- -- ------ - lasting --- ----------<br>------------- ------ ------ ---- ---- ------- ----- -- ----<br>-------- ------- -- ---------- --- - --- ----- ----- ----<br>---- --- --- ----- --- ---- ---- ------- ----- ---- -------<br>--- --- -- ----- -- --- ---- -- --- ---- -- ------ ------<br>--- ----- -- ----,146709.1000000015,146708.6000000015,146027.718,146033.40000000224,146041.139,146721.186,,6,lasting
screen,html.Screen,2_1_0_1_7,2022-05-12T21:23:29.313Z,,,,,,,,,,,,,,,,,53,,,,,,,,,,,,,,575.5140000029933,,response,,,,99,,,,,,,Space,keypress(Space),,,,,,,,---- -- ----- -- ------ - ------- and ----------<br>------------- ------ ------ ---- ---- ------- ----- -- ----<br>-------- ------- -- ---------- --- - --- ----- ----- ----<br>---- --- --- ----- --- ---- ---- ------- ----- ---- -------<br>--- --- -- ----- -- --- ---- -- --- ---- -- ------ ------<br>--- ----- -- ----,147297.40000000224,147296.70000000298,146707.824,146709.20000000298,146721.186,147307.93,,7,and
screen,html.Screen,2_1_0_1_8,2022-05-12T21:23:29.903Z,,,,,,,,,,,,,,,,,53,,,,,,,,,,,,,,578.6700000014971,,response,,,,99,,,,,,,Space,keypress(Space),,,,,,,,---- -- ----- -- ------ - ------- --- fulfilling<br>------------- ------ ------ ---- ---- ------- ----- -- ----<br>-------- ------- -- ---------- --- - --- ----- ----- ----<br>---- --- --- ----- --- ---- ---- ------- ----- ---- -------<br>--- --- -- ----- -- --- ---- -- --- ---- -- ------ ------<br>--- ----- -- ----,147887.1000000015,147886.6000000015,147294.554,147297.70000000298,147307.93,147894.696,,8,fulfilling
screen,html.Screen,2_1_0_1_9,2022-05-12T21:23:30.419Z,,,,,,,,,,,,,,,,,53,,,,,,,,,,,,,,508.00400000298396,,response,,,,99,,,,,,,Space,keypress(Space),,,,,,,,"---- -- ----- -- ------ - ------- --- ----------<br>relationship, ------ ------ ---- ---- ------- ----- -- ----<br>-------- ------- -- ---------- --- - --- ----- ----- ----<br>---- --- --- ----- --- ---- ---- ------- ----- ---- -------<br>--- --- -- ----- -- --- ---- -- --- ---- -- ------ ------<br>--- ----- -- ----",148403.5,148402.70000000298,147881.323,147887.30000000075,147894.696,148414.763,,9,"relationship,"
screen,html.Screen,2_1_0_1_10,2022-05-12T21:23:30.929Z,,,,,,,,,,,,,,,,,53,,,,,,,,,,,,,,497.7369999999937,,response,,,,99,,,,,,,Space,keypress(Space),,,,,,,,---- -- ----- -- ------ - ------- --- ----------<br>------------- common ------ ---- ---- ------- ----- -- ----<br>-------- ------- -- ---------- --- - --- ----- ----- ----<br>---- --- --- ----- --- ---- ---- ------- ----- ---- -------<br>--- --- -- ----- -- --- ---- -- --- ---- -- ------ ------<br>--- ----- -- ----,148913.1000000015,148912.5,148401.396,148403.6000000015,148414.763,148921.491,,10,common
screen,html.Screen,2_1_0_1_11,2022-05-12T21:23:31.481Z,,,,,,,,,,,,,,,,,53,,,,,,,,,,,,,,543.309000000736,,response,,,,99,,,,,,,Space,keypress(Space),,,,,,,,---- -- ----- -- ------ - ------- --- ----------<br>------------- ------ wisdom ---- ---- ------- ----- -- ----<br>-------- ------- -- ---------- --- - --- ----- ----- ----<br>---- --- --- ----- --- ---- ---- ------- ----- ---- -------<br>--- --- -- ----- -- --- ---- -- --- ---- -- ------ ------<br>--- ----- -- ----,149465.5,149464.80000000075,148908.116,148913.20000000298,148921.491,149468.256,,11,wisdom
screen,html.Screen,2_1_0_1_12,2022-05-12T21:23:32.121Z,,,,,,,,,,,,,,,,,53,,,,,,,,,,,,,,636.244000000006,,response,,,,99,,,,,,,Space,keypress(Space),,,,,,,,---- -- ----- -- ------ - ------- --- ----------<br>------------- ------ ------ says ---- ------- ----- -- ----<br>-------- ------- -- ---------- --- - --- ----- ----- ----<br>---- --- --- ----- --- ---- ---- ------- ----- ---- -------<br>--- --- -- ----- -- --- ---- -- --- ---- -- ------ ------<br>--- ----- -- ----,150105.20000000298,150104.5,149454.855,149465.6000000015,149468.256,150108.32,,12,says
screen,html.Screen,2_1_0_1_13,2022-05-12T21:23:32.719Z,,,,,,,,,,,,,,,,,53,,,,,,,,,,,,,,594.2800000014831,,response,,,,99,,,,,,,Space,keypress(Space),,,,,,,,---- -- ----- -- ------ - ------- --- ----------<br>------------- ------ ------ ---- that ------- ----- -- ----<br>-------- ------- -- ---------- --- - --- ----- ----- ----<br>---- --- --- ----- --- ---- ---- ------- ----- ---- -------<br>--- --- -- ----- -- --- ---- -- --- ---- -- ------ ------<br>--- ----- -- ----,150703.20000000298,150702.6000000015,150094.943,150105.30000000075,150108.32,150708.374,,13,that
screen,html.Screen,2_1_0_1_14,2022-05-12T21:23:33.338Z,,,,,,,,,,,,,,,,,53,,,,,,,,,,,,,,613.2260000014794,,response,,,,99,,,,,,,Space,keypress(Space),,,,,,,,---- -- ----- -- ------ - ------- --- ----------<br>------------- ------ ------ ---- ---- feeling ----- -- ----<br>-------- ------- -- ---------- --- - --- ----- ----- ----<br>---- --- --- ----- --- ---- ---- ------- ----- ---- -------<br>--- --- -- ----- -- --- ---- -- --- ---- -- ------ ------<br>--- ----- -- ----,151322.1000000015,151321.6000000015,150694.985,150703.30000000075,150708.374,151335.135,,14,feeling
screen,html.Screen,2_1_0_1_15,2022-05-12T21:23:33.946Z,,,,,,,,,,,,,,,,,53,,,,,,,,,,,,,,594.3649999999907,,response,,,,99,,,,,,,Space,keypress(Space),,,,,,,,---- -- ----- -- ------ - ------- --- ----------<br>------------- ------ ------ ---- ---- ------- close -- ----<br>-------- ------- -- ---------- --- - --- ----- ----- ----<br>---- --- --- ----- --- ---- ---- ------- ----- ---- -------<br>--- --- -- ----- -- --- ---- -- --- ---- -- ------ ------<br>--- ----- -- ----,151930.1000000015,151929.5,151321.734,151322.30000000075,151335.135,151935.239,,15,close
screen,html.Screen,2_1_0_1_16,2022-05-12T21:23:34.302Z,,,,,,,,,,,,,,,,,53,,,,,,,,,,,,,,350.2609999999986,,response,,,,99,,,,,,,Space,keypress(Space),,,,,,,,---- -- ----- -- ------ - ------- --- ----------<br>------------- ------ ------ ---- ---- ------- ----- to ----<br>-------- ------- -- ---------- --- - --- ----- ----- ----<br>---- --- --- ----- --- ---- ---- ------- ----- ---- -------<br>--- --- -- ----- -- --- ---- -- --- ---- -- ------ ------<br>--- ----- -- ----,152286,152285.5,151921.821,151930.30000000075,151935.239,152295.266,,16,to
screen,html.Screen,2_1_0_1_17,2022-05-12T21:23:34.784Z,,,,,,,,,,,,,,,,,53,,,,,,,,,,,,,,472.434000002977,,response,,,,99,,,,,,,Space,keypress(Space),,,,,,,,---- -- ----- -- ------ - ------- --- ----------<br>------------- ------ ------ ---- ---- ------- ----- -- your<br>-------- ------- -- ---------- --- - --- ----- ----- ----<br>---- --- --- ----- --- ---- ---- ------- ----- ---- -------<br>--- --- -- ----- -- --- ---- -- --- ---- -- ------ ------<br>--- ----- -- ----,152768.30000000075,152767.70000000298,152281.882,152286.20000000298,152295.266,152775.348,,17,your
screen,html.Screen,2_1_0_1_18,2022-05-12T21:23:35.190Z,,,,,,,,,,,,,,,,,53,,,,,,,,,,,,,,398.4520000007469,,response,,,,99,,,,,,,Space,keypress(Space),,,,,,,,---- -- ----- -- ------ - ------- --- ----------<br>------------- ------ ------ ---- ---- ------- ----- -- ----<br>romantic ------- -- ---------- --- - --- ----- ----- ----<br>---- --- --- ----- --- ---- ---- ------- ----- ---- -------<br>--- --- -- ----- -- --- ---- -- --- ---- -- ------ ------<br>--- ----- -- ----,153174.30000000075,153173.80000000075,152761.974,152768.40000000224,152775.348,153189.99,,18,romantic
screen,html.Screen,2_1_0_1_19,2022-05-12T21:23:35.634Z,,,,,,,,,,,,,,,,,53,,,,,,,,,,,,,,427.81000000075437,,response,,,,99,,,,,,,Space,keypress(Space),,,,,,,,---- -- ----- -- ------ - ------- --- ----------<br>------------- ------ ------ ---- ---- ------- ----- -- ----<br>-------- partner -- ---------- --- - --- ----- ----- ----<br>---- --- --- ----- --- ---- ---- ------- ----- ---- -------<br>--- --- -- ----- -- --- ---- -- --- ---- -- ------ ------<br>--- ----- -- ----,153618.6000000015,153617.80000000075,153162.037,153174.40000000224,153189.99,153628.789,,19,partner
screen,html.Screen,2_1_0_1_20,2022-05-12T21:23:36.068Z,,,,,,,,,,,,,,,,,53,,,,,,,,,,,,,,422.81100000150036,,response,,,,99,,,,,,,Space,keypress(Space),,,,,,,,---- -- ----- -- ------ - ------- --- ----------<br>------------- ------ ------ ---- ---- ------- ----- -- ----<br>-------- ------- is ---------- --- - --- ----- ----- ----<br>---- --- --- ----- --- ---- ---- ------- ----- ---- -------<br>--- --- -- ----- -- --- ---- -- --- ---- -- ------ ------<br>--- ----- -- ----,154052.1000000015,154051.6000000015,153615.445,153618.80000000075,153628.789,154055.561,,20,is
screen,html.Screen,2_1_0_1_21,2022-05-12T21:23:36.820Z,,,,,,,,,,,,,,,,,53,,,,,,,,,,,,,,747.939000000013,,response,,,,99,,,,,,,Space,keypress(Space),,,,,,,,---- -- ----- -- ------ - ------- --- ----------<br>------------- ------ ------ ---- ---- ------- ----- -- ----<br>-------- ------- -- paramount. --- - --- ----- ----- ----<br>---- --- --- ----- --- ---- ---- ------- ----- ---- -------<br>--- --- -- ----- -- --- ---- -- --- ---- -- ------ ------<br>--- ----- -- ----,154804,154803.5,154042.096,154052.1000000015,154055.561,154815.62,,21,paramount.
screen,html.Screen,2_1_0_1_22,2022-05-12T21:23:37.214Z,,,,,,,,,,,,,,,,,53,,,,,,,,,,,,,,381.9800000014948,,response,,,,99,,,,,,,Space,keypress(Space),,,,,,,,---- -- ----- -- ------ - ------- --- ----------<br>------------- ------ ------ ---- ---- ------- ----- -- ----<br>-------- ------- -- ---------- But - --- ----- ----- ----<br>---- --- --- ----- --- ---- ---- ------- ----- ---- -------<br>--- --- -- ----- -- --- ---- -- --- ---- -- ------ ------<br>--- ----- -- ----,155198.1000000015,155197.6000000015,154802.232,154804.1000000015,154815.62,155202.32,,22,But
screen,html.Screen,2_1_0_1_23,2022-05-12T21:23:37.588Z,,,,,,,,,,,,,,,,,53,,,,,,,,,,,,,,369.179999999993,,response,,,,99,,,,,,,Space,keypress(Space),,,,,,,,---- -- ----- -- ------ - ------- --- ----------<br>------------- ------ ------ ---- ---- ------- ----- -- ----<br>-------- ------- -- ---------- --- a --- ----- ----- ----<br>---- --- --- ----- --- ---- ---- ------- ----- ---- -------<br>--- --- -- ----- -- --- ---- -- --- ---- -- ------ ------<br>--- ----- -- ----,155572,155571.5,155188.968,155198.30000000075,155202.32,155575.714,,23,a
screen,html.Screen,2_1_0_1_24,2022-05-12T21:23:37.946Z,,,,,,,,,,,,,,,,,53,,,,,,,,,,,,,,353.7859999999928,,response,,,,99,,,,,,,Space,keypress(Space),,,,,,,,---- -- ----- -- ------ - ------- --- ----------<br>------------- ------ ------ ---- ---- ------- ----- -- ----<br>-------- ------- -- ---------- --- - new ----- ----- ----<br>---- --- --- ----- --- ---- ---- ------- ----- ---- -------<br>--- --- -- ----- -- --- ---- -- --- ---- -- ------ ------<br>--- ----- -- ----,155930.20000000298,155929.5,155562.307,155572.1000000015,155575.714,155935.767,,24,new
screen,html.Screen,2_1_0_1_25,2022-05-12T21:23:38.334Z,,,,,,,,,,,,,,,,,53,,,,,,,,,,,,,,381.9330000029877,,response,,,,99,,,,,,,Space,keypress(Space),,,,,,,,---- -- ----- -- ------ - ------- --- ----------<br>------------- ------ ------ ---- ---- ------- ----- -- ----<br>-------- ------- -- ---------- --- - --- study ----- ----<br>---- --- --- ----- --- ---- ---- ------- ----- ---- -------<br>--- --- -- ----- -- --- ---- -- --- ---- -- ------ ------<br>--- ----- -- ----,156318.40000000224,156317.70000000298,155922.396,155930.20000000298,155935.767,156322.471,,25,study
screen,html.Screen,2_1_0_1_26,2022-05-12T21:23:38.718Z,,,,,,,,,,,,,,,,,53,,,,,,,,,,,,,,379.02900000000955,,response,,,,99,,,,,,,Space,keypress(Space),,,,,,,,---- -- ----- -- ------ - ------- --- ----------<br>------------- ------ ------ ---- ---- ------- ----- -- ----<br>-------- ------- -- ---------- --- - --- ----- finds ----<br>---- --- --- ----- --- ---- ---- ------- ----- ---- -------<br>--- --- -- ----- -- --- ---- -- --- ---- -- ------ ------<br>--- ----- -- ----,156702,156701.5,156309.125,156318.5,156322.471,156709.24,,26,finds
screen,html.Screen,2_1_0_1_27,2022-05-12T21:23:39.122Z,,,,,,,,,,,,,,,,,53,,,,,,,,,,,,,,396.2600000000093,,response,,,,99,,,,,,,Space,keypress(Space),,,,,,,,---- -- ----- -- ------ - ------- --- ----------<br>------------- ------ ------ ---- ---- ------- ----- -- ----<br>-------- ------- -- ---------- --- - --- ----- ----- that<br>---- --- --- ----- --- ---- ---- ------- ----- ---- -------<br>--- --- -- ----- -- --- ---- -- --- ---- -- ------ ------<br>--- ----- -- ----,157106,157105.5,156695.791,156702.1000000015,156709.24,157109.248,,27,that
screen,html.Screen,2_1_0_1_28,2022-05-12T21:23:39.582Z,,,,,,,,,,,,,,,,,53,,,,,,,,,,,,,,456.3520000014978,,response,,,,99,,,,,,,Space,keypress(Space),,,,,,,,---- -- ----- -- ------ - ------- --- ----------<br>------------- ------ ------ ---- ---- ------- ----- -- ----<br>-------- ------- -- ---------- --- - --- ----- ----- ----<br>it's --- --- ----- --- ---- ---- ------- ----- ---- -------<br>--- --- -- ----- -- --- ---- -- --- ---- -- ------ ------<br>--- ----- -- ----,157566.1000000015,157565.6000000015,157095.88,157106.1000000015,157109.248,157576.015,,28,it's
screen,html.Screen,2_1_0_1_29,2022-05-12T21:23:39.968Z,,,,,,,,,,,,,,,,,53,,,,,,,,,,,,,,375.7850000007311,,response,,,,99,,,,,,,Space,keypress(Space),,,,,,,,---- -- ----- -- ------ - ------- --- ----------<br>------------- ------ ------ ---- ---- ------- ----- -- ----<br>-------- ------- -- ---------- --- - --- ----- ----- ----<br>---- not --- ----- --- ---- ---- ------- ----- ---- -------<br>--- --- -- ----- -- --- ---- -- --- ---- -- ------ ------<br>--- ----- -- ----,157952.5,157951.80000000075,157562.586,157566.20000000298,157576.015,157962.711,,29,not
screen,html.Screen,2_1_0_1_30,2022-05-12T21:23:40.436Z,,,,,,,,,,,,,,,,,53,,,,,,,,,,,,,,456.98900000297,,response,,,,99,,,,,,,Space,keypress(Space),,,,,,,,---- -- ----- -- ------ - ------- --- ----------<br>------------- ------ ------ ---- ---- ------- ----- -- ----<br>-------- ------- -- ---------- --- - --- ----- ----- ----<br>---- --- how ----- --- ---- ---- ------- ----- ---- -------<br>--- --- -- ----- -- --- ---- -- --- ---- -- ------ ------<br>--- ----- -- ----,158420.40000000224,158419.70000000298,157949.341,157952.6000000015,157962.711,158429.432,,30,how
screen,html.Screen,2_1_0_1_31,2022-05-12T21:23:40.827Z,,,,,,,,,,,,,,,,,53,,,,,,,,,,,,,,380.0679999999993,,response,,,,99,,,,,,,Space,keypress(Space),,,,,,,,---- -- ----- -- ------ - ------- --- ----------<br>------------- ------ ------ ---- ---- ------- ----- -- ----<br>-------- ------- -- ---------- --- - --- ----- ----- ----<br>---- --- --- close --- ---- ---- ------- ----- ---- -------<br>--- --- -- ----- -- --- ---- -- --- ---- -- ------ ------<br>--- ----- -- ----,158810.70000000298,158809.5,158416.079,158420.5,158429.432,158816.164,,31,close
screen,html.Screen,2_1_0_1_32,2022-05-12T21:23:41.212Z,,,,,,,,,,,,,,,,,53,,,,,,,,,,,,,,379.5360000029905,,response,,,,99,,,,,,,Space,keypress(Space),,,,,,,,---- -- ----- -- ------ - ------- --- ----------<br>------------- ------ ------ ---- ---- ------- ----- -- ----<br>-------- ------- -- ---------- --- - --- ----- ----- ----<br>---- --- --- ----- you ---- ---- ------- ----- ---- -------<br>--- --- -- ----- -- --- ---- -- --- ---- -- ------ ------<br>--- ----- -- ----,159196.20000000298,159195.70000000298,158802.764,158810.80000000075,158816.164,159202.884,,32,you
screen,html.Screen,2_1_0_1_33,2022-05-12T21:23:41.856Z,,,,,,,,,,,,,,,,,53,,,,,,,,,,,,,,636.8160000029893,,response,,,,99,,,,,,,Space,keypress(Space),,,,,,,,---- -- ----- -- ------ - ------- --- ----------<br>------------- ------ ------ ---- ---- ------- ----- -- ----<br>-------- ------- -- ---------- --- - --- ----- ----- ----<br>---- --- --- ----- --- feel ---- ------- ----- ---- -------<br>--- --- -- ----- -- --- ---- -- --- ---- -- ------ ------<br>--- ----- -- ----,159840.40000000224,159839.70000000298,159189.537,159196.30000000075,159202.884,159842.981,,33,feel
screen,html.Screen,2_1_0_1_34,2022-05-12T21:23:42.420Z,,,,,,,,,,,,,,,,,53,,,,,,,,,,,,,,560.7190000029805,,response,,,,99,,,,,,,Space,keypress(Space),,,,,,,,---- -- ----- -- ------ - ------- --- ----------<br>------------- ------ ------ ---- ---- ------- ----- -- ----<br>-------- ------- -- ---------- --- - --- ----- ----- ----<br>---- --- --- ----- --- ---- that ------- ----- ---- -------<br>--- --- -- ----- -- --- ---- -- --- ---- -- ------ ------<br>--- ----- -- ----,160404.20000000298,160403.70000000298,159829.564,159840.40000000224,159842.981,160416.412,,34,that
screen,html.Screen,2_1_0_1_35,2022-05-12T21:23:42.764Z,,,,,,,,,,,,,,,,,53,,,,,,,,,,,,,,331.0879999999888,,response,,,,99,,,,,,,Space,keypress(Space),,,,,,,,---- -- ----- -- ------ - ------- --- ----------<br>------------- ------ ------ ---- ---- ------- ----- -- ----<br>-------- ------- -- ---------- --- - --- ----- ----- ----<br>---- --- --- ----- --- ---- ---- matters ----- ---- -------<br>--- --- -- ----- -- --- ---- -- --- ---- -- ------ ------<br>--- ----- -- ----,160748.1000000015,160747.5,160402.959,160404.30000000075,160416.412,160749.745,,35,matters
screen,html.Screen,2_1_0_1_36,2022-05-12T21:23:43.136Z,,,,,,,,,,,,,,,,,53,,,,,,,,,,,,,,370.15500000223983,,response,,,,99,,,,,,,Space,keypress(Space),,,,,,,,"---- -- ----- -- ------ - ------- --- ----------<br>------------- ------ ------ ---- ---- ------- ----- -- ----<br>-------- ------- -- ---------- --- - --- ----- ----- ----<br>---- --- --- ----- --- ---- ---- ------- most, ---- -------<br>--- --- -- ----- -- --- ---- -- --- ---- -- ------ ------<br>--- ----- -- ----",161120.6000000015,161119.90000000224,160736.374,160748.30000000075,160749.745,161123.14,,36,"most,"
screen,html.Screen,2_1_0_1_37,2022-05-12T21:23:43.600Z,,,,,,,,,,,,,,,,,53,,,,,,,,,,,,,,460.2600000022212,,response,,,,99,,,,,,,Space,keypress(Space),,,,,,,,---- -- ----- -- ------ - ------- --- ----------<br>------------- ------ ------ ---- ---- ------- ----- -- ----<br>-------- ------- -- ---------- --- - --- ----- ----- ----<br>---- --- --- ----- --- ---- ---- ------- ----- it's -------<br>--- --- -- ----- -- --- ---- -- --- ---- -- ------ ------<br>--- ----- -- ----,161584,161583.40000000224,161109.797,161120.70000000298,161123.14,161589.881,,37,it's
screen,html.Screen,2_1_0_1_38,2022-05-12T21:23:43.888Z,,,,,,,,,,,,,,,,,53,,,,,,,,,,,,,,281.8190000029863,,response,,,,99,,,,,,,Space,keypress(Space),,,,,,,,---- -- ----- -- ------ - ------- --- ----------<br>------------- ------ ------ ---- ---- ------- ----- -- ----<br>-------- ------- -- ---------- --- - --- ----- ----- ----<br>---- --- --- ----- --- ---- ---- ------- ----- ---- whether<br>--- --- -- ----- -- --- ---- -- --- ---- -- ------ ------<br>--- ----- -- ----,161872.30000000075,161871.70000000298,161576.515,161584.1000000015,161589.881,161883.241,,38,whether
screen,html.Screen,2_1_0_1_39,2022-05-12T21:23:44.274Z,,,,,,,,,,,,,,,,,53,,,,,,,,,,,,,,374.45900000297115,,response,,,,99,,,,,,,Space,keypress(Space),,,,,,,,---- -- ----- -- ------ - ------- --- ----------<br>------------- ------ ------ ---- ---- ------- ----- -- ----<br>-------- ------- -- ---------- --- - --- ----- ----- ----<br>---- --- --- ----- --- ---- ---- ------- ----- ---- -------<br>you --- -- ----- -- --- ---- -- --- ---- -- ------ ------<br>--- ----- -- ----,162258.40000000224,162257.70000000298,161869.878,161872.40000000224,161883.241,162269.968,,39,you
screen,html.Screen,2_1_0_1_40,2022-05-12T21:23:44.640Z,,,,,,,,,,,,,,,,,53,,,,,,,,,,,,,,353.73200000298675,,response,,,,99,,,,,,,Space,keypress(Space),,,,,,,,---- -- ----- -- ------ - ------- --- ----------<br>------------- ------ ------ ---- ---- ------- ----- -- ----<br>-------- ------- -- ---------- --- - --- ----- ----- ----<br>---- --- --- ----- --- ---- ---- ------- ----- ---- -------<br>--- are -- ----- -- --- ---- -- --- ---- -- ------ ------<br>--- ----- -- ----,162624.20000000298,162623.70000000298,162256.578,162258.5,162269.968,162630.003,,40,are
screen,html.Screen,2_1_0_1_41,2022-05-12T21:23:45.052Z,,,,,,,,,,,,,,,,,53,,,,,,,,,,,,,,405.59700000149314,,response,,,,99,,,,,,,Space,keypress(Space),,,,,,,,---- -- ----- -- ------ - ------- --- ----------<br>------------- ------ ------ ---- ---- ------- ----- -- ----<br>-------- ------- -- ---------- --- - --- ----- ----- ----<br>---- --- --- ----- --- ---- ---- ------- ----- ---- -------<br>--- --- as ----- -- --- ---- -- --- ---- -- ------ ------<br>--- ----- -- ----,163036.20000000298,163035.6000000015,162616.661,162624.30000000075,162630.003,163043.418,,41,as
screen,html.Screen,2_1_0_1_42,2022-05-12T21:23:45.420Z,,,,,,,,,,,,,,,,,53,,,,,,,,,,,,,,360.2820000029751,,response,,,,99,,,,,,,Space,keypress(Space),,,,,,,,---- -- ----- -- ------ - ------- --- ----------<br>------------- ------ ------ ---- ---- ------- ----- -- ----<br>-------- ------- -- ---------- --- - --- ----- ----- ----<br>---- --- --- ----- --- ---- ---- ------- ----- ---- -------<br>--- --- -- close -- --- ---- -- --- ---- -- ------ ------<br>--- ----- -- ----,163404.6000000015,163403.70000000298,163029.986,163036.40000000224,163043.418,163416.813,,42,close
screen,html.Screen,2_1_0_1_43,2022-05-12T21:23:45.733Z,,,,,,,,,,,,,,,,,53,,,,,,,,,,,,,,299.3870000029856,,response,,,,99,,,,,,,Space,keypress(Space),,,,,,,,---- -- ----- -- ------ - ------- --- ----------<br>------------- ------ ------ ---- ---- ------- ----- -- ----<br>-------- ------- -- ---------- --- - --- ----- ----- ----<br>---- --- --- ----- --- ---- ---- ------- ----- ---- -------<br>--- --- -- ----- as --- ---- -- --- ---- -- ------ ------<br>--- ----- -- ----,163716.80000000075,163716.20000000298,163403.411,163404.70000000298,163416.813,163723.484,,43,as
screen,html.Screen,2_1_0_1_44,2022-05-12T21:23:46.192Z,,,,,,,,,,,,,,,,,53,,,,,,,,,,,,,,452.01600000000326,,response,,,,99,,,,,,,Space,keypress(Space),,,,,,,,---- -- ----- -- ------ - ------- --- ----------<br>------------- ------ ------ ---- ---- ------- ----- -- ----<br>-------- ------- -- ---------- --- - --- ----- ----- ----<br>---- --- --- ----- --- ---- ---- ------- ----- ---- -------<br>--- --- -- ----- -- you ---- -- --- ---- -- ------ ------<br>--- ----- -- ----,164176.1000000015,164175.5,163710.145,163716.90000000224,163723.484,164190.226,,44,you
screen,html.Screen,2_1_0_1_45,2022-05-12T21:23:46.548Z,,,,,,,,,,,,,,,,,53,,,,,,,,,,,,,,341.4740000029851,,response,,,,99,,,,,,,Space,keypress(Space),,,,,,,,---- -- ----- -- ------ - ------- --- ----------<br>------------- ------ ------ ---- ---- ------- ----- -- ----<br>-------- ------- -- ---------- --- - --- ----- ----- ----<br>---- --- --- ----- --- ---- ---- ------- ----- ---- -------<br>--- --- -- ----- -- --- want -- --- ---- -- ------ ------<br>--- ----- -- ----,164532.40000000224,164531.70000000298,164176.929,164176.20000000298,164190.226,164536.941,,45,want
screen,html.Screen,2_1_0_1_46,2022-05-12T21:23:46.898Z,,,,,,,,,,,,,,,,,53,,,,,,,,,,,,,,344.7590000029886,,response,,,,99,,,,,,,Space,keypress(Space),,,,,,,,---- -- ----- -- ------ - ------- --- ----------<br>------------- ------ ------ ---- ---- ------- ----- -- ----<br>-------- ------- -- ---------- --- - --- ----- ----- ----<br>---- --- --- ----- --- ---- ---- ------- ----- ---- -------<br>--- --- -- ----- -- --- ---- to --- ---- -- ------ ------<br>--- ----- -- ----,164882.40000000224,164881.70000000298,164523.538,164532.6000000015,164536.941,164898.601,,46,to
screen,html.Screen,2_1_0_1_47,2022-05-12T21:23:47.260Z,,,,,,,,,,,,,,,,,53,,,,,,,,,,,,,,344.8990000000049,,response,,,,99,,,,,,,Space,keypress(Space),,,,,,,,"---- -- ----- -- ------ - ------- --- ----------<br>------------- ------ ------ ---- ---- ------- ----- -- ----<br>-------- ------- -- ---------- --- - --- ----- ----- ----<br>---- --- --- ----- --- ---- ---- ------- ----- ---- -------<br>--- --- -- ----- -- --- ---- -- be, ---- -- ------ ------<br>--- ----- -- ----",165244.30000000075,165243.5,164870.3,164882.5,164898.601,165257.03,,47,"be,"
screen,html.Screen,2_1_0_1_48,2022-05-12T21:23:47.738Z,,,,,,,,,,,,,,,,,53,,,,,,,,,,,,,,464.5700000014913,,response,,,,99,,,,,,,Space,keypress(Space),,,,,,,,---- -- ----- -- ------ - ------- --- ----------<br>------------- ------ ------ ---- ---- ------- ----- -- ----<br>-------- ------- -- ---------- --- - --- ----- ----- ----<br>---- --- --- ----- --- ---- ---- ------- ----- ---- -------<br>--- --- -- ----- -- --- ---- -- --- even -- ------ ------<br>--- ----- -- ----,165722.1000000015,165721.6000000015,165243.688,165244.40000000224,165257.03,165723.788,,48,even
screen,html.Screen,2_1_0_1_49,2022-05-12T21:23:48.110Z,,,,,,,,,,,,,,,,,53,,,,,,,,,,,,,,369.71199999999953,,response,,,,99,,,,,,,Space,keypress(Space),,,,,,,,---- -- ----- -- ------ - ------- --- ----------<br>------------- ------ ------ ---- ---- ------- ----- -- ----<br>-------- ------- -- ---------- --- - --- ----- ----- ----<br>---- --- --- ----- --- ---- ---- ------- ----- ---- -------<br>--- --- -- ----- -- --- ---- -- --- ---- if ------ ------<br>--- ----- -- ----,166094.1000000015,166093.5,165710.478,165722.20000000298,165723.788,166097.178,,49,if
screen,html.Screen,2_1_0_1_50,2022-05-12T21:23:48.421Z,,,,,,,,,,,,,,,,,53,,,,,,,,,,,,,,306.4220000014757,,response,,,,99,,,,,,,Space,keypress(Space),,,,,,,,---- -- ----- -- ------ - ------- --- ----------<br>------------- ------ ------ ---- ---- ------- ----- -- ----<br>-------- ------- -- ---------- --- - --- ----- ----- ----<br>---- --- --- ----- --- ---- ---- ------- ----- ---- -------<br>--- --- -- ----- -- --- ---- -- --- ---- -- that's ------<br>--- ----- -- ----,166404.70000000298,166403.6000000015,166083.738,166094.20000000298,166097.178,166417.221,,50,that's
screen,html.Screen,2_1_0_1_51,2022-05-12T21:23:48.823Z,,,,,,,,,,,,,,,,,53,,,,,,,,,,,,,,388.9790000029898,,response,,,,99,,,,,,,Space,keypress(Space),,,,,,,,---- -- ----- -- ------ - ------- --- ----------<br>------------- ------ ------ ---- ---- ------- ----- -- ----<br>-------- ------- -- ---------- --- - --- ----- ----- ----<br>---- --- --- ----- --- ---- ---- ------- ----- ---- -------<br>--- --- -- ----- -- --- ---- -- --- ---- -- ------ really<br>--- ----- -- ----,166807,166806.20000000298,166403.837,166404.90000000224,166417.221,166817.243,,51,really
screen,html.Screen,2_1_0_1_52,2022-05-12T21:23:49.204Z,,,,,,,,,,,,,,,,,53,,,,,,,,,,,,,,370.25700000001234,,response,,,,99,,,,,,,Space,keypress(Space),,,,,,,,---- -- ----- -- ------ - ------- --- ----------<br>------------- ------ ------ ---- ---- ------- ----- -- ----<br>-------- ------- -- ---------- --- - --- ----- ----- ----<br>---- --- --- ----- --- ---- ---- ------- ----- ---- -------<br>--- --- -- ----- -- --- ---- -- --- ---- -- ------ ------<br>not ----- -- ----,167188,167187.5,166803.915,166807.1000000015,166817.243,167190.648,,52,not
screen,html.Screen,2_1_0_1_53,2022-05-12T21:23:49.590Z,,,,,,,,,,,,,,,,,53,,,,,,,,,,,,,,383.05200000299374,,response,,,,99,,,,,,,Space,keypress(Space),,,,,,,,---- -- ----- -- ------ - ------- --- ----------<br>------------- ------ ------ ---- ---- ------- ----- -- ----<br>-------- ------- -- ---------- --- - --- ----- ----- ----<br>---- --- --- ----- --- ---- ---- ------- ----- ---- -------<br>--- --- -- ----- -- --- ---- -- --- ---- -- ------ ------<br>--- close -- ----,167574.20000000298,167573.70000000298,167177.225,167188.1000000015,167190.648,167577.393,,53,close
screen,html.Screen,2_1_0_1_54,2022-05-12T21:23:49.954Z,,,,,,,,,,,,,,,,,53,,,,,,,,,,,,,,360.10699999998906,,response,,,,99,,,,,,,Space,keypress(Space),,,,,,,,---- -- ----- -- ------ - ------- --- ----------<br>------------- ------ ------ ---- ---- ------- ----- -- ----<br>-------- ------- -- ---------- --- - --- ----- ----- ----<br>---- --- --- ----- --- ---- ---- ------- ----- ---- -------<br>--- --- -- ----- -- --- ---- -- --- ---- -- ------ ------<br>--- ----- at ----,167938.30000000075,167937.5,167563.968,167574.30000000075,167577.393,167950.739,,54,at
screen,html.Screen,2_1_0_1_55,2022-05-12T21:23:50.324Z,,,,,,,,,,,,,,,,,53,,,,,,,,,,,,,,357.06100000074366,,response,,,,99,,,,,,,Space,keypress(Space),,,,,,,,---- -- ----- -- ------ - ------- --- ----------<br>------------- ------ ------ ---- ---- ------- ----- -- ----<br>-------- ------- -- ---------- --- - --- ----- ----- ----<br>---- --- --- ----- --- ---- ---- ------- ----- ---- -------<br>--- --- -- ----- -- --- ---- -- --- ---- -- ------ ------<br>--- ----- -- all.,168308.5,168307.80000000075,167937.393,167938.5,167950.739,168310.841,,55,all.
Item 99,flow.Loop,2_1_0_1,2022-05-12T21:23:50.325Z,,,,,,,,,,,,,,,,,,,,,,,,,,,,,,,26120.53400000074,,completion,,,,,E,,,,,,,,,,,silence,,,,,168308.80000000075,168307.80000000075,142173.892,142174.90000000224,142187.266,168310.841,,,
Question 1,html.Screen,2_1_0_2,2022-05-12T21:23:56.304Z,,,,,,,,,,,,,,,,,,,,,,,,,,,,true,FALSE,,5975.659000000014,,response,,,,99,E,,,,,,FALSE,click #choice-2,,,,silence,,,,,174287.6000000015,174286.5,168297.392,168308.90000000224,168310.841,174298.279,,,
Question 2,html.Screen,2_1_0_3,2022-05-12T21:24:02.416Z,,,,,,,,,,,,,,,,,,,,,,,,,,,,true,TRUE,,6100.621000002226,,response,,,,99,E,,,,,,TRUE,click #choice-1,,,,silence,,,,,180399.90000000224,180398.90000000224,174284.911,174287.70000000298,174298.279,180405.777,,,
Item 99,flow.Sequence,2_1_0,2022-05-12T21:24:02.416Z,,,,,,,,,,,,,,,,,,,,,,,,,,,,,,,48213.03900000223,,completion,,,,,,,,,,,,,,,,,,,,,180400,180398.90000000224,132172.523,132180,132185.861,180405.777,,,
Holding screen,html.Screen,2_1_1_0,2022-05-12T21:24:12.411Z,,,,,,,,,,,,,,,,,,,,,,,,,,,,,,,10001.359999999986,,timeout,,,,,,,,,,,,,,,,,,,,,190394.5,190393.83,180392.413,180400,180405.777,190407.137,,,
screen,html.Screen,2_1_1_1_0,2022-05-12T21:24:13.486Z,,,,,,,,,,,,,,,,,54,,,,,,,,,,,,,,1062.7630000022473,,response,,,,100,,,,,,,Space,keypress(Space),,,,,,,,At --- ---- --- ------ ----- ------- ---- -- --- ------- --<br>------- ---------- ------ -- ----- -- ----- -- ---- ------<br>--- ----- --- --- ------ -------- ----- --- ------ ----- --<br>----- ----- ---------- --- --- ------ ------ ---- -- ------<br>------- --- ------ ----- --- ---- ------- -- ---- --- --<br>------- ------,191470.40000000224,191469.90000000224,190393.83,190394.6000000015,190407.137,191473.967,,0,At
screen,html.Screen,2_1_1_1_1,2022-05-12T21:24:13.894Z,,,,,,,,,,,,,,,,,54,,,,,,,,,,,,,,403.6330000014859,,response,,,,100,,,,,,,Space,keypress(Space),,,,,,,,-- the ---- --- ------ ----- ------- ---- -- --- ------- --<br>------- ---------- ------ -- ----- -- ----- -- ---- ------<br>--- ----- --- --- ------ -------- ----- --- ------ ----- --<br>----- ----- ---------- --- --- ------ ------ ---- -- ------<br>------- --- ------ ----- --- ---- ------- -- ---- --- --<br>------- ------,191878.1000000015,191877.6000000015,191460.528,191470.5,191473.967,191887.321,,1,the
screen,html.Screen,2_1_1_1_2,2022-05-12T21:24:14.424Z,,,,,,,,,,,,,,,,,54,,,,,,,,,,,,,,520.2790000014938,,response,,,,100,,,,,,,Space,keypress(Space),,,,,,,,-- --- time --- ------ ----- ------- ---- -- --- ------- --<br>------- ---------- ------ -- ----- -- ----- -- ---- ------<br>--- ----- --- --- ------ -------- ----- --- ------ ----- --<br>----- ----- ---------- --- --- ------ ------ ---- -- ------<br>------- --- ------ ----- --- ---- ------- -- ---- --- --<br>------- ------,192408.30000000075,192407.6000000015,191873.922,191878.1000000015,191887.321,192420.763,,2,time
screen,html.Screen,2_1_1_1_3,2022-05-12T21:24:15.044Z,,,,,,,,,,,,,,,,,54,,,,,,,,,,,,,,606.937000002974,,response,,,,100,,,,,,,Space,keypress(Space),,,,,,,,-- --- ---- the ------ ----- ------- ---- -- --- ------- --<br>------- ---------- ------ -- ----- -- ----- -- ---- ------<br>--- ----- --- --- ------ -------- ----- --- ------ ----- --<br>----- ----- ---------- --- --- ------ ------ ---- -- ------<br>------- --- ------ ----- --- ---- ------- -- ---- --- --<br>------- ------,193028.30000000075,193027.70000000298,192407.316,192408.5,192420.763,193034.183,,3,the
screen,html.Screen,2_1_1_1_4,2022-05-12T21:24:15.788Z,,,,,,,,,,,,,,,,,54,,,,,,,,,,,,,,737.31700000001,,response,,,,100,,,,,,,Space,keypress(Space),,,,,,,,-- --- ---- --- French ----- ------- ---- -- --- ------- --<br>------- ---------- ------ -- ----- -- ----- -- ---- ------<br>--- ----- --- --- ------ -------- ----- --- ------ ----- --<br>----- ----- ---------- --- --- ------ ------ ---- -- ------<br>------- --- ------ ----- --- ---- ------- -- ---- --- --<br>------- ------,193772.20000000298,193771.5,193020.74,193028.40000000224,193034.183,193780.908,,4,French
screen,html.Screen,2_1_1_1_5,2022-05-12T21:24:16.172Z,,,,,,,,,,,,,,,,,54,,,,,,,,,,,,,,374.5920000000042,,response,,,,100,,,,,,,Space,keypress(Space),,,,,,,,-- --- ---- --- ------ crown ------- ---- -- --- ------- --<br>------- ---------- ------ -- ----- -- ----- -- ---- ------<br>--- ----- --- --- ------ -------- ----- --- ------ ----- --<br>----- ----- ---------- --- --- ------ ------ ---- -- ------<br>------- --- ------ ----- --- ---- ------- -- ---- --- --<br>------- ------,194156.20000000298,194155.5,193767.558,193772.30000000075,193780.908,194167.635,,5,crown
screen,html.Screen,2_1_1_1_6,2022-05-12T21:24:16.851Z,,,,,,,,,,,,,,,,,54,,,,,,,,,,,,,,666.1650000007357,,response,,,,100,,,,,,,Space,keypress(Space),,,,,,,,-- --- ---- --- ------ ----- secured ---- -- --- ------- --<br>------- ---------- ------ -- ----- -- ----- -- ---- ------<br>--- ----- --- --- ------ -------- ----- --- ------ ----- --<br>----- ----- ---------- --- --- ------ ------ ---- -- ------<br>------- --- ------ ----- --- ---- ------- -- ---- --- --<br>------- ------,194834.40000000224,194833.80000000075,194154.215,194156.30000000075,194167.635,194847.762,,6,secured
screen,html.Screen,2_1_1_1_7,2022-05-12T21:24:17.566Z,,,,,,,,,,,,,,,,,54,,,,,,,,,,,,,,701.8380000015022,,response,,,,100,,,,,,,Space,keypress(Space),,,,,,,,-- --- ---- --- ------ ----- ------- much -- --- ------- --<br>------- ---------- ------ -- ----- -- ----- -- ---- ------<br>--- ----- --- --- ------ -------- ----- --- ------ ----- --<br>----- ----- ---------- --- --- ------ ------ ---- -- ------<br>------- --- ------ ----- --- ---- ------- -- ---- --- --<br>------- ------,195550.30000000075,195549.6000000015,194834.373,194834.6000000015,194847.762,195554.502,,7,much
screen,html.Screen,2_1_1_1_8,2022-05-12T21:24:18.162Z,,,,,,,,,,,,,,,,,54,,,,,,,,,,,,,,590.9979999999923,,response,,,,100,,,,,,,Space,keypress(Space),,,,,,,,-- --- ---- --- ------ ----- ------- ---- of --- ------- --<br>------- ---------- ------ -- ----- -- ----- -- ---- ------<br>--- ----- --- --- ------ -------- ----- --- ------ ----- --<br>----- ----- ---------- --- --- ------ ------ ---- -- ------<br>------- --- ------ ----- --- ---- ------- -- ---- --- --<br>------- ------,196146.20000000298,196145.5,195541.116,195550.40000000224,195554.502,196154.568,,8,of
screen,html.Screen,2_1_1_1_9,2022-05-12T21:24:18.658Z,,,,,,,,,,,,,,,,,54,,,,,,,,,,,,,,487.13200000298093,,response,,,,100,,,,,,,Space,keypress(Space),,,,,,,,-- --- ---- --- ------ ----- ------- ---- -- its ------- --<br>------- ---------- ------ -- ----- -- ----- -- ---- ------<br>--- ----- --- --- ------ -------- ----- --- ------ ----- --<br>----- ----- ---------- --- --- ------ ------ ---- -- ------<br>------- --- ------ ----- --- ---- ------- -- ---- --- --<br>------- ------,196642.20000000298,196641.70000000298,196141.169,196146.30000000075,196154.568,196647.953,,9,its
screen,html.Screen,2_1_1_1_10,2022-05-12T21:24:19.334Z,,,,,,,,,,,,,,,,,54,,,,,,,,,,,,,,669.7470000029716,,response,,,,100,,,,,,,Space,keypress(Space),,,,,,,,-- --- ---- --- ------ ----- ------- ---- -- --- revenue --<br>------- ---------- ------ -- ----- -- ----- -- ---- ------<br>--- ----- --- --- ------ -------- ----- --- ------ ----- --<br>----- ----- ---------- --- --- ------ ------ ---- -- ------<br>------- --- ------ ----- --- ---- ------- -- ---- --- --<br>------- ------,197318.40000000224,197317.70000000298,196634.57,196642.30000000075,196647.953,197328.084,,10,revenue
screen,html.Screen,2_1_1_1_11,2022-05-12T21:24:19.860Z,,,,,,,,,,,,,,,,,54,,,,,,,,,,,,,,515.4159999999974,,response,,,,100,,,,,,,Space,keypress(Space),,,,,,,,-- --- ---- --- ------ ----- ------- ---- -- --- ------- by<br>------- ---------- ------ -- ----- -- ----- -- ---- ------<br>--- ----- --- --- ------ -------- ----- --- ------ ----- --<br>----- ----- ---------- --- --- ------ ------ ---- -- ------<br>------- --- ------ ----- --- ---- ------- -- ---- --- --<br>------- ------,197844.20000000298,197843.5,197314.652,197318.5,197328.084,197848.114,,11,by
screen,html.Screen,2_1_1_1_12,2022-05-12T21:24:20.492Z,,,,,,,,,,,,,,,,,54,,,,,,,,,,,,,,627.5860000029788,,response,,,,100,,,,,,,Space,keypress(Space),,,,,,,,-- --- ---- --- ------ ----- ------- ---- -- --- ------- --<br>issuing ---------- ------ -- ----- -- ----- -- ---- ------<br>--- ----- --- --- ------ -------- ----- --- ------ ----- --<br>----- ----- ---------- --- --- ------ ------ ---- -- ------<br>------- --- ------ ----- --- ---- ------- -- ---- --- --<br>------- ------,198476.30000000075,198475.70000000298,197834.714,197844.40000000224,197848.114,198488.234,,12,issuing
screen,html.Screen,2_1_1_1_13,2022-05-12T21:24:21.208Z,,,,,,,,,,,,,,,,,54,,,,,,,,,,,,,,703.2660000000033,,response,,,,100,,,,,,,Space,keypress(Space),,,,,,,,-- --- ---- --- ------ ----- ------- ---- -- --- ------- --<br>------- government ------ -- ----- -- ----- -- ---- ------<br>--- ----- --- --- ------ -------- ----- --- ------ ----- --<br>----- ----- ---------- --- --- ------ ------ ---- -- ------<br>------- --- ------ ----- --- ---- ------- -- ---- --- --<br>------- ------,199192,199191.5,198474.885,198476.40000000224,198488.234,199195.019,,13,government
screen,html.Screen,2_1_1_1_14,2022-05-12T21:24:21.827Z,,,,,,,,,,,,,,,,,54,,,,,,,,,,,,,,614.5810000014899,,response,,,,100,,,,,,,Space,keypress(Space),,,,,,,,-- --- ---- --- ------ ----- ------- ---- -- --- ------- --<br>------- ---------- bonds. -- ----- -- ----- -- ---- ------<br>--- ----- --- --- ------ -------- ----- --- ------ ----- --<br>----- ----- ---------- --- --- ------ ------ ---- -- ------<br>------- --- ------ ----- --- ---- ------- -- ---- --- --<br>------- ------,199810.5,199809.6000000015,199181.601,199192.20000000298,199195.019,199821.733,,14,bonds.
screen,html.Screen,2_1_1_1_15,2022-05-12T21:24:22.370Z,,,,,,,,,,,,,,,,,54,,,,,,,,,,,,,,531.6670000022277,,response,,,,100,,,,,,,Space,keypress(Space),,,,,,,,-- --- ---- --- ------ ----- ------- ---- -- --- ------- --<br>------- ---------- ------ In ----- -- ----- -- ---- ------<br>--- ----- --- --- ------ -------- ----- --- ------ ----- --<br>----- ----- ---------- --- --- ------ ------ ---- -- ------<br>------- --- ------ ----- --- ---- ------- -- ---- --- --<br>------- ------,200354,200353.40000000224,199808.362,199810.6000000015,199821.733,200369.594,,15,In
screen,html.Screen,2_1_1_1_16,2022-05-12T21:24:23.313Z,,,,,,,,,,,,,,,,,54,,,,,,,,,,,,,,926.2060000007332,,response,,,,100,,,,,,,Space,keypress(Space),,,,,,,,"-- --- ---- --- ------ ----- ------- ---- -- --- ------- --<br>------- ---------- ------ -- 1727, -- ----- -- ---- ------<br>--- ----- --- --- ------ -------- ----- --- ------ ----- --<br>----- ----- ---------- --- --- ------ ------ ---- -- ------<br>------- --- ------ ----- --- ---- ------- -- ---- --- --<br>------- ------",201296.5,201295.80000000075,200341.745,200354,200369.594,201301.959,,16,"1727,"
screen,html.Screen,2_1_1_1_17,2022-05-12T21:24:24.055Z,,,,,,,,,,,,,,,,,54,,,,,,,,,,,,,,735.9410000022326,,response,,,,100,,,,,,,Space,keypress(Space),,,,,,,,-- --- ---- --- ------ ----- ------- ---- -- --- ------- --<br>------- ---------- ------ -- ----- in ----- -- ---- ------<br>--- ----- --- --- ------ -------- ----- --- ------ ----- --<br>----- ----- ---------- --- --- ------ ------ ---- -- ------<br>------- --- ------ ----- --- ---- ------- -- ---- --- --<br>------- ------,202038.70000000298,202037.90000000224,201288.543,201296.6000000015,201301.959,202048.722,,17,in
screen,html.Screen,2_1_1_1_18,2022-05-12T21:24:24.613Z,,,,,,,,,,,,,,,,,54,,,,,,,,,,,,,,546.8780000014813,,response,,,,100,,,,,,,Space,keypress(Space),,,,,,,,-- --- ---- --- ------ ----- ------- ---- -- --- ------- --<br>------- ---------- ------ -- ----- -- order -- ---- ------<br>--- ----- --- --- ------ -------- ----- --- ------ ----- --<br>----- ----- ---------- --- --- ------ ------ ---- -- ------<br>------- --- ------ ----- --- ---- ------- -- ---- --- --<br>------- ------,202596.5,202595.6000000015,202035.296,202038.90000000224,202048.722,202608.779,,18,order
screen,html.Screen,2_1_1_1_19,2022-05-12T21:24:25.266Z,,,,,,,,,,,,,,,,,54,,,,,,,,,,,,,,640.8210000014806,,response,,,,100,,,,,,,Space,keypress(Space),,,,,,,,-- --- ---- --- ------ ----- ------- ---- -- --- ------- --<br>------- ---------- ------ -- ----- -- ----- to ---- ------<br>--- ----- --- --- ------ -------- ----- --- ------ ----- --<br>----- ----- ---------- --- --- ------ ------ ---- -- ------<br>------- --- ------ ----- --- ---- ------- -- ---- --- --<br>------- ------,203250.40000000224,203249.6000000015,202595.354,202596.6000000015,202608.779,203262.217,,19,to
screen,html.Screen,2_1_1_1_20,2022-05-12T21:24:25.786Z,,,,,,,,,,,,,,,,,54,,,,,,,,,,,,,,507.3830000014859,,response,,,,100,,,,,,,Space,keypress(Space),,,,,,,,-- --- ---- --- ------ ----- ------- ---- -- --- ------- --<br>------- ---------- ------ -- ----- -- ----- -- save ------<br>--- ----- --- --- ------ -------- ----- --- ------ ----- --<br>----- ----- ---------- --- --- ------ ------ ---- -- ------<br>------- --- ------ ----- --- ---- ------- -- ---- --- --<br>------- ------,203770.20000000298,203769.6000000015,203248.967,203250.5,203262.217,203782.268,,20,save
screen,html.Screen,2_1_1_1_21,2022-05-12T21:24:26.213Z,,,,,,,,,,,,,,,,,54,,,,,,,,,,,,,,413.4320000029693,,response,,,,100,,,,,,,Space,keypress(Space),,,,,,,,"-- --- ---- --- ------ ----- ------- ---- -- --- ------- --<br>------- ---------- ------ -- ----- -- ----- -- ---- money,<br>--- ----- --- --- ------ -------- ----- --- ------ ----- --<br>----- ----- ---------- --- --- ------ ------ ---- -- ------<br>------- --- ------ ----- --- ---- ------- -- ---- --- --<br>------- ------",204196.6000000015,204195.70000000298,203768.912,203770.40000000224,203782.268,204209.001,,21,"money,"
screen,html.Screen,2_1_1_1_22,2022-05-12T21:24:26.668Z,,,,,,,,,,,,,,,,,54,,,,,,,,,,,,,,442.4990000000107,,response,,,,100,,,,,,,Space,keypress(Space),,,,,,,,-- --- ---- --- ------ ----- ------- ---- -- --- ------- --<br>------- ---------- ------ -- ----- -- ----- -- ---- ------<br>the ----- --- --- ------ -------- ----- --- ------ ----- --<br>----- ----- ---------- --- --- ------ ------ ---- -- ------<br>------- --- ------ ----- --- ---- ------- -- ---- --- --<br>------- ------,204652.20000000298,204651.5,204195.593,204196.70000000298,204209.001,204662.412,,22,the
screen,html.Screen,2_1_1_1_23,2022-05-12T21:24:27.106Z,,,,,,,,,,,,,,,,,54,,,,,,,,,,,,,,427.0879999999888,,response,,,,100,,,,,,,Space,keypress(Space),,,,,,,,-- --- ---- --- ------ ----- ------- ---- -- --- ------- --<br>------- ---------- ------ -- ----- -- ----- -- ---- ------<br>--- state --- --- ------ -------- ----- --- ------ ----- --<br>----- ----- ---------- --- --- ------ ------ ---- -- ------<br>------- --- ------ ----- --- ---- ------- -- ---- --- --<br>------- ------,205090.30000000075,205089.5,204648.981,204652.30000000075,204662.412,205102.447,,23,state
screen,html.Screen,2_1_1_1_24,2022-05-12T21:24:27.517Z,,,,,,,,,,,,,,,,,54,,,,,,,,,,,,,,397.3530000007595,,response,,,,100,,,,,,,Space,keypress(Space),,,,,,,,-- --- ---- --- ------ ----- ------- ---- -- --- ------- --<br>------- ---------- ------ -- ----- -- ----- -- ---- ------<br>--- ----- cut --- ------ -------- ----- --- ------ ----- --<br>----- ----- ---------- --- --- ------ ------ ---- -- ------<br>------- --- ------ ----- --- ---- ------- -- ---- --- --<br>------- ------,205500.5,205499.80000000075,205089.05,205090.40000000224,205102.447,205502.515,,24,cut
screen,html.Screen,2_1_1_1_25,2022-05-12T21:24:27.948Z,,,,,,,,,,,,,,,,,54,,,,,,,,,,,,,,429.08500000147615,,response,,,,100,,,,,,,Space,keypress(Space),,,,,,,,-- --- ---- --- ------ ----- ------- ---- -- --- ------- --<br>------- ---------- ------ -- ----- -- ----- -- ---- ------<br>--- ----- --- the ------ -------- ----- --- ------ ----- --<br>----- ----- ---------- --- --- ------ ------ ---- -- ------<br>------- --- ------ ----- --- ---- ------- -- ---- --- --<br>------- ------,205932.1000000015,205931.6000000015,205489.129,205500.6000000015,205502.515,205942.56,,25,the
screen,html.Screen,2_1_1_1_26,2022-05-12T21:24:28.338Z,,,,,,,,,,,,,,,,,54,,,,,,,,,,,,,,378.9400000000023,,response,,,,100,,,,,,,Space,keypress(Space),,,,,,,,-- --- ---- --- ------ ----- ------- ---- -- --- ------- --<br>------- ---------- ------ -- ----- -- ----- -- ---- ------<br>--- ----- --- --- bonds' -------- ----- --- ------ ----- --<br>----- ----- ---------- --- --- ------ ------ ---- -- ------<br>------- --- ------ ----- --- ---- ------- -- ---- --- --<br>------- ------,206322,206321.5,205929.21,205932.1000000015,205942.56,206329.277,,26,bonds'
screen,html.Screen,2_1_1_1_27,2022-05-12T21:24:28.846Z,,,,,,,,,,,,,,,,,54,,,,,,,,,,,,,,500.22299999999814,,response,,,,100,,,,,,,Space,keypress(Space),,,,,,,,-- --- ---- --- ------ ----- ------- ---- -- --- ------- --<br>------- ---------- ------ -- ----- -- ----- -- ---- ------<br>--- ----- --- --- ------ interest ----- --- ------ ----- --<br>----- ----- ---------- --- --- ------ ------ ---- -- ------<br>------- --- ------ ----- --- ---- ------- -- ---- --- --<br>------- ------,206830.1000000015,206829.5,206315.862,206322.1000000015,206329.277,206836.004,,27,interest
screen,html.Screen,2_1_1_1_28,2022-05-12T21:24:29.356Z,,,,,,,,,,,,,,,,,54,,,,,,,,,,,,,,503.69600000299397,,response,,,,100,,,,,,,Space,keypress(Space),,,,,,,,-- --- ---- --- ------ ----- ------- ---- -- --- ------- --<br>------- ---------- ------ -- ----- -- ----- -- ---- ------<br>--- ----- --- --- ------ -------- rate. --- ------ ----- --<br>----- ----- ---------- --- --- ------ ------ ---- -- ------<br>------- --- ------ ----- --- ---- ------- -- ---- --- --<br>------- ------,207340.40000000224,207339.70000000298,206822.622,206830.20000000298,206836.004,207342.776,,28,rate.
screen,html.Screen,2_1_1_1_29,2022-05-12T21:24:30.258Z,,,,,,,,,,,,,,,,,54,,,,,,,,,,,,,,898.8240000014775,,response,,,,100,,,,,,,Space,keypress(Space),,,,,,,,-- --- ---- --- ------ ----- ------- ---- -- --- ------- --<br>------- ---------- ------ -- ----- -- ----- -- ---- ------<br>--- ----- --- --- ------ -------- ----- The ------ ----- --<br>----- ----- ---------- --- --- ------ ------ ---- -- ------<br>------- --- ------ ----- --- ---- ------- -- ---- --- --<br>------- ------,208242.1000000015,208241.6000000015,207329.339,207340.40000000224,207342.776,208249.528,,29,The
screen,html.Screen,2_1_1_1_30,2022-05-12T21:24:30.650Z,,,,,,,,,,,,,,,,,54,,,,,,,,,,,,,,384.2720000007539,,response,,,,100,,,,,,,Space,keypress(Space),,,,,,,,-- --- ---- --- ------ ----- ------- ---- -- --- ------- --<br>------- ---------- ------ -- ----- -- ----- -- ---- ------<br>--- ----- --- --- ------ -------- ----- --- market ----- --<br>----- ----- ---------- --- --- ------ ------ ---- -- ------<br>------- --- ------ ----- --- ---- ------- -- ---- --- --<br>------- ------,208634.30000000075,208633.80000000075,208236.173,208242.30000000075,208249.528,208636.289,,30,market
screen,html.Screen,2_1_1_1_31,2022-05-12T21:24:31.222Z,,,,,,,,,,,,,,,,,54,,,,,,,,,,,,,,569.2110000000102,,response,,,,100,,,,,,,Space,keypress(Space),,,,,,,,-- --- ---- --- ------ ----- ------- ---- -- --- ------- --<br>------- ---------- ------ -- ----- -- ----- -- ---- ------<br>--- ----- --- --- ------ -------- ----- --- ------ value --<br>----- ----- ---------- --- --- ------ ------ ---- -- ------<br>------- --- ------ ----- --- ---- ------- -- ---- --- --<br>------- ------,209206.1000000015,209205.5,208622.923,208634.40000000224,208636.289,209209.651,,31,value
screen,html.Screen,2_1_1_1_32,2022-05-12T21:24:31.748Z,,,,,,,,,,,,,,,,,54,,,,,,,,,,,,,,522.0490000029677,,response,,,,100,,,,,,,Space,keypress(Space),,,,,,,,-- --- ---- --- ------ ----- ------- ---- -- --- ------- --<br>------- ---------- ------ -- ----- -- ----- -- ---- ------<br>--- ----- --- --- ------ -------- ----- --- ------ ----- of<br>----- ----- ---------- --- --- ------ ------ ---- -- ------<br>------- --- ------ ----- --- ---- ------- -- ---- --- --<br>------- ------,209732.30000000075,209731.70000000298,209196.305,209206.20000000298,209209.651,209743.131,,32,of
screen,html.Screen,2_1_1_1_33,2022-05-12T21:24:32.150Z,,,,,,,,,,,,,,,,,54,,,,,,,,,,,,,,390.6690000007511,,response,,,,100,,,,,,,Space,keypress(Space),,,,,,,,-- --- ---- --- ------ ----- ------- ---- -- --- ------- --<br>------- ---------- ------ -- ----- -- ----- -- ---- ------<br>--- ----- --- --- ------ -------- ----- --- ------ ----- --<br>these ----- ---------- --- --- ------ ------ ---- -- ------<br>------- --- ------ ----- --- ---- ------- -- ---- --- --<br>------- ------,210134.30000000075,210133.80000000075,209729.735,209732.30000000075,209743.131,210143.137,,33,these
screen,html.Screen,2_1_1_1_34,2022-05-12T21:24:32.518Z,,,,,,,,,,,,,,,,,54,,,,,,,,,,,,,,358.4630000015022,,response,,,,100,,,,,,,Space,keypress(Space),,,,,,,,-- --- ---- --- ------ ----- ------- ---- -- --- ------- --<br>------- ---------- ------ -- ----- -- ----- -- ---- ------<br>--- ----- --- --- ------ -------- ----- --- ------ ----- --<br>----- bonds ---------- --- --- ------ ------ ---- -- ------<br>------- --- ------ ----- --- ---- ------- -- ---- --- --<br>------- ------,210502.1000000015,210501.6000000015,210129.773,210134.40000000224,210143.137,210517.612,,34,bonds
screen,html.Screen,2_1_1_1_35,2022-05-12T21:24:33.178Z,,,,,,,,,,,,,,,,,54,,,,,,,,,,,,,,644.0880000029865,,response,,,,100,,,,,,,Space,keypress(Space),,,,,,,,"-- --- ---- --- ------ ----- ------- ---- -- --- ------- --<br>------- ---------- ------ -- ----- -- ----- -- ---- ------<br>--- ----- --- --- ------ -------- ----- --- ------ ----- --<br>----- ----- plummeted, --- --- ------ ------ ---- -- ------<br>------- --- ------ ----- --- ---- ------- -- ---- --- --<br>------- ------",211162.40000000224,211161.70000000298,210489.789,210502.20000000298,210517.612,211169.923,,35,"plummeted,"
screen,html.Screen,2_1_1_1_36,2022-05-12T21:24:33.839Z,,,,,,,,,,,,,,,,,54,,,,,,,,,,,,,,651.6770000014803,,response,,,,100,,,,,,,Space,keypress(Space),,,,,,,,-- --- ---- --- ------ ----- ------- ---- -- --- ------- --<br>------- ---------- ------ -- ----- -- ----- -- ---- ------<br>--- ----- --- --- ------ -------- ----- --- ------ ----- --<br>----- ----- ---------- and --- ------ ------ ---- -- ------<br>------- --- ------ ----- --- ---- ------- -- ---- --- --<br>------- ------,211822.40000000224,211821.6000000015,211156.602,211162.5,211169.923,211837.901,,36,and
screen,html.Screen,2_1_1_1_37,2022-05-12T21:24:34.377Z,,,,,,,,,,,,,,,,,54,,,,,,,,,,,,,,522.0989999999874,,response,,,,100,,,,,,,Space,keypress(Space),,,,,,,,-- --- ---- --- ------ ----- ------- ---- -- --- ------- --<br>------- ---------- ------ -- ----- -- ----- -- ---- ------<br>--- ----- --- --- ------ -------- ----- --- ------ ----- --<br>----- ----- ---------- --- the ------ ------ ---- -- ------<br>------- --- ------ ----- --- ---- ------- -- ---- --- --<br>------- ------,212360.70000000298,212360,211810.001,211822.6000000015,211837.901,212370.117,,37,the
screen,html.Screen,2_1_1_1_38,2022-05-12T21:24:34.864Z,,,,,,,,,,,,,,,,,54,,,,,,,,,,,,,,477.58300000298186,,response,,,,100,,,,,,,Space,keypress(Space),,,,,,,,-- --- ---- --- ------ ----- ------- ---- -- --- ------- --<br>------- ---------- ------ -- ----- -- ----- -- ---- ------<br>--- ----- --- --- ------ -------- ----- --- ------ ----- --<br>----- ----- ---------- --- --- market ------ ---- -- ------<br>------- --- ------ ----- --- ---- ------- -- ---- --- --<br>------- ------,212848.30000000075,212847.70000000298,212356.724,212360.80000000075,212370.117,212850.15,,38,market
screen,html.Screen,2_1_1_1_39,2022-05-12T21:24:35.370Z,,,,,,,,,,,,,,,,,54,,,,,,,,,,,,,,503.55000000298605,,response,,,,100,,,,,,,Space,keypress(Space),,,,,,,,-- --- ---- --- ------ ----- ------- ---- -- --- ------- --<br>------- ---------- ------ -- ----- -- ----- -- ---- ------<br>--- ----- --- --- ------ -------- ----- --- ------ ----- --<br>----- ----- ---------- --- --- ------ became ---- -- ------<br>------- --- ------ ----- --- ---- ------- -- ---- --- --<br>------- ------,213354.30000000075,213353.70000000298,212836.81,212848.5,212850.15,213356.934,,39,became
screen,html.Screen,2_1_1_1_40,2022-05-12T21:24:35.830Z,,,,,,,,,,,,,,,,,54,,,,,,,,,,,,,,456.66600000148173,,response,,,,100,,,,,,,Space,keypress(Space),,,,,,,,-- --- ---- --- ------ ----- ------- ---- -- --- ------- --<br>------- ---------- ------ -- ----- -- ----- -- ---- ------<br>--- ----- --- --- ------ -------- ----- --- ------ ----- --<br>----- ----- ---------- --- --- ------ ------ wary -- ------<br>------- --- ------ ----- --- ---- ------- -- ---- --- --<br>------- ------,213814.20000000298,213813.6000000015,213343.567,213354.40000000224,213356.934,213836.989,,40,wary
screen,html.Screen,2_1_1_1_41,2022-05-12T21:24:36.180Z,,,,,,,,,,,,,,,,,54,,,,,,,,,,,,,,326.6110000014887,,response,,,,100,,,,,,,Space,keypress(Space),,,,,,,,-- --- ---- --- ------ ----- ------- ---- -- --- ------- --<br>------- ---------- ------ -- ----- -- ----- -- ---- ------<br>--- ----- --- --- ------ -------- ----- --- ------ ----- --<br>----- ----- ---------- --- --- ------ ------ ---- of ------<br>------- --- ------ ----- --- ---- ------- -- ---- --- --<br>------- ------,214164.1000000015,214163.6000000015,213823.623,213814.40000000224,213836.989,214170.341,,41,of
screen,html.Screen,2_1_1_1_42,2022-05-12T21:24:36.612Z,,,,,,,,,,,,,,,,,54,,,,,,,,,,,,,,425.2590000015043,,response,,,,100,,,,,,,Space,keypress(Space),,,,,,,,-- --- ---- --- ------ ----- ------- ---- -- --- ------- --<br>------- ---------- ------ -- ----- -- ----- -- ---- ------<br>--- ----- --- --- ------ -------- ----- --- ------ ----- --<br>----- ----- ---------- --- --- ------ ------ ---- -- French<br>------- --- ------ ----- --- ---- ------- -- ---- --- --<br>------- ------,214596.1000000015,214595.6000000015,214156.937,214164.20000000298,214170.341,214611.331,,42,French
screen,html.Screen,2_1_1_1_43,2022-05-12T21:24:37.036Z,,,,,,,,,,,,,,,,,54,,,,,,,,,,,,,,408.1689999999944,,response,,,,100,,,,,,,Space,keypress(Space),,,,,,,,-- --- ---- --- ------ ----- ------- ---- -- --- ------- --<br>------- ---------- ------ -- ----- -- ----- -- ---- ------<br>--- ----- --- --- ------ -------- ----- --- ------ ----- --<br>----- ----- ---------- --- --- ------ ------ ---- -- ------<br>credit. --- ------ ----- --- ---- ------- -- ---- --- --<br>------- ------,215020.1000000015,215019.5,214583.679,214596.20000000298,214611.331,215023.792,,43,credit.
screen,html.Screen,2_1_1_1_44,2022-05-12T21:24:38.144Z,,,,,,,,,,,,,,,,,54,,,,,,,,,,,,,,1103.8080000015034,,response,,,,100,,,,,,,Space,keypress(Space),,,,,,,,-- --- ---- --- ------ ----- ------- ---- -- --- ------- --<br>------- ---------- ------ -- ----- -- ----- -- ---- ------<br>--- ----- --- --- ------ -------- ----- --- ------ ----- --<br>----- ----- ---------- --- --- ------ ------ ---- -- ------<br>------- The ------ ----- --- ---- ------- -- ---- --- --<br>------- ------,216128.30000000075,216127.6000000015,215010.416,215020.20000000298,215023.792,216130.636,,44,The
screen,html.Screen,2_1_1_1_45,2022-05-12T21:24:38.521Z,,,,,,,,,,,,,,,,,54,,,,,,,,,,,,,,373.06400000298163,,response,,,,100,,,,,,,Space,keypress(Space),,,,,,,,-- --- ---- --- ------ ----- ------- ---- -- --- ------- --<br>------- ---------- ------ -- ----- -- ----- -- ---- ------<br>--- ----- --- --- ------ -------- ----- --- ------ ----- --<br>----- ----- ---------- --- --- ------ ------ ---- -- ------<br>------- --- French ----- --- ---- ------- -- ---- --- --<br>------- ------,216505.1000000015,216503.70000000298,216117.27,216128.5,216130.636,216517.322,,45,French
screen,html.Screen,2_1_1_1_46,2022-05-12T21:24:38.838Z,,,,,,,,,,,,,,,,,54,,,,,,,,,,,,,,304.17800000001444,,response,,,,100,,,,,,,Space,keypress(Space),,,,,,,,-- --- ---- --- ------ ----- ------- ---- -- --- ------- --<br>------- ---------- ------ -- ----- -- ----- -- ---- ------<br>--- ----- --- --- ------ -------- ----- --- ------ ----- --<br>----- ----- ---------- --- --- ------ ------ ---- -- ------<br>------- --- ------ state --- ---- ------- -- ---- --- --<br>------- ------,216822.20000000298,216821.5,216504.002,216505.30000000075,216517.322,216824.077,,46,state
screen,html.Screen,2_1_1_1_47,2022-05-12T21:24:39.230Z,,,,,,,,,,,,,,,,,54,,,,,,,,,,,,,,389.32300000224495,,response,,,,100,,,,,,,Space,keypress(Space),,,,,,,,-- --- ---- --- ------ ----- ------- ---- -- --- ------- --<br>------- ---------- ------ -- ----- -- ----- -- ---- ------<br>--- ----- --- --- ------ -------- ----- --- ------ ----- --<br>----- ----- ---------- --- --- ------ ------ ---- -- ------<br>------- --- ------ ----- was ---- ------- -- ---- --- --<br>------- ------,217214,217213.40000000224,216810.654,216822.30000000075,216824.077,217224.089,,47,was
screen,html.Screen,2_1_1_1_48,2022-05-12T21:24:39.616Z,,,,,,,,,,,,,,,,,54,,,,,,,,,,,,,,375.4109999999928,,response,,,,100,,,,,,,Space,keypress(Space),,,,,,,,-- --- ---- --- ------ ----- ------- ---- -- --- ------- --<br>------- ---------- ------ -- ----- -- ----- -- ---- ------<br>--- ----- --- --- ------ -------- ----- --- ------ ----- --<br>----- ----- ---------- --- --- ------ ------ ---- -- ------<br>------- --- ------ ----- --- left ------- -- ---- --- --<br>------- ------,217600.30000000075,217599.5,217210.741,217214.1000000015,217224.089,217610.823,,48,left
screen,html.Screen,2_1_1_1_49,2022-05-12T21:24:40.019Z,,,,,,,,,,,,,,,,,54,,,,,,,,,,,,,,390.9770000007411,,response,,,,100,,,,,,,Space,keypress(Space),,,,,,,,-- --- ---- --- ------ ----- ------- ---- -- --- ------- --<br>------- ---------- ------ -- ----- -- ----- -- ---- ------<br>--- ----- --- --- ------ -------- ----- --- ------ ----- --<br>----- ----- ---------- --- --- ------ ------ ---- -- ------<br>------- --- ------ ----- --- ---- without -- ---- --- --<br>------- ------,218002.5,218001.80000000075,217597.441,217600.40000000224,217610.823,218010.849,,49,without
screen,html.Screen,2_1_1_1_50,2022-05-12T21:24:40.424Z,,,,,,,,,,,,,,,,,54,,,,,,,,,,,,,,396.7510000015027,,response,,,,100,,,,,,,Space,keypress(Space),,,,,,,,-- --- ---- --- ------ ----- ------- ---- -- --- ------- --<br>------- ---------- ------ -- ----- -- ----- -- ---- ------<br>--- ----- --- --- ------ -------- ----- --- ------ ----- --<br>----- ----- ---------- --- --- ------ ------ ---- -- ------<br>------- --- ------ ----- --- ---- ------- an ---- --- --<br>------- ------,218408,218407.6000000015,217997.446,218002.6000000015,218010.849,218410.942,,50,an
screen,html.Screen,2_1_1_1_51,2022-05-12T21:24:40.816Z,,,,,,,,,,,,,,,,,54,,,,,,,,,,,,,,388.7580000029702,,response,,,,100,,,,,,,Space,keypress(Space),,,,,,,,-- --- ---- --- ------ ----- ------- ---- -- --- ------- --<br>------- ---------- ------ -- ----- -- ----- -- ---- ------<br>--- ----- --- --- ------ -------- ----- --- ------ ----- --<br>----- ----- ---------- --- --- ------ ------ ---- -- ------<br>------- --- ------ ----- --- ---- ------- -- easy --- --<br>------- ------,218800.30000000075,218799.70000000298,218397.507,218408.1000000015,218410.942,218811.044,,51,easy
screen,html.Screen,2_1_1_1_52,2022-05-12T21:24:41.160Z,,,,,,,,,,,,,,,,,54,,,,,,,,,,,,,,332.4560000000056,,response,,,,100,,,,,,,Space,keypress(Space),,,,,,,,-- --- ---- --- ------ ----- ------- ---- -- --- ------- --<br>------- ---------- ------ -- ----- -- ----- -- ---- ------<br>--- ----- --- --- ------ -------- ----- --- ------ ----- --<br>----- ----- ---------- --- --- ------ ------ ---- -- ------<br>------- --- ------ ----- --- ---- ------- -- ---- way --<br>------- ------,219144,219143.5,218797.592,218800.30000000075,218811.044,219159.203,,52,way
screen,html.Screen,2_1_1_1_53,2022-05-12T21:24:41.502Z,,,,,,,,,,,,,,,,,54,,,,,,,,,,,,,,326.2969999999914,,response,,,,100,,,,,,,Space,keypress(Space),,,,,,,,-- --- ---- --- ------ ----- ------- ---- -- --- ------- --<br>------- ---------- ------ -- ----- -- ----- -- ---- ------<br>--- ----- --- --- ------ -------- ----- --- ------ ----- --<br>----- ----- ---------- --- --- ------ ------ ---- -- ------<br>------- --- ------ ----- --- ---- ------- -- ---- --- of<br>------- ------,219486,219485.5,219130.99,219144.1000000015,219159.203,219491.089,,53,of
screen,html.Screen,2_1_1_1_54,2022-05-12T21:24:41.830Z,,,,,,,,,,,,,,,,,54,,,,,,,,,,,,,,322.4109999999928,,response,,,,100,,,,,,,Space,keypress(Space),,,,,,,,-- --- ---- --- ------ ----- ------- ---- -- --- ------- --<br>------- ---------- ------ -- ----- -- ----- -- ---- ------<br>--- ----- --- --- ------ -------- ----- --- ------ ----- --<br>----- ----- ---------- --- --- ------ ------ ---- -- ------<br>------- --- ------ ----- --- ---- ------- -- ---- --- --<br>raising ------,219813.90000000224,219813.5,219477.66,219486.1000000015,219491.089,219824.458,,54,raising
screen,html.Screen,2_1_1_1_55,2022-05-12T21:24:42.194Z,,,,,,,,,,,,,,,,,54,,,,,,,,,,,,,,353.04199999998673,,response,,,,100,,,,,,,Space,keypress(Space),,,,,,,,-- --- ---- --- ------ ----- ------- ---- -- --- ------- --<br>------- ---------- ------ -- ----- -- ----- -- ---- ------<br>--- ----- --- --- ------ -------- ----- --- ------ ----- --<br>----- ----- ---------- --- --- ------ ------ ---- -- ------<br>------- --- ------ ----- --- ---- ------- -- ---- --- --<br>------- money.,220178.1000000015,220177.5,219811.094,219814.1000000015,219824.458,220197.844,,55,money.
Item 100,flow.Loop,2_1_1_1,2022-05-12T21:24:42.194Z,,,,,,,,,,,,,,,,,,,,,,,,,,,,,,,29770.363000000012,,completion,,,,,E,,,,,,,,,,,silence,,,,,220178.30000000075,220177.5,190393.83,190394.6000000015,190407.137,220197.844,,,
Question 1,html.Screen,2_1_1_2,2022-05-12T21:24:44.325Z,,,,,,,,,,,,,,,,,,,,,,,,,,,,true,TRUE,,2110.155999999988,,response,,,,100,E,,,,,,TRUE,click #choice-1,,,,silence,,,,,222308.90000000224,222308,220184.483,220178.30000000075,220197.844,222318.104,,,
Question 2,html.Screen,2_1_1_3,2022-05-12T21:24:47.021Z,,,,,,,,,,,,,,,,,,,,,,,,,,,,true,FALSE,,2685.796000002243,,response,,,,100,E,,,,,,FALSE,click #choice-2,,,,silence,,,,,225004.90000000224,225003.90000000224,222304.743,222309,222318.104,225011.797,,,
Item 100,flow.Sequence,2_1_1,2022-05-12T21:24:47.021Z,,,,,,,,,,,,,,,,,,,,,,,,,,,,,,,44598.12300000223,,completion,,,,,,,,,,,,,,,,,,,,,225005.1000000015,225003.90000000224,180392.413,180400,180405.777,225011.797,,,
End of Practice,html.Page,2_1_2,2022-05-12T21:24:51.902Z,,,,,,,,,,,,,,,,,,,,,,,,,,,,,,,4873.503000000754,,form submission,,,,,,,,,,,,,,,,,,,,,229885.40000000224,229885.30000000075,224998.47,225005.30000000075,225011.797,229892.47,,,
Practice,flow.Sequence,2_1,2022-05-12T21:24:51.902Z,,,,,,,,,,,,,,,,,,,,,,,,,,,,,,,97699.43900000074,,completion,,,,,,,,,,,,,,,,,,,,,229885.6000000015,229885.30000000075,132172.523,132180,132185.861,229892.47,,,
Trap_instruction,html.Page,2_2_0,2022-05-12T21:24:55.838Z,,,,,,,,,,,,,,,,,,,,,,,,,,,,,,,3929.330000000744,,form submission,,,,,,,,,,,,,,,,,,,,,233822,233821.80000000075,229879.096,229885.70000000298,229892.47,233839.646,,,
trap_trial,html.Screen,2_2_1,2022-05-12T21:24:58.927Z,,,,,,,,,,,,,,,,,,,,,,,,,,,,true,1,,3069.654000000737,,response,,,,,,,,,,,1,click #choice-1,,,,,,,,,236910.6000000015,236909.30000000075,233812.988,233822.1000000015,233839.646,236920.075,,,
end of trap trial,html.Page,2_2_2,2022-05-12T21:25:00.478Z,,,,,,,,,,,,,,,,,,,,,,,,,,,,,,,1542.0250000014785,,form submission,,,,,,,,,,,,,,,,,,,,,238462.40000000224,238462.1000000015,236906.753,236910.70000000298,236920.075,238466.97,,,
Trap 1,flow.Sequence,2_2,2022-05-12T21:25:00.479Z,,,,,,,,,,,,,,,,,,,,,,,,,,,,,,,8569.630000001489,,completion,,,,,,,,,,,,,,,,,,,,,238462.5,238462.1000000015,229879.096,229885.70000000298,229892.47,238466.97,,,
Standby,html.Page,2_3_0,2022-05-12T21:25:08.471Z,,,,,,,,,,,,,,,,,,,,,,,,,,,,,,,8001.065999999992,,timeout,,,,,,,,,,,,,,,,,,,,,246455.5,246454.711,238453.653,238462.6000000015,238466.97,246468.036,,,
Holding screen,html.Screen,2_3_1_0_0,2022-05-12T21:25:15.472Z,,,,,,,,,,,,,,,,,,,,,,,,,,,,,,,7000.947000000015,,timeout,,,,,,,,,,,,,,,,,,,,,253456.30000000075,253455.646,246454.711,246455.6000000015,246468.036,253468.983,,,
screen,html.Screen,2_3_1_0_1_0,2022-05-12T21:25:16.387Z,,,,,,,,,,,,,,,,,40,,,,,,,,,,,,,,901.7170000029728,,response,,,,9,E,,,,,,Space,keypress(Space),,,,silence,,,,Police -- ------- ---- ---- ---- - -------- ----- --- --<br>----- ----- ------ -- ---- -- --- - ---- -- - ----- -----<br>------ ---- ------ ---- - -------- ------- -- --- --------<br>-------- ----------- ---- ------ ---- ------ ---- --- ---<br>-------- --- -----,254371.40000000224,254370.70000000298,253455.646,253456.40000000224,253468.983,254375.833,,0,Police
screen,html.Screen,2_3_1_0_1_1,2022-05-12T21:25:16.817Z,,,,,,,,,,,,,,,,,40,,,,,,,,,,,,,,424.5670000022219,,response,,,,9,E,,,,,,Space,keypress(Space),,,,silence,,,,------ in ------- ---- ---- ---- - -------- ----- --- --<br>----- ----- ------ -- ---- -- --- - ---- -- - ----- -----<br>------ ---- ------ ---- - -------- ------- -- --- --------<br>-------- ----------- ---- ------ ---- ------ ---- --- ---<br>-------- --- -----,254800.90000000224,254800.40000000224,254362.473,254371.6000000015,254375.833,254802.543,,1,in
screen,html.Screen,2_3_1_0_1_2,2022-05-12T21:25:17.223Z,,,,,,,,,,,,,,,,,40,,,,,,,,,,,,,,403.9569999999949,,response,,,,9,E,,,,,,Space,keypress(Space),,,,silence,,,,------ -- Georgia ---- ---- ---- - -------- ----- --- --<br>----- ----- ------ -- ---- -- --- - ---- -- - ----- -----<br>------ ---- ------ ---- - -------- ------- -- --- --------<br>-------- ----------- ---- ------ ---- ------ ---- --- ---<br>-------- --- -----,255207.1000000015,255206.5,254789.089,254801.1000000015,254802.543,255215.931,,2,Georgia
screen,html.Screen,2_3_1_0_1_3,2022-05-12T21:25:17.719Z,,,,,,,,,,,,,,,,,40,,,,,,,,,,,,,,486.6690000014787,,response,,,,9,E,,,,,,Space,keypress(Space),,,,silence,,,,------ -- ------- have ---- ---- - -------- ----- --- --<br>----- ----- ------ -- ---- -- --- - ---- -- - ----- -----<br>------ ---- ------ ---- - -------- ------- -- --- --------<br>-------- ----------- ---- ------ ---- ------ ---- --- ---<br>-------- --- -----,255703.20000000298,255702.6000000015,255202.499,255207.30000000075,255215.931,255709.272,,3,have
screen,html.Screen,2_3_1_0_1_4,2022-05-12T21:25:18.155Z,,,,,,,,,,,,,,,,,40,,,,,,,,,,,,,,429.3280000014929,,response,,,,9,E,,,,,,Space,keypress(Space),,,,silence,,,,------ -- ------- ---- shut ---- - -------- ----- --- --<br>----- ----- ------ -- ---- -- --- - ---- -- - ----- -----<br>------ ---- ------ ---- - -------- ------- -- --- --------<br>-------- ----------- ---- ------ ---- ------ ---- --- ---<br>-------- --- -----,256139.40000000224,256138.6000000015,255696.065,255703.30000000075,255709.272,256149.343,,4,shut
screen,html.Screen,2_3_1_0_1_5,2022-05-12T21:25:18.561Z,,,,,,,,,,,,,,,,,40,,,,,,,,,,,,,,395.1570000000065,,response,,,,9,E,,,,,,Space,keypress(Space),,,,silence,,,,------ -- ------- ---- ---- down - -------- ----- --- --<br>----- ----- ------ -- ---- -- --- - ---- -- - ----- -----<br>------ ---- ------ ---- - -------- ------- -- --- --------<br>-------- ----------- ---- ------ ---- ------ ---- --- ---<br>-------- --- -----,256545,256544.5,256136.026,256139.5,256149.343,256549.404,,5,down
screen,html.Screen,2_3_1_0_1_6,2022-05-12T21:25:18.987Z,,,,,,,,,,,,,,,,,40,,,,,,,,,,,,,,421.2960000029707,,response,,,,9,E,,,,,,Space,keypress(Space),,,,silence,,,,------ -- ------- ---- ---- ---- a -------- ----- --- --<br>----- ----- ------ -- ---- -- --- - ---- -- - ----- -----<br>------ ---- ------ ---- - -------- ------- -- --- --------<br>-------- ----------- ---- ------ ---- ------ ---- --- ---<br>-------- --- -----,256971.30000000075,256970.70000000298,256536.122,256545.20000000298,256549.404,256976.122,,6,a
screen,html.Screen,2_3_1_0_1_7,2022-05-12T21:25:19.655Z,,,,,,,,,,,,,,,,,40,,,,,,,,,,,,,,662.2780000022321,,response,,,,9,E,,,,,,Space,keypress(Space),,,,silence,,,,------ -- ------- ---- ---- ---- - lemonade ----- --- --<br>----- ----- ------ -- ---- -- --- - ---- -- - ----- -----<br>------ ---- ------ ---- - -------- ------- -- --- --------<br>-------- ----------- ---- ------ ---- ------ ---- --- ---<br>-------- --- -----,257639,257638.40000000224,256962.789,256971.5,256976.122,257642.862,,7,lemonade
screen,html.Screen,2_3_1_0_1_8,2022-05-12T21:25:20.139Z,,,,,,,,,,,,,,,,,40,,,,,,,,,,,,,,479.53800000224146,,response,,,,9,E,,,,,,Space,keypress(Space),,,,silence,,,,------ -- ------- ---- ---- ---- - -------- stand --- --<br>----- ----- ------ -- ---- -- --- - ---- -- - ----- -----<br>------ ---- ------ ---- - -------- ------- -- --- --------<br>-------- ----------- ---- ------ ---- ------ ---- --- ---<br>-------- --- -----,258123,258122.40000000224,257629.565,257639.1000000015,257642.862,258136.275,,8,stand
screen,html.Screen,2_3_1_0_1_9,2022-05-12T21:25:20.839Z,,,,,,,,,,,,,,,,,40,,,,,,,,,,,,,,686.5250000007509,,response,,,,9,E,,,,,,Space,keypress(Space),,,,silence,,,,------ -- ------- ---- ---- ---- - -------- ----- run --<br>----- ----- ------ -- ---- -- --- - ---- -- - ----- -----<br>------ ---- ------ ---- - -------- ------- -- --- --------<br>-------- ----------- ---- ------ ---- ------ ---- --- ---<br>-------- --- -----,258823.40000000224,258822.80000000075,258122.98,258123.1000000015,258136.275,258829.718,,9,run
screen,html.Screen,2_3_1_0_1_10,2022-05-12T21:25:21.189Z,,,,,,,,,,,,,,,,,40,,,,,,,,,,,,,,343.0820000007516,,response,,,,9,E,,,,,,Space,keypress(Space),,,,silence,,,,------ -- ------- ---- ---- ---- - -------- ----- --- by<br>----- ----- ------ -- ---- -- --- - ---- -- - ----- -----<br>------ ---- ------ ---- - -------- ------- -- --- --------<br>-------- ----------- ---- ------ ---- ------ ---- --- ---<br>-------- --- -----,259173.5,259172.80000000075,258816.343,258823.5,258829.718,259176.428,,10,by
screen,html.Screen,2_3_1_0_1_11,2022-05-12T21:25:21.599Z,,,,,,,,,,,,,,,,,40,,,,,,,,,,,,,,406.07199999998556,,response,,,,9,E,,,,,,Space,keypress(Space),,,,silence,,,,------ -- ------- ---- ---- ---- - -------- ----- --- --<br>three ----- ------ -- ---- -- --- - ---- -- - ----- -----<br>------ ---- ------ ---- - -------- ------- -- --- --------<br>-------- ----------- ---- ------ ---- ------ ---- --- ---<br>-------- --- -----,259582.90000000224,259582.5,259163.073,259173.5,259176.428,259589.864,,11,three
screen,html.Screen,2_3_1_0_1_12,2022-05-12T21:25:22.005Z,,,,,,,,,,,,,,,,,40,,,,,,,,,,,,,,398.7360000014887,,response,,,,9,E,,,,,,Space,keypress(Space),,,,silence,,,,------ -- ------- ---- ---- ---- - -------- ----- --- --<br>----- girls ------ -- ---- -- --- - ---- -- - ----- -----<br>------ ---- ------ ---- - -------- ------- -- --- --------<br>-------- ----------- ---- ------ ---- ------ ---- --- ---<br>-------- --- -----,259989.30000000075,259988.6000000015,259576.407,259583.1000000015,259589.864,260016.567,,12,girls
screen,html.Screen,2_3_1_0_1_13,2022-05-12T21:25:22.627Z,,,,,,,,,,,,,,,,,40,,,,,,,,,,,,,,593.93299999999,,response,,,,9,E,,,,,,Space,keypress(Space),,,,silence,,,,------ -- ------- ---- ---- ---- - -------- ----- --- --<br>----- ----- trying -- ---- -- --- - ---- -- - ----- -----<br>------ ---- ------ ---- - -------- ------- -- --- --------<br>-------- ----------- ---- ------ ---- ------ ---- --- ---<br>-------- --- -----,260611,260610.5,260004.186,259989.40000000224,260016.567,260616.672,,13,trying
screen,html.Screen,2_3_1_0_1_14,2022-05-12T21:25:22.929Z,,,,,,,,,,,,,,,,,40,,,,,,,,,,,,,,295.8280000000086,,response,,,,9,E,,,,,,Space,keypress(Space),,,,silence,,,,------ -- ------- ---- ---- ---- - -------- ----- --- --<br>----- ----- ------ to ---- -- --- - ---- -- - ----- -----<br>------ ---- ------ ---- - -------- ------- -- --- --------<br>-------- ----------- ---- ------ ---- ------ ---- --- ---<br>-------- --- -----,260913,260912.5,260603.262,260611.1000000015,260616.672,260923.337,,14,to
screen,html.Screen,2_3_1_0_1_15,2022-05-12T21:25:23.279Z,,,,,,,,,,,,,,,,,40,,,,,,,,,,,,,,339.16300000000047,,response,,,,9,E,,,,,,Space,keypress(Space),,,,silence,,,,------ -- ------- ---- ---- ---- - -------- ----- --- --<br>----- ----- ------ -- save -- --- - ---- -- - ----- -----<br>------ ---- ------ ---- - -------- ------- -- --- --------<br>-------- ----------- ---- ------ ---- ------ ---- --- ---<br>-------- --- -----,261263.1000000015,261262.5,260909.952,260913.1000000015,260923.337,261270.032,,15,save
screen,html.Screen,2_3_1_0_1_16,2022-05-12T21:25:23.559Z,,,,,,,,,,,,,,,,,40,,,,,,,,,,,,,,272.36800000222865,,response,,,,9,E,,,,,,Space,keypress(Space),,,,silence,,,,------ -- ------- ---- ---- ---- - -------- ----- --- --<br>----- ----- ------ -- ---- up --- - ---- -- - ----- -----<br>------ ---- ------ ---- - -------- ------- -- --- --------<br>-------- ----------- ---- ------ ---- ------ ---- --- ---<br>-------- --- -----,261543,261542.40000000224,261256.643,261263.20000000298,261270.032,261550.084,,16,up
screen,html.Screen,2_3_1_0_1_17,2022-05-12T21:25:23.953Z,,,,,,,,,,,,,,,,,40,,,,,,,,,,,,,,386.61600000297767,,response,,,,9,E,,,,,,Space,keypress(Space),,,,silence,,,,------ -- ------- ---- ---- ---- - -------- ----- --- --<br>----- ----- ------ -- ---- -- for - ---- -- - ----- -----<br>------ ---- ------ ---- - -------- ------- -- --- --------<br>-------- ----------- ---- ------ ---- ------ ---- --- ---<br>-------- --- -----,261937.5,261936.70000000298,261536.687,261543.1000000015,261550.084,261950.137,,17,for
screen,html.Screen,2_3_1_0_1_18,2022-05-12T21:25:24.413Z,,,,,,,,,,,,,,,,,40,,,,,,,,,,,,,,446.2630000022473,,response,,,,9,E,,,,,,Space,keypress(Space),,,,silence,,,,------ -- ------- ---- ---- ---- - -------- ----- --- --<br>----- ----- ------ -- ---- -- --- a ---- -- - ----- -----<br>------ ---- ------ ---- - -------- ------- -- --- --------<br>-------- ----------- ---- ------ ---- ------ ---- --- ---<br>-------- --- -----,262397,262396.40000000224,261936.772,261937.70000000298,261950.137,262403.535,,18,a
screen,html.Screen,2_3_1_0_1_19,2022-05-12T21:25:24.741Z,,,,,,,,,,,,,,,,,40,,,,,,,,,,,,,,320.9650000000256,,response,,,,9,E,,,,,,Space,keypress(Space),,,,silence,,,,------ -- ------- ---- ---- ---- - -------- ----- --- --<br>----- ----- ------ -- ---- -- --- - trip -- - ----- -----<br>------ ---- ------ ---- - -------- ------- -- --- --------<br>-------- ----------- ---- ------ ---- ------ ---- --- ---<br>-------- --- -----,262725.1000000015,262724.5,262390.194,262397.1000000015,262403.535,262736.927,,19,trip
screen,html.Screen,2_3_1_0_1_20,2022-05-12T21:25:25.067Z,,,,,,,,,,,,,,,,,40,,,,,,,,,,,,,,313.7730000029551,,response,,,,9,E,,,,,,Space,keypress(Space),,,,silence,,,,------ -- ------- ---- ---- ---- - -------- ----- --- --<br>----- ----- ------ -- ---- -- --- - ---- to - ----- -----<br>------ ---- ------ ---- - -------- ------- -- --- --------<br>-------- ----------- ---- ------ ---- ------ ---- --- ---<br>-------- --- -----,263051.6000000015,263050.700000003,262723.497,262725.200000003,262736.927,263056.945,,20,to
screen,html.Screen,2_3_1_0_1_21,2022-05-12T21:25:25.411Z,,,,,,,,,,,,,,,,,40,,,,,,,,,,,,,,337.65500000148313,,response,,,,9,E,,,,,,Space,keypress(Space),,,,silence,,,,------ -- ------- ---- ---- ---- - -------- ----- --- --<br>----- ----- ------ -- ---- -- --- - ---- -- a ----- -----<br>------ ---- ------ ---- - -------- ------- -- --- --------<br>-------- ----------- ---- ------ ---- ------ ---- --- ---<br>-------- --- -----,263395.40000000224,263394.6000000015,263043.599,263051.80000000075,263056.945,263403.65,,21,a
screen,html.Screen,2_3_1_0_1_22,2022-05-12T21:25:25.777Z,,,,,,,,,,,,,,,,,40,,,,,,,,,,,,,,356.8499999999767,,response,,,,9,E,,,,,,Space,keypress(Space),,,,silence,,,,------ -- ------- ---- ---- ---- - -------- ----- --- --<br>----- ----- ------ -- ---- -- --- - ---- -- - water -----<br>------ ---- ------ ---- - -------- ------- -- --- --------<br>-------- ----------- ---- ------ ---- ------ ---- --- ---<br>-------- --- -----,263761,263760.5,263390.295,263395.5,263403.65,263763.717,,22,water
screen,html.Screen,2_3_1_0_1_23,2022-05-12T21:25:26.103Z,,,,,,,,,,,,,,,,,40,,,,,,,,,,,,,,322.683000002231,,response,,,,9,E,,,,,,Space,keypress(Space),,,,silence,,,,"------ -- ------- ---- ---- ---- - -------- ----- --- --<br>----- ----- ------ -- ---- -- --- - ---- -- - ----- park,<br>------ ---- ------ ---- - -------- ------- -- --- --------<br>-------- ----------- ---- ------ ---- ------ ---- --- ---<br>-------- --- -----",264086.90000000224,264086.40000000224,263750.302,263761.200000003,263763.717,264097.103,,23,"park,"
screen,html.Screen,2_3_1_0_1_24,2022-05-12T21:25:26.661Z,,,,,,,,,,,,,,,,,40,,,,,,,,,,,,,,547.6970000007423,,response,,,,9,E,,,,,,Space,keypress(Space),,,,silence,,,,------ -- ------- ---- ---- ---- - -------- ----- --- --<br>----- ----- ------ -- ---- -- --- - ---- -- - ----- -----<br>saying ---- ------ ---- - -------- ------- -- --- --------<br>-------- ----------- ---- ------ ---- ------ ---- --- ---<br>-------- --- -----,264645.6000000015,264644.80000000075,264083.737,264087,264097.103,264657.166,,24,saying
screen,html.Screen,2_3_1_0_1_25,2022-05-12T21:25:26.969Z,,,,,,,,,,,,,,,,,40,,,,,,,,,,,,,,295.4340000014636,,response,,,,9,E,,,,,,Space,keypress(Space),,,,silence,,,,------ -- ------- ---- ---- ---- - -------- ----- --- --<br>----- ----- ------ -- ---- -- --- - ---- -- - ----- -----<br>------ they ------ ---- - -------- ------- -- --- --------<br>-------- ----------- ---- ------ ---- ------ ---- --- ---<br>-------- --- -----,264953.200000003,264952.6000000015,264643.814,264645.700000003,264657.166,264963.876,,25,they
screen,html.Screen,2_3_1_0_1_26,2022-05-12T21:25:27.301Z,,,,,,,,,,,,,,,,,40,,,,,,,,,,,,,,321.0240000022459,,response,,,,9,E,,,,,,Space,keypress(Space),,,,silence,,,,------ -- ------- ---- ---- ---- - -------- ----- --- --<br>----- ----- ------ -- ---- -- --- - ---- -- - ----- -----<br>------ ---- didn't ---- - -------- ------- -- --- --------<br>-------- ----------- ---- ------ ---- ------ ---- --- ---<br>-------- --- -----,265285.40000000224,265284.90000000224,264950.476,264953.40000000224,264963.876,265297.243,,26,didn't
screen,html.Screen,2_3_1_0_1_27,2022-05-12T21:25:27.591Z,,,,,,,,,,,,,,,,,40,,,,,,,,,,,,,,277.1570000022184,,response,,,,9,E,,,,,,Space,keypress(Space),,,,silence,,,,------ -- ------- ---- ---- ---- - -------- ----- --- --<br>----- ----- ------ -- ---- -- --- - ---- -- - ----- -----<br>------ ---- ------ have - -------- ------- -- --- --------<br>-------- ----------- ---- ------ ---- ------ ---- --- ---<br>-------- --- -----,265574.90000000224,265574.40000000224,265283.874,265285.6000000015,265297.243,265577.306,,27,have
screen,html.Screen,2_3_1_0_1_28,2022-05-12T21:25:28.019Z,,,,,,,,,,,,,,,,,40,,,,,,,,,,,,,,425.2940000015078,,response,,,,9,E,,,,,,Space,keypress(Space),,,,silence,,,,------ -- ------- ---- ---- ---- - -------- ----- --- --<br>----- ----- ------ -- ---- -- --- - ---- -- - ----- -----<br>------ ---- ------ ---- a -------- ------- -- --- --------<br>-------- ----------- ---- ------ ---- ------ ---- --- ---<br>-------- --- -----,266003.1000000015,266002.6000000015,265563.972,265574.90000000224,265577.306,266018.537,,28,a
screen,html.Screen,2_3_1_0_1_29,2022-05-12T21:25:28.485Z,,,,,,,,,,,,,,,,,40,,,,,,,,,,,,,,449.863000002224,,response,,,,9,E,,,,,,Space,keypress(Space),,,,silence,,,,------ -- ------- ---- ---- ---- - -------- ----- --- --<br>----- ----- ------ -- ---- -- --- - ---- -- - ----- -----<br>------ ---- ------ ---- - business ------- -- --- --------<br>-------- ----------- ---- ------ ---- ------ ---- --- ---<br>-------- --- -----,266468.90000000224,266468.40000000224,265990.6,266003.200000003,266018.537,266470.741,,29,business
screen,html.Screen,2_3_1_0_1_30,2022-05-12T21:25:28.797Z,,,,,,,,,,,,,,,,,40,,,,,,,,,,,,,,309.75900000002,,response,,,,9,E,,,,,,Space,keypress(Space),,,,silence,,,,------ -- ------- ---- ---- ---- - -------- ----- --- --<br>----- ----- ------ -- ---- -- --- - ---- -- - ----- -----<br>------ ---- ------ ---- - -------- license -- --- --------<br>-------- ----------- ---- ------ ---- ------ ---- --- ---<br>-------- --- -----,266781.200000003,266780.5,266457.374,266469,266470.741,266790.805,,30,license
screen,html.Screen,2_3_1_0_1_31,2022-05-12T21:25:29.151Z,,,,,,,,,,,,,,,,,40,,,,,,,,,,,,,,343.7950000014971,,response,,,,9,E,,,,,,Space,keypress(Space),,,,silence,,,,------ -- ------- ---- ---- ---- - -------- ----- --- --<br>----- ----- ------ -- ---- -- --- - ---- -- - ----- -----<br>------ ---- ------ ---- - -------- ------- or --- --------<br>-------- ----------- ---- ------ ---- ------ ---- --- ---<br>-------- --- -----,267135.40000000224,267134.6000000015,266777.4,266781.30000000075,266790.805,267150.884,,31,or
screen,html.Screen,2_3_1_0_1_32,2022-05-12T21:25:29.447Z,,,,,,,,,,,,,,,,,40,,,,,,,,,,,,,,279.61599999998,,response,,,,9,E,,,,,,Space,keypress(Space),,,,silence,,,,------ -- ------- ---- ---- ---- - -------- ----- --- --<br>----- ----- ------ -- ---- -- --- - ---- -- - ----- -----<br>------ ---- ------ ---- - -------- ------- -- the --------<br>-------- ----------- ---- ------ ---- ------ ---- --- ---<br>-------- --- -----,267431.200000003,267430.5,267137.507,267135.5,267150.884,267444.209,,32,the
screen,html.Screen,2_3_1_0_1_33,2022-05-12T21:25:29.739Z,,,,,,,,,,,,,,,,,40,,,,,,,,,,,,,,278.29100000002654,,response,,,,9,E,,,,,,Space,keypress(Space),,,,silence,,,,------ -- ------- ---- ---- ---- - -------- ----- --- --<br>----- ----- ------ -- ---- -- --- - ---- -- - ----- -----<br>------ ---- ------ ---- - -------- ------- -- --- required<br>-------- ----------- ---- ------ ---- ------ ---- --- ---<br>-------- --- -----,267723,267722.5,267430.831,267431.5,267444.209,267738.929,,33,required
screen,html.Screen,2_3_1_0_1_34,2022-05-12T21:25:30.173Z,,,,,,,,,,,,,,,,,40,,,,,,,,,,,,,,417.6710000014864,,response,,,,9,E,,,,,,Space,keypress(Space),,,,silence,,,,------ -- ------- ---- ---- ---- - -------- ----- --- --<br>----- ----- ------ -- ---- -- --- - ---- -- - ----- -----<br>------ ---- ------ ---- - -------- ------- -- --- --------<br>permits. ----------- ---- ------ ---- ------ ---- --- ---<br>-------- --- -----,268157.30000000075,268156.6000000015,267710.904,267723.1000000015,267738.929,268164.298,,34,permits.
screen,html.Screen,2_3_1_0_1_35,2022-05-12T21:25:30.849Z,,,,,,,,,,,,,,,,,40,,,,,,,,,,,,,,668.2019999999902,,response,,,,9,E,,,,,,Space,keypress(Space),,,,silence,,,,------ -- ------- ---- ---- ---- - -------- ----- --- --<br>----- ----- ------ -- ---- -- --- - ---- -- - ----- -----<br>------ ---- ------ ---- - -------- ------- -- --- --------<br>-------- Morningstar ---- ------ ---- ------ ---- --- ---<br>-------- --- -----,268833.40000000224,268832.5,268150.887,268157.5,268164.298,268844.428,,35,Morningstar
screen,html.Screen,2_3_1_0_1_36,2022-05-12T21:25:31.249Z,,,,,,,,,,,,,,,,,40,,,,,,,,,,,,,,388.07199999998556,,response,,,,9,E,,,,,,Space,keypress(Space),,,,silence,,,,------ -- ------- ---- ---- ---- - -------- ----- --- --<br>----- ----- ------ -- ---- -- --- - ---- -- - ----- -----<br>------ ---- ------ ---- - -------- ------- -- --- --------<br>-------- ----------- says ------ ---- ------ ---- --- ---<br>-------- --- -----,269233.30000000075,269232.5,268831.062,268833.6000000015,268844.428,269244.458,,36,says
screen,html.Screen,2_3_1_0_1_37,2022-05-12T21:25:31.599Z,,,,,,,,,,,,,,,,,40,,,,,,,,,,,,,,338.14200000150595,,response,,,,9,E,,,,,,Space,keypress(Space),,,,silence,,,,------ -- ------- ---- ---- ---- - -------- ----- --- --<br>----- ----- ------ -- ---- -- --- - ---- -- - ----- -----<br>------ ---- ------ ---- - -------- ------- -- --- --------<br>-------- ----------- ---- police ---- ------ ---- --- ---<br>-------- --- -----,269583.40000000224,269582.6000000015,269231.087,269233.5,269244.458,269591.16,,37,police
screen,html.Screen,2_3_1_0_1_38,2022-05-12T21:25:31.985Z,,,,,,,,,,,,,,,,,40,,,,,,,,,,,,,,377.3400000000256,,response,,,,9,E,,,,,,Space,keypress(Space),,,,silence,,,,------ -- ------- ---- ---- ---- - -------- ----- --- --<br>----- ----- ------ -- ---- -- --- - ---- -- - ----- -----<br>------ ---- ------ ---- - -------- ------- -- --- --------<br>-------- ----------- ---- ------ also ------ ---- --- ---<br>-------- --- -----,269969,269968.5,269577.772,269583.6000000015,269591.16,269977.934,,38,also
screen,html.Screen,2_3_1_0_1_39,2022-05-12T21:25:32.297Z,,,,,,,,,,,,,,,,,40,,,,,,,,,,,,,,302.4660000022268,,response,,,,9,E,,,,,,Space,keypress(Space),,,,silence,,,,------ -- ------- ---- ---- ---- - -------- ----- --- --<br>----- ----- ------ -- ---- -- --- - ---- -- - ----- -----<br>------ ---- ------ ---- - -------- ------- -- --- --------<br>-------- ----------- ---- ------ ---- didn't ---- --- ---<br>-------- --- -----,270281,270280.40000000224,269964.489,269969.1000000015,269977.934,270284.615,,39,didn't
screen,html.Screen,2_3_1_0_1_40,2022-05-12T21:25:32.683Z,,,,,,,,,,,,,,,,,40,,,,,,,,,,,,,,382.08500000298955,,response,,,,9,E,,,,,,Space,keypress(Space),,,,silence,,,,------ -- ------- ---- ---- ---- - -------- ----- --- --<br>----- ----- ------ -- ---- -- --- - ---- -- - ----- -----<br>------ ---- ------ ---- - -------- ------- -- --- --------<br>-------- ----------- ---- ------ ---- ------ know --- ---<br>-------- --- -----,270667.1000000015,270666.700000003,270271.201,270281.200000003,270284.615,270671.316,,40,know
screen,html.Screen,2_3_1_0_1_41,2022-05-12T21:25:33.039Z,,,,,,,,,,,,,,,,,40,,,,,,,,,,,,,,351.2840000014985,,response,,,,9,E,,,,,,Space,keypress(Space),,,,silence,,,,------ -- ------- ---- ---- ---- - -------- ----- --- --<br>----- ----- ------ -- ---- -- --- - ---- -- - ----- -----<br>------ ---- ------ ---- - -------- ------- -- --- --------<br>-------- ----------- ---- ------ ---- ------ ---- how ---<br>-------- --- -----,271023.5,271022.6000000015,270657.928,270667.200000003,270671.316,271031.349,,41,how
screen,html.Screen,2_3_1_0_1_42,2022-05-12T21:25:33.379Z,,,,,,,,,,,,,,,,,40,,,,,,,,,,,,,,331.1510000000126,,response,,,,9,E,,,,,,Space,keypress(Space),,,,silence,,,,------ -- ------- ---- ---- ---- - -------- ----- --- --<br>----- ----- ------ -- ---- -- --- - ---- -- - ----- -----<br>------ ---- ------ ---- - -------- ------- -- --- --------<br>-------- ----------- ---- ------ ---- ------ ---- --- the<br>-------- --- -----,271363.1000000015,271362.5,271017.98,271023.6000000015,271031.349,271364.76,,42,the
screen,html.Screen,2_3_1_0_1_43,2022-05-12T21:25:33.769Z,,,,,,,,,,,,,,,,,40,,,,,,,,,,,,,,387.7399999999907,,response,,,,9,E,,,,,,Space,keypress(Space),,,,silence,,,,------ -- ------- ---- ---- ---- - -------- ----- --- --<br>----- ----- ------ -- ---- -- --- - ---- -- - ----- -----<br>------ ---- ------ ---- - -------- ------- -- --- --------<br>-------- ----------- ---- ------ ---- ------ ---- --- ---<br>lemonade --- -----,271753.200000003,271752.5,271351.331,271363.1000000015,271364.76,271764.848,,43,lemonade
screen,html.Screen,2_3_1_0_1_44,2022-05-12T21:25:34.103Z,,,,,,,,,,,,,,,,,40,,,,,,,,,,,,,,321.55200000223704,,response,,,,9,E,,,,,,Space,keypress(Space),,,,silence,,,,------ -- ------- ---- ---- ---- - -------- ----- --- --<br>----- ----- ------ -- ---- -- --- - ---- -- - ----- -----<br>------ ---- ------ ---- - -------- ------- -- --- --------<br>-------- ----------- ---- ------ ---- ------ ---- --- ---<br>-------- was -----,272086.80000000075,272086.40000000224,271751.373,271753.40000000224,271764.848,272098.182,,44,was
screen,html.Screen,2_3_1_0_1_45,2022-05-12T21:25:34.509Z,,,,,,,,,,,,,,,,,40,,,,,,,,,,,,,,394.3180000000284,,response,,,,9,E,,,,,,Space,keypress(Space),,,,silence,,,,------ -- ------- ---- ---- ---- - -------- ----- --- --<br>----- ----- ------ -- ---- -- --- - ---- -- - ----- -----<br>------ ---- ------ ---- - -------- ------- -- --- --------<br>-------- ----------- ---- ------ ---- ------ ---- --- ---<br>-------- --- made.,272493,272492.5,272084.837,272087,272098.182,272498.249,,45,made.
Item 9,flow.Loop,2_3_1_0_1,2022-05-12T21:25:34.509Z,,,,,,,,,,,,,,,,,,,,,,,,,,,,,,,19023.516999999993,,completion,,,,,,,,,,,,,,,,,,,,,272493.30000000075,272492.5,253455.646,253456.40000000224,253468.983,272498.249,,,
Question 1,html.Screen,2_3_1_0_2,2022-05-12T21:25:37.130Z,,,,,,,,,,,,,,,,,,,,,,,,,,,,true,FALSE,,2615.1510000022245,,response,,,,9,E,,,,,,FALSE,click #choice-2,,,,silence,,,,,275114.30000000075,275113.40000000224,272484.884,272493.40000000224,272498.249,275125.254,,,
Question 2,html.Screen,2_3_1_0_3,2022-05-12T21:25:40.531Z,,,,,,,,,,,,,,,,,,,,,,,,,,,,true,FALSE,,3388.446000002965,,response,,,,9,E,,,,,,FALSE,click #choice-2,,,,silence,,,,,278514.90000000224,278513.700000003,275111.88,275114.40000000224,275125.254,278525.702,,,
Item 9,flow.Sequence,2_3_1_0,2022-05-12T21:25:40.531Z,,,,,,,,,,,,,,,,,,,,,,,,,,,,,,,32045.664000002987,,completion,,,,,,,,,,,,,,,,,,,,,278515,278513.700000003,246454.711,246455.6000000015,246468.036,278525.702,,,
