sender,sender_type,sender_id,timestamp,meta,,Blues,Classical,Country,Dance,Electronic,Folk,Gospel,Hip-Hop,Jazz,Latin,Musical/Film,New-age,Pop,Prolific_id,Provo_ID,R&B,Rap,Reggae,Religious,Rock,Soul,Swing,Traditional,age,artist_name,correct,correctResponse,distraction,duration,education,ended_on,familiarity,gender,headphone_check_performance,item,list,music_frequency,offensiveness,pleasantness,position_correct,preference,response,response_action,snippet_file,song_name,song_rating,sound,stimulus_1,stimulus_2,stimulus_3,text,time_commit,time_end,time_render,time_run,time_show,time_switch,url,word,word_ID
Prolific ID,html.Form,0,2022-05-02T09:51:10.429Z,"{""labjs_version"":""20.2.2"",""labjs_build"":{""flavor"":""production"",""commit"":""a25486e0c714a0ae2ce03ff94b7bb6896854dcfa""},""location"":""https://run.pavlovia.org/mvasilev/prolific3_music_e/"",""userAgent"":""Mozilla/5.0 (Windows NT 10.0; Win64; x64; rv:99.0) Gecko/20100101 Firefox/99.0"",""platform"":""Win32"",""language"":""en-US"",""locale"":""en-GB"",""timeZone"":""Europe/London"",""timezoneOffset"":-60,""screen_width"":1536,""screen_height"":864,""scroll_width"":1536,""scroll_height"":691,""window_innerWidth"":1536,""window_innerHeight"":739,""devicePixelRatio"":1.25}",,,,,,,,,,,,,,,5eb9b2f1dbd0090dea81a3f8,,,,,,,,,,,,,,,4307.34,,form submission,,,,,,,,,,,,,,,,,,,,,26525,26525,22217.42,22217,22217.66,26525.18,{},,
Introduction,html.Screen,1_0,2022-05-02T09:51:16.096Z,,,,,,,,,,,,,,,,,,,,,,,,,,,,,,,5657.82,,response,,,,,,,,,,,continue,click button,,,,,,,,,32192,32183,26520.28,26526,26525.18,32194.16,,,
Volume calibration,html.Screen,1_1,2022-05-02T09:51:28.842Z,,,,,,,,,,,,,,,,,,,,,,,,,,,,,,,12738.84,,response,,,,,,,,,,,continue,click button,,,,,,,,,44938,44933,32191.48,32192,32194.16,44939.22,,,
Task instructions,html.Screen,1_2,2022-05-02T09:51:41.172Z,,,,,,,,,,,,,,,,,,,,,,,,,,,,,,,12321.779999999999,,response,,,,,,,,,,,continue,click button,,,,,,,,,57268,57261,44938,44939,44939.22,57272.3,,,
Sounds,html.Screen,1_3_0_0,2022-05-02T09:51:45.423Z,,,,,,,,,,,,,,,,,,,,,,,,,,,,,,,4250.399999999994,,timeout,,,,,,,,,2,,,,,,,,O,S,I,,61520,61518.54,57267.58,57268,57272.3,61522.7,,,
Judgement,html.Screen,1_3_0_1,2022-05-02T09:51:46.372Z,,,,,,,,,,,,,,,,,,,,,,,,,,,,true,2,,941.3000000000029,,response,,,,,,,,,2,,2,click #choice-2,,,,,O,S,I,,62468,62464,61518.54,61520,61522.7,62472.18,,,
Trial,flow.Sequence,1_3_0,2022-05-02T09:51:46.373Z,,,,,,,,,,,,,,,,,,,,,,,,,,,,,,,5191.699999999997,,completion,,,,,,,,,2,,,,,,,,O,S,I,,62469,62464,57267.58,57268,57272.3,62472.18,,,
Sounds,html.Screen,1_3_1_0,2022-05-02T09:51:50.623Z,,,,,,,,,,,,,,,,,,,,,,,,,,,,,,,4250.5999999999985,,timeout,,,,,,,,,2,,,,,,,,I,S,O,,66719,66718.62,62467.58,62470,62472.18,66722.78,,,
Judgement,html.Screen,1_3_1_1,2022-05-02T09:51:50.991Z,,,,,,,,,,,,,,,,,,,,,,,,,,,,true,2,,350.22000000000116,,response,,,,,,,,,2,,2,click #choice-2,,,,,I,S,O,,67087,67073,66718.62,66719,66722.78,67089.9,,,
Trial,flow.Sequence,1_3_1,2022-05-02T09:51:50.991Z,,,,,,,,,,,,,,,,,,,,,,,,,,,,,,,4600.82,,completion,,,,,,,,,2,,,,,,,,I,S,O,,67087,67073,62467.58,62469,62472.18,67089.9,,,
Sounds,html.Screen,1_3_2_0,2022-05-02T09:51:55.240Z,,,,,,,,,,,,,,,,,,,,,,,,,,,,,,,4249.800000000003,,timeout,,,,,,,,,3,,,,,,,,I,O,S,,71336,71335.52,67086.48,67087,67089.9,71339.7,,,
Judgement,html.Screen,1_3_2_1,2022-05-02T09:51:55.689Z,,,,,,,,,,,,,,,,,,,,,,,,,,,,true,3,,437.3000000000029,,response,,,,,,,,,3,,3,click #choice-3,,,,,I,O,S,,71785,71777,71335.52,71336,71339.7,71787.62,,,
Trial,flow.Sequence,1_3_2,2022-05-02T09:51:55.690Z,,,,,,,,,,,,,,,,,,,,,,,,,,,,,,,4687.100000000006,,completion,,,,,,,,,3,,,,,,,,I,O,S,,71785,71777,67086.48,67087,67089.9,71787.62,,,
Sounds,html.Screen,1_3_3_0,2022-05-02T09:51:59.940Z,,,,,,,,,,,,,,,,,,,,,,,,,,,,,,,4250.900000000009,,timeout,,,,,,,,,1,,,,,,,,S,I,O,,76036,76034.34,71785.18,71786,71787.62,76038.52,,,
Judgement,html.Screen,1_3_3_1,2022-05-02T09:52:00.478Z,,,,,,,,,,,,,,,,,,,,,,,,,,,,true,1,,519.4799999999959,,response,,,,,,,,,1,,1,click #choice-1,,,,,S,I,O,,76574,76558,76034.34,76037,76038.52,76573.6,,,
Trial,flow.Sequence,1_3_3,2022-05-02T09:52:00.479Z,,,,,,,,,,,,,,,,,,,,,,,,,,,,,,,4770.380000000005,,completion,,,,,,,,,1,,,,,,,,S,I,O,,76575,76558,71785.18,71786,71787.62,76573.6,,,
Sounds,html.Screen,1_3_4_0,2022-05-02T09:52:04.726Z,,,,,,,,,,,,,,,,,,,,,,,,,,,,,,,4251.659999999989,,timeout,,,,,,,,,1,,,,,,,,S,O,I,,80822,80821.1,76573.26,76575,76573.6,80825.26,,,
Judgement,html.Screen,1_3_4_1,2022-05-02T09:52:05.167Z,,,,,,,,,,,,,,,,,,,,,,,,,,,,true,1,,435.74000000000524,,response,,,,,,,,,1,,1,click #choice-1,,,,,S,O,I,,81263,81261,80821.1,80822,80825.26,81263.06,,,
Trial,flow.Sequence,1_3_4,2022-05-02T09:52:05.167Z,,,,,,,,,,,,,,,,,,,,,,,,,,,,,,,4687.399999999994,,completion,,,,,,,,,1,,,,,,,,S,O,I,,81263,81261,76573.26,76575,76573.6,81263.06,,,
Sounds,html.Screen,1_3_5_0,2022-05-02T09:52:09.412Z,,,,,,,,,,,,,,,,,,,,,,,,,,,,,,,4248.139999999999,,timeout,,,,,,,,,3,,,,,,,,O,I,S,,85508,85507.02,81262.44,81263,81263.06,85511.2,,,
Judgement,html.Screen,1_3_5_1,2022-05-02T09:52:09.812Z,,,,,,,,,,,,,,,,,,,,,,,,,,,,true,3,,390.8000000000029,,response,,,,,,,,,3,,3,click #choice-3,,,,,O,I,S,,85908,85902,85507.02,85508,85511.2,85907.6,,,
Trial,flow.Sequence,1_3_5,2022-05-02T09:52:09.812Z,,,,,,,,,,,,,,,,,,,,,,,,,,,,,,,4638.940000000002,,completion,,,,,,,,,3,,,,,,,,O,I,S,,85908,85902,81262.44,81263,81263.06,85907.6,,,
Task,flow.Loop,1_3,2022-05-02T09:52:09.813Z,,,,,,,,,,,,,,,,,,,,,,,,,,,,,,,28629.699999999997,,completion,,,1,,,,,,,,,,,,,,,,,,85909,85902,57267.58,57268,57272.3,85907.6,,,
Trap,html.Screen,1_4,2022-05-02T09:52:09.816Z,,,,,,,,,,,,,,,,,,,,,,,,,,,,,,,NaN,,skipped,,,,,,,,,,,,,,,,,,,,,85912,85902,,85912,,85907.6,,,
Thanks,html.Screen,1_5,2022-05-02T09:52:13.689Z,,,,,,,,,,,,,,,,,,,,,,,,,,,,,,,3868.399999999994,,response,,,,,,,,,,,continue,click button,,,,,,,,,89786,89776,85907.52,85912,85907.6,92039.06,,,
Headphone screening,flow.Sequence,1,2022-05-02T09:52:13.690Z,,,,,,,,,,,,,,,,,,,,,,,,,,,,,,,63250.82,,completion,,,,,,,,,,,,,,,,,,,,,89786,89776,26520.28,26526,26525.18,92039.06,,,
Instructions,html.Page,2_0,2022-05-02T09:52:32.866Z,,,,,,,,,,,,,,,,,,,,,,,,,,,,,,,16922.940000000002,,form submission,,,,,,,,,,,,,,,,,,,,,108962,108962,92037.52,92037,92039.06,108965.08,,,
Holding screen,html.Screen,2_1_0_0,2022-05-02T09:52:42.867Z,,,,,,,,,,,,,,,,,,,,,,,,,,,,,,,10001.660000000003,,timeout,,,,,,,,,,,,,,,,,,,,,118963,118962.62,108960.16,108963,108965.08,118966.74,,,
screen,html.Screen,2_1_0_1_0,2022-05-02T09:52:43.659Z,,,,,,,,,,,,,,,,,53,,,,,,,,,,,,,,779.2599999999948,,response,,,,99,,,,,,,Space,keypress(Space),,,,,,,,When -- ----- -- ------ - ------- --- ----------<br>------------- ------ ------ ---- ---- ------- ----- -- ----<br>-------- ------- -- ---------- --- - --- ----- ----- ----<br>---- --- --- ----- --- ---- ---- ------- ----- ---- -------<br>--- --- -- ----- -- --- ---- -- --- ---- -- ------ ------<br>--- ----- -- ----,119755,119746,118962.62,118964,118966.74,119755.74,,0,When
screen,html.Screen,2_1_0_1_1,2022-05-02T09:52:44.175Z,,,,,,,,,,,,,,,,,53,,,,,,,,,,,,,,505.25999999999476,,response,,,,99,,,,,,,Space,keypress(Space),,,,,,,,---- it ----- -- ------ - ------- --- ----------<br>------------- ------ ------ ---- ---- ------- ----- -- ----<br>-------- ------- -- ---------- --- - --- ----- ----- ----<br>---- --- --- ----- --- ---- ---- ------- ----- ---- -------<br>--- --- -- ----- -- --- ---- -- --- ---- -- ------ ------<br>--- ----- -- ----,120271,120261,119755.52,119755,119755.74,120271.7,,1,it
screen,html.Screen,2_1_0_1_2,2022-05-02T09:52:44.761Z,,,,,,,,,,,,,,,,,53,,,,,,,,,,,,,,582.3000000000029,,response,,,,99,,,,,,,Space,keypress(Space),,,,,,,,---- -- comes -- ------ - ------- --- ----------<br>------------- ------ ------ ---- ---- ------- ----- -- ----<br>-------- ------- -- ---------- --- - --- ----- ----- ----<br>---- --- --- ----- --- ---- ---- ------- ----- ---- -------<br>--- --- -- ----- -- --- ---- -- --- ---- -- ------ ------<br>--- ----- -- ----,120857,120854,120271.48,120272,120271.7,120857.76,,2,comes
screen,html.Screen,2_1_0_1_3,2022-05-02T09:52:45.192Z,,,,,,,,,,,,,,,,,53,,,,,,,,,,,,,,418.24000000000524,,response,,,,99,,,,,,,Space,keypress(Space),,,,,,,,---- -- ----- to ------ - ------- --- ----------<br>------------- ------ ------ ---- ---- ------- ----- -- ----<br>-------- ------- -- ---------- --- - --- ----- ----- ----<br>---- --- --- ----- --- ---- ---- ------- ----- ---- -------<br>--- --- -- ----- -- --- ---- -- --- ---- -- ------ ------<br>--- ----- -- ----,121288,121276,120857.6,120858,120857.76,121288.56,,3,to
screen,html.Screen,2_1_0_1_4,2022-05-02T09:52:45.725Z,,,,,,,,,,,,,,,,,53,,,,,,,,,,,,,,519.4400000000023,,response,,,,99,,,,,,,Space,keypress(Space),,,,,,,,---- -- ----- -- having - ------- --- ----------<br>------------- ------ ------ ---- ---- ------- ----- -- ----<br>-------- ------- -- ---------- --- - --- ----- ----- ----<br>---- --- --- ----- --- ---- ---- ------- ----- ---- -------<br>--- --- -- ----- -- --- ---- -- --- ---- -- ------ ------<br>--- ----- -- ----,121821,121808,121288.38,121288,121288.56,121821.58,,4,having
screen,html.Screen,2_1_0_1_5,2022-05-02T09:52:46.082Z,,,,,,,,,,,,,,,,,53,,,,,,,,,,,,,,345.41999999999825,,response,,,,99,,,,,,,Space,keypress(Space),,,,,,,,---- -- ----- -- ------ a ------- --- ----------<br>------------- ------ ------ ---- ---- ------- ----- -- ----<br>-------- ------- -- ---------- --- - --- ----- ----- ----<br>---- --- --- ----- --- ---- ---- ------- ----- ---- -------<br>--- --- -- ----- -- --- ---- -- --- ---- -- ------ ------<br>--- ----- -- ----,122178,122167,121821.36,121821,121821.58,122178.06,,5,a
screen,html.Screen,2_1_0_1_6,2022-05-02T09:52:46.516Z,,,,,,,,,,,,,,,,,53,,,,,,,,,,,,,,426.9400000000023,,response,,,,99,,,,,,,Space,keypress(Space),,,,,,,,---- -- ----- -- ------ - lasting --- ----------<br>------------- ------ ------ ---- ---- ------- ----- -- ----<br>-------- ------- -- ---------- --- - --- ----- ----- ----<br>---- --- --- ----- --- ---- ---- ------- ----- ---- -------<br>--- --- -- ----- -- --- ---- -- --- ---- -- ------ ------<br>--- ----- -- ----,122612,122605,122177.88,122178,122178.06,122613,,6,lasting
screen,html.Screen,2_1_0_1_7,2022-05-02T09:52:46.924Z,,,,,,,,,,,,,,,,,53,,,,,,,,,,,,,,397,,response,,,,99,,,,,,,Space,keypress(Space),,,,,,,,---- -- ----- -- ------ - ------- and ----------<br>------------- ------ ------ ---- ---- ------- ----- -- ----<br>-------- ------- -- ---------- --- - --- ----- ----- ----<br>---- --- --- ----- --- ---- ---- ------- ----- ---- -------<br>--- --- -- ----- -- --- ---- -- --- ---- -- ------ ------<br>--- ----- -- ----,123020,123010,122612.78,122612,122613,123020.06,,7,and
screen,html.Screen,2_1_0_1_8,2022-05-02T09:52:47.414Z,,,,,,,,,,,,,,,,,53,,,,,,,,,,,,,,475.9400000000023,,response,,,,99,,,,,,,Space,keypress(Space),,,,,,,,---- -- ----- -- ------ - ------- --- fulfilling<br>------------- ------ ------ ---- ---- ------- ----- -- ----<br>-------- ------- -- ---------- --- - --- ----- ----- ----<br>---- --- --- ----- --- ---- ---- ------- ----- ---- -------<br>--- --- -- ----- -- --- ---- -- --- ---- -- ------ ------<br>--- ----- -- ----,123510,123496,123019.84,123020,123020.06,123511.06,,8,fulfilling
screen,html.Screen,2_1_0_1_9,2022-05-02T09:52:48.004Z,,,,,,,,,,,,,,,,,53,,,,,,,,,,,,,,577.9400000000023,,response,,,,99,,,,,,,Space,keypress(Space),,,,,,,,"---- -- ----- -- ------ - ------- --- ----------<br>relationship, ------ ------ ---- ---- ------- ----- -- ----<br>-------- ------- -- ---------- --- - --- ----- ----- ----<br>---- --- --- ----- --- ---- ---- ------- ----- ---- -------<br>--- --- -- ----- -- --- ---- -- --- ---- -- ------ ------<br>--- ----- -- ----",124100,124089,123510.86,123511,123511.06,124100.42,,9,"relationship,"
screen,html.Screen,2_1_0_1_10,2022-05-02T09:52:48.504Z,,,,,,,,,,,,,,,,,53,,,,,,,,,,,,,,488.58000000000175,,response,,,,99,,,,,,,Space,keypress(Space),,,,,,,,---- -- ----- -- ------ - ------- --- ----------<br>------------- common ------ ---- ---- ------- ----- -- ----<br>-------- ------- -- ---------- --- - --- ----- ----- ----<br>---- --- --- ----- --- ---- ---- ------- ----- ---- -------<br>--- --- -- ----- -- --- ---- -- --- ---- -- ------ ------<br>--- ----- -- ----,124601,124589,124100.24,124100,124100.42,124601.2,,10,common
screen,html.Screen,2_1_0_1_11,2022-05-02T09:52:48.888Z,,,,,,,,,,,,,,,,,53,,,,,,,,,,,,,,378.8000000000029,,response,,,,99,,,,,,,Space,keypress(Space),,,,,,,,---- -- ----- -- ------ - ------- --- ----------<br>------------- ------ wisdom ---- ---- ------- ----- -- ----<br>-------- ------- -- ---------- --- - --- ----- ----- ----<br>---- --- --- ----- --- ---- ---- ------- ----- ---- -------<br>--- --- -- ----- -- --- ---- -- --- ---- -- ------ ------<br>--- ----- -- ----,124984,124980,124601.06,124601,124601.2,124984.7,,11,wisdom
screen,html.Screen,2_1_0_1_12,2022-05-02T09:52:49.400Z,,,,,,,,,,,,,,,,,53,,,,,,,,,,,,,,495.3000000000029,,response,,,,99,,,,,,,Space,keypress(Space),,,,,,,,---- -- ----- -- ------ - ------- --- ----------<br>------------- ------ ------ says ---- ------- ----- -- ----<br>-------- ------- -- ---------- --- - --- ----- ----- ----<br>---- --- --- ----- --- ---- ---- ------- ----- ---- -------<br>--- --- -- ----- -- --- ---- -- --- ---- -- ------ ------<br>--- ----- -- ----,125496,125480,124984.48,124984,124984.7,125496.58,,12,says
screen,html.Screen,2_1_0_1_13,2022-05-02T09:52:49.901Z,,,,,,,,,,,,,,,,,53,,,,,,,,,,,,,,499.41999999999825,,response,,,,99,,,,,,,Space,keypress(Space),,,,,,,,---- -- ----- -- ------ - ------- --- ----------<br>------------- ------ ------ ---- that ------- ----- -- ----<br>-------- ------- -- ---------- --- - --- ----- ----- ----<br>---- --- --- ----- --- ---- ---- ------- ----- ---- -------<br>--- --- -- ----- -- --- ---- -- --- ---- -- ------ ------<br>--- ----- -- ----,125997,125996,125496.24,125496,125496.58,125997.18,,13,that
screen,html.Screen,2_1_0_1_14,2022-05-02T09:52:50.386Z,,,,,,,,,,,,,,,,,53,,,,,,,,,,,,,,482.820000000007,,response,,,,99,,,,,,,Space,keypress(Space),,,,,,,,---- -- ----- -- ------ - ------- --- ----------<br>------------- ------ ------ ---- ---- feeling ----- -- ----<br>-------- ------- -- ---------- --- - --- ----- ----- ----<br>---- --- --- ----- --- ---- ---- ------- ----- ---- -------<br>--- --- -- ----- -- --- ---- -- --- ---- -- ------ ------<br>--- ----- -- ----,126483,126480,125997.04,125997,125997.18,126482.54,,14,feeling
screen,html.Screen,2_1_0_1_15,2022-05-02T09:52:50.770Z,,,,,,,,,,,,,,,,,53,,,,,,,,,,,,,,372.4600000000064,,response,,,,99,,,,,,,Space,keypress(Space),,,,,,,,---- -- ----- -- ------ - ------- --- ----------<br>------------- ------ ------ ---- ---- ------- close -- ----<br>-------- ------- -- ---------- --- - --- ----- ----- ----<br>---- --- --- ----- --- ---- ---- ------- ----- ---- -------<br>--- --- -- ----- -- --- ---- -- --- ---- -- ------ ------<br>--- ----- -- ----,126865,126855,126482.3,126483,126482.54,126866.32,,15,close
screen,html.Screen,2_1_0_1_16,2022-05-02T09:52:51.084Z,,,,,,,,,,,,,,,,,53,,,,,,,,,,,,,,301.679999999993,,response,,,,99,,,,,,,Space,keypress(Space),,,,,,,,---- -- ----- -- ------ - ------- --- ----------<br>------------- ------ ------ ---- ---- ------- ----- to ----<br>-------- ------- -- ---------- --- - --- ----- ----- ----<br>---- --- --- ----- --- ---- ---- ------- ----- ---- -------<br>--- --- -- ----- -- --- ---- -- --- ---- -- ------ ------<br>--- ----- -- ----,127181,127168,126866.14,126866,126866.32,127180.72,,16,to
screen,html.Screen,2_1_0_1_17,2022-05-02T09:52:51.485Z,,,,,,,,,,,,,,,,,53,,,,,,,,,,,,,,392.27999999999884,,response,,,,99,,,,,,,Space,keypress(Space),,,,,,,,---- -- ----- -- ------ - ------- --- ----------<br>------------- ------ ------ ---- ---- ------- ----- -- your<br>-------- ------- -- ---------- --- - --- ----- ----- ----<br>---- --- --- ----- --- ---- ---- ------- ----- ---- -------<br>--- --- -- ----- -- --- ---- -- --- ---- -- ------ ------<br>--- ----- -- ----,127582,127573,127180.52,127181,127180.72,127582.34,,17,your
screen,html.Screen,2_1_0_1_18,2022-05-02T09:52:51.898Z,,,,,,,,,,,,,,,,,53,,,,,,,,,,,,,,397.6600000000035,,response,,,,99,,,,,,,Space,keypress(Space),,,,,,,,---- -- ----- -- ------ - ------- --- ----------<br>------------- ------ ------ ---- ---- ------- ----- -- ----<br>romantic ------- -- ---------- --- - --- ----- ----- ----<br>---- --- --- ----- --- ---- ---- ------- ----- ---- -------<br>--- --- -- ----- -- --- ---- -- --- ---- -- ------ ------<br>--- ----- -- ----,127995,127980,127582.14,127582,127582.34,127994.56,,18,romantic
screen,html.Screen,2_1_0_1_19,2022-05-02T09:52:52.260Z,,,,,,,,,,,,,,,,,53,,,,,,,,,,,,,,345.4400000000023,,response,,,,99,,,,,,,Space,keypress(Space),,,,,,,,---- -- ----- -- ------ - ------- --- ----------<br>------------- ------ ------ ---- ---- ------- ----- -- ----<br>-------- partner -- ---------- --- - --- ----- ----- ----<br>---- --- --- ----- --- ---- ---- ------- ----- ---- -------<br>--- --- -- ----- -- --- ---- -- --- ---- -- ------ ------<br>--- ----- -- ----,128356,128340,127994.38,127995,127994.56,128356.4,,19,partner
screen,html.Screen,2_1_0_1_20,2022-05-02T09:52:52.584Z,,,,,,,,,,,,,,,,,53,,,,,,,,,,,,,,310.6000000000058,,response,,,,99,,,,,,,Space,keypress(Space),,,,,,,,---- -- ----- -- ------ - ------- --- ----------<br>------------- ------ ------ ---- ---- ------- ----- -- ----<br>-------- ------- is ---------- --- - --- ----- ----- ----<br>---- --- --- ----- --- ---- ---- ------- ----- ---- -------<br>--- --- -- ----- -- --- ---- -- --- ---- -- ------ ------<br>--- ----- -- ----,128680,128667,128356.16,128356,128356.4,128680.54,,20,is
screen,html.Screen,2_1_0_1_21,2022-05-02T09:52:53.009Z,,,,,,,,,,,,,,,,,53,,,,,,,,,,,,,,408.4600000000064,,response,,,,99,,,,,,,Space,keypress(Space),,,,,,,,---- -- ----- -- ------ - ------- --- ----------<br>------------- ------ ------ ---- ---- ------- ----- -- ----<br>-------- ------- -- paramount. --- - --- ----- ----- ----<br>---- --- --- ----- --- ---- ---- ------- ----- ---- -------<br>--- --- -- ----- -- --- ---- -- --- ---- -- ------ ------<br>--- ----- -- ----,129105,129089,128680.36,128680,128680.54,129105.42,,21,paramount.
screen,html.Screen,2_1_0_1_22,2022-05-02T09:52:53.496Z,,,,,,,,,,,,,,,,,53,,,,,,,,,,,,,,483.58000000000175,,response,,,,99,,,,,,,Space,keypress(Space),,,,,,,,---- -- ----- -- ------ - ------- --- ----------<br>------------- ------ ------ ---- ---- ------- ----- -- ----<br>-------- ------- -- ---------- But - --- ----- ----- ----<br>---- --- --- ----- --- ---- ---- ------- ----- ---- -------<br>--- --- -- ----- -- --- ---- -- --- ---- -- ------ ------<br>--- ----- -- ----,129592,129589,129105.24,129105,129105.42,129593.32,,22,But
screen,html.Screen,2_1_0_1_23,2022-05-02T09:52:53.856Z,,,,,,,,,,,,,,,,,53,,,,,,,,,,,,,,355.679999999993,,response,,,,99,,,,,,,Space,keypress(Space),,,,,,,,---- -- ----- -- ------ - ------- --- ----------<br>------------- ------ ------ ---- ---- ------- ----- -- ----<br>-------- ------- -- ---------- --- a --- ----- ----- ----<br>---- --- --- ----- --- ---- ---- ------- ----- ---- -------<br>--- --- -- ----- -- --- ---- -- --- ---- -- ------ ------<br>--- ----- -- ----,129953,129949,129593.12,129593,129593.32,129952.8,,23,a
screen,html.Screen,2_1_0_1_24,2022-05-02T09:52:54.235Z,,,,,,,,,,,,,,,,,53,,,,,,,,,,,,,,370.1999999999971,,response,,,,99,,,,,,,Space,keypress(Space),,,,,,,,---- -- ----- -- ------ - ------- --- ----------<br>------------- ------ ------ ---- ---- ------- ----- -- ----<br>-------- ------- -- ---------- --- - new ----- ----- ----<br>---- --- --- ----- --- ---- ---- ------- ----- ---- -------<br>--- --- -- ----- -- --- ---- -- --- ---- -- ------ ------<br>--- ----- -- ----,130331,130323,129952.64,129953,129952.8,130332.12,,24,new
screen,html.Screen,2_1_0_1_25,2022-05-02T09:52:54.716Z,,,,,,,,,,,,,,,,,53,,,,,,,,,,,,,,475.88000000000466,,response,,,,99,,,,,,,Space,keypress(Space),,,,,,,,---- -- ----- -- ------ - ------- --- ----------<br>------------- ------ ------ ---- ---- ------- ----- -- ----<br>-------- ------- -- ---------- --- - --- study ----- ----<br>---- --- --- ----- --- ---- ---- ------- ----- ---- -------<br>--- --- -- ----- -- --- ---- -- --- ---- -- ------ ------<br>--- ----- -- ----,130812,130808,130331.94,130331,130332.12,130812.8,,25,study
screen,html.Screen,2_1_0_1_26,2022-05-02T09:52:55.048Z,,,,,,,,,,,,,,,,,53,,,,,,,,,,,,,,323.1999999999971,,response,,,,99,,,,,,,Space,keypress(Space),,,,,,,,---- -- ----- -- ------ - ------- --- ----------<br>------------- ------ ------ ---- ---- ------- ----- -- ----<br>-------- ------- -- ---------- --- - --- ----- finds ----<br>---- --- --- ----- --- ---- ---- ------- ----- ---- -------<br>--- --- -- ----- -- --- ---- -- --- ---- -- ------ ------<br>--- ----- -- ----,131144,131136,130812.64,130813,130812.8,131144.76,,26,finds
screen,html.Screen,2_1_0_1_27,2022-05-02T09:52:55.371Z,,,,,,,,,,,,,,,,,53,,,,,,,,,,,,,,320.2399999999907,,response,,,,99,,,,,,,Space,keypress(Space),,,,,,,,---- -- ----- -- ------ - ------- --- ----------<br>------------- ------ ------ ---- ---- ------- ----- -- ----<br>-------- ------- -- ---------- --- - --- ----- ----- that<br>---- --- --- ----- --- ---- ---- ------- ----- ---- -------<br>--- --- -- ----- -- --- ---- -- --- ---- -- ------ ------<br>--- ----- -- ----,131467,131465,131144.56,131144,131144.76,131467.86,,27,that
screen,html.Screen,2_1_0_1_28,2022-05-02T09:52:55.778Z,,,,,,,,,,,,,,,,,53,,,,,,,,,,,,,,402.14000000001397,,response,,,,99,,,,,,,Space,keypress(Space),,,,,,,,---- -- ----- -- ------ - ------- --- ----------<br>------------- ------ ------ ---- ---- ------- ----- -- ----<br>-------- ------- -- ---------- --- - --- ----- ----- ----<br>it's --- --- ----- --- ---- ---- ------- ----- ---- -------<br>--- --- -- ----- -- --- ---- -- --- ---- -- ------ ------<br>--- ----- -- ----,131875,131870,131467.64,131467,131467.86,131874.98,,28,it's
screen,html.Screen,2_1_0_1_29,2022-05-02T09:52:56.125Z,,,,,,,,,,,,,,,,,53,,,,,,,,,,,,,,339.0199999999895,,response,,,,99,,,,,,,Space,keypress(Space),,,,,,,,---- -- ----- -- ------ - ------- --- ----------<br>------------- ------ ------ ---- ---- ------- ----- -- ----<br>-------- ------- -- ---------- --- - --- ----- ----- ----<br>---- not --- ----- --- ---- ---- ------- ----- ---- -------<br>--- --- -- ----- -- --- ---- -- --- ---- -- ------ ------<br>--- ----- -- ----,132221,132214,131874.78,131875,131874.98,132221.76,,29,not
screen,html.Screen,2_1_0_1_30,2022-05-02T09:52:56.553Z,,,,,,,,,,,,,,,,,53,,,,,,,,,,,,,,414.2399999999907,,response,,,,99,,,,,,,Space,keypress(Space),,,,,,,,---- -- ----- -- ------ - ------- --- ----------<br>------------- ------ ------ ---- ---- ------- ----- -- ----<br>-------- ------- -- ---------- --- - --- ----- ----- ----<br>---- --- how ----- --- ---- ---- ------- ----- ---- -------<br>--- --- -- ----- -- --- ---- -- --- ---- -- ------ ------<br>--- ----- -- ----,132649,132636,132221.56,132221,132221.76,132649.5,,30,how
screen,html.Screen,2_1_0_1_31,2022-05-02T09:52:56.836Z,,,,,,,,,,,,,,,,,53,,,,,,,,,,,,,,267.5,,response,,,,99,,,,,,,Space,keypress(Space),,,,,,,,---- -- ----- -- ------ - ------- --- ----------<br>------------- ------ ------ ---- ---- ------- ----- -- ----<br>-------- ------- -- ---------- --- - --- ----- ----- ----<br>---- --- --- close --- ---- ---- ------- ----- ---- -------<br>--- --- -- ----- -- --- ---- -- --- ---- -- ------ ------<br>--- ----- -- ----,132932,132917,132649.26,132649,132649.5,132932.82,,31,close
screen,html.Screen,2_1_0_1_32,2022-05-02T09:52:57.188Z,,,,,,,,,,,,,,,,,53,,,,,,,,,,,,,,343.179999999993,,response,,,,99,,,,,,,Space,keypress(Space),,,,,,,,---- -- ----- -- ------ - ------- --- ----------<br>------------- ------ ------ ---- ---- ------- ----- -- ----<br>-------- ------- -- ---------- --- - --- ----- ----- ----<br>---- --- --- ----- you ---- ---- ------- ----- ---- -------<br>--- --- -- ----- -- --- ---- -- --- ---- -- ------ ------<br>--- ----- -- ----,133284,133276,132932.62,132933,132932.82,133284.42,,32,you
screen,html.Screen,2_1_0_1_33,2022-05-02T09:52:57.635Z,,,,,,,,,,,,,,,,,53,,,,,,,,,,,,,,444.5799999999872,,response,,,,99,,,,,,,Space,keypress(Space),,,,,,,,---- -- ----- -- ------ - ------- --- ----------<br>------------- ------ ------ ---- ---- ------- ----- -- ----<br>-------- ------- -- ---------- --- - --- ----- ----- ----<br>---- --- --- ----- --- feel ---- ------- ----- ---- -------<br>--- --- -- ----- -- --- ---- -- --- ---- -- ------ ------<br>--- ----- -- ----,133731,133729,133284.22,133284,133284.42,133731.8,,33,feel
screen,html.Screen,2_1_0_1_34,2022-05-02T09:52:57.957Z,,,,,,,,,,,,,,,,,53,,,,,,,,,,,,,,310.20000000001164,,response,,,,99,,,,,,,Space,keypress(Space),,,,,,,,---- -- ----- -- ------ - ------- --- ----------<br>------------- ------ ------ ---- ---- ------- ----- -- ----<br>-------- ------- -- ---------- --- - --- ----- ----- ----<br>---- --- --- ----- --- ---- that ------- ----- ---- -------<br>--- --- -- ----- -- --- ---- -- --- ---- -- ------ ------<br>--- ----- -- ----,134053,134042,133731.58,133731,133731.8,134053.78,,34,that
screen,html.Screen,2_1_0_1_35,2022-05-02T09:52:58.433Z,,,,,,,,,,,,,,,,,53,,,,,,,,,,,,,,473.22000000000116,,response,,,,99,,,,,,,Space,keypress(Space),,,,,,,,---- -- ----- -- ------ - ------- --- ----------<br>------------- ------ ------ ---- ---- ------- ----- -- ----<br>-------- ------- -- ---------- --- - --- ----- ----- ----<br>---- --- --- ----- --- ---- ---- matters ----- ---- -------<br>--- --- -- ----- -- --- ---- -- --- ---- -- ------ ------<br>--- ----- -- ----,134529,134527,134053.64,134053,134053.78,134528.76,,35,matters
screen,html.Screen,2_1_0_1_36,2022-05-02T09:52:58.865Z,,,,,,,,,,,,,,,,,53,,,,,,,,,,,,,,420.2399999999907,,response,,,,99,,,,,,,Space,keypress(Space),,,,,,,,"---- -- ----- -- ------ - ------- --- ----------<br>------------- ------ ------ ---- ---- ------- ----- -- ----<br>-------- ------- -- ---------- --- - --- ----- ----- ----<br>---- --- --- ----- --- ---- ---- ------- most, ---- -------<br>--- --- -- ----- -- --- ---- -- --- ---- -- ------ ------<br>--- ----- -- ----",134961,134949,134528.54,134529,134528.76,134961.22,,36,"most,"
screen,html.Screen,2_1_0_1_37,2022-05-02T09:52:59.227Z,,,,,,,,,,,,,,,,,53,,,,,,,,,,,,,,346.77999999999884,,response,,,,99,,,,,,,Space,keypress(Space),,,,,,,,---- -- ----- -- ------ - ------- --- ----------<br>------------- ------ ------ ---- ---- ------- ----- -- ----<br>-------- ------- -- ---------- --- - --- ----- ----- ----<br>---- --- --- ----- --- ---- ---- ------- ----- it's -------<br>--- --- -- ----- -- --- ---- -- --- ---- -- ------ ------<br>--- ----- -- ----,135322,135308,134961.02,134961,134961.22,135322.84,,37,it's
screen,html.Screen,2_1_0_1_38,2022-05-02T09:52:59.658Z,,,,,,,,,,,,,,,,,53,,,,,,,,,,,,,,422.1600000000035,,response,,,,99,,,,,,,Space,keypress(Space),,,,,,,,---- -- ----- -- ------ - ------- --- ----------<br>------------- ------ ------ ---- ---- ------- ----- -- ----<br>-------- ------- -- ---------- --- - --- ----- ----- ----<br>---- --- --- ----- --- ---- ---- ------- ----- ---- whether<br>--- --- -- ----- -- --- ---- -- --- ---- -- ------ ------<br>--- ----- -- ----,135755,135745,135322.64,135322,135322.84,135755.26,,38,whether
screen,html.Screen,2_1_0_1_39,2022-05-02T09:53:00.047Z,,,,,,,,,,,,,,,,,53,,,,,,,,,,,,,,379.7399999999907,,response,,,,99,,,,,,,Space,keypress(Space),,,,,,,,---- -- ----- -- ------ - ------- --- ----------<br>------------- ------ ------ ---- ---- ------- ----- -- ----<br>-------- ------- -- ---------- --- - --- ----- ----- ----<br>---- --- --- ----- --- ---- ---- ------- ----- ---- -------<br>you --- -- ----- -- --- ---- -- --- ---- -- ------ ------<br>--- ----- -- ----,136143,136135,135755,135755,135755.26,136143.08,,39,you
screen,html.Screen,2_1_0_1_40,2022-05-02T09:53:00.395Z,,,,,,,,,,,,,,,,,53,,,,,,,,,,,,,,335.9200000000128,,response,,,,99,,,,,,,Space,keypress(Space),,,,,,,,---- -- ----- -- ------ - ------- --- ----------<br>------------- ------ ------ ---- ---- ------- ----- -- ----<br>-------- ------- -- ---------- --- - --- ----- ----- ----<br>---- --- --- ----- --- ---- ---- ------- ----- ---- -------<br>--- are -- ----- -- --- ---- -- --- ---- -- ------ ------<br>--- ----- -- ----,136491,136479,136142.82,136143,136143.08,136491.32,,40,are
screen,html.Screen,2_1_0_1_41,2022-05-02T09:53:00.762Z,,,,,,,,,,,,,,,,,53,,,,,,,,,,,,,,362.679999999993,,response,,,,99,,,,,,,Space,keypress(Space),,,,,,,,---- -- ----- -- ------ - ------- --- ----------<br>------------- ------ ------ ---- ---- ------- ----- -- ----<br>-------- ------- -- ---------- --- - --- ----- ----- ----<br>---- --- --- ----- --- ---- ---- ------- ----- ---- -------<br>--- --- as ----- -- --- ---- -- --- ---- -- ------ ------<br>--- ----- -- ----,136859,136854,136491.08,136491,136491.32,136859.24,,41,as
screen,html.Screen,2_1_0_1_42,2022-05-02T09:53:01.189Z,,,,,,,,,,,,,,,,,53,,,,,,,,,,,,,,417.7600000000093,,response,,,,99,,,,,,,Space,keypress(Space),,,,,,,,---- -- ----- -- ------ - ------- --- ----------<br>------------- ------ ------ ---- ---- ------- ----- -- ----<br>-------- ------- -- ---------- --- - --- ----- ----- ----<br>---- --- --- ----- --- ---- ---- ------- ----- ---- -------<br>--- --- -- close -- --- ---- -- --- ---- -- ------ ------<br>--- ----- -- ----,137285,137277,136858.8,136859,136859.24,137285.12,,42,close
screen,html.Screen,2_1_0_1_43,2022-05-02T09:53:01.543Z,,,,,,,,,,,,,,,,,53,,,,,,,,,,,,,,349.88000000000466,,response,,,,99,,,,,,,Space,keypress(Space),,,,,,,,---- -- ----- -- ------ - ------- --- ----------<br>------------- ------ ------ ---- ---- ------- ----- -- ----<br>-------- ------- -- ---------- --- - --- ----- ----- ----<br>---- --- --- ----- --- ---- ---- ------- ----- ---- -------<br>--- --- -- ----- as --- ---- -- --- ---- -- ------ ------<br>--- ----- -- ----,137639,137635,137284.92,137285,137285.12,137639.38,,43,as
screen,html.Screen,2_1_0_1_44,2022-05-02T09:53:01.897Z,,,,,,,,,,,,,,,,,53,,,,,,,,,,,,,,339.61999999999534,,response,,,,99,,,,,,,Space,keypress(Space),,,,,,,,---- -- ----- -- ------ - ------- --- ----------<br>------------- ------ ------ ---- ---- ------- ----- -- ----<br>-------- ------- -- ---------- --- - --- ----- ----- ----<br>---- --- --- ----- --- ---- ---- ------- ----- ---- -------<br>--- --- -- ----- -- you ---- -- --- ---- -- ------ ------<br>--- ----- -- ----,137993,137979,137639.2,137639,137639.38,137993.78,,44,you
screen,html.Screen,2_1_0_1_45,2022-05-02T09:53:02.251Z,,,,,,,,,,,,,,,,,53,,,,,,,,,,,,,,346.22000000000116,,response,,,,99,,,,,,,Space,keypress(Space),,,,,,,,---- -- ----- -- ------ - ------- --- ----------<br>------------- ------ ------ ---- ---- ------- ----- -- ----<br>-------- ------- -- ---------- --- - --- ----- ----- ----<br>---- --- --- ----- --- ---- ---- ------- ----- ---- -------<br>--- --- -- ----- -- --- want -- --- ---- -- ------ ------<br>--- ----- -- ----,138347,138340,137993.52,137993,137993.78,138347.52,,45,want
screen,html.Screen,2_1_0_1_46,2022-05-02T09:53:02.556Z,,,,,,,,,,,,,,,,,53,,,,,,,,,,,,,,287.4800000000105,,response,,,,99,,,,,,,Space,keypress(Space),,,,,,,,---- -- ----- -- ------ - ------- --- ----------<br>------------- ------ ------ ---- ---- ------- ----- -- ----<br>-------- ------- -- ---------- --- - --- ----- ----- ----<br>---- --- --- ----- --- ---- ---- ------- ----- ---- -------<br>--- --- -- ----- -- --- ---- to --- ---- -- ------ ------<br>--- ----- -- ----,138653,138635,138347.32,138347,138347.52,138653.18,,46,to
screen,html.Screen,2_1_0_1_47,2022-05-02T09:53:02.880Z,,,,,,,,,,,,,,,,,53,,,,,,,,,,,,,,310.820000000007,,response,,,,99,,,,,,,Space,keypress(Space),,,,,,,,"---- -- ----- -- ------ - ------- --- ----------<br>------------- ------ ------ ---- ---- ------- ----- -- ----<br>-------- ------- -- ---------- --- - --- ----- ----- ----<br>---- --- --- ----- --- ---- ---- ------- ----- ---- -------<br>--- --- -- ----- -- --- ---- -- be, ---- -- ------ ------<br>--- ----- -- ----",138976,138964,138652.94,138653,138653.18,138976.4,,47,"be,"
screen,html.Screen,2_1_0_1_48,2022-05-02T09:53:03.249Z,,,,,,,,,,,,,,,,,53,,,,,,,,,,,,,,362.6000000000058,,response,,,,99,,,,,,,Space,keypress(Space),,,,,,,,---- -- ----- -- ------ - ------- --- ----------<br>------------- ------ ------ ---- ---- ------- ----- -- ----<br>-------- ------- -- ---------- --- - --- ----- ----- ----<br>---- --- --- ----- --- ---- ---- ------- ----- ---- -------<br>--- --- -- ----- -- --- ---- -- --- even -- ------ ------<br>--- ----- -- ----,139344,139339,138976.2,138976,138976.4,139344.96,,48,even
screen,html.Screen,2_1_0_1_49,2022-05-02T09:53:03.589Z,,,,,,,,,,,,,,,,,53,,,,,,,,,,,,,,337.04000000000815,,response,,,,99,,,,,,,Space,keypress(Space),,,,,,,,---- -- ----- -- ------ - ------- --- ----------<br>------------- ------ ------ ---- ---- ------- ----- -- ----<br>-------- ------- -- ---------- --- - --- ----- ----- ----<br>---- --- --- ----- --- ---- ---- ------- ----- ---- -------<br>--- --- -- ----- -- --- ---- -- --- ---- if ------ ------<br>--- ----- -- ----,139685,139682,139344.76,139345,139344.96,139685.28,,49,if
screen,html.Screen,2_1_0_1_50,2022-05-02T09:53:03.897Z,,,,,,,,,,,,,,,,,53,,,,,,,,,,,,,,294.72000000000116,,response,,,,99,,,,,,,Space,keypress(Space),,,,,,,,---- -- ----- -- ------ - ------- --- ----------<br>------------- ------ ------ ---- ---- ------- ----- -- ----<br>-------- ------- -- ---------- --- - --- ----- ----- ----<br>---- --- --- ----- --- ---- ---- ------- ----- ---- -------<br>--- --- -- ----- -- --- ---- -- --- ---- -- that's ------<br>--- ----- -- ----,139993,139980,139685.06,139685,139685.28,139993.78,,50,that's
screen,html.Screen,2_1_0_1_51,2022-05-02T09:53:04.221Z,,,,,,,,,,,,,,,,,53,,,,,,,,,,,,,,314.22000000000116,,response,,,,99,,,,,,,Space,keypress(Space),,,,,,,,---- -- ----- -- ------ - ------- --- ----------<br>------------- ------ ------ ---- ---- ------- ----- -- ----<br>-------- ------- -- ---------- --- - --- ----- ----- ----<br>---- --- --- ----- --- ---- ---- ------- ----- ---- -------<br>--- --- -- ----- -- --- ---- -- --- ---- -- ------ really<br>--- ----- -- ----,140317,140308,139993.56,139994,139993.78,140317.66,,51,really
screen,html.Screen,2_1_0_1_52,2022-05-02T09:53:04.573Z,,,,,,,,,,,,,,,,,53,,,,,,,,,,,,,,349.3399999999965,,response,,,,99,,,,,,,Space,keypress(Space),,,,,,,,---- -- ----- -- ------ - ------- --- ----------<br>------------- ------ ------ ---- ---- ------- ----- -- ----<br>-------- ------- -- ---------- --- - --- ----- ----- ----<br>---- --- --- ----- --- ---- ---- ------- ----- ---- -------<br>--- --- -- ----- -- --- ---- -- --- ---- -- ------ ------<br>not ----- -- ----,140669,140667,140317.44,140317,140317.66,140669.38,,52,not
screen,html.Screen,2_1_0_1_53,2022-05-02T09:53:04.864Z,,,,,,,,,,,,,,,,,53,,,,,,,,,,,,,,279.61999999999534,,response,,,,99,,,,,,,Space,keypress(Space),,,,,,,,---- -- ----- -- ------ - ------- --- ----------<br>------------- ------ ------ ---- ---- ------- ----- -- ----<br>-------- ------- -- ---------- --- - --- ----- ----- ----<br>---- --- --- ----- --- ---- ---- ------- ----- ---- -------<br>--- --- -- ----- -- --- ---- -- --- ---- -- ------ ------<br>--- close -- ----,140960,140949,140669.16,140669,140669.38,140960.78,,53,close
screen,html.Screen,2_1_0_1_54,2022-05-02T09:53:05.189Z,,,,,,,,,,,,,,,,,53,,,,,,,,,,,,,,316.22000000000116,,response,,,,99,,,,,,,Space,keypress(Space),,,,,,,,---- -- ----- -- ------ - ------- --- ----------<br>------------- ------ ------ ---- ---- ------- ----- -- ----<br>-------- ------- -- ---------- --- - --- ----- ----- ----<br>---- --- --- ----- --- ---- ---- ------- ----- ---- -------<br>--- --- -- ----- -- --- ---- -- --- ---- -- ------ ------<br>--- ----- at ----,141286,141277,140960.58,140960,140960.78,141286.36,,54,at
screen,html.Screen,2_1_0_1_55,2022-05-02T09:53:05.562Z,,,,,,,,,,,,,,,,,53,,,,,,,,,,,,,,364.64000000001397,,response,,,,99,,,,,,,Space,keypress(Space),,,,,,,,---- -- ----- -- ------ - ------- --- ----------<br>------------- ------ ------ ---- ---- ------- ----- -- ----<br>-------- ------- -- ---------- --- - --- ----- ----- ----<br>---- --- --- ----- --- ---- ---- ------- ----- ---- -------<br>--- --- -- ----- -- --- ---- -- --- ---- -- ------ ------<br>--- ----- -- all.,141658,141651,141286.14,141286,141286.36,141661.18,,55,all.
Item 99,flow.Loop,2_1_0_1,2022-05-02T09:53:05.562Z,,,,,,,,,,,,,,,,,,,,,,,,,,,,,,,22684.259999999995,,completion,,,,,E,,,,,,,,,,,silence,,,,,141658,141651,118962.62,118964,118966.74,141661.18,,,
Question 1,html.Screen,2_1_0_2,2022-05-02T09:53:12.447Z,,,,,,,,,,,,,,,,,,,,,,,,,,,,true,FALSE,,6864.820000000007,,response,,,,99,E,,,,,,FALSE,click #choice-2,,,,silence,,,,,148543,148526,141658.52,141658,141661.18,148549.2,,,
Question 2,html.Screen,2_1_0_3,2022-05-02T09:53:16.448Z,,,,,,,,,,,,,,,,,,,,,,,,,,,,true,TRUE,,3977.7999999999884,,response,,,,99,E,,,,,,TRUE,click #choice-1,,,,silence,,,,,152544,152527,148543.08,148544,148549.2,152546.9,,,
Item 99,flow.Sequence,2_1_0,2022-05-02T09:53:16.448Z,,,,,,,,,,,,,,,,,,,,,,,,,,,,,,,43561.92,,completion,,,,,,,,,,,,,,,,,,,,,152544,152527,108960.16,108963,108965.08,152546.9,,,
Holding screen,html.Screen,2_1_1_0,2022-05-02T09:53:26.448Z,,,,,,,,,,,,,,,,,,,,,,,,,,,,,,,10001.220000000001,,timeout,,,,,,,,,,,,,,,,,,,,,162545,162543.94,152543.18,152544,152546.9,162548.12,,,
screen,html.Screen,2_1_1_1_0,2022-05-02T09:53:27.382Z,,,,,,,,,,,,,,,,,54,,,,,,,,,,,,,,916.8800000000047,,response,,,,100,,,,,,,Space,keypress(Space),,,,,,,,At --- ---- --- ------ ----- ------- ---- -- --- ------- --<br>------- ---------- ------ -- ----- -- ----- -- ---- ------<br>--- ----- --- --- ------ -------- ----- --- ------ ----- --<br>----- ----- ---------- --- --- ------ ------ ---- -- ------<br>------- --- ------ ----- --- ---- ------- -- ---- --- --<br>------- ------,163478,163465,162543.94,162545,162548.12,163478.22,,0,At
screen,html.Screen,2_1_1_1_1,2022-05-02T09:53:27.958Z,,,,,,,,,,,,,,,,,54,,,,,,,,,,,,,,563.7799999999988,,response,,,,100,,,,,,,Space,keypress(Space),,,,,,,,-- the ---- --- ------ ----- ------- ---- -- --- ------- --<br>------- ---------- ------ -- ----- -- ----- -- ---- ------<br>--- ----- --- --- ------ -------- ----- --- ------ ----- --<br>----- ----- ---------- --- --- ------ ------ ---- -- ------<br>------- --- ------ ----- --- ---- ------- -- ---- --- --<br>------- ------,164054,164042,163477.96,163478,163478.22,164054.76,,1,the
screen,html.Screen,2_1_1_1_2,2022-05-02T09:53:28.411Z,,,,,,,,,,,,,,,,,54,,,,,,,,,,,,,,441.2399999999907,,response,,,,100,,,,,,,Space,keypress(Space),,,,,,,,-- --- time --- ------ ----- ------- ---- -- --- ------- --<br>------- ---------- ------ -- ----- -- ----- -- ---- ------<br>--- ----- --- --- ------ -------- ----- --- ------ ----- --<br>----- ----- ---------- --- --- ------ ------ ---- -- ------<br>------- --- ------ ----- --- ---- ------- -- ---- --- --<br>------- ------,164507,164496,164054.6,164054,164054.76,164507.36,,2,time
screen,html.Screen,2_1_1_1_3,2022-05-02T09:53:28.793Z,,,,,,,,,,,,,,,,,54,,,,,,,,,,,,,,378.64000000001397,,response,,,,100,,,,,,,Space,keypress(Space),,,,,,,,-- --- ---- the ------ ----- ------- ---- -- --- ------- --<br>------- ---------- ------ -- ----- -- ----- -- ---- ------<br>--- ----- --- --- ------ -------- ----- --- ------ ----- --<br>----- ----- ---------- --- --- ------ ------ ---- -- ------<br>------- --- ------ ----- --- ---- ------- -- ---- --- --<br>------- ------,164888,164886,164507.1,164507,164507.36,164888.86,,3,the
screen,html.Screen,2_1_1_1_4,2022-05-02T09:53:29.187Z,,,,,,,,,,,,,,,,,54,,,,,,,,,,,,,,387.14000000001397,,response,,,,100,,,,,,,Space,keypress(Space),,,,,,,,-- --- ---- --- French ----- ------- ---- -- --- ------- --<br>------- ---------- ------ -- ----- -- ----- -- ---- ------<br>--- ----- --- --- ------ -------- ----- --- ------ ----- --<br>----- ----- ---------- --- --- ------ ------ ---- -- ------<br>------- --- ------ ----- --- ---- ------- -- ---- --- --<br>------- ------,165284,165276,164888.68,164888,164888.86,165283.68,,4,French
screen,html.Screen,2_1_1_1_5,2022-05-02T09:53:29.594Z,,,,,,,,,,,,,,,,,54,,,,,,,,,,,,,,398.320000000007,,response,,,,100,,,,,,,Space,keypress(Space),,,,,,,,-- --- ---- --- ------ crown ------- ---- -- --- ------- --<br>------- ---------- ------ -- ----- -- ----- -- ---- ------<br>--- ----- --- --- ------ -------- ----- --- ------ ----- --<br>----- ----- ---------- --- --- ------ ------ ---- -- ------<br>------- --- ------ ----- --- ---- ------- -- ---- --- --<br>------- ------,165690,165682,165283.46,165284,165283.68,165690.88,,5,crown
screen,html.Screen,2_1_1_1_6,2022-05-02T09:53:30.022Z,,,,,,,,,,,,,,,,,54,,,,,,,,,,,,,,414.11999999999534,,response,,,,100,,,,,,,Space,keypress(Space),,,,,,,,-- --- ---- --- ------ ----- secured ---- -- --- ------- --<br>------- ---------- ------ -- ----- -- ----- -- ---- ------<br>--- ----- --- --- ------ -------- ----- --- ------ ----- --<br>----- ----- ---------- --- --- ------ ------ ---- -- ------<br>------- --- ------ ----- --- ---- ------- -- ---- --- --<br>------- ------,166118,166105,165690.66,165691,165690.88,166118.24,,6,secured
screen,html.Screen,2_1_1_1_7,2022-05-02T09:53:30.459Z,,,,,,,,,,,,,,,,,54,,,,,,,,,,,,,,423.7600000000093,,response,,,,100,,,,,,,Space,keypress(Space),,,,,,,,-- --- ---- --- ------ ----- ------- much -- --- ------- --<br>------- ---------- ------ -- ----- -- ----- -- ---- ------<br>--- ----- --- --- ------ -------- ----- --- ------ ----- --<br>----- ----- ---------- --- --- ------ ------ ---- -- ------<br>------- --- ------ ----- --- ---- ------- -- ---- --- --<br>------- ------,166555,166542,166118.02,166118,166118.24,166555.76,,7,much
screen,html.Screen,2_1_1_1_8,2022-05-02T09:53:30.790Z,,,,,,,,,,,,,,,,,54,,,,,,,,,,,,,,315.2399999999907,,response,,,,100,,,,,,,Space,keypress(Space),,,,,,,,-- --- ---- --- ------ ----- ------- ---- of --- ------- --<br>------- ---------- ------ -- ----- -- ----- -- ---- ------<br>--- ----- --- --- ------ -------- ----- --- ------ ----- --<br>----- ----- ---------- --- --- ------ ------ ---- -- ------<br>------- --- ------ ----- --- ---- ------- -- ---- --- --<br>------- ------,166887,166871,166555.56,166555,166555.76,166887.72,,8,of
screen,html.Screen,2_1_1_1_9,2022-05-02T09:53:31.132Z,,,,,,,,,,,,,,,,,54,,,,,,,,,,,,,,327.27999999999884,,response,,,,100,,,,,,,Space,keypress(Space),,,,,,,,-- --- ---- --- ------ ----- ------- ---- -- its ------- --<br>------- ---------- ------ -- ----- -- ----- -- ---- ------<br>--- ----- --- --- ------ -------- ----- --- ------ ----- --<br>----- ----- ---------- --- --- ------ ------ ---- -- ------<br>------- --- ------ ----- --- ---- ------- -- ---- --- --<br>------- ------,167229,167215,166887.18,166887,166887.72,167228.94,,9,its
screen,html.Screen,2_1_1_1_10,2022-05-02T09:53:31.441Z,,,,,,,,,,,,,,,,,54,,,,,,,,,,,,,,298.0599999999977,,response,,,,100,,,,,,,Space,keypress(Space),,,,,,,,-- --- ---- --- ------ ----- ------- ---- -- --- revenue --<br>------- ---------- ------ -- ----- -- ----- -- ---- ------<br>--- ----- --- --- ------ -------- ----- --- ------ ----- --<br>----- ----- ---------- --- --- ------ ------ ---- -- ------<br>------- --- ------ ----- --- ---- ------- -- ---- --- --<br>------- ------,167537,167527,167228.78,167229,167228.94,167537.7,,10,revenue
screen,html.Screen,2_1_1_1_11,2022-05-02T09:53:31.843Z,,,,,,,,,,,,,,,,,54,,,,,,,,,,,,,,395.29999999998836,,response,,,,100,,,,,,,Space,keypress(Space),,,,,,,,-- --- ---- --- ------ ----- ------- ---- -- --- ------- by<br>------- ---------- ------ -- ----- -- ----- -- ---- ------<br>--- ----- --- --- ------ -------- ----- --- ------ ----- --<br>----- ----- ---------- --- --- ------ ------ ---- -- ------<br>------- --- ------ ----- --- ---- ------- -- ---- --- --<br>------- ------,167939,167933,167537.08,167537,167537.7,167939.36,,11,by
screen,html.Screen,2_1_1_1_12,2022-05-02T09:53:32.201Z,,,,,,,,,,,,,,,,,54,,,,,,,,,,,,,,353.64000000001397,,response,,,,100,,,,,,,Space,keypress(Space),,,,,,,,-- --- ---- --- ------ ----- ------- ---- -- --- ------- --<br>issuing ---------- ------ -- ----- -- ----- -- ---- ------<br>--- ----- --- --- ------ -------- ----- --- ------ ----- --<br>----- ----- ---------- --- --- ------ ------ ---- -- ------<br>------- --- ------ ----- --- ---- ------- -- ---- --- --<br>------- ------,168297,168293,167939.1,167939,167939.36,168297.9,,12,issuing
screen,html.Screen,2_1_1_1_13,2022-05-02T09:53:32.607Z,,,,,,,,,,,,,,,,,54,,,,,,,,,,,,,,400.1000000000058,,response,,,,100,,,,,,,Space,keypress(Space),,,,,,,,-- --- ---- --- ------ ----- ------- ---- -- --- ------- --<br>------- government ------ -- ----- -- ----- -- ---- ------<br>--- ----- --- --- ------ -------- ----- --- ------ ----- --<br>----- ----- ---------- --- --- ------ ------ ---- -- ------<br>------- --- ------ ----- --- ---- ------- -- ---- --- --<br>------- ------,168703,168698,168297.76,168297,168297.9,168703.1,,13,government
screen,html.Screen,2_1_1_1_14,2022-05-02T09:53:32.976Z,,,,,,,,,,,,,,,,,54,,,,,,,,,,,,,,354.8999999999942,,response,,,,100,,,,,,,Space,keypress(Space),,,,,,,,-- --- ---- --- ------ ----- ------- ---- -- --- ------- --<br>------- ---------- bonds. -- ----- -- ----- -- ---- ------<br>--- ----- --- --- ------ -------- ----- --- ------ ----- --<br>----- ----- ---------- --- --- ------ ------ ---- -- ------<br>------- --- ------ ----- --- ---- ------- -- ---- --- --<br>------- ------,169072,169058,168702.92,168703,168703.1,169072.14,,14,bonds.
screen,html.Screen,2_1_1_1_15,2022-05-02T09:53:33.690Z,,,,,,,,,,,,,,,,,54,,,,,,,,,,,,,,704.859999999986,,response,,,,100,,,,,,,Space,keypress(Space),,,,,,,,-- --- ---- --- ------ ----- ------- ---- -- --- ------- --<br>------- ---------- ------ In ----- -- ----- -- ---- ------<br>--- ----- --- --- ------ -------- ----- --- ------ ----- --<br>----- ----- ---------- --- --- ------ ------ ---- -- ------<br>------- --- ------ ----- --- ---- ------- -- ---- --- --<br>------- ------,169786,169777,169071.94,169072,169072.14,169786.44,,15,In
screen,html.Screen,2_1_1_1_16,2022-05-02T09:53:34.304Z,,,,,,,,,,,,,,,,,54,,,,,,,,,,,,,,598.5599999999977,,response,,,,100,,,,,,,Space,keypress(Space),,,,,,,,"-- --- ---- --- ------ ----- ------- ---- -- --- ------- --<br>------- ---------- ------ -- 1727, -- ----- -- ---- ------<br>--- ----- --- --- ------ -------- ----- --- ------ ----- --<br>----- ----- ---------- --- --- ------ ------ ---- -- ------<br>------- --- ------ ----- --- ---- ------- -- ---- --- --<br>------- ------",170400,170385,169786.3,169787,169786.44,170400.4,,16,"1727,"
screen,html.Screen,2_1_1_1_17,2022-05-02T09:53:35.001Z,,,,,,,,,,,,,,,,,54,,,,,,,,,,,,,,689.6000000000058,,response,,,,100,,,,,,,Space,keypress(Space),,,,,,,,-- --- ---- --- ------ ----- ------- ---- -- --- ------- --<br>------- ---------- ------ -- ----- in ----- -- ---- ------<br>--- ----- --- --- ------ -------- ----- --- ------ ----- --<br>----- ----- ---------- --- --- ------ ------ ---- -- ------<br>------- --- ------ ----- --- ---- ------- -- ---- --- --<br>------- ------,171098,171090,170400.16,170400,170400.4,171098.28,,17,in
screen,html.Screen,2_1_1_1_18,2022-05-02T09:53:35.554Z,,,,,,,,,,,,,,,,,54,,,,,,,,,,,,,,537.7200000000012,,response,,,,100,,,,,,,Space,keypress(Space),,,,,,,,-- --- ---- --- ------ ----- ------- ---- -- --- ------- --<br>------- ---------- ------ -- ----- -- order -- ---- ------<br>--- ----- --- --- ------ -------- ----- --- ------ ----- --<br>----- ----- ---------- --- --- ------ ------ ---- -- ------<br>------- --- ------ ----- --- ---- ------- -- ---- --- --<br>------- ------,171650,171636,171098.06,171098,171098.28,171650.38,,18,order
screen,html.Screen,2_1_1_1_19,2022-05-02T09:53:35.915Z,,,,,,,,,,,,,,,,,54,,,,,,,,,,,,,,345.61999999999534,,response,,,,100,,,,,,,Space,keypress(Space),,,,,,,,-- --- ---- --- ------ ----- ------- ---- -- --- ------- --<br>------- ---------- ------ -- ----- -- ----- to ---- ------<br>--- ----- --- --- ------ -------- ----- --- ------ ----- --<br>----- ----- ---------- --- --- ------ ------ ---- -- ------<br>------- --- ------ ----- --- ---- ------- -- ---- --- --<br>------- ------,172011,171996,171650.16,171650,171650.38,172011.64,,19,to
screen,html.Screen,2_1_1_1_20,2022-05-02T09:53:36.316Z,,,,,,,,,,,,,,,,,54,,,,,,,,,,,,,,389.35999999998603,,response,,,,100,,,,,,,Space,keypress(Space),,,,,,,,-- --- ---- --- ------ ----- ------- ---- -- --- ------- --<br>------- ---------- ------ -- ----- -- ----- -- save ------<br>--- ----- --- --- ------ -------- ----- --- ------ ----- --<br>----- ----- ---------- --- --- ------ ------ ---- -- ------<br>------- --- ------ ----- --- ---- ------- -- ---- --- --<br>------- ------,172413,172401,172011.42,172011,172011.64,172413.08,,20,save
screen,html.Screen,2_1_1_1_21,2022-05-02T09:53:36.668Z,,,,,,,,,,,,,,,,,54,,,,,,,,,,,,,,346.9200000000128,,response,,,,100,,,,,,,Space,keypress(Space),,,,,,,,"-- --- ---- --- ------ ----- ------- ---- -- --- ------- --<br>------- ---------- ------ -- ----- -- ----- -- ---- money,<br>--- ----- --- --- ------ -------- ----- --- ------ ----- --<br>----- ----- ---------- --- --- ------ ------ ---- -- ------<br>------- --- ------ ----- --- ---- ------- -- ---- --- --<br>------- ------",172765,172760,172412.96,172413,172413.08,172765.38,,21,"money,"
screen,html.Screen,2_1_1_1_22,2022-05-02T09:53:37.077Z,,,,,,,,,,,,,,,,,54,,,,,,,,,,,,,,402.61999999999534,,response,,,,100,,,,,,,Space,keypress(Space),,,,,,,,-- --- ---- --- ------ ----- ------- ---- -- --- ------- --<br>------- ---------- ------ -- ----- -- ----- -- ---- ------<br>the ----- --- --- ------ -------- ----- --- ------ ----- --<br>----- ----- ---------- --- --- ------ ------ ---- -- ------<br>------- --- ------ ----- --- ---- ------- -- ---- --- --<br>------- ------,173174,173168,172765.12,172765,172765.38,173173.72,,22,the
screen,html.Screen,2_1_1_1_23,2022-05-02T09:53:37.512Z,,,,,,,,,,,,,,,,,54,,,,,,,,,,,,,,430.27999999999884,,response,,,,100,,,,,,,Space,keypress(Space),,,,,,,,-- --- ---- --- ------ ----- ------- ---- -- --- ------- --<br>------- ---------- ------ -- ----- -- ----- -- ---- ------<br>--- state --- --- ------ -------- ----- --- ------ ----- --<br>----- ----- ---------- --- --- ------ ------ ---- -- ------<br>------- --- ------ ----- --- ---- ------- -- ---- --- --<br>------- ------,173608,173604,173173.56,173174,173173.72,173608.34,,23,state
screen,html.Screen,2_1_1_1_24,2022-05-02T09:53:37.915Z,,,,,,,,,,,,,,,,,54,,,,,,,,,,,,,,386.6600000000035,,response,,,,100,,,,,,,Space,keypress(Space),,,,,,,,-- --- ---- --- ------ ----- ------- ---- -- --- ------- --<br>------- ---------- ------ -- ----- -- ----- -- ---- ------<br>--- ----- cut --- ------ -------- ----- --- ------ ----- --<br>----- ----- ---------- --- --- ------ ------ ---- -- ------<br>------- --- ------ ----- --- ---- ------- -- ---- --- --<br>------- ------,174011,173995,173608.2,173609,173608.34,174011.48,,24,cut
screen,html.Screen,2_1_1_1_25,2022-05-02T09:53:38.328Z,,,,,,,,,,,,,,,,,54,,,,,,,,,,,,,,405.5199999999895,,response,,,,100,,,,,,,Space,keypress(Space),,,,,,,,-- --- ---- --- ------ ----- ------- ---- -- --- ------- --<br>------- ---------- ------ -- ----- -- ----- -- ---- ------<br>--- ----- --- the ------ -------- ----- --- ------ ----- --<br>----- ----- ---------- --- --- ------ ------ ---- -- ------<br>------- --- ------ ----- --- ---- ------- -- ---- --- --<br>------- ------,174425,174417,174011.3,174011,174011.48,174424.7,,25,the
screen,html.Screen,2_1_1_1_26,2022-05-02T09:53:38.763Z,,,,,,,,,,,,,,,,,54,,,,,,,,,,,,,,429.29999999998836,,response,,,,100,,,,,,,Space,keypress(Space),,,,,,,,-- --- ---- --- ------ ----- ------- ---- -- --- ------- --<br>------- ---------- ------ -- ----- -- ----- -- ---- ------<br>--- ----- --- --- bonds' -------- ----- --- ------ ----- --<br>----- ----- ---------- --- --- ------ ------ ---- -- ------<br>------- --- ------ ----- --- ---- ------- -- ---- --- --<br>------- ------,174859,174854,174424.48,174425,174424.7,174859.96,,26,bonds'
screen,html.Screen,2_1_1_1_27,2022-05-02T09:53:39.238Z,,,,,,,,,,,,,,,,,54,,,,,,,,,,,,,,464.04000000000815,,response,,,,100,,,,,,,Space,keypress(Space),,,,,,,,-- --- ---- --- ------ ----- ------- ---- -- --- ------- --<br>------- ---------- ------ -- ----- -- ----- -- ---- ------<br>--- ----- --- --- ------ interest ----- --- ------ ----- --<br>----- ----- ---------- --- --- ------ ------ ---- -- ------<br>------- --- ------ ----- --- ---- ------- -- ---- --- --<br>------- ------,175334,175324,174859.76,174859,174859.96,175334.82,,27,interest
screen,html.Screen,2_1_1_1_28,2022-05-02T09:53:39.633Z,,,,,,,,,,,,,,,,,54,,,,,,,,,,,,,,379.179999999993,,response,,,,100,,,,,,,Space,keypress(Space),,,,,,,,-- --- ---- --- ------ ----- ------- ---- -- --- ------- --<br>------- ---------- ------ -- ----- -- ----- -- ---- ------<br>--- ----- --- --- ------ -------- rate. --- ------ ----- --<br>----- ----- ---------- --- --- ------ ------ ---- -- ------<br>------- --- ------ ----- --- ---- ------- -- ---- --- --<br>------- ------,175729,175714,175334.62,175334,175334.82,175729.58,,28,rate.
screen,html.Screen,2_1_1_1_29,2022-05-02T09:53:40.066Z,,,,,,,,,,,,,,,,,54,,,,,,,,,,,,,,422.4200000000128,,response,,,,100,,,,,,,Space,keypress(Space),,,,,,,,-- --- ---- --- ------ ----- ------- ---- -- --- ------- --<br>------- ---------- ------ -- ----- -- ----- -- ---- ------<br>--- ----- --- --- ------ -------- ----- The ------ ----- --<br>----- ----- ---------- --- --- ------ ------ ---- -- ------<br>------- --- ------ ----- --- ---- ------- -- ---- --- --<br>------- ------,176162,176152,175729.4,175730,175729.58,176162.08,,29,The
screen,html.Screen,2_1_1_1_30,2022-05-02T09:53:40.472Z,,,,,,,,,,,,,,,,,54,,,,,,,,,,,,,,395.9200000000128,,response,,,,100,,,,,,,Space,keypress(Space),,,,,,,,-- --- ---- --- ------ ----- ------- ---- -- --- ------- --<br>------- ---------- ------ -- ----- -- ----- -- ---- ------<br>--- ----- --- --- ------ -------- ----- --- market ----- --<br>----- ----- ---------- --- --- ------ ------ ---- -- ------<br>------- --- ------ ----- --- ---- ------- -- ---- --- --<br>------- ------,176569,176558,176161.9,176162,176162.08,176568.8,,30,market
screen,html.Screen,2_1_1_1_31,2022-05-02T09:53:40.819Z,,,,,,,,,,,,,,,,,54,,,,,,,,,,,,,,332.20000000001164,,response,,,,100,,,,,,,Space,keypress(Space),,,,,,,,-- --- ---- --- ------ ----- ------- ---- -- --- ------- --<br>------- ---------- ------ -- ----- -- ----- -- ---- ------<br>--- ----- --- --- ------ -------- ----- --- ------ value --<br>----- ----- ---------- --- --- ------ ------ ---- -- ------<br>------- --- ------ ----- --- ---- ------- -- ---- --- --<br>------- ------,176915,176901,176568.64,176569,176568.8,176915.7,,31,value
screen,html.Screen,2_1_1_1_32,2022-05-02T09:53:41.217Z,,,,,,,,,,,,,,,,,54,,,,,,,,,,,,,,392.29999999998836,,response,,,,100,,,,,,,Space,keypress(Space),,,,,,,,-- --- ---- --- ------ ----- ------- ---- -- --- ------- --<br>------- ---------- ------ -- ----- -- ----- -- ---- ------<br>--- ----- --- --- ------ -------- ----- --- ------ ----- of<br>----- ----- ---------- --- --- ------ ------ ---- -- ------<br>------- --- ------ ----- --- ---- ------- -- ---- --- --<br>------- ------,177313,177308,176915.52,176915,176915.7,177313.28,,32,of
screen,html.Screen,2_1_1_1_33,2022-05-02T09:53:41.581Z,,,,,,,,,,,,,,,,,54,,,,,,,,,,,,,,353.72000000000116,,response,,,,100,,,,,,,Space,keypress(Space),,,,,,,,-- --- ---- --- ------ ----- ------- ---- -- --- ------- --<br>------- ---------- ------ -- ----- -- ----- -- ---- ------<br>--- ----- --- --- ------ -------- ----- --- ------ ----- --<br>these ----- ---------- --- --- ------ ------ ---- -- ------<br>------- --- ------ ----- --- ---- ------- -- ---- --- --<br>------- ------,177676,177667,177312.86,177313,177313.28,177676.72,,33,these
screen,html.Screen,2_1_1_1_34,2022-05-02T09:53:41.996Z,,,,,,,,,,,,,,,,,54,,,,,,,,,,,,,,413.27999999999884,,response,,,,100,,,,,,,Space,keypress(Space),,,,,,,,-- --- ---- --- ------ ----- ------- ---- -- --- ------- --<br>------- ---------- ------ -- ----- -- ----- -- ---- ------<br>--- ----- --- --- ------ -------- ----- --- ------ ----- --<br>----- bonds ---------- --- --- ------ ------ ---- -- ------<br>------- --- ------ ----- --- ---- ------- -- ---- --- --<br>------- ------,178092,178090,177676.54,177677,177676.72,178092.14,,34,bonds
screen,html.Screen,2_1_1_1_35,2022-05-02T09:53:42.403Z,,,,,,,,,,,,,,,,,54,,,,,,,,,,,,,,403.85999999998603,,response,,,,100,,,,,,,Space,keypress(Space),,,,,,,,"-- --- ---- --- ------ ----- ------- ---- -- --- ------- --<br>------- ---------- ------ -- ----- -- ----- -- ---- ------<br>--- ----- --- --- ------ -------- ----- --- ------ ----- --<br>----- ----- plummeted, --- --- ------ ------ ---- -- ------<br>------- --- ------ ----- --- ---- ------- -- ---- --- --<br>------- ------",178499,178496,178091.98,178092,178092.14,178499.16,,35,"plummeted,"
screen,html.Screen,2_1_1_1_36,2022-05-02T09:53:42.858Z,,,,,,,,,,,,,,,,,54,,,,,,,,,,,,,,449.8399999999965,,response,,,,100,,,,,,,Space,keypress(Space),,,,,,,,-- --- ---- --- ------ ----- ------- ---- -- --- ------- --<br>------- ---------- ------ -- ----- -- ----- -- ---- ------<br>--- ----- --- --- ------ -------- ----- --- ------ ----- --<br>----- ----- ---------- and --- ------ ------ ---- -- ------<br>------- --- ------ ----- --- ---- ------- -- ---- --- --<br>------- ------,178954,178949,178498.92,178499,178499.16,178954.38,,36,and
screen,html.Screen,2_1_1_1_37,2022-05-02T09:53:43.298Z,,,,,,,,,,,,,,,,,54,,,,,,,,,,,,,,430.61999999999534,,response,,,,100,,,,,,,Space,keypress(Space),,,,,,,,-- --- ---- --- ------ ----- ------- ---- -- --- ------- --<br>------- ---------- ------ -- ----- -- ----- -- ---- ------<br>--- ----- --- --- ------ -------- ----- --- ------ ----- --<br>----- ----- ---------- --- the ------ ------ ---- -- ------<br>------- --- ------ ----- --- ---- ------- -- ---- --- --<br>------- ------,179394,179385,178954.18,178954,178954.38,179394.6,,37,the
screen,html.Screen,2_1_1_1_38,2022-05-02T09:53:43.679Z,,,,,,,,,,,,,,,,,54,,,,,,,,,,,,,,366.3999999999942,,response,,,,100,,,,,,,Space,keypress(Space),,,,,,,,-- --- ---- --- ------ ----- ------- ---- -- --- ------- --<br>------- ---------- ------ -- ----- -- ----- -- ---- ------<br>--- ----- --- --- ------ -------- ----- --- ------ ----- --<br>----- ----- ---------- --- --- market ------ ---- -- ------<br>------- --- ------ ----- --- ---- ------- -- ---- --- --<br>------- ------,179776,179761,179394.36,179394,179394.6,179776.32,,38,market
screen,html.Screen,2_1_1_1_39,2022-05-02T09:53:44.064Z,,,,,,,,,,,,,,,,,54,,,,,,,,,,,,,,374.679999999993,,response,,,,100,,,,,,,Space,keypress(Space),,,,,,,,-- --- ---- --- ------ ----- ------- ---- -- --- ------- --<br>------- ---------- ------ -- ----- -- ----- -- ---- ------<br>--- ----- --- --- ------ -------- ----- --- ------ ----- --<br>----- ----- ---------- --- --- ------ became ---- -- ------<br>------- --- ------ ----- --- ---- ------- -- ---- --- --<br>------- ------,180161,180151,179776.1,179776,179776.32,180160.88,,39,became
screen,html.Screen,2_1_1_1_40,2022-05-02T09:53:44.388Z,,,,,,,,,,,,,,,,,54,,,,,,,,,,,,,,319.11999999999534,,response,,,,100,,,,,,,Space,keypress(Space),,,,,,,,-- --- ---- --- ------ ----- ------- ---- -- --- ------- --<br>------- ---------- ------ -- ----- -- ----- -- ---- ------<br>--- ----- --- --- ------ -------- ----- --- ------ ----- --<br>----- ----- ---------- --- --- ------ ------ wary -- ------<br>------- --- ------ ----- --- ---- ------- -- ---- --- --<br>------- ------,180484,180480,180160.7,180161,180160.88,180484.64,,40,wary
screen,html.Screen,2_1_1_1_41,2022-05-02T09:53:44.714Z,,,,,,,,,,,,,,,,,54,,,,,,,,,,,,,,323.35999999998603,,response,,,,100,,,,,,,Space,keypress(Space),,,,,,,,-- --- ---- --- ------ ----- ------- ---- -- --- ------- --<br>------- ---------- ------ -- ----- -- ----- -- ---- ------<br>--- ----- --- --- ------ -------- ----- --- ------ ----- --<br>----- ----- ---------- --- --- ------ ------ ---- of ------<br>------- --- ------ ----- --- ---- ------- -- ---- --- --<br>------- ------,180810,180808,180484.44,180484,180484.64,180810.62,,41,of
screen,html.Screen,2_1_1_1_42,2022-05-02T09:53:45.054Z,,,,,,,,,,,,,,,,,54,,,,,,,,,,,,,,325.38000000000466,,response,,,,100,,,,,,,Space,keypress(Space),,,,,,,,-- --- ---- --- ------ ----- ------- ---- -- --- ------- --<br>------- ---------- ------ -- ----- -- ----- -- ---- ------<br>--- ----- --- --- ------ -------- ----- --- ------ ----- --<br>----- ----- ---------- --- --- ------ ------ ---- -- French<br>------- --- ------ ----- --- ---- ------- -- ---- --- --<br>------- ------,181149,181136,180810.44,180810,180810.62,181149.9,,42,French
screen,html.Screen,2_1_1_1_43,2022-05-02T09:53:45.405Z,,,,,,,,,,,,,,,,,54,,,,,,,,,,,,,,345.1000000000058,,response,,,,100,,,,,,,Space,keypress(Space),,,,,,,,-- --- ---- --- ------ ----- ------- ---- -- --- ------- --<br>------- ---------- ------ -- ----- -- ----- -- ---- ------<br>--- ----- --- --- ------ -------- ----- --- ------ ----- --<br>----- ----- ---------- --- --- ------ ------ ---- -- ------<br>credit. --- ------ ----- --- ---- ------- -- ---- --- --<br>------- ------,181501,181495,181149.68,181149,181149.9,181501.78,,43,credit.
screen,html.Screen,2_1_1_1_44,2022-05-02T09:53:45.819Z,,,,,,,,,,,,,,,,,54,,,,,,,,,,,,,,399.22000000000116,,response,,,,100,,,,,,,Space,keypress(Space),,,,,,,,-- --- ---- --- ------ ----- ------- ---- -- --- ------- --<br>------- ---------- ------ -- ----- -- ----- -- ---- ------<br>--- ----- --- --- ------ -------- ----- --- ------ ----- --<br>----- ----- ---------- --- --- ------ ------ ---- -- ------<br>------- The ------ ----- --- ---- ------- -- ---- --- --<br>------- ------,181915,181901,181501.52,181501,181501.78,181916.08,,44,The
screen,html.Screen,2_1_1_1_45,2022-05-02T09:53:46.202Z,,,,,,,,,,,,,,,,,54,,,,,,,,,,,,,,376.9200000000128,,response,,,,100,,,,,,,Space,keypress(Space),,,,,,,,-- --- ---- --- ------ ----- ------- ---- -- --- ------- --<br>------- ---------- ------ -- ----- -- ----- -- ---- ------<br>--- ----- --- --- ------ -------- ----- --- ------ ----- --<br>----- ----- ---------- --- --- ------ ------ ---- -- ------<br>------- --- French ----- --- ---- ------- -- ---- --- --<br>------- ------,182298,182293,181915.68,181916,181916.08,182298.02,,45,French
screen,html.Screen,2_1_1_1_46,2022-05-02T09:53:46.527Z,,,,,,,,,,,,,,,,,54,,,,,,,,,,,,,,322.9800000000105,,response,,,,100,,,,,,,Space,keypress(Space),,,,,,,,-- --- ---- --- ------ ----- ------- ---- -- --- ------- --<br>------- ---------- ------ -- ----- -- ----- -- ---- ------<br>--- ----- --- --- ------ -------- ----- --- ------ ----- --<br>----- ----- ---------- --- --- ------ ------ ---- -- ------<br>------- --- ------ state --- ---- ------- -- ---- --- --<br>------- ------,182623,182621,182297.76,182298,182298.02,182623.52,,46,state
screen,html.Screen,2_1_1_1_47,2022-05-02T09:53:46.879Z,,,,,,,,,,,,,,,,,54,,,,,,,,,,,,,,341.4800000000105,,response,,,,100,,,,,,,Space,keypress(Space),,,,,,,,-- --- ---- --- ------ ----- ------- ---- -- --- ------- --<br>------- ---------- ------ -- ----- -- ----- -- ---- ------<br>--- ----- --- --- ------ -------- ----- --- ------ ----- --<br>----- ----- ---------- --- --- ------ ------ ---- -- ------<br>------- --- ------ ----- was ---- ------- -- ---- --- --<br>------- ------,182975,182965,182623.36,182623,182623.52,182975.74,,47,was
screen,html.Screen,2_1_1_1_48,2022-05-02T09:53:47.213Z,,,,,,,,,,,,,,,,,54,,,,,,,,,,,,,,316.2600000000093,,response,,,,100,,,,,,,Space,keypress(Space),,,,,,,,-- --- ---- --- ------ ----- ------- ---- -- --- ------- --<br>------- ---------- ------ -- ----- -- ----- -- ---- ------<br>--- ----- --- --- ------ -------- ----- --- ------ ----- --<br>----- ----- ---------- --- --- ------ ------ ---- -- ------<br>------- --- ------ ----- --- left ------- -- ---- --- --<br>------- ------,183309,183292,182975.24,182975,182975.74,183309.5,,48,left
screen,html.Screen,2_1_1_1_49,2022-05-02T09:53:47.554Z,,,,,,,,,,,,,,,,,54,,,,,,,,,,,,,,326.5,,response,,,,100,,,,,,,Space,keypress(Space),,,,,,,,-- --- ---- --- ------ ----- ------- ---- -- --- ------- --<br>------- ---------- ------ -- ----- -- ----- -- ---- ------<br>--- ----- --- --- ------ -------- ----- --- ------ ----- --<br>----- ----- ---------- --- --- ------ ------ ---- -- ------<br>------- --- ------ ----- --- ---- without -- ---- --- --<br>------- ------,183651,183636,183309.28,183309,183309.5,183650.84,,49,without
screen,html.Screen,2_1_1_1_50,2022-05-02T09:53:47.912Z,,,,,,,,,,,,,,,,,54,,,,,,,,,,,,,,345.1600000000035,,response,,,,100,,,,,,,Space,keypress(Space),,,,,,,,-- --- ---- --- ------ ----- ------- ---- -- --- ------- --<br>------- ---------- ------ -- ----- -- ----- -- ---- ------<br>--- ----- --- --- ------ -------- ----- --- ------ ----- --<br>----- ----- ---------- --- --- ------ ------ ---- -- ------<br>------- --- ------ ----- --- ---- ------- an ---- --- --<br>------- ------,184008,183996,183650.58,183651,183650.84,184007.72,,50,an
screen,html.Screen,2_1_1_1_51,2022-05-02T09:53:48.222Z,,,,,,,,,,,,,,,,,54,,,,,,,,,,,,,,300.27999999999884,,response,,,,100,,,,,,,Space,keypress(Space),,,,,,,,-- --- ---- --- ------ ----- ------- ---- -- --- ------- --<br>------- ---------- ------ -- ----- -- ----- -- ---- ------<br>--- ----- --- --- ------ -------- ----- --- ------ ----- --<br>----- ----- ---------- --- --- ------ ------ ---- -- ------<br>------- --- ------ ----- --- ---- ------- -- easy --- --<br>------- ------,184319,184308,184007.52,184008,184007.72,184318.46,,51,easy
screen,html.Screen,2_1_1_1_52,2022-05-02T09:53:48.548Z,,,,,,,,,,,,,,,,,54,,,,,,,,,,,,,,316.54000000000815,,response,,,,100,,,,,,,Space,keypress(Space),,,,,,,,-- --- ---- --- ------ ----- ------- ---- -- --- ------- --<br>------- ---------- ------ -- ----- -- ----- -- ---- ------<br>--- ----- --- --- ------ -------- ----- --- ------ ----- --<br>----- ----- ---------- --- --- ------ ------ ---- -- ------<br>------- --- ------ ----- --- ---- ------- -- ---- way --<br>------- ------,184644,184635,184318.26,184319,184318.46,184644.94,,52,way
screen,html.Screen,2_1_1_1_53,2022-05-02T09:53:48.872Z,,,,,,,,,,,,,,,,,54,,,,,,,,,,,,,,320.0599999999977,,response,,,,100,,,,,,,Space,keypress(Space),,,,,,,,-- --- ---- --- ------ ----- ------- ---- -- --- ------- --<br>------- ---------- ------ -- ----- -- ----- -- ---- ------<br>--- ----- --- --- ------ -------- ----- --- ------ ----- --<br>----- ----- ---------- --- --- ------ ------ ---- -- ------<br>------- --- ------ ----- --- ---- ------- -- ---- --- of<br>------- ------,184968,184965,184644.74,184644,184644.94,184968.7,,53,of
screen,html.Screen,2_1_1_1_54,2022-05-02T09:53:49.201Z,,,,,,,,,,,,,,,,,54,,,,,,,,,,,,,,323.29999999998836,,response,,,,100,,,,,,,Space,keypress(Space),,,,,,,,-- --- ---- --- ------ ----- ------- ---- -- --- ------- --<br>------- ---------- ------ -- ----- -- ----- -- ---- ------<br>--- ----- --- --- ------ -------- ----- --- ------ ----- --<br>----- ----- ---------- --- --- ------ ------ ---- -- ------<br>------- --- ------ ----- --- ---- ------- -- ---- --- --<br>raising ------,185297,185292,184968.46,184968,184968.7,185297.84,,54,raising
screen,html.Screen,2_1_1_1_55,2022-05-02T09:53:49.702Z,,,,,,,,,,,,,,,,,54,,,,,,,,,,,,,,494.1600000000035,,response,,,,100,,,,,,,Space,keypress(Space),,,,,,,,-- --- ---- --- ------ ----- ------- ---- -- --- ------- --<br>------- ---------- ------ -- ----- -- ----- -- ---- ------<br>--- ----- --- --- ------ -------- ----- --- ------ ----- --<br>----- ----- ---------- --- --- ------ ------ ---- -- ------<br>------- --- ------ ----- --- ---- ------- -- ---- --- --<br>------- money.,185798,185792,185297.64,185297,185297.84,185801.22,,55,money.
Item 100,flow.Loop,2_1_1_1,2022-05-02T09:53:49.702Z,,,,,,,,,,,,,,,,,,,,,,,,,,,,,,,23243.880000000005,,completion,,,,,E,,,,,,,,,,,silence,,,,,185798,185792,162543.94,162545,162548.12,185801.22,,,
Question 1,html.Screen,2_1_1_2,2022-05-02T09:53:52.437Z,,,,,,,,,,,,,,,,,,,,,,,,,,,,true,TRUE,,2724.779999999999,,response,,,,100,E,,,,,,TRUE,click #choice-1,,,,silence,,,,,188534,188526,185798.36,185798,185801.22,188538.34,,,
Question 2,html.Screen,2_1_1_3,2022-05-02T09:53:54.692Z,,,,,,,,,,,,,,,,,,,,,,,,,,,,true,FALSE,,2238.6600000000035,,response,,,,100,E,,,,,,FALSE,click #choice-2,,,,silence,,,,,190788,190777,188533.14,188534,188538.34,190794.88,,,
Item 100,flow.Sequence,2_1_1,2022-05-02T09:53:54.692Z,,,,,,,,,,,,,,,,,,,,,,,,,,,,,,,38230.100000000006,,completion,,,,,,,,,,,,,,,,,,,,,190788,190777,152543.18,152544,152546.9,190794.88,,,
End of Practice,html.Page,2_1_2,2022-05-02T09:53:59.197Z,,,,,,,,,,,,,,,,,,,,,,,,,,,,,,,4498.119999999995,,form submission,,,,,,,,,,,,,,,,,,,,,195293,195293,190787.32,190788,190794.88,195296.28,,,
Practice,flow.Sequence,2_1,2022-05-02T09:53:59.198Z,,,,,,,,,,,,,,,,,,,,,,,,,,,,,,,86327.92,,completion,,,,,,,,,,,,,,,,,,,,,195293,195293,108960.16,108962,108965.08,195296.28,,,
Trap_instruction,html.Page,2_2_0,2022-05-02T09:54:03.145Z,,,,,,,,,,,,,,,,,,,,,,,,,,,,,,,3945.720000000001,,form submission,,,,,,,,,,,,,,,,,,,,,199242,199242,195291.46,195293,195296.28,199256.66,,,
trap_trial,html.Screen,2_2_1,2022-05-02T09:54:05.933Z,,,,,,,,,,,,,,,,,,,,,,,,,,,,true,1,,2770.3399999999965,,response,,,,,,,,,,,1,click #choice-1,,,,,,,,,202029,202027,199239.44,199242,199256.66,202033.26,,,
end of trap trial,html.Page,2_2_2,2022-05-02T09:54:07.034Z,,,,,,,,,,,,,,,,,,,,,,,,,,,,,,,1096.7399999999907,,form submission,,,,,,,,,,,,,,,,,,,,,203130,203130,202028.42,202029,202033.26,203129.04,,,
Trap 1,flow.Sequence,2_2,2022-05-02T09:54:07.034Z,,,,,,,,,,,,,,,,,,,,,,,,,,,,,,,7833.720000000001,,completion,,,,,,,,,,,,,,,,,,,,,203130,203130,195291.46,195293,195296.28,203129.04,,,
Standby,html.Page,2_3_0,2022-05-02T09:54:15.029Z,,,,,,,,,,,,,,,,,,,,,,,,,,,,,,,7999.899999999994,,timeout,,,,,,,,,,,,,,,,,,,,,211125,211124.8,203128.1,203130,203129.04,211128.94,,,
Holding screen,html.Screen,2_3_1_0_0,2022-05-02T09:54:22.030Z,,,,,,,,,,,,,,,,,,,,,,,,,,,,,,,7001.119999999995,,timeout,,,,,,,,,,,,,,,,,,,,,218126,218125.9,211124.8,211125,211128.94,218130.06,,,
screen,html.Screen,2_3_1_0_1_0,2022-05-02T09:54:22.799Z,,,,,,,,,,,,,,,,,12,,,,,,,,,,,,,,755.9400000000023,,response,,,,5,E,,,,,,Space,keypress(Space),,,,silence,,,,Some ------ ------ ------- ------ --- ------- -----------<br>-- ----- --- ---- -- --- ------ ---- - ---- -- ----------<br>-- ------ ---- --- ---- --- --- --- ----- -- -------- ---<br>------ ------- -------- --- ---- -- ------- ------------ --<br>------ -- ---- -- --- ---- -- -------- -- --- ------ ------,218895,218886,218125.9,218126,218130.06,218894.94,,0,Some
screen,html.Screen,2_3_1_0_1_1,2022-05-02T09:54:23.262Z,,,,,,,,,,,,,,,,,12,,,,,,,,,,,,,,460.0599999999977,,response,,,,5,E,,,,,,Space,keypress(Space),,,,silence,,,,---- months ------ ------- ------ --- ------- -----------<br>-- ----- --- ---- -- --- ------ ---- - ---- -- ----------<br>-- ------ ---- --- ---- --- --- --- ----- -- -------- ---<br>------ ------- -------- --- ---- -- ------- ------------ --<br>------ -- ---- -- --- ---- -- -------- -- --- ------ ------,219358,219355,218894.76,218895,218894.94,219357.88,,1,months
screen,html.Screen,2_3_1_0_1_2,2022-05-02T09:54:23.697Z,,,,,,,,,,,,,,,,,12,,,,,,,,,,,,,,419.11999999999534,,response,,,,5,E,,,,,,Space,keypress(Space),,,,silence,,,,"---- ------ later, ------- ------ --- ------- -----------<br>-- ----- --- ---- -- --- ------ ---- - ---- -- ----------<br>-- ------ ---- --- ---- --- --- --- ----- -- -------- ---<br>------ ------- -------- --- ---- -- ------- ------------ --<br>------ -- ---- -- --- ---- -- -------- -- --- ------ ------",219793,219777,219357.68,219358,219357.88,219793.28,,2,"later,"
screen,html.Screen,2_3_1_0_1_3,2022-05-02T09:54:24.304Z,,,,,,,,,,,,,,,,,12,,,,,,,,,,,,,,591.7200000000012,,response,,,,5,E,,,,,,Space,keypress(Space),,,,silence,,,,---- ------ ------ Michael ------ --- ------- -----------<br>-- ----- --- ---- -- --- ------ ---- - ---- -- ----------<br>-- ------ ---- --- ---- --- --- --- ----- -- -------- ---<br>------ ------- -------- --- ---- -- ------- ------------ --<br>------ -- ---- -- --- ---- -- -------- -- --- ------ ------,220400,220385,219793.14,219793,219793.28,220399.88,,3,Michael
screen,html.Screen,2_3_1_0_1_4,2022-05-02T09:54:24.938Z,,,,,,,,,,,,,,,,,12,,,,,,,,,,,,,,626.1199999999953,,response,,,,5,E,,,,,,Space,keypress(Space),,,,silence,,,,---- ------ ------ ------- Larson --- ------- -----------<br>-- ----- --- ---- -- --- ------ ---- - ---- -- ----------<br>-- ------ ---- --- ---- --- --- --- ----- -- -------- ---<br>------ ------- -------- --- ---- -- ------- ------------ --<br>------ -- ---- -- --- ---- -- -------- -- --- ------ ------,221035,221026,220399.74,220400,220399.88,221034.46,,4,Larson
screen,html.Screen,2_3_1_0_1_5,2022-05-02T09:54:25.431Z,,,,,,,,,,,,,,,,,12,,,,,,,,,,,,,,476.54000000000815,,response,,,,5,E,,,,,,Space,keypress(Space),,,,silence,,,,---- ------ ------ ------- ------ saw ------- -----------<br>-- ----- --- ---- -- --- ------ ---- - ---- -- ----------<br>-- ------ ---- --- ---- --- --- --- ----- -- -------- ---<br>------ ------- -------- --- ---- -- ------- ------------ --<br>------ -- ---- -- --- ---- -- -------- -- --- ------ ------,221527,221511,221034.28,221035,221034.46,221527.66,,5,saw
screen,html.Screen,2_3_1_0_1_6,2022-05-02T09:54:25.873Z,,,,,,,,,,,,,,,,,12,,,,,,,,,,,,,,437.3399999999965,,response,,,,5,E,,,,,,Space,keypress(Space),,,,silence,,,,---- ------ ------ ------- ------ --- another -----------<br>-- ----- --- ---- -- --- ------ ---- - ---- -- ----------<br>-- ------ ---- --- ---- --- --- --- ----- -- -------- ---<br>------ ------- -------- --- ---- -- ------- ------------ --<br>------ -- ---- -- --- ---- -- -------- -- --- ------ ------,221970,221965,221527.46,221528,221527.66,221969.76,,6,another
screen,html.Screen,2_3_1_0_1_7,2022-05-02T09:54:26.541Z,,,,,,,,,,,,,,,,,12,,,,,,,,,,,,,,666.2399999999907,,response,,,,5,E,,,,,,Space,keypress(Space),,,,silence,,,,---- ------ ------ ------- ------ --- ------- opportunity<br>-- ----- --- ---- -- --- ------ ---- - ---- -- ----------<br>-- ------ ---- --- ---- --- --- --- ----- -- -------- ---<br>------ ------- -------- --- ---- -- ------- ------------ --<br>------ -- ---- -- --- ---- -- -------- -- --- ------ ------,222638,222636,221969.56,221970,221969.76,222637.82,,7,opportunity
screen,html.Screen,2_3_1_0_1_8,2022-05-02T09:54:27.347Z,,,,,,,,,,,,,,,,,12,,,,,,,,,,,,,,794.179999999993,,response,,,,5,E,,,,,,Space,keypress(Space),,,,silence,,,,---- ------ ------ ------- ------ --- ------- -----------<br>to ----- --- ---- -- --- ------ ---- - ---- -- ----------<br>-- ------ ---- --- ---- --- --- --- ----- -- -------- ---<br>------ ------- -------- --- ---- -- ------- ------------ --<br>------ -- ---- -- --- ---- -- -------- -- --- ------ ------,223444,223432,222637.7,222638,222637.82,223444.06,,8,to
screen,html.Screen,2_3_1_0_1_9,2022-05-02T09:54:27.793Z,,,,,,,,,,,,,,,,,12,,,,,,,,,,,,,,440.9400000000023,,response,,,,5,E,,,,,,Space,keypress(Space),,,,silence,,,,---- ------ ------ ------- ------ --- ------- -----------<br>-- stack --- ---- -- --- ------ ---- - ---- -- ----------<br>-- ------ ---- --- ---- --- --- --- ----- -- -------- ---<br>------ ------- -------- --- ---- -- ------- ------------ --<br>------ -- ---- -- --- ---- -- -------- -- --- ------ ------,223890,223885,223443.86,223444,223444.06,223889.8,,9,stack
screen,html.Screen,2_3_1_0_1_10,2022-05-02T09:54:28.233Z,,,,,,,,,,,,,,,,,12,,,,,,,,,,,,,,433.20000000001164,,response,,,,5,E,,,,,,Space,keypress(Space),,,,silence,,,,---- ------ ------ ------- ------ --- ------- -----------<br>-- ----- the ---- -- --- ------ ---- - ---- -- ----------<br>-- ------ ---- --- ---- --- --- --- ----- -- -------- ---<br>------ ------- -------- --- ---- -- ------- ------------ --<br>------ -- ---- -- --- ---- -- -------- -- --- ------ ------,224329,224323,223889.58,223890,223889.8,224329.38,,10,the
screen,html.Screen,2_3_1_0_1_11,2022-05-02T09:54:28.746Z,,,,,,,,,,,,,,,,,12,,,,,,,,,,,,,,510.61999999999534,,response,,,,5,E,,,,,,Space,keypress(Space),,,,silence,,,,---- ------ ------ ------- ------ --- ------- -----------<br>-- ----- --- odds -- --- ------ ---- - ---- -- ----------<br>-- ------ ---- --- ---- --- --- --- ----- -- -------- ---<br>------ ------- -------- --- ---- -- ------- ------------ --<br>------ -- ---- -- --- ---- -- -------- -- --- ------ ------,224842,224840,224329.14,224329,224329.38,224842.8,,11,odds
screen,html.Screen,2_3_1_0_1_12,2022-05-02T09:54:29.068Z,,,,,,,,,,,,,,,,,12,,,,,,,,,,,,,,309.20000000001164,,response,,,,5,E,,,,,,Space,keypress(Space),,,,silence,,,,---- ------ ------ ------- ------ --- ------- -----------<br>-- ----- --- ---- in --- ------ ---- - ---- -- ----------<br>-- ------ ---- --- ---- --- --- --- ----- -- -------- ---<br>------ ------- -------- --- ---- -- ------- ------------ --<br>------ -- ---- -- --- ---- -- -------- -- --- ------ ------,225163,225152,224842.56,224842,224842.8,225164.04,,12,in
screen,html.Screen,2_3_1_0_1_13,2022-05-02T09:54:29.429Z,,,,,,,,,,,,,,,,,12,,,,,,,,,,,,,,346.95999999999185,,response,,,,5,E,,,,,,Space,keypress(Space),,,,silence,,,,---- ------ ------ ------- ------ --- ------- -----------<br>-- ----- --- ---- -- his ------ ---- - ---- -- ----------<br>-- ------ ---- --- ---- --- --- --- ----- -- -------- ---<br>------ ------- -------- --- ---- -- ------- ------------ --<br>------ -- ---- -- --- ---- -- -------- -- --- ------ ------,225525,225511,225163.86,225163,225164.04,225525.9,,13,his
screen,html.Screen,2_3_1_0_1_14,2022-05-02T09:54:29.796Z,,,,,,,,,,,,,,,,,12,,,,,,,,,,,,,,359.1000000000058,,response,,,,5,E,,,,,,Space,keypress(Space),,,,silence,,,,---- ------ ------ ------- ------ --- ------- -----------<br>-- ----- --- ---- -- --- favour ---- - ---- -- ----------<br>-- ------ ---- --- ---- --- --- --- ----- -- -------- ---<br>------ ------- -------- --- ---- -- ------- ------------ --<br>------ -- ---- -- --- ---- -- -------- -- --- ------ ------,225892,225885,225525.7,225525,225525.9,225892.46,,14,favour
screen,html.Screen,2_3_1_0_1_15,2022-05-02T09:54:30.097Z,,,,,,,,,,,,,,,,,12,,,,,,,,,,,,,,289.54000000000815,,response,,,,5,E,,,,,,Space,keypress(Space),,,,silence,,,,---- ------ ------ ------- ------ --- ------- -----------<br>-- ----- --- ---- -- --- ------ with - ---- -- ----------<br>-- ------ ---- --- ---- --- --- --- ----- -- -------- ---<br>------ ------- -------- --- ---- -- ------- ------------ --<br>------ -- ---- -- --- ---- -- -------- -- --- ------ ------,226194,226182,225892.24,225892,225892.46,226194.26,,15,with
screen,html.Screen,2_3_1_0_1_16,2022-05-02T09:54:30.385Z,,,,,,,,,,,,,,,,,12,,,,,,,,,,,,,,270.7399999999907,,response,,,,5,E,,,,,,Space,keypress(Space),,,,silence,,,,---- ------ ------ ------- ------ --- ------- -----------<br>-- ----- --- ---- -- --- ------ ---- a ---- -- ----------<br>-- ------ ---- --- ---- --- --- --- ----- -- -------- ---<br>------ ------- -------- --- ---- -- ------- ------------ --<br>------ -- ---- -- --- ---- -- -------- -- --- ------ ------,226481,226465,226194.02,226194,226194.26,226481.24,,16,a
screen,html.Screen,2_3_1_0_1_17,2022-05-02T09:54:30.705Z,,,,,,,,,,,,,,,,,12,,,,,,,,,,,,,,310.7600000000093,,response,,,,5,E,,,,,,Space,keypress(Space),,,,silence,,,,---- ------ ------ ------- ------ --- ------- -----------<br>-- ----- --- ---- -- --- ------ ---- - dash -- ----------<br>-- ------ ---- --- ---- --- --- --- ----- -- -------- ---<br>------ ------- -------- --- ---- -- ------- ------------ --<br>------ -- ---- -- --- ---- -- -------- -- --- ------ ------,226801,226792,226481.1,226481,226481.24,226801.54,,17,dash
screen,html.Screen,2_3_1_0_1_18,2022-05-02T09:54:30.992Z,,,,,,,,,,,,,,,,,12,,,,,,,,,,,,,,272.45999999999185,,response,,,,5,E,,,,,,Space,keypress(Space),,,,silence,,,,---- ------ ------ ------- ------ --- ------- -----------<br>-- ----- --- ---- -- --- ------ ---- - ---- of ----------<br>-- ------ ---- --- ---- --- --- --- ----- -- -------- ---<br>------ ------- -------- --- ---- -- ------- ------------ --<br>------ -- ---- -- --- ---- -- -------- -- --- ------ ------,227088,227074,226801.4,226801,226801.54,227088.7,,18,of
screen,html.Screen,2_3_1_0_1_19,2022-05-02T09:54:31.346Z,,,,,,,,,,,,,,,,,12,,,,,,,,,,,,,,344.29999999998836,,response,,,,5,E,,,,,,Space,keypress(Space),,,,silence,,,,---- ------ ------ ------- ------ --- ------- -----------<br>-- ----- --- ---- -- --- ------ ---- - ---- -- ingenuity.<br>-- ------ ---- --- ---- --- --- --- ----- -- -------- ---<br>------ ------- -------- --- ---- -- ------- ------------ --<br>------ -- ---- -- --- ---- -- -------- -- --- ------ ------,227443,227433,227088.48,227088,227088.7,227443.42,,19,ingenuity.
screen,html.Screen,2_3_1_0_1_20,2022-05-02T09:54:31.880Z,,,,,,,,,,,,,,,,,12,,,,,,,,,,,,,,521.5799999999872,,response,,,,5,E,,,,,,Space,keypress(Space),,,,silence,,,,---- ------ ------ ------- ------ --- ------- -----------<br>-- ----- --- ---- -- --- ------ ---- - ---- -- ----------<br>He ------ ---- --- ---- --- --- --- ----- -- -------- ---<br>------ ------- -------- --- ---- -- ------- ------------ --<br>------ -- ---- -- --- ---- -- -------- -- --- ------ ------,227977,227965,227443.22,227443,227443.42,227976.82,,20,He
screen,html.Screen,2_3_1_0_1_21,2022-05-02T09:54:32.369Z,,,,,,,,,,,,,,,,,12,,,,,,,,,,,,,,472.179999999993,,response,,,,5,E,,,,,,Space,keypress(Space),,,,silence,,,,---- ------ ------ ------- ------ --- ------- -----------<br>-- ----- --- ---- -- --- ------ ---- - ---- -- ----------<br>-- walked ---- --- ---- --- --- --- ----- -- -------- ---<br>------ ------- -------- --- ---- -- ------- ------------ --<br>------ -- ---- -- --- ---- -- -------- -- --- ------ ------,228466,228449,227976.62,227977,227976.82,228465.36,,21,walked
screen,html.Screen,2_3_1_0_1_22,2022-05-02T09:54:32.766Z,,,,,,,,,,,,,,,,,12,,,,,,,,,,,,,,389.64000000001397,,response,,,,5,E,,,,,,Space,keypress(Space),,,,silence,,,,---- ------ ------ ------- ------ --- ------- -----------<br>-- ----- --- ---- -- --- ------ ---- - ---- -- ----------<br>-- ------ into --- ---- --- --- --- ----- -- -------- ---<br>------ ------- -------- --- ---- -- ------- ------------ --<br>------ -- ---- -- --- ---- -- -------- -- --- ------ ------,228862,228855,228465.26,228466,228465.36,228861.86,,22,into
screen,html.Screen,2_3_1_0_1_23,2022-05-02T09:54:33.024Z,,,,,,,,,,,,,,,,,12,,,,,,,,,,,,,,243.14000000001397,,response,,,,5,E,,,,,,Space,keypress(Space),,,,silence,,,,---- ------ ------ ------- ------ --- ------- -----------<br>-- ----- --- ---- -- --- ------ ---- - ---- -- ----------<br>-- ------ ---- his ---- --- --- --- ----- -- -------- ---<br>------ ------- -------- --- ---- -- ------- ------------ --<br>------ -- ---- -- --- ---- -- -------- -- --- ------ ------,229120,229105,228861.62,228862,228861.86,229120.36,,23,his
screen,html.Screen,2_3_1_0_1_24,2022-05-02T09:54:33.352Z,,,,,,,,,,,,,,,,,12,,,,,,,,,,,,,,311.64000000001397,,response,,,,5,E,,,,,,Space,keypress(Space),,,,silence,,,,---- ------ ------ ------- ------ --- ------- -----------<br>-- ----- --- ---- -- --- ------ ---- - ---- -- ----------<br>-- ------ ---- --- bank --- --- --- ----- -- -------- ---<br>------ ------- -------- --- ---- -- ------- ------------ --<br>------ -- ---- -- --- ---- -- -------- -- --- ------ ------,229448,229432,229120.2,229120,229120.36,229448.54,,24,bank
screen,html.Screen,2_3_1_0_1_25,2022-05-02T09:54:33.716Z,,,,,,,,,,,,,,,,,12,,,,,,,,,,,,,,359.45999999999185,,response,,,,5,E,,,,,,Space,keypress(Space),,,,silence,,,,---- ------ ------ ------- ------ --- ------- -----------<br>-- ----- --- ---- -- --- ------ ---- - ---- -- ----------<br>-- ------ ---- --- ---- one --- --- ----- -- -------- ---<br>------ ------- -------- --- ---- -- ------- ------------ --<br>------ -- ---- -- --- ---- -- -------- -- --- ------ ------,229812,229808,229448.32,229448,229448.54,229813.08,,25,one
screen,html.Screen,2_3_1_0_1_26,2022-05-02T09:54:34.005Z,,,,,,,,,,,,,,,,,12,,,,,,,,,,,,,,276.9200000000128,,response,,,,5,E,,,,,,Space,keypress(Space),,,,silence,,,,---- ------ ------ ------- ------ --- ------- -----------<br>-- ----- --- ---- -- --- ------ ---- - ---- -- ----------<br>-- ------ ---- --- ---- --- day --- ----- -- -------- ---<br>------ ------- -------- --- ---- -- ------- ------------ --<br>------ -- ---- -- --- ---- -- -------- -- --- ------ ------,230101,230090,229812.88,229812,229813.08,230101.02,,26,day
screen,html.Screen,2_3_1_0_1_27,2022-05-02T09:54:34.288Z,,,,,,,,,,,,,,,,,12,,,,,,,,,,,,,,268.9800000000105,,response,,,,5,E,,,,,,Space,keypress(Space),,,,silence,,,,---- ------ ------ ------- ------ --- ------- -----------<br>-- ----- --- ---- -- --- ------ ---- - ---- -- ----------<br>-- ------ ---- --- ---- --- --- and ----- -- -------- ---<br>------ ------- -------- --- ---- -- ------- ------------ --<br>------ -- ---- -- --- ---- -- -------- -- --- ------ ------,230385,230370,230100.84,230101,230101.02,230384.8,,27,and
screen,html.Screen,2_3_1_0_1_28,2022-05-02T09:54:34.592Z,,,,,,,,,,,,,,,,,12,,,,,,,,,,,,,,298.20000000001164,,response,,,,5,E,,,,,,Space,keypress(Space),,,,silence,,,,---- ------ ------ ------- ------ --- ------- -----------<br>-- ----- --- ---- -- --- ------ ---- - ---- -- ----------<br>-- ------ ---- --- ---- --- --- --- asked -- -------- ---<br>------ ------- -------- --- ---- -- ------- ------------ --<br>------ -- ---- -- --- ---- -- -------- -- --- ------ ------,230688,230683,230384.58,230385,230384.8,230688.44,,28,asked
screen,html.Screen,2_3_1_0_1_29,2022-05-02T09:54:34.888Z,,,,,,,,,,,,,,,,,12,,,,,,,,,,,,,,291.5599999999977,,response,,,,5,E,,,,,,Space,keypress(Space),,,,silence,,,,---- ------ ------ ------- ------ --- ------- -----------<br>-- ----- --- ---- -- --- ------ ---- - ---- -- ----------<br>-- ------ ---- --- ---- --- --- --- ----- to -------- ---<br>------ ------- -------- --- ---- -- ------- ------------ --<br>------ -- ---- -- --- ---- -- -------- -- --- ------ ------,230984,230980,230688.22,230688,230688.44,230984.1,,29,to
screen,html.Screen,2_3_1_0_1_30,2022-05-02T09:54:35.206Z,,,,,,,,,,,,,,,,,12,,,,,,,,,,,,,,307.8999999999942,,response,,,,5,E,,,,,,Space,keypress(Space),,,,silence,,,,---- ------ ------ ------- ------ --- ------- -----------<br>-- ----- --- ---- -- --- ------ ---- - ---- -- ----------<br>-- ------ ---- --- ---- --- --- --- ----- -- withdraw ---<br>------ ------- -------- --- ---- -- ------- ------------ --<br>------ -- ---- -- --- ---- -- -------- -- --- ------ ------,231302,231292,230984,230984,230984.1,231302.28,,30,withdraw
screen,html.Screen,2_3_1_0_1_31,2022-05-02T09:54:35.538Z,,,,,,,,,,,,,,,,,12,,,,,,,,,,,,,,318.72000000000116,,response,,,,5,E,,,,,,Space,keypress(Space),,,,silence,,,,---- ------ ------ ------- ------ --- ------- -----------<br>-- ----- --- ---- -- --- ------ ---- - ---- -- ----------<br>-- ------ ---- --- ---- --- --- --- ----- -- -------- his<br>------ ------- -------- --- ---- -- ------- ------------ --<br>------ -- ---- -- --- ---- -- -------- -- --- ------ ------,231634,231621,231302.16,231302,231302.28,231634.28,,31,his
screen,html.Screen,2_3_1_0_1_32,2022-05-02T09:54:35.903Z,,,,,,,,,,,,,,,,,12,,,,,,,,,,,,,,361.72000000000116,,response,,,,5,E,,,,,,Space,keypress(Space),,,,silence,,,,---- ------ ------ ------- ------ --- ------- -----------<br>-- ----- --- ---- -- --- ------ ---- - ---- -- ----------<br>-- ------ ---- --- ---- --- --- --- ----- -- -------- ---<br>entire ------- -------- --- ---- -- ------- ------------ --<br>------ -- ---- -- --- ---- -- -------- -- --- ------ ------,231999,231996,231634.06,231634,231634.28,231999.08,,32,entire
screen,html.Screen,2_3_1_0_1_33,2022-05-02T09:54:36.233Z,,,,,,,,,,,,,,,,,12,,,,,,,,,,,,,,323.9200000000128,,response,,,,5,E,,,,,,Space,keypress(Space),,,,silence,,,,---- ------ ------ ------- ------ --- ------- -----------<br>-- ----- --- ---- -- --- ------ ---- - ---- -- ----------<br>-- ------ ---- --- ---- --- --- --- ----- -- -------- ---<br>------ account -------- --- ---- -- ------- ------------ --<br>------ -- ---- -- --- ---- -- -------- -- --- ------ ------,232329,232323,231998.94,231999,231999.08,232330.06,,33,account
screen,html.Screen,2_3_1_0_1_34,2022-05-02T09:54:36.582Z,,,,,,,,,,,,,,,,,12,,,,,,,,,,,,,,336.9400000000023,,response,,,,5,E,,,,,,Space,keypress(Space),,,,silence,,,,"---- ------ ------ ------- ------ --- ------- -----------<br>-- ----- --- ---- -- --- ------ ---- - ---- -- ----------<br>-- ------ ---- --- ---- --- --- --- ----- -- -------- ---<br>------ ------- balance, --- ---- -- ------- ------------ --<br>------ -- ---- -- --- ---- -- -------- -- --- ------ ------",232679,232667,232329.88,232330,232330.06,232679.78,,34,"balance,"
screen,html.Screen,2_3_1_0_1_35,2022-05-02T09:54:36.992Z,,,,,,,,,,,,,,,,,12,,,,,,,,,,,,,,393.22000000000116,,response,,,,5,E,,,,,,Space,keypress(Space),,,,silence,,,,---- ------ ------ ------- ------ --- ------- -----------<br>-- ----- --- ---- -- --- ------ ---- - ---- -- ----------<br>-- ------ ---- --- ---- --- --- --- ----- -- -------- ---<br>------ ------- -------- but ---- -- ------- ------------ --<br>------ -- ---- -- --- ---- -- -------- -- --- ------ ------,233088,233073,232679.24,232679,232679.78,233088.62,,35,but
screen,html.Screen,2_3_1_0_1_36,2022-05-02T09:54:37.331Z,,,,,,,,,,,,,,,,,12,,,,,,,,,,,,,,328.38000000000466,,response,,,,5,E,,,,,,Space,keypress(Space),,,,silence,,,,---- ------ ------ ------- ------ --- ------- -----------<br>-- ----- --- ---- -- --- ------ ---- - ---- -- ----------<br>-- ------ ---- --- ---- --- --- --- ----- -- -------- ---<br>------ ------- -------- --- with -- ------- ------------ --<br>------ -- ---- -- --- ---- -- -------- -- --- ------ ------,233427,233417,233088.42,233088,233088.62,233427.42,,36,with
screen,html.Screen,2_3_1_0_1_37,2022-05-02T09:54:37.661Z,,,,,,,,,,,,,,,,,12,,,,,,,,,,,,,,317.5799999999872,,response,,,,5,E,,,,,,Space,keypress(Space),,,,silence,,,,---- ------ ------ ------- ------ --- ------- -----------<br>-- ----- --- ---- -- --- ------ ---- - ---- -- ----------<br>-- ------ ---- --- ---- --- --- --- ----- -- -------- ---<br>------ ------- -------- --- ---- an ------- ------------ --<br>------ -- ---- -- --- ---- -- -------- -- --- ------ ------,233757,233745,233427.28,233427,233427.42,233756.68,,37,an
screen,html.Screen,2_3_1_0_1_38,2022-05-02T09:54:37.959Z,,,,,,,,,,,,,,,,,12,,,,,,,,,,,,,,285.320000000007,,response,,,,5,E,,,,,,Space,keypress(Space),,,,silence,,,,---- ------ ------ ------- ------ --- ------- -----------<br>-- ----- --- ---- -- --- ------ ---- - ---- -- ----------<br>-- ------ ---- --- ---- --- --- --- ----- -- -------- ---<br>------ ------- -------- --- ---- -- unusual ------------ --<br>------ -- ---- -- --- ---- -- -------- -- --- ------ ------,234055,234042,233756.48,233757,233756.68,234054.92,,38,unusual
screen,html.Screen,2_3_1_0_1_39,2022-05-02T09:54:38.697Z,,,,,,,,,,,,,,,,,12,,,,,,,,,,,,,,721.0799999999872,,response,,,,5,E,,,,,,Space,keypress(Space),,,,silence,,,,---- ------ ------ ------- ------ --- ------- -----------<br>-- ----- --- ---- -- --- ------ ---- - ---- -- ----------<br>-- ------ ---- --- ---- --- --- --- ----- -- -------- ---<br>------ ------- -------- --- ---- -- ------- stipulation: --<br>------ -- ---- -- --- ---- -- -------- -- --- ------ ------,234793,234776,234054.72,234055,234054.92,234793.66,,39,stipulation:
screen,html.Screen,2_3_1_0_1_40,2022-05-02T09:54:39.072Z,,,,,,,,,,,,,,,,,12,,,,,,,,,,,,,,358.3399999999965,,response,,,,5,E,,,,,,Space,keypress(Space),,,,silence,,,,---- ------ ------ ------- ------ --- ------- -----------<br>-- ----- --- ---- -- --- ------ ---- - ---- -- ----------<br>-- ------ ---- --- ---- --- --- --- ----- -- -------- ---<br>------ ------- -------- --- ---- -- ------- ------------ He<br>------ -- ---- -- --- ---- -- -------- -- --- ------ ------,235168,235152,234793.48,234793,234793.66,235168.38,,40,He
screen,html.Screen,2_3_1_0_1_41,2022-05-02T09:54:39.438Z,,,,,,,,,,,,,,,,,12,,,,,,,,,,,,,,357.61999999999534,,response,,,,5,E,,,,,,Space,keypress(Space),,,,silence,,,,---- ------ ------ ------- ------ --- ------- -----------<br>-- ----- --- ---- -- --- ------ ---- - ---- -- ----------<br>-- ------ ---- --- ---- --- --- --- ----- -- -------- ---<br>------ ------- -------- --- ---- -- ------- ------------ --<br>wanted -- ---- -- --- ---- -- -------- -- --- ------ ------,235534,235526,235168.12,235168,235168.38,235534.24,,41,wanted
screen,html.Screen,2_3_1_0_1_42,2022-05-02T09:54:39.817Z,,,,,,,,,,,,,,,,,12,,,,,,,,,,,,,,366.7600000000093,,response,,,,5,E,,,,,,Space,keypress(Space),,,,silence,,,,---- ------ ------ ------- ------ --- ------- -----------<br>-- ----- --- ---- -- --- ------ ---- - ---- -- ----------<br>-- ------ ---- --- ---- --- --- --- ----- -- -------- ---<br>------ ------- -------- --- ---- -- ------- ------------ --<br>------ as ---- -- --- ---- -- -------- -- --- ------ ------,235914,235901,235534.08,235534,235534.24,235914,,42,as
screen,html.Screen,2_3_1_0_1_43,2022-05-02T09:54:40.210Z,,,,,,,,,,,,,,,,,12,,,,,,,,,,,,,,379,,response,,,,5,E,,,,,,Space,keypress(Space),,,,silence,,,,---- ------ ------ ------- ------ --- ------- -----------<br>-- ----- --- ---- -- --- ------ ---- - ---- -- ----------<br>-- ------ ---- --- ---- --- --- --- ----- -- -------- ---<br>------ ------- -------- --- ---- -- ------- ------------ --<br>------ -- much -- --- ---- -- -------- -- --- ------ ------,236306,236293,235913.82,235914,235914,236305.82,,43,much
screen,html.Screen,2_3_1_0_1_44,2022-05-02T09:54:40.549Z,,,,,,,,,,,,,,,,,12,,,,,,,,,,,,,,330.179999999993,,response,,,,5,E,,,,,,Space,keypress(Space),,,,silence,,,,---- ------ ------ ------- ------ --- ------- -----------<br>-- ----- --- ---- -- --- ------ ---- - ---- -- ----------<br>-- ------ ---- --- ---- --- --- --- ----- -- -------- ---<br>------ ------- -------- --- ---- -- ------- ------------ --<br>------ -- ---- of --- ---- -- -------- -- --- ------ ------,236645,236636,236305.58,236306,236305.82,236644.74,,44,of
screen,html.Screen,2_3_1_0_1_45,2022-05-02T09:54:40.773Z,,,,,,,,,,,,,,,,,12,,,,,,,,,,,,,,210.2600000000093,,response,,,,5,E,,,,,,Space,keypress(Space),,,,silence,,,,---- ------ ------ ------- ------ --- ------- -----------<br>-- ----- --- ---- -- --- ------ ---- - ---- -- ----------<br>-- ------ ---- --- ---- --- --- --- ----- -- -------- ---<br>------ ------- -------- --- ---- -- ------- ------------ --<br>------ -- ---- -- the ---- -- -------- -- --- ------ ------,236869,236855,236644.5,236645,236644.74,236869.74,,45,the
screen,html.Screen,2_3_1_0_1_46,2022-05-02T09:54:41.107Z,,,,,,,,,,,,,,,,,12,,,,,,,,,,,,,,328.2600000000093,,response,,,,5,E,,,,,,Space,keypress(Space),,,,silence,,,,---- ------ ------ ------- ------ --- ------- -----------<br>-- ----- --- ---- -- --- ------ ---- - ---- -- ----------<br>-- ------ ---- --- ---- --- --- --- ----- -- -------- ---<br>------ ------- -------- --- ---- -- ------- ------------ --<br>------ -- ---- -- --- cash -- -------- -- --- ------ ------,237203,237198,236869.5,236869,236869.74,237203.72,,46,cash
screen,html.Screen,2_3_1_0_1_47,2022-05-02T09:54:41.431Z,,,,,,,,,,,,,,,,,12,,,,,,,,,,,,,,307.27999999999884,,response,,,,5,E,,,,,,Space,keypress(Space),,,,silence,,,,---- ------ ------ ------- ------ --- ------- -----------<br>-- ----- --- ---- -- --- ------ ---- - ---- -- ----------<br>-- ------ ---- --- ---- --- --- --- ----- -- -------- ---<br>------ ------- -------- --- ---- -- ------- ------------ --<br>------ -- ---- -- --- ---- as -------- -- --- ------ ------,237527,237511,237203.52,237204,237203.72,237527.66,,47,as
screen,html.Screen,2_3_1_0_1_48,2022-05-02T09:54:41.760Z,,,,,,,,,,,,,,,,,12,,,,,,,,,,,,,,311.3399999999965,,response,,,,5,E,,,,,,Space,keypress(Space),,,,silence,,,,---- ------ ------ ------- ------ --- ------- -----------<br>-- ----- --- ---- -- --- ------ ---- - ---- -- ----------<br>-- ------ ---- --- ---- --- --- --- ----- -- -------- ---<br>------ ------- -------- --- ---- -- ------- ------------ --<br>------ -- ---- -- --- ---- -- possible -- --- ------ ------,237856,237839,237527.44,237528,237527.66,237856.48,,48,possible
screen,html.Screen,2_3_1_0_1_49,2022-05-02T09:54:42.089Z,,,,,,,,,,,,,,,,,12,,,,,,,,,,,,,,326.5199999999895,,response,,,,5,E,,,,,,Space,keypress(Space),,,,silence,,,,---- ------ ------ ------- ------ --- ------- -----------<br>-- ----- --- ---- -- --- ------ ---- - ---- -- ----------<br>-- ------ ---- --- ---- --- --- --- ----- -- -------- ---<br>------ ------- -------- --- ---- -- ------- ------------ --<br>------ -- ---- -- --- ---- -- -------- in --- ------ ------,238185,238183,237856.26,237856,237856.48,238186.14,,49,in
screen,html.Screen,2_3_1_0_1_50,2022-05-02T09:54:42.389Z,,,,,,,,,,,,,,,,,12,,,,,,,,,,,,,,293.85999999998603,,response,,,,5,E,,,,,,Space,keypress(Space),,,,silence,,,,---- ------ ------ ------- ------ --- ------- -----------<br>-- ----- --- ---- -- --- ------ ---- - ---- -- ----------<br>-- ------ ---- --- ---- --- --- --- ----- -- -------- ---<br>------ ------- -------- --- ---- -- ------- ------------ --<br>------ -- ---- -- --- ---- -- -------- -- one ------ ------,238486,238480,238185.4,238185,238186.14,238485.6,,50,one
screen,html.Screen,2_3_1_0_1_51,2022-05-02T09:54:42.741Z,,,,,,,,,,,,,,,,,12,,,,,,,,,,,,,,338.3999999999942,,response,,,,5,E,,,,,,Space,keypress(Space),,,,silence,,,,---- ------ ------ ------- ------ --- ------- -----------<br>-- ----- --- ---- -- --- ------ ---- - ---- -- ----------<br>-- ------ ---- --- ---- --- --- --- ----- -- -------- ---<br>------ ------- -------- --- ---- -- ------- ------------ --<br>------ -- ---- -- --- ---- -- -------- -- --- dollar ------,238837,238824,238485.44,238486,238485.6,238837.42,,51,dollar
screen,html.Screen,2_3_1_0_1_52,2022-05-02T09:54:43.234Z,,,,,,,,,,,,,,,,,12,,,,,,,,,,,,,,485.5799999999872,,response,,,,5,E,,,,,,Space,keypress(Space),,,,silence,,,,---- ------ ------ ------- ------ --- ------- -----------<br>-- ----- --- ---- -- --- ------ ---- - ---- -- ----------<br>-- ------ ---- --- ---- --- --- --- ----- -- -------- ---<br>------ ------- -------- --- ---- -- ------- ------------ --<br>------ -- ---- -- --- ---- -- -------- -- --- ------ notes.,239331,239323,238837.26,238837,238837.42,239331.32,,52,notes.
Item 5,flow.Loop,2_3_1_0_1,2022-05-02T09:54:43.234Z,,,,,,,,,,,,,,,,,,,,,,,,,,,,,,,21192.940000000002,,completion,,,,,,,,,,,,,,,,,,,,,239331,239323,218125.9,218126,218130.06,239331.32,,,
Question 1,html.Screen,2_3_1_0_2,2022-05-02T09:54:51.044Z,,,,,,,,,,,,,,,,,,,,,,,,,,,,true,TRUE,,7803.679999999993,,response,,,,5,E,,,,,,TRUE,click #choice-1,,,,silence,,,,,247140,247135,239330.68,239331,239331.32,247143.54,,,
Question 2,html.Screen,2_3_1_0_3,2022-05-02T09:54:55.491Z,,,,,,,,,,,,,,,,,,,,,,,,,,,,true,TRUE,,4430.459999999992,,response,,,,5,E,,,,,,TRUE,click #choice-1,,,,silence,,,,,251588,251574,247139.68,247140,247143.54,251592.12,,,
Item 5,flow.Sequence,2_3_1_0,2022-05-02T09:54:55.491Z,,,,,,,,,,,,,,,,,,,,,,,,,,,,,,,40445.06,,completion,,,,,,,,,,,,,,,,,,,,,251588,251574,211124.8,211125,211128.94,251592.12,,,
Holding screen,html.Screen,2_3_1_1_0,2022-05-02T09:55:02.493Z,,,,,,,,,,,,,,,,,,,,,,,,,,,,,,,7000.179999999993,,timeout,,,,,,,,,,,,,,,,,,,,,258589,258588.14,251587.22,251588,251592.12,258592.3,,,
screen,html.Screen,2_3_1_1_1_0,2022-05-02T09:55:03.236Z,,,,,,,,,,,,,,,,,2,,,,,,,,,,,,,,731.7000000000116,,response,,,,1,E,,,,,,Space,keypress(Space),,,,silence,,,,Two ---- ------ --- ------- ---------- ------- ----------<br>--- --------- --- ----------- ------- ----- ------- ---<br>--------- ---- -- --- ---- -- --------- -- ---- -------<br>-- --------- ------ --- ----- ------ ---- --- --------- --<br>------ - ---- -- --- ----------- ------- ---- ----- -----<br>--- -------- - ------ ---- -- ----- ---- --- --- -----------<br>-- -------,259332,259324,258588.14,258589,258592.3,259332.54,,0,Two
