sender,sender_type,sender_id,timestamp,meta,,Blues,Classical,Country,Dance,Electronic,Folk,Gospel,Hip-Hop,Jazz,Latin,Musical/Film,New-age,Pop,Prolific_id,Provo_ID,R&B,Rap,Reggae,Religious,Rock,Soul,Swing,Traditional,age,artist_name,correct,correctResponse,distraction,duration,education,ended_on,familiarity,gender,headphone_check_performance,item,list,music_frequency,offensiveness,pleasantness,position_correct,preference,response,response_action,snippet_file,song_name,song_rating,sound,stimulus_1,stimulus_2,stimulus_3,text,time_commit,time_end,time_render,time_run,time_show,time_switch,url,word,word_ID
Prolific ID,html.Form,0,2022-04-27T12:47:27.564Z,"{""labjs_version"":""20.2.2"",""labjs_build"":{""flavor"":""production"",""commit"":""a25486e0c714a0ae2ce03ff94b7bb6896854dcfa""},""location"":""https://run.pavlovia.org/mvasilev/prolific3_music_c/"",""userAgent"":""Mozilla/5.0 (Windows NT 10.0; Win64; x64; rv:99.0) Gecko/20100101 Firefox/99.0"",""platform"":""Win32"",""language"":""en-US"",""locale"":""en-GB"",""timeZone"":""Europe/London"",""timezoneOffset"":-60,""screen_width"":1920,""screen_height"":1080,""scroll_width"":1920,""scroll_height"":879,""window_innerWidth"":1920,""window_innerHeight"":927,""devicePixelRatio"":1}",,,,,,,,,,,,,,,5924a14e3497ad0001016896,,,,,,,,,,,,,,,10111.54,,form submission,,,,,,,,,,,,,,,,,,,,,21004,21003,10886.74,10886,10891.46,21004.7,{},,
Introduction,html.Screen,1_0,2022-04-27T12:48:13.311Z,,,,,,,,,,,,,,,,,,,,,,,,,,,,,,,45727.3,,response,,,,,,,,,,,continue,click button,,,,,,,,,66750,66732,20995.76,21005,21004.7,66756.18,,,
Volume calibration,html.Screen,1_1,2022-04-27T12:48:22.060Z,,,,,,,,,,,,,,,,,,,,,,,,,,,,,,,8724.820000000007,,response,,,,,,,,,,,continue,click button,,,,,,,,,75500,75481,66748.48,66750,66756.18,75503.2,,,
Task instructions,html.Screen,1_2,2022-04-27T12:48:26.195Z,,,,,,,,,,,,,,,,,,,,,,,,,,,,,,,4119.800000000003,,response,,,,,,,,,,,continue,click button,,,,,,,,,79635,79623,75496.5,75501,75503.2,79635.12,,,
Sounds,html.Screen,1_3_0_0,2022-04-27T12:48:30.428Z,,,,,,,,,,,,,,,,,,,,,,,,,,,,,,,4248.559999999998,,timeout,,,,,,,,,2,,,,,,,,I,S,O,,83868,83867.02,79632.32,79635,79635.12,83883.68,,,
Judgement,html.Screen,1_3_0_1,2022-04-27T12:48:30.977Z,,,,,,,,,,,,,,,,,,,,,,,,,,,,true,2,,520.320000000007,,response,,,,,,,,,2,,2,click #choice-2,,,,,I,S,O,,84417,84404,83867.02,83868,83883.68,84416.84,,,
Trial,flow.Sequence,1_3_0,2022-04-27T12:48:30.977Z,,,,,,,,,,,,,,,,,,,,,,,,,,,,,,,4768.880000000005,,completion,,,,,,,,,2,,,,,,,,I,S,O,,84417,84404,79632.32,79635,79635.12,84416.84,,,
Sounds,html.Screen,1_3_1_0,2022-04-27T12:48:35.210Z,,,,,,,,,,,,,,,,,,,,,,,,,,,,,,,4248.540000000008,,timeout,,,,,,,,,1,,,,,,,,S,O,I,,88650,88648.72,84414.2,84418,84416.84,88665.38,,,
Judgement,html.Screen,1_3_1_1,2022-04-27T12:48:35.652Z,,,,,,,,,,,,,,,,,,,,,,,,,,,,true,1,,410.61999999999534,,response,,,,,,,,,1,,1,click #choice-1,,,,,S,O,I,,89092,89076,88648.72,88650,88665.38,89098.58,,,
Trial,flow.Sequence,1_3_1,2022-04-27T12:48:35.652Z,,,,,,,,,,,,,,,,,,,,,,,,,,,,,,,4659.1600000000035,,completion,,,,,,,,,1,,,,,,,,S,O,I,,89093,89076,84414.2,84417,84416.84,89098.58,,,
Sounds,html.Screen,1_3_2_0,2022-04-27T12:48:39.892Z,,,,,,,,,,,,,,,,,,,,,,,,,,,,,,,4248.539999999994,,timeout,,,,,,,,,2,,,,,,,,O,S,I,,93332,93330.46,89089.88,89093,89098.58,93347.12,,,
Judgement,html.Screen,1_3_2_1,2022-04-27T12:48:40.363Z,,,,,,,,,,,,,,,,,,,,,,,,,,,,true,2,,447.88000000000466,,response,,,,,,,,,2,,2,click #choice-2,,,,,O,S,I,,93803,93795,93330.46,93332,93347.12,93813.64,,,
Trial,flow.Sequence,1_3_2,2022-04-27T12:48:40.363Z,,,,,,,,,,,,,,,,,,,,,,,,,,,,,,,4696.419999999998,,completion,,,,,,,,,2,,,,,,,,O,S,I,,93803,93795,89089.88,89093,89098.58,93813.64,,,
Sounds,html.Screen,1_3_3_0,2022-04-27T12:48:44.607Z,,,,,,,,,,,,,,,,,,,,,,,,,,,,,,,4248.539999999994,,timeout,,,,,,,,,3,,,,,,,,I,O,S,,98046,98045.52,93801.42,93803,93813.64,98062.18,,,
Judgement,html.Screen,1_3_3_1,2022-04-27T12:48:45.099Z,,,,,,,,,,,,,,,,,,,,,,,,,,,,true,3,,466.820000000007,,response,,,,,,,,,3,,3,click #choice-3,,,,,I,O,S,,98539,98529,98045.52,98046,98062.18,98545.36,,,
Trial,flow.Sequence,1_3_3,2022-04-27T12:48:45.099Z,,,,,,,,,,,,,,,,,,,,,,,,,,,,,,,4715.360000000001,,completion,,,,,,,,,3,,,,,,,,I,O,S,,98539,98529,93801.42,93803,93813.64,98545.36,,,
Sounds,html.Screen,1_3_4_0,2022-04-27T12:48:49.338Z,,,,,,,,,,,,,,,,,,,,,,,,,,,,,,,4248.559999999998,,timeout,,,,,,,,,1,,,,,,,,S,I,O,,102778,102777.24,98536.38,98539,98545.36,102793.92,,,
Judgement,html.Screen,1_3_4_1,2022-04-27T12:48:49.751Z,,,,,,,,,,,,,,,,,,,,,,,,,,,,true,1,,390.08000000000175,,response,,,,,,,,,1,,1,click #choice-1,,,,,S,I,O,,103191,103184,102777.24,102778,102793.92,103193.78,,,
Trial,flow.Sequence,1_3_4,2022-04-27T12:48:49.752Z,,,,,,,,,,,,,,,,,,,,,,,,,,,,,,,4638.639999999999,,completion,,,,,,,,,1,,,,,,,,S,I,O,,103191,103184,98536.38,98539,98545.36,103193.78,,,
Sounds,html.Screen,1_3_5_0,2022-04-27T12:48:53.987Z,,,,,,,,,,,,,,,,,,,,,,,,,,,,,,,4248.540000000008,,timeout,,,,,,,,,3,,,,,,,,O,I,S,,107427,107425.66,103188.94,103191,103193.78,107442.32,,,
Judgement,html.Screen,1_3_5_1,2022-04-27T12:48:54.484Z,,,,,,,,,,,,,,,,,,,,,,,,,,,,true,3,,477.679999999993,,response,,,,,,,,,3,,3,click #choice-3,,,,,O,I,S,,107924,107920,107425.66,107427,107442.32,107925.5,,,
Trial,flow.Sequence,1_3_5,2022-04-27T12:48:54.484Z,,,,,,,,,,,,,,,,,,,,,,,,,,,,,,,4726.220000000001,,completion,,,,,,,,,3,,,,,,,,O,I,S,,107924,107920,103188.94,103191,103193.78,107925.5,,,
Task,flow.Loop,1_3,2022-04-27T12:48:54.485Z,,,,,,,,,,,,,,,,,,,,,,,,,,,,,,,28284.880000000005,,completion,,,1,,,,,,,,,,,,,,,,,,107925,107920,79632.32,79635,79635.12,107925.5,,,
Trap,html.Screen,1_4,2022-04-27T12:48:54.488Z,,,,,,,,,,,,,,,,,,,,,,,,,,,,,,,NaN,,skipped,,,,,,,,,,,,,,,,,,,,,107927,107920,,107927,,107925.5,,,
Thanks,html.Screen,1_5,2022-04-27T12:49:50.636Z,,,,,,,,,,,,,,,,,,,,,,,,,,,,,,,56134.5,,response,,,,,,,,,,,continue,click button,,,,,,,,,164077,164060,107922.24,107927,107925.5,166022.92,,,
Headphone screening,flow.Sequence,1,2022-04-27T12:49:50.637Z,,,,,,,,,,,,,,,,,,,,,,,,,,,,,,,143055.3,,completion,,,,,,,,,,,,,,,,,,,,,164077,164060,20995.76,21005,21004.7,166022.92,,,
Instructions,html.Page,2_0,2022-04-27T12:50:21.014Z,,,,,,,,,,,,,,,,,,,,,,,,,,,,,,,28429.079999999987,,form submission,,,,,,,,,,,,,,,,,,,,,194453,194452,166006.26,165993,166022.92,194446.58,,,
Holding screen,html.Screen,2_1_0_0,2022-04-27T12:50:30.987Z,,,,,,,,,,,,,,,,,,,,,,,,,,,,,,,9996.600000000006,,timeout,,,,,,,,,,,,,,,,,,,,,204428,204426.52,194446.3,194454,194446.58,204443.18,,,
screen,html.Screen,2_1_0_1_0,2022-04-27T12:50:31.585Z,,,,,,,,,,,,,,,,,53,,,,,,,,,,,,,,569.820000000007,,response,,,,99,,,,,,,Space,keypress(Space),,,,,,,,When -- ----- -- ------ - ------- --- ----------<br>------------- ------ ------ ---- ---- ------- ----- -- ----<br>-------- ------- -- ---------- --- - --- ----- ----- ----<br>---- --- --- ----- --- ---- ---- ------- ----- ---- -------<br>--- --- -- ----- -- --- ---- -- --- ---- -- ------ ------<br>--- ----- -- ----,205025,205013,204426.52,204428,204443.18,205026.3,,0,When
screen,html.Screen,2_1_0_1_1,2022-04-27T12:50:31.916Z,,,,,,,,,,,,,,,,,53,,,,,,,,,,,,,,315.70000000001164,,response,,,,99,,,,,,,Space,keypress(Space),,,,,,,,---- it ----- -- ------ - ------- --- ----------<br>------------- ------ ------ ---- ---- ------- ----- -- ----<br>-------- ------- -- ---------- --- - --- ----- ----- ----<br>---- --- --- ----- --- ---- ---- ------- ----- ---- -------<br>--- --- -- ----- -- --- ---- -- --- ---- -- ------ ------<br>--- ----- -- ----,205356,205342,205025.6,205025,205026.3,205359.52,,1,it
screen,html.Screen,2_1_0_1_2,2022-04-27T12:50:32.177Z,,,,,,,,,,,,,,,,,53,,,,,,,,,,,,,,247.48000000001048,,response,,,,99,,,,,,,Space,keypress(Space),,,,,,,,---- -- comes -- ------ - ------- --- ----------<br>------------- ------ ------ ---- ---- ------- ----- -- ----<br>-------- ------- -- ---------- --- - --- ----- ----- ----<br>---- --- --- ----- --- ---- ---- ------- ----- ---- -------<br>--- --- -- ----- -- --- ---- -- --- ---- -- ------ ------<br>--- ----- -- ----,205617,205607,205356,205356,205359.52,205626.1,,2,comes
screen,html.Screen,2_1_0_1_3,2022-04-27T12:50:32.402Z,,,,,,,,,,,,,,,,,53,,,,,,,,,,,,,,199.89999999999418,,response,,,,99,,,,,,,Space,keypress(Space),,,,,,,,---- -- ----- to ------ - ------- --- ----------<br>------------- ------ ------ ---- ---- ------- ----- -- ----<br>-------- ------- -- ---------- --- - --- ----- ----- ----<br>---- --- --- ----- --- ---- ---- ------- ----- ---- -------<br>--- --- -- ----- -- --- ---- -- --- ---- -- ------ ------<br>--- ----- -- ----,205842,205826,205616.92,205617,205626.1,205842.7,,3,to
screen,html.Screen,2_1_0_1_4,2022-04-27T12:50:32.653Z,,,,,,,,,,,,,,,,,53,,,,,,,,,,,,,,233.29999999998836,,response,,,,99,,,,,,,Space,keypress(Space),,,,,,,,---- -- ----- -- having - ------- --- ----------<br>------------- ------ ------ ---- ---- ------- ----- -- ----<br>-------- ------- -- ---------- --- - --- ----- ----- ----<br>---- --- --- ----- --- ---- ---- ------- ----- ---- -------<br>--- --- -- ----- -- --- ---- -- --- ---- -- ------ ------<br>--- ----- -- ----,206093,206076,205842.34,205842,205842.7,206109.28,,4,having
screen,html.Screen,2_1_0_1_5,2022-04-27T12:50:32.949Z,,,,,,,,,,,,,,,,,53,,,,,,,,,,,,,,263.72000000000116,,response,,,,99,,,,,,,Space,keypress(Space),,,,,,,,---- -- ----- -- ------ a ------- --- ----------<br>------------- ------ ------ ---- ---- ------- ----- -- ----<br>-------- ------- -- ---------- --- - --- ----- ----- ----<br>---- --- --- ----- --- ---- ---- ------- ----- ---- -------<br>--- --- -- ----- -- --- ---- -- --- ---- -- ------ ------<br>--- ----- -- ----,206388,206373,206093.08,206093,206109.28,206392.5,,5,a
screen,html.Screen,2_1_0_1_6,2022-04-27T12:50:33.220Z,,,,,,,,,,,,,,,,,53,,,,,,,,,,,,,,261.5,,response,,,,99,,,,,,,Space,keypress(Space),,,,,,,,---- -- ----- -- ------ - lasting --- ----------<br>------------- ------ ------ ---- ---- ------- ----- -- ----<br>-------- ------- -- ---------- --- - --- ----- ----- ----<br>---- --- --- ----- --- ---- ---- ------- ----- ---- -------<br>--- --- -- ----- -- --- ---- -- --- ---- -- ------ ------<br>--- ----- -- ----,206660,206654,206388.76,206389,206392.5,206675.74,,6,lasting
screen,html.Screen,2_1_0_1_7,2022-04-27T12:50:33.525Z,,,,,,,,,,,,,,,,,53,,,,,,,,,,,,,,275.2600000000093,,response,,,,99,,,,,,,Space,keypress(Space),,,,,,,,---- -- ----- -- ------ - ------- and ----------<br>------------- ------ ------ ---- ---- ------- ----- -- ----<br>-------- ------- -- ---------- --- - --- ----- ----- ----<br>---- --- --- ----- --- ---- ---- ------- ----- ---- -------<br>--- --- -- ----- -- --- ---- -- --- ---- -- ------ ------<br>--- ----- -- ----,206965,206951,206659.5,206660,206675.74,206975.64,,7,and
screen,html.Screen,2_1_0_1_8,2022-04-27T12:50:33.816Z,,,,,,,,,,,,,,,,,53,,,,,,,,,,,,,,272.35999999998603,,response,,,,99,,,,,,,Space,keypress(Space),,,,,,,,---- -- ----- -- ------ - ------- --- fulfilling<br>------------- ------ ------ ---- ---- ------- ----- -- ----<br>-------- ------- -- ---------- --- - --- ----- ----- ----<br>---- --- --- ----- --- ---- ---- ------- ----- ---- -------<br>--- --- -- ----- -- --- ---- -- --- ---- -- ------ ------<br>--- ----- -- ----,207256,207248,206965.36,206965,206975.64,207258.88,,8,fulfilling
screen,html.Screen,2_1_0_1_9,2022-04-27T12:50:34.152Z,,,,,,,,,,,,,,,,,53,,,,,,,,,,,,,,316.11999999999534,,response,,,,99,,,,,,,Space,keypress(Space),,,,,,,,"---- -- ----- -- ------ - ------- --- ----------<br>relationship, ------ ------ ---- ---- ------- ----- -- ----<br>-------- ------- -- ---------- --- - --- ----- ----- ----<br>---- --- --- ----- --- ---- ---- ------- ----- ---- -------<br>--- --- -- ----- -- --- ---- -- --- ---- -- ------ ------<br>--- ----- -- ----",207592,207575,207256.16,207256,207258.88,207608.76,,9,"relationship,"
screen,html.Screen,2_1_0_1_10,2022-04-27T12:50:34.448Z,,,,,,,,,,,,,,,,,53,,,,,,,,,,,,,,264.2399999999907,,response,,,,99,,,,,,,Space,keypress(Space),,,,,,,,---- -- ----- -- ------ - ------- --- ----------<br>------------- common ------ ---- ---- ------- ----- -- ----<br>-------- ------- -- ---------- --- - --- ----- ----- ----<br>---- --- --- ----- --- ---- ---- ------- ----- ---- -------<br>--- --- -- ----- -- --- ---- -- --- ---- -- ------ ------<br>--- ----- -- ----,207887,207873,207592.16,207592,207608.76,207892,,10,common
screen,html.Screen,2_1_0_1_11,2022-04-27T12:50:34.643Z,,,,,,,,,,,,,,,,,53,,,,,,,,,,,,,,183,,response,,,,99,,,,,,,Space,keypress(Space),,,,,,,,---- -- ----- -- ------ - ------- --- ----------<br>------------- ------ wisdom ---- ---- ------- ----- -- ----<br>-------- ------- -- ---------- --- - --- ----- ----- ----<br>---- --- --- ----- --- ---- ---- ------- ----- ---- -------<br>--- --- -- ----- -- --- ---- -- --- ---- -- ------ ------<br>--- ----- -- ----,208083,208075,207887.8,207887,207892,208091.94,,11,wisdom
screen,html.Screen,2_1_0_1_12,2022-04-27T12:50:34.844Z,,,,,,,,,,,,,,,,,53,,,,,,,,,,,,,,187.05999999999767,,response,,,,99,,,,,,,Space,keypress(Space),,,,,,,,---- -- ----- -- ------ - ------- --- ----------<br>------------- ------ ------ says ---- ------- ----- -- ----<br>-------- ------- -- ---------- --- - --- ----- ----- ----<br>---- --- --- ----- --- ---- ---- ------- ----- ---- -------<br>--- --- -- ----- -- --- ---- -- --- ---- -- ------ ------<br>--- ----- -- ----,208284,208279,208083.36,208083,208091.94,208291.86,,12,says
screen,html.Screen,2_1_0_1_13,2022-04-27T12:50:35.044Z,,,,,,,,,,,,,,,,,53,,,,,,,,,,,,,,190.14000000001397,,response,,,,99,,,,,,,Space,keypress(Space),,,,,,,,---- -- ----- -- ------ - ------- --- ----------<br>------------- ------ ------ ---- that ------- ----- -- ----<br>-------- ------- -- ---------- --- - --- ----- ----- ----<br>---- --- --- ----- --- ---- ---- ------- ----- ---- -------<br>--- --- -- ----- -- --- ---- -- --- ---- -- ------ ------<br>--- ----- -- ----,208485,208482,208283.72,208284,208291.86,208491.8,,13,that
screen,html.Screen,2_1_0_1_14,2022-04-27T12:50:35.260Z,,,,,,,,,,,,,,,,,53,,,,,,,,,,,,,,192.20000000001164,,response,,,,99,,,,,,,Space,keypress(Space),,,,,,,,---- -- ----- -- ------ - ------- --- ----------<br>------------- ------ ------ ---- ---- feeling ----- -- ----<br>-------- ------- -- ---------- --- - --- ----- ----- ----<br>---- --- --- ----- --- ---- ---- ------- ----- ---- -------<br>--- --- -- ----- -- --- ---- -- --- ---- -- ------ ------<br>--- ----- -- ----,208700,208684,208484.7,208485,208491.8,208708.38,,14,feeling
screen,html.Screen,2_1_0_1_15,2022-04-27T12:50:35.470Z,,,,,,,,,,,,,,,,,53,,,,,,,,,,,,,,194.61999999999534,,response,,,,99,,,,,,,Space,keypress(Space),,,,,,,,---- -- ----- -- ------ - ------- --- ----------<br>------------- ------ ------ ---- ---- ------- close -- ----<br>-------- ------- -- ---------- --- - --- ----- ----- ----<br>---- --- --- ----- --- ---- ---- ------- ----- ---- -------<br>--- --- -- ----- -- --- ---- -- --- ---- -- ------ ------<br>--- ----- -- ----,208910,208903,208700,208700,208708.38,208924.98,,15,close
screen,html.Screen,2_1_0_1_16,2022-04-27T12:50:35.747Z,,,,,,,,,,,,,,,,,53,,,,,,,,,,,,,,245.01999999998952,,response,,,,99,,,,,,,Space,keypress(Space),,,,,,,,---- -- ----- -- ------ - ------- --- ----------<br>------------- ------ ------ ---- ---- ------- ----- to ----<br>-------- ------- -- ---------- --- - --- ----- ----- ----<br>---- --- --- ----- --- ---- ---- ------- ----- ---- -------<br>--- --- -- ----- -- --- ---- -- --- ---- -- ------ ------<br>--- ----- -- ----,209186,209170,208910.5,208911,208924.98,209191.56,,16,to
screen,html.Screen,2_1_0_1_17,2022-04-27T12:50:36.012Z,,,,,,,,,,,,,,,,,53,,,,,,,,,,,,,,243.44000000000233,,response,,,,99,,,,,,,Space,keypress(Space),,,,,,,,---- -- ----- -- ------ - ------- --- ----------<br>------------- ------ ------ ---- ---- ------- ----- -- your<br>-------- ------- -- ---------- --- - --- ----- ----- ----<br>---- --- --- ----- --- ---- ---- ------- ----- ---- -------<br>--- --- -- ----- -- --- ---- -- --- ---- -- ------ ------<br>--- ----- -- ----,209452,209435,209186.28,209187,209191.56,209458.14,,17,your
screen,html.Screen,2_1_0_1_18,2022-04-27T12:50:36.240Z,,,,,,,,,,,,,,,,,53,,,,,,,,,,,,,,210.85999999998603,,response,,,,99,,,,,,,Space,keypress(Space),,,,,,,,---- -- ----- -- ------ - ------- --- ----------<br>------------- ------ ------ ---- ---- ------- ----- -- ----<br>romantic ------- -- ---------- --- - --- ----- ----- ----<br>---- --- --- ----- --- ---- ---- ------- ----- ---- -------<br>--- --- -- ----- -- --- ---- -- --- ---- -- ------ ------<br>--- ----- -- ----,209680,209669,209452.1,209452,209458.14,209691.38,,18,romantic
screen,html.Screen,2_1_0_1_19,2022-04-27T12:50:36.493Z,,,,,,,,,,,,,,,,,53,,,,,,,,,,,,,,228.61999999999534,,response,,,,99,,,,,,,Space,keypress(Space),,,,,,,,---- -- ----- -- ------ - ------- --- ----------<br>------------- ------ ------ ---- ---- ------- ----- -- ----<br>-------- partner -- ---------- --- - --- ----- ----- ----<br>---- --- --- ----- --- ---- ---- ------- ----- ---- -------<br>--- --- -- ----- -- --- ---- -- --- ---- -- ------ ------<br>--- ----- -- ----,209933,209920,209679.94,209680,209691.38,209941.3,,19,partner
screen,html.Screen,2_1_0_1_20,2022-04-27T12:50:36.764Z,,,,,,,,,,,,,,,,,53,,,,,,,,,,,,,,259.70000000001164,,response,,,,99,,,,,,,Space,keypress(Space),,,,,,,,---- -- ----- -- ------ - ------- --- ----------<br>------------- ------ ------ ---- ---- ------- ----- -- ----<br>-------- ------- is ---------- --- - --- ----- ----- ----<br>---- --- --- ----- --- ---- ---- ------- ----- ---- -------<br>--- --- -- ----- -- --- ---- -- --- ---- -- ------ ------<br>--- ----- -- ----,210203,210201,209933.22,209934,209941.3,210207.88,,20,is
screen,html.Screen,2_1_0_1_21,2022-04-27T12:50:36.980Z,,,,,,,,,,,,,,,,,53,,,,,,,,,,,,,,196.11999999999534,,response,,,,99,,,,,,,Space,keypress(Space),,,,,,,,---- -- ----- -- ------ - ------- --- ----------<br>------------- ------ ------ ---- ---- ------- ----- -- ----<br>-------- ------- -- paramount. --- - --- ----- ----- ----<br>---- --- --- ----- --- ---- ---- ------- ----- ---- -------<br>--- --- -- ----- -- --- ---- -- --- ---- -- ------ ------<br>--- ----- -- ----,210419,210404,210203.76,210204,210207.88,210424.48,,21,paramount.
screen,html.Screen,2_1_0_1_22,2022-04-27T12:50:37.250Z,,,,,,,,,,,,,,,,,53,,,,,,,,,,,,,,260.5199999999895,,response,,,,99,,,,,,,Space,keypress(Space),,,,,,,,---- -- ----- -- ------ - ------- --- ----------<br>------------- ------ ------ ---- ---- ------- ----- -- ----<br>-------- ------- -- ---------- But - --- ----- ----- ----<br>---- --- --- ----- --- ---- ---- ------- ----- ---- -------<br>--- --- -- ----- -- --- ---- -- --- ---- -- ------ ------<br>--- ----- -- ----,210690,210685,210419.78,210419,210424.48,210691.04,,22,But
screen,html.Screen,2_1_0_1_23,2022-04-27T12:50:37.556Z,,,,,,,,,,,,,,,,,53,,,,,,,,,,,,,,290.95999999999185,,response,,,,99,,,,,,,Space,keypress(Space),,,,,,,,---- -- ----- -- ------ - ------- --- ----------<br>------------- ------ ------ ---- ---- ------- ----- -- ----<br>-------- ------- -- ---------- --- a --- ----- ----- ----<br>---- --- --- ----- --- ---- ---- ------- ----- ---- -------<br>--- --- -- ----- -- --- ---- -- --- ---- -- ------ ------<br>--- ----- -- ----,210995,210982,210690.28,210691,210691.04,211007.6,,23,a
screen,html.Screen,2_1_0_1_24,2022-04-27T12:50:37.737Z,,,,,,,,,,,,,,,,,53,,,,,,,,,,,,,,162.39999999999418,,response,,,,99,,,,,,,Space,keypress(Space),,,,,,,,---- -- ----- -- ------ - ------- --- ----------<br>------------- ------ ------ ---- ---- ------- ----- -- ----<br>-------- ------- -- ---------- --- - new ----- ----- ----<br>---- --- --- ----- --- ---- ---- ------- ----- ---- -------<br>--- --- -- ----- -- --- ---- -- --- ---- -- ------ ------<br>--- ----- -- ----,211177,211170,210996.08,210996,211007.6,211190.88,,24,new
screen,html.Screen,2_1_0_1_25,2022-04-27T12:50:37.917Z,,,,,,,,,,,,,,,,,53,,,,,,,,,,,,,,151.11999999999534,,response,,,,99,,,,,,,Space,keypress(Space),,,,,,,,---- -- ----- -- ------ - ------- --- ----------<br>------------- ------ ------ ---- ---- ------- ----- -- ----<br>-------- ------- -- ---------- --- - --- study ----- ----<br>---- --- --- ----- --- ---- ---- ------- ----- ---- -------<br>--- --- -- ----- -- --- ---- -- --- ---- -- ------ ------<br>--- ----- -- ----,211357,211342,211177.2,211177,211190.88,211357.48,,25,study
screen,html.Screen,2_1_0_1_26,2022-04-27T12:50:38.083Z,,,,,,,,,,,,,,,,,53,,,,,,,,,,,,,,154.51999999998952,,response,,,,99,,,,,,,Space,keypress(Space),,,,,,,,---- -- ----- -- ------ - ------- --- ----------<br>------------- ------ ------ ---- ---- ------- ----- -- ----<br>-------- ------- -- ---------- --- - --- ----- finds ----<br>---- --- --- ----- --- ---- ---- ------- ----- ---- -------<br>--- --- -- ----- -- --- ---- -- --- ---- -- ------ ------<br>--- ----- -- ----,211522,211512,211357.18,211357,211357.48,211524.1,,26,finds
screen,html.Screen,2_1_0_1_27,2022-04-27T12:50:38.238Z,,,,,,,,,,,,,,,,,53,,,,,,,,,,,,,,145.89999999999418,,response,,,,99,,,,,,,Space,keypress(Space),,,,,,,,---- -- ----- -- ------ - ------- --- ----------<br>------------- ------ ------ ---- ---- ------- ----- -- ----<br>-------- ------- -- ---------- --- - --- ----- ----- that<br>---- --- --- ----- --- ---- ---- ------- ----- ---- -------<br>--- --- -- ----- -- --- ---- -- --- ---- -- ------ ------<br>--- ----- -- ----,211677,211670,211522.56,211522,211524.1,211690.7,,27,that
screen,html.Screen,2_1_0_1_28,2022-04-27T12:50:38.724Z,,,,,,,,,,,,,,,,,53,,,,,,,,,,,,,,463.29999999998836,,response,,,,99,,,,,,,Space,keypress(Space),,,,,,,,---- -- ----- -- ------ - ------- --- ----------<br>------------- ------ ------ ---- ---- ------- ----- -- ----<br>-------- ------- -- ---------- --- - --- ----- ----- ----<br>it's --- --- ----- --- ---- ---- ------- ----- ---- -------<br>--- --- -- ----- -- --- ---- -- --- ---- -- ------ ------<br>--- ----- -- ----,212164,212154,211677.82,211677,211690.7,212173.88,,28,it's
screen,html.Screen,2_1_0_1_29,2022-04-27T12:50:38.960Z,,,,,,,,,,,,,,,,,53,,,,,,,,,,,,,,214.11999999999534,,response,,,,99,,,,,,,Space,keypress(Space),,,,,,,,---- -- ----- -- ------ - ------- --- ----------<br>------------- ------ ------ ---- ---- ------- ----- -- ----<br>-------- ------- -- ---------- --- - --- ----- ----- ----<br>---- not --- ----- --- ---- ---- ------- ----- ---- -------<br>--- --- -- ----- -- --- ---- -- --- ---- -- ------ ------<br>--- ----- -- ----,212400,212388,212164.24,212164,212173.88,212407.12,,29,not
screen,html.Screen,2_1_0_1_30,2022-04-27T12:50:39.231Z,,,,,,,,,,,,,,,,,53,,,,,,,,,,,,,,245.88000000000466,,response,,,,99,,,,,,,Space,keypress(Space),,,,,,,,---- -- ----- -- ------ - ------- --- ----------<br>------------- ------ ------ ---- ---- ------- ----- -- ----<br>-------- ------- -- ---------- --- - --- ----- ----- ----<br>---- --- how ----- --- ---- ---- ------- ----- ---- -------<br>--- --- -- ----- -- --- ---- -- --- ---- -- ------ ------<br>--- ----- -- ----,212671,212653,212399.88,212400,212407.12,212673.7,,30,how
screen,html.Screen,2_1_0_1_31,2022-04-27T12:50:39.512Z,,,,,,,,,,,,,,,,,53,,,,,,,,,,,,,,261.29999999998836,,response,,,,99,,,,,,,Space,keypress(Space),,,,,,,,---- -- ----- -- ------ - ------- --- ----------<br>------------- ------ ------ ---- ---- ------- ----- -- ----<br>-------- ------- -- ---------- --- - --- ----- ----- ----<br>---- --- --- close --- ---- ---- ------- ----- ---- -------<br>--- --- -- ----- -- --- ---- -- --- ---- -- ------ ------<br>--- ----- -- ----,212952,212935,212670.66,212671,212673.7,212956.94,,31,close
screen,html.Screen,2_1_0_1_32,2022-04-27T12:50:39.708Z,,,,,,,,,,,,,,,,,53,,,,,,,,,,,,,,181.05999999999767,,response,,,,99,,,,,,,Space,keypress(Space),,,,,,,,---- -- ----- -- ------ - ------- --- ----------<br>------------- ------ ------ ---- ---- ------- ----- -- ----<br>-------- ------- -- ---------- --- - --- ----- ----- ----<br>---- --- --- ----- you ---- ---- ------- ----- ---- -------<br>--- --- -- ----- -- --- ---- -- --- ---- -- ------ ------<br>--- ----- -- ----,213148,213138,212951.58,212952,212956.94,213156.88,,32,you
screen,html.Screen,2_1_0_1_33,2022-04-27T12:50:39.927Z,,,,,,,,,,,,,,,,,53,,,,,,,,,,,,,,200.11999999999534,,response,,,,99,,,,,,,Space,keypress(Space),,,,,,,,---- -- ----- -- ------ - ------- --- ----------<br>------------- ------ ------ ---- ---- ------- ----- -- ----<br>-------- ------- -- ---------- --- - --- ----- ----- ----<br>---- --- --- ----- --- feel ---- ------- ----- ---- -------<br>--- --- -- ----- -- --- ---- -- --- ---- -- ------ ------<br>--- ----- -- ----,213367,213357,213147.92,213148,213156.88,213373.46,,33,feel
screen,html.Screen,2_1_0_1_34,2022-04-27T12:50:40.158Z,,,,,,,,,,,,,,,,,53,,,,,,,,,,,,,,217.54000000000815,,response,,,,99,,,,,,,Space,keypress(Space),,,,,,,,---- -- ----- -- ------ - ------- --- ----------<br>------------- ------ ------ ---- ---- ------- ----- -- ----<br>-------- ------- -- ---------- --- - --- ----- ----- ----<br>---- --- --- ----- --- ---- that ------- ----- ---- -------<br>--- --- -- ----- -- --- ---- -- --- ---- -- ------ ------<br>--- ----- -- ----,213598,213591,213367.5,213367,213373.46,213606.72,,34,that
screen,html.Screen,2_1_0_1_35,2022-04-27T12:50:40.384Z,,,,,,,,,,,,,,,,,53,,,,,,,,,,,,,,203.27999999999884,,response,,,,99,,,,,,,Space,keypress(Space),,,,,,,,---- -- ----- -- ------ - ------- --- ----------<br>------------- ------ ------ ---- ---- ------- ----- -- ----<br>-------- ------- -- ---------- --- - --- ----- ----- ----<br>---- --- --- ----- --- ---- ---- matters ----- ---- -------<br>--- --- -- ----- -- --- ---- -- --- ---- -- ------ ------<br>--- ----- -- ----,213823,213810,213598.32,213598,213606.72,213839.98,,35,matters
screen,html.Screen,2_1_0_1_36,2022-04-27T12:50:40.550Z,,,,,,,,,,,,,,,,,53,,,,,,,,,,,,,,141.01999999998952,,response,,,,99,,,,,,,Space,keypress(Space),,,,,,,,"---- -- ----- -- ------ - ------- --- ----------<br>------------- ------ ------ ---- ---- ------- ----- -- ----<br>-------- ------- -- ---------- --- - --- ----- ----- ----<br>---- --- --- ----- --- ---- ---- ------- most, ---- -------<br>--- --- -- ----- -- --- ---- -- --- ---- -- ------ ------<br>--- ----- -- ----",213991,213981,213824.02,213824,213839.98,214006.58,,36,"most,"
screen,html.Screen,2_1_0_1_37,2022-04-27T12:50:40.755Z,,,,,,,,,,,,,,,,,53,,,,,,,,,,,,,,178.4200000000128,,response,,,,99,,,,,,,Space,keypress(Space),,,,,,,,---- -- ----- -- ------ - ------- --- ----------<br>------------- ------ ------ ---- ---- ------- ----- -- ----<br>-------- ------- -- ---------- --- - --- ----- ----- ----<br>---- --- --- ----- --- ---- ---- ------- ----- it's -------<br>--- --- -- ----- -- --- ---- -- --- ---- -- ------ ------<br>--- ----- -- ----,214194,214185,213990.84,213991,214006.58,214206.52,,37,it's
screen,html.Screen,2_1_0_1_38,2022-04-27T12:50:41.191Z,,,,,,,,,,,,,,,,,53,,,,,,,,,,,,,,415.4800000000105,,response,,,,99,,,,,,,Space,keypress(Space),,,,,,,,---- -- ----- -- ------ - ------- --- ----------<br>------------- ------ ------ ---- ---- ------- ----- -- ----<br>-------- ------- -- ---------- --- - --- ----- ----- ----<br>---- --- --- ----- --- ---- ---- ------- ----- ---- whether<br>--- --- -- ----- -- --- ---- -- --- ---- -- ------ ------<br>--- ----- -- ----,214631,214622,214194.86,214195,214206.52,214639.7,,38,whether
screen,html.Screen,2_1_0_1_39,2022-04-27T12:50:41.377Z,,,,,,,,,,,,,,,,,53,,,,,,,,,,,,,,170.29999999998836,,response,,,,99,,,,,,,Space,keypress(Space),,,,,,,,---- -- ----- -- ------ - ------- --- ----------<br>------------- ------ ------ ---- ---- ------- ----- -- ----<br>-------- ------- -- ---------- --- - --- ----- ----- ----<br>---- --- --- ----- --- ---- ---- ------- ----- ---- -------<br>you --- -- ----- -- --- ---- -- --- ---- -- ------ ------<br>--- ----- -- ----,214816,214810,214630.98,214631,214639.7,214822.98,,39,you
screen,html.Screen,2_1_0_1_40,2022-04-27T12:50:41.602Z,,,,,,,,,,,,,,,,,53,,,,,,,,,,,,,,206.01999999998952,,response,,,,99,,,,,,,Space,keypress(Space),,,,,,,,---- -- ----- -- ------ - ------- --- ----------<br>------------- ------ ------ ---- ---- ------- ----- -- ----<br>-------- ------- -- ---------- --- - --- ----- ----- ----<br>---- --- --- ----- --- ---- ---- ------- ----- ---- -------<br>--- are -- ----- -- --- ---- -- --- ---- -- ------ ------<br>--- ----- -- ----,215042,215029,214816.42,214816,214822.98,215056.22,,40,are
screen,html.Screen,2_1_0_1_41,2022-04-27T12:50:41.793Z,,,,,,,,,,,,,,,,,53,,,,,,,,,,,,,,160.77999999999884,,response,,,,99,,,,,,,Space,keypress(Space),,,,,,,,---- -- ----- -- ------ - ------- --- ----------<br>------------- ------ ------ ---- ---- ------- ----- -- ----<br>-------- ------- -- ---------- --- - --- ----- ----- ----<br>---- --- --- ----- --- ---- ---- ------- ----- ---- -------<br>--- --- as ----- -- --- ---- -- --- ---- -- ------ ------<br>--- ----- -- ----,215232,215217,215042.18,215043,215056.22,215239.5,,41,as
screen,html.Screen,2_1_0_1_42,2022-04-27T12:50:41.983Z,,,,,,,,,,,,,,,,,53,,,,,,,,,,,,,,180.5,,response,,,,99,,,,,,,Space,keypress(Space),,,,,,,,---- -- ----- -- ------ - ------- --- ----------<br>------------- ------ ------ ---- ---- ------- ----- -- ----<br>-------- ------- -- ---------- --- - --- ----- ----- ----<br>---- --- --- ----- --- ---- ---- ------- ----- ---- -------<br>--- --- -- close -- --- ---- -- --- ---- -- ------ ------<br>--- ----- -- ----,215423,215420,215232.84,215232,215239.5,215422.76,,42,close
screen,html.Screen,2_1_0_1_43,2022-04-27T12:50:42.229Z,,,,,,,,,,,,,,,,,53,,,,,,,,,,,,,,231.2399999999907,,response,,,,99,,,,,,,Space,keypress(Space),,,,,,,,---- -- ----- -- ------ - ------- --- ----------<br>------------- ------ ------ ---- ---- ------- ----- -- ----<br>-------- ------- -- ---------- --- - --- ----- ----- ----<br>---- --- --- ----- --- ---- ---- ------- ----- ---- -------<br>--- --- -- ----- as --- ---- -- --- ---- -- ------ ------<br>--- ----- -- ----,215669,215654,215422.64,215423,215422.76,215672.68,,43,as
screen,html.Screen,2_1_0_1_44,2022-04-27T12:50:42.424Z,,,,,,,,,,,,,,,,,53,,,,,,,,,,,,,,184.32000000000698,,response,,,,99,,,,,,,Space,keypress(Space),,,,,,,,---- -- ----- -- ------ - ------- --- ----------<br>------------- ------ ------ ---- ---- ------- ----- -- ----<br>-------- ------- -- ---------- --- - --- ----- ----- ----<br>---- --- --- ----- --- ---- ---- ------- ----- ---- -------<br>--- --- -- ----- -- you ---- -- --- ---- -- ------ ------<br>--- ----- -- ----,215864,215857,215668.76,215669,215672.68,215872.62,,44,you
screen,html.Screen,2_1_0_1_45,2022-04-27T12:50:42.645Z,,,,,,,,,,,,,,,,,53,,,,,,,,,,,,,,203.38000000000466,,response,,,,99,,,,,,,Space,keypress(Space),,,,,,,,---- -- ----- -- ------ - ------- --- ----------<br>------------- ------ ------ ---- ---- ------- ----- -- ----<br>-------- ------- -- ---------- --- - --- ----- ----- ----<br>---- --- --- ----- --- ---- ---- ------- ----- ---- -------<br>--- --- -- ----- -- --- want -- --- ---- -- ------ ------<br>--- ----- -- ----,216085,216076,215864.28,215864,215872.62,216089.2,,45,want
screen,html.Screen,2_1_0_1_46,2022-04-27T12:50:42.886Z,,,,,,,,,,,,,,,,,53,,,,,,,,,,,,,,220.79999999998836,,response,,,,99,,,,,,,Space,keypress(Space),,,,,,,,---- -- ----- -- ------ - ------- --- ----------<br>------------- ------ ------ ---- ---- ------- ----- -- ----<br>-------- ------- -- ---------- --- - --- ----- ----- ----<br>---- --- --- ----- --- ---- ---- ------- ----- ---- -------<br>--- --- -- ----- -- --- ---- to --- ---- -- ------ ------<br>--- ----- -- ----,216326,216310,216084.84,216085,216089.2,216339.12,,46,to
screen,html.Screen,2_1_0_1_47,2022-04-27T12:50:43.071Z,,,,,,,,,,,,,,,,,53,,,,,,,,,,,,,,157.88000000000466,,response,,,,99,,,,,,,Space,keypress(Space),,,,,,,,"---- -- ----- -- ------ - ------- --- ----------<br>------------- ------ ------ ---- ---- ------- ----- -- ----<br>-------- ------- -- ---------- --- - --- ----- ----- ----<br>---- --- --- ----- --- ---- ---- ------- ----- ---- -------<br>--- --- -- ----- -- --- ---- -- be, ---- -- ------ ------<br>--- ----- -- ----",216511,216497,216325.78,216326,216339.12,216522.4,,47,"be,"
screen,html.Screen,2_1_0_1_48,2022-04-27T12:50:43.287Z,,,,,,,,,,,,,,,,,53,,,,,,,,,,,,,,194.60000000000582,,response,,,,99,,,,,,,Space,keypress(Space),,,,,,,,---- -- ----- -- ------ - ------- --- ----------<br>------------- ------ ------ ---- ---- ------- ----- -- ----<br>-------- ------- -- ---------- --- - --- ----- ----- ----<br>---- --- --- ----- --- ---- ---- ------- ----- ---- -------<br>--- --- -- ----- -- --- ---- -- --- even -- ------ ------<br>--- ----- -- ----,216726,216717,216511.14,216511,216522.4,216738.98,,48,even
screen,html.Screen,2_1_0_1_49,2022-04-27T12:50:43.492Z,,,,,,,,,,,,,,,,,53,,,,,,,,,,,,,,181.01999999998952,,response,,,,99,,,,,,,Space,keypress(Space),,,,,,,,---- -- ----- -- ------ - ------- --- ----------<br>------------- ------ ------ ---- ---- ------- ----- -- ----<br>-------- ------- -- ---------- --- - --- ----- ----- ----<br>---- --- --- ----- --- ---- ---- ------- ----- ---- -------<br>--- --- -- ----- -- --- ---- -- --- ---- if ------ ------<br>--- ----- -- ----,216932,216920,216726.68,216726,216738.98,216938.92,,49,if
screen,html.Screen,2_1_0_1_50,2022-04-27T12:50:43.693Z,,,,,,,,,,,,,,,,,53,,,,,,,,,,,,,,184.0799999999872,,response,,,,99,,,,,,,Space,keypress(Space),,,,,,,,---- -- ----- -- ------ - ------- --- ----------<br>------------- ------ ------ ---- ---- ------- ----- -- ----<br>-------- ------- -- ---------- --- - --- ----- ----- ----<br>---- --- --- ----- --- ---- ---- ------- ----- ---- -------<br>--- --- -- ----- -- --- ---- -- --- ---- -- that's ------<br>--- ----- -- ----,217133,217123,216932.34,216932,216938.92,217138.86,,50,that's
screen,html.Screen,2_1_0_1_51,2022-04-27T12:50:43.888Z,,,,,,,,,,,,,,,,,53,,,,,,,,,,,,,,187.14000000001397,,response,,,,99,,,,,,,Space,keypress(Space),,,,,,,,---- -- ----- -- ------ - ------- --- ----------<br>------------- ------ ------ ---- ---- ------- ----- -- ----<br>-------- ------- -- ---------- --- - --- ----- ----- ----<br>---- --- --- ----- --- ---- ---- ------- ----- ---- -------<br>--- --- -- ----- -- --- ---- -- --- ---- -- ------ really<br>--- ----- -- ----,217328,217326,217132.72,217133,217138.86,217338.78,,51,really
screen,html.Screen,2_1_0_1_52,2022-04-27T12:50:44.099Z,,,,,,,,,,,,,,,,,53,,,,,,,,,,,,,,190.22000000000116,,response,,,,99,,,,,,,Space,keypress(Space),,,,,,,,---- -- ----- -- ------ - ------- --- ----------<br>------------- ------ ------ ---- ---- ------- ----- -- ----<br>-------- ------- -- ---------- --- - --- ----- ----- ----<br>---- --- --- ----- --- ---- ---- ------- ----- ---- -------<br>--- --- -- ----- -- --- ---- -- --- ---- -- ------ ------<br>not ----- -- ----,217539,217529,217328.38,217328,217338.78,217555.38,,52,not
screen,html.Screen,2_1_0_1_53,2022-04-27T12:50:44.409Z,,,,,,,,,,,,,,,,,53,,,,,,,,,,,,,,286.61999999999534,,response,,,,99,,,,,,,Space,keypress(Space),,,,,,,,---- -- ----- -- ------ - ------- --- ----------<br>------------- ------ ------ ---- ---- ------- ----- -- ----<br>-------- ------- -- ---------- --- - --- ----- ----- ----<br>---- --- --- ----- --- ---- ---- ------- ----- ---- -------<br>--- --- -- ----- -- --- ---- -- --- ---- -- ------ ------<br>--- close -- ----,217849,217842,217539.28,217539,217555.38,217855.28,,53,close
screen,html.Screen,2_1_0_1_54,2022-04-27T12:50:44.676Z,,,,,,,,,,,,,,,,,53,,,,,,,,,,,,,,251.72000000000116,,response,,,,99,,,,,,,Space,keypress(Space),,,,,,,,---- -- ----- -- ------ - ------- --- ----------<br>------------- ------ ------ ---- ---- ------- ----- -- ----<br>-------- ------- -- ---------- --- - --- ----- ----- ----<br>---- --- --- ----- --- ---- ---- ------- ----- ---- -------<br>--- --- -- ----- -- --- ---- -- --- ---- -- ------ ------<br>--- ----- at ----,218115,218107,217849.9,217849,217855.28,218121.86,,54,at
screen,html.Screen,2_1_0_1_55,2022-04-27T12:50:44.891Z,,,,,,,,,,,,,,,,,53,,,,,,,,,,,,,,203.14000000001397,,response,,,,99,,,,,,,Space,keypress(Space),,,,,,,,---- -- ----- -- ------ - ------- --- ----------<br>------------- ------ ------ ---- ---- ------- ----- -- ----<br>-------- ------- -- ---------- --- - --- ----- ----- ----<br>---- --- --- ----- --- ---- ---- ------- ----- ---- -------<br>--- --- -- ----- -- --- ---- -- --- ---- -- ------ ------<br>--- ----- -- all.,218331,218325,218115.44,218116,218121.86,218338.44,,55,all.
Item 99,flow.Loop,2_1_0_1,2022-04-27T12:50:44.891Z,,,,,,,,,,,,,,,,,,,,,,,,,,,,,,,13881.820000000007,,completion,,,,,C,,,,,,,,,,,silence,,,,,218331,218325,204426.52,204428,204443.18,218338.44,,,
Question 1,html.Screen,2_1_0_2,2022-04-27T12:50:47.511Z,,,,,,,,,,,,,,,,,,,,,,,,,,,,true,FALSE,,2596.5599999999977,,response,,,,99,C,,,,,,FALSE,click #choice-2,,,,silence,,,,,220950,220935,218331.22,218331,218338.44,220954.22,,,
Question 2,html.Screen,2_1_0_3,2022-04-27T12:50:50.225Z,,,,,,,,,,,,,,,,,,,,,,,,,,,,true,TRUE,,2699.779999999999,,response,,,,99,C,,,,,,TRUE,click #choice-1,,,,silence,,,,,223666,223654,220948.76,220951,220954.22,223669.96,,,
Item 99,flow.Sequence,2_1_0,2022-04-27T12:50:50.226Z,,,,,,,,,,,,,,,,,,,,,,,,,,,,,,,29207.420000000013,,completion,,,,,,,,,,,,,,,,,,,,,223666,223654,194446.3,194454,194446.58,223669.96,,,
Holding screen,html.Screen,2_1_1_0,2022-04-27T12:51:00.211Z,,,,,,,,,,,,,,,,,,,,,,,,,,,,,,,9996.600000000006,,timeout,,,,,,,,,,,,,,,,,,,,,233651,233649.9,223663.9,223666,223669.96,233666.56,,,
screen,html.Screen,2_1_1_1_0,2022-04-27T12:51:00.612Z,,,,,,,,,,,,,,,,,54,,,,,,,,,,,,,,378.4400000000023,,response,,,,100,,,,,,,Space,keypress(Space),,,,,,,,At --- ---- --- ------ ----- ------- ---- -- --- ------- --<br>------- ---------- ------ -- ----- -- ----- -- ---- ------<br>--- ----- --- --- ------ -------- ----- --- ------ ----- --<br>----- ----- ---------- --- --- ------ ------ ---- -- ------<br>------- --- ------ ----- --- ---- ------- -- ---- --- --<br>------- ------,234051,234045,233649.9,233651,233666.56,234066.42,,0,At
screen,html.Screen,2_1_1_1_1,2022-04-27T12:51:00.812Z,,,,,,,,,,,,,,,,,54,,,,,,,,,,,,,,181.5799999999872,,response,,,,100,,,,,,,Space,keypress(Space),,,,,,,,-- the ---- --- ------ ----- ------- ---- -- --- ------- --<br>------- ---------- ------ -- ----- -- ----- -- ---- ------<br>--- ----- --- --- ------ -------- ----- --- ------ ----- --<br>----- ----- ---------- --- --- ------ ------ ---- -- ------<br>------- --- ------ ----- --- ---- ------- -- ---- --- --<br>------- ------,234252,234248,234051.4,234051,234066.42,234266.36,,1,the
screen,html.Screen,2_1_1_1_2,2022-04-27T12:51:01.053Z,,,,,,,,,,,,,,,,,54,,,,,,,,,,,,,,215.64000000001397,,response,,,,100,,,,,,,Space,keypress(Space),,,,,,,,-- --- time --- ------ ----- ------- ---- -- --- ------- --<br>------- ---------- ------ -- ----- -- ----- -- ---- ------<br>--- ----- --- --- ------ -------- ----- --- ------ ----- --<br>----- ----- ---------- --- --- ------ ------ ---- -- ------<br>------- --- ------ ----- --- ---- ------- -- ---- --- --<br>------- ------,234492,234482,234251.7,234252,234266.36,234499.6,,2,time
screen,html.Screen,2_1_1_1_3,2022-04-27T12:51:01.228Z,,,,,,,,,,,,,,,,,54,,,,,,,,,,,,,,153.39999999999418,,response,,,,100,,,,,,,Space,keypress(Space),,,,,,,,-- --- ---- the ------ ----- ------- ---- -- --- ------- --<br>------- ---------- ------ -- ----- -- ----- -- ---- ------<br>--- ----- --- --- ------ -------- ----- --- ------ ----- --<br>----- ----- ---------- --- --- ------ ------ ---- -- ------<br>------- --- ------ ----- --- ---- ------- -- ---- --- --<br>------- ------,234668,234653,234492.68,234492,234499.6,234682.88,,3,the
screen,html.Screen,2_1_1_1_4,2022-04-27T12:51:01.439Z,,,,,,,,,,,,,,,,,54,,,,,,,,,,,,,,190.11999999999534,,response,,,,100,,,,,,,Space,keypress(Space),,,,,,,,-- --- ---- --- French ----- ------- ---- -- --- ------- --<br>------- ---------- ------ -- ----- -- ----- -- ---- ------<br>--- ----- --- --- ------ -------- ----- --- ------ ----- --<br>----- ----- ---------- --- --- ------ ------ ---- -- ------<br>------- --- ------ ----- --- ---- ------- -- ---- --- --<br>------- ------,234879,234873,234667.86,234668,234682.88,234882.82,,4,French
screen,html.Screen,2_1_1_1_5,2022-04-27T12:51:01.649Z,,,,,,,,,,,,,,,,,54,,,,,,,,,,,,,,193.17999999999302,,response,,,,100,,,,,,,Space,keypress(Space),,,,,,,,-- --- ---- --- ------ crown ------- ---- -- --- ------- --<br>------- ---------- ------ -- ----- -- ----- -- ---- ------<br>--- ----- --- --- ------ -------- ----- --- ------ ----- --<br>----- ----- ---------- --- --- ------ ------ ---- -- ------<br>------- --- ------ ----- --- ---- ------- -- ---- --- --<br>------- ------,235089,235076,234878.6,234879,234882.82,235099.4,,5,crown
screen,html.Screen,2_1_1_1_6,2022-04-27T12:51:01.960Z,,,,,,,,,,,,,,,,,54,,,,,,,,,,,,,,287.6000000000058,,response,,,,100,,,,,,,Space,keypress(Space),,,,,,,,-- --- ---- --- ------ ----- secured ---- -- --- ------- --<br>------- ---------- ------ -- ----- -- ----- -- ---- ------<br>--- ----- --- --- ------ -------- ----- --- ------ ----- --<br>----- ----- ---------- --- --- ------ ------ ---- -- ------<br>------- --- ------ ----- --- ---- ------- -- ---- --- --<br>------- ------,235400,235387,235089.8,235089,235099.4,235415.96,,6,secured
screen,html.Screen,2_1_1_1_7,2022-04-27T12:51:02.216Z,,,,,,,,,,,,,,,,,54,,,,,,,,,,,,,,222.04000000000815,,response,,,,100,,,,,,,Space,keypress(Space),,,,,,,,-- --- ---- --- ------ ----- ------- much -- --- ------- --<br>------- ---------- ------ -- ----- -- ----- -- ---- ------<br>--- ----- --- --- ------ -------- ----- --- ------ ----- --<br>----- ----- ---------- --- --- ------ ------ ---- -- ------<br>------- --- ------ ----- --- ---- ------- -- ---- --- --<br>------- ------,235656,235638,235399.98,235400,235415.96,235665.88,,7,much
screen,html.Screen,2_1_1_1_8,2022-04-27T12:51:02.491Z,,,,,,,,,,,,,,,,,54,,,,,,,,,,,,,,254.11999999999534,,response,,,,100,,,,,,,Space,keypress(Space),,,,,,,,-- --- ---- --- ------ ----- ------- ---- of --- ------- --<br>------- ---------- ------ -- ----- -- ----- -- ---- ------<br>--- ----- --- --- ------ -------- ----- --- ------ ----- --<br>----- ----- ---------- --- --- ------ ------ ---- -- ------<br>------- --- ------ ----- --- ---- ------- -- ---- --- --<br>------- ------,235931,235920,235655.8,235656,235665.88,235932.46,,8,of
screen,html.Screen,2_1_1_1_9,2022-04-27T12:51:02.722Z,,,,,,,,,,,,,,,,,54,,,,,,,,,,,,,,221.54000000000815,,response,,,,100,,,,,,,Space,keypress(Space),,,,,,,,-- --- ---- --- ------ ----- ------- ---- -- its ------- --<br>------- ---------- ------ -- ----- -- ----- -- ---- ------<br>--- ----- --- --- ------ -------- ----- --- ------ ----- --<br>----- ----- ---------- --- --- ------ ------ ---- -- ------<br>------- --- ------ ----- --- ---- ------- -- ---- --- --<br>------- ------,236162,236154,235931.7,235931,235932.46,236165.7,,9,its
screen,html.Screen,2_1_1_1_10,2022-04-27T12:51:02.973Z,,,,,,,,,,,,,,,,,54,,,,,,,,,,,,,,238.29999999998836,,response,,,,100,,,,,,,Space,keypress(Space),,,,,,,,-- --- ---- --- ------ ----- ------- ---- -- --- revenue --<br>------- ---------- ------ -- ----- -- ----- -- ---- ------<br>--- ----- --- --- ------ -------- ----- --- ------ ----- --<br>----- ----- ---------- --- --- ------ ------ ---- -- ------<br>------- --- ------ ----- --- ---- ------- -- ---- --- --<br>------- ------,236413,236404,236162.14,236162,236165.7,236415.62,,10,revenue
screen,html.Screen,2_1_1_1_11,2022-04-27T12:51:03.284Z,,,,,,,,,,,,,,,,,54,,,,,,,,,,,,,,301.38000000000466,,response,,,,100,,,,,,,Space,keypress(Space),,,,,,,,-- --- ---- --- ------ ----- ------- ---- -- --- ------- by<br>------- ---------- ------ -- ----- -- ----- -- ---- ------<br>--- ----- --- --- ------ -------- ----- --- ------ ----- --<br>----- ----- ---------- --- --- ------ ------ ---- -- ------<br>------- --- ------ ----- --- ---- ------- -- ---- --- --<br>------- ------,236723,236717,236413,236413,236415.62,236732.18,,11,by
screen,html.Screen,2_1_1_1_12,2022-04-27T12:51:03.499Z,,,,,,,,,,,,,,,,,54,,,,,,,,,,,,,,202.82000000000698,,response,,,,100,,,,,,,Space,keypress(Space),,,,,,,,-- --- ---- --- ------ ----- ------- ---- -- --- ------- --<br>issuing ---------- ------ -- ----- -- ----- -- ---- ------<br>--- ----- --- --- ------ -------- ----- --- ------ ----- --<br>----- ----- ---------- --- --- ------ ------ ---- -- ------<br>------- --- ------ ----- --- ---- ------- -- ---- --- --<br>------- ------,236939,236935,236723.56,236723,236732.18,236948.78,,12,issuing
screen,html.Screen,2_1_1_1_13,2022-04-27T12:51:03.770Z,,,,,,,,,,,,,,,,,54,,,,,,,,,,,,,,252.22000000000116,,response,,,,100,,,,,,,Space,keypress(Space),,,,,,,,-- --- ---- --- ------ ----- ------- ---- -- --- ------- --<br>------- government ------ -- ----- -- ----- -- ---- ------<br>--- ----- --- --- ------ -------- ----- --- ------ ----- --<br>----- ----- ---------- --- --- ------ ------ ---- -- ------<br>------- --- ------ ----- --- ---- ------- -- ---- --- --<br>------- ------,237210,237201,236939.1,236939,236948.78,237215.36,,13,government
screen,html.Screen,2_1_1_1_14,2022-04-27T12:51:04.055Z,,,,,,,,,,,,,,,,,54,,,,,,,,,,,,,,266.64000000001397,,response,,,,100,,,,,,,Space,keypress(Space),,,,,,,,-- --- ---- --- ------ ----- ------- ---- -- --- ------- --<br>------- ---------- bonds. -- ----- -- ----- -- ---- ------<br>--- ----- --- --- ------ -------- ----- --- ------ ----- --<br>----- ----- ---------- --- --- ------ ------ ---- -- ------<br>------- --- ------ ----- --- ---- ------- -- ---- --- --<br>------- ------,237495,237482,237209.86,237210,237215.36,237498.58,,14,bonds.
screen,html.Screen,2_1_1_1_15,2022-04-27T12:51:04.537Z,,,,,,,,,,,,,,,,,54,,,,,,,,,,,,,,468.4200000000128,,response,,,,100,,,,,,,Space,keypress(Space),,,,,,,,-- --- ---- --- ------ ----- ------- ---- -- --- ------- --<br>------- ---------- ------ In ----- -- ----- -- ---- ------<br>--- ----- --- --- ------ -------- ----- --- ------ ----- --<br>----- ----- ---------- --- --- ------ ------ ---- -- ------<br>------- --- ------ ----- --- ---- ------- -- ---- --- --<br>------- ------,237977,237967,237495.62,237496,237498.58,237981.76,,15,In
screen,html.Screen,2_1_1_1_16,2022-04-27T12:51:04.737Z,,,,,,,,,,,,,,,,,54,,,,,,,,,,,,,,188.2399999999907,,response,,,,100,,,,,,,Space,keypress(Space),,,,,,,,"-- --- ---- --- ------ ----- ------- ---- -- --- ------- --<br>------- ---------- ------ -- 1727, -- ----- -- ---- ------<br>--- ----- --- --- ------ -------- ----- --- ------ ----- --<br>----- ----- ---------- --- --- ------ ------ ---- -- ------<br>------- --- ------ ----- --- ---- ------- -- ---- --- --<br>------- ------",238178,238170,237976.98,237977,237981.76,238181.68,,16,"1727,"
screen,html.Screen,2_1_1_1_17,2022-04-27T12:51:04.958Z,,,,,,,,,,,,,,,,,54,,,,,,,,,,,,,,206.32000000000698,,response,,,,100,,,,,,,Space,keypress(Space),,,,,,,,-- --- ---- --- ------ ----- ------- ---- -- --- ------- --<br>------- ---------- ------ -- ----- in ----- -- ---- ------<br>--- ----- --- --- ------ -------- ----- --- ------ ----- --<br>----- ----- ---------- --- --- ------ ------ ---- -- ------<br>------- --- ------ ----- --- ---- ------- -- ---- --- --<br>------- ------,238398,238388,238177.52,238178,238181.68,238398.28,,17,in
screen,html.Screen,2_1_1_1_18,2022-04-27T12:51:05.319Z,,,,,,,,,,,,,,,,,54,,,,,,,,,,,,,,349.72000000000116,,response,,,,100,,,,,,,Space,keypress(Space),,,,,,,,-- --- ---- --- ------ ----- ------- ---- -- --- ------- --<br>------- ---------- ------ -- ----- -- order -- ---- ------<br>--- ----- --- --- ------ -------- ----- --- ------ ----- --<br>----- ----- ---------- --- --- ------ ------ ---- -- ------<br>------- --- ------ ----- --- ---- ------- -- ---- --- --<br>------- ------,238758,238748,238398.06,238398,238398.28,238764.82,,18,order
screen,html.Screen,2_1_1_1_19,2022-04-27T12:51:06.226Z,,,,,,,,,,,,,,,,,54,,,,,,,,,,,,,,888.179999999993,,response,,,,100,,,,,,,Space,keypress(Space),,,,,,,,-- --- ---- --- ------ ----- ------- ---- -- --- ------- --<br>------- ---------- ------ -- ----- -- ----- to ---- ------<br>--- ----- --- --- ------ -------- ----- --- ------ ----- --<br>----- ----- ---------- --- --- ------ ------ ---- -- ------<br>------- --- ------ ----- --- ---- ------- -- ---- --- --<br>------- ------,239666,239653,238758.82,238758,238764.82,239681.18,,19,to
screen,html.Screen,2_1_1_1_20,2022-04-27T12:51:06.442Z,,,,,,,,,,,,,,,,,54,,,,,,,,,,,,,,191.82000000000698,,response,,,,100,,,,,,,Space,keypress(Space),,,,,,,,-- --- ---- --- ------ ----- ------- ---- -- --- ------- --<br>------- ---------- ------ -- ----- -- ----- -- save ------<br>--- ----- --- --- ------ -------- ----- --- ------ ----- --<br>----- ----- ---------- --- --- ------ ------ ---- -- ------<br>------- --- ------ ----- --- ---- ------- -- ---- --- --<br>------- ------,239882,239873,239666.22,239666,239681.18,239897.78,,20,save
screen,html.Screen,2_1_1_1_21,2022-04-27T12:51:06.627Z,,,,,,,,,,,,,,,,,54,,,,,,,,,,,,,,162.22000000000116,,response,,,,100,,,,,,,Space,keypress(Space),,,,,,,,"-- --- ---- --- ------ ----- ------- ---- -- --- ------- --<br>------- ---------- ------ -- ----- -- ----- -- ---- money,<br>--- ----- --- --- ------ -------- ----- --- ------ ----- --<br>----- ----- ---------- --- --- ------ ------ ---- -- ------<br>------- --- ------ ----- --- ---- ------- -- ---- --- --<br>------- ------",240067,240060,239881.88,239882,239897.78,240081.04,,21,"money,"
screen,html.Screen,2_1_1_1_22,2022-04-27T12:51:06.870Z,,,,,,,,,,,,,,,,,54,,,,,,,,,,,,,,213.95999999999185,,response,,,,100,,,,,,,Space,keypress(Space),,,,,,,,-- --- ---- --- ------ ----- ------- ---- -- --- ------- --<br>------- ---------- ------ -- ----- -- ----- -- ---- ------<br>the ----- --- --- ------ -------- ----- --- ------ ----- --<br>----- ----- ---------- --- --- ------ ------ ---- -- ------<br>------- --- ------ ----- --- ---- ------- -- ---- --- --<br>------- ------,240310,240295,240067.4,240067,240081.04,240314.3,,22,the
screen,html.Screen,2_1_1_1_23,2022-04-27T12:51:07.094Z,,,,,,,,,,,,,,,,,54,,,,,,,,,,,,,,213.70000000001164,,response,,,,100,,,,,,,Space,keypress(Space),,,,,,,,-- --- ---- --- ------ ----- ------- ---- -- --- ------- --<br>------- ---------- ------ -- ----- -- ----- -- ---- ------<br>--- state --- --- ------ -------- ----- --- ------ ----- --<br>----- ----- ---------- --- --- ------ ------ ---- -- ------<br>------- --- ------ ----- --- ---- ------- -- ---- --- --<br>------- ------,240533,240528,240309.24,240310,240314.3,240547.56,,23,state
screen,html.Screen,2_1_1_1_24,2022-04-27T12:51:07.329Z,,,,,,,,,,,,,,,,,54,,,,,,,,,,,,,,215.44000000000233,,response,,,,100,,,,,,,Space,keypress(Space),,,,,,,,-- --- ---- --- ------ ----- ------- ---- -- --- ------- --<br>------- ---------- ------ -- ----- -- ----- -- ---- ------<br>--- ----- cut --- ------ -------- ----- --- ------ ----- --<br>----- ----- ---------- --- --- ------ ------ ---- -- ------<br>------- --- ------ ----- --- ---- ------- -- ---- --- --<br>------- ------,240768,240763,240533.54,240533,240547.56,240780.8,,24,cut
screen,html.Screen,2_1_1_1_25,2022-04-27T12:51:07.525Z,,,,,,,,,,,,,,,,,54,,,,,,,,,,,,,,170.20000000001164,,response,,,,100,,,,,,,Space,keypress(Space),,,,,,,,-- --- ---- --- ------ ----- ------- ---- -- --- ------- --<br>------- ---------- ------ -- ----- -- ----- -- ---- ------<br>--- ----- --- the ------ -------- ----- --- ------ ----- --<br>----- ----- ---------- --- --- ------ ------ ---- -- ------<br>------- --- ------ ----- --- ---- ------- -- ---- --- --<br>------- ------,240965,240951,240769.14,240769,240780.8,240980.74,,25,the
screen,html.Screen,2_1_1_1_26,2022-04-27T12:51:07.756Z,,,,,,,,,,,,,,,,,54,,,,,,,,,,,,,,204.2600000000093,,response,,,,100,,,,,,,Space,keypress(Space),,,,,,,,-- --- ---- --- ------ ----- ------- ---- -- --- ------- --<br>------- ---------- ------ -- ----- -- ----- -- ---- ------<br>--- ----- --- --- bonds' -------- ----- --- ------ ----- --<br>----- ----- ---------- --- --- ------ ------ ---- -- ------<br>------- --- ------ ----- --- ---- ------- -- ---- --- --<br>------- ------,241195,241185,240965.02,240965,240980.74,241197.32,,26,bonds'
screen,html.Screen,2_1_1_1_27,2022-04-27T12:51:08.023Z,,,,,,,,,,,,,,,,,54,,,,,,,,,,,,,,253.67999999999302,,response,,,,100,,,,,,,Space,keypress(Space),,,,,,,,-- --- ---- --- ------ ----- ------- ---- -- --- ------- --<br>------- ---------- ------ -- ----- -- ----- -- ---- ------<br>--- ----- --- --- ------ interest ----- --- ------ ----- --<br>----- ----- ---------- --- --- ------ ------ ---- -- ------<br>------- --- ------ ----- --- ---- ------- -- ---- --- --<br>------- ------,241463,241451,241195.44,241195,241197.32,241463.9,,27,interest
screen,html.Screen,2_1_1_1_28,2022-04-27T12:51:09.227Z,,,,,,,,,,,,,,,,,54,,,,,,,,,,,,,,1190.1000000000058,,response,,,,100,,,,,,,Space,keypress(Space),,,,,,,,-- --- ---- --- ------ ----- ------- ---- -- --- ------- --<br>------- ---------- ------ -- ----- -- ----- -- ---- ------<br>--- ----- --- --- ------ -------- rate. --- ------ ----- --<br>----- ----- ---------- --- --- ------ ------ ---- -- ------<br>------- --- ------ ----- --- ---- ------- -- ---- --- --<br>------- ------,242666,242654,241462.98,241463,241463.9,242680.16,,28,rate.
screen,html.Screen,2_1_1_1_29,2022-04-27T12:51:09.465Z,,,,,,,,,,,,,,,,,54,,,,,,,,,,,,,,207.8399999999965,,response,,,,100,,,,,,,Space,keypress(Space),,,,,,,,-- --- ---- --- ------ ----- ------- ---- -- --- ------- --<br>------- ---------- ------ -- ----- -- ----- -- ---- ------<br>--- ----- --- --- ------ -------- ----- The ------ ----- --<br>----- ----- ---------- --- --- ------ ------ ---- -- ------<br>------- --- ------ ----- --- ---- ------- -- ---- --- --<br>------- ------,242905,242888,242666.58,242666,242680.16,242913.42,,29,The
screen,html.Screen,2_1_1_1_30,2022-04-27T12:51:10.128Z,,,,,,,,,,,,,,,,,54,,,,,,,,,,,,,,646.5799999999872,,response,,,,100,,,,,,,Space,keypress(Space),,,,,,,,-- --- ---- --- ------ ----- ------- ---- -- --- ------- --<br>------- ---------- ------ -- ----- -- ----- -- ---- ------<br>--- ----- --- --- ------ -------- ----- --- market ----- --<br>----- ----- ---------- --- --- ------ ------ ---- -- ------<br>------- --- ------ ----- --- ---- ------- -- ---- --- --<br>------- ------,243568,243560,242904.98,242905,242913.42,243579.86,,30,market
screen,html.Screen,2_1_1_1_31,2022-04-27T12:51:10.552Z,,,,,,,,,,,,,,,,,54,,,,,,,,,,,,,,402.14000000001397,,response,,,,100,,,,,,,Space,keypress(Space),,,,,,,,-- --- ---- --- ------ ----- ------- ---- -- --- ------- --<br>------- ---------- ------ -- ----- -- ----- -- ---- ------<br>--- ----- --- --- ------ -------- ----- --- ------ value --<br>----- ----- ---------- --- --- ------ ------ ---- -- ------<br>------- --- ------ ----- --- ---- ------- -- ---- --- --<br>------- ------,243993,243982,243568.24,243568,243579.86,243996.38,,31,value
screen,html.Screen,2_1_1_1_32,2022-04-27T12:51:10.813Z,,,,,,,,,,,,,,,,,54,,,,,,,,,,,,,,251.61999999999534,,response,,,,100,,,,,,,Space,keypress(Space),,,,,,,,-- --- ---- --- ------ ----- ------- ---- -- --- ------- --<br>------- ---------- ------ -- ----- -- ----- -- ---- ------<br>--- ----- --- --- ------ -------- ----- --- ------ ----- of<br>----- ----- ---------- --- --- ------ ------ ---- -- ------<br>------- --- ------ ----- --- ---- ------- -- ---- --- --<br>------- ------,244253,244248,243992.82,243993,243996.38,244262.96,,32,of
screen,html.Screen,2_1_1_1_33,2022-04-27T12:51:10.989Z,,,,,,,,,,,,,,,,,54,,,,,,,,,,,,,,156.04000000000815,,response,,,,100,,,,,,,Space,keypress(Space),,,,,,,,-- --- ---- --- ------ ----- ------- ---- -- --- ------- --<br>------- ---------- ------ -- ----- -- ----- -- ---- ------<br>--- ----- --- --- ------ -------- ----- --- ------ ----- --<br>these ----- ---------- --- --- ------ ------ ---- -- ------<br>------- --- ------ ----- --- ---- ------- -- ---- --- --<br>------- ------,244429,244419,244253.42,244253,244262.96,244429.56,,33,these
screen,html.Screen,2_1_1_1_34,2022-04-27T12:51:11.185Z,,,,,,,,,,,,,,,,,54,,,,,,,,,,,,,,177.44000000000233,,response,,,,100,,,,,,,Space,keypress(Space),,,,,,,,-- --- ---- --- ------ ----- ------- ---- -- --- ------- --<br>------- ---------- ------ -- ----- -- ----- -- ---- ------<br>--- ----- --- --- ------ -------- ----- --- ------ ----- --<br>----- bonds ---------- --- --- ------ ------ ---- -- ------<br>------- --- ------ ----- --- ---- ------- -- ---- --- --<br>------- ------,244625,244607,244428.9,244429,244429.56,244629.5,,34,bonds
screen,html.Screen,2_1_1_1_35,2022-04-27T12:51:11.596Z,,,,,,,,,,,,,,,,,54,,,,,,,,,,,,,,399.5,,response,,,,100,,,,,,,Space,keypress(Space),,,,,,,,"-- --- ---- --- ------ ----- ------- ---- -- --- ------- --<br>------- ---------- ------ -- ----- -- ----- -- ---- ------<br>--- ----- --- --- ------ -------- ----- --- ------ ----- --<br>----- ----- plummeted, --- --- ------ ------ ---- -- ------<br>------- --- ------ ----- --- ---- ------- -- ---- --- --<br>------- ------",245035,245029,244624.6,244625,244629.5,245046.02,,35,"plummeted,"
screen,html.Screen,2_1_1_1_36,2022-04-27T12:51:11.892Z,,,,,,,,,,,,,,,,,54,,,,,,,,,,,,,,279.9800000000105,,response,,,,100,,,,,,,Space,keypress(Space),,,,,,,,-- --- ---- --- ------ ----- ------- ---- -- --- ------- --<br>------- ---------- ------ -- ----- -- ----- -- ---- ------<br>--- ----- --- --- ------ -------- ----- --- ------ ----- --<br>----- ----- ---------- and --- ------ ------ ---- -- ------<br>------- --- ------ ----- --- ---- ------- -- ---- --- --<br>------- ------,245331,245326,245035.72,245035,245046.02,245345.92,,36,and
screen,html.Screen,2_1_1_1_37,2022-04-27T12:51:12.057Z,,,,,,,,,,,,,,,,,54,,,,,,,,,,,,,,136.0799999999872,,response,,,,100,,,,,,,Space,keypress(Space),,,,,,,,-- --- ---- --- ------ ----- ------- ---- -- --- ------- --<br>------- ---------- ------ -- ----- -- ----- -- ---- ------<br>--- ----- --- --- ------ -------- ----- --- ------ ----- --<br>----- ----- ---------- --- the ------ ------ ---- -- ------<br>------- --- ------ ----- --- ---- ------- -- ---- --- --<br>------- ------,245497,245482,245331.34,245331,245345.92,245512.52,,37,the
screen,html.Screen,2_1_1_1_38,2022-04-27T12:51:12.228Z,,,,,,,,,,,,,,,,,54,,,,,,,,,,,,,,140.48000000001048,,response,,,,100,,,,,,,Space,keypress(Space),,,,,,,,-- --- ---- --- ------ ----- ------- ---- -- --- ------- --<br>------- ---------- ------ -- ----- -- ----- -- ---- ------<br>--- ----- --- --- ------ -------- ----- --- ------ ----- --<br>----- ----- ---------- --- --- market ------ ---- -- ------<br>------- --- ------ ----- --- ---- ------- -- ---- --- --<br>------- ------,245668,245653,245496.88,245497,245512.52,245679.14,,38,market
screen,html.Screen,2_1_1_1_39,2022-04-27T12:51:12.393Z,,,,,,,,,,,,,,,,,54,,,,,,,,,,,,,,146.85999999998603,,response,,,,100,,,,,,,Space,keypress(Space),,,,,,,,-- --- ---- --- ------ ----- ------- ---- -- --- ------- --<br>------- ---------- ------ -- ----- -- ----- -- ---- ------<br>--- ----- --- --- ------ -------- ----- --- ------ ----- --<br>----- ----- ---------- --- --- ------ became ---- -- ------<br>------- --- ------ ----- --- ---- ------- -- ---- --- --<br>------- ------,245833,245826,245667.52,245668,245679.14,245845.74,,39,became
screen,html.Screen,2_1_1_1_40,2022-04-27T12:51:12.573Z,,,,,,,,,,,,,,,,,54,,,,,,,,,,,,,,152.2600000000093,,response,,,,100,,,,,,,Space,keypress(Space),,,,,,,,-- --- ---- --- ------ ----- ------- ---- -- --- ------- --<br>------- ---------- ------ -- ----- -- ----- -- ---- ------<br>--- ----- --- --- ------ -------- ----- --- ------ ----- --<br>----- ----- ---------- --- --- ------ ------ wary -- ------<br>------- --- ------ ----- --- ---- ------- -- ---- --- --<br>------- ------,246013,245998,245832.78,245833,245845.74,246029.02,,40,wary
screen,html.Screen,2_1_1_1_41,2022-04-27T12:51:12.815Z,,,,,,,,,,,,,,,,,54,,,,,,,,,,,,,,218.98000000001048,,response,,,,100,,,,,,,Space,keypress(Space),,,,,,,,-- --- ---- --- ------ ----- ------- ---- -- --- ------- --<br>------- ---------- ------ -- ----- -- ----- -- ---- ------<br>--- ----- --- --- ------ -------- ----- --- ------ ----- --<br>----- ----- ---------- --- --- ------ ------ ---- of ------<br>------- --- ------ ----- --- ---- ------- -- ---- --- --<br>------- ------,246255,246248,246013.22,246013,246029.02,246262.28,,41,of
screen,html.Screen,2_1_1_1_42,2022-04-27T12:51:13.120Z,,,,,,,,,,,,,,,,,54,,,,,,,,,,,,,,282.72000000000116,,response,,,,100,,,,,,,Space,keypress(Space),,,,,,,,-- --- ---- --- ------ ----- ------- ---- -- --- ------- --<br>------- ---------- ------ -- ----- -- ----- -- ---- ------<br>--- ----- --- --- ------ -------- ----- --- ------ ----- --<br>----- ----- ---------- --- --- ------ ------ ---- -- French<br>------- --- ------ ----- --- ---- ------- -- ---- --- --<br>------- ------,246559,246545,246255.26,246255,246262.28,246562.16,,42,French
screen,html.Screen,2_1_1_1_43,2022-04-27T12:51:13.421Z,,,,,,,,,,,,,,,,,54,,,,,,,,,,,,,,294.8399999999965,,response,,,,100,,,,,,,Space,keypress(Space),,,,,,,,-- --- ---- --- ------ ----- ------- ---- -- --- ------- --<br>------- ---------- ------ -- ----- -- ----- -- ---- ------<br>--- ----- --- --- ------ -------- ----- --- ------ ----- --<br>----- ----- ---------- --- --- ------ ------ ---- -- ------<br>credit. --- ------ ----- --- ---- ------- -- ---- --- --<br>------- ------,246861,246857,246559.82,246560,246562.16,246862.06,,43,credit.
screen,html.Screen,2_1_1_1_44,2022-04-27T12:51:13.762Z,,,,,,,,,,,,,,,,,54,,,,,,,,,,,,,,322.9400000000023,,response,,,,100,,,,,,,Space,keypress(Space),,,,,,,,-- --- ---- --- ------ ----- ------- ---- -- --- ------- --<br>------- ---------- ------ -- ----- -- ----- -- ---- ------<br>--- ----- --- --- ------ -------- ----- --- ------ ----- --<br>----- ----- ---------- --- --- ------ ------ ---- -- ------<br>------- The ------ ----- --- ---- ------- -- ---- --- --<br>------- ------,247201,247185,246860.66,246861,246862.06,247211.94,,44,The
screen,html.Screen,2_1_1_1_45,2022-04-27T12:51:13.943Z,,,,,,,,,,,,,,,,,54,,,,,,,,,,,,,,161.05999999999767,,response,,,,100,,,,,,,Space,keypress(Space),,,,,,,,-- --- ---- --- ------ ----- ------- ---- -- --- ------- --<br>------- ---------- ------ -- ----- -- ----- -- ---- ------<br>--- ----- --- --- ------ -------- ----- --- ------ ----- --<br>----- ----- ---------- --- --- ------ ------ ---- -- ------<br>------- --- French ----- --- ---- ------- -- ---- --- --<br>------- ------,247382,247373,247201.52,247202,247211.94,247395.22,,45,French
screen,html.Screen,2_1_1_1_46,2022-04-27T12:51:14.213Z,,,,,,,,,,,,,,,,,54,,,,,,,,,,,,,,242.77999999999884,,response,,,,100,,,,,,,Space,keypress(Space),,,,,,,,-- --- ---- --- ------ ----- ------- ---- -- --- ------- --<br>------- ---------- ------ -- ----- -- ----- -- ---- ------<br>--- ----- --- --- ------ -------- ----- --- ------ ----- --<br>----- ----- ---------- --- --- ------ ------ ---- -- ------<br>------- --- ------ state --- ---- ------- -- ---- --- --<br>------- ------,247652,247638,247382.58,247382,247395.22,247661.8,,46,state
screen,html.Screen,2_1_1_1_47,2022-04-27T12:51:14.399Z,,,,,,,,,,,,,,,,,54,,,,,,,,,,,,,,164.20000000001164,,response,,,,100,,,,,,,Space,keypress(Space),,,,,,,,-- --- ---- --- ------ ----- ------- ---- -- --- ------- --<br>------- ---------- ------ -- ----- -- ----- -- ---- ------<br>--- ----- --- --- ------ -------- ----- --- ------ ----- --<br>----- ----- ---------- --- --- ------ ------ ---- -- ------<br>------- --- ------ ----- was ---- ------- -- ---- --- --<br>------- ------,247838,247826,247653.06,247653,247661.8,247845.06,,47,was
screen,html.Screen,2_1_1_1_48,2022-04-27T12:51:14.599Z,,,,,,,,,,,,,,,,,54,,,,,,,,,,,,,,183.94000000000233,,response,,,,100,,,,,,,Space,keypress(Space),,,,,,,,-- --- ---- --- ------ ----- ------- ---- -- --- ------- --<br>------- ---------- ------ -- ----- -- ----- -- ---- ------<br>--- ----- --- --- ------ -------- ----- --- ------ ----- --<br>----- ----- ---------- --- --- ------ ------ ---- -- ------<br>------- --- ------ ----- --- left ------- -- ---- --- --<br>------- ------,248039,248029,247838.38,247838,247845.06,248045,,48,left
screen,html.Screen,2_1_1_1_49,2022-04-27T12:51:14.790Z,,,,,,,,,,,,,,,,,54,,,,,,,,,,,,,,172,,response,,,,100,,,,,,,Space,keypress(Space),,,,,,,,-- --- ---- --- ------ ----- ------- ---- -- --- ------- --<br>------- ---------- ------ -- ----- -- ----- -- ---- ------<br>--- ----- --- --- ------ -------- ----- --- ------ ----- --<br>----- ----- ---------- --- --- ------ ------ ---- -- ------<br>------- --- ------ ----- --- ---- without -- ---- --- --<br>------- ------,248229,248217,248038.8,248039,248045,248244.92,,49,without
screen,html.Screen,2_1_1_1_50,2022-04-27T12:51:15.015Z,,,,,,,,,,,,,,,,,54,,,,,,,,,,,,,,206.0799999999872,,response,,,,100,,,,,,,Space,keypress(Space),,,,,,,,-- --- ---- --- ------ ----- ------- ---- -- --- ------- --<br>------- ---------- ------ -- ----- -- ----- -- ---- ------<br>--- ----- --- --- ------ -------- ----- --- ------ ----- --<br>----- ----- ---------- --- --- ------ ------ ---- -- ------<br>------- --- ------ ----- --- ---- ------- an ---- --- --<br>------- ------,248455,248451,248229.48,248229,248244.92,248461.52,,50,an
screen,html.Screen,2_1_1_1_51,2022-04-27T12:51:15.242Z,,,,,,,,,,,,,,,,,54,,,,,,,,,,,,,,208.48000000001048,,response,,,,100,,,,,,,Space,keypress(Space),,,,,,,,-- --- ---- --- ------ ----- ------- ---- -- --- ------- --<br>------- ---------- ------ -- ----- -- ----- -- ---- ------<br>--- ----- --- --- ------ -------- ----- --- ------ ----- --<br>----- ----- ---------- --- --- ------ ------ ---- -- ------<br>------- --- ------ ----- --- ---- ------- -- easy --- --<br>------- ------,248682,248670,248454.66,248455,248461.52,248694.78,,51,easy
screen,html.Screen,2_1_1_1_52,2022-04-27T12:51:15.526Z,,,,,,,,,,,,,,,,,54,,,,,,,,,,,,,,256.22000000000116,,response,,,,100,,,,,,,Space,keypress(Space),,,,,,,,-- --- ---- --- ------ ----- ------- ---- -- --- ------- --<br>------- ---------- ------ -- ----- -- ----- -- ---- ------<br>--- ----- --- --- ------ -------- ----- --- ------ ----- --<br>----- ----- ---------- --- --- ------ ------ ---- -- ------<br>------- --- ------ ----- --- ---- ------- -- ---- way --<br>------- ------,248966,248951,248682.28,248682,248694.78,248978.02,,52,way
screen,html.Screen,2_1_1_1_53,2022-04-27T12:51:15.787Z,,,,,,,,,,,,,,,,,54,,,,,,,,,,,,,,238.98000000001048,,response,,,,100,,,,,,,Space,keypress(Space),,,,,,,,-- --- ---- --- ------ ----- ------- ---- -- --- ------- --<br>------- ---------- ------ -- ----- -- ----- -- ---- ------<br>--- ----- --- --- ------ -------- ----- --- ------ ----- --<br>----- ----- ---------- --- --- ------ ------ ---- -- ------<br>------- --- ------ ----- --- ---- ------- -- ---- --- of<br>------- ------,249227,249217,248966.38,248966,248978.02,249227.92,,53,of
screen,html.Screen,2_1_1_1_54,2022-04-27T12:51:16.018Z,,,,,,,,,,,,,,,,,54,,,,,,,,,,,,,,223.0799999999872,,response,,,,100,,,,,,,Space,keypress(Space),,,,,,,,-- --- ---- --- ------ ----- ------- ---- -- --- ------- --<br>------- ---------- ------ -- ----- -- ----- -- ---- ------<br>--- ----- --- --- ------ -------- ----- --- ------ ----- --<br>----- ----- ---------- --- --- ------ ------ ---- -- ------<br>------- --- ------ ----- --- ---- ------- -- ---- --- --<br>raising ------,249457,249451,249226.96,249227,249227.92,249461.18,,54,raising
screen,html.Screen,2_1_1_1_55,2022-04-27T12:51:16.393Z,,,,,,,,,,,,,,,,,54,,,,,,,,,,,,,,363.820000000007,,response,,,,100,,,,,,,Space,keypress(Space),,,,,,,,-- --- ---- --- ------ ----- ------- ---- -- --- ------- --<br>------- ---------- ------ -- ----- -- ----- -- ---- ------<br>--- ----- --- --- ------ -------- ----- --- ------ ----- --<br>----- ----- ---------- --- --- ------ ------ ---- -- ------<br>------- --- ------ ----- --- ---- ------- -- ---- --- --<br>------- money.,249834,249825,249457.7,249458,249461.18,249844.38,,55,money.
Item 100,flow.Loop,2_1_1_1,2022-04-27T12:51:16.394Z,,,,,,,,,,,,,,,,,,,,,,,,,,,,,,,16158.440000000002,,completion,,,,,C,,,,,,,,,,,silence,,,,,249834,249825,233649.9,233651,233666.56,249844.38,,,
Question 1,html.Screen,2_1_1_2,2022-04-27T12:51:18.713Z,,,,,,,,,,,,,,,,,,,,,,,,,,,,true,TRUE,,2293.6199999999953,,response,,,,100,C,,,,,,TRUE,click #choice-1,,,,silence,,,,,252152,252138,249833.92,249834,249844.38,252160.26,,,
Question 2,html.Screen,2_1_1_3,2022-04-27T12:51:20.363Z,,,,,,,,,,,,,,,,,,,,,,,,,,,,true,FALSE,,1634.7399999999907,,response,,,,100,C,,,,,,FALSE,click #choice-2,,,,silence,,,,,253802,253795,252151.02,252153,252160.26,253809.7,,,
Item 100,flow.Sequence,2_1_1,2022-04-27T12:51:20.363Z,,,,,,,,,,,,,,,,,,,,,,,,,,,,,,,30125.040000000008,,completion,,,,,,,,,,,,,,,,,,,,,253803,253795,223663.9,223666,223669.96,253809.7,,,
End of Practice,html.Page,2_1_2,2022-04-27T12:51:23.804Z,,,,,,,,,,,,,,,,,,,,,,,,,,,,,,,3433.2999999999884,,form submission,,,,,,,,,,,,,,,,,,,,,257244,257243,253801.1,253803,253809.7,257241.86,,,
Practice,flow.Sequence,2_1,2022-04-27T12:51:23.805Z,,,,,,,,,,,,,,,,,,,,,,,,,,,,,,,62796.42000000001,,completion,,,,,,,,,,,,,,,,,,,,,257244,257243,194446.3,194454,194446.58,257241.86,,,
Trap_instruction,html.Page,2_2_0,2022-04-27T12:51:26.428Z,,,,,,,,,,,,,,,,,,,,,,,,,,,,,,,2626.140000000014,,form submission,,,,,,,,,,,,,,,,,,,,,259868,259868,257238.98,257245,257241.86,259874.3,,,
trap_trial,html.Screen,2_2_1,2022-04-27T12:51:28.783Z,,,,,,,,,,,,,,,,,,,,,,,,,,,,true,1,,2342.7000000000116,,response,,,,,,,,,,,1,click #choice-1,,,,,,,,,262222,262217,259864.04,259868,259874.3,262223.5,,,
end of trap trial,html.Page,2_2_2,2022-04-27T12:51:30.604Z,,,,,,,,,,,,,,,,,,,,,,,,,,,,,,,1818.5,,form submission,,,,,,,,,,,,,,,,,,,,,264044,264042,262221,262223,262223.5,264039.56,,,
Trap 1,flow.Sequence,2_2,2022-04-27T12:51:30.604Z,,,,,,,,,,,,,,,,,,,,,,,,,,,,,,,6800.140000000014,,completion,,,,,,,,,,,,,,,,,,,,,264044,264042,257238.98,257245,257241.86,264039.56,,,
Standby,html.Page,2_3_0,2022-04-27T12:51:38.582Z,,,,,,,,,,,,,,,,,,,,,,,,,,,,,,,7997.280000000028,,timeout,,,,,,,,,,,,,,,,,,,,,272022,272020.18,264038.16,264044,264039.56,272036.84,,,
Holding screen,html.Screen,2_3_1_0_0,2022-04-27T12:51:45.579Z,,,,,,,,,,,,,,,,,,,,,,,,,,,,,,,6997.599999999977,,timeout,,,,,,,,,,,,,,,,,,,,,279018,279017.78,272020.18,272022,272036.84,279034.44,,,
screen,html.Screen,2_3_1_0_1_0,2022-04-27T12:51:46.342Z,,,,,,,,,,,,,,,,,12,,,,,,,,,,,,,,744.5599999999977,,response,,,,5,C,,,,,,Space,keypress(Space),,,,instrumental,,,,Some ------ ------ ------- ------ --- ------- -----------<br>-- ----- --- ---- -- --- ------ ---- - ---- -- ----------<br>-- ------ ---- --- ---- --- --- --- ----- -- -------- ---<br>------ ------- -------- --- ---- -- ------- ------------ --<br>------ -- ---- -- --- ---- -- -------- -- --- ------ ------,279782,279779,279017.78,279019,279034.44,279784.2,,0,Some
screen,html.Screen,2_3_1_0_1_1,2022-04-27T12:51:46.693Z,,,,,,,,,,,,,,,,,12,,,,,,,,,,,,,,338.79999999998836,,response,,,,5,C,,,,,,Space,keypress(Space),,,,instrumental,,,,---- months ------ ------- ------ --- ------- -----------<br>-- ----- --- ---- -- --- ------ ---- - ---- -- ----------<br>-- ------ ---- --- ---- --- --- --- ----- -- -------- ---<br>------ ------- -------- --- ---- -- ------- ------------ --<br>------ -- ---- -- --- ---- -- -------- -- --- ------ ------,280133,280123,279782.1,279782,279784.2,280134.08,,1,months
screen,html.Screen,2_3_1_0_1_2,2022-04-27T12:51:46.979Z,,,,,,,,,,,,,,,,,12,,,,,,,,,,,,,,268.9199999999837,,response,,,,5,C,,,,,,Space,keypress(Space),,,,instrumental,,,,"---- ------ later, ------- ------ --- ------- -----------<br>-- ----- --- ---- -- --- ------ ---- - ---- -- ----------<br>-- ------ ---- --- ---- --- --- --- ----- -- -------- ---<br>------ ------- -------- --- ---- -- ------- ------------ --<br>------ -- ---- -- --- ---- -- -------- -- --- ------ ------",280419,280403,280132.86,280133,280134.08,280433.98,,2,"later,"
screen,html.Screen,2_3_1_0_1_3,2022-04-27T12:51:47.334Z,,,,,,,,,,,,,,,,,12,,,,,,,,,,,,,,328.0200000000186,,response,,,,5,C,,,,,,Space,keypress(Space),,,,instrumental,,,,---- ------ ------ Michael ------ --- ------- -----------<br>-- ----- --- ---- -- --- ------ ---- - ---- -- ----------<br>-- ------ ---- --- ---- --- --- --- ----- -- -------- ---<br>------ ------- -------- --- ---- -- ------- ------------ --<br>------ -- ---- -- --- ---- -- -------- -- --- ------ ------,280774,280762,280418.82,280419,280433.98,280783.86,,3,Michael
screen,html.Screen,2_3_1_0_1_4,2022-04-27T12:51:47.636Z,,,,,,,,,,,,,,,,,12,,,,,,,,,,,,,,276.14000000001397,,response,,,,5,C,,,,,,Space,keypress(Space),,,,instrumental,,,,---- ------ ------ ------- Larson --- ------- -----------<br>-- ----- --- ---- -- --- ------ ---- - ---- -- ----------<br>-- ------ ---- --- ---- --- --- --- ----- -- -------- ---<br>------ ------- -------- --- ---- -- ------- ------------ --<br>------ -- ---- -- --- ---- -- -------- -- --- ------ ------,281076,281060,280774.7,280774,280783.86,281083.76,,4,Larson
screen,html.Screen,2_3_1_0_1_5,2022-04-27T12:51:48.212Z,,,,,,,,,,,,,,,,,12,,,,,,,,,,,,,,554.2399999999907,,response,,,,5,C,,,,,,Space,keypress(Space),,,,instrumental,,,,---- ------ ------ ------- ------ saw ------- -----------<br>-- ----- --- ---- -- --- ------ ---- - ---- -- ----------<br>-- ------ ---- --- ---- --- --- --- ----- -- -------- ---<br>------ ------- -------- --- ---- -- ------- ------------ --<br>------ -- ---- -- --- ---- -- -------- -- --- ------ ------,281652,281638,281075.74,281076,281083.76,281666.88,,5,saw
screen,html.Screen,2_3_1_0_1_6,2022-04-27T12:51:48.498Z,,,,,,,,,,,,,,,,,12,,,,,,,,,,,,,,267.11999999999534,,response,,,,5,C,,,,,,Space,keypress(Space),,,,instrumental,,,,---- ------ ------ ------- ------ --- another -----------<br>-- ----- --- ---- -- --- ------ ---- - ---- -- ----------<br>-- ------ ---- --- ---- --- --- --- ----- -- -------- ---<br>------ ------- -------- --- ---- -- ------- ------------ --<br>------ -- ---- -- --- ---- -- -------- -- --- ------ ------,281938,281934,281652.16,281652,281666.88,281950.12,,6,another
screen,html.Screen,2_3_1_0_1_7,2022-04-27T12:51:48.713Z,,,,,,,,,,,,,,,,,12,,,,,,,,,,,,,,186.88000000000466,,response,,,,5,C,,,,,,Space,keypress(Space),,,,instrumental,,,,---- ------ ------ ------- ------ --- ------- opportunity<br>-- ----- --- ---- -- --- ------ ---- - ---- -- ----------<br>-- ------ ---- --- ---- --- --- --- ----- -- -------- ---<br>------ ------- -------- --- ---- -- ------- ------------ --<br>------ -- ---- -- --- ---- -- -------- -- --- ------ ------,282153,282137,281938.14,281938,281950.12,282166.72,,7,opportunity
screen,html.Screen,2_3_1_0_1_8,2022-04-27T12:51:48.964Z,,,,,,,,,,,,,,,,,12,,,,,,,,,,,,,,221.28000000002794,,response,,,,5,C,,,,,,Space,keypress(Space),,,,instrumental,,,,---- ------ ------ ------- ------ --- ------- -----------<br>to ----- --- ---- -- --- ------ ---- - ---- -- ----------<br>-- ------ ---- --- ---- --- --- --- ----- -- -------- ---<br>------ ------- -------- --- ---- -- ------- ------------ --<br>------ -- ---- -- --- ---- -- -------- -- --- ------ ------,282404,282388,282153.76,282154,282166.72,282416.64,,8,to
screen,html.Screen,2_3_1_0_1_9,2022-04-27T12:51:49.275Z,,,,,,,,,,,,,,,,,12,,,,,,,,,,,,,,284.35999999998603,,response,,,,5,C,,,,,,Space,keypress(Space),,,,instrumental,,,,---- ------ ------ ------- ------ --- ------- -----------<br>-- stack --- ---- -- --- ------ ---- - ---- -- ----------<br>-- ------ ---- --- ---- --- --- --- ----- -- -------- ---<br>------ ------- -------- --- ---- -- ------- ------------ --<br>------ -- ---- -- --- ---- -- -------- -- --- ------ ------,282715,282701,282404.46,282405,282416.64,282716.52,,9,stack
screen,html.Screen,2_3_1_0_1_10,2022-04-27T12:51:49.516Z,,,,,,,,,,,,,,,,,12,,,,,,,,,,,,,,233.47999999998137,,response,,,,5,C,,,,,,Space,keypress(Space),,,,instrumental,,,,---- ------ ------ ------- ------ --- ------- -----------<br>-- ----- the ---- -- --- ------ ---- - ---- -- ----------<br>-- ------ ---- --- ---- --- --- --- ----- -- -------- ---<br>------ ------- -------- --- ---- -- ------- ------------ --<br>------ -- ---- -- --- ---- -- -------- -- --- ------ ------,282955,282950,282715.08,282715,282716.52,282966.44,,10,the
screen,html.Screen,2_3_1_0_1_11,2022-04-27T12:51:49.756Z,,,,,,,,,,,,,,,,,12,,,,,,,,,,,,,,218.55999999999767,,response,,,,5,C,,,,,,Space,keypress(Space),,,,instrumental,,,,---- ------ ------ ------- ------ --- ------- -----------<br>-- ----- --- odds -- --- ------ ---- - ---- -- ----------<br>-- ------ ---- --- ---- --- --- --- ----- -- -------- ---<br>------ ------- -------- --- ---- -- ------- ------------ --<br>------ -- ---- -- --- ---- -- -------- -- --- ------ ------,283196,283185,282955.64,282955,282966.44,283199.7,,11,odds
screen,html.Screen,2_3_1_0_1_12,2022-04-27T12:51:49.987Z,,,,,,,,,,,,,,,,,12,,,,,,,,,,,,,,219.29999999998836,,response,,,,5,C,,,,,,Space,keypress(Space),,,,instrumental,,,,---- ------ ------ ------- ------ --- ------- -----------<br>-- ----- --- ---- in --- ------ ---- - ---- -- ----------<br>-- ------ ---- --- ---- --- --- --- ----- -- -------- ---<br>------ ------- -------- --- ---- -- ------- ------------ --<br>------ -- ---- -- --- ---- -- -------- -- --- ------ ------,283427,283419,283196.52,283196,283199.7,283432.96,,12,in
screen,html.Screen,2_3_1_0_1_13,2022-04-27T12:51:50.208Z,,,,,,,,,,,,,,,,,12,,,,,,,,,,,,,,205.03999999997905,,response,,,,5,C,,,,,,Space,keypress(Space),,,,instrumental,,,,---- ------ ------ ------- ------ --- ------- -----------<br>-- ----- --- ---- -- his ------ ---- - ---- -- ----------<br>-- ------ ---- --- ---- --- --- --- ----- -- -------- ---<br>------ ------- -------- --- ---- -- ------- ------------ --<br>------ -- ---- -- --- ---- -- -------- -- --- ------ ------,283648,283638,283427.22,283427,283432.96,283649.54,,13,his
screen,html.Screen,2_3_1_0_1_14,2022-04-27T12:51:50.483Z,,,,,,,,,,,,,,,,,12,,,,,,,,,,,,,,270.46000000002095,,response,,,,5,C,,,,,,Space,keypress(Space),,,,instrumental,,,,---- ------ ------ ------- ------ --- ------- -----------<br>-- ----- --- ---- -- --- favour ---- - ---- -- ----------<br>-- ------ ---- --- ---- --- --- --- ----- -- -------- ---<br>------ ------- -------- --- ---- -- ------- ------------ --<br>------ -- ---- -- --- ---- -- -------- -- --- ------ ------,283924,283920,283647.92,283648,283649.54,283932.78,,14,favour
screen,html.Screen,2_3_1_0_1_15,2022-04-27T12:51:50.829Z,,,,,,,,,,,,,,,,,12,,,,,,,,,,,,,,330.21999999997206,,response,,,,5,C,,,,,,Space,keypress(Space),,,,instrumental,,,,---- ------ ------ ------- ------ --- ------- -----------<br>-- ----- --- ---- -- --- ------ with - ---- -- ----------<br>-- ------ ---- --- ---- --- --- --- ----- -- -------- ---<br>------ ------- -------- --- ---- -- ------- ------------ --<br>------ -- ---- -- --- ---- -- -------- -- --- ------ ------,284270,284263,283923.46,283924,283932.78,284282.66,,15,with
screen,html.Screen,2_3_1_0_1_16,2022-04-27T12:51:51.080Z,,,,,,,,,,,,,,,,,12,,,,,,,,,,,,,,230.3400000000256,,response,,,,5,C,,,,,,Space,keypress(Space),,,,instrumental,,,,---- ------ ------ ------- ------ --- ------- -----------<br>-- ----- --- ---- -- --- ------ ---- a ---- -- ----------<br>-- ------ ---- --- ---- --- --- --- ----- -- -------- ---<br>------ ------- -------- --- ---- -- ------- ------------ --<br>------ -- ---- -- --- ---- -- -------- -- --- ------ ------,284520,284513,284269.68,284270,284282.66,284532.58,,16,a
screen,html.Screen,2_3_1_0_1_17,2022-04-27T12:51:51.311Z,,,,,,,,,,,,,,,,,12,,,,,,,,,,,,,,215.4199999999837,,response,,,,5,C,,,,,,Space,keypress(Space),,,,instrumental,,,,---- ------ ------ ------- ------ --- ------- -----------<br>-- ----- --- ---- -- --- ------ ---- - dash -- ----------<br>-- ------ ---- --- ---- --- --- --- ----- -- -------- ---<br>------ ------- -------- --- ---- -- ------- ------------ --<br>------ -- ---- -- --- ---- -- -------- -- --- ------ ------,284750,284748,284520.2,284520,284532.58,284765.84,,17,dash
screen,html.Screen,2_3_1_0_1_18,2022-04-27T12:51:51.556Z,,,,,,,,,,,,,,,,,12,,,,,,,,,,,,,,216.1599999999744,,response,,,,5,C,,,,,,Space,keypress(Space),,,,instrumental,,,,---- ------ ------ ------- ------ --- ------- -----------<br>-- ----- --- ---- -- --- ------ ---- - ---- of ----------<br>-- ------ ---- --- ---- --- --- --- ----- -- -------- ---<br>------ ------- -------- --- ---- -- ------- ------------ --<br>------ -- ---- -- --- ---- -- -------- -- --- ------ ------,284996,284982,284750.52,284750,284765.84,284999.08,,18,of
screen,html.Screen,2_3_1_0_1_19,2022-04-27T12:51:51.818Z,,,,,,,,,,,,,,,,,12,,,,,,,,,,,,,,248.9199999999837,,response,,,,5,C,,,,,,Space,keypress(Space),,,,instrumental,,,,---- ------ ------ ------- ------ --- ------- -----------<br>-- ----- --- ---- -- --- ------ ---- - ---- -- ingenuity.<br>-- ------ ---- --- ---- --- --- --- ----- -- -------- ---<br>------ ------- -------- --- ---- -- ------- ------------ --<br>------ -- ---- -- --- ---- -- -------- -- --- ------ ------,285257,285248,284996.34,284996,284999.08,285265.66,,19,ingenuity.
screen,html.Screen,2_3_1_0_1_20,2022-04-27T12:51:52.223Z,,,,,,,,,,,,,,,,,12,,,,,,,,,,,,,,388.3400000000256,,response,,,,5,C,,,,,,Space,keypress(Space),,,,instrumental,,,,---- ------ ------ ------- ------ --- ------- -----------<br>-- ----- --- ---- -- --- ------ ---- - ---- -- ----------<br>He ------ ---- --- ---- --- --- --- ----- -- -------- ---<br>------ ------- -------- --- ---- -- ------- ------------ --<br>------ -- ---- -- --- ---- -- -------- -- --- ------ ------,285662,285654,285257.14,285257,285265.66,285665.52,,20,He
screen,html.Screen,2_3_1_0_1_21,2022-04-27T12:51:52.444Z,,,,,,,,,,,,,,,,,12,,,,,,,,,,,,,,207.47999999998137,,response,,,,5,C,,,,,,Space,keypress(Space),,,,instrumental,,,,---- ------ ------ ------- ------ --- ------- -----------<br>-- ----- --- ---- -- --- ------ ---- - ---- -- ----------<br>-- walked ---- --- ---- --- --- --- ----- -- -------- ---<br>------ ------- -------- --- ---- -- ------- ------------ --<br>------ -- ---- -- --- ---- -- -------- -- --- ------ ------,285884,285873,285663.08,285663,285665.52,285898.78,,21,walked
screen,html.Screen,2_3_1_0_1_22,2022-04-27T12:51:52.619Z,,,,,,,,,,,,,,,,,12,,,,,,,,,,,,,,146.21999999997206,,response,,,,5,C,,,,,,Space,keypress(Space),,,,instrumental,,,,---- ------ ------ ------- ------ --- ------- -----------<br>-- ----- --- ---- -- --- ------ ---- - ---- -- ----------<br>-- ------ into --- ---- --- --- --- ----- -- -------- ---<br>------ ------- -------- --- ---- -- ------- ------------ --<br>------ -- ---- -- --- ---- -- -------- -- --- ------ ------,286059,286045,285883.78,285884,285898.78,286065.38,,22,into
screen,html.Screen,2_3_1_0_1_23,2022-04-27T12:51:52.805Z,,,,,,,,,,,,,,,,,12,,,,,,,,,,,,,,166.61999999999534,,response,,,,5,C,,,,,,Space,keypress(Space),,,,instrumental,,,,---- ------ ------ ------- ------ --- ------- -----------<br>-- ----- --- ---- -- --- ------ ---- - ---- -- ----------<br>-- ------ ---- his ---- --- --- --- ----- -- -------- ---<br>------ ------- -------- --- ---- -- ------- ------------ --<br>------ -- ---- -- --- ---- -- -------- -- --- ------ ------,286245,286232,286059.22,286059,286065.38,286248.66,,23,his
screen,html.Screen,2_3_1_0_1_24,2022-04-27T12:51:52.975Z,,,,,,,,,,,,,,,,,12,,,,,,,,,,,,,,154.3400000000256,,response,,,,5,C,,,,,,Space,keypress(Space),,,,instrumental,,,,---- ------ ------ ------- ------ --- ------- -----------<br>-- ----- --- ---- -- --- ------ ---- - ---- -- ----------<br>-- ------ ---- --- bank --- --- --- ----- -- -------- ---<br>------ ------- -------- --- ---- -- ------- ------------ --<br>------ -- ---- -- --- ---- -- -------- -- --- ------ ------,286416,286403,286244.78,286245,286248.66,286431.94,,24,bank
screen,html.Screen,2_3_1_0_1_25,2022-04-27T12:51:53.192Z,,,,,,,,,,,,,,,,,12,,,,,,,,,,,,,,191.05999999999767,,response,,,,5,C,,,,,,Space,keypress(Space),,,,instrumental,,,,---- ------ ------ ------- ------ --- ------- -----------<br>-- ----- --- ---- -- --- ------ ---- - ---- -- ----------<br>-- ------ ---- --- ---- one --- --- ----- -- -------- ---<br>------ ------- -------- --- ---- -- ------- ------------ --<br>------ -- ---- -- --- ---- -- -------- -- --- ------ ------,286631,286623,286415.48,286416,286431.94,286631.86,,25,one
screen,html.Screen,2_3_1_0_1_26,2022-04-27T12:51:53.402Z,,,,,,,,,,,,,,,,,12,,,,,,,,,,,,,,194.14000000001397,,response,,,,5,C,,,,,,Space,keypress(Space),,,,instrumental,,,,---- ------ ------ ------- ------ --- ------- -----------<br>-- ----- --- ---- -- --- ------ ---- - ---- -- ----------<br>-- ------ ---- --- ---- --- day --- ----- -- -------- ---<br>------ ------- -------- --- ---- -- ------- ------------ --<br>------ -- ---- -- --- ---- -- -------- -- --- ------ ------,286842,286826,286631.34,286631,286631.86,286848.46,,26,day
screen,html.Screen,2_3_1_0_1_27,2022-04-27T12:51:53.597Z,,,,,,,,,,,,,,,,,12,,,,,,,,,,,,,,180.53999999997905,,response,,,,5,C,,,,,,Space,keypress(Space),,,,instrumental,,,,---- ------ ------ ------- ------ --- ------- -----------<br>-- ----- --- ---- -- --- ------ ---- - ---- -- ----------<br>-- ------ ---- --- ---- --- --- and ----- -- -------- ---<br>------ ------- -------- --- ---- -- ------- ------------ --<br>------ -- ---- -- --- ---- -- -------- -- --- ------ ------,287036,287029,286841.68,286842,286848.46,287048.38,,27,and
screen,html.Screen,2_3_1_0_1_28,2022-04-27T12:51:53.787Z,,,,,,,,,,,,,,,,,12,,,,,,,,,,,,,,168.61999999999534,,response,,,,5,C,,,,,,Space,keypress(Space),,,,instrumental,,,,---- ------ ------ ------- ------ --- ------- -----------<br>-- ----- --- ---- -- --- ------ ---- - ---- -- ----------<br>-- ------ ---- --- ---- --- --- --- asked -- -------- ---<br>------ ------- -------- --- ---- -- ------- ------------ --<br>------ -- ---- -- --- ---- -- -------- -- --- ------ ------,287227,287217,287036.88,287036,287048.38,287231.66,,28,asked
screen,html.Screen,2_3_1_0_1_29,2022-04-27T12:51:53.978Z,,,,,,,,,,,,,,,,,12,,,,,,,,,,,,,,172.3400000000256,,response,,,,5,C,,,,,,Space,keypress(Space),,,,instrumental,,,,---- ------ ------ ------- ------ --- ------- -----------<br>-- ----- --- ---- -- --- ------ ---- - ---- -- ----------<br>-- ------ ---- --- ---- --- --- --- ----- to -------- ---<br>------ ------- -------- --- ---- -- ------- ------------ --<br>------ -- ---- -- --- ---- -- -------- -- --- ------ ------,287419,287404,287227.64,287228,287231.66,287431.6,,29,to
screen,html.Screen,2_3_1_0_1_30,2022-04-27T12:51:54.174Z,,,,,,,,,,,,,,,,,12,,,,,,,,,,,,,,174.40000000002328,,response,,,,5,C,,,,,,Space,keypress(Space),,,,instrumental,,,,---- ------ ------ ------- ------ --- ------- -----------<br>-- ----- --- ---- -- --- ------ ---- - ---- -- ----------<br>-- ------ ---- --- ---- --- --- --- ----- -- withdraw ---<br>------ ------- -------- --- ---- -- ------- ------------ --<br>------ -- ---- -- --- ---- -- -------- -- --- ------ ------,287614,287606,287418.54,287419,287431.6,287614.86,,30,withdraw
screen,html.Screen,2_3_1_0_1_31,2022-04-27T12:51:54.374Z,,,,,,,,,,,,,,,,,12,,,,,,,,,,,,,,195.14000000001397,,response,,,,5,C,,,,,,Space,keypress(Space),,,,instrumental,,,,---- ------ ------ ------- ------ --- ------- -----------<br>-- ----- --- ---- -- --- ------ ---- - ---- -- ----------<br>-- ------ ---- --- ---- --- --- --- ----- -- -------- his<br>------ ------- -------- --- ---- -- ------- ------------ --<br>------ -- ---- -- --- ---- -- -------- -- --- ------ ------,287814,287810,287613.66,287614,287614.86,287814.8,,31,his
screen,html.Screen,2_3_1_0_1_32,2022-04-27T12:51:54.625Z,,,,,,,,,,,,,,,,,12,,,,,,,,,,,,,,245.20000000001164,,response,,,,5,C,,,,,,Space,keypress(Space),,,,instrumental,,,,---- ------ ------ ------- ------ --- ------- -----------<br>-- ----- --- ---- -- --- ------ ---- - ---- -- ----------<br>-- ------ ---- --- ---- --- --- --- ----- -- -------- ---<br>entire ------- -------- --- ---- -- ------- ------------ --<br>------ -- ---- -- --- ---- -- -------- -- --- ------ ------,288064,288060,287814.08,287814,287814.8,288081.38,,32,entire
screen,html.Screen,2_3_1_0_1_33,2022-04-27T12:51:54.916Z,,,,,,,,,,,,,,,,,12,,,,,,,,,,,,,,260.61999999999534,,response,,,,5,C,,,,,,Space,keypress(Space),,,,instrumental,,,,---- ------ ------ ------- ------ --- ------- -----------<br>-- ----- --- ---- -- --- ------ ---- - ---- -- ----------<br>-- ------ ---- --- ---- --- --- --- ----- -- -------- ---<br>------ account -------- --- ---- -- ------- ------------ --<br>------ -- ---- -- --- ---- -- -------- -- --- ------ ------,288356,288342,288065.1,288065,288081.38,288364.6,,33,account
screen,html.Screen,2_3_1_0_1_34,2022-04-27T12:51:55.132Z,,,,,,,,,,,,,,,,,12,,,,,,,,,,,,,,195.40000000002328,,response,,,,5,C,,,,,,Space,keypress(Space),,,,instrumental,,,,"---- ------ ------ ------- ------ --- ------- -----------<br>-- ----- --- ---- -- --- ------ ---- - ---- -- ----------<br>-- ------ ---- --- ---- --- --- --- ----- -- -------- ---<br>------ ------- balance, --- ---- -- ------- ------------ --<br>------ -- ---- -- --- ---- -- -------- -- --- ------ ------",288571,288560,288356.32,288356,288364.6,288581.2,,34,"balance,"
screen,html.Screen,2_3_1_0_1_35,2022-04-27T12:51:55.377Z,,,,,,,,,,,,,,,,,12,,,,,,,,,,,,,,228.79999999998836,,response,,,,5,C,,,,,,Space,keypress(Space),,,,instrumental,,,,---- ------ ------ ------- ------ --- ------- -----------<br>-- ----- --- ---- -- --- ------ ---- - ---- -- ----------<br>-- ------ ---- --- ---- --- --- --- ----- -- -------- ---<br>------ ------- -------- but ---- -- ------- ------------ --<br>------ -- ---- -- --- ---- -- -------- -- --- ------ ------,288817,288810,288571.36,288572,288581.2,288831.12,,35,but
screen,html.Screen,2_3_1_0_1_36,2022-04-27T12:51:55.608Z,,,,,,,,,,,,,,,,,12,,,,,,,,,,,,,,213.88000000000466,,response,,,,5,C,,,,,,Space,keypress(Space),,,,instrumental,,,,---- ------ ------ ------- ------ --- ------- -----------<br>-- ----- --- ---- -- --- ------ ---- - ---- -- ----------<br>-- ------ ---- --- ---- --- --- --- ----- -- -------- ---<br>------ ------- -------- --- with -- ------- ------------ --<br>------ -- ---- -- --- ---- -- -------- -- --- ------ ------,289048,289045,288816.8,288817,288831.12,289047.7,,36,with
screen,html.Screen,2_3_1_0_1_37,2022-04-27T12:51:55.803Z,,,,,,,,,,,,,,,,,12,,,,,,,,,,,,,,184.29999999998836,,response,,,,5,C,,,,,,Space,keypress(Space),,,,instrumental,,,,---- ------ ------ ------- ------ --- ------- -----------<br>-- ----- --- ---- -- --- ------ ---- - ---- -- ----------<br>-- ------ ---- --- ---- --- --- --- ----- -- -------- ---<br>------ ------- -------- --- ---- an ------- ------------ --<br>------ -- ---- -- --- ---- -- -------- -- --- ------ ------,289243,289232,289047.7,289048,289047.7,289247.64,,37,an
screen,html.Screen,2_3_1_0_1_38,2022-04-27T12:51:55.985Z,,,,,,,,,,,,,,,,,12,,,,,,,,,,,,,,172.35999999998603,,response,,,,5,C,,,,,,Space,keypress(Space),,,,instrumental,,,,---- ------ ------ ------- ------ --- ------- -----------<br>-- ----- --- ---- -- --- ------ ---- - ---- -- ----------<br>-- ------ ---- --- ---- --- --- --- ----- -- -------- ---<br>------ ------- -------- --- ---- -- unusual ------------ --<br>------ -- ---- -- --- ---- -- -------- -- --- ------ ------,289424,289420,289243.04,289243,289247.64,289430.92,,38,unusual
screen,html.Screen,2_3_1_0_1_39,2022-04-27T12:51:56.209Z,,,,,,,,,,,,,,,,,12,,,,,,,,,,,,,,206.0800000000163,,response,,,,5,C,,,,,,Space,keypress(Space),,,,instrumental,,,,---- ------ ------ ------- ------ --- ------- -----------<br>-- ----- --- ---- -- --- ------ ---- - ---- -- ----------<br>-- ------ ---- --- ---- --- --- --- ----- -- -------- ---<br>------ ------- -------- --- ---- -- ------- stipulation: --<br>------ -- ---- -- --- ---- -- -------- -- --- ------ ------,289649,289637,289424.68,289424,289430.92,289664.16,,39,stipulation:
screen,html.Screen,2_3_1_0_1_40,2022-04-27T12:51:56.600Z,,,,,,,,,,,,,,,,,12,,,,,,,,,,,,,,364.8400000000256,,response,,,,5,C,,,,,,Space,keypress(Space),,,,instrumental,,,,---- ------ ------ ------- ------ --- ------- -----------<br>-- ----- --- ---- -- --- ------ ---- - ---- -- ----------<br>-- ------ ---- --- ---- --- --- --- ----- -- -------- ---<br>------ ------- -------- --- ---- -- ------- ------------ He<br>------ -- ---- -- --- ---- -- -------- -- --- ------ ------,290040,290029,289649.38,289649,289664.16,290047.36,,40,He
screen,html.Screen,2_3_1_0_1_41,2022-04-27T12:51:56.826Z,,,,,,,,,,,,,,,,,12,,,,,,,,,,,,,,214.64000000001397,,response,,,,5,C,,,,,,Space,keypress(Space),,,,instrumental,,,,---- ------ ------ ------- ------ --- ------- -----------<br>-- ----- --- ---- -- --- ------ ---- - ---- -- ----------<br>-- ------ ---- --- ---- --- --- --- ----- -- -------- ---<br>------ ------- -------- --- ---- -- ------- ------------ --<br>wanted -- ---- -- --- ---- -- -------- -- --- ------ ------,290265,290262,290040.24,290041,290047.36,290280.62,,41,wanted
screen,html.Screen,2_3_1_0_1_42,2022-04-27T12:51:57.054Z,,,,,,,,,,,,,,,,,12,,,,,,,,,,,,,,201.38000000000466,,response,,,,5,C,,,,,,Space,keypress(Space),,,,instrumental,,,,---- ------ ------ ------- ------ --- ------- -----------<br>-- ----- --- ---- -- --- ------ ---- - ---- -- ----------<br>-- ------ ---- --- ---- --- --- --- ----- -- -------- ---<br>------ ------- -------- --- ---- -- ------- ------------ --<br>------ as ---- -- --- ---- -- -------- -- --- ------ ------,290493,290482,290265.84,290266,290280.62,290497.22,,42,as
screen,html.Screen,2_3_1_0_1_43,2022-04-27T12:51:57.272Z,,,,,,,,,,,,,,,,,12,,,,,,,,,,,,,,203.78000000002794,,response,,,,5,C,,,,,,Space,keypress(Space),,,,instrumental,,,,---- ------ ------ ------- ------ --- ------- -----------<br>-- ----- --- ---- -- --- ------ ---- - ---- -- ----------<br>-- ------ ---- --- ---- --- --- --- ----- -- -------- ---<br>------ ------- -------- --- ---- -- ------- ------------ --<br>------ -- much -- --- ---- -- -------- -- --- ------ ------,290712,290701,290493.32,290493,290497.22,290713.8,,43,much
screen,html.Screen,2_3_1_0_1_44,2022-04-27T12:51:57.497Z,,,,,,,,,,,,,,,,,12,,,,,,,,,,,,,,221.20000000001164,,response,,,,5,C,,,,,,Space,keypress(Space),,,,instrumental,,,,---- ------ ------ ------- ------ --- ------- -----------<br>-- ----- --- ---- -- --- ------ ---- - ---- -- ----------<br>-- ------ ---- --- ---- --- --- --- ----- -- -------- ---<br>------ ------- -------- --- ---- -- ------- ------------ --<br>------ -- ---- of --- ---- -- -------- -- --- ------ ------,290937,290935,290712.1,290713,290713.8,290947.06,,44,of
screen,html.Screen,2_3_1_0_1_45,2022-04-27T12:51:57.699Z,,,,,,,,,,,,,,,,,12,,,,,,,,,,,,,,175.94000000000233,,response,,,,5,C,,,,,,Space,keypress(Space),,,,instrumental,,,,---- ------ ------ ------- ------ --- ------- -----------<br>-- ----- --- ---- -- --- ------ ---- - ---- -- ----------<br>-- ------ ---- --- ---- --- --- --- ----- -- -------- ---<br>------ ------- -------- --- ---- -- ------- ------------ --<br>------ -- ---- -- the ---- -- -------- -- --- ------ ------,291139,291123,290937.68,290937,290947.06,291147,,45,the
screen,html.Screen,2_3_1_0_1_46,2022-04-27T12:51:57.924Z,,,,,,,,,,,,,,,,,12,,,,,,,,,,,,,,210,,response,,,,5,C,,,,,,Space,keypress(Space),,,,instrumental,,,,---- ------ ------ ------- ------ --- ------- -----------<br>-- ----- --- ---- -- --- ------ ---- - ---- -- ----------<br>-- ------ ---- --- ---- --- --- --- ----- -- -------- ---<br>------ ------- -------- --- ---- -- ------- ------------ --<br>------ -- ---- -- --- cash -- -------- -- --- ------ ------,291364,291357,291138.36,291139,291147,291380.24,,46,cash
screen,html.Screen,2_3_1_0_1_47,2022-04-27T12:51:58.140Z,,,,,,,,,,,,,,,,,12,,,,,,,,,,,,,,195.7600000000093,,response,,,,5,C,,,,,,Space,keypress(Space),,,,instrumental,,,,---- ------ ------ ------- ------ --- ------- -----------<br>-- ----- --- ---- -- --- ------ ---- - ---- -- ----------<br>-- ------ ---- --- ---- --- --- --- ----- -- -------- ---<br>------ ------- -------- --- ---- -- ------- ------------ --<br>------ -- ---- -- --- ---- as -------- -- --- ------ ------,291579,291576,291363.98,291364,291380.24,291580.18,,47,as
screen,html.Screen,2_3_1_0_1_48,2022-04-27T12:51:58.340Z,,,,,,,,,,,,,,,,,12,,,,,,,,,,,,,,182.82000000000698,,response,,,,5,C,,,,,,Space,keypress(Space),,,,instrumental,,,,---- ------ ------ ------- ------ --- ------- -----------<br>-- ----- --- ---- -- --- ------ ---- - ---- -- ----------<br>-- ------ ---- --- ---- --- --- --- ----- -- -------- ---<br>------ ------- -------- --- ---- -- ------- ------------ --<br>------ -- ---- -- --- ---- -- possible -- --- ------ ------,291780,291763,291579.48,291579,291580.18,291796.78,,48,possible
screen,html.Screen,2_3_1_0_1_49,2022-04-27T12:51:58.636Z,,,,,,,,,,,,,,,,,12,,,,,,,,,,,,,,263.21999999997206,,response,,,,5,C,,,,,,Space,keypress(Space),,,,instrumental,,,,---- ------ ------ ------- ------ --- ------- -----------<br>-- ----- --- ---- -- --- ------ ---- - ---- -- ----------<br>-- ------ ---- --- ---- --- --- --- ----- -- -------- ---<br>------ ------- -------- --- ---- -- ------- ------------ --<br>------ -- ---- -- --- ---- -- -------- in --- ------ ------,292076,292060,291780.38,291780,291796.78,292080,,49,in
screen,html.Screen,2_3_1_0_1_50,2022-04-27T12:51:58.907Z,,,,,,,,,,,,,,,,,12,,,,,,,,,,,,,,262,,response,,,,5,C,,,,,,Space,keypress(Space),,,,instrumental,,,,---- ------ ------ ------- ------ --- ------- -----------<br>-- ----- --- ---- -- --- ------ ---- - ---- -- ----------<br>-- ------ ---- --- ---- --- --- --- ----- -- -------- ---<br>------ ------- -------- --- ---- -- ------- ------------ --<br>------ -- ---- -- --- ---- -- -------- -- one ------ ------,292347,292342,292076.08,292076,292080,292363.24,,50,one
screen,html.Screen,2_3_1_0_1_51,2022-04-27T12:51:59.188Z,,,,,,,,,,,,,,,,,12,,,,,,,,,,,,,,259.7600000000093,,response,,,,5,C,,,,,,Space,keypress(Space),,,,instrumental,,,,---- ------ ------ ------- ------ --- ------- -----------<br>-- ----- --- ---- -- --- ------ ---- - ---- -- ----------<br>-- ------ ---- --- ---- --- --- --- ----- -- -------- ---<br>------ ------- -------- --- ---- -- ------- ------------ --<br>------ -- ---- -- --- ---- -- -------- -- --- dollar ------,292627,292623,292347.1,292348,292363.24,292629.82,,51,dollar
screen,html.Screen,2_3_1_0_1_52,2022-04-27T12:51:59.584Z,,,,,,,,,,,,,,,,,12,,,,,,,,,,,,,,383.179999999993,,response,,,,5,C,,,,,,Space,keypress(Space),,,,instrumental,,,,---- ------ ------ ------- ------ --- ------- -----------<br>-- ----- --- ---- -- --- ------ ---- - ---- -- ----------<br>-- ------ ---- --- ---- --- --- --- ----- -- -------- ---<br>------ ------- -------- --- ---- -- ------- ------------ --<br>------ -- ---- -- --- ---- -- -------- -- --- ------ notes.,293024,293013,292627.24,292627,292629.82,293029.68,,52,notes.
Item 5,flow.Loop,2_3_1_0_1,2022-04-27T12:51:59.584Z,,,,,,,,,,,,,,,,,,,,,,,,,,,,,,,13978.559999999998,,completion,,,,,,,,,,,,,,,,,,,,,293024,293013,279017.78,279018,279034.44,293029.68,,,
Question 1,html.Screen,2_3_1_0_2,2022-04-27T12:52:01.208Z,,,,,,,,,,,,,,,,,,,,,,,,,,,,true,TRUE,,1608.320000000007,,response,,,,5,C,,,,,,TRUE,click #choice-1,,,,instrumental,,,,,294649,294638,293023.72,293024,293029.68,294662.46,,,
Question 2,html.Screen,2_3_1_0_3,2022-04-27T12:52:02.670Z,,,,,,,,,,,,,,,,,,,,,,,,,,,,true,TRUE,,1444.539999999979,,response,,,,5,C,,,,,,TRUE,click #choice-1,,,,instrumental,,,,,296110,296107,294646.52,294649,294662.46,296111.96,,,
Item 5,flow.Sequence,2_3_1_0,2022-04-27T12:52:02.670Z,,,,,,,,,,,,,,,,,,,,,,,,,,,,,,,24070.159999999974,,completion,,,,,,,,,,,,,,,,,,,,,296110,296107,272020.18,272022,272036.84,296111.96,,,
Holding screen,html.Screen,2_3_1_1_0,2022-04-27T12:52:09.655Z,,,,,,,,,,,,,,,,,,,,,,,,,,,,,,,6997.619999999995,,timeout,,,,,,,,,,,,,,,,,,,,,303094,303092.92,296108.1,296110,296111.96,303109.58,,,
