sender,sender_type,sender_id,timestamp,meta,,Blues,Classical,Country,Dance,Electronic,Folk,Gospel,Hip-Hop,Jazz,Latin,Musical/Film,New-age,Pop,Prolific_id,Provo_ID,R&B,Rap,Reggae,Religious,Rock,Soul,Swing,Traditional,age,artist_name,correct,correctResponse,distraction,duration,education,ended_on,familiarity,gender,headphone_check_performance,item,list,music_frequency,offensiveness,pleasantness,position_correct,preference,response,response_action,snippet_file,song_name,song_rating,sound,stimulus_1,stimulus_2,stimulus_3,text,time_commit,time_end,time_render,time_run,time_show,time_switch,url,word,word_ID
Prolific ID,html.Form,0,2022-05-09T20:23:00.778Z,"{""labjs_version"":""20.2.2"",""labjs_build"":{""flavor"":""production"",""commit"":""a25486e0c714a0ae2ce03ff94b7bb6896854dcfa""},""location"":""https://run.pavlovia.org/mvasilev/prolific3_music_g/"",""userAgent"":""Mozilla/5.0 (Windows NT 10.0; Win64; x64) AppleWebKit/537.36 (KHTML, like Gecko) Chrome/101.0.4951.54 Safari/537.36 Edg/101.0.1210.39"",""platform"":""Win32"",""language"":""en-GB"",""locale"":""en-GB"",""timeZone"":""Europe/London"",""timezoneOffset"":-60,""screen_width"":1536,""screen_height"":864,""scroll_width"":1536,""scroll_height"":698,""window_innerWidth"":1536,""window_innerHeight"":746,""devicePixelRatio"":1.25}",,,,,,,,,,,,,,,612b5a2c55286e4cf74a63ee,,,,,,,,,,,,,,,10883.864999856949,,form submission,,,,,,,,,,,,,,,,,,,,,18950.89999985695,18949.89999985695,8032.003,8046.799999952316,8066.035,18974.606,{},,
Introduction,html.Screen,1_0,2022-05-09T20:23:10.311Z,,,,,,,,,,,,,,,,,,,,,,,,,,,,,,,9504.993999904633,,response,,,,,,,,,,,continue,click button,,,,,,,,,28484,28479.599999904633,18931.522,18951.599999904633,18974.606,28496.812,,,
Volume calibration,html.Screen,1_1,2022-05-09T20:23:36.639Z,,,,,,,,,,,,,,,,,,,,,,,,,,,,,,,26309.688,,response,,,,,,,,,,,continue,click button,,,,,,,,,54811.59999990463,54806.5,28480.101,28484.299999952316,28496.812,54810.1,,,
Task instructions,html.Screen,1_2,2022-05-09T20:23:46.913Z,,,,,,,,,,,,,,,,,,,,,,,,,,,,,,,10274.100000047685,,response,,,,,,,,,,,continue,click button,,,,,,,,,65085.5,65084.200000047684,54793.538,54811.700000047684,54810.1,65092.119,,,
Sounds,html.Screen,1_3_0_0,2022-05-09T20:23:51.157Z,,,,,,,,,,,,,,,,,,,,,,,,,,,,,,,4249.447999999997,,timeout,,,,,,,,,3,,,,,,,,O,I,S,,69329.89999985695,69325.07,65075.632,65085.700000047684,65092.119,69341.567,,,
Judgement,html.Screen,1_3_0_1,2022-05-09T20:23:52.784Z,,,,,,,,,,,,,,,,,,,,,,,,,,,,true,3,,1613.6330000476883,,response,,,,,,,,,3,,3,click #choice-3,,,,,O,I,S,,70956.5,70955.20000004768,69325.07,69330.20000004768,69341.567,70958.066,,,
Trial,flow.Sequence,1_3_0,2022-05-09T20:23:52.784Z,,,,,,,,,,,,,,,,,,,,,,,,,,,,,,,5863.081000047685,,completion,,,,,,,,,3,,,,,,,,O,I,S,,70957,70955.20000004768,65075.632,65085.700000047684,65092.119,70958.066,,,
Sounds,html.Screen,1_3_1_0,2022-05-09T20:23:57.020Z,,,,,,,,,,,,,,,,,,,,,,,,,,,,,,,4249.555999999997,,timeout,,,,,,,,,1,,,,,,,,S,O,I,,75192.5,75190.911,70941.317,70957.39999985695,70958.066,75207.622,,,
Judgement,html.Screen,1_3_1_1,2022-05-09T20:23:58.078Z,,,,,,,,,,,,,,,,,,,,,,,,,,,,true,1,,1041.6779999523133,,response,,,,,,,,,1,,1,click #choice-1,,,,,S,O,I,,76250.89999985695,76249.29999995232,75190.911,75192.70000004768,75207.622,76257.293,,,
Trial,flow.Sequence,1_3_1,2022-05-09T20:23:58.079Z,,,,,,,,,,,,,,,,,,,,,,,,,,,,,,,5291.23399995231,,completion,,,,,,,,,1,,,,,,,,S,O,I,,76251.29999995232,76249.29999995232,70941.317,70957.09999990463,70958.066,76257.293,,,
Sounds,html.Screen,1_3_2_0,2022-05-09T20:24:02.319Z,,,,,,,,,,,,,,,,,,,,,,,,,,,,,,,4249.607999999993,,timeout,,,,,,,,,2,,,,,,,,I,S,O,,80491.5,80490.192,76240.626,76251.5,76257.293,80506.901,,,
Judgement,html.Screen,1_3_2_1,2022-05-09T20:24:03.056Z,,,,,,,,,,,,,,,,,,,,,,,,,,,,true,2,,720.3989999523183,,response,,,,,,,,,2,,2,click #choice-2,,,,,I,S,O,,81228.70000004768,81227.29999995232,80490.192,80491.79999995232,80506.901,81240.139,,,
Trial,flow.Sequence,1_3_2,2022-05-09T20:24:03.056Z,,,,,,,,,,,,,,,,,,,,,,,,,,,,,,,4970.006999952311,,completion,,,,,,,,,2,,,,,,,,I,S,O,,81229,81227.29999995232,76240.626,76251.5,76257.293,81240.139,,,
Sounds,html.Screen,1_3_3_0,2022-05-09T20:24:07.303Z,,,,,,,,,,,,,,,,,,,,,,,,,,,,,,,4249.338000000003,,timeout,,,,,,,,,1,,,,,,,,S,I,O,,85474.79999995232,85472.888,81223.403,81229.20000004768,81240.139,85489.477,,,
Judgement,html.Screen,1_3_3_1,2022-05-09T20:24:07.966Z,,,,,,,,,,,,,,,,,,,,,,,,,,,,true,1,,647.1229999046336,,response,,,,,,,,,1,,1,click #choice-1,,,,,S,I,O,,86137.89999985695,86136.59999990463,85472.888,85474.89999985695,85489.477,86139.405,,,
Trial,flow.Sequence,1_3_3,2022-05-09T20:24:07.966Z,,,,,,,,,,,,,,,,,,,,,,,,,,,,,,,4896.460999904637,,completion,,,,,,,,,1,,,,,,,,S,I,O,,86138.20000004768,86136.59999990463,81223.403,81229.09999990463,81240.139,86139.405,,,
Sounds,html.Screen,1_3_4_0,2022-05-09T20:24:12.201Z,,,,,,,,,,,,,,,,,,,,,,,,,,,,,,,4249.399999999994,,timeout,,,,,,,,,2,,,,,,,,O,S,I,,90373.5,90372.138,86122.689,86138.39999985695,86139.405,90388.805,,,
Judgement,html.Screen,1_3_4_1,2022-05-09T20:24:12.828Z,,,,,,,,,,,,,,,,,,,,,,,,,,,,true,2,,610.195000000007,,response,,,,,,,,,2,,2,click #choice-2,,,,,O,S,I,,91000.39999985695,90999,90372.138,90373.79999995232,90388.805,91005.451,,,
Trial,flow.Sequence,1_3_4,2022-05-09T20:24:12.828Z,,,,,,,,,,,,,,,,,,,,,,,,,,,,,,,4859.595000000001,,completion,,,,,,,,,2,,,,,,,,O,S,I,,91000.59999990463,90999,86122.689,86138.39999985695,86139.405,91005.451,,,
Sounds,html.Screen,1_3_5_0,2022-05-09T20:24:17.067Z,,,,,,,,,,,,,,,,,,,,,,,,,,,,,,,4249.843999999997,,timeout,,,,,,,,,3,,,,,,,,I,O,S,,95239.5,95238.306,90988.789,91000.79999995232,91005.451,95255.295,,,
Judgement,html.Screen,1_3_5_1,2022-05-09T20:24:18.087Z,,,,,,,,,,,,,,,,,,,,,,,,,,,,true,3,,1002.8049999046343,,response,,,,,,,,,3,,3,click #choice-3,,,,,I,O,S,,96259.79999995232,96258.09999990463,95238.306,95239.70000004768,95255.295,96271.447,,,
Trial,flow.Sequence,1_3_5,2022-05-09T20:24:18.088Z,,,,,,,,,,,,,,,,,,,,,,,,,,,,,,,5252.648999904632,,completion,,,,,,,,,3,,,,,,,,I,O,S,,96259.89999985695,96258.09999990463,90988.789,91000.70000004768,91005.451,96271.447,,,
Task,flow.Loop,1_3,2022-05-09T20:24:18.094Z,,,,,,,,,,,,,,,,,,,,,,,,,,,,,,,31165.980999904634,,completion,,,1,,,,,,,,,,,,,,,,,,96266.70000004768,96258.09999990463,65075.632,65085.700000047684,65092.119,96271.447,,,
Trap,html.Screen,1_4,2022-05-09T20:24:18.096Z,,,,,,,,,,,,,,,,,,,,,,,,,,,,,,,NaN,,skipped,,,,,,,,,,,,,,,,,,,,,96268.29999995232,96258.09999990463,,96268.09999990463,,96271.447,,,
Thanks,html.Screen,1_5,2022-05-09T20:24:21.965Z,,,,,,,,,,,,,,,,,,,,,,,,,,,,,,,3863.9529998569487,,response,,,,,,,,,,,continue,click button,,,,,,,,,100137,100135.39999985695,96254.848,96268.5,96271.447,104570.794,,,
Headphone screening,flow.Sequence,1,2022-05-09T20:24:21.965Z,,,,,,,,,,,,,,,,,,,,,,,,,,,,,,,81160.79399985695,,completion,,,,,,,,,,,,,,,,,,,,,100137.20000004768,100135.39999985695,18931.522,18951.5,18974.606,104570.794,,,
Instructions,html.Page,2_0,2022-05-09T20:24:47.991Z,,,,,,,,,,,,,,,,,,,,,,,,,,,,,,,21592.105999856954,,form submission,,,,,,,,,,,,,,,,,,,,,126163.39999985695,126162.89999985695,104537.202,104571.89999985695,104570.794,126168.367,,,
Holding screen,html.Screen,2_1_0_0,2022-05-09T20:24:57.979Z,,,,,,,,,,,,,,,,,,,,,,,,,,,,,,,10014.554000000004,,timeout,,,,,,,,,,,,,,,,,,,,,136150.79999995232,136149.614,126151.004,126163.79999995232,126168.367,136182.921,,,
screen,html.Screen,2_1_0_1_0,2022-05-09T20:24:59.515Z,,,,,,,,,,,,,,,,,53,,,,,,,,,,,,,,1499.7790000476816,,response,,,,99,,,,,,,Space,keypress(Space),,,,,,,,When -- ----- -- ------ - ------- --- ----------<br>------------- ------ ------ ---- ---- ------- ----- -- ----<br>-------- ------- -- ---------- --- - --- ----- ----- ----<br>---- --- --- ----- --- ---- ---- ------- ----- ---- -------<br>--- --- -- ----- -- --- ---- -- --- ---- -- ------ ------<br>--- ----- -- ----,137686.70000004768,137682.70000004768,136149.614,136151.09999990463,136182.921,137699.592,,0,When
screen,html.Screen,2_1_0_1_1,2022-05-09T20:25:00.105Z,,,,,,,,,,,,,,,,,53,,,,,,,,,,,,,,576.8079998569447,,response,,,,99,,,,,,,Space,keypress(Space),,,,,,,,---- it ----- -- ------ - ------- --- ----------<br>------------- ------ ------ ---- ---- ------- ----- -- ----<br>-------- ------- -- ---------- --- - --- ----- ----- ----<br>---- --- --- ----- --- ---- ---- ------- ----- ---- -------<br>--- --- -- ----- -- --- ---- -- --- ---- -- ------ ------<br>--- ----- -- ----,138277,138276.39999985695,137682.752,137687,137699.592,138282.645,,1,it
screen,html.Screen,2_1_0_1_2,2022-05-09T20:25:00.649Z,,,,,,,,,,,,,,,,,53,,,,,,,,,,,,,,537.8550000000105,,response,,,,99,,,,,,,Space,keypress(Space),,,,,,,,---- -- comes -- ------ - ------- --- ----------<br>------------- ------ ------ ---- ---- ------- ----- -- ----<br>-------- ------- -- ---------- --- - --- ----- ----- ----<br>---- --- --- ----- --- ---- ---- ------- ----- ---- -------<br>--- --- -- ----- -- --- ---- -- --- ---- -- ------ ------<br>--- ----- -- ----,138821.5,138820.5,138266.192,138277.09999990463,138282.645,138832.793,,2,comes
screen,html.Screen,2_1_0_1_3,2022-05-09T20:25:01.059Z,,,,,,,,,,,,,,,,,53,,,,,,,,,,,,,,397.50699995231116,,response,,,,99,,,,,,,Space,keypress(Space),,,,,,,,---- -- ----- to ------ - ------- --- ----------<br>------------- ------ ------ ---- ---- ------- ----- -- ----<br>-------- ------- -- ---------- --- - --- ----- ----- ----<br>---- --- --- ----- --- ---- ---- ------- ----- ---- -------<br>--- --- -- ----- -- --- ---- -- --- ---- -- ------ ------<br>--- ----- -- ----,139231.29999995232,139230.29999995232,138815.843,138821.59999990463,138832.793,139257.424,,3,to
screen,html.Screen,2_1_0_1_4,2022-05-09T20:25:01.533Z,,,,,,,,,,,,,,,,,53,,,,,,,,,,,,,,447.27600004768465,,response,,,,99,,,,,,,Space,keypress(Space),,,,,,,,---- -- ----- -- having - ------- --- ----------<br>------------- ------ ------ ---- ---- ------- ----- -- ----<br>-------- ------- -- ---------- --- - --- ----- ----- ----<br>---- --- --- ----- --- ---- ---- ------- ----- ---- -------<br>--- --- -- ----- -- --- ---- -- --- ---- -- ------ ------<br>--- ----- -- ----,139705.59999990463,139704.70000004768,139216.182,139231.39999985695,139257.424,139715.916,,4,having
screen,html.Screen,2_1_0_1_5,2022-05-09T20:25:01.919Z,,,,,,,,,,,,,,,,,53,,,,,,,,,,,,,,373.88399995231885,,response,,,,99,,,,,,,Space,keypress(Space),,,,,,,,---- -- ----- -- ------ a ------- --- ----------<br>------------- ------ ------ ---- ---- ------- ----- -- ----<br>-------- ------- -- ---------- --- - --- ----- ----- ----<br>---- --- --- ----- --- ---- ---- ------- ----- ---- -------<br>--- --- -- ----- -- --- ---- -- --- ---- -- ------ ------<br>--- ----- -- ----,140090.70000004768,140089.79999995232,139699.076,139706,139715.916,140099.244,,5,a
screen,html.Screen,2_1_0_1_6,2022-05-09T20:25:02.319Z,,,,,,,,,,,,,,,,,53,,,,,,,,,,,,,,391.05599995231023,,response,,,,99,,,,,,,Space,keypress(Space),,,,,,,,---- -- ----- -- ------ - lasting --- ----------<br>------------- ------ ------ ---- ---- ------- ----- -- ----<br>-------- ------- -- ---------- --- - --- ----- ----- ----<br>---- --- --- ----- --- ---- ---- ------- ----- ---- -------<br>--- --- -- ----- -- --- ---- -- --- ---- -- ------ ------<br>--- ----- -- ----,140491.59999990463,140490.29999995232,140082.44,140091,140099.244,140499.16,,6,lasting
screen,html.Screen,2_1_0_1_7,2022-05-09T20:25:02.708Z,,,,,,,,,,,,,,,,,53,,,,,,,,,,,,,,380.0400000476802,,response,,,,99,,,,,,,Space,keypress(Space),,,,,,,,---- -- ----- -- ------ - ------- and ----------<br>------------- ------ ------ ---- ---- ------- ----- -- ----<br>-------- ------- -- ---------- --- - --- ----- ----- ----<br>---- --- --- ----- --- ---- ---- ------- ----- ---- -------<br>--- --- -- ----- -- --- ---- -- --- ---- -- ------ ------<br>--- ----- -- ----,140880.09999990463,140879.20000004768,140482.717,140491.70000004768,140499.16,140882.355,,7,and
screen,html.Screen,2_1_0_1_8,2022-05-09T20:25:03.148Z,,,,,,,,,,,,,,,,,53,,,,,,,,,,,,,,437.2449999046221,,response,,,,99,,,,,,,Space,keypress(Space),,,,,,,,---- -- ----- -- ------ - ------- --- fulfilling<br>------------- ------ ------ ---- ---- ------- ----- -- ----<br>-------- ------- -- ---------- --- - --- ----- ----- ----<br>---- --- --- ----- --- ---- ---- ------- ----- ---- -------<br>--- --- -- ----- -- --- ---- -- --- ---- -- ------ ------<br>--- ----- -- ----,141320.5,141319.59999990463,140865.853,140880.29999995232,140882.355,141332.552,,8,fulfilling
screen,html.Screen,2_1_0_1_9,2022-05-09T20:25:03.627Z,,,,,,,,,,,,,,,,,53,,,,,,,,,,,,,,466.0479999046365,,response,,,,99,,,,,,,Space,keypress(Space),,,,,,,,"---- -- ----- -- ------ - ------- --- ----------<br>relationship, ------ ------ ---- ---- ------- ----- -- ----<br>-------- ------- -- ---------- --- - --- ----- ----- ----<br>---- --- --- ----- --- ---- ---- ------- ----- ---- -------<br>--- --- -- ----- -- --- ---- -- --- ---- -- ------ ------<br>--- ----- -- ----",141799.5,141798.59999990463,141315.615,141320.70000004768,141332.552,141815.803,,9,"relationship,"
screen,html.Screen,2_1_0_1_10,2022-05-09T20:25:04.598Z,,,,,,,,,,,,,,,,,53,,,,,,,,,,,,,,953.1969999999856,,response,,,,99,,,,,,,Space,keypress(Space),,,,,,,,---- -- ----- -- ------ - ------- --- ----------<br>------------- common ------ ---- ---- ------- ----- -- ----<br>-------- ------- -- ---------- --- - --- ----- ----- ----<br>---- --- --- ----- --- ---- ---- ------- ----- ---- -------<br>--- --- -- ----- -- --- ---- -- --- ---- -- ------ ------<br>--- ----- -- ----,142770,142769,141799.204,141799.79999995232,141815.803,142782.099,,10,common
screen,html.Screen,2_1_0_1_11,2022-05-09T20:25:05.012Z,,,,,,,,,,,,,,,,,53,,,,,,,,,,,,,,401.1010000476963,,response,,,,99,,,,,,,Space,keypress(Space),,,,,,,,---- -- ----- -- ------ - ------- --- ----------<br>------------- ------ wisdom ---- ---- ------- ----- -- ----<br>-------- ------- -- ---------- --- - --- ----- ----- ----<br>---- --- --- ----- --- ---- ---- ------- ----- ---- -------<br>--- --- -- ----- -- --- ---- -- --- ---- -- ------ ------<br>--- ----- -- ----,143184.20000004768,143183.20000004768,142765.522,142770.29999995232,142782.099,143198.973,,11,wisdom
screen,html.Screen,2_1_0_1_12,2022-05-09T20:25:05.521Z,,,,,,,,,,,,,,,,,53,,,,,,,,,,,,,,493.82699995231815,,response,,,,99,,,,,,,Space,keypress(Space),,,,,,,,---- -- ----- -- ------ - ------- --- ----------<br>------------- ------ ------ says ---- ------- ----- -- ----<br>-------- ------- -- ---------- --- - --- ----- ----- ----<br>---- --- --- ----- --- ---- ---- ------- ----- ---- -------<br>--- --- -- ----- -- --- ---- -- --- ---- -- ------ ------<br>--- ----- -- ----,143693.70000004768,143692.79999995232,143182.056,143184.39999985695,143198.973,143698.62,,12,says
screen,html.Screen,2_1_0_1_13,2022-05-09T20:25:05.947Z,,,,,,,,,,,,,,,,,53,,,,,,,,,,,,,,419.5800000476884,,response,,,,99,,,,,,,Space,keypress(Space),,,,,,,,---- -- ----- -- ------ - ------- --- ----------<br>------------- ------ ------ ---- that ------- ----- -- ----<br>-------- ------- -- ---------- --- - --- ----- ----- ----<br>---- --- --- ----- --- ---- ---- ------- ----- ---- -------<br>--- --- -- ----- -- --- ---- -- --- ---- -- ------ ------<br>--- ----- -- ----,144119.20000004768,144118.20000004768,143682.004,143693.79999995232,143698.62,144132.39,,13,that
screen,html.Screen,2_1_0_1_14,2022-05-09T20:25:06.408Z,,,,,,,,,,,,,,,,,53,,,,,,,,,,,,,,446.4099999523023,,response,,,,99,,,,,,,Space,keypress(Space),,,,,,,,---- -- ----- -- ------ - ------- --- ----------<br>------------- ------ ------ ---- ---- feeling ----- -- ----<br>-------- ------- -- ---------- --- - --- ----- ----- ----<br>---- --- --- ----- --- ---- ---- ------- ----- ---- -------<br>--- --- -- ----- -- --- ---- -- --- ---- -- ------ ------<br>--- ----- -- ----,144579.70000004768,144578.79999995232,144115.341,144119.39999985695,144132.39,144581.904,,14,feeling
screen,html.Screen,2_1_0_1_15,2022-05-09T20:25:06.821Z,,,,,,,,,,,,,,,,,53,,,,,,,,,,,,,,410.195999904623,,response,,,,99,,,,,,,Space,keypress(Space),,,,,,,,---- -- ----- -- ------ - ------- --- ----------<br>------------- ------ ------ ---- ---- ------- close -- ----<br>-------- ------- -- ---------- --- - --- ----- ----- ----<br>---- --- --- ----- --- ---- ---- ------- ----- ---- -------<br>--- --- -- ----- -- --- ---- -- --- ---- -- ------ ------<br>--- ----- -- ----,144993,144992.09999990463,144565.367,144580,144581.904,144998.482,,15,close
screen,html.Screen,2_1_0_1_16,2022-05-09T20:25:07.237Z,,,,,,,,,,,,,,,,,53,,,,,,,,,,,,,,409.71800004769466,,response,,,,99,,,,,,,Space,keypress(Space),,,,,,,,---- -- ----- -- ------ - ------- --- ----------<br>------------- ------ ------ ---- ---- ------- ----- to ----<br>-------- ------- -- ---------- --- - --- ----- ----- ----<br>---- --- --- ----- --- ---- ---- ------- ----- ---- -------<br>--- --- -- ----- -- --- ---- -- --- ---- -- ------ ------<br>--- ----- -- ----,145409.09999990463,145408.20000004768,144981.742,144993.20000004768,144998.482,145415.06,,16,to
screen,html.Screen,2_1_0_1_17,2022-05-09T20:25:07.657Z,,,,,,,,,,,,,,,,,53,,,,,,,,,,,,,,412.8399998569512,,response,,,,99,,,,,,,Space,keypress(Space),,,,,,,,---- -- ----- -- ------ - ------- --- ----------<br>------------- ------ ------ ---- ---- ------- ----- -- your<br>-------- ------- -- ---------- --- - --- ----- ----- ----<br>---- --- --- ----- --- ---- ---- ------- ----- ---- -------<br>--- --- -- ----- -- --- ---- -- --- ---- -- ------ ------<br>--- ----- -- ----,145828.89999985695,145827.89999985695,145398.653,145409.5,145415.06,145831.685,,17,your
screen,html.Screen,2_1_0_1_18,2022-05-09T20:25:08.050Z,,,,,,,,,,,,,,,,,53,,,,,,,,,,,,,,389.7149998569512,,response,,,,99,,,,,,,Space,keypress(Space),,,,,,,,---- -- ----- -- ------ - ------- --- ----------<br>------------- ------ ------ ---- ---- ------- ----- -- ----<br>romantic ------- -- ---------- --- - --- ----- ----- ----<br>---- --- --- ----- --- ---- ---- ------- ----- ---- -------<br>--- --- -- ----- -- --- ---- -- --- ---- -- ------ ------<br>--- ----- -- ----,146222.29999995232,146221.39999985695,145815.047,145829,145831.685,146232.111,,18,romantic
screen,html.Screen,2_1_0_1_19,2022-05-09T20:25:08.423Z,,,,,,,,,,,,,,,,,53,,,,,,,,,,,,,,361.48899990462814,,response,,,,99,,,,,,,Space,keypress(Space),,,,,,,,---- -- ----- -- ------ - ------- --- ----------<br>------------- ------ ------ ---- ---- ------- ----- -- ----<br>-------- partner -- ---------- --- - --- ----- ----- ----<br>---- --- --- ----- --- ---- ---- ------- ----- ---- -------<br>--- --- -- ----- -- --- ---- -- --- ---- -- ------ ------<br>--- ----- -- ----,146594.5,146593.59999990463,146215.278,146222.59999990463,146232.111,146598.328,,19,partner
screen,html.Screen,2_1_0_1_20,2022-05-09T20:25:08.817Z,,,,,,,,,,,,,,,,,53,,,,,,,,,,,,,,389.1719999999914,,response,,,,99,,,,,,,Space,keypress(Space),,,,,,,,---- -- ----- -- ------ - ------- --- ----------<br>------------- ------ ------ ---- ---- ------- ----- -- ----<br>-------- ------- is ---------- --- - --- ----- ----- ----<br>---- --- --- ----- --- ---- ---- ------- ----- ---- -------<br>--- --- -- ----- -- --- ---- -- --- ---- -- ------ ------<br>--- ----- -- ----,146988.5,146987.5,146581.554,146594.79999995232,146598.328,146998.482,,20,is
screen,html.Screen,2_1_0_1_21,2022-05-09T20:25:09.177Z,,,,,,,,,,,,,,,,,53,,,,,,,,,,,,,,349.01800000001094,,response,,,,99,,,,,,,Space,keypress(Space),,,,,,,,---- -- ----- -- ------ - ------- --- ----------<br>------------- ------ ------ ---- ---- ------- ----- -- ----<br>-------- ------- -- paramount. --- - --- ----- ----- ----<br>---- --- --- ----- --- ---- ---- ------- ----- ---- -------<br>--- --- -- ----- -- --- ---- -- --- ---- -- ------ ------<br>--- ----- -- ----,147348.39999985695,147347.5,146981.635,146988.70000004768,146998.482,147364.976,,21,paramount.
screen,html.Screen,2_1_0_1_22,2022-05-09T20:25:09.668Z,,,,,,,,,,,,,,,,,53,,,,,,,,,,,,,,474.62399990463746,,response,,,,99,,,,,,,Space,keypress(Space),,,,,,,,---- -- ----- -- ------ - ------- --- ----------<br>------------- ------ ------ ---- ---- ------- ----- -- ----<br>-------- ------- -- ---------- But - --- ----- ----- ----<br>---- --- --- ----- --- ---- ---- ------- ----- ---- -------<br>--- --- -- ----- -- --- ---- -- --- ---- -- ------ ------<br>--- ----- -- ----,147840.39999985695,147839.59999990463,147348.388,147348.59999990463,147364.976,147848.308,,22,But
screen,html.Screen,2_1_0_1_23,2022-05-09T20:25:10.056Z,,,,,,,,,,,,,,,,,53,,,,,,,,,,,,,,378.19200000001,,response,,,,99,,,,,,,Space,keypress(Space),,,,,,,,---- -- ----- -- ------ - ------- --- ----------<br>------------- ------ ------ ---- ---- ------- ----- -- ----<br>-------- ------- -- ---------- --- a --- ----- ----- ----<br>---- --- --- ----- --- ---- ---- ------- ----- ---- -------<br>--- --- -- ----- -- --- ---- -- --- ---- -- ------ ------<br>--- ----- -- ----,148227.5,148226.5,147831.681,147840.59999990463,147848.308,148231.407,,23,a
screen,html.Screen,2_1_0_1_24,2022-05-09T20:25:10.536Z,,,,,,,,,,,,,,,,,53,,,,,,,,,,,,,,475.39299995230976,,response,,,,99,,,,,,,Space,keypress(Space),,,,,,,,---- -- ----- -- ------ - ------- --- ----------<br>------------- ------ ------ ---- ---- ------- ----- -- ----<br>-------- ------- -- ---------- --- - new ----- ----- ----<br>---- --- --- ----- --- ---- ---- ------- ----- ---- -------<br>--- --- -- ----- -- --- ---- -- --- ---- -- ------ ------<br>--- ----- -- ----,148707.70000004768,148706.79999995232,148214.754,148227.70000004768,148231.407,148714.771,,24,new
screen,html.Screen,2_1_0_1_25,2022-05-09T20:25:11.009Z,,,,,,,,,,,,,,,,,53,,,,,,,,,,,,,,465.4290000476758,,response,,,,99,,,,,,,Space,keypress(Space),,,,,,,,---- -- ----- -- ------ - ------- --- ----------<br>------------- ------ ------ ---- ---- ------- ----- -- ----<br>-------- ------- -- ---------- --- - --- study ----- ----<br>---- --- --- ----- --- ---- ---- ------- ----- ---- -------<br>--- --- -- ----- -- --- ---- -- --- ---- -- ------ ------<br>--- ----- -- ----,149181.09999990463,149180.20000004768,148698.275,148707.89999985695,148714.771,149198.133,,25,study
screen,html.Screen,2_1_0_1_26,2022-05-09T20:25:11.629Z,,,,,,,,,,,,,,,,,53,,,,,,,,,,,,,,601.6669999523147,,response,,,,99,,,,,,,Space,keypress(Space),,,,,,,,---- -- ----- -- ------ - ------- --- ----------<br>------------- ------ ------ ---- ---- ------- ----- -- ----<br>-------- ------- -- ---------- --- - --- ----- finds ----<br>---- --- --- ----- --- ---- ---- ------- ----- ---- -------<br>--- --- -- ----- -- --- ---- -- --- ---- -- ------ ------<br>--- ----- -- ----,149800.79999995232,149799.79999995232,149181.32,149181.39999985695,149198.133,149815.031,,26,finds
screen,html.Screen,2_1_0_1_27,2022-05-09T20:25:12.319Z,,,,,,,,,,,,,,,,,53,,,,,,,,,,,,,,674.5689999046444,,response,,,,99,,,,,,,Space,keypress(Space),,,,,,,,---- -- ----- -- ------ - ------- --- ----------<br>------------- ------ ------ ---- ---- ------- ----- -- ----<br>-------- ------- -- ---------- --- - --- ----- ----- that<br>---- --- --- ----- --- ---- ---- ------- ----- ---- -------<br>--- --- -- ----- -- --- ---- -- --- ---- -- ------ ------<br>--- ----- -- ----,150490.59999990463,150489.59999990463,149797.957,149800.89999985695,149815.031,150498.005,,27,that
screen,html.Screen,2_1_0_1_28,2022-05-09T20:25:12.658Z,,,,,,,,,,,,,,,,,53,,,,,,,,,,,,,,330.8949998569442,,response,,,,99,,,,,,,Space,keypress(Space),,,,,,,,---- -- ----- -- ------ - ------- --- ----------<br>------------- ------ ------ ---- ---- ------- ----- -- ----<br>-------- ------- -- ---------- --- - --- ----- ----- ----<br>it's --- --- ----- --- ---- ---- ------- ----- ---- -------<br>--- --- -- ----- -- --- ---- -- --- ---- -- ------ ------<br>--- ----- -- ----,150829.59999990463,150828.89999985695,150481.069,150490.79999995232,150498.005,150857.983,,28,it's
screen,html.Screen,2_1_0_1_29,2022-05-09T20:25:12.984Z,,,,,,,,,,,,,,,,,53,,,,,,,,,,,,,,297.1169999046251,,response,,,,99,,,,,,,Space,keypress(Space),,,,,,,,---- -- ----- -- ------ - ------- --- ----------<br>------------- ------ ------ ---- ---- ------- ----- -- ----<br>-------- ------- -- ---------- --- - --- ----- ----- ----<br>---- not --- ----- --- ---- ---- ------- ----- ---- -------<br>--- --- -- ----- -- --- ---- -- --- ---- -- ------ ------<br>--- ----- -- ----,151156.20000004768,151155.09999990463,150814.424,150829.70000004768,150857.983,151164.446,,29,not
screen,html.Screen,2_1_0_1_30,2022-05-09T20:25:13.335Z,,,,,,,,,,,,,,,,,53,,,,,,,,,,,,,,341.4539998569526,,response,,,,99,,,,,,,Space,keypress(Space),,,,,,,,---- -- ----- -- ------ - ------- --- ----------<br>------------- ------ ------ ---- ---- ------- ----- -- ----<br>-------- ------- -- ---------- --- - --- ----- ----- ----<br>---- --- how ----- --- ---- ---- ------- ----- ---- -------<br>--- --- -- ----- -- --- ---- -- --- ---- -- ------ ------<br>--- ----- -- ----,151506.79999995232,151505.89999985695,151147.881,151156.29999995232,151164.446,151514.75,,30,how
screen,html.Screen,2_1_0_1_31,2022-05-09T20:25:13.628Z,,,,,,,,,,,,,,,,,53,,,,,,,,,,,,,,284.4500000476837,,response,,,,99,,,,,,,Space,keypress(Space),,,,,,,,---- -- ----- -- ------ - ------- --- ----------<br>------------- ------ ------ ---- ---- ------- ----- -- ----<br>-------- ------- -- ---------- --- - --- ----- ----- ----<br>---- --- --- close --- ---- ---- ------- ----- ---- -------<br>--- --- -- ----- -- --- ---- -- --- ---- -- ------ ------<br>--- ----- -- ----,151800,151799.20000004768,151497.658,151507,151514.75,151814.301,,31,close
screen,html.Screen,2_1_0_1_32,2022-05-09T20:25:13.918Z,,,,,,,,,,,,,,,,,53,,,,,,,,,,,,,,274.0989998569421,,response,,,,99,,,,,,,Space,keypress(Space),,,,,,,,---- -- ----- -- ------ - ------- --- ----------<br>------------- ------ ------ ---- ---- ------- ----- -- ----<br>-------- ------- -- ---------- --- - --- ----- ----- ----<br>---- --- --- ----- you ---- ---- ------- ----- ---- -------<br>--- --- -- ----- -- --- ---- -- --- ---- -- ------ ------<br>--- ----- -- ----,152089.70000004768,152088.39999985695,151797.646,151800.20000004768,151814.301,152097.644,,32,you
screen,html.Screen,2_1_0_1_33,2022-05-09T20:25:14.218Z,,,,,,,,,,,,,,,,,53,,,,,,,,,,,,,,291.2559998569486,,response,,,,99,,,,,,,Space,keypress(Space),,,,,,,,---- -- ----- -- ------ - ------- --- ----------<br>------------- ------ ------ ---- ---- ------- ----- -- ----<br>-------- ------- -- ---------- --- - --- ----- ----- ----<br>---- --- --- ----- --- feel ---- ------- ----- ---- -------<br>--- --- -- ----- -- --- ---- -- --- ---- -- ------ ------<br>--- ----- -- ----,152389.70000004768,152388.89999985695,152081.001,152089.79999995232,152097.644,152397.524,,33,feel
screen,html.Screen,2_1_0_1_34,2022-05-09T20:25:14.513Z,,,,,,,,,,,,,,,,,53,,,,,,,,,,,,,,285.6760000476788,,response,,,,99,,,,,,,Space,keypress(Space),,,,,,,,---- -- ----- -- ------ - ------- --- ----------<br>------------- ------ ------ ---- ---- ------- ----- -- ----<br>-------- ------- -- ---------- --- - --- ----- ----- ----<br>---- --- --- ----- --- ---- that ------- ----- ---- -------<br>--- --- -- ----- -- --- ---- -- --- ---- -- ------ ------<br>--- ----- -- ----,152685.20000004768,152683.20000004768,152380.837,152390,152397.524,152697.558,,34,that
screen,html.Screen,2_1_0_1_35,2022-05-09T20:25:14.773Z,,,,,,,,,,,,,,,,,53,,,,,,,,,,,,,,246.84199985695886,,response,,,,99,,,,,,,Space,keypress(Space),,,,,,,,---- -- ----- -- ------ - ------- --- ----------<br>------------- ------ ------ ---- ---- ------- ----- -- ----<br>-------- ------- -- ---------- --- - --- ----- ----- ----<br>---- --- --- ----- --- ---- ---- matters ----- ---- -------<br>--- --- -- ----- -- --- ---- -- --- ---- -- ------ ------<br>--- ----- -- ----,152945.29999995232,152944.39999985695,152681.072,152685.29999995232,152697.558,152947.45,,35,matters
screen,html.Screen,2_1_0_1_36,2022-05-09T20:25:15.063Z,,,,,,,,,,,,,,,,,53,,,,,,,,,,,,,,286.7500000476721,,response,,,,99,,,,,,,Space,keypress(Space),,,,,,,,"---- -- ----- -- ------ - ------- --- ----------<br>------------- ------ ------ ---- ---- ------- ----- -- ----<br>-------- ------- -- ---------- --- - --- ----- ----- ----<br>---- --- --- ----- --- ---- ---- ------- most, ---- -------<br>--- --- -- ----- -- --- ---- -- --- ---- -- ------ ------<br>--- ----- -- ----",153235.09999990463,153234.20000004768,152930.793,152945.5,152947.45,153247.574,,36,"most,"
screen,html.Screen,2_1_0_1_37,2022-05-09T20:25:15.437Z,,,,,,,,,,,,,,,,,53,,,,,,,,,,,,,,360.3259998569556,,response,,,,99,,,,,,,Space,keypress(Space),,,,,,,,---- -- ----- -- ------ - ------- --- ----------<br>------------- ------ ------ ---- ---- ------- ----- -- ----<br>-------- ------- -- ---------- --- - --- ----- ----- ----<br>---- --- --- ----- --- ---- ---- ------- ----- it's -------<br>--- --- -- ----- -- --- ---- -- --- ---- -- ------ ------<br>--- ----- -- ----,153608.89999985695,153607.89999985695,153230.8,153235.29999995232,153247.574,153614.025,,37,it's
screen,html.Screen,2_1_0_1_38,2022-05-09T20:25:16.007Z,,,,,,,,,,,,,,,,,53,,,,,,,,,,,,,,563.5749999046384,,response,,,,99,,,,,,,Space,keypress(Space),,,,,,,,---- -- ----- -- ------ - ------- --- ----------<br>------------- ------ ------ ---- ---- ------- ----- -- ----<br>-------- ------- -- ---------- --- - --- ----- ----- ----<br>---- --- --- ----- --- ---- ---- ------- ----- ---- whether<br>--- --- -- ----- -- --- ---- -- --- ---- -- ------ ------<br>--- ----- -- ----,154178.59999990463,154177.59999990463,153597.492,153609.09999990463,153614.025,154180.655,,38,whether
screen,html.Screen,2_1_0_1_39,2022-05-09T20:25:16.412Z,,,,,,,,,,,,,,,,,53,,,,,,,,,,,,,,402.74499985695,,response,,,,99,,,,,,,Space,keypress(Space),,,,,,,,---- -- ----- -- ------ - ------- --- ----------<br>------------- ------ ------ ---- ---- ------- ----- -- ----<br>-------- ------- -- ---------- --- - --- ----- ----- ----<br>---- --- --- ----- --- ---- ---- ------- ----- ---- -------<br>you --- -- ----- -- --- ---- -- --- ---- -- ------ ------<br>--- ----- -- ----,154584.29999995232,154583.39999985695,154164.139,154178.79999995232,154180.655,154597.737,,39,you
screen,html.Screen,2_1_0_1_40,2022-05-09T20:25:16.741Z,,,,,,,,,,,,,,,,,53,,,,,,,,,,,,,,314.56299995232257,,response,,,,99,,,,,,,Space,keypress(Space),,,,,,,,---- -- ----- -- ------ - ------- --- ----------<br>------------- ------ ------ ---- ---- ------- ----- -- ----<br>-------- ------- -- ---------- --- - --- ----- ----- ----<br>---- --- --- ----- --- ---- ---- ------- ----- ---- -------<br>--- are -- ----- -- --- ---- -- --- ---- -- ------ ------<br>--- ----- -- ----,154913.29999995232,154912.29999995232,154580.826,154584.59999990463,154597.737,154947.29,,40,are
screen,html.Screen,2_1_0_1_41,2022-05-09T20:25:17.077Z,,,,,,,,,,,,,,,,,53,,,,,,,,,,,,,,300.91000004767557,,response,,,,99,,,,,,,Space,keypress(Space),,,,,,,,---- -- ----- -- ------ - ------- --- ----------<br>------------- ------ ------ ---- ---- ------- ----- -- ----<br>-------- ------- -- ---------- --- - --- ----- ----- ----<br>---- --- --- ----- --- ---- ---- ------- ----- ---- -------<br>--- --- as ----- -- --- ---- -- --- ---- -- ------ ------<br>--- ----- -- ----,155249.20000004768,155248.20000004768,154930.715,154913.39999985695,154947.29,155264.274,,41,as
screen,html.Screen,2_1_0_1_42,2022-05-09T20:25:17.441Z,,,,,,,,,,,,,,,,,53,,,,,,,,,,,,,,347.5259999523114,,response,,,,99,,,,,,,Space,keypress(Space),,,,,,,,---- -- ----- -- ------ - ------- --- ----------<br>------------- ------ ------ ---- ---- ------- ----- -- ----<br>-------- ------- -- ---------- --- - --- ----- ----- ----<br>---- --- --- ----- --- ---- ---- ------- ----- ---- -------<br>--- --- -- close -- --- ---- -- --- ---- -- ------ ------<br>--- ----- -- ----,155612.79999995232,155611.79999995232,155247.298,155249.39999985695,155264.274,155630.493,,42,close
screen,html.Screen,2_1_0_1_43,2022-05-09T20:25:17.827Z,,,,,,,,,,,,,,,,,53,,,,,,,,,,,,,,367.4069998569612,,response,,,,99,,,,,,,Space,keypress(Space),,,,,,,,---- -- ----- -- ------ - ------- --- ----------<br>------------- ------ ------ ---- ---- ------- ----- -- ----<br>-------- ------- -- ---------- --- - --- ----- ----- ----<br>---- --- --- ----- --- ---- ---- ------- ----- ---- -------<br>--- --- -- ----- as --- ---- -- --- ---- -- ------ ------<br>--- ----- -- ----,155998.79999995232,155997.89999985695,155597.443,155613,155630.493,156014.238,,43,as
screen,html.Screen,2_1_0_1_44,2022-05-09T20:25:18.167Z,,,,,,,,,,,,,,,,,53,,,,,,,,,,,,,,323.4620000476716,,response,,,,99,,,,,,,Space,keypress(Space),,,,,,,,---- -- ----- -- ------ - ------- --- ----------<br>------------- ------ ------ ---- ---- ------- ----- -- ----<br>-------- ------- -- ---------- --- - --- ----- ----- ----<br>---- --- --- ----- --- ---- ---- ------- ----- ---- -------<br>--- --- -- ----- -- you ---- -- --- ---- -- ------ ------<br>--- ----- -- ----,156338.70000004768,156337.70000004768,155997.263,155999,156014.238,156347.328,,44,you
screen,html.Screen,2_1_0_1_45,2022-05-09T20:25:18.476Z,,,,,,,,,,,,,,,,,53,,,,,,,,,,,,,,299.1719999999914,,response,,,,99,,,,,,,Space,keypress(Space),,,,,,,,---- -- ----- -- ------ - ------- --- ----------<br>------------- ------ ------ ---- ---- ------- ----- -- ----<br>-------- ------- -- ---------- --- - --- ----- ----- ----<br>---- --- --- ----- --- ---- ---- ------- ----- ---- -------<br>--- --- -- ----- -- --- want -- --- ---- -- ------ ------<br>--- ----- -- ----,156647.39999985695,156646.5,156330.509,156338.89999985695,156347.328,156663.88,,45,want
screen,html.Screen,2_1_0_1_46,2022-05-09T20:25:18.786Z,,,,,,,,,,,,,,,,,53,,,,,,,,,,,,,,293.5199998569442,,response,,,,99,,,,,,,Space,keypress(Space),,,,,,,,---- -- ----- -- ------ - ------- --- ----------<br>------------- ------ ------ ---- ---- ------- ----- -- ----<br>-------- ------- -- ---------- --- - --- ----- ----- ----<br>---- --- --- ----- --- ---- ---- ------- ----- ---- -------<br>--- --- -- ----- -- --- ---- to --- ---- -- ------ ------<br>--- ----- -- ----,156958.5,156957.39999985695,156646.95,156647.70000004768,156663.88,156963.581,,46,to
screen,html.Screen,2_1_0_1_47,2022-05-09T20:25:19.055Z,,,,,,,,,,,,,,,,,53,,,,,,,,,,,,,,262.9189999999944,,response,,,,99,,,,,,,Space,keypress(Space),,,,,,,,"---- -- ----- -- ------ - ------- --- ----------<br>------------- ------ ------ ---- ---- ------- ----- -- ----<br>-------- ------- -- ---------- --- - --- ----- ----- ----<br>---- --- --- ----- --- ---- ---- ------- ----- ---- -------<br>--- --- -- ----- -- --- ---- -- be, ---- -- ------ ------<br>--- ----- -- ----",157227.39999985695,157226.5,156946.942,156958.59999990463,156963.581,157230.274,,47,"be,"
screen,html.Screen,2_1_0_1_48,2022-05-09T20:25:19.600Z,,,,,,,,,,,,,,,,,53,,,,,,,,,,,,,,540.5259999523114,,response,,,,99,,,,,,,Space,keypress(Space),,,,,,,,---- -- ----- -- ------ - ------- --- ----------<br>------------- ------ ------ ---- ---- ------- ----- -- ----<br>-------- ------- -- ---------- --- - --- ----- ----- ----<br>---- --- --- ----- --- ---- ---- ------- ----- ---- -------<br>--- --- -- ----- -- --- ---- -- --- even -- ------ ------<br>--- ----- -- ----,157772,157770.79999995232,157213.603,157227.59999990463,157230.274,157780.259,,48,even
screen,html.Screen,2_1_0_1_49,2022-05-09T20:25:19.888Z,,,,,,,,,,,,,,,,,53,,,,,,,,,,,,,,278.9410000476928,,response,,,,99,,,,,,,Space,keypress(Space),,,,,,,,---- -- ----- -- ------ - ------- --- ----------<br>------------- ------ ------ ---- ---- ------- ----- -- ----<br>-------- ------- -- ---------- --- - --- ----- ----- ----<br>---- --- --- ----- --- ---- ---- ------- ----- ---- -------<br>--- --- -- ----- -- --- ---- -- --- ---- if ------ ------<br>--- ----- -- ----,158060.09999990463,158059.20000004768,157763.679,157772.09999990463,157780.259,158080.344,,49,if
screen,html.Screen,2_1_0_1_50,2022-05-09T20:25:20.186Z,,,,,,,,,,,,,,,,,53,,,,,,,,,,,,,,276.35600004767184,,response,,,,99,,,,,,,Space,keypress(Space),,,,,,,,---- -- ----- -- ------ - ------- --- ----------<br>------------- ------ ------ ---- ---- ------- ----- -- ----<br>-------- ------- -- ---------- --- - --- ----- ----- ----<br>---- --- --- ----- --- ---- ---- ------- ----- ---- -------<br>--- --- -- ----- -- --- ---- -- --- ---- -- that's ------<br>--- ----- -- ----,158357.70000004768,158356.70000004768,158046.805,158060.29999995232,158080.344,158363.421,,50,that's
screen,html.Screen,2_1_0_1_51,2022-05-09T20:25:20.605Z,,,,,,,,,,,,,,,,,53,,,,,,,,,,,,,,412.0789999999979,,response,,,,99,,,,,,,Space,keypress(Space),,,,,,,,---- -- ----- -- ------ - ------- --- ----------<br>------------- ------ ------ ---- ---- ------- ----- -- ----<br>-------- ------- -- ---------- --- - --- ----- ----- ----<br>---- --- --- ----- --- ---- ---- ------- ----- ---- -------<br>--- --- -- ----- -- --- ---- -- --- ---- -- ------ really<br>--- ----- -- ----,158776.39999985695,158775.5,158346.801,158357.89999985695,158363.421,158780.058,,51,really
screen,html.Screen,2_1_0_1_52,2022-05-09T20:25:21.015Z,,,,,,,,,,,,,,,,,53,,,,,,,,,,,,,,406.44200000001,,response,,,,99,,,,,,,Space,keypress(Space),,,,,,,,---- -- ----- -- ------ - ------- --- ----------<br>------------- ------ ------ ---- ---- ------- ----- -- ----<br>-------- ------- -- ---------- --- - --- ----- ----- ----<br>---- --- --- ----- --- ---- ---- ------- ----- ---- -------<br>--- --- -- ----- -- --- ---- -- --- ---- -- ------ ------<br>not ----- -- ----,159187.29999995232,159186.5,158763.639,158776.59999990463,158780.058,159196.816,,52,not
screen,html.Screen,2_1_0_1_53,2022-05-09T20:25:21.376Z,,,,,,,,,,,,,,,,,53,,,,,,,,,,,,,,350.28399990464095,,response,,,,99,,,,,,,Space,keypress(Space),,,,,,,,---- -- ----- -- ------ - ------- --- ----------<br>------------- ------ ------ ---- ---- ------- ----- -- ----<br>-------- ------- -- ---------- --- - --- ----- ----- ----<br>---- --- --- ----- --- ---- ---- ------- ----- ---- -------<br>--- --- -- ----- -- --- ---- -- --- ---- -- ------ ------<br>--- close -- ----,159548.09999990463,159547.09999990463,159179.907,159187.5,159196.816,159563.372,,53,close
screen,html.Screen,2_1_0_1_54,2022-05-09T20:25:21.809Z,,,,,,,,,,,,,,,,,53,,,,,,,,,,,,,,416.627999999997,,response,,,,99,,,,,,,Space,keypress(Space),,,,,,,,---- -- ----- -- ------ - ------- --- ----------<br>------------- ------ ------ ---- ---- ------- ----- -- ----<br>-------- ------- -- ---------- --- - --- ----- ----- ----<br>---- --- --- ----- --- ---- ---- ------- ----- ---- -------<br>--- --- -- ----- -- --- ---- -- --- ---- -- ------ ------<br>--- ----- at ----,159980.79999995232,159980,159546.713,159548.39999985695,159563.372,159996.82,,54,at
screen,html.Screen,2_1_0_1_55,2022-05-09T20:25:22.356Z,,,,,,,,,,,,,,,,,53,,,,,,,,,,,,,,529.7799999046256,,response,,,,99,,,,,,,Space,keypress(Space),,,,,,,,---- -- ----- -- ------ - ------- --- ----------<br>------------- ------ ------ ---- ---- ------- ----- -- ----<br>-------- ------- -- ---------- --- - --- ----- ----- ----<br>---- --- --- ----- --- ---- ---- ------- ----- ---- -------<br>--- --- -- ----- -- --- ---- -- --- ---- -- ------ ------<br>--- ----- -- all.,160527.59999990463,160526.59999990463,159980.335,159981,159996.82,160557.464,,55,all.
Item 99,flow.Loop,2_1_0_1,2022-05-09T20:25:22.356Z,,,,,,,,,,,,,,,,,,,,,,,,,,,,,,,24343.67899990463,,completion,,,,,G,,,,,,,,,,,silence,,,,,160528,160526.59999990463,136149.614,136151,136182.921,160557.464,,,
Question 1,html.Screen,2_1_0_2,2022-05-09T20:25:28.561Z,,,,,,,,,,,,,,,,,,,,,,,,,,,,false,FALSE,,6174.035999999993,,response,,,,99,G,,,,,,TRUE,click #choice-1,,,,silence,,,,,166732.89999985695,166731.5,160513.252,160528.09999990463,160557.464,166745.668,,,
Question 2,html.Screen,2_1_0_3,2022-05-09T20:25:34.573Z,,,,,,,,,,,,,,,,,,,,,,,,,,,,true,TRUE,,5997.532000047679,,response,,,,99,G,,,,,,TRUE,click #choice-1,,,,silence,,,,,172745.09999990463,172743.20000004768,166729.403,166733.09999990463,166745.668,172767.469,,,
Item 99,flow.Sequence,2_1_0,2022-05-09T20:25:34.573Z,,,,,,,,,,,,,,,,,,,,,,,,,,,,,,,46574.833000047685,,completion,,,,,,,,,,,,,,,,,,,,,172745.39999985695,172743.20000004768,126151.004,126163.79999995232,126168.367,172767.469,,,
Holding screen,html.Screen,2_1_1_0,2022-05-09T20:25:44.573Z,,,,,,,,,,,,,,,,,,,,,,,,,,,,,,,9992.946999999986,,timeout,,,,,,,,,,,,,,,,,,,,,182744.70000004768,182743.674,172728.406,172745.5,172767.469,182760.416,,,
screen,html.Screen,2_1_1_1_0,2022-05-09T20:25:45.326Z,,,,,,,,,,,,,,,,,54,,,,,,,,,,,,,,736.2840000476863,,response,,,,100,,,,,,,Space,keypress(Space),,,,,,,,At --- ---- --- ------ ----- ------- ---- -- --- ------- --<br>------- ---------- ------ -- ----- -- ----- -- ---- ------<br>--- ----- --- --- ------ -------- ----- --- ------ ----- --<br>----- ----- ---------- --- --- ------ ------ ---- -- ------<br>------- --- ------ ----- --- ---- ------- -- ---- --- --<br>------- ------,183497.59999990463,183496.70000004768,182743.674,182744.89999985695,182760.416,183510.311,,0,At
screen,html.Screen,2_1_1_1_1,2022-05-09T20:25:45.637Z,,,,,,,,,,,,,,,,,54,,,,,,,,,,,,,,297.5889998569619,,response,,,,100,,,,,,,Space,keypress(Space),,,,,,,,-- the ---- --- ------ ----- ------- ---- -- --- ------- --<br>------- ---------- ------ -- ----- -- ----- -- ---- ------<br>--- ----- --- --- ------ -------- ----- --- ------ ----- --<br>----- ----- ---------- --- --- ------ ------ ---- -- ------<br>------- --- ------ ----- --- ---- ------- -- ---- --- --<br>------- ------,183808.70000004768,183807.89999985695,183493.592,183497.70000004768,183510.311,183837.483,,1,the
screen,html.Screen,2_1_1_1_2,2022-05-09T20:25:45.948Z,,,,,,,,,,,,,,,,,54,,,,,,,,,,,,,,281.01699999999255,,response,,,,100,,,,,,,Space,keypress(Space),,,,,,,,-- --- time --- ------ ----- ------- ---- -- --- ------- --<br>------- ---------- ------ -- ----- -- ----- -- ---- ------<br>--- ----- --- --- ------ -------- ----- --- ------ ----- --<br>----- ----- ---------- --- --- ------ ------ ---- -- ------<br>------- --- ------ ----- --- ---- ------- -- ---- --- --<br>------- ------,184119.70000004768,184118.5,183793.842,183808.89999985695,183837.483,184126.848,,2,time
screen,html.Screen,2_1_1_1_3,2022-05-09T20:25:46.283Z,,,,,,,,,,,,,,,,,54,,,,,,,,,,,,,,326.95199995231815,,response,,,,100,,,,,,,Space,keypress(Space),,,,,,,,-- --- ---- the ------ ----- ------- ---- -- --- ------- --<br>------- ---------- ------ -- ----- -- ----- -- ---- ------<br>--- ----- --- --- ------ -------- ----- --- ------ ----- --<br>----- ----- ---------- --- --- ------ ------ ---- -- ------<br>------- --- ------ ----- --- ---- ------- -- ---- --- --<br>------- ------,184454.79999995232,184453.79999995232,184110.475,184119.79999995232,184126.848,184460.075,,3,the
screen,html.Screen,2_1_1_1_4,2022-05-09T20:25:46.548Z,,,,,,,,,,,,,,,,,54,,,,,,,,,,,,,,258.42499999998836,,response,,,,100,,,,,,,Space,keypress(Space),,,,,,,,-- --- ---- --- French ----- ------- ---- -- --- ------- --<br>------- ---------- ------ -- ----- -- ----- -- ---- ------<br>--- ----- --- --- ------ -------- ----- --- ------ ----- --<br>----- ----- ---------- --- --- ------ ------ ---- -- ------<br>------- --- ------ ----- --- ---- ------- -- ---- --- --<br>------- ------,184719.5,184718.5,184443.466,184454.89999985695,184460.075,184726.658,,4,French
screen,html.Screen,2_1_1_1_5,2022-05-09T20:25:46.806Z,,,,,,,,,,,,,,,,,54,,,,,,,,,,,,,,250.64199995232048,,response,,,,100,,,,,,,Space,keypress(Space),,,,,,,,-- --- ---- --- ------ crown ------- ---- -- --- ------- --<br>------- ---------- ------ -- ----- -- ----- -- ---- ------<br>--- ----- --- --- ------ -------- ----- --- ------ ----- --<br>----- ----- ---------- --- --- ------ ------ ---- -- ------<br>------- --- ------ ----- --- ---- ------- -- ---- --- --<br>------- ------,184978.09999990463,184977.29999995232,184710.169,184719.70000004768,184726.658,184993.506,,5,crown
screen,html.Screen,2_1_1_1_6,2022-05-09T20:25:47.182Z,,,,,,,,,,,,,,,,,54,,,,,,,,,,,,,,359.79399995232234,,response,,,,100,,,,,,,Space,keypress(Space),,,,,,,,-- --- ---- --- ------ ----- secured ---- -- --- ------- --<br>------- ---------- ------ -- ----- -- ----- -- ---- ------<br>--- ----- --- --- ------ -------- ----- --- ------ ----- --<br>----- ----- ---------- --- --- ------ ------ ---- -- ------<br>------- --- ------ ----- --- ---- ------- -- ---- --- --<br>------- ------,185354.20000004768,185353.29999995232,184977.021,184978.20000004768,184993.506,185359.926,,6,secured
screen,html.Screen,2_1_1_1_7,2022-05-09T20:25:47.567Z,,,,,,,,,,,,,,,,,54,,,,,,,,,,,,,,378.1739999046258,,response,,,,100,,,,,,,Space,keypress(Space),,,,,,,,-- --- ---- --- ------ ----- ------- much -- --- ------- --<br>------- ---------- ------ -- ----- -- ----- -- ---- ------<br>--- ----- --- --- ------ -------- ----- --- ------ ----- --<br>----- ----- ---------- --- --- ------ ------ ---- -- ------<br>------- --- ------ ----- --- ---- ------- -- ---- --- --<br>------- ------,185739.20000004768,185738.09999990463,185343.882,185354.5,185359.926,185760.077,,7,much
screen,html.Screen,2_1_1_1_8,2022-05-09T20:25:47.946Z,,,,,,,,,,,,,,,,,54,,,,,,,,,,,,,,357.1230000476935,,response,,,,100,,,,,,,Space,keypress(Space),,,,,,,,-- --- ---- --- ------ ----- ------- ---- of --- ------- --<br>------- ---------- ------ -- ----- -- ----- -- ---- ------<br>--- ----- --- --- ------ -------- ----- --- ------ ----- --<br>----- ----- ---------- --- --- ------ ------ ---- -- ------<br>------- --- ------ ----- --- ---- ------- -- ---- --- --<br>------- ------,186118.20000004768,186117.20000004768,185726.787,185739.39999985695,185760.077,186126.599,,8,of
screen,html.Screen,2_1_1_1_9,2022-05-09T20:25:48.288Z,,,,,,,,,,,,,,,,,54,,,,,,,,,,,,,,331.20099995232886,,response,,,,100,,,,,,,Space,keypress(Space),,,,,,,,-- --- ---- --- ------ ----- ------- ---- -- its ------- --<br>------- ---------- ------ -- ----- -- ----- -- ---- ------<br>--- ----- --- --- ------ -------- ----- --- ------ ----- --<br>----- ----- ---------- --- --- ------ ------ ---- -- ------<br>------- --- ------ ----- --- ---- ------- -- ---- --- --<br>------- ------,186459.59999990463,186457.79999995232,186109.911,186118.39999985695,186126.599,186476.949,,9,its
screen,html.Screen,2_1_1_1_10,2022-05-09T20:25:48.685Z,,,,,,,,,,,,,,,,,54,,,,,,,,,,,,,,379.25100004769047,,response,,,,100,,,,,,,Space,keypress(Space),,,,,,,,-- --- ---- --- ------ ----- ------- ---- -- --- revenue --<br>------- ---------- ------ -- ----- -- ----- -- ---- ------<br>--- ----- --- --- ------ -------- ----- --- ------ ----- --<br>----- ----- ---------- --- --- ------ ------ ---- -- ------<br>------- --- ------ ----- --- ---- ------- -- ---- --- --<br>------- ------,186857,186856.20000004768,186459.865,186459.89999985695,186476.949,186859.773,,10,revenue
screen,html.Screen,2_1_1_1_11,2022-05-09T20:25:49.230Z,,,,,,,,,,,,,,,,,54,,,,,,,,,,,,,,541.4270000476972,,response,,,,100,,,,,,,Space,keypress(Space),,,,,,,,-- --- ---- --- ------ ----- ------- ---- -- --- ------- by<br>------- ---------- ------ -- ----- -- ----- -- ---- ------<br>--- ----- --- --- ------ -------- ----- --- ------ ----- --<br>----- ----- ---------- --- --- ------ ------ ---- -- ------<br>------- --- ------ ----- --- ---- ------- -- ---- --- --<br>------- ------,187402.20000004768,187401.20000004768,186843.122,186857.29999995232,186859.773,187409.657,,11,by
screen,html.Screen,2_1_1_1_12,2022-05-09T20:25:49.570Z,,,,,,,,,,,,,,,,,54,,,,,,,,,,,,,,330.94299990462605,,response,,,,100,,,,,,,Space,keypress(Space),,,,,,,,-- --- ---- --- ------ ----- ------- ---- -- --- ------- --<br>issuing ---------- ------ -- ----- -- ----- -- ---- ------<br>--- ----- --- --- ------ -------- ----- --- ------ ----- --<br>----- ----- ---------- --- --- ------ ------ ---- -- ------<br>------- --- ------ ----- --- ---- ------- -- ---- --- --<br>------- ------,187741.70000004768,187740.59999990463,187393.203,187402.29999995232,187409.657,187770.071,,12,issuing
screen,html.Screen,2_1_1_1_13,2022-05-09T20:25:49.876Z,,,,,,,,,,,,,,,,,54,,,,,,,,,,,,,,276.72899995232,,response,,,,100,,,,,,,Space,keypress(Space),,,,,,,,-- --- ---- --- ------ ----- ------- ---- -- --- ------- --<br>------- government ------ -- ----- -- ----- -- ---- ------<br>--- ----- --- --- ------ -------- ----- --- ------ ----- --<br>----- ----- ---------- --- --- ------ ------ ---- -- ------<br>------- --- ------ ----- --- ---- ------- -- ---- --- --<br>------- ------,188047.79999995232,188046.79999995232,187726.253,187741.79999995232,187770.071,188059.85,,13,government
screen,html.Screen,2_1_1_1_14,2022-05-09T20:25:50.256Z,,,,,,,,,,,,,,,,,54,,,,,,,,,,,,,,366.74999990462675,,response,,,,100,,,,,,,Space,keypress(Space),,,,,,,,-- --- ---- --- ------ ----- ------- ---- -- --- ------- --<br>------- ---------- bonds. -- ----- -- ----- -- ---- ------<br>--- ----- --- --- ------ -------- ----- --- ------ ----- --<br>----- ----- ---------- --- --- ------ ------ ---- -- ------<br>------- --- ------ ----- --- ---- ------- -- ---- --- --<br>------- ------,188427.39999985695,188426.59999990463,188042.991,188048,188059.85,188443.07,,14,bonds.
screen,html.Screen,2_1_1_1_15,2022-05-09T20:25:50.749Z,,,,,,,,,,,,,,,,,54,,,,,,,,,,,,,,477.32999985694187,,response,,,,100,,,,,,,Space,keypress(Space),,,,,,,,-- --- ---- --- ------ ----- ------- ---- -- --- ------- --<br>------- ---------- ------ In ----- -- ----- -- ---- ------<br>--- ----- --- --- ------ -------- ----- --- ------ ----- --<br>----- ----- ---------- --- --- ------ ------ ---- -- ------<br>------- --- ------ ----- --- ---- ------- -- ---- --- --<br>------- ------,188921.29999995232,188920.39999985695,188426.282,188427.59999990463,188443.07,188926.152,,15,In
screen,html.Screen,2_1_1_1_16,2022-05-09T20:25:51.839Z,,,,,,,,,,,,,,,,,54,,,,,,,,,,,,,,1083.6479999523144,,response,,,,100,,,,,,,Space,keypress(Space),,,,,,,,"-- --- ---- --- ------ ----- ------- ---- -- --- ------- --<br>------- ---------- ------ -- 1727, -- ----- -- ---- ------<br>--- ----- --- --- ------ -------- ----- --- ------ ----- --<br>----- ----- ---------- --- --- ------ ------ ---- -- ------<br>------- --- ------ ----- --- ---- ------- -- ---- --- --<br>------- ------",190010.70000004768,190009.79999995232,188909.819,188921.5,188926.152,190026.249,,16,"1727,"
screen,html.Screen,2_1_1_1_17,2022-05-09T20:25:54.448Z,,,,,,,,,,,,,,,,,54,,,,,,,,,,,,,,2592.650999856938,,response,,,,100,,,,,,,Space,keypress(Space),,,,,,,,-- --- ---- --- ------ ----- ------- ---- -- --- ------- --<br>------- ---------- ------ -- ----- in ----- -- ---- ------<br>--- ----- --- --- ------ -------- ----- --- ------ ----- --<br>----- ----- ---------- --- --- ------ ------ ---- -- ------<br>------- --- ------ ----- --- ---- ------- -- ---- --- --<br>------- ------,192619.79999995232,192618.89999985695,190009.3,190010.79999995232,190026.249,192625.655,,17,in
screen,html.Screen,2_1_1_1_18,2022-05-09T20:25:54.857Z,,,,,,,,,,,,,,,,,54,,,,,,,,,,,,,,402.24499985695,,response,,,,100,,,,,,,Space,keypress(Space),,,,,,,,-- --- ---- --- ------ ----- ------- ---- -- --- ------- --<br>------- ---------- ------ -- ----- -- order -- ---- ------<br>--- ----- --- --- ------ -------- ----- --- ------ ----- --<br>----- ----- ---------- --- --- ------ ------ ---- -- ------<br>------- --- ------ ----- --- ---- ------- -- ---- --- --<br>------- ------,193028.79999995232,193027.89999985695,192608.745,192620,192625.655,193042.705,,18,order
screen,html.Screen,2_1_1_1_19,2022-05-09T20:25:55.081Z,,,,,,,,,,,,,,,,,54,,,,,,,,,,,,,,209.69499985696166,,response,,,,100,,,,,,,Space,keypress(Space),,,,,,,,-- --- ---- --- ------ ----- ------- ---- -- --- ------- --<br>------- ---------- ------ -- ----- -- ----- to ---- ------<br>--- ----- --- --- ------ -------- ----- --- ------ ----- --<br>----- ----- ---------- --- --- ------ ------ ---- -- ------<br>------- --- ------ ----- --- ---- ------- -- ---- --- --<br>------- ------,193253.20000004768,193252.39999985695,193025.596,193029,193042.705,193258.9,,19,to
screen,html.Screen,2_1_1_1_20,2022-05-09T20:25:55.273Z,,,,,,,,,,,,,,,,,54,,,,,,,,,,,,,,184.6999999046384,,response,,,,100,,,,,,,Space,keypress(Space),,,,,,,,-- --- ---- --- ------ ----- ------- ---- -- --- ------- --<br>------- ---------- ------ -- ----- -- ----- -- save ------<br>--- ----- --- --- ------ -------- ----- --- ------ ----- --<br>----- ----- ---------- --- --- ------ ------ ---- -- ------<br>------- --- ------ ----- --- ---- ------- -- ---- --- --<br>------- ------,193444.5,193443.59999990463,193242.551,193253.39999985695,193258.9,193459.032,,20,save
screen,html.Screen,2_1_1_1_21,2022-05-09T20:25:55.639Z,,,,,,,,,,,,,,,,,54,,,,,,,,,,,,,,350.56799990462605,,response,,,,100,,,,,,,Space,keypress(Space),,,,,,,,"-- --- ---- --- ------ ----- ------- ---- -- --- ------- --<br>------- ---------- ------ -- ----- -- ----- -- ---- money,<br>--- ----- --- --- ------ -------- ----- --- ------ ----- --<br>----- ----- ---------- --- --- ------ ------ ---- -- ------<br>------- --- ------ ----- --- ---- ------- -- ---- --- --<br>------- ------",193810.39999985695,193809.59999990463,193442.293,193444.70000004768,193459.032,193825.979,,21,"money,"
screen,html.Screen,2_1_1_1_22,2022-05-09T20:25:56.307Z,,,,,,,,,,,,,,,,,54,,,,,,,,,,,,,,652.2210000476916,,response,,,,100,,,,,,,Space,keypress(Space),,,,,,,,-- --- ---- --- ------ ----- ------- ---- -- --- ------- --<br>------- ---------- ------ -- ----- -- ----- -- ---- ------<br>the ----- --- --- ------ -------- ----- --- ------ ----- --<br>----- ----- ---------- --- --- ------ ------ ---- -- ------<br>------- --- ------ ----- --- ---- ------- -- ---- --- --<br>------- ------,194479.09999990463,194478.20000004768,193808.918,193810.59999990463,193825.979,194492.393,,22,the
screen,html.Screen,2_1_1_1_23,2022-05-09T20:25:56.496Z,,,,,,,,,,,,,,,,,54,,,,,,,,,,,,,,174.60699999998906,,response,,,,100,,,,,,,Space,keypress(Space),,,,,,,,-- --- ---- --- ------ ----- ------- ---- -- --- ------- --<br>------- ---------- ------ -- ----- -- ----- -- ---- ------<br>--- state --- --- ------ -------- ----- --- ------ ----- --<br>----- ----- ---------- --- --- ------ ------ ---- -- ------<br>------- --- ------ ----- --- ---- ------- -- ---- --- --<br>------- ------,194668,194667,194475.392,194479.29999995232,194492.393,194675.547,,23,state
screen,html.Screen,2_1_1_1_24,2022-05-09T20:25:56.797Z,,,,,,,,,,,,,,,,,54,,,,,,,,,,,,,,292.5529999046412,,response,,,,100,,,,,,,Space,keypress(Space),,,,,,,,-- --- ---- --- ------ ----- ------- ---- -- --- ------- --<br>------- ---------- ------ -- ----- -- ----- -- ---- ------<br>--- ----- cut --- ------ -------- ----- --- ------ ----- --<br>----- ----- ---------- --- --- ------ ------ ---- -- ------<br>------- --- ------ ----- --- ---- ------- -- ---- --- --<br>------- ------,194969,194968.09999990463,194659.028,194668.20000004768,194675.547,194975.42,,24,cut
screen,html.Screen,2_1_1_1_25,2022-05-09T20:25:57.020Z,,,,,,,,,,,,,,,,,54,,,,,,,,,,,,,,216.0799999999872,,response,,,,100,,,,,,,Space,keypress(Space),,,,,,,,-- --- ---- --- ------ ----- ------- ---- -- --- ------- --<br>------- ---------- ------ -- ----- -- ----- -- ---- ------<br>--- ----- --- the ------ -------- ----- --- ------ ----- --<br>----- ----- ---------- --- --- ------ ------ ---- -- ------<br>------- --- ------ ----- --- ---- ------- -- ---- --- --<br>------- ------,195192.39999985695,195191.5,194958.67,194969.20000004768,194975.42,195209.147,,25,the
screen,html.Screen,2_1_1_1_26,2022-05-09T20:25:57.227Z,,,,,,,,,,,,,,,,,54,,,,,,,,,,,,,,188.3530000000028,,response,,,,100,,,,,,,Space,keypress(Space),,,,,,,,-- --- ---- --- ------ ----- ------- ---- -- --- ------- --<br>------- ---------- ------ -- ----- -- ----- -- ---- ------<br>--- ----- --- --- bonds' -------- ----- --- ------ ----- --<br>----- ----- ---------- --- --- ------ ------ ---- -- ------<br>------- --- ------ ----- --- ---- ------- -- ---- --- --<br>------- ------,195399,195397.5,195191.972,195192.59999990463,195209.147,195408.868,,26,bonds'
screen,html.Screen,2_1_1_1_27,2022-05-09T20:25:57.645Z,,,,,,,,,,,,,,,,,54,,,,,,,,,,,,,,407.4319999523286,,response,,,,100,,,,,,,Space,keypress(Space),,,,,,,,-- --- ---- --- ------ ----- ------- ---- -- --- ------- --<br>------- ---------- ------ -- ----- -- ----- -- ---- ------<br>--- ----- --- --- ------ interest ----- --- ------ ----- --<br>----- ----- ---------- --- --- ------ ------ ---- -- ------<br>------- --- ------ ----- --- ---- ------- -- ---- --- --<br>------- ------,195817.20000004768,195816.29999995232,195392.106,195399.09999990463,195408.868,195825.596,,27,interest
screen,html.Screen,2_1_1_1_28,2022-05-09T20:25:58.080Z,,,,,,,,,,,,,,,,,54,,,,,,,,,,,,,,425.10400004769326,,response,,,,100,,,,,,,Space,keypress(Space),,,,,,,,-- --- ---- --- ------ ----- ------- ---- -- --- ------- --<br>------- ---------- ------ -- ----- -- ----- -- ---- ------<br>--- ----- --- --- ------ -------- rate. --- ------ ----- --<br>----- ----- ---------- --- --- ------ ------ ---- -- ------<br>------- --- ------ ----- --- ---- ------- -- ---- --- --<br>------- ------,196251.79999995232,196250.70000004768,195808.622,195817.39999985695,195825.596,196258.676,,28,rate.
screen,html.Screen,2_1_1_1_29,2022-05-09T20:25:58.450Z,,,,,,,,,,,,,,,,,54,,,,,,,,,,,,,,362.32399999999325,,response,,,,100,,,,,,,Space,keypress(Space),,,,,,,,-- --- ---- --- ------ ----- ------- ---- -- --- ------- --<br>------- ---------- ------ -- ----- -- ----- -- ---- ------<br>--- ----- --- --- ------ -------- ----- The ------ ----- --<br>----- ----- ---------- --- --- ------ ------ ---- -- ------<br>------- --- ------ ----- --- ---- ------- -- ---- --- --<br>------- ------,196622,196621,196241.925,196251.89999985695,196258.676,196625.234,,29,The
screen,html.Screen,2_1_1_1_30,2022-05-09T20:25:58.749Z,,,,,,,,,,,,,,,,,54,,,,,,,,,,,,,,295.1659998569521,,response,,,,100,,,,,,,Space,keypress(Space),,,,,,,,-- --- ---- --- ------ ----- ------- ---- -- --- ------- --<br>------- ---------- ------ -- ----- -- ----- -- ---- ------<br>--- ----- --- --- ------ -------- ----- --- market ----- --<br>----- ----- ---------- --- --- ------ ------ ---- -- ------<br>------- --- ------ ----- --- ---- ------- -- ---- --- --<br>------- ------,196921.29999995232,196920.39999985695,196608.546,196622.09999990463,196625.234,196925.126,,30,market
screen,html.Screen,2_1_1_1_31,2022-05-09T20:25:59.089Z,,,,,,,,,,,,,,,,,54,,,,,,,,,,,,,,334.9739999046433,,response,,,,100,,,,,,,Space,keypress(Space),,,,,,,,-- --- ---- --- ------ ----- ------- ---- -- --- ------- --<br>------- ---------- ------ -- ----- -- ----- -- ---- ------<br>--- ----- --- --- ------ -------- ----- --- ------ value --<br>----- ----- ---------- --- --- ------ ------ ---- -- ------<br>------- --- ------ ----- --- ---- ------- -- ---- --- --<br>------- ------,197261.09999990463,197260.09999990463,196908.744,196921.5,196925.126,197275.355,,31,value
screen,html.Screen,2_1_1_1_32,2022-05-09T20:25:59.424Z,,,,,,,,,,,,,,,,,54,,,,,,,,,,,,,,319.5449998569384,,response,,,,100,,,,,,,Space,keypress(Space),,,,,,,,-- --- ---- --- ------ ----- ------- ---- -- --- ------- --<br>------- ---------- ------ -- ----- -- ----- -- ---- ------<br>--- ----- --- --- ------ -------- ----- --- ------ ----- of<br>----- ----- ---------- --- --- ------ ------ ---- -- ------<br>------- --- ------ ----- --- ---- ------- -- ---- --- --<br>------- ------,197595.89999985695,197594.89999985695,197258.465,197261.20000004768,197275.355,197608.533,,32,of
screen,html.Screen,2_1_1_1_33,2022-05-09T20:25:59.745Z,,,,,,,,,,,,,,,,,54,,,,,,,,,,,,,,307.06699990463676,,response,,,,100,,,,,,,Space,keypress(Space),,,,,,,,-- --- ---- --- ------ ----- ------- ---- -- --- ------- --<br>------- ---------- ------ -- ----- -- ----- -- ---- ------<br>--- ----- --- --- ------ -------- ----- --- ------ ----- --<br>these ----- ---------- --- --- ------ ------ ---- -- ------<br>------- --- ------ ----- --- ---- ------- -- ---- --- --<br>------- ------,197917,197915.59999990463,197591.874,197596.09999990463,197608.533,197925.311,,33,these
screen,html.Screen,2_1_1_1_34,2022-05-09T20:25:59.983Z,,,,,,,,,,,,,,,,,54,,,,,,,,,,,,,,229.18900000001304,,response,,,,100,,,,,,,Space,keypress(Space),,,,,,,,-- --- ---- --- ------ ----- ------- ---- -- --- ------- --<br>------- ---------- ------ -- ----- -- ----- -- ---- ------<br>--- ----- --- --- ------ -------- ----- --- ------ ----- --<br>----- bonds ---------- --- --- ------ ------ ---- -- ------<br>------- --- ------ ----- --- ---- ------- -- ---- --- --<br>------- ------,198155.29999995232,198154.5,197908.563,197917.09999990463,197925.311,198158.292,,34,bonds
screen,html.Screen,2_1_1_1_35,2022-05-09T20:26:00.324Z,,,,,,,,,,,,,,,,,54,,,,,,,,,,,,,,337.20800000001327,,response,,,,100,,,,,,,Space,keypress(Space),,,,,,,,"-- --- ---- --- ------ ----- ------- ---- -- --- ------- --<br>------- ---------- ------ -- ----- -- ----- -- ---- ------<br>--- ----- --- --- ------ -------- ----- --- ------ ----- --<br>----- ----- plummeted, --- --- ------ ------ ---- -- ------<br>------- --- ------ ----- --- ---- ------- -- ---- --- --<br>------- ------",198496.39999985695,198495.5,198141.709,198155.5,198158.292,198508.507,,35,"plummeted,"
screen,html.Screen,2_1_1_1_36,2022-05-09T20:26:00.734Z,,,,,,,,,,,,,,,,,54,,,,,,,,,,,,,,396.99299999998766,,response,,,,100,,,,,,,Space,keypress(Space),,,,,,,,-- --- ---- --- ------ ----- ------- ---- -- --- ------- --<br>------- ---------- ------ -- ----- -- ----- -- ---- ------<br>--- ----- --- --- ------ -------- ----- --- ------ ----- --<br>----- ----- ---------- and --- ------ ------ ---- -- ------<br>------- --- ------ ----- --- ---- ------- -- ---- --- --<br>------- ------,198906.29999995232,198905.5,198491.538,198496.5,198508.507,198908.24,,36,and
screen,html.Screen,2_1_1_1_37,2022-05-09T20:26:01.058Z,,,,,,,,,,,,,,,,,54,,,,,,,,,,,,,,321.0599999523256,,response,,,,100,,,,,,,Space,keypress(Space),,,,,,,,-- --- ---- --- ------ ----- ------- ---- -- --- ------- --<br>------- ---------- ------ -- ----- -- ----- -- ---- ------<br>--- ----- --- --- ------ -------- ----- --- ------ ----- --<br>----- ----- ---------- --- the ------ ------ ---- -- ------<br>------- --- ------ ----- --- ---- ------- -- ---- --- --<br>------- ------,199230.20000004768,199229.29999995232,198891.776,198906.39999985695,198908.24,199241.619,,37,the
screen,html.Screen,2_1_1_1_38,2022-05-09T20:26:01.369Z,,,,,,,,,,,,,,,,,54,,,,,,,,,,,,,,297.9809999046265,,response,,,,100,,,,,,,Space,keypress(Space),,,,,,,,-- --- ---- --- ------ ----- ------- ---- -- --- ------- --<br>------- ---------- ------ -- ----- -- ----- -- ---- ------<br>--- ----- --- --- ------ -------- ----- --- ------ ----- --<br>----- ----- ---------- --- --- market ------ ---- -- ------<br>------- --- ------ ----- --- ---- ------- -- ---- --- --<br>------- ------,199540.59999990463,199539.59999990463,199224.907,199230.5,199241.619,199575.236,,38,market
screen,html.Screen,2_1_1_1_39,2022-05-09T20:26:01.658Z,,,,,,,,,,,,,,,,,54,,,,,,,,,,,,,,253.56399995231186,,response,,,,100,,,,,,,Space,keypress(Space),,,,,,,,-- --- ---- --- ------ ----- ------- ---- -- --- ------- --<br>------- ---------- ------ -- ----- -- ----- -- ---- ------<br>--- ----- --- --- ------ -------- ----- --- ------ ----- --<br>----- ----- ---------- --- --- ------ became ---- -- ------<br>------- --- ------ ----- --- ---- ------- -- ---- --- --<br>------- ------,199829.70000004768,199828.79999995232,199558.399,199540.79999995232,199575.236,199841.758,,39,became
screen,html.Screen,2_1_1_1_40,2022-05-09T20:26:02.038Z,,,,,,,,,,,,,,,,,54,,,,,,,,,,,,,,366.6419998569472,,response,,,,100,,,,,,,Space,keypress(Space),,,,,,,,-- --- ---- --- ------ ----- ------- ---- -- --- ------- --<br>------- ---------- ------ -- ----- -- ----- -- ---- ------<br>--- ----- --- --- ------ -------- ----- --- ------ ----- --<br>----- ----- ---------- --- --- ------ ------ wary -- ------<br>------- --- ------ ----- --- ---- ------- -- ---- --- --<br>------- ------,200209.5,200208.39999985695,199824.708,199829.89999985695,199841.758,200224.851,,40,wary
screen,html.Screen,2_1_1_1_41,2022-05-09T20:26:02.378Z,,,,,,,,,,,,,,,,,54,,,,,,,,,,,,,,324.1490000000049,,response,,,,100,,,,,,,Space,keypress(Space),,,,,,,,-- --- ---- --- ------ ----- ------- ---- -- --- ------- --<br>------- ---------- ------ -- ----- -- ----- -- ---- ------<br>--- ----- --- --- ------ -------- ----- --- ------ ----- --<br>----- ----- ---------- --- --- ------ ------ ---- of ------<br>------- --- ------ ----- --- ---- ------- -- ---- --- --<br>------- ------,200549.89999985695,200549,200208.176,200209.70000004768,200224.851,200558.465,,41,of
screen,html.Screen,2_1_1_1_42,2022-05-09T20:26:02.793Z,,,,,,,,,,,,,,,,,54,,,,,,,,,,,,,,405.7350000476872,,response,,,,100,,,,,,,Space,keypress(Space),,,,,,,,-- --- ---- --- ------ ----- ------- ---- -- --- ------- --<br>------- ---------- ------ -- ----- -- ----- -- ---- ------<br>--- ----- --- --- ------ -------- ----- --- ------ ----- --<br>----- ----- ---------- --- --- ------ ------ ---- -- French<br>------- --- ------ ----- --- ---- ------- -- ---- --- --<br>------- ------,200965.20000004768,200964.20000004768,200541.28,200550.09999990463,200558.465,200974.793,,42,French
screen,html.Screen,2_1_1_1_43,2022-05-09T20:26:03.152Z,,,,,,,,,,,,,,,,,54,,,,,,,,,,,,,,348.00699995231116,,response,,,,100,,,,,,,Space,keypress(Space),,,,,,,,-- --- ---- --- ------ ----- ------- ---- -- --- ------- --<br>------- ---------- ------ -- ----- -- ----- -- ---- ------<br>--- ----- --- --- ------ -------- ----- --- ------ ----- --<br>----- ----- ---------- --- --- ------ ------ ---- -- ------<br>credit. --- ------ ----- --- ---- ------- -- ---- --- --<br>------- ------,201323.79999995232,201322.79999995232,200958.121,200965.39999985695,200974.793,201341.307,,43,credit.
screen,html.Screen,2_1_1_1_44,2022-05-09T20:26:03.486Z,,,,,,,,,,,,,,,,,54,,,,,,,,,,,,,,316.09299985694815,,response,,,,100,,,,,,,Space,keypress(Space),,,,,,,,-- --- ---- --- ------ ----- ------- ---- -- --- ------- --<br>------- ---------- ------ -- ----- -- ----- -- ---- ------<br>--- ----- --- --- ------ -------- ----- --- ------ ----- --<br>----- ----- ---------- --- --- ------ ------ ---- -- ------<br>------- The ------ ----- --- ---- ------- -- ---- --- --<br>------- ------,201658.39999985695,201657.39999985695,201308.144,201323.89999985695,201341.307,201675.004,,44,The
screen,html.Screen,2_1_1_1_45,2022-05-09T20:26:03.757Z,,,,,,,,,,,,,,,,,54,,,,,,,,,,,,,,253.0959999046463,,response,,,,100,,,,,,,Space,keypress(Space),,,,,,,,-- --- ---- --- ------ ----- ------- ---- -- --- ------- --<br>------- ---------- ------ -- ----- -- ----- -- ---- ------<br>--- ----- --- --- ------ -------- ----- --- ------ ----- --<br>----- ----- ---------- --- --- ------ ------ ---- -- ------<br>------- --- French ----- --- ---- ------- -- ---- --- --<br>------- ------,201929.09999990463,201928.09999990463,201658.029,201658.59999990463,201675.004,201941.465,,45,French
screen,html.Screen,2_1_1_1_46,2022-05-09T20:26:04.012Z,,,,,,,,,,,,,,,,,54,,,,,,,,,,,,,,242.0350000000035,,response,,,,100,,,,,,,Space,keypress(Space),,,,,,,,-- --- ---- --- ------ ----- ------- ---- -- --- ------- --<br>------- ---------- ------ -- ----- -- ----- -- ---- ------<br>--- ----- --- --- ------ -------- ----- --- ------ ----- --<br>----- ----- ---------- --- --- ------ ------ ---- -- ------<br>------- --- ------ state --- ---- ------- -- ---- --- --<br>------- ------,202184.5,202183.5,201924.498,201929.5,201941.465,202191.243,,46,state
screen,html.Screen,2_1_1_1_47,2022-05-09T20:26:04.438Z,,,,,,,,,,,,,,,,,54,,,,,,,,,,,,,,417.3569999046449,,response,,,,100,,,,,,,Space,keypress(Space),,,,,,,,-- --- ---- --- ------ ----- ------- ---- -- --- ------- --<br>------- ---------- ------ -- ----- -- ----- -- ---- ------<br>--- ----- --- --- ------ -------- ----- --- ------ ----- --<br>----- ----- ---------- --- --- ------ ------ ---- -- ------<br>------- --- ------ ----- was ---- ------- -- ---- --- --<br>------- ------,202609.5,202608.59999990463,202174.741,202184.59999990463,202191.243,202624.496,,47,was
screen,html.Screen,2_1_1_1_48,2022-05-09T20:26:04.811Z,,,,,,,,,,,,,,,,,54,,,,,,,,,,,,,,357.4039998569351,,response,,,,100,,,,,,,Space,keypress(Space),,,,,,,,-- --- ---- --- ------ ----- ------- ---- -- --- ------- --<br>------- ---------- ------ -- ----- -- ----- -- ---- ------<br>--- ----- --- --- ------ -------- ----- --- ------ ----- --<br>----- ----- ---------- --- --- ------ ------ ---- -- ------<br>------- --- ------ ----- --- left ------- -- ---- --- --<br>------- ------,202982.79999995232,202981.89999985695,202607.975,202609.70000004768,202624.496,202991.251,,48,left
screen,html.Screen,2_1_1_1_49,2022-05-09T20:26:05.151Z,,,,,,,,,,,,,,,,,54,,,,,,,,,,,,,,330.4490000476944,,response,,,,100,,,,,,,Space,keypress(Space),,,,,,,,-- --- ---- --- ------ ----- ------- ---- -- --- ------- --<br>------- ---------- ------ -- ----- -- ----- -- ---- ------<br>--- ----- --- --- ------ -------- ----- --- ------ ----- --<br>----- ----- ---------- --- --- ------ ------ ---- -- ------<br>------- --- ------ ----- --- ---- without -- ---- --- --<br>------- ------,203322.70000004768,203321.70000004768,202974.637,202983,202991.251,203347.687,,49,without
screen,html.Screen,2_1_1_1_50,2022-05-09T20:26:05.527Z,,,,,,,,,,,,,,,,,54,,,,,,,,,,,,,,349.9129999046272,,response,,,,100,,,,,,,Space,keypress(Space),,,,,,,,-- --- ---- --- ------ ----- ------- ---- -- --- ------- --<br>------- ---------- ------ -- ----- -- ----- -- ---- ------<br>--- ----- --- --- ------ -------- ----- --- ------ ----- --<br>----- ----- ---------- --- --- ------ ------ ---- -- ------<br>------- --- ------ ----- --- ---- ------- an ---- --- --<br>------- ------,203698.5,203697.59999990463,203307.847,203322.79999995232,203347.687,203707.931,,50,an
screen,html.Screen,2_1_1_1_51,2022-05-09T20:26:05.922Z,,,,,,,,,,,,,,,,,54,,,,,,,,,,,,,,385.46899985693744,,response,,,,100,,,,,,,Space,keypress(Space),,,,,,,,-- --- ---- --- ------ ----- ------- ---- -- --- ------- --<br>------- ---------- ------ -- ----- -- ----- -- ---- ------<br>--- ----- --- --- ------ -------- ----- --- ------ ----- --<br>----- ----- ---------- --- --- ------ ------ ---- -- ------<br>------- --- ------ ----- --- ---- ------- -- easy --- --<br>------- ------,204094.39999985695,204093.39999985695,203691.178,203698.79999995232,203707.931,204107.638,,51,easy
screen,html.Screen,2_1_1_1_52,2022-05-09T20:26:06.368Z,,,,,,,,,,,,,,,,,54,,,,,,,,,,,,,,430.8619999999937,,response,,,,100,,,,,,,Space,keypress(Space),,,,,,,,-- --- ---- --- ------ ----- ------- ---- -- --- ------- --<br>------- ---------- ------ -- ----- -- ----- -- ---- ------<br>--- ----- --- --- ------ -------- ----- --- ------ ----- --<br>----- ----- ---------- --- --- ------ ------ ---- -- ------<br>------- --- ------ ----- --- ---- ------- -- ---- way --<br>------- ------,204539.5,204538.5,204090.836,204094.5,204107.638,204567.238,,52,way
screen,html.Screen,2_1_1_1_53,2022-05-09T20:26:06.976Z,,,,,,,,,,,,,,,,,54,,,,,,,,,,,,,,579.3619999046205,,response,,,,100,,,,,,,Space,keypress(Space),,,,,,,,-- --- ---- --- ------ ----- ------- ---- -- --- ------- --<br>------- ---------- ------ -- ----- -- ----- -- ---- ------<br>--- ----- --- --- ------ -------- ----- --- ------ ----- --<br>----- ----- ---------- --- --- ------ ------ ---- -- ------<br>------- --- ------ ----- --- ---- ------- -- ---- --- of<br>------- ------,205147.59999990463,205146.59999990463,204524.2,204539.70000004768,204567.238,205157.646,,53,of
screen,html.Screen,2_1_1_1_54,2022-05-09T20:26:07.404Z,,,,,,,,,,,,,,,,,54,,,,,,,,,,,,,,417.95399990462465,,response,,,,100,,,,,,,Space,keypress(Space),,,,,,,,-- --- ---- --- ------ ----- ------- ---- -- --- ------- --<br>------- ---------- ------ -- ----- -- ----- -- ---- ------<br>--- ----- --- --- ------ -------- ----- --- ------ ----- --<br>----- ----- ---------- --- --- ------ ------ ---- -- ------<br>------- --- ------ ----- --- ---- ------- -- ---- --- --<br>raising ------,205576.39999985695,205575.59999990463,205140.766,205147.89999985695,205157.646,205590.795,,54,raising
screen,html.Screen,2_1_1_1_55,2022-05-09T20:26:08.315Z,,,,,,,,,,,,,,,,,54,,,,,,,,,,,,,,895.0049999523035,,response,,,,100,,,,,,,Space,keypress(Space),,,,,,,,-- --- ---- --- ------ ----- ------- ---- -- --- ------- --<br>------- ---------- ------ -- ----- -- ----- -- ---- ------<br>--- ----- --- --- ------ -------- ----- --- ------ ----- --<br>----- ----- ---------- --- --- ------ ------ ---- -- ------<br>------- --- ------ ----- --- ---- ------- -- ---- --- --<br>------- money.,206486.70000004768,206485.79999995232,205574.146,205576.5,205590.795,206490.57,,55,money.
Item 100,flow.Loop,2_1_1_1,2022-05-09T20:26:08.315Z,,,,,,,,,,,,,,,,,,,,,,,,,,,,,,,23725.38399995232,,completion,,,,,G,,,,,,,,,,,silence,,,,,206487.09999990463,206485.79999995232,182743.674,182744.89999985695,182760.416,206490.57,,,
Question 1,html.Screen,2_1_1_2,2022-05-09T20:26:10.969Z,,,,,,,,,,,,,,,,,,,,,,,,,,,,true,TRUE,,2648.829999856942,,response,,,,100,G,,,,,,TRUE,click #choice-1,,,,silence,,,,,209140.70000004768,209139.39999985695,206473.882,206487.20000004768,206490.57,209156.946,,,
Question 2,html.Screen,2_1_1_3,2022-05-09T20:26:16.592Z,,,,,,,,,,,,,,,,,,,,,,,,,,,,true,FALSE,,5605.554000000004,,response,,,,100,G,,,,,,FALSE,click #choice-2,,,,silence,,,,,214763.79999995232,214762.5,209140.251,209140.79999995232,209156.946,214772.855,,,
Item 100,flow.Sequence,2_1_1,2022-05-09T20:26:16.592Z,,,,,,,,,,,,,,,,,,,,,,,,,,,,,,,41995.03099999999,,completion,,,,,,,,,,,,,,,,,,,,,214764.09999990463,214762.5,172728.406,172745.5,172767.469,214772.855,,,
End of Practice,html.Page,2_1_2,2022-05-09T20:26:24.286Z,,,,,,,,,,,,,,,,,,,,,,,,,,,,,,,7685.1449999999895,,form submission,,,,,,,,,,,,,,,,,,,,,222458.39999985695,222458,214756.267,214764.20000004768,214772.855,222472.017,,,
Practice,flow.Sequence,2_1,2022-05-09T20:26:24.287Z,,,,,,,,,,,,,,,,,,,,,,,,,,,,,,,96289.633,,completion,,,,,,,,,,,,,,,,,,,,,222458.70000004768,222458,126151.004,126163.70000004768,126168.367,222472.017,,,
Trap_instruction,html.Page,2_2_0,2022-05-09T20:26:28.916Z,,,,,,,,,,,,,,,,,,,,,,,,,,,,,,,4615.483000000007,,form submission,,,,,,,,,,,,,,,,,,,,,227087.79999995232,227087.5,222455.173,222458.79999995232,222472.017,227115.09,,,
trap_trial,html.Screen,2_2_1,2022-05-09T20:26:34.893Z,,,,,,,,,,,,,,,,,,,,,,,,,,,,true,1,,5949.009999904636,,response,,,,,,,,,,,1,click #choice-1,,,,,,,,,233065.20000004768,233064.09999990463,227071.666,227088,227115.09,233087.495,,,
end of trap trial,html.Page,2_2_2,2022-05-09T20:26:38.480Z,,,,,,,,,,,,,,,,,,,,,,,,,,,,,,,3564.4049998569535,,form submission,,,,,,,,,,,,,,,,,,,,,236652.29999995232,236651.89999985695,233053.801,233065.29999995232,233087.495,236653.419,,,
Trap 1,flow.Sequence,2_2,2022-05-09T20:26:38.480Z,,,,,,,,,,,,,,,,,,,,,,,,,,,,,,,14179.882999856956,,completion,,,,,,,,,,,,,,,,,,,,,236652.5,236651.89999985695,222455.173,222458.79999995232,222472.017,236653.419,,,
Standby,html.Page,2_3_0,2022-05-09T20:26:46.465Z,,,,,,,,,,,,,,,,,,,,,,,,,,,,,,,7998.940000000002,,timeout,,,,,,,,,,,,,,,,,,,,,244637.20000004768,244635.998,236636.822,236652.70000004768,236653.419,244652.359,,,
Holding screen,html.Screen,2_3_1_0_0,2022-05-09T20:26:53.471Z,,,,,,,,,,,,,,,,,,,,,,,,,,,,,,,6999.192999999999,,timeout,,,,,,,,,,,,,,,,,,,,,251642.59999990463,251634.848,244635.998,244637.70000004768,244652.359,251651.552,,,
screen,html.Screen,2_3_1_0_1_0,2022-05-09T20:26:54.474Z,,,,,,,,,,,,,,,,,51,,,,,,,,,,,,,,993.1480000476877,,response,,,,13,G,,,,,,Space,keypress(Space),,,,instrumental,,,,American -------- --- --- ---- --- --- ------ -- --------<br>---- --------- --- ------- ------------ ---------- ---------<br>--- ---------- ------- ---------- ------- -- -------- ----<br>---- --- ------ ----- ------ -- ---- --- ----- -- - -------<br>-------- -- --- --- -- ----- ----------- ----- -----------<br>---- --- ---------- --- ---- --- -- ----------,252645.59999990463,252644.70000004768,251634.848,251642.89999985695,251651.552,252651.358,,0,American
screen,html.Screen,2_3_1_0_1_1,2022-05-09T20:26:55.001Z,,,,,,,,,,,,,,,,,51,,,,,,,,,,,,,,520.9419999523088,,response,,,,13,G,,,,,,Space,keypress(Space),,,,instrumental,,,,-------- industry --- --- ---- --- --- ------ -- --------<br>---- --------- --- ------- ------------ ---------- ---------<br>--- ---------- ------- ---------- ------- -- -------- ----<br>---- --- ------ ----- ------ -- ---- --- ----- -- - -------<br>-------- -- --- --- -- ----- ----------- ----- -----------<br>---- --- ---------- --- ---- --- -- ----------,253173.20000004768,253172.29999995232,252634.595,252645.89999985695,252651.358,253185.003,,1,industry
screen,html.Screen,2_3_1_0_1_2,2022-05-09T20:26:55.516Z,,,,,,,,,,,,,,,,,51,,,,,,,,,,,,,,502.0969999046356,,response,,,,13,G,,,,,,Space,keypress(Space),,,,instrumental,,,,-------- -------- may --- ---- --- --- ------ -- --------<br>---- --------- --- ------- ------------ ---------- ---------<br>--- ---------- ------- ---------- ------- -- -------- ----<br>---- --- ------ ----- ------ -- ---- --- ----- -- - -------<br>-------- -- --- --- -- ----- ----------- ----- -----------<br>---- --- ---------- --- ---- --- -- ----------,253688,253687.09999990463,253167.907,253173.39999985695,253185.003,253701.525,,2,may
screen,html.Screen,2_3_1_0_1_3,2022-05-09T20:26:55.966Z,,,,,,,,,,,,,,,,,51,,,,,,,,,,,,,,435.3749998569547,,response,,,,13,G,,,,,,Space,keypress(Space),,,,instrumental,,,,-------- -------- --- not ---- --- --- ------ -- --------<br>---- --------- --- ------- ------------ ---------- ---------<br>--- ---------- ------- ---------- ------- -- -------- ----<br>---- --- ------ ----- ------ -- ---- --- ----- -- - -------<br>-------- -- --- --- -- ----- ----------- ----- -----------<br>---- --- ---------- --- ---- --- -- ----------,254138.09999990463,254136.89999985695,253684.657,253688.20000004768,253701.525,254151.578,,3,not
screen,html.Screen,2_3_1_0_1_4,2022-05-09T20:26:56.426Z,,,,,,,,,,,,,,,,,51,,,,,,,,,,,,,,445.72199995230767,,response,,,,13,G,,,,,,Space,keypress(Space),,,,instrumental,,,,-------- -------- --- --- know --- --- ------ -- --------<br>---- --------- --- ------- ------------ ---------- ---------<br>--- ---------- ------- ---------- ------- -- -------- ----<br>---- --- ------ ----- ------ -- ---- --- ----- -- - -------<br>-------- -- --- --- -- ----- ----------- ----- -----------<br>---- --- ---------- --- ---- --- -- ----------,254598.39999985695,254597.29999995232,254134.65,254138.20000004768,254151.578,254601.024,,4,know
screen,html.Screen,2_3_1_0_1_5,2022-05-09T20:26:57.840Z,,,,,,,,,,,,,,,,,51,,,,,,,,,,,,,,1410.2759999523114,,response,,,,13,G,,,,,,Space,keypress(Space),,,,instrumental,,,,"-------- -------- --- --- ---- it, --- ------ -- --------<br>---- --------- --- ------- ------------ ---------- ---------<br>--- ---------- ------- ---------- ------- -- -------- ----<br>---- --- ------ ----- ------ -- ---- --- ----- -- - -------<br>-------- -- --- --- -- ----- ----------- ----- -----------<br>---- --- ---------- --- ---- --- -- ----------",256012.29999995232,256011.29999995232,254584.325,254598.59999990463,254601.024,256018.022,,5,"it,"
screen,html.Screen,2_3_1_0_1_6,2022-05-09T20:26:58.205Z,,,,,,,,,,,,,,,,,51,,,,,,,,,,,,,,357.57799990463536,,response,,,,13,G,,,,,,Space,keypress(Space),,,,instrumental,,,,-------- -------- --- --- ---- --- but ------ -- --------<br>---- --------- --- ------- ------------ ---------- ---------<br>--- ---------- ------- ---------- ------- -- -------- ----<br>---- --- ------ ----- ------ -- ---- --- ----- -- - -------<br>-------- -- --- --- -- ----- ----------- ----- -----------<br>---- --- ---------- --- ---- --- -- ----------,256376.70000004768,256375.59999990463,256000.972,256012.39999985695,256018.022,256384.27,,6,but
screen,html.Screen,2_3_1_0_1_7,2022-05-09T20:26:58.460Z,,,,,,,,,,,,,,,,,51,,,,,,,,,,,,,,246.4300000476942,,response,,,,13,G,,,,,,Space,keypress(Space),,,,instrumental,,,,-------- -------- --- --- ---- --- --- debate -- --------<br>---- --------- --- ------- ------------ ---------- ---------<br>--- ---------- ------- ---------- ------- -- -------- ----<br>---- --- ------ ----- ------ -- ---- --- ----- -- - -------<br>-------- -- --- --- -- ----- ----------- ----- -----------<br>---- --- ---------- --- ---- --- -- ----------,256631.70000004768,256630.70000004768,256367.514,256376.89999985695,256384.27,256634.146,,7,debate
screen,html.Screen,2_3_1_0_1_8,2022-05-09T20:26:58.885Z,,,,,,,,,,,,,,,,,51,,,,,,,,,,,,,,421.65399995230837,,response,,,,13,G,,,,,,Space,keypress(Space),,,,instrumental,,,,-------- -------- --- --- ---- --- --- ------ in --------<br>---- --------- --- ------- ------------ ---------- ---------<br>--- ---------- ------- ---------- ------- -- -------- ----<br>---- --- ------ ----- ------ -- ---- --- ----- -- - -------<br>-------- -- --- --- -- ----- ----------- ----- -----------<br>---- --- ---------- --- ---- --- -- ----------,257056.79999995232,257055.79999995232,256617.694,256631.89999985695,256634.146,257067.859,,8,in
screen,html.Screen,2_3_1_0_1_9,2022-05-09T20:26:59.290Z,,,,,,,,,,,,,,,,,51,,,,,,,,,,,,,,393.64100000000326,,response,,,,13,G,,,,,,Space,keypress(Space),,,,instrumental,,,,-------- -------- --- --- ---- --- --- ------ -- Congress<br>---- --------- --- ------- ------------ ---------- ---------<br>--- ---------- ------- ---------- ------- -- -------- ----<br>---- --- ------ ----- ------ -- ---- --- ----- -- - -------<br>-------- -- --- --- -- ----- ----------- ----- -----------<br>---- --- ---------- --- ---- --- -- ----------,257462.39999985695,257461.5,257050.738,257056.89999985695,257067.859,257467.473,,9,Congress
screen,html.Screen,2_3_1_0_1_10,2022-05-09T20:26:59.809Z,,,,,,,,,,,,,,,,,51,,,,,,,,,,,,,,512.4269998569507,,response,,,,13,G,,,,,,Space,keypress(Space),,,,instrumental,,,,-------- -------- --- --- ---- --- --- ------ -- --------<br>over --------- --- ------- ------------ ---------- ---------<br>--- ---------- ------- ---------- ------- -- -------- ----<br>---- --- ------ ----- ------ -- ---- --- ----- -- - -------<br>-------- -- --- --- -- ----- ----------- ----- -----------<br>---- --- ---------- --- ---- --- -- ----------,257980.89999985695,257979.89999985695,257450.798,257462.59999990463,257467.473,257983.981,,10,over
screen,html.Screen,2_3_1_0_1_11,2022-05-09T20:27:00.534Z,,,,,,,,,,,,,,,,,51,,,,,,,,,,,,,,720.6189999046328,,response,,,,13,G,,,,,,Space,keypress(Space),,,,instrumental,,,,-------- -------- --- --- ---- --- --- ------ -- --------<br>---- reforming --- ------- ------------ ---------- ---------<br>--- ---------- ------- ---------- ------- -- -------- ----<br>---- --- ------ ----- ------ -- ---- --- ----- -- - -------<br>-------- -- --- --- -- ----- ----------- ----- -----------<br>---- --- ---------- --- ---- --- -- ----------,258705.59999990463,258704.59999990463,257967.278,257981.09999990463,257983.981,258717.631,,11,reforming
screen,html.Screen,2_3_1_0_1_12,2022-05-09T20:27:00.908Z,,,,,,,,,,,,,,,,,51,,,,,,,,,,,,,,361.86900000000605,,response,,,,13,G,,,,,,Space,keypress(Space),,,,instrumental,,,,-------- -------- --- --- ---- --- --- ------ -- --------<br>---- --------- the ------- ------------ ---------- ---------<br>--- ---------- ------- ---------- ------- -- -------- ----<br>---- --- ------ ----- ------ -- ---- --- ----- -- - -------<br>-------- -- --- --- -- ----- ----------- ----- -----------<br>---- --- ---------- --- ---- --- -- ----------,259080.39999985695,259079.5,258700.863,258705.79999995232,258717.631,259083.774,,12,the
screen,html.Screen,2_3_1_0_1_13,2022-05-09T20:27:01.229Z,,,,,,,,,,,,,,,,,51,,,,,,,,,,,,,,315.7259999999951,,response,,,,13,G,,,,,,Space,keypress(Space),,,,instrumental,,,,-------- -------- --- --- ---- --- --- ------ -- --------<br>---- --------- --- federal ------------ ---------- ---------<br>--- ---------- ------- ---------- ------- -- -------- ----<br>---- --- ------ ----- ------ -- ---- --- ----- -- - -------<br>-------- -- --- --- -- ----- ----------- ----- -----------<br>---- --- ---------- --- ---- --- -- ----------,259401.20000004768,259399.5,259067.314,259080.5,259083.774,259417.61,,13,federal
screen,html.Screen,2_3_1_0_1_14,2022-05-09T20:27:01.668Z,,,,,,,,,,,,,,,,,51,,,,,,,,,,,,,,421.5900000476977,,response,,,,13,G,,,,,,Space,keypress(Space),,,,instrumental,,,,-------- -------- --- --- ---- --- --- ------ -- --------<br>---- --------- --- ------- government's ---------- ---------<br>--- ---------- ------- ---------- ------- -- -------- ----<br>---- --- ------ ----- ------ -- ---- --- ----- -- - -------<br>-------- -- --- --- -- ----- ----------- ----- -----------<br>---- --- ---------- --- ---- --- -- ----------,259840,259839.20000004768,259400.843,259401.29999995232,259417.61,259850.634,,14,government's
screen,html.Screen,2_3_1_0_1_15,2022-05-09T20:27:02.258Z,,,,,,,,,,,,,,,,,51,,,,,,,,,,,,,,578.5660000476928,,response,,,,13,G,,,,,,Space,keypress(Space),,,,instrumental,,,,-------- -------- --- --- ---- --- --- ------ -- --------<br>---- --------- --- ------- ------------ regulatory ---------<br>--- ---------- ------- ---------- ------- -- -------- ----<br>---- --- ------ ----- ------ -- ---- --- ----- -- - -------<br>-------- -- --- --- -- ----- ----------- ----- -----------<br>---- --- ---------- --- ---- --- -- ----------,260430.20000004768,260429.20000004768,259833.751,259840.20000004768,259850.634,260433.613,,15,regulatory
screen,html.Screen,2_3_1_0_1_16,2022-05-09T20:27:02.973Z,,,,,,,,,,,,,,,,,51,,,,,,,,,,,,,,710.2869998569367,,response,,,,13,G,,,,,,Space,keypress(Space),,,,instrumental,,,,-------- -------- --- --- ---- --- --- ------ -- --------<br>---- --------- --- ------- ------------ ---------- apparatus<br>--- ---------- ------- ---------- ------- -- -------- ----<br>---- --- ------ ----- ------ -- ---- --- ----- -- - -------<br>-------- -- --- --- -- ----- ----------- ----- -----------<br>---- --- ---------- --- ---- --- -- ----------,261144.70000004768,261143.89999985695,260417.077,260430.39999985695,260433.613,261150.176,,16,apparatus
screen,html.Screen,2_3_1_0_1_17,2022-05-09T20:27:03.502Z,,,,,,,,,,,,,,,,,51,,,,,,,,,,,,,,523.3239999999932,,response,,,,13,G,,,,,,Space,keypress(Space),,,,instrumental,,,,-------- -------- --- --- ---- --- --- ------ -- --------<br>---- --------- --- ------- ------------ ---------- ---------<br>may ---------- ------- ---------- ------- -- -------- ----<br>---- --- ------ ----- ------ -- ---- --- ----- -- - -------<br>-------- -- --- --- -- ----- ----------- ----- -----------<br>---- --- ---------- --- ---- --- -- ----------,261674.29999995232,261673.5,261133.435,261144.89999985695,261150.176,261683.639,,17,may
screen,html.Screen,2_3_1_0_1_18,2022-05-09T20:27:04.152Z,,,,,,,,,,,,,,,,,51,,,,,,,,,,,,,,639.7609998569533,,response,,,,13,G,,,,,,Space,keypress(Space),,,,instrumental,,,,-------- -------- --- --- ---- --- --- ------ -- --------<br>---- --------- --- ------- ------------ ---------- ---------<br>--- profoundly ------- ---------- ------- -- -------- ----<br>---- --- ------ ----- ------ -- ---- --- ----- -- - -------<br>-------- -- --- --- -- ----- ----------- ----- -----------<br>---- --- ---------- --- ---- --- -- ----------,262324.39999985695,262323.39999985695,261666.995,261674.5,261683.639,262333.542,,18,profoundly
screen,html.Screen,2_3_1_0_1_19,2022-05-09T20:27:04.984Z,,,,,,,,,,,,,,,,,51,,,,,,,,,,,,,,821.857999856933,,response,,,,13,G,,,,,,Space,keypress(Space),,,,instrumental,,,,-------- -------- --- --- ---- --- --- ------ -- --------<br>---- --------- --- ------- ------------ ---------- ---------<br>--- ---------- improve ---------- ------- -- -------- ----<br>---- --- ------ ----- ------ -- ---- --- ----- -- - -------<br>-------- -- --- --- -- ----- ----------- ----- -----------<br>---- --- ---------- --- ---- --- -- ----------,263156.2000000477,263155.39999985695,262316.66,262324.59999990463,262333.542,263166.794,,19,improve
screen,html.Screen,2_3_1_0_1_20,2022-05-09T20:27:06.256Z,,,,,,,,,,,,,,,,,51,,,,,,,,,,,,,,1260.5059999523219,,response,,,,13,G,,,,,,Space,keypress(Space),,,,instrumental,,,,-------- -------- --- --- ---- --- --- ------ -- --------<br>---- --------- --- ------- ------------ ---------- ---------<br>--- ---------- ------- companies' ------- -- -------- ----<br>---- --- ------ ----- ------ -- ---- --- ----- -- - -------<br>-------- -- --- --- -- ----- ----------- ----- -----------<br>---- --- ---------- --- ---- --- -- ----------,264428.5,264427.2999999523,263149.924,263156.39999985695,263166.794,264433.086,,20,companies'
screen,html.Screen,2_3_1_0_1_21,2022-05-09T20:27:06.701Z,,,,,,,,,,,,,,,,,51,,,,,,,,,,,,,,439.41399999998976,,response,,,,13,G,,,,,,Space,keypress(Space),,,,instrumental,,,,-------- -------- --- --- ---- --- --- ------ -- --------<br>---- --------- --- ------- ------------ ---------- ---------<br>--- ---------- ------- ---------- ability -- -------- ----<br>---- --- ------ ----- ------ -- ---- --- ----- -- - -------<br>-------- -- --- --- -- ----- ----------- ----- -----------<br>---- --- ---------- --- ---- --- -- ----------,264873.39999985695,264872.5,264416.35,264428.59999990463,264433.086,264883.262,,21,ability
screen,html.Screen,2_3_1_0_1_22,2022-05-09T20:27:06.991Z,,,,,,,,,,,,,,,,,51,,,,,,,,,,,,,,278.3379999046447,,response,,,,13,G,,,,,,Space,keypress(Space),,,,instrumental,,,,-------- -------- --- --- ---- --- --- ------ -- --------<br>---- --------- --- ------- ------------ ---------- ---------<br>--- ---------- ------- ---------- ------- to -------- ----<br>---- --- ------ ----- ------ -- ---- --- ----- -- - -------<br>-------- -- --- --- -- ----- ----------- ----- -----------<br>---- --- ---------- --- ---- --- -- ----------,265162.7000000477,265161.59999990463,264866.389,264873.7000000477,264883.262,265166.321,,22,to
screen,html.Screen,2_3_1_0_1_23,2022-05-09T20:27:07.277Z,,,,,,,,,,,,,,,,,51,,,,,,,,,,,,,,281.2789999046363,,response,,,,13,G,,,,,,Space,keypress(Space),,,,instrumental,,,,-------- -------- --- --- ---- --- --- ------ -- --------<br>---- --------- --- ------- ------------ ---------- ---------<br>--- ---------- ------- ---------- ------- -- survive. ----<br>---- --- ------ ----- ------ -- ---- --- ----- -- - -------<br>-------- -- --- --- -- ----- ----------- ----- -----------<br>---- --- ---------- --- ---- --- -- ----------,265448.59999990463,265447.59999990463,265149.85,265162.89999985695,265166.321,265480.998,,23,survive.
screen,html.Screen,2_3_1_0_1_24,2022-05-09T20:27:07.835Z,,,,,,,,,,,,,,,,,51,,,,,,,,,,,,,,525.4019998569274,,response,,,,13,G,,,,,,Space,keypress(Space),,,,instrumental,,,,-------- -------- --- --- ---- --- --- ------ -- --------<br>---- --------- --- ------- ------------ ---------- ---------<br>--- ---------- ------- ---------- ------- -- -------- This<br>---- --- ------ ----- ------ -- ---- --- ----- -- - -------<br>-------- -- --- --- -- ----- ----------- ----- -----------<br>---- --- ---------- --- ---- --- -- ----------,266007.5,266006.39999985695,265433.026,265448.7999999523,265480.998,266016.413,,24,This
screen,html.Screen,2_3_1_0_1_25,2022-05-09T20:27:08.110Z,,,,,,,,,,,,,,,,,51,,,,,,,,,,,,,,264.8869999523158,,response,,,,13,G,,,,,,Space,keypress(Space),,,,instrumental,,,,-------- -------- --- --- ---- --- --- ------ -- --------<br>---- --------- --- ------- ------------ ---------- ---------<br>--- ---------- ------- ---------- ------- -- -------- ----<br>week --- ------ ----- ------ -- ---- --- ----- -- - -------<br>-------- -- --- --- -- ----- ----------- ----- -----------<br>---- --- ---------- --- ---- --- -- ----------,266282.2999999523,266281.2999999523,265999.781,266007.7000000477,266016.413,266299.826,,25,week
screen,html.Screen,2_3_1_0_1_26,2022-05-09T20:27:08.311Z,,,,,,,,,,,,,,,,,51,,,,,,,,,,,,,,182.47399995231535,,response,,,,13,G,,,,,,Space,keypress(Space),,,,instrumental,,,,-------- -------- --- --- ---- --- --- ------ -- --------<br>---- --------- --- ------- ------------ ---------- ---------<br>--- ---------- ------- ---------- ------- -- -------- ----<br>---- the ------ ----- ------ -- ---- --- ----- -- - -------<br>-------- -- --- --- -- ----- ----------- ----- -----------<br>---- --- ---------- --- ---- --- -- ----------,266483.2999999523,266482.2999999523,266282.904,266282.5,266299.826,266499.734,,26,the
screen,html.Screen,2_3_1_0_1_27,2022-05-09T20:27:08.525Z,,,,,,,,,,,,,,,,,51,,,,,,,,,,,,,,196.6659998569521,,response,,,,13,G,,,,,,Space,keypress(Space),,,,instrumental,,,,-------- -------- --- --- ---- --- --- ------ -- --------<br>---- --------- --- ------- ------------ ---------- ---------<br>--- ---------- ------- ---------- ------- -- -------- ----<br>---- --- Senate ----- ------ -- ---- --- ----- -- - -------<br>-------- -- --- --- -- ----- ----------- ----- -----------<br>---- --- ---------- --- ---- --- -- ----------,266697.2999999523,266696.39999985695,266483.073,266483.5,266499.734,266699.513,,27,Senate
screen,html.Screen,2_3_1_0_1_28,2022-05-09T20:27:08.935Z,,,,,,,,,,,,,,,,,51,,,,,,,,,,,,,,406.2869999523391,,response,,,,13,G,,,,,,Space,keypress(Space),,,,instrumental,,,,-------- -------- --- --- ---- --- --- ------ -- --------<br>---- --------- --- ------- ------------ ---------- ---------<br>--- ---------- ------- ---------- ------- -- -------- ----<br>---- --- ------ seems ------ -- ---- --- ----- -- - -------<br>-------- -- --- --- -- ----- ----------- ----- -----------<br>---- --- ---------- --- ---- --- -- ----------,267106.7000000477,267105.7999999523,266682.871,266697.5,266699.513,267116.522,,28,seems
screen,html.Screen,2_3_1_0_1_29,2022-05-09T20:27:09.270Z,,,,,,,,,,,,,,,,,51,,,,,,,,,,,,,,324.1780000476865,,response,,,,13,G,,,,,,Space,keypress(Space),,,,instrumental,,,,-------- -------- --- --- ---- --- --- ------ -- --------<br>---- --------- --- ------- ------------ ---------- ---------<br>--- ---------- ------- ---------- ------- -- -------- ----<br>---- --- ------ ----- poised -- ---- --- ----- -- - -------<br>-------- -- --- --- -- ----- ----------- ----- -----------<br>---- --- ---------- --- ---- --- -- ----------,267441.5,267440.7000000477,267099.473,267106.89999985695,267116.522,267449.394,,29,poised
screen,html.Screen,2_3_1_0_1_30,2022-05-09T20:27:09.609Z,,,,,,,,,,,,,,,,,51,,,,,,,,,,,,,,331.10600000002887,,response,,,,13,G,,,,,,Space,keypress(Space),,,,instrumental,,,,-------- -------- --- --- ---- --- --- ------ -- --------<br>---- --------- --- ------- ------------ ---------- ---------<br>--- ---------- ------- ---------- ------- -- -------- ----<br>---- --- ------ ----- ------ to ---- --- ----- -- - -------<br>-------- -- --- --- -- ----- ----------- ----- -----------<br>---- --- ---------- --- ---- --- -- ----------,267781.5,267780.5,267432.842,267441.7000000477,267449.394,267815.572,,30,to
screen,html.Screen,2_3_1_0_1_31,2022-05-09T20:27:09.895Z,,,,,,,,,,,,,,,,,51,,,,,,,,,,,,,,250.22799995233072,,response,,,,13,G,,,,,,Space,keypress(Space),,,,instrumental,,,,-------- -------- --- --- ---- --- --- ------ -- --------<br>---- --------- --- ------- ------------ ---------- ---------<br>--- ---------- ------- ---------- ------- -- -------- ----<br>---- --- ------ ----- ------ -- join --- ----- -- - -------<br>-------- -- --- --- -- ----- ----------- ----- -----------<br>---- --- ---------- --- ---- --- -- ----------,268066.7999999523,268065.7999999523,267766.258,267781.59999990463,267815.572,268082.647,,31,join
screen,html.Screen,2_3_1_0_1_32,2022-05-09T20:27:10.169Z,,,,,,,,,,,,,,,,,51,,,,,,,,,,,,,,257.5530000476865,,response,,,,13,G,,,,,,Space,keypress(Space),,,,instrumental,,,,-------- -------- --- --- ---- --- --- ------ -- --------<br>---- --------- --- ------- ------------ ---------- ---------<br>--- ---------- ------- ---------- ------- -- -------- ----<br>---- --- ------ ----- ------ -- ---- the ----- -- - -------<br>-------- -- --- --- -- ----- ----------- ----- -----------<br>---- --- ---------- --- ---- --- -- ----------,268341.2000000477,268340.2000000477,268066.052,268067.09999990463,268082.647,268349.42,,32,the
screen,html.Screen,2_3_1_0_1_33,2022-05-09T20:27:11.404Z,,,,,,,,,,,,,,,,,51,,,,,,,,,,,,,,1225.4799998569652,,response,,,,13,G,,,,,,Space,keypress(Space),,,,instrumental,,,,-------- -------- --- --- ---- --- --- ------ -- --------<br>---- --------- --- ------- ------------ ---------- ---------<br>--- ---------- ------- ---------- ------- -- -------- ----<br>---- --- ------ ----- ------ -- ---- --- House -- - -------<br>-------- -- --- --- -- ----- ----------- ----- -----------<br>---- --- ---------- --- ---- --- -- ----------,269575.89999985695,269574.89999985695,268332.691,268341.39999985695,268349.42,269582.56,,33,House
screen,html.Screen,2_3_1_0_1_34,2022-05-09T20:27:11.734Z,,,,,,,,,,,,,,,,,51,,,,,,,,,,,,,,322.3399998569512,,response,,,,13,G,,,,,,Space,keypress(Space),,,,instrumental,,,,-------- -------- --- --- ---- --- --- ------ -- --------<br>---- --------- --- ------- ------------ ---------- ---------<br>--- ---------- ------- ---------- ------- -- -------- ----<br>---- --- ------ ----- ------ -- ---- --- ----- in - -------<br>-------- -- --- --- -- ----- ----------- ----- -----------<br>---- --- ---------- --- ---- --- -- ----------,269906,269904.89999985695,269565.859,269576.09999990463,269582.56,269916.108,,34,in
screen,html.Screen,2_3_1_0_1_35,2022-05-09T20:27:12.063Z,,,,,,,,,,,,,,,,,51,,,,,,,,,,,,,,318.2919998569414,,response,,,,13,G,,,,,,Space,keypress(Space),,,,instrumental,,,,-------- -------- --- --- ---- --- --- ------ -- --------<br>---- --------- --- ------- ------------ ---------- ---------<br>--- ---------- ------- ---------- ------- -- -------- ----<br>---- --- ------ ----- ------ -- ---- --- ----- -- a -------<br>-------- -- --- --- -- ----- ----------- ----- -----------<br>---- --- ---------- --- ---- --- -- ----------,270235.2999999523,270234.39999985695,269899.179,269906,269916.108,270249.33,,35,a
screen,html.Screen,2_3_1_0_1_36,2022-05-09T20:27:12.493Z,,,,,,,,,,,,,,,,,51,,,,,,,,,,,,,,415.1699999999837,,response,,,,13,G,,,,,,Space,keypress(Space),,,,instrumental,,,,-------- -------- --- --- ---- --- --- ------ -- --------<br>---- --------- --- ------- ------------ ---------- ---------<br>--- ---------- ------- ---------- ------- -- -------- ----<br>---- --- ------ ----- ------ -- ---- --- ----- -- - massive<br>-------- -- --- --- -- ----- ----------- ----- -----------<br>---- --- ---------- --- ---- --- -- ----------,270665.2999999523,270664.5,270232.301,270235.59999990463,270249.33,270682.755,,36,massive
screen,html.Screen,2_3_1_0_1_37,2022-05-09T20:27:12.813Z,,,,,,,,,,,,,,,,,51,,,,,,,,,,,,,,301.3449999046279,,response,,,,13,G,,,,,,Space,keypress(Space),,,,instrumental,,,,-------- -------- --- --- ---- --- --- ------ -- --------<br>---- --------- --- ------- ------------ ---------- ---------<br>--- ---------- ------- ---------- ------- -- -------- ----<br>---- --- ------ ----- ------ -- ---- --- ----- -- - -------<br>overhaul -- --- --- -- ----- ----------- ----- -----------<br>---- --- ---------- --- ---- --- -- ----------,270985,270984.09999990463,270665.92,270665.5,270682.755,270999.097,,37,overhaul
screen,html.Screen,2_3_1_0_1_38,2022-05-09T20:27:13.054Z,,,,,,,,,,,,,,,,,51,,,,,,,,,,,,,,225.70299995230744,,response,,,,13,G,,,,,,Space,keypress(Space),,,,instrumental,,,,-------- -------- --- --- ---- --- --- ------ -- --------<br>---- --------- --- ------- ------------ ---------- ---------<br>--- ---------- ------- ---------- ------- -- -------- ----<br>---- --- ------ ----- ------ -- ---- --- ----- -- - -------<br>-------- of --- --- -- ----- ----------- ----- -----------<br>---- --- ---------- --- ---- --- -- ----------,271225.7999999523,271224.7999999523,270982.576,270985.2000000477,270999.097,271232.219,,38,of
