sender,sender_type,sender_id,timestamp,meta,,Blues,Classical,Country,Dance,Electronic,Folk,Gospel,Hip-Hop,Jazz,Latin,Musical/Film,New-age,Pop,Prolific_id,Provo_ID,R&B,Rap,Reggae,Religious,Rock,Soul,Swing,Traditional,age,artist_name,correct,correctResponse,distraction,duration,education,ended_on,familiarity,gender,headphone_check_performance,item,list,music_frequency,offensiveness,pleasantness,position_correct,preference,response,response_action,snippet_file,song_name,song_rating,sound,stimulus_1,stimulus_2,stimulus_3,text,time_commit,time_end,time_render,time_run,time_show,time_switch,url,word,word_ID
Prolific ID,html.Form,0,2022-04-25T17:06:20.415Z,"{""labjs_version"":""20.2.2"",""labjs_build"":{""flavor"":""production"",""commit"":""a25486e0c714a0ae2ce03ff94b7bb6896854dcfa""},""location"":""https://run.pavlovia.org/mvasilev/prolific3_music_b/"",""userAgent"":""Mozilla/5.0 (Windows NT 10.0; Win64; x64) AppleWebKit/537.36 (KHTML, like Gecko) Chrome/100.0.4896.127 Safari/537.36"",""platform"":""Win32"",""language"":""en-GB"",""locale"":""en-GB"",""timeZone"":""Europe/London"",""timezoneOffset"":-60,""screen_width"":1600,""screen_height"":900,""scroll_width"":1600,""scroll_height"":741,""window_innerWidth"":1600,""window_innerHeight"":789,""devicePixelRatio"":1}",,,,,,,,,,,,,,,5b9118ad2f7c0c000181e6dc,,,,,,,,,,,,,,,25133.07999996424,,form submission,,,,,,,,,,,,,,,,,,,,,61606.30000001192,61605.09999996424,36305.36,36318.89999997616,36472.02,61709.173,{},,
Introduction,html.Screen,1_0,2022-04-25T17:06:24.720Z,,,,,,,,,,,,,,,,,,,,,,,,,,,,,,,4196.026999988077,,response,,,,,,,,,,,continue,click button,,,,,,,,,65911.30000001192,65905.19999998808,61559.179,61607.30000001192,61709.173,66013.331,,,
Volume calibration,html.Screen,1_1,2022-04-25T17:06:42.452Z,,,,,,,,,,,,,,,,,,,,,,,,,,,,,,,17618.568999976153,,response,,,,,,,,,,,continue,click button,,,,,,,,,83643.80000001192,83631.89999997616,65896.669,65912.19999998808,66013.331,83647.223,,,
Task instructions,html.Screen,1_2,2022-04-25T17:06:56.539Z,,,,,,,,,,,,,,,,,,,,,,,,,,,,,,,14080.777000000002,,response,,,,,,,,,,,continue,click button,,,,,,,,,97731.5,97728,83630.557,83644,83647.223,97776.42,,,
Sounds,html.Screen,1_3_0_0,2022-04-25T17:07:00.859Z,,,,,,,,,,,,,,,,,,,,,,,,,,,,,,,4285.269,,timeout,,,,,,,,,3,,,,,,,,O,I,S,,102051.19999998808,102011.691,97726.422,97732,97776.42,102061.689,,,
Judgement,html.Screen,1_3_0_1,2022-04-25T17:07:05.722Z,,,,,,,,,,,,,,,,,,,,,,,,,,,,true,3,,4849.910999964239,,response,,,,,,,,,3,,3,click #choice-3,,,,,O,I,S,,106914.59999996424,106911.59999996424,102011.691,102051.59999996424,102061.689,106936.764,,,
Trial,flow.Sequence,1_3_0,2022-04-25T17:07:05.731Z,,,,,,,,,,,,,,,,,,,,,,,,,,,,,,,9135.179999964239,,completion,,,,,,,,,3,,,,,,,,O,I,S,,106923.5,106911.59999996424,97726.422,97731.89999997616,97776.42,106936.764,,,
Sounds,html.Screen,1_3_1_0,2022-04-25T17:07:09.982Z,,,,,,,,,,,,,,,,,,,,,,,,,,,,,,,4250.353000000003,,timeout,,,,,,,,,2,,,,,,,,I,S,O,,111174,111170.451,106920.098,106924.5,106936.764,111187.117,,,
Judgement,html.Screen,1_3_1_1,2022-04-25T17:07:10.467Z,,,,,,,,,,,,,,,,,,,,,,,,,,,,true,2,,468.38300000000163,,response,,,,,,,,,2,,2,click #choice-2,,,,,I,S,O,,111659.69999998808,111655.5,111170.451,111174.39999997616,111187.117,111674.618,,,
Trial,flow.Sequence,1_3_1,2022-04-25T17:07:10.468Z,,,,,,,,,,,,,,,,,,,,,,,,,,,,,,,4718.736000000004,,completion,,,,,,,,,2,,,,,,,,I,S,O,,111660.39999997616,111655.5,106920.098,106924,106936.764,111674.618,,,
Sounds,html.Screen,1_3_2_0,2022-04-25T17:07:14.718Z,,,,,,,,,,,,,,,,,,,,,,,,,,,,,,,4250.091,,timeout,,,,,,,,,3,,,,,,,,I,O,S,,115910.39999997616,115908.043,111657.952,111660.80000001192,111674.618,115924.709,,,
Judgement,html.Screen,1_3_2_1,2022-04-25T17:07:15.185Z,,,,,,,,,,,,,,,,,,,,,,,,,,,,true,3,,450.89099996423465,,response,,,,,,,,,3,,3,click #choice-3,,,,,I,O,S,,116377.5,116375.59999996424,115908.043,115910.80000001192,115924.709,116379.191,,,
Trial,flow.Sequence,1_3_2,2022-04-25T17:07:15.186Z,,,,,,,,,,,,,,,,,,,,,,,,,,,,,,,4700.981999964235,,completion,,,,,,,,,3,,,,,,,,I,O,S,,116378.09999996424,116375.59999996424,111657.952,111660.59999996424,111674.618,116379.191,,,
Sounds,html.Screen,1_3_3_0,2022-04-25T17:07:19.424Z,,,,,,,,,,,,,,,,,,,,,,,,,,,,,,,4250.060999999987,,timeout,,,,,,,,,1,,,,,,,,S,I,O,,120616,120612.586,116362.525,116378.39999997616,116379.191,120629.252,,,
Judgement,html.Screen,1_3_3_1,2022-04-25T17:07:19.849Z,,,,,,,,,,,,,,,,,,,,,,,,,,,,true,1,,410.44799998808594,,response,,,,,,,,,1,,1,click #choice-1,,,,,S,I,O,,121041.59999996424,121039.69999998808,120612.586,120616.19999998808,120629.252,121050.344,,,
Trial,flow.Sequence,1_3_3,2022-04-25T17:07:19.850Z,,,,,,,,,,,,,,,,,,,,,,,,,,,,,,,4660.508999988073,,completion,,,,,,,,,1,,,,,,,,S,I,O,,121042,121039.69999998808,116362.525,116378.19999998808,116379.191,121050.344,,,
Sounds,html.Screen,1_3_4_0,2022-04-25T17:07:24.095Z,,,,,,,,,,,,,,,,,,,,,,,,,,,,,,,4250.135999999999,,timeout,,,,,,,,,1,,,,,,,,S,O,I,,125286.80000001192,125283.814,121033.678,121042.39999997616,121050.344,125300.48,,,
Judgement,html.Screen,1_3_4_1,2022-04-25T17:07:24.481Z,,,,,,,,,,,,,,,,,,,,,,,,,,,,true,1,,370.820000011925,,response,,,,,,,,,1,,1,click #choice-1,,,,,S,O,I,,125673.59999996424,125671.30000001192,125283.814,125287.39999997616,125300.48,125688.054,,,
Trial,flow.Sequence,1_3_4,2022-04-25T17:07:24.482Z,,,,,,,,,,,,,,,,,,,,,,,,,,,,,,,4620.956000011924,,completion,,,,,,,,,1,,,,,,,,S,O,I,,125674,125671.30000001192,121033.678,121042.19999998808,121050.344,125688.054,,,
Sounds,html.Screen,1_3_5_0,2022-04-25T17:07:28.732Z,,,,,,,,,,,,,,,,,,,,,,,,,,,,,,,4250.21699999999,,timeout,,,,,,,,,2,,,,,,,,O,S,I,,129923.80000001192,129921.605,125671.388,125674.30000001192,125688.054,129938.271,,,
Judgement,html.Screen,1_3_5_1,2022-04-25T17:07:29.083Z,,,,,,,,,,,,,,,,,,,,,,,,,,,,true,2,,333.9289999880857,,response,,,,,,,,,2,,2,click #choice-2,,,,,O,S,I,,130274.80000001192,130272.19999998808,129921.605,129924.09999996424,129938.271,130476.011,,,
Trial,flow.Sequence,1_3_5,2022-04-25T17:07:29.083Z,,,,,,,,,,,,,,,,,,,,,,,,,,,,,,,4584.145999988075,,completion,,,,,,,,,2,,,,,,,,O,S,I,,130275.19999998808,130272.19999998808,125671.388,125674.19999998808,125688.054,130476.011,,,
Task,flow.Loop,1_3,2022-04-25T17:07:29.099Z,,,,,,,,,,,,,,,,,,,,,,,,,,,,,,,32495.77999998808,,completion,,,1,,,,,,,,,,,,,,,,,,130290.89999997616,130272.19999998808,97726.422,97731.69999998808,97776.42,130476.011,,,
Trap,html.Screen,1_4,2022-04-25T17:07:29.102Z,,,,,,,,,,,,,,,,,,,,,,,,,,,,,,,NaN,,skipped,,,,,,,,,,,,,,,,,,,,,130294.30000001192,130272.19999998808,,130294,,130476.011,,,
Thanks,html.Screen,1_5,2022-04-25T17:07:32.697Z,,,,,,,,,,,,,,,,,,,,,,,,,,,,,,,3411.3889999761595,,response,,,,,,,,,,,continue,click button,,,,,,,,,133889.39999997616,133887.39999997616,130259.353,130294.80000001192,130476.011,137616.545,,,
Headphone screening,flow.Sequence,1,2022-04-25T17:07:32.698Z,,,,,,,,,,,,,,,,,,,,,,,,,,,,,,,72178.22699997615,,completion,,,,,,,,,,,,,,,,,,,,,133889.89999997616,133887.39999997616,61559.179,61607.09999996424,61709.173,137616.545,,,
Instructions,html.Page,2_0,2022-04-25T17:07:54.269Z,,,,,,,,,,,,,,,,,,,,,,,,,,,,,,,17843.755000011908,,form submission,,,,,,,,,,,,,,,,,,,,,155461.30000001192,155460.30000001192,137346.674,137558.5,137616.545,155483.858,,,
Holding screen,html.Screen,2_1_0_0,2022-04-25T17:08:04.285Z,,,,,,,,,,,,,,,,,,,,,,,,,,,,,,,10074.747000000003,,timeout,,,,,,,,,,,,,,,,,,,,,165476.5,165475.275,155417.194,155461.69999998808,155483.858,165558.605,,,
screen,html.Screen,2_1_0_1_0,2022-04-25T17:08:05.446Z,,,,,,,,,,,,,,,,,53,,,,,,,,,,,,,,1073.5949999880686,,response,,,,99,,,,,,,Space,keypress(Space),,,,,,,,When -- ----- -- ------ - ------- --- ----------<br>------------- ------ ------ ---- ---- ------- ----- -- ----<br>-------- ------- -- ---------- --- - --- ----- ----- ----<br>---- --- --- ----- --- ---- ---- ------- ----- ---- -------<br>--- --- -- ----- -- --- ---- -- --- ---- -- ------ ------<br>--- ----- -- ----,166637.69999998808,166632.19999998808,165475.275,165476.89999997616,165558.605,166643.938,,0,When
screen,html.Screen,2_1_0_1_1,2022-04-25T17:08:05.706Z,,,,,,,,,,,,,,,,,53,,,,,,,,,,,,,,252.26199998808443,,response,,,,99,,,,,,,Space,keypress(Space),,,,,,,,---- it ----- -- ------ - ------- --- ----------<br>------------- ------ ------ ---- ---- ------- ----- -- ----<br>-------- ------- -- ---------- --- - --- ----- ----- ----<br>---- --- --- ----- --- ---- ---- ------- ----- ---- -------<br>--- --- -- ----- -- --- ---- -- --- ---- -- ------ ------<br>--- ----- -- ----,166897.59999996424,166896.19999998808,166627.272,166638,166643.938,166910.65,,1,it
screen,html.Screen,2_1_0_1_2,2022-04-25T17:08:05.936Z,,,,,,,,,,,,,,,,,53,,,,,,,,,,,,,,214.94999996424303,,response,,,,99,,,,,,,Space,keypress(Space),,,,,,,,---- -- comes -- ------ - ------- --- ----------<br>------------- ------ ------ ---- ---- ------- ----- -- ----<br>-------- ------- -- ---------- --- - --- ----- ----- ----<br>---- --- --- ----- --- ---- ---- ------- ----- ---- -------<br>--- --- -- ----- -- --- ---- -- --- ---- -- ------ ------<br>--- ----- -- ----,167128.30000001192,167125.59999996424,166893.984,166897.89999997616,166910.65,167145.043,,2,comes
screen,html.Screen,2_1_0_1_3,2022-04-25T17:08:06.173Z,,,,,,,,,,,,,,,,,53,,,,,,,,,,,,,,218.15699998807395,,response,,,,99,,,,,,,Space,keypress(Space),,,,,,,,---- -- ----- to ------ - ------- --- ----------<br>------------- ------ ------ ---- ---- ------- ----- -- ----<br>-------- ------- -- ---------- --- - --- ----- ----- ----<br>---- --- --- ----- --- ---- ---- ------- ----- ---- -------<br>--- --- -- ----- -- --- ---- -- --- ---- -- ------ ------<br>--- ----- -- ----,167364.59999996424,167363.19999998808,167128.377,167128.59999996424,167145.043,167378.675,,3,to
screen,html.Screen,2_1_0_1_4,2022-04-25T17:08:06.418Z,,,,,,,,,,,,,,,,,53,,,,,,,,,,,,,,230.42499996424885,,response,,,,99,,,,,,,Space,keypress(Space),,,,,,,,---- -- ----- -- having - ------- --- ----------<br>------------- ------ ------ ---- ---- ------- ----- -- ----<br>-------- ------- -- ---------- --- - --- ----- ----- ----<br>---- --- --- ----- --- ---- ---- ------- ----- ---- -------<br>--- --- -- ----- -- --- ---- -- --- ---- -- ------ ------<br>--- ----- -- ----,167610.39999997616,167609.09999996424,167362.009,167364.80000001192,167378.675,167612.462,,4,having
screen,html.Screen,2_1_0_1_5,2022-04-25T17:08:06.681Z,,,,,,,,,,,,,,,,,53,,,,,,,,,,,,,,256.9379999761586,,response,,,,99,,,,,,,Space,keypress(Space),,,,,,,,---- -- ----- -- ------ a ------- --- ----------<br>------------- ------ ------ ---- ---- ------- ----- -- ----<br>-------- ------- -- ---------- --- - --- ----- ----- ----<br>---- --- --- ----- --- ---- ---- ------- ----- ---- -------<br>--- --- -- ----- -- --- ---- -- --- ---- -- ------ ------<br>--- ----- -- ----,167872.59999996424,167869.39999997616,167595.796,167610.69999998808,167612.462,167879.367,,5,a
screen,html.Screen,2_1_0_1_6,2022-04-25T17:08:06.966Z,,,,,,,,,,,,,,,,,53,,,,,,,,,,,,,,277.5329999761598,,response,,,,99,,,,,,,Space,keypress(Space),,,,,,,,---- -- ----- -- ------ - lasting --- ----------<br>------------- ------ ------ ---- ---- ------- ----- -- ----<br>-------- ------- -- ---------- --- - --- ----- ----- ----<br>---- --- --- ----- --- ---- ---- ------- ----- ---- -------<br>--- --- -- ----- -- --- ---- -- --- ---- -- ------ ------<br>--- ----- -- ----,168158.30000001192,168156.89999997616,167862.701,167872.80000001192,167879.367,168162.698,,6,lasting
screen,html.Screen,2_1_0_1_7,2022-04-25T17:08:07.304Z,,,,,,,,,,,,,,,,,53,,,,,,,,,,,,,,329.7019999761542,,response,,,,99,,,,,,,Space,keypress(Space),,,,,,,,---- -- ----- -- ------ - ------- and ----------<br>------------- ------ ------ ---- ---- ------- ----- -- ----<br>-------- ------- -- ---------- --- - --- ----- ----- ----<br>---- --- --- ----- --- ---- ---- ------- ----- ---- -------<br>--- --- -- ----- -- --- ---- -- --- ---- -- ------ ------<br>--- ----- -- ----,168496.19999998808,168492.39999997616,168146.032,168158.5,168162.698,168513.228,,7,and
screen,html.Screen,2_1_0_1_8,2022-04-25T17:08:07.625Z,,,,,,,,,,,,,,,,,53,,,,,,,,,,,,,,302.57200001191813,,response,,,,99,,,,,,,Space,keypress(Space),,,,,,,,---- -- ----- -- ------ - ------- --- fulfilling<br>------------- ------ ------ ---- ---- ------- ----- -- ----<br>-------- ------- -- ---------- --- - --- ----- ----- ----<br>---- --- --- ----- --- ---- ---- ------- ----- ---- -------<br>--- --- -- ----- -- --- ---- -- --- ---- -- ------ ------<br>--- ----- -- ----,168817.19999998808,168815.80000001192,168496.562,168496.30000001192,168513.228,168830.204,,8,fulfilling
screen,html.Screen,2_1_0_1_9,2022-04-25T17:08:07.933Z,,,,,,,,,,,,,,,,,53,,,,,,,,,,,,,,293.69599997616024,,response,,,,99,,,,,,,Space,keypress(Space),,,,,,,,"---- -- ----- -- ------ - ------- --- ----------<br>relationship, ------ ------ ---- ---- ------- ----- -- ----<br>-------- ------- -- ---------- --- - --- ----- ----- ----<br>---- --- --- ----- --- ---- ---- ------- ----- ---- -------<br>--- --- -- ----- -- --- ---- -- --- ---- -- ------ ------<br>--- ----- -- ----",169125.30000001192,169123.89999997616,168813.538,168817.59999996424,168830.204,169130.214,,9,"relationship,"
screen,html.Screen,2_1_0_1_10,2022-04-25T17:08:08.241Z,,,,,,,,,,,,,,,,,53,,,,,,,,,,,,,,300.88599996423,,response,,,,99,,,,,,,Space,keypress(Space),,,,,,,,---- -- ----- -- ------ - ------- --- ----------<br>------------- common ------ ---- ---- ------- ----- -- ----<br>-------- ------- -- ---------- --- - --- ----- ----- ----<br>---- --- --- ----- --- ---- ---- ------- ----- ---- -------<br>--- --- -- ----- -- --- ---- -- --- ---- -- ------ ------<br>--- ----- -- ----,169432.69999998808,169431.09999996424,169113.548,169125.59999996424,169130.214,169447.162,,10,common
screen,html.Screen,2_1_0_1_11,2022-04-25T17:08:08.992Z,,,,,,,,,,,,,,,,,53,,,,,,,,,,,,,,735.0379999880679,,response,,,,99,,,,,,,Space,keypress(Space),,,,,,,,---- -- ----- -- ------ - ------- --- ----------<br>------------- ------ wisdom ---- ---- ------- ----- -- ----<br>-------- ------- -- ---------- --- - --- ----- ----- ----<br>---- --- --- ----- --- ---- ---- ------- ----- ---- -------<br>--- --- -- ----- -- --- ---- -- --- ---- -- ------ ------<br>--- ----- -- ----,170183.89999997616,170182.19999998808,169430.496,169432.89999997616,169447.162,170197.785,,11,wisdom
screen,html.Screen,2_1_0_1_12,2022-04-25T17:08:09.283Z,,,,,,,,,,,,,,,,,53,,,,,,,,,,,,,,276.01500001191744,,response,,,,99,,,,,,,Space,keypress(Space),,,,,,,,---- -- ----- -- ------ - ------- --- ----------<br>------------- ------ ------ says ---- ------- ----- -- ----<br>-------- ------- -- ---------- --- - --- ----- ----- ----<br>---- --- --- ----- --- ---- ---- ------- ----- ---- -------<br>--- --- -- ----- -- --- ---- -- --- ---- -- ------ ------<br>--- ----- -- ----,170475.09999996424,170473.80000001192,170181.119,170184.09999996424,170197.785,170481.874,,12,says
screen,html.Screen,2_1_0_1_13,2022-04-25T17:08:09.681Z,,,,,,,,,,,,,,,,,53,,,,,,,,,,,,,,389.32599998806836,,response,,,,99,,,,,,,Space,keypress(Space),,,,,,,,---- -- ----- -- ------ - ------- --- ----------<br>------------- ------ ------ ---- that ------- ----- -- ----<br>-------- ------- -- ---------- --- - --- ----- ----- ----<br>---- --- --- ----- --- ---- ---- ------- ----- ---- -------<br>--- --- -- ----- -- --- ---- -- --- ---- -- ------ ------<br>--- ----- -- ----,170872.69999998808,170871.19999998808,170465.208,170475.39999997616,170481.874,170882.137,,13,that
screen,html.Screen,2_1_0_1_14,2022-04-25T17:08:09.971Z,,,,,,,,,,,,,,,,,53,,,,,,,,,,,,,,279.5629999880912,,response,,,,99,,,,,,,Space,keypress(Space),,,,,,,,---- -- ----- -- ------ - ------- --- ----------<br>------------- ------ ------ ---- ---- feeling ----- -- ----<br>-------- ------- -- ---------- --- - --- ----- ----- ----<br>---- --- --- ----- --- ---- ---- ------- ----- ---- -------<br>--- --- -- ----- -- --- ---- -- --- ---- -- ------ ------<br>--- ----- -- ----,171163.09999996424,171161.69999998808,170865.471,170874.30000001192,170882.137,171165.907,,14,feeling
screen,html.Screen,2_1_0_1_15,2022-04-25T17:08:10.321Z,,,,,,,,,,,,,,,,,53,,,,,,,,,,,,,,344.3930000119144,,response,,,,99,,,,,,,Space,keypress(Space),,,,,,,,---- -- ----- -- ------ - ------- --- ----------<br>------------- ------ ------ ---- ---- ------- close -- ----<br>-------- ------- -- ---------- --- - --- ----- ----- ----<br>---- --- --- ----- --- ---- ---- ------- ----- ---- -------<br>--- --- -- ----- -- --- ---- -- --- ---- -- ------ ------<br>--- ----- -- ----,171513.09999996424,171510.30000001192,171149.241,171163.30000001192,171165.907,171516.162,,15,close
screen,html.Screen,2_1_0_1_16,2022-04-25T17:08:10.632Z,,,,,,,,,,,,,,,,,53,,,,,,,,,,,,,,304.93799996422604,,response,,,,99,,,,,,,Space,keypress(Space),,,,,,,,---- -- ----- -- ------ - ------- --- ----------<br>------------- ------ ------ ---- ---- ------- ----- to ----<br>-------- ------- -- ---------- --- - --- ----- ----- ----<br>---- --- --- ----- --- ---- ---- ------- ----- ---- -------<br>--- --- -- ----- -- --- ---- -- --- ---- -- ------ ------<br>--- ----- -- ----,171824.30000001192,171821.09999996424,171499.496,171513.39999997616,171516.162,171833.168,,16,to
screen,html.Screen,2_1_0_1_17,2022-04-25T17:08:10.908Z,,,,,,,,,,,,,,,,,53,,,,,,,,,,,,,,265.53199998807395,,response,,,,99,,,,,,,Space,keypress(Space),,,,,,,,---- -- ----- -- ------ - ------- --- ----------<br>------------- ------ ------ ---- ---- ------- ----- -- your<br>-------- ------- -- ---------- --- - --- ----- ----- ----<br>---- --- --- ----- --- ---- ---- ------- ----- ---- -------<br>--- --- -- ----- -- --- ---- -- --- ---- -- ------ ------<br>--- ----- -- ----,172100.30000001192,172098.69999998808,171816.502,171824.5,171833.168,172116.456,,17,your
screen,html.Screen,2_1_0_1_18,2022-04-25T17:08:11.209Z,,,,,,,,,,,,,,,,,53,,,,,,,,,,,,,,283.1439999642316,,response,,,,99,,,,,,,Space,keypress(Space),,,,,,,,---- -- ----- -- ------ - ------- --- ----------<br>------------- ------ ------ ---- ---- ------- ----- -- ----<br>romantic ------- -- ---------- --- - --- ----- ----- ----<br>---- --- --- ----- --- ---- ---- ------- ----- ---- -------<br>--- --- -- ----- -- --- ---- -- --- ---- -- ------ ------<br>--- ----- -- ----,172401.19999998808,172399.59999996424,172099.79,172100.69999998808,172116.456,172417.045,,18,romantic
screen,html.Screen,2_1_0_1_19,2022-04-25T17:08:11.522Z,,,,,,,,,,,,,,,,,53,,,,,,,,,,,,,,295.9549999999872,,response,,,,99,,,,,,,Space,keypress(Space),,,,,,,,---- -- ----- -- ------ - ------- --- ----------<br>------------- ------ ------ ---- ---- ------- ----- -- ----<br>-------- partner -- ---------- --- - --- ----- ----- ----<br>---- --- --- ----- --- ---- ---- ------- ----- ---- -------<br>--- --- -- ----- -- --- ---- -- --- ---- -- ------ ------<br>--- ----- -- ----,172714.39999997616,172713,172400.379,172401.30000001192,172417.045,172717.381,,19,partner
screen,html.Screen,2_1_0_1_20,2022-04-25T17:08:11.791Z,,,,,,,,,,,,,,,,,53,,,,,,,,,,,,,,264.3189999880851,,response,,,,99,,,,,,,Space,keypress(Space),,,,,,,,---- -- ----- -- ------ - ------- --- ----------<br>------------- ------ ------ ---- ---- ------- ----- -- ----<br>-------- ------- is ---------- --- - --- ----- ----- ----<br>---- --- --- ----- --- ---- ---- ------- ----- ---- -------<br>--- --- -- ----- -- --- ---- -- --- ---- -- ------ ------<br>--- ----- -- ----,172983.09999996424,172981.69999998808,172700.715,172714.59999996424,172717.381,173000.719,,20,is
screen,html.Screen,2_1_0_1_21,2022-04-25T17:08:12.048Z,,,,,,,,,,,,,,,,,53,,,,,,,,,,,,,,235.18099997614627,,response,,,,99,,,,,,,Space,keypress(Space),,,,,,,,---- -- ----- -- ------ - ------- --- ----------<br>------------- ------ ------ ---- ---- ------- ----- -- ----<br>-------- ------- -- paramount. --- - --- ----- ----- ----<br>---- --- --- ----- --- ---- ---- ------- ----- ---- -------<br>--- --- -- ----- -- --- ---- -- --- ---- -- ------ ------<br>--- ----- -- ----,173240,173235.89999997616,172984.053,172983.19999998808,173000.719,173251.213,,21,paramount.
screen,html.Screen,2_1_0_1_22,2022-04-25T17:08:12.463Z,,,,,,,,,,,,,,,,,53,,,,,,,,,,,,,,402.7870000000112,,response,,,,99,,,,,,,Space,keypress(Space),,,,,,,,---- -- ----- -- ------ - ------- --- ----------<br>------------- ------ ------ ---- ---- ------- ----- -- ----<br>-------- ------- -- ---------- But - --- ----- ----- ----<br>---- --- --- ----- --- ---- ---- ------- ----- ---- -------<br>--- --- -- ----- -- --- ---- -- --- ---- -- ------ ------<br>--- ----- -- ----,173655.39999997616,173654,173234.547,173240.39999997616,173251.213,173668.133,,22,But
screen,html.Screen,2_1_0_1_23,2022-04-25T17:08:12.738Z,,,,,,,,,,,,,,,,,53,,,,,,,,,,,,,,260.86699999999837,,response,,,,99,,,,,,,Space,keypress(Space),,,,,,,,---- -- ----- -- ------ - ------- --- ----------<br>------------- ------ ------ ---- ---- ------- ----- -- ----<br>-------- ------- -- ---------- --- a --- ----- ----- ----<br>---- --- --- ----- --- ---- ---- ------- ----- ---- -------<br>--- --- -- ----- -- --- ---- -- --- ---- -- ------ ------<br>--- ----- -- ----,173930.5,173929,173651.467,173655.59999996424,173668.133,173935.24,,23,a
screen,html.Screen,2_1_0_1_24,2022-04-25T17:08:13.018Z,,,,,,,,,,,,,,,,,53,,,,,,,,,,,,,,272.8599999642465,,response,,,,99,,,,,,,Space,keypress(Space),,,,,,,,---- -- ----- -- ------ - ------- --- ----------<br>------------- ------ ------ ---- ---- ------- ----- -- ----<br>-------- ------- -- ---------- --- - new ----- ----- ----<br>---- --- --- ----- --- ---- ---- ------- ----- ---- -------<br>--- --- -- ----- -- --- ---- -- --- ---- -- ------ ------<br>--- ----- -- ----,174209.69999998808,174208.09999996424,173918.574,173930.80000001192,173935.24,174218.874,,24,new
screen,html.Screen,2_1_0_1_25,2022-04-25T17:08:13.269Z,,,,,,,,,,,,,,,,,53,,,,,,,,,,,,,,240.32599998806836,,response,,,,99,,,,,,,Space,keypress(Space),,,,,,,,---- -- ----- -- ------ - ------- --- ----------<br>------------- ------ ------ ---- ---- ------- ----- -- ----<br>-------- ------- -- ---------- --- - --- study ----- ----<br>---- --- --- ----- --- ---- ---- ------- ----- ---- -------<br>--- --- -- ----- -- --- ---- -- --- ---- -- ------ ------<br>--- ----- -- ----,174460.59999996424,174459.19999998808,174202.208,174209.80000001192,174218.874,174469.077,,25,study
screen,html.Screen,2_1_0_1_26,2022-04-25T17:08:13.526Z,,,,,,,,,,,,,,,,,53,,,,,,,,,,,,,,247.32299997616792,,response,,,,99,,,,,,,Space,keypress(Space),,,,,,,,---- -- ----- -- ------ - ------- --- ----------<br>------------- ------ ------ ---- ---- ------- ----- -- ----<br>-------- ------- -- ---------- --- - --- ----- finds ----<br>---- --- --- ----- --- ---- ---- ------- ----- ---- -------<br>--- --- -- ----- -- --- ---- -- --- ---- -- ------ ------<br>--- ----- -- ----,174717.69999998808,174716.39999997616,174452.411,174460.89999997616,174469.077,174719.384,,26,finds
screen,html.Screen,2_1_0_1_27,2022-04-25T17:08:13.796Z,,,,,,,,,,,,,,,,,53,,,,,,,,,,,,,,266.81599998808815,,response,,,,99,,,,,,,Space,keypress(Space),,,,,,,,---- -- ----- -- ------ - ------- --- ----------<br>------------- ------ ------ ---- ---- ------- ----- -- ----<br>-------- ------- -- ---------- --- - --- ----- ----- that<br>---- --- --- ----- --- ---- ---- ------- ----- ---- -------<br>--- --- -- ----- -- --- ---- -- --- ---- -- ------ ------<br>--- ----- -- ----,174987.59999996424,174986.19999998808,174702.718,174718,174719.384,175002.911,,27,that
screen,html.Screen,2_1_0_1_28,2022-04-25T17:08:14.063Z,,,,,,,,,,,,,,,,,53,,,,,,,,,,,,,,250.98899997616536,,response,,,,99,,,,,,,Space,keypress(Space),,,,,,,,---- -- ----- -- ------ - ------- --- ----------<br>------------- ------ ------ ---- ---- ------- ----- -- ----<br>-------- ------- -- ---------- --- - --- ----- ----- ----<br>it's --- --- ----- --- ---- ---- ------- ----- ---- -------<br>--- --- -- ----- -- --- ---- -- --- ---- -- ------ ------<br>--- ----- -- ----,175255.19999998808,175253.89999997616,174986.245,174987.89999997616,175002.911,175269.883,,28,it's
screen,html.Screen,2_1_0_1_29,2022-04-25T17:08:14.290Z,,,,,,,,,,,,,,,,,53,,,,,,,,,,,,,,209.4170000119193,,response,,,,99,,,,,,,Space,keypress(Space),,,,,,,,---- -- ----- -- ------ - ------- --- ----------<br>------------- ------ ------ ---- ---- ------- ----- -- ----<br>-------- ------- -- ---------- --- - --- ----- ----- ----<br>---- not --- ----- --- ---- ---- ------- ----- ---- -------<br>--- --- -- ----- -- --- ---- -- --- ---- -- ------ ------<br>--- ----- -- ----,175481.69999998808,175479.30000001192,175253.217,175255.39999997616,175269.883,175486.82,,29,not
screen,html.Screen,2_1_0_1_30,2022-04-25T17:08:14.551Z,,,,,,,,,,,,,,,,,53,,,,,,,,,,,,,,252.77999996423023,,response,,,,99,,,,,,,Space,keypress(Space),,,,,,,,---- -- ----- -- ------ - ------- --- ----------<br>------------- ------ ------ ---- ---- ------- ----- -- ----<br>-------- ------- -- ---------- --- - --- ----- ----- ----<br>---- --- how ----- --- ---- ---- ------- ----- ---- -------<br>--- --- -- ----- -- --- ---- -- --- ---- -- ------ ------<br>--- ----- -- ----,175743.09999996424,175739.59999996424,175470.154,175481.89999997616,175486.82,175753.707,,30,how
screen,html.Screen,2_1_0_1_31,2022-04-25T17:08:14.787Z,,,,,,,,,,,,,,,,,53,,,,,,,,,,,,,,224.39299996424234,,response,,,,99,,,,,,,Space,keypress(Space),,,,,,,,---- -- ----- -- ------ - ------- --- ----------<br>------------- ------ ------ ---- ---- ------- ----- -- ----<br>-------- ------- -- ---------- --- - --- ----- ----- ----<br>---- --- --- close --- ---- ---- ------- ----- ---- -------<br>--- --- -- ----- -- --- ---- -- --- ---- -- ------ ------<br>--- ----- -- ----,175979.39999997616,175978.09999996424,175737.041,175743.39999997616,175753.707,175987.228,,31,close
screen,html.Screen,2_1_0_1_32,2022-04-25T17:08:15.036Z,,,,,,,,,,,,,,,,,53,,,,,,,,,,,,,,238.97199998807628,,response,,,,99,,,,,,,Space,keypress(Space),,,,,,,,---- -- ----- -- ------ - ------- --- ----------<br>------------- ------ ------ ---- ---- ------- ----- -- ----<br>-------- ------- -- ---------- --- - --- ----- ----- ----<br>---- --- --- ----- you ---- ---- ------- ----- ---- -------<br>--- --- -- ----- -- --- ---- -- --- ---- -- ------ ------<br>--- ----- -- ----,176227.69999998808,176226.19999998808,175970.562,175979.69999998808,175987.228,176237.312,,32,you
screen,html.Screen,2_1_0_1_33,2022-04-25T17:08:15.292Z,,,,,,,,,,,,,,,,,53,,,,,,,,,,,,,,245.18799999999464,,response,,,,99,,,,,,,Space,keypress(Space),,,,,,,,---- -- ----- -- ------ - ------- --- ----------<br>------------- ------ ------ ---- ---- ------- ----- -- ----<br>-------- ------- -- ---------- --- - --- ----- ----- ----<br>---- --- --- ----- --- feel ---- ------- ----- ---- -------<br>--- --- -- ----- -- --- ---- -- --- ---- -- ------ ------<br>--- ----- -- ----,176483.80000001192,176482.5,176220.646,176228,176237.312,176487.699,,33,feel
screen,html.Screen,2_1_0_1_34,2022-04-25T17:08:15.557Z,,,,,,,,,,,,,,,,,53,,,,,,,,,,,,,,259.7009999761649,,response,,,,99,,,,,,,Space,keypress(Space),,,,,,,,---- -- ----- -- ------ - ------- --- ----------<br>------------- ------ ------ ---- ---- ------- ----- -- ----<br>-------- ------- -- ---------- --- - --- ----- ----- ----<br>---- --- --- ----- --- ---- that ------- ----- ---- -------<br>--- --- -- ----- -- --- ---- -- --- ---- -- ------ ------<br>--- ----- -- ----,176748.69999998808,176747.39999997616,176471.033,176484,176487.699,176754.706,,34,that
screen,html.Screen,2_1_0_1_35,2022-04-25T17:08:15.832Z,,,,,,,,,,,,,,,,,53,,,,,,,,,,,,,,267.09400001191534,,response,,,,99,,,,,,,Space,keypress(Space),,,,,,,,---- -- ----- -- ------ - ------- --- ----------<br>------------- ------ ------ ---- ---- ------- ----- -- ----<br>-------- ------- -- ---------- --- - --- ----- ----- ----<br>---- --- --- ----- --- ---- ---- matters ----- ---- -------<br>--- --- -- ----- -- --- ---- -- --- ---- -- ------ ------<br>--- ----- -- ----,177024.30000001192,177021.80000001192,176738.04,176749,176754.706,177038.228,,35,matters
screen,html.Screen,2_1_0_1_36,2022-04-25T17:08:16.078Z,,,,,,,,,,,,,,,,,53,,,,,,,,,,,,,,228.67199997615535,,response,,,,99,,,,,,,Space,keypress(Space),,,,,,,,"---- -- ----- -- ------ - ------- --- ----------<br>------------- ------ ------ ---- ---- ------- ----- -- ----<br>-------- ------- -- ---------- --- - --- ----- ----- ----<br>---- --- --- ----- --- ---- ---- ------- most, ---- -------<br>--- --- -- ----- -- --- ---- -- --- ---- -- ------ ------<br>--- ----- -- ----",177270.5,177266.89999997616,177021.562,177024.59999996424,177038.228,177271.813,,36,"most,"
screen,html.Screen,2_1_0_1_37,2022-04-25T17:08:16.322Z,,,,,,,,,,,,,,,,,53,,,,,,,,,,,,,,240.98700001192628,,response,,,,99,,,,,,,Space,keypress(Space),,,,,,,,---- -- ----- -- ------ - ------- --- ----------<br>------------- ------ ------ ---- ---- ------- ----- -- ----<br>-------- ------- -- ---------- --- - --- ----- ----- ----<br>---- --- --- ----- --- ---- ---- ------- ----- it's -------<br>--- --- -- ----- -- --- ---- -- --- ---- -- ------ ------<br>--- ----- -- ----,177514,177512.80000001192,177255.147,177270.69999998808,177271.813,177522.128,,37,it's
screen,html.Screen,2_1_0_1_38,2022-04-25T17:08:16.602Z,,,,,,,,,,,,,,,,,53,,,,,,,,,,,,,,270.77199997616117,,response,,,,99,,,,,,,Space,keypress(Space),,,,,,,,---- -- ----- -- ------ - ------- --- ----------<br>------------- ------ ------ ---- ---- ------- ----- -- ----<br>-------- ------- -- ---------- --- - --- ----- ----- ----<br>---- --- --- ----- --- ---- ---- ------- ----- ---- whether<br>--- --- -- ----- -- --- ---- -- --- ---- -- ------ ------<br>--- ----- -- ----,177794.19999998808,177792.89999997616,177505.462,177514.30000001192,177522.128,177805.477,,38,whether
screen,html.Screen,2_1_0_1_39,2022-04-25T17:08:16.863Z,,,,,,,,,,,,,,,,,53,,,,,,,,,,,,,,247.72299998806557,,response,,,,99,,,,,,,Space,keypress(Space),,,,,,,,---- -- ----- -- ------ - ------- --- ----------<br>------------- ------ ------ ---- ---- ------- ----- -- ----<br>-------- ------- -- ---------- --- - --- ----- ----- ----<br>---- --- --- ----- --- ---- ---- ------- ----- ---- -------<br>you --- -- ----- -- --- ---- -- --- ---- -- ------ ------<br>--- ----- -- ----,178054.59999996424,178053.19999998808,177788.811,177794.39999997616,177805.477,178055.715,,39,you
screen,html.Screen,2_1_0_1_40,2022-04-25T17:08:17.118Z,,,,,,,,,,,,,,,,,53,,,,,,,,,,,,,,252.8849999642407,,response,,,,99,,,,,,,Space,keypress(Space),,,,,,,,---- -- ----- -- ------ - ------- --- ----------<br>------------- ------ ------ ---- ---- ------- ----- -- ----<br>-------- ------- -- ---------- --- - --- ----- ----- ----<br>---- --- --- ----- --- ---- ---- ------- ----- ---- -------<br>--- are -- ----- -- --- ---- -- --- ---- -- ------ ------<br>--- ----- -- ----,178310,178308.59999996424,178039.049,178054.80000001192,178055.715,178322.883,,40,are
screen,html.Screen,2_1_0_1_41,2022-04-25T17:08:17.366Z,,,,,,,,,,,,,,,,,53,,,,,,,,,,,,,,233.81699998807744,,response,,,,99,,,,,,,Space,keypress(Space),,,,,,,,---- -- ----- -- ------ - ------- --- ----------<br>------------- ------ ------ ---- ---- ------- ----- -- ----<br>-------- ------- -- ---------- --- - --- ----- ----- ----<br>---- --- --- ----- --- ---- ---- ------- ----- ---- -------<br>--- --- as ----- -- --- ---- -- --- ---- -- ------ ------<br>--- ----- -- ----,178558.09999996424,178556.69999998808,178306.217,178310.19999998808,178322.883,178573.082,,41,as
screen,html.Screen,2_1_0_1_42,2022-04-25T17:08:17.593Z,,,,,,,,,,,,,,,,,53,,,,,,,,,,,,,,210.71800001192605,,response,,,,99,,,,,,,Space,keypress(Space),,,,,,,,---- -- ----- -- ------ - ------- --- ----------<br>------------- ------ ------ ---- ---- ------- ----- -- ----<br>-------- ------- -- ---------- --- - --- ----- ----- ----<br>---- --- --- ----- --- ---- ---- ------- ----- ---- -------<br>--- --- -- close -- --- ---- -- --- ---- -- ------ ------<br>--- ----- -- ----,178785,178783.80000001192,178556.416,178558.39999997616,178573.082,178790.027,,42,close
screen,html.Screen,2_1_0_1_43,2022-04-25T17:08:17.820Z,,,,,,,,,,,,,,,,,53,,,,,,,,,,,,,,220.87299997615628,,response,,,,99,,,,,,,Space,keypress(Space),,,,,,,,---- -- ----- -- ------ - ------- --- ----------<br>------------- ------ ------ ---- ---- ------- ----- -- ----<br>-------- ------- -- ---------- --- - --- ----- ----- ----<br>---- --- --- ----- --- ---- ---- ------- ----- ---- -------<br>--- --- -- ----- as --- ---- -- --- ---- -- ------ ------<br>--- ----- -- ----,179012.30000001192,179010.89999997616,178773.361,178785.30000001192,178790.027,179023.377,,43,as
screen,html.Screen,2_1_0_1_44,2022-04-25T17:08:18.049Z,,,,,,,,,,,,,,,,,53,,,,,,,,,,,,,,215.92300001191325,,response,,,,99,,,,,,,Space,keypress(Space),,,,,,,,---- -- ----- -- ------ - ------- --- ----------<br>------------- ------ ------ ---- ---- ------- ----- -- ----<br>-------- ------- -- ---------- --- - --- ----- ----- ----<br>---- --- --- ----- --- ---- ---- ------- ----- ---- -------<br>--- --- -- ----- -- you ---- -- --- ---- -- ------ ------<br>--- ----- -- ----,179240.69999998808,179239.30000001192,179006.711,179012.5,179023.377,179256.947,,44,you
screen,html.Screen,2_1_0_1_45,2022-04-25T17:08:18.276Z,,,,,,,,,,,,,,,,,53,,,,,,,,,,,,,,209.45299997617258,,response,,,,99,,,,,,,Space,keypress(Space),,,,,,,,---- -- ----- -- ------ - ------- --- ----------<br>------------- ------ ------ ---- ---- ------- ----- -- ----<br>-------- ------- -- ---------- --- - --- ----- ----- ----<br>---- --- --- ----- --- ---- ---- ------- ----- ---- -------<br>--- --- -- ----- -- --- want -- --- ---- -- ------ ------<br>--- ----- -- ----,179468,179466.39999997616,179240.281,179240.80000001192,179256.947,179473.858,,45,want
screen,html.Screen,2_1_0_1_46,2022-04-25T17:08:18.509Z,,,,,,,,,,,,,,,,,53,,,,,,,,,,,,,,223.0419999761507,,response,,,,99,,,,,,,Space,keypress(Space),,,,,,,,---- -- ----- -- ------ - ------- --- ----------<br>------------- ------ ------ ---- ---- ------- ----- -- ----<br>-------- ------- -- ---------- --- - --- ----- ----- ----<br>---- --- --- ----- --- ---- ---- ------- ----- ---- -------<br>--- --- -- ----- -- --- ---- to --- ---- -- ------ ------<br>--- ----- -- ----,179700.59999996424,179696.89999997616,179457.192,179468.19999998808,179473.858,179707.548,,46,to
screen,html.Screen,2_1_0_1_47,2022-04-25T17:08:18.769Z,,,,,,,,,,,,,,,,,53,,,,,,,,,,,,,,251.6519999880693,,response,,,,99,,,,,,,Space,keypress(Space),,,,,,,,"---- -- ----- -- ------ - ------- --- ----------<br>------------- ------ ------ ---- ---- ------- ----- -- ----<br>-------- ------- -- ---------- --- - --- ----- ----- ----<br>---- --- --- ----- --- ---- ---- ------- ----- ---- -------<br>--- --- -- ----- -- --- ---- -- be, ---- -- ------ ------<br>--- ----- -- ----",179960.59999996424,179959.19999998808,179690.882,179700.80000001192,179707.548,179974.497,,47,"be,"
screen,html.Screen,2_1_0_1_48,2022-04-25T17:08:19.231Z,,,,,,,,,,,,,,,,,53,,,,,,,,,,,,,,446.502999999997,,response,,,,99,,,,,,,Space,keypress(Space),,,,,,,,---- -- ----- -- ------ - ------- --- ----------<br>------------- ------ ------ ---- ---- ------- ----- -- ----<br>-------- ------- -- ---------- --- - --- ----- ----- ----<br>---- --- --- ----- --- ---- ---- ------- ----- ---- -------<br>--- --- -- ----- -- --- ---- -- --- even -- ------ ------<br>--- ----- -- ----,180422.5,180421,179957.831,179960.89999997616,179974.497,180424.704,,48,even
screen,html.Screen,2_1_0_1_49,2022-04-25T17:08:19.459Z,,,,,,,,,,,,,,,,,53,,,,,,,,,,,,,,224.69599997616024,,response,,,,99,,,,,,,Space,keypress(Space),,,,,,,,---- -- ----- -- ------ - ------- --- ----------<br>------------- ------ ------ ---- ---- ------- ----- -- ----<br>-------- ------- -- ---------- --- - --- ----- ----- ----<br>---- --- --- ----- --- ---- ---- ------- ----- ---- -------<br>--- --- -- ----- -- --- ---- -- --- ---- if ------ ------<br>--- ----- -- ----,180650.69999998808,180649.39999997616,180408.038,180422.80000001192,180424.704,180658.063,,49,if
screen,html.Screen,2_1_0_1_50,2022-04-25T17:08:19.698Z,,,,,,,,,,,,,,,,,53,,,,,,,,,,,,,,230.73700001192628,,response,,,,99,,,,,,,Space,keypress(Space),,,,,,,,---- -- ----- -- ------ - ------- --- ----------<br>------------- ------ ------ ---- ---- ------- ----- -- ----<br>-------- ------- -- ---------- --- - --- ----- ----- ----<br>---- --- --- ----- --- ---- ---- ------- ----- ---- -------<br>--- --- -- ----- -- --- ---- -- --- ---- -- that's ------<br>--- ----- -- ----,180890.19999998808,180888.80000001192,180641.397,180650.89999997616,180658.063,180892.044,,50,that's
screen,html.Screen,2_1_0_1_51,2022-04-25T17:08:20.038Z,,,,,,,,,,,,,,,,,53,,,,,,,,,,,,,,337.15599998808466,,response,,,,99,,,,,,,Space,keypress(Space),,,,,,,,---- -- ----- -- ------ - ------- --- ----------<br>------------- ------ ------ ---- ---- ------- ----- -- ----<br>-------- ------- -- ---------- --- - --- ----- ----- ----<br>---- --- --- ----- --- ---- ---- ------- ----- ---- -------<br>--- --- -- ----- -- --- ---- -- --- ---- -- ------ really<br>--- ----- -- ----,181230.30000001192,181229.19999998808,180875.378,180890.39999997616,180892.044,181242.246,,51,really
screen,html.Screen,2_1_0_1_52,2022-04-25T17:08:20.359Z,,,,,,,,,,,,,,,,,53,,,,,,,,,,,,,,307.75399999998626,,response,,,,99,,,,,,,Space,keypress(Space),,,,,,,,---- -- ----- -- ------ - ------- --- ----------<br>------------- ------ ------ ---- ---- ------- ----- -- ----<br>-------- ------- -- ---------- --- - --- ----- ----- ----<br>---- --- --- ----- --- ---- ---- ------- ----- ---- -------<br>--- --- -- ----- -- --- ---- -- --- ---- -- ------ ------<br>not ----- -- ----,181551.30000001192,181550,181225.58,181230.59999996424,181242.246,181558.926,,52,not
screen,html.Screen,2_1_0_1_53,2022-04-25T17:08:20.716Z,,,,,,,,,,,,,,,,,53,,,,,,,,,,,,,,347.9739999761514,,response,,,,99,,,,,,,Space,keypress(Space),,,,,,,,---- -- ----- -- ------ - ------- --- ----------<br>------------- ------ ------ ---- ---- ------- ----- -- ----<br>-------- ------- -- ---------- --- - --- ----- ----- ----<br>---- --- --- ----- --- ---- ---- ------- ----- ---- -------<br>--- --- -- ----- -- --- ---- -- --- ---- -- ------ ------<br>--- close -- ----,181908.30000001192,181906.89999997616,181542.26,181551.59999996424,181558.926,181909.327,,53,close
screen,html.Screen,2_1_0_1_54,2022-04-25T17:08:21.044Z,,,,,,,,,,,,,,,,,53,,,,,,,,,,,,,,325.37299998808885,,response,,,,99,,,,,,,Space,keypress(Space),,,,,,,,---- -- ----- -- ------ - ------- --- ----------<br>------------- ------ ------ ---- ---- ------- ----- -- ----<br>-------- ------- -- ---------- --- - --- ----- ----- ----<br>---- --- --- ----- --- ---- ---- ------- ----- ---- -------<br>--- --- -- ----- -- --- ---- -- --- ---- -- ------ ------<br>--- ----- at ----,182236,182234.69999998808,181892.661,181908.5,181909.327,182243.238,,54,at
screen,html.Screen,2_1_0_1_55,2022-04-25T17:08:21.630Z,,,,,,,,,,,,,,,,,53,,,,,,,,,,,,,,575.5620000119088,,response,,,,99,,,,,,,Space,keypress(Space),,,,,,,,---- -- ----- -- ------ - ------- --- ----------<br>------------- ------ ------ ---- ---- ------- ----- -- ----<br>-------- ------- -- ---------- --- - --- ----- ----- ----<br>---- --- --- ----- --- ---- ---- ------- ----- ---- -------<br>--- --- -- ----- -- --- ---- -- --- ---- -- ------ ------<br>--- ----- -- all.,182822,182818.80000001192,182226.572,182236.30000001192,182243.238,182843.553,,55,all.
Item 99,flow.Loop,2_1_0_1,2022-04-25T17:08:21.631Z,,,,,,,,,,,,,,,,,,,,,,,,,,,,,,,17260.19500001191,,completion,,,,,B,,,,,,,,,,,silence,,,,,182822.59999996424,182818.80000001192,165475.275,165476.69999998808,165558.605,182843.553,,,
Question 1,html.Screen,2_1_0_2,2022-04-25T17:08:25.549Z,,,,,,,,,,,,,,,,,,,,,,,,,,,,true,FALSE,,3895.1469999880646,,response,,,,99,B,,,,,,FALSE,click #choice-2,,,,silence,,,,,186740.59999996424,186738.69999998808,182810.221,182822.80000001192,182843.553,186747.8,,,
Question 2,html.Screen,2_1_0_3,2022-04-25T17:08:31.017Z,,,,,,,,,,,,,,,,,,,,,,,,,,,,true,TRUE,,5458.799999964249,,response,,,,99,B,,,,,,TRUE,click #choice-1,,,,silence,,,,,192208.59999996424,192206.59999996424,186731.134,186740.80000001192,186747.8,192218.664,,,
Item 99,flow.Sequence,2_1_0,2022-04-25T17:08:31.017Z,,,,,,,,,,,,,,,,,,,,,,,,,,,,,,,36722.74199996423,,completion,,,,,,,,,,,,,,,,,,,,,192209,192206.59999996424,155417.194,155461.59999996424,155483.858,192218.664,,,
Holding screen,html.Screen,2_1_1_0,2022-04-25T17:08:41.005Z,,,,,,,,,,,,,,,,,,,,,,,,,,,,,,,9992.554000000004,,timeout,,,,,,,,,,,,,,,,,,,,,202196.69999998808,202194.552,192201.998,192209.59999996424,192218.664,202211.218,,,
screen,html.Screen,2_1_1_1_0,2022-04-25T17:08:41.624Z,,,,,,,,,,,,,,,,,54,,,,,,,,,,,,,,603.2820000000065,,response,,,,100,,,,,,,Space,keypress(Space),,,,,,,,At --- ---- --- ------ ----- ------- ---- -- --- ------- --<br>------- ---------- ------ -- ----- -- ----- -- ---- ------<br>--- ----- --- --- ------ -------- ----- --- ------ ----- --<br>----- ----- ---------- --- --- ------ ------ ---- -- ------<br>------- --- ------ ----- --- ---- ------- -- ---- --- --<br>------- ------,202815.89999997616,202814.5,202194.552,202197.09999996424,202211.218,202828.777,,0,At
screen,html.Screen,2_1_1_1_1,2022-04-25T17:08:42.321Z,,,,,,,,,,,,,,,,,54,,,,,,,,,,,,,,679.6229999761563,,response,,,,100,,,,,,,Space,keypress(Space),,,,,,,,-- the ---- --- ------ ----- ------- ---- -- --- ------- --<br>------- ---------- ------ -- ----- -- ----- -- ---- ------<br>--- ----- --- --- ------ -------- ----- --- ------ ----- --<br>----- ----- ---------- --- --- ------ ------ ---- -- ------<br>------- --- ------ ----- --- ---- ------- -- ---- --- --<br>------- ------,203513.30000001192,203508.39999997616,202812.111,202816.19999998808,202828.777,203530.281,,1,the
screen,html.Screen,2_1_1_1_2,2022-04-25T17:08:42.620Z,,,,,,,,,,,,,,,,,54,,,,,,,,,,,,,,280.7190000000119,,response,,,,100,,,,,,,Space,keypress(Space),,,,,,,,-- --- time --- ------ ----- ------- ---- -- --- ------- --<br>------- ---------- ------ -- ----- -- ----- -- ---- ------<br>--- ----- --- --- ------ -------- ----- --- ------ ----- --<br>----- ----- ---------- --- --- ------ ------ ---- -- ------<br>------- --- ------ ----- --- ---- ------- -- ---- --- --<br>------- ------,203812.39999997616,203811,203513.615,203513.5,203530.281,203813.623,,2,time
screen,html.Screen,2_1_1_1_3,2022-04-25T17:08:42.893Z,,,,,,,,,,,,,,,,,54,,,,,,,,,,,,,,268.3770000000077,,response,,,,100,,,,,,,Space,keypress(Space),,,,,,,,-- --- ---- the ------ ----- ------- ---- -- --- ------- --<br>------- ---------- ------ -- ----- -- ----- -- ---- ------<br>--- ----- --- --- ------ -------- ----- --- ------ ----- --<br>----- ----- ---------- --- --- ------ ------ ---- -- ------<br>------- --- ------ ----- --- ---- ------- -- ---- --- --<br>------- ------,204085.30000001192,204082,203796.957,203812.59999996424,203813.623,204097.948,,3,the
screen,html.Screen,2_1_1_1_4,2022-04-25T17:08:43.159Z,,,,,,,,,,,,,,,,,54,,,,,,,,,,,,,,250.15199996423326,,response,,,,100,,,,,,,Space,keypress(Space),,,,,,,,-- --- ---- --- French ----- ------- ---- -- --- ------- --<br>------- ---------- ------ -- ----- -- ----- -- ---- ------<br>--- ----- --- --- ------ -------- ----- --- ------ ----- --<br>----- ----- ---------- --- --- ------ ------ ---- -- ------<br>------- --- ------ ----- --- ---- ------- -- ---- --- --<br>------- ------,204350.89999997616,204348.09999996424,204081.282,204085.59999996424,204097.948,204364.929,,4,French
screen,html.Screen,2_1_1_1_5,2022-04-25T17:08:43.387Z,,,,,,,,,,,,,,,,,54,,,,,,,,,,,,,,211.07099999999627,,response,,,,100,,,,,,,Space,keypress(Space),,,,,,,,-- --- ---- --- ------ crown ------- ---- -- --- ------- --<br>------- ---------- ------ -- ----- -- ----- -- ---- ------<br>--- ----- --- --- ------ -------- ----- --- ------ ----- --<br>----- ----- ---------- --- --- ------ ------ ---- -- ------<br>------- --- ------ ----- --- ---- ------- -- ---- --- --<br>------- ------,204579.5,204576,204348.263,204351.09999996424,204364.929,204581.805,,5,crown
screen,html.Screen,2_1_1_1_6,2022-04-25T17:08:43.637Z,,,,,,,,,,,,,,,,,54,,,,,,,,,,,,,,246.19500000000698,,response,,,,100,,,,,,,Space,keypress(Space),,,,,,,,-- --- ---- --- ------ ----- secured ---- -- --- ------- --<br>------- ---------- ------ -- ----- -- ----- -- ---- ------<br>--- ----- --- --- ------ -------- ----- --- ------ ----- --<br>----- ----- ---------- --- --- ------ ------ ---- -- ------<br>------- --- ------ ----- --- ---- ------- -- ---- --- --<br>------- ------,204829.30000001192,204828,204565.139,204579.80000001192,204581.805,204832.091,,6,secured
screen,html.Screen,2_1_1_1_7,2022-04-25T17:08:43.898Z,,,,,,,,,,,,,,,,,54,,,,,,,,,,,,,,255.30899997617234,,response,,,,100,,,,,,,Space,keypress(Space),,,,,,,,-- --- ---- --- ------ ----- ------- much -- --- ------- --<br>------- ---------- ------ -- ----- -- ----- -- ---- ------<br>--- ----- --- --- ------ -------- ----- --- ------ ----- --<br>----- ----- ---------- --- --- ------ ------ ---- -- ------<br>------- --- ------ ----- --- ---- ------- -- ---- --- --<br>------- ------,205090.5,205087.39999997616,204815.425,204829.5,204832.091,205098.999,,7,much
screen,html.Screen,2_1_1_1_8,2022-04-25T17:08:44.182Z,,,,,,,,,,,,,,,,,54,,,,,,,,,,,,,,271.90099997614743,,response,,,,100,,,,,,,Space,keypress(Space),,,,,,,,-- --- ---- --- ------ ----- ------- ---- of --- ------- --<br>------- ---------- ------ -- ----- -- ----- -- ---- ------<br>--- ----- --- --- ------ -------- ----- --- ------ ----- --<br>----- ----- ---------- --- --- ------ ------ ---- -- ------<br>------- --- ------ ----- --- ---- ------- -- ---- --- --<br>------- ------,205374,205370.89999997616,205082.333,205091.09999996424,205098.999,205382.554,,8,of
screen,html.Screen,2_1_1_1_9,2022-04-25T17:08:44.445Z,,,,,,,,,,,,,,,,,54,,,,,,,,,,,,,,251.64599998807535,,response,,,,100,,,,,,,Space,keypress(Space),,,,,,,,-- --- ---- --- ------ ----- ------- ---- -- its ------- --<br>------- ---------- ------ -- ----- -- ----- -- ---- ------<br>--- ----- --- --- ------ -------- ----- --- ------ ----- --<br>----- ----- ---------- --- --- ------ ------ ---- -- ------<br>------- --- ------ ----- --- ---- ------- -- ---- --- --<br>------- ------,205637.30000001192,205634.19999998808,205365.888,205374.19999998808,205382.554,205649.234,,9,its
screen,html.Screen,2_1_1_1_10,2022-04-25T17:08:44.697Z,,,,,,,,,,,,,,,,,54,,,,,,,,,,,,,,237.26600000000326,,response,,,,100,,,,,,,Space,keypress(Space),,,,,,,,-- --- ---- --- ------ ----- ------- ---- -- --- revenue --<br>------- ---------- ------ -- ----- -- ----- -- ---- ------<br>--- ----- --- --- ------ -------- ----- --- ------ ----- --<br>----- ----- ---------- --- --- ------ ------ ---- -- ------<br>------- --- ------ ----- --- ---- ------- -- ---- --- --<br>------- ------,205888.89999997616,205886.5,205632.568,205637.69999998808,205649.234,205899.763,,10,revenue
screen,html.Screen,2_1_1_1_11,2022-04-25T17:08:45.015Z,,,,,,,,,,,,,,,,,54,,,,,,,,,,,,,,300.9369999880728,,response,,,,100,,,,,,,Space,keypress(Space),,,,,,,,-- --- ---- --- ------ ----- ------- ---- -- --- ------- by<br>------- ---------- ------ -- ----- -- ----- -- ---- ------<br>--- ----- --- --- ------ -------- ----- --- ------ ----- --<br>----- ----- ---------- --- --- ------ ------ ---- -- ------<br>------- --- ------ ----- --- ---- ------- -- ---- --- --<br>------- ------,206206.89999997616,206200.69999998808,205883.097,205889.09999996424,205899.763,206216.451,,11,by
screen,html.Screen,2_1_1_1_12,2022-04-25T17:08:45.281Z,,,,,,,,,,,,,,,,,54,,,,,,,,,,,,,,255.14899996423628,,response,,,,100,,,,,,,Space,keypress(Space),,,,,,,,-- --- ---- --- ------ ----- ------- ---- -- --- ------- --<br>issuing ---------- ------ -- ----- -- ----- -- ---- ------<br>--- ----- --- --- ------ -------- ----- --- ------ ----- --<br>----- ----- ---------- --- --- ------ ------ ---- -- ------<br>------- --- ------ ----- --- ---- ------- -- ---- --- --<br>------- ------,206472.89999997616,206471.59999996424,206199.785,206207.19999998808,206216.451,206483.688,,12,issuing
screen,html.Screen,2_1_1_1_13,2022-04-25T17:08:45.532Z,,,,,,,,,,,,,,,,,54,,,,,,,,,,,,,,238.91199996424257,,response,,,,100,,,,,,,Space,keypress(Space),,,,,,,,-- --- ---- --- ------ ----- ------- ---- -- --- ------- --<br>------- government ------ -- ----- -- ----- -- ---- ------<br>--- ----- --- --- ------ -------- ----- --- ------ ----- --<br>----- ----- ---------- --- --- ------ ------ ---- -- ------<br>------- --- ------ ----- --- ---- ------- -- ---- --- --<br>------- ------,206724,206722.59999996424,206467.022,206473.09999996424,206483.688,206733.622,,13,government
screen,html.Screen,2_1_1_1_14,2022-04-25T17:08:45.834Z,,,,,,,,,,,,,,,,,54,,,,,,,,,,,,,,287.1780000119179,,response,,,,100,,,,,,,Space,keypress(Space),,,,,,,,-- --- ---- --- ------ ----- ------- ---- -- --- ------- --<br>------- ---------- bonds. -- ----- -- ----- -- ---- ------<br>--- ----- --- --- ------ -------- ----- --- ------ ----- --<br>----- ----- ---------- --- --- ------ ------ ---- -- ------<br>------- --- ------ ----- --- ---- ------- -- ---- --- --<br>------- ------,207026,207020.80000001192,206716.956,206724.30000001192,206733.622,207034.129,,14,bonds.
screen,html.Screen,2_1_1_1_15,2022-04-25T17:08:46.306Z,,,,,,,,,,,,,,,,,54,,,,,,,,,,,,,,462.5709999880928,,response,,,,100,,,,,,,Space,keypress(Space),,,,,,,,-- --- ---- --- ------ ----- ------- ---- -- --- ------- --<br>------- ---------- ------ In ----- -- ----- -- ---- ------<br>--- ----- --- --- ------ -------- ----- --- ------ ----- --<br>----- ----- ---------- --- --- ------ ------ ---- -- ------<br>------- --- ------ ----- --- ---- ------- -- ---- --- --<br>------- ------,207498,207496.69999998808,207017.463,207026.19999998808,207034.129,207534.46,,15,In
screen,html.Screen,2_1_1_1_16,2022-04-25T17:08:46.530Z,,,,,,,,,,,,,,,,,54,,,,,,,,,,,,,,184.73999998808722,,response,,,,100,,,,,,,Space,keypress(Space),,,,,,,,"-- --- ---- --- ------ ----- ------- ---- -- --- ------- --<br>------- ---------- ------ -- 1727, -- ----- -- ---- ------<br>--- ----- --- --- ------ -------- ----- --- ------ ----- --<br>----- ----- ---------- --- --- ------ ------ ---- -- ------<br>------- --- ------ ----- --- ---- ------- -- ---- --- --<br>------- ------",207721.89999997616,207719.19999998808,207484.462,207498.30000001192,207534.46,207734.41,,16,"1727,"
screen,html.Screen,2_1_1_1_17,2022-04-25T17:08:46.878Z,,,,,,,,,,,,,,,,,54,,,,,,,,,,,,,,333.98999997615465,,response,,,,100,,,,,,,Space,keypress(Space),,,,,,,,-- --- ---- --- ------ ----- ------- ---- -- --- ------- --<br>------- ---------- ------ -- ----- in ----- -- ---- ------<br>--- ----- --- --- ------ -------- ----- --- ------ ----- --<br>----- ----- ---------- --- --- ------ ------ ---- -- ------<br>------- --- ------ ----- --- ---- ------- -- ---- --- --<br>------- ------,208069.80000001192,208068.39999997616,207717.744,207722.19999998808,207734.41,208085.076,,17,in
screen,html.Screen,2_1_1_1_18,2022-04-25T17:08:47.531Z,,,,,,,,,,,,,,,,,54,,,,,,,,,,,,,,637.0239999642363,,response,,,,100,,,,,,,Space,keypress(Space),,,,,,,,-- --- ---- --- ------ ----- ------- ---- -- --- ------- --<br>------- ---------- ------ -- ----- -- order -- ---- ------<br>--- ----- --- --- ------ -------- ----- --- ------ ----- --<br>----- ----- ---------- --- --- ------ ------ ---- -- ------<br>------- --- ------ ----- --- ---- ------- -- ---- --- --<br>------- ------,208723.30000001192,208722.09999996424,208068.41,208070,208085.076,208735.481,,18,order
screen,html.Screen,2_1_1_1_19,2022-04-25T17:08:47.890Z,,,,,,,,,,,,,,,,,54,,,,,,,,,,,,,,345.61899996423745,,response,,,,100,,,,,,,Space,keypress(Space),,,,,,,,-- --- ---- --- ------ ----- ------- ---- -- --- ------- --<br>------- ---------- ------ -- ----- -- ----- to ---- ------<br>--- ----- --- --- ------ -------- ----- --- ------ ----- --<br>----- ----- ---------- --- --- ------ ------ ---- -- ------<br>------- --- ------ ----- --- ---- ------- -- ---- --- --<br>------- ------,209082.39999997616,209081.09999996424,208718.815,208723.5,208735.481,209086.08,,19,to
screen,html.Screen,2_1_1_1_20,2022-04-25T17:08:48.176Z,,,,,,,,,,,,,,,,,54,,,,,,,,,,,,,,279.22000001193373,,response,,,,100,,,,,,,Space,keypress(Space),,,,,,,,-- --- ---- --- ------ ----- ------- ---- -- --- ------- --<br>------- ---------- ------ -- ----- -- ----- -- save ------<br>--- ----- --- --- ------ -------- ----- --- ------ ----- --<br>----- ----- ---------- --- --- ------ ------ ---- -- ------<br>------- --- ------ ----- --- ---- ------- -- ---- --- --<br>------- ------,209367.80000001192,209365.30000001192,209069.414,209082.59999996424,209086.08,209369.809,,20,save
screen,html.Screen,2_1_1_1_21,2022-04-25T17:08:48.464Z,,,,,,,,,,,,,,,,,54,,,,,,,,,,,,,,285.09099997614976,,response,,,,100,,,,,,,Space,keypress(Space),,,,,,,,"-- --- ---- --- ------ ----- ------- ---- -- --- ------- --<br>------- ---------- ------ -- ----- -- ----- -- ---- money,<br>--- ----- --- --- ------ -------- ----- --- ------ ----- --<br>----- ----- ---------- --- --- ------ ------ ---- -- ------<br>------- --- ------ ----- --- ---- ------- -- ---- --- --<br>------- ------",209656.19999998808,209654.89999997616,209353.143,209368.09999996424,209369.809,209670.09,,21,"money,"
screen,html.Screen,2_1_1_1_22,2022-04-25T17:08:49.252Z,,,,,,,,,,,,,,,,,54,,,,,,,,,,,,,,772.3099999761616,,response,,,,100,,,,,,,Space,keypress(Space),,,,,,,,-- --- ---- --- ------ ----- ------- ---- -- --- ------- --<br>------- ---------- ------ -- ----- -- ----- -- ---- ------<br>the ----- --- --- ------ -------- ----- --- ------ ----- --<br>----- ----- ---------- --- --- ------ ------ ---- -- ------<br>------- --- ------ ----- --- ---- ------- -- ---- --- --<br>------- ------,210443.69999998808,210442.39999997616,209653.424,209656.5,209670.09,210453.401,,22,the
screen,html.Screen,2_1_1_1_23,2022-04-25T17:08:49.499Z,,,,,,,,,,,,,,,,,54,,,,,,,,,,,,,,235.89900001190836,,response,,,,100,,,,,,,Space,keypress(Space),,,,,,,,-- --- ---- --- ------ ----- ------- ---- -- --- ------- --<br>------- ---------- ------ -- ----- -- ----- -- ---- ------<br>--- state --- --- ------ -------- ----- --- ------ ----- --<br>----- ----- ---------- --- --- ------ ------ ---- -- ------<br>------- --- ------ ----- --- ---- ------- -- ---- --- --<br>------- ------,210690.59999996424,210689.30000001192,210436.735,210444,210453.401,210704.391,,23,state
screen,html.Screen,2_1_1_1_24,2022-04-25T17:08:49.806Z,,,,,,,,,,,,,,,,,54,,,,,,,,,,,,,,292.10899999999674,,response,,,,100,,,,,,,Space,keypress(Space),,,,,,,,-- --- ---- --- ------ ----- ------- ---- -- --- ------- --<br>------- ---------- ------ -- ----- -- ----- -- ---- ------<br>--- ----- cut --- ------ -------- ----- --- ------ ----- --<br>----- ----- ---------- --- --- ------ ------ ---- -- ------<br>------- --- ------ ----- --- ---- ------- -- ---- --- --<br>------- ------,210997.80000001192,210996.5,210687.725,210690.89999997616,210704.391,211004.664,,24,cut
screen,html.Screen,2_1_1_1_25,2022-04-25T17:08:50.075Z,,,,,,,,,,,,,,,,,54,,,,,,,,,,,,,,260.5359999880893,,response,,,,100,,,,,,,Space,keypress(Space),,,,,,,,-- --- ---- --- ------ ----- ------- ---- -- --- ------- --<br>------- ---------- ------ -- ----- -- ----- -- ---- ------<br>--- ----- --- the ------ -------- ----- --- ------ ----- --<br>----- ----- ---------- --- --- ------ ------ ---- -- ------<br>------- --- ------ ----- --- ---- ------- -- ---- --- --<br>------- ------,211266.5,211265.19999998808,210987.998,210998.09999996424,211004.664,211271.684,,25,the
screen,html.Screen,2_1_1_1_26,2022-04-25T17:08:50.368Z,,,,,,,,,,,,,,,,,54,,,,,,,,,,,,,,286.11600001191255,,response,,,,100,,,,,,,Space,keypress(Space),,,,,,,,-- --- ---- --- ------ ----- ------- ---- -- --- ------- --<br>------- ---------- ------ -- ----- -- ----- -- ---- ------<br>--- ----- --- --- bonds' -------- ----- --- ------ ----- --<br>----- ----- ---------- --- --- ------ ------ ---- -- ------<br>------- --- ------ ----- --- ---- ------- -- ---- --- --<br>------- ------,211560.09999996424,211557.80000001192,211255.018,211266.80000001192,211271.684,211571.87,,26,bonds'
screen,html.Screen,2_1_1_1_27,2022-04-25T17:08:51.006Z,,,,,,,,,,,,,,,,,54,,,,,,,,,,,,,,625.0299999761628,,response,,,,100,,,,,,,Space,keypress(Space),,,,,,,,-- --- ---- --- ------ ----- ------- ---- -- --- ------- --<br>------- ---------- ------ -- ----- -- ----- -- ---- ------<br>--- ----- --- --- ------ interest ----- --- ------ ----- --<br>----- ----- ---------- --- --- ------ ------ ---- -- ------<br>------- --- ------ ----- --- ---- ------- -- ---- --- --<br>------- ------,212198.30000001192,212196.89999997616,211555.204,211560.39999997616,211571.87,212205.534,,27,interest
screen,html.Screen,2_1_1_1_28,2022-04-25T17:08:51.316Z,,,,,,,,,,,,,,,,,54,,,,,,,,,,,,,,300.66599998806487,,response,,,,100,,,,,,,Space,keypress(Space),,,,,,,,-- --- ---- --- ------ ----- ------- ---- -- --- ------- --<br>------- ---------- ------ -- ----- -- ----- -- ---- ------<br>--- ----- --- --- ------ -------- rate. --- ------ ----- --<br>----- ----- ---------- --- --- ------ ------ ---- -- ------<br>------- --- ------ ----- --- ---- ------- -- ---- --- --<br>------- ------,212508.39999997616,212506.19999998808,212188.868,212198.59999996424,212205.534,212522.15,,28,rate.
screen,html.Screen,2_1_1_1_29,2022-04-25T17:08:51.753Z,,,,,,,,,,,,,,,,,54,,,,,,,,,,,,,,421.0499999880849,,response,,,,100,,,,,,,Space,keypress(Space),,,,,,,,-- --- ---- --- ------ ----- ------- ---- -- --- ------- --<br>------- ---------- ------ -- ----- -- ----- -- ---- ------<br>--- ----- --- --- ------ -------- ----- The ------ ----- --<br>----- ----- ---------- --- --- ------ ------ ---- -- ------<br>------- --- ------ ----- --- ---- ------- -- ---- --- --<br>------- ------,212944.59999996424,212943.19999998808,212505.484,212508.69999998808,212522.15,212956.407,,29,The
screen,html.Screen,2_1_1_1_30,2022-04-25T17:08:52.011Z,,,,,,,,,,,,,,,,,54,,,,,,,,,,,,,,244.8930000119144,,response,,,,100,,,,,,,Space,keypress(Space),,,,,,,,-- --- ---- --- ------ ----- ------- ---- -- --- ------- --<br>------- ---------- ------ -- ----- -- ----- -- ---- ------<br>--- ----- --- --- ------ -------- ----- --- market ----- --<br>----- ----- ---------- --- --- ------ ------ ---- -- ------<br>------- --- ------ ----- --- ---- ------- -- ---- --- --<br>------- ------,213203.30000001192,213201.30000001192,212939.741,212944.89999997616,212956.407,213206.503,,30,market
screen,html.Screen,2_1_1_1_31,2022-04-25T17:08:52.302Z,,,,,,,,,,,,,,,,,54,,,,,,,,,,,,,,286.29700001192396,,response,,,,100,,,,,,,Space,keypress(Space),,,,,,,,-- --- ---- --- ------ ----- ------- ---- -- --- ------- --<br>------- ---------- ------ -- ----- -- ----- -- ---- ------<br>--- ----- --- --- ------ -------- ----- --- ------ value --<br>----- ----- ---------- --- --- ------ ------ ---- -- ------<br>------- --- ------ ----- --- ---- ------- -- ---- --- --<br>------- ------,213494.19999998808,213492.80000001192,213189.837,213203.59999996424,213206.503,213506.927,,31,value
screen,html.Screen,2_1_1_1_32,2022-04-25T17:08:52.581Z,,,,,,,,,,,,,,,,,54,,,,,,,,,,,,,,264.9729999761621,,response,,,,100,,,,,,,Space,keypress(Space),,,,,,,,-- --- ---- --- ------ ----- ------- ---- -- --- ------- --<br>------- ---------- ------ -- ----- -- ----- -- ---- ------<br>--- ----- --- --- ------ -------- ----- --- ------ ----- of<br>----- ----- ---------- --- --- ------ ------ ---- -- ------<br>------- --- ------ ----- --- ---- ------- -- ---- --- --<br>------- ------,213773.30000001192,213771.89999997616,213490.261,213494.39999997616,213506.927,213790.699,,32,of
screen,html.Screen,2_1_1_1_33,2022-04-25T17:08:52.911Z,,,,,,,,,,,,,,,,,54,,,,,,,,,,,,,,309.2009999761649,,response,,,,100,,,,,,,Space,keypress(Space),,,,,,,,-- --- ---- --- ------ ----- ------- ---- -- --- ------- --<br>------- ---------- ------ -- ----- -- ----- -- ---- ------<br>--- ----- --- --- ------ -------- ----- --- ------ ----- --<br>these ----- ---------- --- --- ------ ------ ---- -- ------<br>------- --- ------ ----- --- ---- ------- -- ---- --- --<br>------- ------,214102.69999998808,214099.89999997616,213774.033,213773.5,213790.699,214107.712,,33,these
screen,html.Screen,2_1_1_1_34,2022-04-25T17:08:53.208Z,,,,,,,,,,,,,,,,,54,,,,,,,,,,,,,,288.8879999642377,,response,,,,100,,,,,,,Space,keypress(Space),,,,,,,,-- --- ---- --- ------ ----- ------- ---- -- --- ------- --<br>------- ---------- ------ -- ----- -- ----- -- ---- ------<br>--- ----- --- --- ------ -------- ----- --- ------ ----- --<br>----- bonds ---------- --- --- ------ ------ ---- -- ------<br>------- --- ------ ----- --- ---- ------- -- ---- --- --<br>------- ------,214400.19999998808,214396.59999996424,214091.046,214104.89999997616,214107.712,214408.054,,34,bonds
screen,html.Screen,2_1_1_1_35,2022-04-25T17:08:53.469Z,,,,,,,,,,,,,,,,,54,,,,,,,,,,,,,,252.0459999642335,,response,,,,100,,,,,,,Space,keypress(Space),,,,,,,,"-- --- ---- --- ------ ----- ------- ---- -- --- ------- --<br>------- ---------- ------ -- ----- -- ----- -- ---- ------<br>--- ----- --- --- ------ -------- ----- --- ------ ----- --<br>----- ----- plummeted, --- --- ------ ------ ---- -- ------<br>------- --- ------ ----- --- ---- ------- -- ---- --- --<br>------- ------",214661.39999997616,214660.09999996424,214391.388,214400.59999996424,214408.054,214674.713,,35,"plummeted,"
screen,html.Screen,2_1_1_1_36,2022-04-25T17:08:53.856Z,,,,,,,,,,,,,,,,,54,,,,,,,,,,,,,,372.3869999642484,,response,,,,100,,,,,,,Space,keypress(Space),,,,,,,,-- --- ---- --- ------ ----- ------- ---- -- --- ------- --<br>------- ---------- ------ -- ----- -- ----- -- ---- ------<br>--- ----- --- --- ------ -------- ----- --- ------ ----- --<br>----- ----- ---------- and --- ------ ------ ---- -- ------<br>------- --- ------ ----- --- ---- ------- -- ---- --- --<br>------- ------,215048.39999997616,215047.09999996424,214658.047,214663.19999998808,214674.713,215058.504,,36,and
screen,html.Screen,2_1_1_1_37,2022-04-25T17:08:54.177Z,,,,,,,,,,,,,,,,,54,,,,,,,,,,,,,,309.1959999880928,,response,,,,100,,,,,,,Space,keypress(Space),,,,,,,,-- --- ---- --- ------ ----- ------- ---- -- --- ------- --<br>------- ---------- ------ -- ----- -- ----- -- ---- ------<br>--- ----- --- --- ------ -------- ----- --- ------ ----- --<br>----- ----- ---------- --- the ------ ------ ---- -- ------<br>------- --- ------ ----- --- ---- ------- -- ---- --- --<br>------- ------,215369.09999996424,215367.69999998808,215041.838,215048.69999998808,215058.504,215375.184,,37,the
screen,html.Screen,2_1_1_1_38,2022-04-25T17:08:54.435Z,,,,,,,,,,,,,,,,,54,,,,,,,,,,,,,,251.0159999880707,,response,,,,100,,,,,,,Space,keypress(Space),,,,,,,,-- --- ---- --- ------ ----- ------- ---- -- --- ------- --<br>------- ---------- ------ -- ----- -- ----- -- ---- ------<br>--- ----- --- --- ------ -------- ----- --- ------ ----- --<br>----- ----- ---------- --- --- market ------ ---- -- ------<br>------- --- ------ ----- --- ---- ------- -- ---- --- --<br>------- ------,215627.39999997616,215626.19999998808,215358.518,215369.30000001192,215375.184,215642.543,,38,market
screen,html.Screen,2_1_1_1_39,2022-04-25T17:08:54.736Z,,,,,,,,,,,,,,,,,54,,,,,,,,,,,,,,284.7570000119158,,response,,,,100,,,,,,,Space,keypress(Space),,,,,,,,-- --- ---- --- ------ ----- ------- ---- -- --- ------- --<br>------- ---------- ------ -- ----- -- ----- -- ---- ------<br>--- ----- --- --- ------ -------- ----- --- ------ ----- --<br>----- ----- ---------- --- --- ------ became ---- -- ------<br>------- --- ------ ----- --- ---- ------- -- ---- --- --<br>------- ------,215928.59999996424,215927.30000001192,215625.877,215627.69999998808,215642.543,215942.86,,39,became
screen,html.Screen,2_1_1_1_40,2022-04-25T17:08:55.107Z,,,,,,,,,,,,,,,,,54,,,,,,,,,,,,,,354.5399999761721,,response,,,,100,,,,,,,Space,keypress(Space),,,,,,,,-- --- ---- --- ------ ----- ------- ---- -- --- ------- --<br>------- ---------- ------ -- ----- -- ----- -- ---- ------<br>--- ----- --- --- ------ -------- ----- --- ------ ----- --<br>----- ----- ---------- --- --- ------ ------ wary -- ------<br>------- --- ------ ----- --- ---- ------- -- ---- --- --<br>------- ------,216298.89999997616,216297.39999997616,215926.194,215928.89999997616,215942.86,216309.798,,40,wary
screen,html.Screen,2_1_1_1_41,2022-04-25T17:08:55.465Z,,,,,,,,,,,,,,,,,54,,,,,,,,,,,,,,346.7019999999902,,response,,,,100,,,,,,,Space,keypress(Space),,,,,,,,-- --- ---- --- ------ ----- ------- ---- -- --- ------- --<br>------- ---------- ------ -- ----- -- ----- -- ---- ------<br>--- ----- --- --- ------ -------- ----- --- ------ ----- --<br>----- ----- ---------- --- --- ------ ------ ---- of ------<br>------- --- ------ ----- --- ---- ------- -- ---- --- --<br>------- ------,216657.69999998808,216656.5,216293.132,216299,216309.798,216660.165,,41,of
screen,html.Screen,2_1_1_1_42,2022-04-25T17:08:55.865Z,,,,,,,,,,,,,,,,,54,,,,,,,,,,,,,,395.73499997615,,response,,,,100,,,,,,,Space,keypress(Space),,,,,,,,-- --- ---- --- ------ ----- ------- ---- -- --- ------- --<br>------- ---------- ------ -- ----- -- ----- -- ---- ------<br>--- ----- --- --- ------ -------- ----- --- ------ ----- --<br>----- ----- ---------- --- --- ------ ------ ---- -- French<br>------- --- ------ ----- --- ---- ------- -- ---- --- --<br>------- ------,217057.30000001192,217055.89999997616,216643.499,216658,216660.165,217060.453,,42,French
screen,html.Screen,2_1_1_1_43,2022-04-25T17:08:56.178Z,,,,,,,,,,,,,,,,,54,,,,,,,,,,,,,,308.74699998807046,,response,,,,100,,,,,,,Space,keypress(Space),,,,,,,,-- --- ---- --- ------ ----- ------- ---- -- --- ------- --<br>------- ---------- ------ -- ----- -- ----- -- ---- ------<br>--- ----- --- --- ------ -------- ----- --- ------ ----- --<br>----- ----- ---------- --- --- ------ ------ ---- -- ------<br>credit. --- ------ ----- --- ---- ------- -- ---- --- --<br>------- ------,217370.5,217369.19999998808,217043.787,217057.5,217060.453,217377.598,,43,credit.
screen,html.Screen,2_1_1_1_44,2022-04-25T17:08:56.638Z,,,,,,,,,,,,,,,,,54,,,,,,,,,,,,,,451.2020000119228,,response,,,,100,,,,,,,Space,keypress(Space),,,,,,,,-- --- ---- --- ------ ----- ------- ---- -- --- ------- --<br>------- ---------- ------ -- ----- -- ----- -- ---- ------<br>--- ----- --- --- ------ -------- ----- --- ------ ----- --<br>----- ----- ---------- --- --- ------ ------ ---- -- ------<br>------- The ------ ----- --- ---- ------- -- ---- --- --<br>------- ------,217830.09999996424,217828.80000001192,217360.932,217370.80000001192,217377.598,217844.489,,44,The
screen,html.Screen,2_1_1_1_45,2022-04-25T17:08:57.196Z,,,,,,,,,,,,,,,,,54,,,,,,,,,,,,,,542.7109999880777,,response,,,,100,,,,,,,Space,keypress(Space),,,,,,,,-- --- ---- --- ------ ----- ------- ---- -- --- ------- --<br>------- ---------- ------ -- ----- -- ----- -- ---- ------<br>--- ----- --- --- ------ -------- ----- --- ------ ----- --<br>----- ----- ---------- --- --- ------ ------ ---- -- ------<br>------- --- French ----- --- ---- ------- -- ---- --- --<br>------- ------,218388.5,218387.19999998808,217827.823,217830.39999997616,217844.489,218394.517,,45,French
screen,html.Screen,2_1_1_1_46,2022-04-25T17:08:57.527Z,,,,,,,,,,,,,,,,,54,,,,,,,,,,,,,,323.58299996424466,,response,,,,100,,,,,,,Space,keypress(Space),,,,,,,,-- --- ---- --- ------ ----- ------- ---- -- --- ------- --<br>------- ---------- ------ -- ----- -- ----- -- ---- ------<br>--- ----- --- --- ------ -------- ----- --- ------ ----- --<br>----- ----- ---------- --- --- ------ ------ ---- -- ------<br>------- --- ------ state --- ---- ------- -- ---- --- --<br>------- ------,218719.39999997616,218718.09999996424,218377.851,218388.80000001192,218394.517,218728.886,,46,state
screen,html.Screen,2_1_1_1_47,2022-04-25T17:08:57.841Z,,,,,,,,,,,,,,,,,54,,,,,,,,,,,,,,301.6140000000014,,response,,,,100,,,,,,,Space,keypress(Space),,,,,,,,-- --- ---- --- ------ ----- ------- ---- -- --- ------- --<br>------- ---------- ------ -- ----- -- ----- -- ---- ------<br>--- ----- --- --- ------ -------- ----- --- ------ ----- --<br>----- ----- ---------- --- --- ------ ------ ---- -- ------<br>------- --- ------ ----- was ---- ------- -- ---- --- --<br>------- ------,219032.89999997616,219030.5,218712.22,218719.69999998808,218728.886,219045.872,,47,was
screen,html.Screen,2_1_1_1_48,2022-04-25T17:08:58.141Z,,,,,,,,,,,,,,,,,54,,,,,,,,,,,,,,286.4280000119179,,response,,,,100,,,,,,,Space,keypress(Space),,,,,,,,-- --- ---- --- ------ ----- ------- ---- -- --- ------- --<br>------- ---------- ------ -- ----- -- ----- -- ---- ------<br>--- ----- --- --- ------ -------- ----- --- ------ ----- --<br>----- ----- ---------- --- --- ------ ------ ---- -- ------<br>------- --- ------ ----- --- left ------- -- ---- --- --<br>------- ------,219333.59999996424,219332.30000001192,219029.206,219033.30000001192,219045.872,219346.149,,48,left
screen,html.Screen,2_1_1_1_49,2022-04-25T17:08:58.531Z,,,,,,,,,,,,,,,,,54,,,,,,,,,,,,,,375.25099997615325,,response,,,,100,,,,,,,Space,keypress(Space),,,,,,,,-- --- ---- --- ------ ----- ------- ---- -- --- ------- --<br>------- ---------- ------ -- ----- -- ----- -- ---- ------<br>--- ----- --- --- ------ -------- ----- --- ------ ----- --<br>----- ----- ---------- --- --- ------ ------ ---- -- ------<br>------- --- ------ ----- --- ---- without -- ---- --- --<br>------- ------,219722.89999997616,219721.39999997616,219329.483,219333.89999997616,219346.149,219729.793,,49,without
screen,html.Screen,2_1_1_1_50,2022-04-25T17:08:58.810Z,,,,,,,,,,,,,,,,,54,,,,,,,,,,,,,,270.8069999642321,,response,,,,100,,,,,,,Space,keypress(Space),,,,,,,,-- --- ---- --- ------ ----- ------- ---- -- --- ------- --<br>------- ---------- ------ -- ----- -- ----- -- ---- ------<br>--- ----- --- --- ------ -------- ----- --- ------ ----- --<br>----- ----- ---------- --- --- ------ ------ ---- -- ------<br>------- --- ------ ----- --- ---- ------- an ---- --- --<br>------- ------,220002,220000.59999996424,219713.127,219723.09999996424,219729.793,220013.468,,50,an
screen,html.Screen,2_1_1_1_51,2022-04-25T17:08:59.128Z,,,,,,,,,,,,,,,,,54,,,,,,,,,,,,,,303.83200001192745,,response,,,,100,,,,,,,Space,keypress(Space),,,,,,,,-- --- ---- --- ------ ----- ------- ---- -- --- ------- --<br>------- ---------- ------ -- ----- -- ----- -- ---- ------<br>--- ----- --- --- ------ -------- ----- --- ------ ----- --<br>----- ----- ---------- --- --- ------ ------ ---- -- ------<br>------- --- ------ ----- --- ---- ------- -- easy --- --<br>------- ------,220320,220317.30000001192,219996.802,220002.19999998808,220013.468,220330.126,,51,easy
screen,html.Screen,2_1_1_1_52,2022-04-25T17:08:59.448Z,,,,,,,,,,,,,,,,,54,,,,,,,,,,,,,,308.5739999880898,,response,,,,100,,,,,,,Space,keypress(Space),,,,,,,,-- --- ---- --- ------ ----- ------- ---- -- --- ------- --<br>------- ---------- ------ -- ----- -- ----- -- ---- ------<br>--- ----- --- --- ------ -------- ----- --- ------ ----- --<br>----- ----- ---------- --- --- ------ ------ ---- -- ------<br>------- --- ------ ----- --- ---- ------- -- ---- way --<br>------- ------,220640,220638.69999998808,220313.46,220320.19999998808,220330.126,220647.413,,52,way
screen,html.Screen,2_1_1_1_53,2022-04-25T17:08:59.811Z,,,,,,,,,,,,,,,,,54,,,,,,,,,,,,,,354.4869999761577,,response,,,,100,,,,,,,Space,keypress(Space),,,,,,,,-- --- ---- --- ------ ----- ------- ---- -- --- ------- --<br>------- ---------- ------ -- ----- -- ----- -- ---- ------<br>--- ----- --- --- ------ -------- ----- --- ------ ----- --<br>----- ----- ---------- --- --- ------ ------ ---- -- ------<br>------- --- ------ ----- --- ---- ------- -- ---- --- of<br>------- ------,221003.19999998808,221001.89999997616,220630.747,220640.30000001192,220647.413,221014.4,,53,of
screen,html.Screen,2_1_1_1_54,2022-04-25T17:09:00.132Z,,,,,,,,,,,,,,,,,54,,,,,,,,,,,,,,309.1000000000058,,response,,,,100,,,,,,,Space,keypress(Space),,,,,,,,-- --- ---- --- ------ ----- ------- ---- -- --- ------- --<br>------- ---------- ------ -- ----- -- ----- -- ---- ------<br>--- ----- --- --- ------ -------- ----- --- ------ ----- --<br>----- ----- ---------- --- --- ------ ------ ---- -- ------<br>------- --- ------ ----- --- ---- ------- -- ---- --- --<br>raising ------,221324.69999998808,221323.5,220997.734,221003.39999997616,221014.4,221331.411,,54,raising
screen,html.Screen,2_1_1_1_55,2022-04-25T17:09:00.549Z,,,,,,,,,,,,,,,,,54,,,,,,,,,,,,,,408.0890000000072,,response,,,,100,,,,,,,Space,keypress(Space),,,,,,,,-- --- ---- --- ------ ----- ------- ---- -- --- ------- --<br>------- ---------- ------ -- ----- -- ----- -- ---- ------<br>--- ----- --- --- ------ -------- ----- --- ------ ----- --<br>----- ----- ---------- --- --- ------ ------ ---- -- ------<br>------- --- ------ ----- --- ---- ------- -- ---- --- --<br>------- money.,221740.80000001192,221739.5,221314.745,221324.89999997616,221331.411,221748.424,,55,money.
Item 100,flow.Loop,2_1_1_1,2022-04-25T17:09:00.549Z,,,,,,,,,,,,,,,,,,,,,,,,,,,,,,,19528.282000000007,,completion,,,,,B,,,,,,,,,,,silence,,,,,221741.19999998808,221739.5,202194.552,202197,202211.218,221748.424,,,
Question 1,html.Screen,2_1_1_2,2022-04-25T17:09:03.500Z,,,,,,,,,,,,,,,,,,,,,,,,,,,,true,TRUE,,2941.77599998808,,response,,,,100,B,,,,,,TRUE,click #choice-1,,,,silence,,,,,224692.09999996424,224690.19999998808,221731.758,221741.30000001192,221748.424,224701.416,,,
Question 2,html.Screen,2_1_1_3,2022-04-25T17:09:05.596Z,,,,,,,,,,,,,,,,,,,,,,,,,,,,true,FALSE,,2084.8840000119235,,response,,,,100,B,,,,,,FALSE,click #choice-2,,,,silence,,,,,226788.69999998808,226786.30000001192,224684.75,224692.30000001192,224701.416,226803.57,,,
Item 100,flow.Sequence,2_1_1,2022-04-25T17:09:05.597Z,,,,,,,,,,,,,,,,,,,,,,,,,,,,,,,34567.63600001193,,completion,,,,,,,,,,,,,,,,,,,,,226789,226786.30000001192,192201.998,192209.09999996424,192218.664,226803.57,,,
End of Practice,html.Page,2_1_2,2022-04-25T17:09:08.367Z,,,,,,,,,,,,,,,,,,,,,,,,,,,,,,,2754.929999999993,,form submission,,,,,,,,,,,,,,,,,,,,,229559.09999996424,229558.5,226786.904,226789.09999996424,226803.57,229555.917,,,
Practice,flow.Sequence,2_1,2022-04-25T17:09:08.367Z,,,,,,,,,,,,,,,,,,,,,,,,,,,,,,,74074.64199999999,,completion,,,,,,,,,,,,,,,,,,,,,229559.5,229558.5,155417.194,155461.5,155483.858,229555.917,,,
Trap_instruction,html.Page,2_2_0,2022-04-25T17:09:12.189Z,,,,,,,,,,,,,,,,,,,,,,,,,,,,,,,3824.883000011934,,form submission,,,,,,,,,,,,,,,,,,,,,233381.39999997616,233380.80000001192,229539.251,229559.80000001192,229555.917,233643.261,,,
trap_trial,html.Screen,2_2_1,2022-04-25T17:09:15.580Z,,,,,,,,,,,,,,,,,,,,,,,,,,,,true,1,,3126.9389999880805,,response,,,,,,,,,,,1,click #choice-1,,,,,,,,,236772.19999998808,236770.19999998808,233376.605,233381.59999996424,233643.261,236827.053,,,
end of trap trial,html.Page,2_2_2,2022-04-25T17:09:16.893Z,,,,,,,,,,,,,,,,,,,,,,,,,,,,,,,1257.9469999999856,,form submission,,,,,,,,,,,,,,,,,,,,,238085.69999998808,238085,236760.389,236772.39999997616,236827.053,238097.706,,,
Trap 1,flow.Sequence,2_2,2022-04-25T17:09:16.894Z,,,,,,,,,,,,,,,,,,,,,,,,,,,,,,,8529.083000000013,,completion,,,,,,,,,,,,,,,,,,,,,238086.19999998808,238085,229539.251,229559.69999998808,229555.917,238097.706,,,
Standby,html.Page,2_3_0,2022-04-25T17:09:24.890Z,,,,,,,,,,,,,,,,,,,,,,,,,,,,,,,8000.014999999985,,timeout,,,,,,,,,,,,,,,,,,,,,246082.5,246081.055,238081.04,238086.5,238097.706,246097.721,,,
Holding screen,html.Screen,2_3_1_0_0,2022-04-25T17:09:31.887Z,,,,,,,,,,,,,,,,,,,,,,,,,,,,,,,6996.301999999996,,timeout,,,,,,,,,,,,,,,,,,,,,253079.69999998808,253077.357,246081.055,246082.89999997616,246097.721,253094.023,,,
screen,html.Screen,2_3_1_0_1_0,2022-04-25T17:09:32.582Z,,,,,,,,,,,,,,,,,12,,,,,,,,,,,,,,675.8769999761716,,response,,,,5,B,,,,,,Space,keypress(Space),,,,lyrical,,,,Some ------ ------ ------- ------ --- ------- -----------<br>-- ----- --- ---- -- --- ------ ---- - ---- -- ----------<br>-- ------ ---- --- ---- --- --- --- ----- -- -------- ---<br>------ ------- -------- --- ---- -- ------- ------------ --<br>------ -- ---- -- --- ---- -- -------- -- --- ------ ------,253773.80000001192,253769.89999997616,253077.357,253080.09999996424,253094.023,253778.305,,0,Some
screen,html.Screen,2_3_1_0_1_1,2022-04-25T17:09:32.884Z,,,,,,,,,,,,,,,,,12,,,,,,,,,,,,,,296.195000000007,,response,,,,5,B,,,,,,Space,keypress(Space),,,,lyrical,,,,---- months ------ ------- ------ --- ------- -----------<br>-- ----- --- ---- -- --- ------ ---- - ---- -- ----------<br>-- ------ ---- --- ---- --- --- --- ----- -- -------- ---<br>------ ------- -------- --- ---- -- ------- ------------ --<br>------ -- ---- -- --- ---- -- -------- -- --- ------ ------,254076.19999998808,254074.5,253761.639,253774.19999998808,253778.305,254079.34,,1,months
screen,html.Screen,2_3_1_0_1_2,2022-04-25T17:09:33.164Z,,,,,,,,,,,,,,,,,12,,,,,,,,,,,,,,275.35999998808256,,response,,,,5,B,,,,,,Space,keypress(Space),,,,lyrical,,,,"---- ------ later, ------- ------ --- ------- -----------<br>-- ----- --- ---- -- --- ------ ---- - ---- -- ----------<br>-- ------ ---- --- ---- --- --- --- ----- -- -------- ---<br>------ ------- -------- --- ---- -- ------- ------------ --<br>------ -- ---- -- --- ---- -- -------- -- --- ------ ------",254356.19999998808,254354.69999998808,254062.674,254076.5,254079.34,254363.615,,2,"later,"
screen,html.Screen,2_3_1_0_1_3,2022-04-25T17:09:33.744Z,,,,,,,,,,,,,,,,,12,,,,,,,,,,,,,,569.9849999642465,,response,,,,5,B,,,,,,Space,keypress(Space),,,,lyrical,,,,---- ------ ------ Michael ------ --- ------- -----------<br>-- ----- --- ---- -- --- ------ ---- - ---- -- ----------<br>-- ------ ---- --- ---- --- --- --- ----- -- -------- ---<br>------ ------- -------- --- ---- -- ------- ------------ --<br>------ -- ---- -- --- ---- -- -------- -- --- ------ ------,254936.5,254933.59999996424,254346.949,254356.39999997616,254363.615,254947.26,,3,Michael
screen,html.Screen,2_3_1_0_1_4,2022-04-25T17:09:33.916Z,,,,,,,,,,,,,,,,,12,,,,,,,,,,,,,,156.54000001191162,,response,,,,5,B,,,,,,Space,keypress(Space),,,,lyrical,,,,---- ------ ------ ------- Larson --- ------- -----------<br>-- ----- --- ---- -- --- ------ ---- - ---- -- ----------<br>-- ------ ---- --- ---- --- --- --- ----- -- -------- ---<br>------ ------- -------- --- ---- -- ------- ------------ --<br>------ -- ---- -- --- ---- -- -------- -- --- ------ ------,255108,255103.80000001192,254930.594,254936.69999998808,254947.26,255114.493,,4,Larson
screen,html.Screen,2_3_1_0_1_5,2022-04-25T17:09:34.611Z,,,,,,,,,,,,,,,,,12,,,,,,,,,,,,,,686.6069999642496,,response,,,,5,B,,,,,,Space,keypress(Space),,,,lyrical,,,,---- ------ ------ ------- ------ saw ------- -----------<br>-- ----- --- ---- -- --- ------ ---- - ---- -- ----------<br>-- ------ ---- --- ---- --- --- --- ----- -- -------- ---<br>------ ------- -------- --- ---- -- ------- ------------ --<br>------ -- ---- -- --- ---- -- -------- -- --- ------ ------,255803.30000001192,255801.09999996424,255097.827,255108.30000001192,255114.493,255814.662,,5,saw
screen,html.Screen,2_3_1_0_1_6,2022-04-25T17:09:35.276Z,,,,,,,,,,,,,,,,,12,,,,,,,,,,,,,,652.5379999880679,,response,,,,5,B,,,,,,Space,keypress(Space),,,,lyrical,,,,---- ------ ------ ------- ------ --- another -----------<br>-- ----- --- ---- -- --- ------ ---- - ---- -- ----------<br>-- ------ ---- --- ---- --- --- --- ----- -- -------- ---<br>------ ------- -------- --- ---- -- ------- ------------ --<br>------ -- ---- -- --- ---- -- -------- -- --- ------ ------,256468.59999996424,256467.19999998808,255797.996,255803.5,255814.662,256481.337,,6,another
screen,html.Screen,2_3_1_0_1_7,2022-04-25T17:09:35.903Z,,,,,,,,,,,,,,,,,12,,,,,,,,,,,,,,612.6630000000005,,response,,,,5,B,,,,,,Space,keypress(Space),,,,lyrical,,,,---- ------ ------ ------- ------ --- ------- opportunity<br>-- ----- --- ---- -- --- ------ ---- - ---- -- ----------<br>-- ------ ---- --- ---- --- --- --- ----- -- -------- ---<br>------ ------- -------- --- ---- -- ------- ------------ --<br>------ -- ---- -- --- ---- -- -------- -- --- ------ ------,257095.39999997616,257094,256464.671,256468.89999997616,256481.337,257098.597,,7,opportunity
screen,html.Screen,2_3_1_0_1_8,2022-04-25T17:09:36.170Z,,,,,,,,,,,,,,,,,12,,,,,,,,,,,,,,261.90299999999115,,response,,,,5,B,,,,,,Space,keypress(Space),,,,lyrical,,,,---- ------ ------ ------- ------ --- ------- -----------<br>to ----- --- ---- -- --- ------ ---- - ---- -- ----------<br>-- ------ ---- --- ---- --- --- --- ----- -- -------- ---<br>------ ------- -------- --- ---- -- ------- ------------ --<br>------ -- ---- -- --- ---- -- -------- -- --- ------ ------,257362.09999996424,257360.5,257081.931,257095.69999998808,257098.597,257366.618,,8,to
screen,html.Screen,2_3_1_0_1_9,2022-04-25T17:09:36.443Z,,,,,,,,,,,,,,,,,12,,,,,,,,,,,,,,266.88200000001234,,response,,,,5,B,,,,,,Space,keypress(Space),,,,lyrical,,,,---- ------ ------ ------- ------ --- ------- -----------<br>-- stack --- ---- -- --- ------ ---- - ---- -- ----------<br>-- ------ ---- --- ---- --- --- --- ----- -- -------- ---<br>------ ------- -------- --- ---- -- ------- ------------ --<br>------ -- ---- -- --- ---- -- -------- -- --- ------ ------,257635.09999996424,257633.5,257349.952,257362.39999997616,257366.618,257650.217,,9,stack
screen,html.Screen,2_3_1_0_1_10,2022-04-25T17:09:36.731Z,,,,,,,,,,,,,,,,,12,,,,,,,,,,,,,,270.68299997615395,,response,,,,5,B,,,,,,Space,keypress(Space),,,,lyrical,,,,---- ------ ------ ------- ------ --- ------- -----------<br>-- ----- the ---- -- --- ------ ---- - ---- -- ----------<br>-- ------ ---- --- ---- --- --- --- ----- -- -------- ---<br>------ ------- -------- --- ---- -- ------- ------------ --<br>------ -- ---- -- --- ---- -- -------- -- --- ------ ------,257923,257920.89999997616,257633.551,257635.39999997616,257650.217,257933.795,,10,the
screen,html.Screen,2_3_1_0_1_11,2022-04-25T17:09:36.996Z,,,,,,,,,,,,,,,,,12,,,,,,,,,,,,,,250.8049999642244,,response,,,,5,B,,,,,,Space,keypress(Space),,,,lyrical,,,,---- ------ ------ ------- ------ --- ------- -----------<br>-- ----- --- odds -- --- ------ ---- - ---- -- ----------<br>-- ------ ---- --- ---- --- --- --- ----- -- -------- ---<br>------ ------- -------- --- ---- -- ------- ------------ --<br>------ -- ---- -- --- ---- -- -------- -- --- ------ ------,258188.09999996424,258184.59999996424,257917.129,257923.30000001192,257933.795,258200.41,,11,odds
screen,html.Screen,2_3_1_0_1_12,2022-04-25T17:09:37.307Z,,,,,,,,,,,,,,,,,12,,,,,,,,,,,,,,297.39000001191744,,response,,,,5,B,,,,,,Space,keypress(Space),,,,lyrical,,,,---- ------ ------ ------- ------ --- ------- -----------<br>-- ----- --- ---- in --- ------ ---- - ---- -- ----------<br>-- ------ ---- --- ---- --- --- --- ----- -- -------- ---<br>------ ------- -------- --- ---- -- ------- ------------ --<br>------ -- ---- -- --- ---- -- -------- -- --- ------ ------,258499.09999996424,258497.80000001192,258183.744,258188.39999997616,258200.41,258500.958,,12,in
screen,html.Screen,2_3_1_0_1_13,2022-04-25T17:09:37.613Z,,,,,,,,,,,,,,,,,12,,,,,,,,,,,,,,300.84200001190766,,response,,,,5,B,,,,,,Space,keypress(Space),,,,lyrical,,,,---- ------ ------ ------- ------ --- ------- -----------<br>-- ----- --- ---- -- his ------ ---- - ---- -- ----------<br>-- ------ ---- --- ---- --- --- --- ----- -- -------- ---<br>------ ------- -------- --- ---- -- ------- ------------ --<br>------ -- ---- -- --- ---- -- -------- -- --- ------ ------,258805,258801.80000001192,258484.292,258499.39999997616,258500.958,258817.99,,13,his
screen,html.Screen,2_3_1_0_1_14,2022-04-25T17:09:37.945Z,,,,,,,,,,,,,,,,,12,,,,,,,,,,,,,,318.1099999642465,,response,,,,5,B,,,,,,Space,keypress(Space),,,,lyrical,,,,---- ------ ------ ------- ------ --- ------- -----------<br>-- ----- --- ---- -- --- favour ---- - ---- -- ----------<br>-- ------ ---- --- ---- --- --- --- ----- -- -------- ---<br>------ ------- -------- --- ---- -- ------- ------------ --<br>------ -- ---- -- --- ---- -- -------- -- --- ------ ------,259137.5,259136.09999996424,258801.324,258805.39999997616,258817.99,259151.6,,14,favour
screen,html.Screen,2_3_1_0_1_15,2022-04-25T17:09:38.360Z,,,,,,,,,,,,,,,,,12,,,,,,,,,,,,,,397.2000000119151,,response,,,,5,B,,,,,,Space,keypress(Space),,,,lyrical,,,,---- ------ ------ ------- ------ --- ------- -----------<br>-- ----- --- ---- -- --- ------ with - ---- -- ----------<br>-- ------ ---- --- ---- --- --- --- ----- -- -------- ---<br>------ ------- -------- --- ---- -- ------- ------------ --<br>------ -- ---- -- --- ---- -- -------- -- --- ------ ------,259551.89999997616,259548.80000001192,259134.934,259137.69999998808,259151.6,259568.602,,15,with
screen,html.Screen,2_3_1_0_1_16,2022-04-25T17:09:38.742Z,,,,,,,,,,,,,,,,,12,,,,,,,,,,,,,,364.1980000119074,,response,,,,5,B,,,,,,Space,keypress(Space),,,,lyrical,,,,---- ------ ------ ------- ------ --- ------- -----------<br>-- ----- --- ---- -- --- ------ ---- a ---- -- ----------<br>-- ------ ---- --- ---- --- --- --- ----- -- -------- ---<br>------ ------- -------- --- ---- -- ------- ------------ --<br>------ -- ---- -- --- ---- -- -------- -- --- ------ ------,259934.30000001192,259932.80000001192,259551.936,259552.30000001192,259568.602,259935.68,,16,a
screen,html.Screen,2_3_1_0_1_17,2022-04-25T17:09:39.102Z,,,,,,,,,,,,,,,,,12,,,,,,,,,,,,,,356.9199999642442,,response,,,,5,B,,,,,,Space,keypress(Space),,,,lyrical,,,,---- ------ ------ ------- ------ --- ------- -----------<br>-- ----- --- ---- -- --- ------ ---- - dash -- ----------<br>-- ------ ---- --- ---- --- --- --- ----- -- -------- ---<br>------ ------- -------- --- ---- -- ------- ------------ --<br>------ -- ---- -- --- ---- -- -------- -- --- ------ ------,260294,260292.59999996424,259919.014,259934.5,259935.68,260302.707,,17,dash
screen,html.Screen,2_3_1_0_1_18,2022-04-25T17:09:39.504Z,,,,,,,,,,,,,,,,,12,,,,,,,,,,,,,,391.59300001192605,,response,,,,5,B,,,,,,Space,keypress(Space),,,,lyrical,,,,---- ------ ------ ------- ------ --- ------- -----------<br>-- ----- --- ---- -- --- ------ ---- - ---- of ----------<br>-- ------ ---- --- ---- --- --- --- ----- -- -------- ---<br>------ ------- -------- --- ---- -- ------- ------------ --<br>------ -- ---- -- --- ---- -- -------- -- --- ------ ------,260696.09999996424,260694.30000001192,260286.041,260294.30000001192,260302.707,260702.655,,18,of
screen,html.Screen,2_3_1_0_1_19,2022-04-25T17:09:40.063Z,,,,,,,,,,,,,,,,,12,,,,,,,,,,,,,,548.9449999642384,,response,,,,5,B,,,,,,Space,keypress(Space),,,,lyrical,,,,---- ------ ------ ------- ------ --- ------- -----------<br>-- ----- --- ---- -- --- ------ ---- - ---- -- ingenuity.<br>-- ------ ---- --- ---- --- --- --- ----- -- -------- ---<br>------ ------- -------- --- ---- -- ------- ------------ --<br>------ -- ---- -- --- ---- -- -------- -- --- ------ ------,261255.30000001192,261251.59999996424,260685.989,260696.39999997616,260702.655,261270.122,,19,ingenuity.
screen,html.Screen,2_3_1_0_1_20,2022-04-25T17:09:40.386Z,,,,,,,,,,,,,,,,,12,,,,,,,,,,,,,,307.1780000119179,,response,,,,5,B,,,,,,Space,keypress(Space),,,,lyrical,,,,---- ------ ------ ------- ------ --- ------- -----------<br>-- ----- --- ---- -- --- ------ ---- - ---- -- ----------<br>He ------ ---- --- ---- --- --- --- ----- -- -------- ---<br>------ ------- -------- --- ---- -- ------- ------------ --<br>------ -- ---- -- --- ---- -- -------- -- --- ------ ------,261578.59999996424,261577.30000001192,261253.456,261255.59999996424,261270.122,261587.266,,20,He
screen,html.Screen,2_3_1_0_1_21,2022-04-25T17:09:40.784Z,,,,,,,,,,,,,,,,,12,,,,,,,,,,,,,,387.4339999880758,,response,,,,5,B,,,,,,Space,keypress(Space),,,,lyrical,,,,---- ------ ------ ------- ------ --- ------- -----------<br>-- ----- --- ---- -- --- ------ ---- - ---- -- ----------<br>-- walked ---- --- ---- --- --- --- ----- -- -------- ---<br>------ ------- -------- --- ---- -- ------- ------------ --<br>------ -- ---- -- --- ---- -- -------- -- --- ------ ------,261976.39999997616,261974.69999998808,261570.6,261578.89999997616,261587.266,261987.599,,21,walked
screen,html.Screen,2_3_1_0_1_22,2022-04-25T17:09:41.067Z,,,,,,,,,,,,,,,,,12,,,,,,,,,,,,,,270.3009999761707,,response,,,,5,B,,,,,,Space,keypress(Space),,,,lyrical,,,,---- ------ ------ ------- ------ --- ------- -----------<br>-- ----- --- ---- -- --- ------ ---- - ---- -- ----------<br>-- ------ into --- ---- --- --- --- ----- -- -------- ---<br>------ ------- -------- --- ---- -- ------- ------------ --<br>------ -- ---- -- --- ---- -- -------- -- --- ------ ------,262259.1999999881,262257.89999997616,261970.933,261976.59999996424,261987.599,262271.371,,22,into
screen,html.Screen,2_3_1_0_1_23,2022-04-25T17:09:41.342Z,,,,,,,,,,,,,,,,,12,,,,,,,,,,,,,,261.4290000119363,,response,,,,5,B,,,,,,Space,keypress(Space),,,,lyrical,,,,---- ------ ------ ------- ------ --- ------- -----------<br>-- ----- --- ---- -- --- ------ ---- - ---- -- ----------<br>-- ------ ---- his ---- --- --- --- ----- -- -------- ---<br>------ ------- -------- --- ---- -- ------- ------------ --<br>------ -- ---- -- --- ---- -- -------- -- --- ------ ------,262534.1999999881,262532.8000000119,262254.705,262259.39999997616,262271.371,262538.039,,23,his
screen,html.Screen,2_3_1_0_1_24,2022-04-25T17:09:41.634Z,,,,,,,,,,,,,,,,,12,,,,,,,,,,,,,,286.3609999761684,,response,,,,5,B,,,,,,Space,keypress(Space),,,,lyrical,,,,---- ------ ------ ------- ------ --- ------- -----------<br>-- ----- --- ---- -- --- ------ ---- - ---- -- ----------<br>-- ------ ---- --- bank --- --- --- ----- -- -------- ---<br>------ ------- -------- --- ---- -- ------- ------------ --<br>------ -- ---- -- --- ---- -- -------- -- --- ------ ------,262826.1999999881,262824.39999997616,262521.373,262534.5,262538.039,262838.555,,24,bank
screen,html.Screen,2_3_1_0_1_25,2022-04-25T17:09:41.955Z,,,,,,,,,,,,,,,,,12,,,,,,,,,,,,,,305.7450000119279,,response,,,,5,B,,,,,,Space,keypress(Space),,,,lyrical,,,,---- ------ ------ ------- ------ --- ------- -----------<br>-- ----- --- ---- -- --- ------ ---- - ---- -- ----------<br>-- ------ ---- --- ---- one --- --- ----- -- -------- ---<br>------ ------- -------- --- ---- -- ------- ------------ --<br>------ -- ---- -- --- ---- -- -------- -- --- ------ ------,263147.6999999881,263144.3000000119,262821.889,262826.5,262838.555,263155.474,,25,one
screen,html.Screen,2_3_1_0_1_26,2022-04-25T17:09:42.291Z,,,,,,,,,,,,,,,,,12,,,,,,,,,,,,,,326.8260000119335,,response,,,,5,B,,,,,,Space,keypress(Space),,,,lyrical,,,,---- ------ ------ ------- ------ --- ------- -----------<br>-- ----- --- ---- -- --- ------ ---- - ---- -- ----------<br>-- ------ ---- --- ---- --- day --- ----- -- -------- ---<br>------ ------- -------- --- ---- -- ------- ------------ --<br>------ -- ---- -- --- ---- -- -------- -- --- ------ ------,263483.6999999881,263482.3000000119,263138.808,263147.89999997616,263155.474,263489.191,,26,day
screen,html.Screen,2_3_1_0_1_27,2022-04-25T17:09:42.585Z,,,,,,,,,,,,,,,,,12,,,,,,,,,,,,,,286.8090000000084,,response,,,,5,B,,,,,,Space,keypress(Space),,,,lyrical,,,,---- ------ ------ ------- ------ --- ------- -----------<br>-- ----- --- ---- -- --- ------ ---- - ---- -- ----------<br>-- ------ ---- --- ---- --- --- and ----- -- -------- ---<br>------ ------- -------- --- ---- -- ------- ------------ --<br>------ -- ---- -- --- ---- -- -------- -- --- ------ ------,263777.3000000119,263776,263472.525,263484,263489.191,263789.509,,27,and
screen,html.Screen,2_3_1_0_1_28,2022-04-25T17:09:42.869Z,,,,,,,,,,,,,,,,,12,,,,,,,,,,,,,,270.0909999642172,,response,,,,5,B,,,,,,Space,keypress(Space),,,,lyrical,,,,---- ------ ------ ------- ------ --- ------- -----------<br>-- ----- --- ---- -- --- ------ ---- - ---- -- ----------<br>-- ------ ---- --- ---- --- --- --- asked -- -------- ---<br>------ ------- -------- --- ---- -- ------- ------------ --<br>------ -- ---- -- --- ---- -- -------- -- --- ------ ------,264060.89999997616,264059.59999996424,263772.843,263777.59999996424,263789.509,264072.802,,28,asked
screen,html.Screen,2_3_1_0_1_29,2022-04-25T17:09:43.202Z,,,,,,,,,,,,,,,,,12,,,,,,,,,,,,,,320.4980000118958,,response,,,,5,B,,,,,,Space,keypress(Space),,,,lyrical,,,,---- ------ ------ ------- ------ --- ------- -----------<br>-- ----- --- ---- -- --- ------ ---- - ---- -- ----------<br>-- ------ ---- --- ---- --- --- --- ----- to -------- ---<br>------ ------- -------- --- ---- -- ------- ------------ --<br>------ -- ---- -- --- ---- -- -------- -- --- ------ ------,264394.6999999881,264393.3000000119,264056.136,264061.1999999881,264072.802,264406.426,,29,to
screen,html.Screen,2_3_1_0_1_30,2022-04-25T17:09:43.528Z,,,,,,,,,,,,,,,,,12,,,,,,,,,,,,,,312.57400000002235,,response,,,,5,B,,,,,,Space,keypress(Space),,,,lyrical,,,,---- ------ ------ ------- ------ --- ------- -----------<br>-- ----- --- ---- -- --- ------ ---- - ---- -- ----------<br>-- ------ ---- --- ---- --- --- --- ----- -- withdraw ---<br>------ ------- -------- --- ---- -- ------- ------------ --<br>------ -- ---- -- --- ---- -- -------- -- --- ------ ------,264720.5,264719,264389.76,264395,264406.426,264723.409,,30,withdraw
screen,html.Screen,2_3_1_0_1_31,2022-04-25T17:09:43.843Z,,,,,,,,,,,,,,,,,12,,,,,,,,,,,,,,309.39100001193583,,response,,,,5,B,,,,,,Space,keypress(Space),,,,lyrical,,,,---- ------ ------ ------- ------ --- ------- -----------<br>-- ----- --- ---- -- --- ------ ---- - ---- -- ----------<br>-- ------ ---- --- ---- --- --- --- ----- -- -------- his<br>------ ------- -------- --- ---- -- ------- ------------ --<br>------ -- ---- -- --- ---- -- -------- -- --- ------ ------,265035.5,265032.8000000119,264706.743,264720.6999999881,264723.409,265040.712,,31,his
screen,html.Screen,2_3_1_0_1_32,2022-04-25T17:09:44.108Z,,,,,,,,,,,,,,,,,12,,,,,,,,,,,,,,258.3879999642377,,response,,,,5,B,,,,,,Space,keypress(Space),,,,lyrical,,,,---- ------ ------ ------- ------ --- ------- -----------<br>-- ----- --- ---- -- --- ------ ---- - ---- -- ----------<br>-- ------ ---- --- ---- --- --- --- ----- -- -------- ---<br>entire ------- -------- --- ---- -- ------- ------------ --<br>------ -- ---- -- --- ---- -- -------- -- --- ------ ------,265300.5,265299.09999996424,265024.046,265035.8000000119,265040.712,265307.685,,32,entire
screen,html.Screen,2_3_1_0_1_33,2022-04-25T17:09:44.374Z,,,,,,,,,,,,,,,,,12,,,,,,,,,,,,,,257.0149999880814,,response,,,,5,B,,,,,,Space,keypress(Space),,,,lyrical,,,,---- ------ ------ ------- ------ --- ------- -----------<br>-- ----- --- ---- -- --- ------ ---- - ---- -- ----------<br>-- ------ ---- --- ---- --- --- --- ----- -- -------- ---<br>------ account -------- --- ---- -- ------- ------------ --<br>------ -- ---- -- --- ---- -- -------- -- --- ------ ------,265566.59999996424,265564.6999999881,265291.019,265300.6999999881,265307.685,265574.619,,33,account
screen,html.Screen,2_3_1_0_1_34,2022-04-25T17:09:44.678Z,,,,,,,,,,,,,,,,,12,,,,,,,,,,,,,,294.080999988073,,response,,,,5,B,,,,,,Space,keypress(Space),,,,lyrical,,,,"---- ------ ------ ------- ------ --- ------- -----------<br>-- ----- --- ---- -- --- ------ ---- - ---- -- ----------<br>-- ------ ---- --- ---- --- --- --- ----- -- -------- ---<br>------ ------- balance, --- ---- -- ------- ------------ --<br>------ -- ---- -- --- ---- -- -------- -- --- ------ ------",265870.39999997616,265868.6999999881,265557.953,265566.89999997616,265574.619,265874.813,,34,"balance,"
screen,html.Screen,2_3_1_0_1_35,2022-04-25T17:09:45.041Z,,,,,,,,,,,,,,,,,12,,,,,,,,,,,,,,357.0869999761344,,response,,,,5,B,,,,,,Space,keypress(Space),,,,lyrical,,,,---- ------ ------ ------- ------ --- ------- -----------<br>-- ----- --- ---- -- --- ------ ---- - ---- -- ----------<br>-- ------ ---- --- ---- --- --- --- ----- -- -------- ---<br>------ ------- -------- but ---- -- ------- ------------ --<br>------ -- ---- -- --- ---- -- -------- -- --- ------ ------,266233.3000000119,266231.89999997616,265858.147,265870.59999996424,265874.813,266241.838,,35,but
screen,html.Screen,2_3_1_0_1_36,2022-04-25T17:09:45.337Z,,,,,,,,,,,,,,,,,12,,,,,,,,,,,,,,285.6620000000112,,response,,,,5,B,,,,,,Space,keypress(Space),,,,lyrical,,,,---- ------ ------ ------- ------ --- ------- -----------<br>-- ----- --- ---- -- --- ------ ---- - ---- -- ----------<br>-- ------ ---- --- ---- --- --- --- ----- -- -------- ---<br>------ ------- -------- --- with -- ------- ------------ --<br>------ -- ---- -- --- ---- -- -------- -- --- ------ ------,266528.89999997616,266527.5,266225.172,266233.59999996424,266241.838,266558.868,,36,with
screen,html.Screen,2_3_1_0_1_37,2022-04-25T17:09:45.663Z,,,,,,,,,,,,,,,,,12,,,,,,,,,,,,,,294.5319999761414,,response,,,,5,B,,,,,,Space,keypress(Space),,,,lyrical,,,,---- ------ ------ ------- ------ --- ------- -----------<br>-- ----- --- ---- -- --- ------ ---- - ---- -- ----------<br>-- ------ ---- --- ---- --- --- --- ----- -- -------- ---<br>------ ------- -------- --- ---- an ------- ------------ --<br>------ -- ---- -- --- ---- -- -------- -- --- ------ ------,266854.89999997616,266853.39999997616,266542.202,266529.09999996424,266558.868,266858.885,,37,an
screen,html.Screen,2_3_1_0_1_38,2022-04-25T17:09:45.965Z,,,,,,,,,,,,,,,,,12,,,,,,,,,,,,,,297.4150000119116,,response,,,,5,B,,,,,,Space,keypress(Space),,,,lyrical,,,,---- ------ ------ ------- ------ --- ------- -----------<br>-- ----- --- ---- -- --- ------ ---- - ---- -- ----------<br>-- ------ ---- --- ---- --- --- --- ----- -- -------- ---<br>------ ------- -------- --- ---- -- unusual ------------ --<br>------ -- ---- -- --- ---- -- -------- -- --- ------ ------,267157.6999999881,267156.3000000119,266842.219,266855.1999999881,266858.885,267159.415,,38,unusual
screen,html.Screen,2_3_1_0_1_39,2022-04-25T17:09:46.223Z,,,,,,,,,,,,,,,,,12,,,,,,,,,,,,,,254.28499998810003,,response,,,,5,B,,,,,,Space,keypress(Space),,,,lyrical,,,,---- ------ ------ ------- ------ --- ------- -----------<br>-- ----- --- ---- -- --- ------ ---- - ---- -- ----------<br>-- ------ ---- --- ---- --- --- --- ----- -- -------- ---<br>------ ------- -------- --- ---- -- ------- stipulation: --<br>------ -- ---- -- --- ---- -- -------- -- --- ------ ------,267415.09999996424,267413.6999999881,267142.749,267157.89999997616,267159.415,267426.36,,39,stipulation:
screen,html.Screen,2_3_1_0_1_40,2022-04-25T17:09:46.734Z,,,,,,,,,,,,,,,,,12,,,,,,,,,,,,,,497.83999998809304,,response,,,,5,B,,,,,,Space,keypress(Space),,,,lyrical,,,,---- ------ ------ ------- ------ --- ------- -----------<br>-- ----- --- ---- -- --- ------ ---- - ---- -- ----------<br>-- ------ ---- --- ---- --- --- --- ----- -- -------- ---<br>------ ------- -------- --- ---- -- ------- ------------ He<br>------ -- ---- -- --- ---- -- -------- -- --- ------ ------,267925.89999997616,267924.1999999881,267409.694,267415.3000000119,267426.36,267943.265,,40,He
screen,html.Screen,2_3_1_0_1_41,2022-04-25T17:09:47.028Z,,,,,,,,,,,,,,,,,12,,,,,,,,,,,,,,272.83499996422324,,response,,,,5,B,,,,,,Space,keypress(Space),,,,lyrical,,,,---- ------ ------ ------- ------ --- ------- -----------<br>-- ----- --- ---- -- --- ------ ---- - ---- -- ----------<br>-- ------ ---- --- ---- --- --- --- ----- -- -------- ---<br>------ ------- -------- --- ---- -- ------- ------------ --<br>wanted -- ---- -- --- ---- -- -------- -- --- ------ ------,268220,268216.09999996424,267926.599,267926.09999996424,267943.265,268227.125,,41,wanted
screen,html.Screen,2_3_1_0_1_42,2022-04-25T17:09:47.324Z,,,,,,,,,,,,,,,,,12,,,,,,,,,,,,,,287.375,,response,,,,5,B,,,,,,Space,keypress(Space),,,,lyrical,,,,---- ------ ------ ------- ------ --- ------- -----------<br>-- ----- --- ---- -- --- ------ ---- - ---- -- ----------<br>-- ------ ---- --- ---- --- --- --- ----- -- -------- ---<br>------ ------- -------- --- ---- -- ------- ------------ --<br>------ as ---- -- --- ---- -- -------- -- --- ------ ------,268516.1999999881,268514.5,268210.459,268220.39999997616,268227.125,268527.458,,42,as
