sender,sender_type,sender_id,timestamp,meta,,Blues,Classical,Country,Dance,Electronic,Folk,Gospel,Hip-Hop,Jazz,Latin,Musical/Film,New-age,Pop,Prolific_id,Provo_ID,R&B,Rap,Reggae,Religious,Rock,Soul,Swing,Traditional,age,artist_name,correct,correctResponse,distraction,duration,education,ended_on,familiarity,gender,headphone_check_performance,item,list,music_frequency,offensiveness,pleasantness,position_correct,preference,response,response_action,snippet_file,song_name,song_rating,sound,stimulus_1,stimulus_2,stimulus_3,text,time_commit,time_end,time_render,time_run,time_show,time_switch,url,word,word_ID
Prolific ID,html.Form,0,2022-04-27T11:07:43.091Z,"{""labjs_version"":""20.2.2"",""labjs_build"":{""flavor"":""production"",""commit"":""a25486e0c714a0ae2ce03ff94b7bb6896854dcfa""},""location"":""https://run.pavlovia.org/mvasilev/prolific3_music_b/"",""userAgent"":""Mozilla/5.0 (Macintosh; Intel Mac OS X 10_15_7) AppleWebKit/537.36 (KHTML, like Gecko) Chrome/99.0.4844.83 Safari/537.36"",""platform"":""MacIntel"",""language"":""en-GB"",""locale"":""en-GB"",""timeZone"":""Europe/London"",""timezoneOffset"":-60,""screen_width"":1792,""screen_height"":1120,""scroll_width"":1792,""scroll_height"":936,""window_innerWidth"":1792,""window_innerHeight"":984,""devicePixelRatio"":2}",,,,,,,,,,,,,,,60fd25de2a42b71548827823,,,,,,,,,,,,,,,8693.054000035763,,form submission,,,,,,,,,,,,,,,,,,,,,20394.30000001192,20393.900000035763,11684.18,11691.800000011921,11700.846,20401.011,{},,
Introduction,html.Screen,1_0,2022-04-27T11:07:49.324Z,,,,,,,,,,,,,,,,,,,,,,,,,,,,,,,6205.589000023843,,response,,,,,,,,,,,continue,click button,,,,,,,,,26627.900000035763,26606.600000023842,20384.345,20394.5,20401.011,26634.553,,,
Volume calibration,html.Screen,1_1,2022-04-27T11:08:18.158Z,,,,,,,,,,,,,,,,,,,,,,,,,,,,,,,28814.947,,response,,,,,,,,,,,continue,click button,,,,,,,,,55462.30000001192,55449.5,26617.887,26628,26634.553,55467.738,,,
Task instructions,html.Screen,1_2,2022-04-27T11:08:37.422Z,,,,,,,,,,,,,,,,,,,,,,,,,,,,,,,19237.762000000002,,response,,,,,,,,,,,continue,click button,,,,,,,,,74726,74705.5,55451.072,55462.40000003576,55467.738,74734.622,,,
Sounds,html.Screen,1_3_0_0,2022-04-27T11:08:41.667Z,,,,,,,,,,,,,,,,,,,,,,,,,,,,,,,4249.830000000002,,timeout,,,,,,,,,2,,,,,,,,I,S,O,,78971.60000002384,78967.786,74717.956,74726.19999998808,74734.622,78984.452,,,
Judgement,html.Screen,1_3_0_1,2022-04-27T11:08:42.723Z,,,,,,,,,,,,,,,,,,,,,,,,,,,,true,2,,1031.7479999880743,,response,,,,,,,,,2,,2,click #choice-2,,,,,I,S,O,,80026.69999998808,80016.19999998808,78967.786,78971.69999998808,78984.452,80034.954,,,
Trial,flow.Sequence,1_3_0,2022-04-27T11:08:42.723Z,,,,,,,,,,,,,,,,,,,,,,,,,,,,,,,5281.577999988076,,completion,,,,,,,,,2,,,,,,,,I,S,O,,80026.90000003576,80016.19999998808,74717.956,74726.19999998808,74734.622,80034.954,,,
Sounds,html.Screen,1_3_1_0,2022-04-27T11:08:46.965Z,,,,,,,,,,,,,,,,,,,,,,,,,,,,,,,4249.830000000002,,timeout,,,,,,,,,3,,,,,,,,O,I,S,,84269.69999998808,84268.118,80018.288,80027,80034.954,84284.784,,,
Judgement,html.Screen,1_3_1_1,2022-04-27T11:08:47.488Z,,,,,,,,,,,,,,,,,,,,,,,,,,,,true,3,,495.0160000119213,,response,,,,,,,,,3,,3,click #choice-3,,,,,O,I,S,,84792.19999998808,84779.80000001192,84268.118,84269.80000001192,84284.784,84801.43,,,
Trial,flow.Sequence,1_3_1,2022-04-27T11:08:47.488Z,,,,,,,,,,,,,,,,,,,,,,,,,,,,,,,4744.846000011923,,completion,,,,,,,,,3,,,,,,,,O,I,S,,84792.40000003576,84779.80000001192,80018.288,80027,80034.954,84801.43,,,
Sounds,html.Screen,1_3_2_0,2022-04-27T11:08:51.732Z,,,,,,,,,,,,,,,,,,,,,,,,,,,,,,,4249.830000000002,,timeout,,,,,,,,,3,,,,,,,,I,O,S,,89036.60000002384,89034.594,84784.764,84792.5,84801.43,89051.26,,,
Judgement,html.Screen,1_3_2_1,2022-04-27T11:08:52.521Z,,,,,,,,,,,,,,,,,,,,,,,,,,,,true,3,,760.2400000000052,,response,,,,,,,,,3,,3,click #choice-3,,,,,I,O,S,,89825.5,89811.5,89034.594,89036.80000001192,89051.26,89835.071,,,
Trial,flow.Sequence,1_3_2,2022-04-27T11:08:52.521Z,,,,,,,,,,,,,,,,,,,,,,,,,,,,,,,5010.070000000007,,completion,,,,,,,,,3,,,,,,,,I,O,S,,89825.69999998808,89811.5,84784.764,84792.40000003576,84801.43,89835.071,,,
Sounds,html.Screen,1_3_3_0,2022-04-27T11:08:56.765Z,,,,,,,,,,,,,,,,,,,,,,,,,,,,,,,4249.830000000002,,timeout,,,,,,,,,1,,,,,,,,S,I,O,,94069.10000002384,94068.235,89818.405,89825.80000001192,89835.071,94084.901,,,
Judgement,html.Screen,1_3_3_1,2022-04-27T11:08:57.238Z,,,,,,,,,,,,,,,,,,,,,,,,,,,,true,1,,448.99900003576477,,response,,,,,,,,,1,,1,click #choice-1,,,,,S,I,O,,94542.60000002384,94533.90000003576,94068.235,94069.19999998808,94084.901,94551.549,,,
Trial,flow.Sequence,1_3_3,2022-04-27T11:08:57.238Z,,,,,,,,,,,,,,,,,,,,,,,,,,,,,,,4698.8290000357665,,completion,,,,,,,,,1,,,,,,,,S,I,O,,94542.69999998808,94533.90000003576,89818.405,89825.80000001192,89835.071,94551.549,,,
Sounds,html.Screen,1_3_4_0,2022-04-27T11:09:01.482Z,,,,,,,,,,,,,,,,,,,,,,,,,,,,,,,4249.830000000002,,timeout,,,,,,,,,1,,,,,,,,S,O,I,,98786.19999998808,98784.713,94534.883,94542.69999998808,94551.549,98801.379,,,
Judgement,html.Screen,1_3_4_1,2022-04-27T11:09:01.922Z,,,,,,,,,,,,,,,,,,,,,,,,,,,,true,1,,406.72100002384104,,response,,,,,,,,,1,,1,click #choice-1,,,,,S,O,I,,99226.19999998808,99208.10000002384,98784.713,98786.30000001192,98801.379,99234.695,,,
Trial,flow.Sequence,1_3_4,2022-04-27T11:09:01.922Z,,,,,,,,,,,,,,,,,,,,,,,,,,,,,,,4656.551000023843,,completion,,,,,,,,,1,,,,,,,,S,O,I,,99226.5,99208.10000002384,94534.883,94542.69999998808,94551.549,99234.695,,,
Sounds,html.Screen,1_3_5_0,2022-04-27T11:09:06.166Z,,,,,,,,,,,,,,,,,,,,,,,,,,,,,,,4250.290999999997,,timeout,,,,,,,,,2,,,,,,,,O,S,I,,103470.19999998808,103468.32,99218.029,99226.5,99234.695,103484.986,,,
Judgement,html.Screen,1_3_5_1,2022-04-27T11:09:06.822Z,,,,,,,,,,,,,,,,,,,,,,,,,,,,true,2,,620.2139999880746,,response,,,,,,,,,2,,2,click #choice-2,,,,,O,S,I,,104126.19999998808,104105.19999998808,103468.32,103470.19999998808,103484.986,104134.96,,,
Trial,flow.Sequence,1_3_5,2022-04-27T11:09:06.823Z,,,,,,,,,,,,,,,,,,,,,,,,,,,,,,,4870.504999988072,,completion,,,,,,,,,2,,,,,,,,O,S,I,,104127,104105.19999998808,99218.029,99226.5,99234.695,104134.96,,,
Task,flow.Loop,1_3,2022-04-27T11:09:06.827Z,,,,,,,,,,,,,,,,,,,,,,,,,,,,,,,29370.577999988076,,completion,,,1,,,,,,,,,,,,,,,,,,104131.60000002384,104105.19999998808,74717.956,74726.10000002384,74734.622,104134.96,,,
Trap,html.Screen,1_4,2022-04-27T11:09:06.828Z,,,,,,,,,,,,,,,,,,,,,,,,,,,,,,,NaN,,skipped,,,,,,,,,,,,,,,,,,,,,104132.5,104105.19999998808,,104132.40000003576,,104134.96,,,
Thanks,html.Screen,1_5,2022-04-27T11:09:10.755Z,,,,,,,,,,,,,,,,,,,,,,,,,,,,,,,3909.0399999999936,,response,,,,,,,,,,,continue,click button,,,,,,,,,108059,108044,104118.294,104132.5,104134.96,111501.332,,,
Headphone screening,flow.Sequence,1,2022-04-27T11:09:10.755Z,,,,,,,,,,,,,,,,,,,,,,,,,,,,,,,87642.989,,completion,,,,,,,,,,,,,,,,,,,,,108059,108044,20384.345,20394.5,20401.011,111501.332,,,
Instructions,html.Page,2_0,2022-04-27T11:09:38.440Z,,,,,,,,,,,,,,,,,,,,,,,,,,,,,,,24242.968000011926,,form submission,,,,,,,,,,,,,,,,,,,,,135745,135744.30000001192,111484.666,111481.10000002384,111501.332,135750.842,,,
Holding screen,html.Screen,2_1_0_0,2022-04-27T11:09:48.432Z,,,,,,,,,,,,,,,,,,,,,,,,,,,,,,,10000.758000000002,,timeout,,,,,,,,,,,,,,,,,,,,,145736.30000001192,145734.934,135734.176,135745.10000002384,135750.842,145751.6,,,
screen,html.Screen,2_1_0_1_0,2022-04-27T11:09:49.507Z,,,,,,,,,,,,,,,,,53,,,,,,,,,,,,,,1054.300000035757,,response,,,,99,,,,,,,Space,keypress(Space),,,,,,,,When -- ----- -- ------ - ------- --- ----------<br>------------- ------ ------ ---- ---- ------- ----- -- ----<br>-------- ------- -- ---------- --- - --- ----- ----- ----<br>---- --- --- ----- --- ---- ---- ------- ----- ---- -------<br>--- --- -- ----- -- --- ---- -- --- ---- -- ------ ------<br>--- ----- -- ----,146811.90000003576,146805.90000003576,145734.934,145736.5,145751.6,146818.224,,0,When
screen,html.Screen,2_1_0_1_1,2022-04-27T11:09:49.912Z,,,,,,,,,,,,,,,,,53,,,,,,,,,,,,,,393.87600002385443,,response,,,,99,,,,,,,Space,keypress(Space),,,,,,,,---- it ----- -- ------ - ------- --- ----------<br>------------- ------ ------ ---- ---- ------- ----- -- ----<br>-------- ------- -- ---------- --- - --- ----- ----- ----<br>---- --- --- ----- --- ---- ---- ------- ----- ---- -------<br>--- --- -- ----- -- --- ---- -- --- ---- -- ------ ------<br>--- ----- -- ----,147216.60000002384,147212.10000002384,146801.558,146812,146818.224,147218.678,,1,it
screen,html.Screen,2_1_0_1_2,2022-04-27T11:09:50.348Z,,,,,,,,,,,,,,,,,53,,,,,,,,,,,,,,429.4220000238274,,response,,,,99,,,,,,,Space,keypress(Space),,,,,,,,---- -- comes -- ------ - ------- --- ----------<br>------------- ------ ------ ---- ---- ------- ----- -- ----<br>-------- ------- -- ---------- --- - --- ----- ----- ----<br>---- --- --- ----- --- ---- ---- ------- ----- ---- -------<br>--- --- -- ----- -- --- ---- -- --- ---- -- ------ ------<br>--- ----- -- ----,147652.69999998808,147648.10000002384,147202.012,147216.69999998808,147218.678,147668.66,,2,comes
screen,html.Screen,2_1_0_1_3,2022-04-27T11:09:50.725Z,,,,,,,,,,,,,,,,,53,,,,,,,,,,,,,,356.3399999999965,,response,,,,99,,,,,,,Space,keypress(Space),,,,,,,,---- -- ----- to ------ - ------- --- ----------<br>------------- ------ ------ ---- ---- ------- ----- -- ----<br>-------- ------- -- ---------- --- - --- ----- ----- ----<br>---- --- --- ----- --- ---- ---- ------- ----- ---- -------<br>--- --- -- ----- -- --- ---- -- --- ---- -- ------ ------<br>--- ----- -- ----,148029.60000002384,148025,147651.994,147652.80000001192,147668.66,148035.312,,3,to
screen,html.Screen,2_1_0_1_4,2022-04-27T11:09:51.126Z,,,,,,,,,,,,,,,,,53,,,,,,,,,,,,,,391.18799999999464,,response,,,,99,,,,,,,Space,keypress(Space),,,,,,,,---- -- ----- -- having - ------- --- ----------<br>------------- ------ ------ ---- ---- ------- ----- -- ----<br>-------- ------- -- ---------- --- - --- ----- ----- ----<br>---- --- --- ----- --- ---- ---- ------- ----- ---- -------<br>--- --- -- ----- -- --- ---- -- --- ---- -- ------ ------<br>--- ----- -- ----,148430.80000001192,148426.5,148018.646,148029.69999998808,148035.312,148435.296,,4,having
screen,html.Screen,2_1_0_1_5,2022-04-27T11:09:51.530Z,,,,,,,,,,,,,,,,,53,,,,,,,,,,,,,,395.30400002383976,,response,,,,99,,,,,,,Space,keypress(Space),,,,,,,,---- -- ----- -- ------ a ------- --- ----------<br>------------- ------ ------ ---- ---- ------- ----- -- ----<br>-------- ------- -- ---------- --- - --- ----- ----- ----<br>---- --- --- ----- --- ---- ---- ------- ----- ---- -------<br>--- --- -- ----- -- --- ---- -- --- ---- -- ------ ------<br>--- ----- -- ----,148835.10000002384,148830.60000002384,148418.63,148431,148435.296,148851.946,,5,a
screen,html.Screen,2_1_0_1_6,2022-04-27T11:09:52.033Z,,,,,,,,,,,,,,,,,53,,,,,,,,,,,,,,480.7539999880828,,response,,,,99,,,,,,,Space,keypress(Space),,,,,,,,---- -- ----- -- ------ - lasting --- ----------<br>------------- ------ ------ ---- ---- ------- ----- -- ----<br>-------- ------- -- ---------- --- - --- ----- ----- ----<br>---- --- --- ----- --- ---- ---- ------- ----- ---- -------<br>--- --- -- ----- -- --- ---- -- --- ---- -- ------ ------<br>--- ----- -- ----,149337.5,149332.69999998808,148835.28,148835.30000001192,148851.946,149351.926,,6,lasting
screen,html.Screen,2_1_0_1_7,2022-04-27T11:09:52.488Z,,,,,,,,,,,,,,,,,53,,,,,,,,,,,,,,436.7739999880723,,response,,,,99,,,,,,,Space,keypress(Space),,,,,,,,---- -- ----- -- ------ - ------- and ----------<br>------------- ------ ------ ---- ---- ------- ----- -- ----<br>-------- ------- -- ---------- --- - --- ----- ----- ----<br>---- --- --- ----- --- ---- ---- ------- ----- ---- -------<br>--- --- -- ----- -- --- ---- -- --- ---- -- ------ ------<br>--- ----- -- ----,149792.80000001192,149788.69999998808,149335.26,149337.5,149351.926,149801.908,,7,and
screen,html.Screen,2_1_0_1_8,2022-04-27T11:09:52.961Z,,,,,,,,,,,,,,,,,53,,,,,,,,,,,,,,459.29199998808326,,response,,,,99,,,,,,,Space,keypress(Space),,,,,,,,---- -- ----- -- ------ - ------- --- fulfilling<br>------------- ------ ------ ---- ---- ------- ----- -- ----<br>-------- ------- -- ---------- --- - --- ----- ----- ----<br>---- --- --- ----- --- ---- ---- ------- ----- ---- -------<br>--- --- -- ----- -- --- ---- -- --- ---- -- ------ ------<br>--- ----- -- ----,150265.69999998808,150261.19999998808,149785.242,149792.90000003576,149801.908,150268.556,,8,fulfilling
screen,html.Screen,2_1_0_1_9,2022-04-27T11:09:53.426Z,,,,,,,,,,,,,,,,,53,,,,,,,,,,,,,,458.04400002383045,,response,,,,99,,,,,,,Space,keypress(Space),,,,,,,,"---- -- ----- -- ------ - ------- --- ----------<br>relationship, ------ ------ ---- ---- ------- ----- -- ----<br>-------- ------- -- ---------- --- - --- ----- ----- ----<br>---- --- --- ----- --- ---- ---- ------- ----- ---- -------<br>--- --- -- ----- -- --- ---- -- --- ---- -- ------ ------<br>--- ----- -- ----",150731.10000002384,150726.60000002384,150251.89,150265.80000001192,150268.556,150735.204,,9,"relationship,"
screen,html.Screen,2_1_0_1_10,2022-04-27T11:09:53.862Z,,,,,,,,,,,,,,,,,53,,,,,,,,,,,,,,426.99599998808117,,response,,,,99,,,,,,,Space,keypress(Space),,,,,,,,---- -- ----- -- ------ - ------- --- ----------<br>------------- common ------ ---- ---- ------- ----- -- ----<br>-------- ------- -- ---------- --- - --- ----- ----- ----<br>---- --- --- ----- --- ---- ---- ------- ----- ---- -------<br>--- --- -- ----- -- --- ---- -- --- ---- -- ------ ------<br>--- ----- -- ----,151166.80000001192,151162.19999998808,150718.538,150731.19999998808,150735.204,151168.52,,10,common
screen,html.Screen,2_1_0_1_11,2022-04-27T11:09:54.326Z,,,,,,,,,,,,,,,,,53,,,,,,,,,,,,,,457.88000003577326,,response,,,,99,,,,,,,Space,keypress(Space),,,,,,,,---- -- ----- -- ------ - ------- --- ----------<br>------------- ------ wisdom ---- ---- ------- ----- -- ----<br>-------- ------- -- ---------- --- - --- ----- ----- ----<br>---- --- --- ----- --- ---- ---- ------- ----- ---- -------<br>--- --- -- ----- -- --- ---- -- --- ---- -- ------ ------<br>--- ----- -- ----,151630.80000001192,151626.40000003576,151151.854,151166.80000001192,151168.52,151635.168,,11,wisdom
screen,html.Screen,2_1_0_1_12,2022-04-27T11:09:54.747Z,,,,,,,,,,,,,,,,,53,,,,,,,,,,,,,,412.43200002383674,,response,,,,99,,,,,,,Space,keypress(Space),,,,,,,,---- -- ----- -- ------ - ------- --- ----------<br>------------- ------ ------ says ---- ------- ----- -- ----<br>-------- ------- -- ---------- --- - --- ----- ----- ----<br>---- --- --- ----- --- ---- ---- ------- ----- ---- -------<br>--- --- -- ----- -- --- ---- -- --- ---- -- ------ ------<br>--- ----- -- ----,152051.69999998808,152047.60000002384,151618.502,151630.90000003576,151635.168,152068.484,,12,says
screen,html.Screen,2_1_0_1_13,2022-04-27T11:09:55.127Z,,,,,,,,,,,,,,,,,53,,,,,,,,,,,,,,359.21599998808233,,response,,,,99,,,,,,,Space,keypress(Space),,,,,,,,---- -- ----- -- ------ - ------- --- ----------<br>------------- ------ ------ ---- that ------- ----- -- ----<br>-------- ------- -- ---------- --- - --- ----- ----- ----<br>---- --- --- ----- --- ---- ---- ------- ----- ---- -------<br>--- --- -- ----- -- --- ---- -- --- ---- -- ------ ------<br>--- ----- -- ----,152432.19999998808,152427.69999998808,152051.818,152051.80000001192,152068.484,152435.136,,13,that
screen,html.Screen,2_1_0_1_14,2022-04-27T11:09:55.592Z,,,,,,,,,,,,,,,,,53,,,,,,,,,,,,,,457.46400002384325,,response,,,,99,,,,,,,Space,keypress(Space),,,,,,,,---- -- ----- -- ------ - ------- --- ----------<br>------------- ------ ------ ---- ---- feeling ----- -- ----<br>-------- ------- -- ---------- --- - --- ----- ----- ----<br>---- --- --- ----- --- ---- ---- ------- ----- ---- -------<br>--- --- -- ----- -- --- ---- -- --- ---- -- ------ ------<br>--- ----- -- ----,152897.10000002384,152892.60000002384,152418.47,152432.30000001192,152435.136,152901.784,,14,feeling
screen,html.Screen,2_1_0_1_15,2022-04-27T11:09:56.039Z,,,,,,,,,,,,,,,,,53,,,,,,,,,,,,,,437.81600002382766,,response,,,,99,,,,,,,Space,keypress(Space),,,,,,,,---- -- ----- -- ------ - ------- --- ----------<br>------------- ------ ------ ---- ---- ------- close -- ----<br>-------- ------- -- ---------- --- - --- ----- ----- ----<br>---- --- --- ----- --- ---- ---- ------- ----- ---- -------<br>--- --- -- ----- -- --- ---- -- --- ---- -- ------ ------<br>--- ----- -- ----,153344.10000002384,153339.60000002384,152885.118,152897.19999998808,152901.784,153351.766,,15,close
screen,html.Screen,2_1_0_1_16,2022-04-27T11:09:56.392Z,,,,,,,,,,,,,,,,,53,,,,,,,,,,,,,,340.73399999999674,,response,,,,99,,,,,,,Space,keypress(Space),,,,,,,,---- -- ----- -- ------ - ------- --- ----------<br>------------- ------ ------ ---- ---- ------- ----- to ----<br>-------- ------- -- ---------- --- - --- ----- ----- ----<br>---- --- --- ----- --- ---- ---- ------- ----- ---- -------<br>--- --- -- ----- -- --- ---- -- --- ---- -- ------ ------<br>--- ----- -- ----,153696.80000001192,153692.5,153335.1,153344.19999998808,153351.766,153701.752,,16,to
screen,html.Screen,2_1_0_1_17,2022-04-27T11:09:57.183Z,,,,,,,,,,,,,,,,,53,,,,,,,,,,,,,,781.4479999880714,,response,,,,99,,,,,,,Space,keypress(Space),,,,,,,,---- -- ----- -- ------ - ------- --- ----------<br>------------- ------ ------ ---- ---- ------- ----- -- your<br>-------- ------- -- ---------- --- - --- ----- ----- ----<br>---- --- --- ----- --- ---- ---- ------- ----- ---- -------<br>--- --- -- ----- -- --- ---- -- --- ---- -- ------ ------<br>--- ----- -- ----,154487.60000002384,154483.19999998808,153685.086,153696.90000003576,153701.752,154501.72,,17,your
screen,html.Screen,2_1_0_1_18,2022-04-27T11:09:57.523Z,,,,,,,,,,,,,,,,,53,,,,,,,,,,,,,,322.3800000238407,,response,,,,99,,,,,,,Space,keypress(Space),,,,,,,,---- -- ----- -- ------ - ------- --- ----------<br>------------- ------ ------ ---- ---- ------- ----- -- ----<br>romantic ------- -- ---------- --- - --- ----- ----- ----<br>---- --- --- ----- --- ---- ---- ------- ----- ---- -------<br>--- --- -- ----- -- --- ---- -- --- ---- -- ------ ------<br>--- ----- -- ----,154828.30000001192,154824.10000002384,154485.054,154487.69999998808,154501.72,154835.04,,18,romantic
screen,html.Screen,2_1_0_1_19,2022-04-27T11:09:57.906Z,,,,,,,,,,,,,,,,,53,,,,,,,,,,,,,,371.5600000238337,,response,,,,99,,,,,,,Space,keypress(Space),,,,,,,,---- -- ----- -- ------ - ------- --- ----------<br>------------- ------ ------ ---- ---- ------- ----- -- ----<br>-------- partner -- ---------- --- - --- ----- ----- ----<br>---- --- --- ----- --- ---- ---- ------- ----- ---- -------<br>--- --- -- ----- -- --- ---- -- --- ---- -- ------ ------<br>--- ----- -- ----,155211,155206.60000002384,154818.374,154828.30000001192,154835.04,155218.358,,19,partner
screen,html.Screen,2_1_0_1_20,2022-04-27T11:09:58.272Z,,,,,,,,,,,,,,,,,53,,,,,,,,,,,,,,354.14199999999255,,response,,,,99,,,,,,,Space,keypress(Space),,,,,,,,---- -- ----- -- ------ - ------- --- ----------<br>------------- ------ ------ ---- ---- ------- ----- -- ----<br>-------- ------- is ---------- --- - --- ----- ----- ----<br>---- --- --- ----- --- ---- ---- ------- ----- ---- -------<br>--- --- -- ----- -- --- ---- -- --- ---- -- ------ ------<br>--- ----- -- ----,155576.90000003576,155572.5,155201.692,155211.10000002384,155218.358,155585.01,,20,is
screen,html.Screen,2_1_0_1_21,2022-04-27T11:09:58.605Z,,,,,,,,,,,,,,,,,53,,,,,,,,,,,,,,320.68999998806976,,response,,,,99,,,,,,,Space,keypress(Space),,,,,,,,---- -- ----- -- ------ - ------- --- ----------<br>------------- ------ ------ ---- ---- ------- ----- -- ----<br>-------- ------- -- paramount. --- - --- ----- ----- ----<br>---- --- --- ----- --- ---- ---- ------- ----- ---- -------<br>--- --- -- ----- -- --- ---- -- --- ---- -- ------ ------<br>--- ----- -- ----,155909.60000002384,155905.69999998808,155568.344,155577,155585.01,155918.33,,21,paramount.
screen,html.Screen,2_1_0_1_22,2022-04-27T11:09:59.022Z,,,,,,,,,,,,,,,,,53,,,,,,,,,,,,,,404.27000002385466,,response,,,,99,,,,,,,Space,keypress(Space),,,,,,,,---- -- ----- -- ------ - ------- --- ----------<br>------------- ------ ------ ---- ---- ------- ----- -- ----<br>-------- ------- -- ---------- But - --- ----- ----- ----<br>---- --- --- ----- --- ---- ---- ------- ----- ---- -------<br>--- --- -- ----- -- --- ---- -- --- ---- -- ------ ------<br>--- ----- -- ----,156326.69999998808,156322.60000002384,155901.664,155909.69999998808,155918.33,156334.98,,22,But
screen,html.Screen,2_1_0_1_23,2022-04-27T11:09:59.389Z,,,,,,,,,,,,,,,,,53,,,,,,,,,,,,,,354.6200000238314,,response,,,,99,,,,,,,Space,keypress(Space),,,,,,,,---- -- ----- -- ------ - ------- --- ----------<br>------------- ------ ------ ---- ---- ------- ----- -- ----<br>-------- ------- -- ---------- --- a --- ----- ----- ----<br>---- --- --- ----- --- ---- ---- ------- ----- ---- -------<br>--- --- -- ----- -- --- ---- -- --- ---- -- ------ ------<br>--- ----- -- ----,156693.80000001192,156689.60000002384,156318.314,156326.80000001192,156334.98,156702.092,,23,a
screen,html.Screen,2_1_0_1_24,2022-04-27T11:09:59.745Z,,,,,,,,,,,,,,,,,53,,,,,,,,,,,,,,342.50800002383767,,response,,,,99,,,,,,,Space,keypress(Space),,,,,,,,---- -- ----- -- ------ - ------- --- ----------<br>------------- ------ ------ ---- ---- ------- ----- -- ----<br>-------- ------- -- ---------- --- - new ----- ----- ----<br>---- --- --- ----- --- ---- ---- ------- ----- ---- -------<br>--- --- -- ----- -- --- ---- -- --- ---- -- ------ ------<br>--- ----- -- ----,157049.30000001192,157044.60000002384,156685.426,156694,156702.092,157052.078,,24,new
screen,html.Screen,2_1_0_1_25,2022-04-27T11:10:00.117Z,,,,,,,,,,,,,,,,,53,,,,,,,,,,,,,,365.2220000119123,,response,,,,99,,,,,,,Space,keypress(Space),,,,,,,,---- -- ----- -- ------ - ------- --- ----------<br>------------- ------ ------ ---- ---- ------- ----- -- ----<br>-------- ------- -- ---------- --- - --- study ----- ----<br>---- --- --- ----- --- ---- ---- ------- ----- ---- -------<br>--- --- -- ----- -- --- ---- -- --- ---- -- ------ ------<br>--- ----- -- ----,157422,157417.30000001192,157035.412,157049.5,157052.078,157435.396,,25,study
screen,html.Screen,2_1_0_1_26,2022-04-27T11:10:00.510Z,,,,,,,,,,,,,,,,,53,,,,,,,,,,,,,,375.404000011913,,response,,,,99,,,,,,,Space,keypress(Space),,,,,,,,---- -- ----- -- ------ - ------- --- ----------<br>------------- ------ ------ ---- ---- ------- ----- -- ----<br>-------- ------- -- ---------- --- - --- ----- finds ----<br>---- --- --- ----- --- ---- ---- ------- ----- ---- -------<br>--- --- -- ----- -- --- ---- -- --- ---- -- ------ ------<br>--- ----- -- ----,157815.19999998808,157810.80000001192,157418.73,157422,157435.396,157818.714,,26,finds
screen,html.Screen,2_1_0_1_27,2022-04-27T11:10:01.037Z,,,,,,,,,,,,,,,,,53,,,,,,,,,,,,,,519.3860000238346,,response,,,,99,,,,,,,Space,keypress(Space),,,,,,,,---- -- ----- -- ------ - ------- --- ----------<br>------------- ------ ------ ---- ---- ------- ----- -- ----<br>-------- ------- -- ---------- --- - --- ----- ----- that<br>---- --- --- ----- --- ---- ---- ------- ----- ---- -------<br>--- --- -- ----- -- --- ---- -- --- ---- -- ------ ------<br>--- ----- -- ----,158342.10000002384,158338.10000002384,157802.048,157815.19999998808,157818.714,158352.026,,27,that
screen,html.Screen,2_1_0_1_28,2022-04-27T11:10:01.459Z,,,,,,,,,,,,,,,,,53,,,,,,,,,,,,,,407.77400001190836,,response,,,,99,,,,,,,Space,keypress(Space),,,,,,,,---- -- ----- -- ------ - ------- --- ----------<br>------------- ------ ------ ---- ---- ------- ----- -- ----<br>-------- ------- -- ---------- --- - --- ----- ----- ----<br>it's --- --- ----- --- ---- ---- ------- ----- ---- -------<br>--- --- -- ----- -- --- ---- -- --- ---- -- ------ ------<br>--- ----- -- ----,158764.19999998808,158759.80000001192,158335.36,158342.10000002384,158352.026,158768.676,,28,it's
screen,html.Screen,2_1_0_1_29,2022-04-27T11:10:01.865Z,,,,,,,,,,,,,,,,,53,,,,,,,,,,,,,,397.1240000119142,,response,,,,99,,,,,,,Space,keypress(Space),,,,,,,,---- -- ----- -- ------ - ------- --- ----------<br>------------- ------ ------ ---- ---- ------- ----- -- ----<br>-------- ------- -- ---------- --- - --- ----- ----- ----<br>---- not --- ----- --- ---- ---- ------- ----- ---- -------<br>--- --- -- ----- -- --- ---- -- --- ---- -- ------ ------<br>--- ----- -- ----,159170.30000001192,159165.80000001192,158752.01,158764.30000001192,158768.676,159185.326,,29,not
screen,html.Screen,2_1_0_1_30,2022-04-27T11:10:02.240Z,,,,,,,,,,,,,,,,,53,,,,,,,,,,,,,,355.57400003576186,,response,,,,99,,,,,,,Space,keypress(Space),,,,,,,,---- -- ----- -- ------ - ------- --- ----------<br>------------- ------ ------ ---- ---- ------- ----- -- ----<br>-------- ------- -- ---------- --- - --- ----- ----- ----<br>---- --- how ----- --- ---- ---- ------- ----- ---- -------<br>--- --- -- ----- -- --- ---- -- --- ---- -- ------ ------<br>--- ----- -- ----,159545.10000002384,159540.90000003576,159168.66,159170.40000003576,159185.326,159551.978,,30,how
screen,html.Screen,2_1_0_1_31,2022-04-27T11:10:02.560Z,,,,,,,,,,,,,,,,,53,,,,,,,,,,,,,,308.92200003576,,response,,,,99,,,,,,,Space,keypress(Space),,,,,,,,---- -- ----- -- ------ - ------- --- ----------<br>------------- ------ ------ ---- ---- ------- ----- -- ----<br>-------- ------- -- ---------- --- - --- ----- ----- ----<br>---- --- --- close --- ---- ---- ------- ----- ---- -------<br>--- --- -- ----- -- --- ---- -- --- ---- -- ------ ------<br>--- ----- -- ----,159865.30000001192,159860.90000003576,159535.312,159545.10000002384,159551.978,159868.632,,31,close
screen,html.Screen,2_1_0_1_32,2022-04-27T11:10:02.885Z,,,,,,,,,,,,,,,,,53,,,,,,,,,,,,,,316.6680000119086,,response,,,,99,,,,,,,Space,keypress(Space),,,,,,,,---- -- ----- -- ------ - ------- --- ----------<br>------------- ------ ------ ---- ---- ------- ----- -- ----<br>-------- ------- -- ---------- --- - --- ----- ----- ----<br>---- --- --- ----- you ---- ---- ------- ----- ---- -------<br>--- --- -- ----- -- --- ---- -- --- ---- -- ------ ------<br>--- ----- -- ----,160189.5,160185.30000001192,159851.966,159865.40000003576,159868.632,160201.952,,32,you
screen,html.Screen,2_1_0_1_33,2022-04-27T11:10:03.260Z,,,,,,,,,,,,,,,,,53,,,,,,,,,,,,,,357.94800003577257,,response,,,,99,,,,,,,Space,keypress(Space),,,,,,,,---- -- ----- -- ------ - ------- --- ----------<br>------------- ------ ------ ---- ---- ------- ----- -- ----<br>-------- ------- -- ---------- --- - --- ----- ----- ----<br>---- --- --- ----- --- feel ---- ------- ----- ---- -------<br>--- --- -- ----- -- --- ---- -- --- ---- -- ------ ------<br>--- ----- -- ----,160564.40000003576,160559.90000003576,160185.286,160189.60000002384,160201.952,160568.604,,33,feel
screen,html.Screen,2_1_0_1_34,2022-04-27T11:10:03.630Z,,,,,,,,,,,,,,,,,53,,,,,,,,,,,,,,361.3960000000079,,response,,,,99,,,,,,,Space,keypress(Space),,,,,,,,---- -- ----- -- ------ - ------- --- ----------<br>------------- ------ ------ ---- ---- ------- ----- -- ----<br>-------- ------- -- ---------- --- - --- ----- ----- ----<br>---- --- --- ----- --- ---- that ------- ----- ---- -------<br>--- --- -- ----- -- --- ---- -- --- ---- -- ------ ------<br>--- ----- -- ----,160934.30000001192,160930,160551.938,160564.5,160568.604,160935.256,,34,that
screen,html.Screen,2_1_0_1_35,2022-04-27T11:10:03.967Z,,,,,,,,,,,,,,,,,53,,,,,,,,,,,,,,333.14400003576884,,response,,,,99,,,,,,,Space,keypress(Space),,,,,,,,---- -- ----- -- ------ - ------- --- ----------<br>------------- ------ ------ ---- ---- ------- ----- -- ----<br>-------- ------- -- ---------- --- - --- ----- ----- ----<br>---- --- --- ----- --- ---- ---- matters ----- ---- -------<br>--- --- -- ----- -- --- ---- -- --- ---- -- ------ ------<br>--- ----- -- ----,161271.5,161268.40000003576,160918.59,160934.5,160935.256,161285.242,,35,matters
screen,html.Screen,2_1_0_1_36,2022-04-27T11:10:04.258Z,,,,,,,,,,,,,,,,,53,,,,,,,,,,,,,,273.05800001192256,,response,,,,99,,,,,,,Space,keypress(Space),,,,,,,,"---- -- ----- -- ------ - ------- --- ----------<br>------------- ------ ------ ---- ---- ------- ----- -- ----<br>-------- ------- -- ---------- --- - --- ----- ----- ----<br>---- --- --- ----- --- ---- ---- ------- most, ---- -------<br>--- --- -- ----- -- --- ---- -- --- ---- -- ------ ------<br>--- ----- -- ----",161562.60000002384,161558.30000001192,161268.576,161271.60000002384,161285.242,161568.564,,36,"most,"
screen,html.Screen,2_1_0_1_37,2022-04-27T11:10:04.612Z,,,,,,,,,,,,,,,,,53,,,,,,,,,,,,,,343.83600003574975,,response,,,,99,,,,,,,Space,keypress(Space),,,,,,,,---- -- ----- -- ------ - ------- --- ----------<br>------------- ------ ------ ---- ---- ------- ----- -- ----<br>-------- ------- -- ---------- --- - --- ----- ----- ----<br>---- --- --- ----- --- ---- ---- ------- ----- it's -------<br>--- --- -- ----- -- --- ---- -- --- ---- -- ------ ------<br>--- ----- -- ----,161917.10000002384,161912.40000003576,161551.898,161562.60000002384,161568.564,161918.55,,37,it's
screen,html.Screen,2_1_0_1_38,2022-04-27T11:10:04.955Z,,,,,,,,,,,,,,,,,53,,,,,,,,,,,,,,338.45000000001164,,response,,,,99,,,,,,,Space,keypress(Space),,,,,,,,---- -- ----- -- ------ - ------- --- ----------<br>------------- ------ ------ ---- ---- ------- ----- -- ----<br>-------- ------- -- ---------- --- - --- ----- ----- ----<br>---- --- --- ----- --- ---- ---- ------- ----- ---- whether<br>--- --- -- ----- -- --- ---- -- --- ---- -- ------ ------<br>--- ----- -- ----,162260,162257,161901.884,161917.10000002384,161918.55,162268.536,,38,whether
screen,html.Screen,2_1_0_1_39,2022-04-27T11:10:05.282Z,,,,,,,,,,,,,,,,,53,,,,,,,,,,,,,,314.26400001192815,,response,,,,99,,,,,,,Space,keypress(Space),,,,,,,,---- -- ----- -- ------ - ------- --- ----------<br>------------- ------ ------ ---- ---- ------- ----- -- ----<br>-------- ------- -- ---------- --- - --- ----- ----- ----<br>---- --- --- ----- --- ---- ---- ------- ----- ---- -------<br>you --- -- ----- -- --- ---- -- --- ---- -- ------ ------<br>--- ----- -- ----,162587,162582.80000001192,162251.87,162260,162268.536,162601.856,,39,you
screen,html.Screen,2_1_0_1_40,2022-04-27T11:10:05.591Z,,,,,,,,,,,,,,,,,53,,,,,,,,,,,,,,289.14400000000023,,response,,,,99,,,,,,,Space,keypress(Space),,,,,,,,---- -- ----- -- ------ - ------- --- ----------<br>------------- ------ ------ ---- ---- ------- ----- -- ----<br>-------- ------- -- ---------- --- - --- ----- ----- ----<br>---- --- --- ----- --- ---- ---- ------- ----- ---- -------<br>--- are -- ----- -- --- ---- -- --- ---- -- ------ ------<br>--- ----- -- ----,162895.60000002384,162891,162585.19,162587.10000002384,162601.856,162901.844,,40,are
screen,html.Screen,2_1_0_1_41,2022-04-27T11:10:05.906Z,,,,,,,,,,,,,,,,,53,,,,,,,,,,,,,,304.0560000357509,,response,,,,99,,,,,,,Space,keypress(Space),,,,,,,,---- -- ----- -- ------ - ------- --- ----------<br>------------- ------ ------ ---- ---- ------- ----- -- ----<br>-------- ------- -- ---------- --- - --- ----- ----- ----<br>---- --- --- ----- --- ---- ---- ------- ----- ---- -------<br>--- --- as ----- -- --- ---- -- --- ---- -- ------ ------<br>--- ----- -- ----,163210.5,163205.90000003576,162885.178,162895.60000002384,162901.844,163218.498,,41,as
screen,html.Screen,2_1_0_1_42,2022-04-27T11:10:06.267Z,,,,,,,,,,,,,,,,,53,,,,,,,,,,,,,,348.5020000000077,,response,,,,99,,,,,,,Space,keypress(Space),,,,,,,,---- -- ----- -- ------ - ------- --- ----------<br>------------- ------ ------ ---- ---- ------- ----- -- ----<br>-------- ------- -- ---------- --- - --- ----- ----- ----<br>---- --- --- ----- --- ---- ---- ------- ----- ---- -------<br>--- --- -- close -- --- ---- -- --- ---- -- ------ ------<br>--- ----- -- ----,163571.5,163567,163201.832,163210.60000002384,163218.498,163585.15,,42,close
screen,html.Screen,2_1_0_1_43,2022-04-27T11:10:06.624Z,,,,,,,,,,,,,,,,,53,,,,,,,,,,,,,,339.3500000000058,,response,,,,99,,,,,,,Space,keypress(Space),,,,,,,,---- -- ----- -- ------ - ------- --- ----------<br>------------- ------ ------ ---- ---- ------- ----- -- ----<br>-------- ------- -- ---------- --- - --- ----- ----- ----<br>---- --- --- ----- --- ---- ---- ------- ----- ---- -------<br>--- --- -- ----- as --- ---- -- --- ---- -- ------ ------<br>--- ----- -- ----,163929,163924.5,163568.484,163571.69999998808,163585.15,163935.136,,43,as
screen,html.Screen,2_1_0_1_44,2022-04-27T11:10:06.957Z,,,,,,,,,,,,,,,,,53,,,,,,,,,,,,,,323.96400002384325,,response,,,,99,,,,,,,Space,keypress(Space),,,,,,,,---- -- ----- -- ------ - ------- --- ----------<br>------------- ------ ------ ---- ---- ------- ----- -- ----<br>-------- ------- -- ---------- --- - --- ----- ----- ----<br>---- --- --- ----- --- ---- ---- ------- ----- ---- -------<br>--- --- -- ----- -- you ---- -- --- ---- -- ------ ------<br>--- ----- -- ----,164262.30000001192,164259.10000002384,163918.47,163929,163935.136,164268.456,,44,you
screen,html.Screen,2_1_0_1_45,2022-04-27T11:10:07.317Z,,,,,,,,,,,,,,,,,53,,,,,,,,,,,,,,349.34400001191534,,response,,,,99,,,,,,,Space,keypress(Space),,,,,,,,---- -- ----- -- ------ - ------- --- ----------<br>------------- ------ ------ ---- ---- ------- ----- -- ----<br>-------- ------- -- ---------- --- - --- ----- ----- ----<br>---- --- --- ----- --- ---- ---- ------- ----- ---- -------<br>--- --- -- ----- -- --- want -- --- ---- -- ------ ------<br>--- ----- -- ----,164622.19999998808,164617.80000001192,164251.79,164262.30000001192,164268.456,164635.108,,45,want
screen,html.Screen,2_1_0_1_46,2022-04-27T11:10:07.663Z,,,,,,,,,,,,,,,,,53,,,,,,,,,,,,,,329.9920000238344,,response,,,,99,,,,,,,Space,keypress(Space),,,,,,,,---- -- ----- -- ------ - ------- --- ----------<br>------------- ------ ------ ---- ---- ------- ----- -- ----<br>-------- ------- -- ---------- --- - --- ----- ----- ----<br>---- --- --- ----- --- ---- ---- ------- ----- ---- -------<br>--- --- -- ----- -- --- ---- to --- ---- -- ------ ------<br>--- ----- -- ----,164968.40000003576,164965.10000002384,164618.442,164622.30000001192,164635.108,164985.094,,46,to
screen,html.Screen,2_1_0_1_47,2022-04-27T11:10:07.985Z,,,,,,,,,,,,,,,,,53,,,,,,,,,,,,,,300.9059999999881,,response,,,,99,,,,,,,Space,keypress(Space),,,,,,,,"---- -- ----- -- ------ - ------- --- ----------<br>------------- ------ ------ ---- ---- ------- ----- -- ----<br>-------- ------- -- ---------- --- - --- ----- ----- ----<br>---- --- --- ----- --- ---- ---- ------- ----- ---- -------<br>--- --- -- ----- -- --- ---- -- be, ---- -- ------ ------<br>--- ----- -- ----",165290.30000001192,165286,164968.428,164968.40000003576,164985.094,165301.748,,47,"be,"
screen,html.Screen,2_1_0_1_48,2022-04-27T11:10:08.379Z,,,,,,,,,,,,,,,,,53,,,,,,,,,,,,,,377.7520000000077,,response,,,,99,,,,,,,Space,keypress(Space),,,,,,,,---- -- ----- -- ------ - ------- --- ----------<br>------------- ------ ------ ---- ---- ------- ----- -- ----<br>-------- ------- -- ---------- --- - --- ----- ----- ----<br>---- --- --- ----- --- ---- ---- ------- ----- ---- -------<br>--- --- -- ----- -- --- ---- -- --- even -- ------ ------<br>--- ----- -- ----,165684,165679.5,165285.082,165290.5,165301.748,165685.066,,48,even
screen,html.Screen,2_1_0_1_49,2022-04-27T11:10:08.685Z,,,,,,,,,,,,,,,,,53,,,,,,,,,,,,,,301.2340000119293,,response,,,,99,,,,,,,Space,keypress(Space),,,,,,,,---- -- ----- -- ------ - ------- --- ----------<br>------------- ------ ------ ---- ---- ------- ----- -- ----<br>-------- ------- -- ---------- --- - --- ----- ----- ----<br>---- --- --- ----- --- ---- ---- ------- ----- ---- -------<br>--- --- -- ----- -- --- ---- -- --- ---- if ------ ------<br>--- ----- -- ----,165990.40000003576,165986.30000001192,165668.4,165684.10000002384,165685.066,166001.72,,49,if
screen,html.Screen,2_1_0_1_50,2022-04-27T11:10:09.050Z,,,,,,,,,,,,,,,,,53,,,,,,,,,,,,,,348.9799999880779,,response,,,,99,,,,,,,Space,keypress(Space),,,,,,,,---- -- ----- -- ------ - ------- --- ----------<br>------------- ------ ------ ---- ---- ------- ----- -- ----<br>-------- ------- -- ---------- --- - --- ----- ----- ----<br>---- --- --- ----- --- ---- ---- ------- ----- ---- -------<br>--- --- -- ----- -- --- ---- -- --- ---- -- that's ------<br>--- ----- -- ----,166354.90000003576,166350.69999998808,165985.054,165990.5,166001.72,166368.372,,50,that's
screen,html.Screen,2_1_0_1_51,2022-04-27T11:10:09.672Z,,,,,,,,,,,,,,,,,53,,,,,,,,,,,,,,604.7280000238388,,response,,,,99,,,,,,,Space,keypress(Space),,,,,,,,---- -- ----- -- ------ - ------- --- ----------<br>------------- ------ ------ ---- ---- ------- ----- -- ----<br>-------- ------- -- ---------- --- - --- ----- ----- ----<br>---- --- --- ----- --- ---- ---- ------- ----- ---- -------<br>--- --- -- ----- -- --- ---- -- --- ---- -- ------ really<br>--- ----- -- ----,166977.30000001192,166973.10000002384,166351.706,166355,166368.372,166985.471,,51,really
screen,html.Screen,2_1_0_1_52,2022-04-27T11:10:10.026Z,,,,,,,,,,,,,,,,,53,,,,,,,,,,,,,,340.92900003577233,,response,,,,99,,,,,,,Space,keypress(Space),,,,,,,,---- -- ----- -- ------ - ------- --- ----------<br>------------- ------ ------ ---- ---- ------- ----- -- ----<br>-------- ------- -- ---------- --- - --- ----- ----- ----<br>---- --- --- ----- --- ---- ---- ------- ----- ---- -------<br>--- --- -- ----- -- --- ---- -- --- ---- -- ------ ------<br>not ----- -- ----,167331.10000002384,167326.40000003576,166968.805,166977.30000001192,166985.471,167335.457,,52,not
screen,html.Screen,2_1_0_1_53,2022-04-27T11:10:10.385Z,,,,,,,,,,,,,,,,,53,,,,,,,,,,,,,,350.2429999880842,,response,,,,99,,,,,,,Space,keypress(Space),,,,,,,,---- -- ----- -- ------ - ------- --- ----------<br>------------- ------ ------ ---- ---- ------- ----- -- ----<br>-------- ------- -- ---------- --- - --- ----- ----- ----<br>---- --- --- ----- --- ---- ---- ------- ----- ---- -------<br>--- --- -- ----- -- --- ---- -- --- ---- -- ------ ------<br>--- close -- ----,167690.10000002384,167685.69999998808,167318.791,167331.10000002384,167335.457,167702.109,,53,close
screen,html.Screen,2_1_0_1_54,2022-04-27T11:10:10.718Z,,,,,,,,,,,,,,,,,53,,,,,,,,,,,,,,316.4910000238451,,response,,,,99,,,,,,,Space,keypress(Space),,,,,,,,---- -- ----- -- ------ - ------- --- ----------<br>------------- ------ ------ ---- ---- ------- ----- -- ----<br>-------- ------- -- ---------- --- - --- ----- ----- ----<br>---- --- --- ----- --- ---- ---- ------- ----- ---- -------<br>--- --- -- ----- -- --- ---- -- --- ---- -- ------ ------<br>--- ----- at ----,168022.80000001192,168018.60000002384,167685.443,167690.10000002384,167702.109,168035.429,,54,at
screen,html.Screen,2_1_0_1_55,2022-04-27T11:10:11.102Z,,,,,,,,,,,,,,,,,53,,,,,,,,,,,,,,367.17100002383813,,response,,,,99,,,,,,,Space,keypress(Space),,,,,,,,---- -- ----- -- ------ - ------- --- ----------<br>------------- ------ ------ ---- ---- ------- ----- -- ----<br>-------- ------- -- ---------- --- - --- ----- ----- ----<br>---- --- --- ----- --- ---- ---- ------- ----- ---- -------<br>--- --- -- ----- -- --- ---- -- --- ---- -- ------ ------<br>--- ----- -- all.,168407.30000001192,168402.60000002384,168018.763,168022.80000001192,168035.429,168418.747,,55,all.
Item 99,flow.Loop,2_1_0_1,2022-04-27T11:10:11.103Z,,,,,,,,,,,,,,,,,,,,,,,,,,,,,,,22651.000000023836,,completion,,,,,B,,,,,,,,,,,silence,,,,,168407.5,168402.60000002384,145734.934,145736.5,145751.6,168418.747,,,
Question 1,html.Screen,2_1_0_2,2022-04-27T11:10:18.888Z,,,,,,,,,,,,,,,,,,,,,,,,,,,,true,FALSE,,7758.252999999997,,response,,,,99,B,,,,,,FALSE,click #choice-2,,,,silence,,,,,176192.60000002384,176177,168402.081,168407.60000002384,168418.747,176201.769,,,
Question 2,html.Screen,2_1_0_3,2022-04-27T11:10:24.838Z,,,,,,,,,,,,,,,,,,,,,,,,,,,,true,TRUE,,5922.331000023842,,response,,,,99,B,,,,,,TRUE,click #choice-1,,,,silence,,,,,182143.30000001192,182124.10000002384,176185.103,176192.69999998808,176201.769,182151.993,,,
Item 99,flow.Sequence,2_1_0,2022-04-27T11:10:24.838Z,,,,,,,,,,,,,,,,,,,,,,,,,,,,,,,46373.25800002384,,completion,,,,,,,,,,,,,,,,,,,,,182143.60000002384,182124.10000002384,135734.176,135745.10000002384,135750.842,182151.993,,,
Holding screen,html.Screen,2_1_1_0,2022-04-27T11:10:34.831Z,,,,,,,,,,,,,,,,,,,,,,,,,,,,,,,10000.09600000002,,timeout,,,,,,,,,,,,,,,,,,,,,192136.19999998808,192135.423,182135.327,182143.60000002384,182151.993,192152.089,,,
screen,html.Screen,2_1_1_1_0,2022-04-27T11:10:35.442Z,,,,,,,,,,,,,,,,,54,,,,,,,,,,,,,,590.8110000357556,,response,,,,100,,,,,,,Space,keypress(Space),,,,,,,,At --- ---- --- ------ ----- ------- ---- -- --- ------- --<br>------- ---------- ------ -- ----- -- ----- -- ---- ------<br>--- ----- --- --- ------ -------- ----- --- ------ ----- --<br>----- ----- ---------- --- --- ------ ------ ---- -- ------<br>------- --- ------ ----- --- ---- ------- -- ---- --- --<br>------- ------,192747.5,192742.90000003576,192135.423,192136.30000001192,192152.089,192752.065,,0,At
screen,html.Screen,2_1_1_1_1,2022-04-27T11:10:35.739Z,,,,,,,,,,,,,,,,,54,,,,,,,,,,,,,,288.03500002383953,,response,,,,100,,,,,,,Space,keypress(Space),,,,,,,,-- the ---- --- ------ ----- ------- ---- -- --- ------- --<br>------- ---------- ------ -- ----- -- ----- -- ---- ------<br>--- ----- --- --- ------ -------- ----- --- ------ ----- --<br>----- ----- ---------- --- --- ------ ------ ---- -- ------<br>------- --- ------ ----- --- ---- ------- -- ---- --- --<br>------- ------,193044.30000001192,193040.10000002384,192735.399,192747.60000002384,192752.065,193052.053,,1,the
screen,html.Screen,2_1_1_1_2,2022-04-27T11:10:36.027Z,,,,,,,,,,,,,,,,,54,,,,,,,,,,,,,,275.94699999998556,,response,,,,100,,,,,,,Space,keypress(Space),,,,,,,,-- --- time --- ------ ----- ------- ---- -- --- ------- --<br>------- ---------- ------ -- ----- -- ----- -- ---- ------<br>--- ----- --- --- ------ -------- ----- --- ------ ----- --<br>----- ----- ---------- --- --- ------ ------ ---- -- ------<br>------- --- ------ ----- --- ---- ------- -- ---- --- --<br>------- ------,193332.40000003576,193328,193035.387,193044.40000003576,193052.053,193335.375,,2,time
screen,html.Screen,2_1_1_1_3,2022-04-27T11:10:36.315Z,,,,,,,,,,,,,,,,,54,,,,,,,,,,,,,,279.92500001192093,,response,,,,100,,,,,,,Space,keypress(Space),,,,,,,,-- --- ---- the ------ ----- ------- ---- -- --- ------- --<br>------- ---------- ------ -- ----- -- ----- -- ---- ------<br>--- ----- --- --- ------ -------- ----- --- ------ ----- --<br>----- ----- ---------- --- --- ------ ------ ---- -- ------<br>------- --- ------ ----- --- ---- ------- -- ---- --- --<br>------- ------,193619.80000001192,193615.30000001192,193318.709,193332.5,193335.375,193635.363,,3,the
screen,html.Screen,2_1_1_1_4,2022-04-27T11:10:36.602Z,,,,,,,,,,,,,,,,,54,,,,,,,,,,,,,,267.83699998806696,,response,,,,100,,,,,,,Space,keypress(Space),,,,,,,,-- --- ---- --- French ----- ------- ---- -- --- ------- --<br>------- ---------- ------ -- ----- -- ----- -- ---- ------<br>--- ----- --- --- ------ -------- ----- --- ------ ----- --<br>----- ----- ---------- --- --- ------ ------ ---- -- ------<br>------- --- ------ ----- --- ---- ------- -- ---- --- --<br>------- ------,193907.69999998808,193903.19999998808,193618.697,193619.90000003576,193635.363,193918.685,,4,French
screen,html.Screen,2_1_1_1_5,2022-04-27T11:10:36.921Z,,,,,,,,,,,,,,,,,54,,,,,,,,,,,,,,302.8150000000023,,response,,,,100,,,,,,,Space,keypress(Space),,,,,,,,-- --- ---- --- ------ crown ------- ---- -- --- ------- --<br>------- ---------- ------ -- ----- -- ----- -- ---- ------<br>--- ----- --- --- ------ -------- ----- --- ------ ----- --<br>----- ----- ---------- --- --- ------ ------ ---- -- ------<br>------- --- ------ ----- --- ---- ------- -- ---- --- --<br>------- ------,194225.90000003576,194221.5,193902.019,193907.69999998808,193918.685,194235.339,,5,crown
screen,html.Screen,2_1_1_1_6,2022-04-27T11:10:37.274Z,,,,,,,,,,,,,,,,,54,,,,,,,,,,,,,,339.26100002383464,,response,,,,100,,,,,,,Space,keypress(Space),,,,,,,,-- --- ---- --- ------ ----- secured ---- -- --- ------- --<br>------- ---------- ------ -- ----- -- ----- -- ---- ------<br>--- ----- --- --- ------ -------- ----- --- ------ ----- --<br>----- ----- ---------- --- --- ------ ------ ---- -- ------<br>------- --- ------ ----- --- ---- ------- -- ---- --- --<br>------- ------,194579,194574.60000002384,194218.673,194225.90000003576,194235.339,194585.325,,6,secured
screen,html.Screen,2_1_1_1_7,2022-04-27T11:10:37.636Z,,,,,,,,,,,,,,,,,54,,,,,,,,,,,,,,351.9750000119093,,response,,,,100,,,,,,,Space,keypress(Space),,,,,,,,-- --- ---- --- ------ ----- ------- much -- --- ------- --<br>------- ---------- ------ -- ----- -- ----- -- ---- ------<br>--- ----- --- --- ------ -------- ----- --- ------ ----- --<br>----- ----- ---------- --- --- ------ ------ ---- -- ------<br>------- --- ------ ----- --- ---- ------- -- ---- --- --<br>------- ------,194941.60000002384,194937.30000001192,194568.659,194579.10000002384,194585.325,194951.977,,7,much
screen,html.Screen,2_1_1_1_8,2022-04-27T11:10:38.046Z,,,,,,,,,,,,,,,,,54,,,,,,,,,,,,,,394.4230000357493,,response,,,,100,,,,,,,Space,keypress(Space),,,,,,,,-- --- ---- --- ------ ----- ------- ---- of --- ------- --<br>------- ---------- ------ -- ----- -- ----- -- ---- ------<br>--- ----- --- --- ------ -------- ----- --- ------ ----- --<br>----- ----- ---------- --- --- ------ ------ ---- -- ------<br>------- --- ------ ----- --- ---- ------- -- ---- --- --<br>------- ------,195351.10000002384,195346.40000003576,194935.311,194941.69999998808,194951.977,195351.961,,8,of
screen,html.Screen,2_1_1_1_9,2022-04-27T11:10:38.364Z,,,,,,,,,,,,,,,,,54,,,,,,,,,,,,,,312.7389999880688,,response,,,,100,,,,,,,Space,keypress(Space),,,,,,,,-- --- ---- --- ------ ----- ------- ---- -- its ------- --<br>------- ---------- ------ -- ----- -- ----- -- ---- ------<br>--- ----- --- --- ------ -------- ----- --- ------ ----- --<br>----- ----- ---------- --- --- ------ ------ ---- -- ------<br>------- --- ------ ----- --- ---- ------- -- ---- --- --<br>------- ------,195668.90000003576,195664.69999998808,195335.295,195351.10000002384,195351.961,195685.281,,9,its
screen,html.Screen,2_1_1_1_10,2022-04-27T11:10:38.707Z,,,,,,,,,,,,,,,,,54,,,,,,,,,,,,,,324.11900003577466,,response,,,,100,,,,,,,Space,keypress(Space),,,,,,,,-- --- ---- --- ------ ----- ------- ---- -- --- revenue --<br>------- ---------- ------ -- ----- -- ----- -- ---- ------<br>--- ----- --- --- ------ -------- ----- --- ------ ----- --<br>----- ----- ---------- --- --- ------ ------ ---- -- ------<br>------- --- ------ ----- --- ---- ------- -- ---- --- --<br>------- ------,196011.90000003576,196009.40000003576,195668.615,195669,195685.281,196018.601,,10,revenue
screen,html.Screen,2_1_1_1_11,2022-04-27T11:10:39.098Z,,,,,,,,,,,,,,,,,54,,,,,,,,,,,,,,380.1990000119258,,response,,,,100,,,,,,,Space,keypress(Space),,,,,,,,-- --- ---- --- ------ ----- ------- ---- -- --- ------- by<br>------- ---------- ------ -- ----- -- ----- -- ---- ------<br>--- ----- --- --- ------ -------- ----- --- ------ ----- --<br>----- ----- ---------- --- --- ------ ------ ---- -- ------<br>------- --- ------ ----- --- ---- ------- -- ---- --- --<br>------- ------,196403.30000001192,196398.80000001192,196001.935,196012,196018.601,196418.585,,11,by
screen,html.Screen,2_1_1_1_12,2022-04-27T11:10:39.518Z,,,,,,,,,,,,,,,,,54,,,,,,,,,,,,,,399.81500003577094,,response,,,,100,,,,,,,Space,keypress(Space),,,,,,,,-- --- ---- --- ------ ----- ------- ---- -- --- ------- --<br>issuing ---------- ------ -- ----- -- ----- -- ---- ------<br>--- ----- --- --- ------ -------- ----- --- ------ ----- --<br>----- ----- ---------- --- --- ------ ------ ---- -- ------<br>------- --- ------ ----- --- ---- ------- -- ---- --- --<br>------- ------,196822.80000001192,196818.40000003576,196401.919,196403.40000003576,196418.585,196835.235,,12,issuing
screen,html.Screen,2_1_1_1_13,2022-04-27T11:10:39.916Z,,,,,,,,,,,,,,,,,54,,,,,,,,,,,,,,381.46499998809304,,response,,,,100,,,,,,,Space,keypress(Space),,,,,,,,-- --- ---- --- ------ ----- ------- ---- -- --- ------- --<br>------- government ------ -- ----- -- ----- -- ---- ------<br>--- ----- --- --- ------ -------- ----- --- ------ ----- --<br>----- ----- ---------- --- --- ------ ------ ---- -- ------<br>------- --- ------ ----- --- ---- ------- -- ---- --- --<br>------- ------,197221.19999998808,197216.69999998808,196818.569,196822.90000003576,196835.235,197235.219,,13,government
screen,html.Screen,2_1_1_1_14,2022-04-27T11:10:40.308Z,,,,,,,,,,,,,,,,,54,,,,,,,,,,,,,,373.38100002383,,response,,,,100,,,,,,,Space,keypress(Space),,,,,,,,-- --- ---- --- ------ ----- ------- ---- -- --- ------- --<br>------- ---------- bonds. -- ----- -- ----- -- ---- ------<br>--- ----- --- --- ------ -------- ----- --- ------ ----- --<br>----- ----- ---------- --- --- ------ ------ ---- -- ------<br>------- --- ------ ----- --- ---- ------- -- ---- --- --<br>------- ------,197613.10000002384,197608.60000002384,197218.553,197221.30000001192,197235.219,197618.537,,14,bonds.
screen,html.Screen,2_1_1_1_15,2022-04-27T11:10:40.694Z,,,,,,,,,,,,,,,,,54,,,,,,,,,,,,,,376.4629999999888,,response,,,,100,,,,,,,Space,keypress(Space),,,,,,,,-- --- ---- --- ------ ----- ------- ---- -- --- ------- --<br>------- ---------- ------ In ----- -- ----- -- ---- ------<br>--- ----- --- --- ------ -------- ----- --- ------ ----- --<br>----- ----- ---------- --- --- ------ ------ ---- -- ------<br>------- --- ------ ----- --- ---- ------- -- ---- --- --<br>------- ------,197999.40000003576,197995,197601.871,197613.10000002384,197618.537,198002.312,,15,In
screen,html.Screen,2_1_1_1_16,2022-04-27T11:10:41.046Z,,,,,,,,,,,,,,,,,54,,,,,,,,,,,,,,344.68799999999464,,response,,,,100,,,,,,,Space,keypress(Space),,,,,,,,"-- --- ---- --- ------ ----- ------- ---- -- --- ------- --<br>------- ---------- ------ -- 1727, -- ----- -- ---- ------<br>--- ----- --- --- ------ -------- ----- --- ------ ----- --<br>----- ----- ---------- --- --- ------ ------ ---- -- ------<br>------- --- ------ ----- --- ---- ------- -- ---- --- --<br>------- ------",198351.40000003576,198347,197985.646,197999.40000003576,198002.312,198352.298,,16,"1727,"
screen,html.Screen,2_1_1_1_17,2022-04-27T11:10:41.516Z,,,,,,,,,,,,,,,,,54,,,,,,,,,,,,,,464.3020000238321,,response,,,,100,,,,,,,Space,keypress(Space),,,,,,,,-- --- ---- --- ------ ----- ------- ---- -- --- ------- --<br>------- ---------- ------ -- ----- in ----- -- ---- ------<br>--- ----- --- --- ------ -------- ----- --- ------ ----- --<br>----- ----- ---------- --- --- ------ ------ ---- -- ------<br>------- --- ------ ----- --- ---- ------- -- ---- --- --<br>------- ------,198821.10000002384,198816.60000002384,198335.632,198351.40000003576,198352.298,198835.612,,17,in
screen,html.Screen,2_1_1_1_18,2022-04-27T11:10:42.075Z,,,,,,,,,,,,,,,,,54,,,,,,,,,,,,,,540.4880000238481,,response,,,,100,,,,,,,Space,keypress(Space),,,,,,,,-- --- ---- --- ------ ----- ------- ---- -- --- ------- --<br>------- ---------- ------ -- ----- -- order -- ---- ------<br>--- ----- --- --- ------ -------- ----- --- ------ ----- --<br>----- ----- ---------- --- --- ------ ------ ---- -- ------<br>------- --- ------ ----- --- ---- ------- -- ---- --- --<br>------- ------,199380.69999998808,199376.10000002384,198818.946,198821.19999998808,198835.612,199385.59,,18,order
screen,html.Screen,2_1_1_1_19,2022-04-27T11:10:42.455Z,,,,,,,,,,,,,,,,,54,,,,,,,,,,,,,,369.9100000000035,,response,,,,100,,,,,,,Space,keypress(Space),,,,,,,,-- --- ---- --- ------ ----- ------- ---- -- --- ------- --<br>------- ---------- ------ -- ----- -- ----- to ---- ------<br>--- ----- --- --- ------ -------- ----- --- ------ ----- --<br>----- ----- ---------- --- --- ------ ------ ---- -- ------<br>------- --- ------ ----- --- ---- ------- -- ---- --- --<br>------- ------,199759.80000001192,199755.5,199368.924,199380.69999998808,199385.59,199768.908,,19,to
screen,html.Screen,2_1_1_1_20,2022-04-27T11:10:42.806Z,,,,,,,,,,,,,,,,,54,,,,,,,,,,,,,,339.19200002384605,,response,,,,100,,,,,,,Space,keypress(Space),,,,,,,,-- --- ---- --- ------ ----- ------- ---- -- --- ------- --<br>------- ---------- ------ -- ----- -- ----- -- save ------<br>--- ----- --- --- ------ -------- ----- --- ------ ----- --<br>----- ----- ---------- --- --- ------ ------ ---- -- ------<br>------- --- ------ ----- --- ---- ------- -- ---- --- --<br>------- ------,200110.69999998808,200108.10000002384,199752.242,199759.90000003576,199768.908,200118.894,,20,save
screen,html.Screen,2_1_1_1_21,2022-04-27T11:10:43.203Z,,,,,,,,,,,,,,,,,54,,,,,,,,,,,,,,385.00600003576255,,response,,,,100,,,,,,,Space,keypress(Space),,,,,,,,"-- --- ---- --- ------ ----- ------- ---- -- --- ------- --<br>------- ---------- ------ -- ----- -- ----- -- ---- money,<br>--- ----- --- --- ------ -------- ----- --- ------ ----- --<br>----- ----- ---------- --- --- ------ ------ ---- -- ------<br>------- --- ------ ----- --- ---- ------- -- ---- --- --<br>------- ------",200508.30000001192,200503.90000003576,200102.228,200110.80000001192,200118.894,200518.878,,21,"money,"
screen,html.Screen,2_1_1_1_22,2022-04-27T11:10:43.574Z,,,,,,,,,,,,,,,,,54,,,,,,,,,,,,,,357.622000000003,,response,,,,100,,,,,,,Space,keypress(Space),,,,,,,,-- --- ---- --- ------ ----- ------- ---- -- --- ------- --<br>------- ---------- ------ -- ----- -- ----- -- ---- ------<br>the ----- --- --- ------ -------- ----- --- ------ ----- --<br>----- ----- ---------- --- --- ------ ------ ---- -- ------<br>------- --- ------ ----- --- ---- ------- -- ---- --- --<br>------- ------,200879.30000001192,200876.5,200502.212,200508.30000001192,200518.878,200885.53,,22,the
screen,html.Screen,2_1_1_1_23,2022-04-27T11:10:43.929Z,,,,,,,,,,,,,,,,,54,,,,,,,,,,,,,,343.97000000000116,,response,,,,100,,,,,,,Space,keypress(Space),,,,,,,,-- --- ---- --- ------ ----- ------- ---- -- --- ------- --<br>------- ---------- ------ -- ----- -- ----- -- ---- ------<br>--- state --- --- ------ -------- ----- --- ------ ----- --<br>----- ----- ---------- --- --- ------ ------ ---- -- ------<br>------- --- ------ ----- --- ---- ------- -- ---- --- --<br>------- ------,201234,201229.5,200868.864,200879.40000003576,200885.53,201235.516,,23,state
screen,html.Screen,2_1_1_1_24,2022-04-27T11:10:44.317Z,,,,,,,,,,,,,,,,,54,,,,,,,,,,,,,,382.6839999880758,,response,,,,100,,,,,,,Space,keypress(Space),,,,,,,,-- --- ---- --- ------ ----- ------- ---- -- --- ------- --<br>------- ---------- ------ -- ----- -- ----- -- ---- ------<br>--- ----- cut --- ------ -------- ----- --- ------ ----- --<br>----- ----- ---------- --- --- ------ ------ ---- -- ------<br>------- --- ------ ----- --- ---- ------- -- ---- --- --<br>------- ------,201621.80000001192,201618.19999998808,201218.85,201234.10000002384,201235.516,201635.5,,24,cut
screen,html.Screen,2_1_1_1_25,2022-04-27T11:10:44.689Z,,,,,,,,,,,,,,,,,54,,,,,,,,,,,,,,354.60000002384186,,response,,,,100,,,,,,,Space,keypress(Space),,,,,,,,-- --- ---- --- ------ ----- ------- ---- -- --- ------- --<br>------- ---------- ------ -- ----- -- ----- -- ---- ------<br>--- ----- --- the ------ -------- ----- --- ------ ----- --<br>----- ----- ---------- --- --- ------ ------ ---- -- ------<br>------- --- ------ ----- --- ---- ------- -- ---- --- --<br>------- ------,201994.69999998808,201990.10000002384,201618.834,201621.90000003576,201635.5,202002.152,,25,the
screen,html.Screen,2_1_1_1_26,2022-04-27T11:10:45.019Z,,,,,,,,,,,,,,,,,54,,,,,,,,,,,,,,318.0479999880772,,response,,,,100,,,,,,,Space,keypress(Space),,,,,,,,-- --- ---- --- ------ ----- ------- ---- -- --- ------- --<br>------- ---------- ------ -- ----- -- ----- -- ---- ------<br>--- ----- --- --- bonds' -------- ----- --- ------ ----- --<br>----- ----- ---------- --- --- ------ ------ ---- -- ------<br>------- --- ------ ----- --- ---- ------- -- ---- --- --<br>------- ------,202324.69999998808,202320.19999998808,201985.486,201994.69999998808,202002.152,202335.472,,26,bonds'
screen,html.Screen,2_1_1_1_27,2022-04-27T11:10:45.360Z,,,,,,,,,,,,,,,,,54,,,,,,,,,,,,,,324.628000023833,,response,,,,100,,,,,,,Space,keypress(Space),,,,,,,,-- --- ---- --- ------ ----- ------- ---- -- --- ------- --<br>------- ---------- ------ -- ----- -- ----- -- ---- ------<br>--- ----- --- --- ------ interest ----- --- ------ ----- --<br>----- ----- ---------- --- --- ------ ------ ---- -- ------<br>------- --- ------ ----- --- ---- ------- -- ---- --- --<br>------- ------,202664.80000001192,202660.10000002384,202318.806,202324.69999998808,202335.472,202668.792,,27,interest
screen,html.Screen,2_1_1_1_28,2022-04-27T11:10:45.753Z,,,,,,,,,,,,,,,,,54,,,,,,,,,,,,,,384.40799998809234,,response,,,,100,,,,,,,Space,keypress(Space),,,,,,,,-- --- ---- --- ------ ----- ------- ---- -- --- ------- --<br>------- ---------- ------ -- ----- -- ----- -- ---- ------<br>--- ----- --- --- ------ -------- rate. --- ------ ----- --<br>----- ----- ---------- --- --- ------ ------ ---- -- ------<br>------- --- ------ ----- --- ---- ------- -- ---- --- --<br>------- ------,203058.30000001192,203053.19999998808,202652.126,202664.90000003576,202668.792,203068.776,,28,rate.
screen,html.Screen,2_1_1_1_29,2022-04-27T11:10:46.168Z,,,,,,,,,,,,,,,,,54,,,,,,,,,,,,,,399.52400001190836,,response,,,,100,,,,,,,Space,keypress(Space),,,,,,,,-- --- ---- --- ------ ----- ------- ---- -- --- ------- --<br>------- ---------- ------ -- ----- -- ----- -- ---- ------<br>--- ----- --- --- ------ -------- ----- The ------ ----- --<br>----- ----- ---------- --- --- ------ ------ ---- -- ------<br>------- --- ------ ----- --- ---- ------- -- ---- --- --<br>------- ------,203472.90000003576,203468.30000001192,203052.11,203058.40000003576,203068.776,203485.426,,29,The
screen,html.Screen,2_1_1_1_30,2022-04-27T11:10:46.543Z,,,,,,,,,,,,,,,,,54,,,,,,,,,,,,,,358.07399999999325,,response,,,,100,,,,,,,Space,keypress(Space),,,,,,,,-- --- ---- --- ------ ----- ------- ---- -- --- ------- --<br>------- ---------- ------ -- ----- -- ----- -- ---- ------<br>--- ----- --- --- ------ -------- ----- --- market ----- --<br>----- ----- ---------- --- --- ------ ------ ---- -- ------<br>------- --- ------ ----- --- ---- ------- -- ---- --- --<br>------- ------,203848.10000002384,203843.5,203468.76,203473,203485.426,203852.078,,30,market
screen,html.Screen,2_1_1_1_31,2022-04-27T11:10:46.905Z,,,,,,,,,,,,,,,,,54,,,,,,,,,,,,,,354.3220000357542,,response,,,,100,,,,,,,Space,keypress(Space),,,,,,,,-- --- ---- --- ------ ----- ------- ---- -- --- ------- --<br>------- ---------- ------ -- ----- -- ----- -- ---- ------<br>--- ----- --- --- ------ -------- ----- --- ------ value --<br>----- ----- ---------- --- --- ------ ------ ---- -- ------<br>------- --- ------ ----- --- ---- ------- -- ---- --- --<br>------- ------,204210.80000001192,204206.40000003576,203835.412,203848.19999998808,203852.078,204218.73,,31,value
screen,html.Screen,2_1_1_1_32,2022-04-27T11:10:47.523Z,,,,,,,,,,,,,,,,,54,,,,,,,,,,,,,,605.1700000357523,,response,,,,100,,,,,,,Space,keypress(Space),,,,,,,,-- --- ---- --- ------ ----- ------- ---- -- --- ------- --<br>------- ---------- ------ -- ----- -- ----- -- ---- ------<br>--- ----- --- --- ------ -------- ----- --- ------ ----- of<br>----- ----- ---------- --- --- ------ ------ ---- -- ------<br>------- --- ------ ----- --- ---- ------- -- ---- --- --<br>------- ------,204828.10000002384,204823.90000003576,204202.064,204210.80000001192,204218.73,204835.372,,32,of
screen,html.Screen,2_1_1_1_33,2022-04-27T11:10:47.858Z,,,,,,,,,,,,,,,,,54,,,,,,,,,,,,,,323.02800003575976,,response,,,,100,,,,,,,Space,keypress(Space),,,,,,,,-- --- ---- --- ------ ----- ------- ---- -- --- ------- --<br>------- ---------- ------ -- ----- -- ----- -- ---- ------<br>--- ----- --- --- ------ -------- ----- --- ------ ----- --<br>these ----- ---------- --- --- ------ ------ ---- -- ------<br>------- --- ------ ----- --- ---- ------- -- ---- --- --<br>------- ------,205162.80000001192,205158.40000003576,204818.706,204828.10000002384,204835.372,205168.692,,33,these
screen,html.Screen,2_1_1_1_34,2022-04-27T11:10:48.208Z,,,,,,,,,,,,,,,,,54,,,,,,,,,,,,,,340.2080000357528,,response,,,,100,,,,,,,Space,keypress(Space),,,,,,,,-- --- ---- --- ------ ----- ------- ---- -- --- ------- --<br>------- ---------- ------ -- ----- -- ----- -- ---- ------<br>--- ----- --- --- ------ -------- ----- --- ------ ----- --<br>----- bonds ---------- --- --- ------ ------ ---- -- ------<br>------- --- ------ ----- --- ---- ------- -- ---- --- --<br>------- ------,205513.60000002384,205508.90000003576,205152.026,205162.80000001192,205168.692,205518.678,,34,bonds
screen,html.Screen,2_1_1_1_35,2022-04-27T11:10:48.595Z,,,,,,,,,,,,,,,,,54,,,,,,,,,,,,,,377.02199998806464,,response,,,,100,,,,,,,Space,keypress(Space),,,,,,,,"-- --- ---- --- ------ ----- ------- ---- -- --- ------- --<br>------- ---------- ------ -- ----- -- ----- -- ---- ------<br>--- ----- --- --- ------ -------- ----- --- ------ ----- --<br>----- ----- plummeted, --- --- ------ ------ ---- -- ------<br>------- --- ------ ----- --- ---- ------- -- ---- --- --<br>------- ------",205900.19999998808,205895.69999998808,205502.012,205513.69999998808,205518.678,205901.996,,35,"plummeted,"
screen,html.Screen,2_1_1_1_36,2022-04-27T11:10:48.987Z,,,,,,,,,,,,,,,,,54,,,,,,,,,,,,,,386.1040000238281,,response,,,,100,,,,,,,Space,keypress(Space),,,,,,,,-- --- ---- --- ------ ----- ------- ---- -- --- ------- --<br>------- ---------- ------ -- ----- -- ----- -- ---- ------<br>--- ----- --- --- ------ -------- ----- --- ------ ----- --<br>----- ----- ---------- and --- ------ ------ ---- -- ------<br>------- --- ------ ----- --- ---- ------- -- ---- --- --<br>------- ------,206292.60000002384,206288.10000002384,205885.33,205900.30000001192,205901.996,206301.98,,36,and
screen,html.Screen,2_1_1_1_37,2022-04-27T11:10:49.322Z,,,,,,,,,,,,,,,,,54,,,,,,,,,,,,,,321.1200000238314,,response,,,,100,,,,,,,Space,keypress(Space),,,,,,,,-- --- ---- --- ------ ----- ------- ---- -- --- ------- --<br>------- ---------- ------ -- ----- -- ----- -- ---- ------<br>--- ----- --- --- ------ -------- ----- --- ------ ----- --<br>----- ----- ---------- --- the ------ ------ ---- -- ------<br>------- --- ------ ----- --- ---- ------- -- ---- --- --<br>------- ------,206627.40000003576,206623.10000002384,206285.314,206292.60000002384,206301.98,206635.3,,37,the
screen,html.Screen,2_1_1_1_38,2022-04-27T11:10:49.684Z,,,,,,,,,,,,,,,,,54,,,,,,,,,,,,,,349.6000000357744,,response,,,,100,,,,,,,Space,keypress(Space),,,,,,,,-- --- ---- --- ------ ----- ------- ---- -- --- ------- --<br>------- ---------- ------ -- ----- -- ----- -- ---- ------<br>--- ----- --- --- ------ -------- ----- --- ------ ----- --<br>----- ----- ---------- --- --- market ------ ---- -- ------<br>------- --- ------ ----- --- ---- ------- -- ---- --- --<br>------- ------,206989.60000002384,206984.90000003576,206618.634,206627.5,206635.3,207001.952,,38,market
screen,html.Screen,2_1_1_1_39,2022-04-27T11:10:50.097Z,,,,,,,,,,,,,,,,,54,,,,,,,,,,,,,,396.44800003577257,,response,,,,100,,,,,,,Space,keypress(Space),,,,,,,,-- --- ---- --- ------ ----- ------- ---- -- --- ------- --<br>------- ---------- ------ -- ----- -- ----- -- ---- ------<br>--- ----- --- --- ------ -------- ----- --- ------ ----- --<br>----- ----- ---------- --- --- ------ became ---- -- ------<br>------- --- ------ ----- --- ---- ------- -- ---- --- --<br>------- ------,207402.19999998808,207398.40000003576,206985.286,206989.69999998808,207001.952,207418.602,,39,became
screen,html.Screen,2_1_1_1_40,2022-04-27T11:10:50.459Z,,,,,,,,,,,,,,,,,54,,,,,,,,,,,,,,341.3979999999865,,response,,,,100,,,,,,,Space,keypress(Space),,,,,,,,-- --- ---- --- ------ ----- ------- ---- -- --- ------- --<br>------- ---------- ------ -- ----- -- ----- -- ---- ------<br>--- ----- --- --- ------ -------- ----- --- ------ ----- --<br>----- ----- ---------- --- --- ------ ------ wary -- ------<br>------- --- ------ ----- --- ---- ------- -- ---- --- --<br>------- ------,207764.5,207760,207401.936,207402.30000001192,207418.602,207768.588,,40,wary
screen,html.Screen,2_1_1_1_41,2022-04-27T11:10:50.859Z,,,,,,,,,,,,,,,,,54,,,,,,,,,,,,,,391.4120000000112,,response,,,,100,,,,,,,Space,keypress(Space),,,,,,,,-- --- ---- --- ------ ----- ------- ---- -- --- ------- --<br>------- ---------- ------ -- ----- -- ----- -- ---- ------<br>--- ----- --- --- ------ -------- ----- --- ------ ----- --<br>----- ----- ---------- --- --- ------ ------ ---- of ------<br>------- --- ------ ----- --- ---- ------- -- ---- --- --<br>------- ------,208164.5,208160,207751.922,207764.69999998808,207768.588,208169.033,,41,of
screen,html.Screen,2_1_1_1_42,2022-04-27T11:10:51.213Z,,,,,,,,,,,,,,,,,54,,,,,,,,,,,,,,345.2670000119251,,response,,,,100,,,,,,,Space,keypress(Space),,,,,,,,-- --- ---- --- ------ ----- ------- ---- -- --- ------- --<br>------- ---------- ------ -- ----- -- ----- -- ---- ------<br>--- ----- --- --- ------ -------- ----- --- ------ ----- --<br>----- ----- ---------- --- --- ------ ------ ---- -- French<br>------- --- ------ ----- --- ---- ------- -- ---- --- --<br>------- ------,208518.30000001192,208514.30000001192,208152.367,208164.60000002384,208169.033,208519.019,,42,French
screen,html.Screen,2_1_1_1_43,2022-04-27T11:10:51.572Z,,,,,,,,,,,,,,,,,54,,,,,,,,,,,,,,354.0810000238416,,response,,,,100,,,,,,,Space,keypress(Space),,,,,,,,-- --- ---- --- ------ ----- ------- ---- -- --- ------- --<br>------- ---------- ------ -- ----- -- ----- -- ---- ------<br>--- ----- --- --- ------ -------- ----- --- ------ ----- --<br>----- ----- ---------- --- --- ------ ------ ---- -- ------<br>credit. --- ------ ----- --- ---- ------- -- ---- --- --<br>------- ------,208877.30000001192,208873.10000002384,208502.353,208518.40000003576,208519.019,208885.671,,43,credit.
screen,html.Screen,2_1_1_1_44,2022-04-27T11:10:51.967Z,,,,,,,,,,,,,,,,,54,,,,,,,,,,,,,,381.92900002383976,,response,,,,100,,,,,,,Space,keypress(Space),,,,,,,,-- --- ---- --- ------ ----- ------- ---- -- --- ------- --<br>------- ---------- ------ -- ----- -- ----- -- ---- ------<br>--- ----- --- --- ------ -------- ----- --- ------ ----- --<br>----- ----- ---------- --- --- ------ ------ ---- -- ------<br>------- The ------ ----- --- ---- ------- -- ---- --- --<br>------- ------,209272.10000002384,209267.60000002384,208869.005,208877.30000001192,208885.671,209285.655,,44,The
screen,html.Screen,2_1_1_1_45,2022-04-27T11:10:52.346Z,,,,,,,,,,,,,,,,,54,,,,,,,,,,,,,,361.74500003576395,,response,,,,100,,,,,,,Space,keypress(Space),,,,,,,,-- --- ---- --- ------ ----- ------- ---- -- --- ------- --<br>------- ---------- ------ -- ----- -- ----- -- ---- ------<br>--- ----- --- --- ------ -------- ----- --- ------ ----- --<br>----- ----- ---------- --- --- ------ ------ ---- -- ------<br>------- --- French ----- --- ---- ------- -- ---- --- --<br>------- ------,209651.80000001192,209647.40000003576,209268.989,209272.19999998808,209285.655,209668.973,,45,French
screen,html.Screen,2_1_1_1_46,2022-04-27T11:10:52.776Z,,,,,,,,,,,,,,,,,54,,,,,,,,,,,,,,407.52700000000186,,response,,,,100,,,,,,,Space,keypress(Space),,,,,,,,-- --- ---- --- ------ ----- ------- ---- -- --- ------- --<br>------- ---------- ------ -- ----- -- ----- -- ---- ------<br>--- ----- --- --- ------ -------- ----- --- ------ ----- --<br>----- ----- ---------- --- --- ------ ------ ---- -- ------<br>------- --- ------ state --- ---- ------- -- ---- --- --<br>------- ------,210081,210076.5,209652.307,209651.90000003576,209668.973,210085.623,,46,state
screen,html.Screen,2_1_1_1_47,2022-04-27T11:10:53.196Z,,,,,,,,,,,,,,,,,54,,,,,,,,,,,,,,411.47700002384954,,response,,,,100,,,,,,,Space,keypress(Space),,,,,,,,-- --- ---- --- ------ ----- ------- ---- -- --- ------- --<br>------- ---------- ------ -- ----- -- ----- -- ---- ------<br>--- ----- --- --- ------ -------- ----- --- ------ ----- --<br>----- ----- ---------- --- --- ------ ------ ---- -- ------<br>------- --- ------ ----- was ---- ------- -- ---- --- --<br>------- ------,210501.69999998808,210497.10000002384,210068.957,210081.10000002384,210085.623,210502.273,,47,was
screen,html.Screen,2_1_1_1_48,2022-04-27T11:10:53.564Z,,,,,,,,,,,,,,,,,54,,,,,,,,,,,,,,362.6270000357763,,response,,,,100,,,,,,,Space,keypress(Space),,,,,,,,-- --- ---- --- ------ ----- ------- ---- -- --- ------- --<br>------- ---------- ------ -- ----- -- ----- -- ---- ------<br>--- ----- --- --- ------ -------- ----- --- ------ ----- --<br>----- ----- ---------- --- --- ------ ------ ---- -- ------<br>------- --- ------ ----- --- left ------- -- ---- --- --<br>------- ------,210869.60000002384,210864.90000003576,210485.607,210501.69999998808,210502.273,210885.591,,48,left
screen,html.Screen,2_1_1_1_49,2022-04-27T11:10:53.946Z,,,,,,,,,,,,,,,,,54,,,,,,,,,,,,,,361.809000035777,,response,,,,100,,,,,,,Space,keypress(Space),,,,,,,,-- --- ---- --- ------ ----- ------- ---- -- --- ------- --<br>------- ---------- ------ -- ----- -- ----- -- ---- ------<br>--- ----- --- --- ------ -------- ----- --- ------ ----- --<br>----- ----- ---------- --- --- ------ ------ ---- -- ------<br>------- --- ------ ----- --- ---- without -- ---- --- --<br>------- ------,211251.80000001192,211247.40000003576,210868.925,210869.69999998808,210885.591,211268.909,,49,without
screen,html.Screen,2_1_1_1_50,2022-04-27T11:10:54.312Z,,,,,,,,,,,,,,,,,54,,,,,,,,,,,,,,343.9910000357486,,response,,,,100,,,,,,,Space,keypress(Space),,,,,,,,-- --- ---- --- ------ ----- ------- ---- -- --- ------- --<br>------- ---------- ------ -- ----- -- ----- -- ---- ------<br>--- ----- --- --- ------ -------- ----- --- ------ ----- --<br>----- ----- ---------- --- --- ------ ------ ---- -- ------<br>------- --- ------ ----- --- ---- ------- an ---- --- --<br>------- ------,211617.40000003576,211612.90000003576,211252.243,211251.90000003576,211268.909,211618.895,,50,an
screen,html.Screen,2_1_1_1_51,2022-04-27T11:10:54.638Z,,,,,,,,,,,,,,,,,54,,,,,,,,,,,,,,319.6050000000105,,response,,,,100,,,,,,,Space,keypress(Space),,,,,,,,-- --- ---- --- ------ ----- ------- ---- -- --- ------- --<br>------- ---------- ------ -- ----- -- ----- -- ---- ------<br>--- ----- --- --- ------ -------- ----- --- ------ ----- --<br>----- ----- ---------- --- --- ------ ------ ---- -- ------<br>------- --- ------ ----- --- ---- ------- -- easy --- --<br>------- ------,211943,211938.5,211602.229,211617.5,211618.895,211952.215,,51,easy
screen,html.Screen,2_1_1_1_52,2022-04-27T11:10:54.996Z,,,,,,,,,,,,,,,,,54,,,,,,,,,,,,,,344.48499998808256,,response,,,,100,,,,,,,Space,keypress(Space),,,,,,,,-- --- ---- --- ------ ----- ------- ---- -- --- ------- --<br>------- ---------- ------ -- ----- -- ----- -- ---- ------<br>--- ----- --- --- ------ -------- ----- --- ------ ----- --<br>----- ----- ---------- --- --- ------ ------ ---- -- ------<br>------- --- ------ ----- --- ---- ------- -- ---- way --<br>------- ------,212301.19999998808,212296.69999998808,211935.549,211943.10000002384,211952.215,212302.201,,52,way
screen,html.Screen,2_1_1_1_53,2022-04-27T11:10:55.346Z,,,,,,,,,,,,,,,,,54,,,,,,,,,,,,,,345.49899998807814,,response,,,,100,,,,,,,Space,keypress(Space),,,,,,,,-- --- ---- --- ------ ----- ------- ---- -- --- ------- --<br>------- ---------- ------ -- ----- -- ----- -- ---- ------<br>--- ----- --- --- ------ -------- ----- --- ------ ----- --<br>----- ----- ---------- --- --- ------ ------ ---- -- ------<br>------- --- ------ ----- --- ---- ------- -- ---- --- of<br>------- ------,212651.60000002384,212647.69999998808,212285.535,212301.30000001192,212302.201,212652.187,,53,of
screen,html.Screen,2_1_1_1_54,2022-04-27T11:10:55.963Z,,,,,,,,,,,,,,,,,54,,,,,,,,,,,,,,611.1130000119156,,response,,,,100,,,,,,,Space,keypress(Space),,,,,,,,-- --- ---- --- ------ ----- ------- ---- -- --- ------- --<br>------- ---------- ------ -- ----- -- ----- -- ---- ------<br>--- ----- --- --- ------ -------- ----- --- ------ ----- --<br>----- ----- ---------- --- --- ------ ------ ---- -- ------<br>------- --- ------ ----- --- ---- ------- -- ---- --- --<br>raising ------,213268.10000002384,213263.30000001192,212635.521,212651.69999998808,212652.187,213268.829,,54,raising
screen,html.Screen,2_1_1_1_55,2022-04-27T11:10:56.394Z,,,,,,,,,,,,,,,,,54,,,,,,,,,,,,,,427.27100002384395,,response,,,,100,,,,,,,Space,keypress(Space),,,,,,,,-- --- ---- --- ------ ----- ------- ---- -- --- ------- --<br>------- ---------- ------ -- ----- -- ----- -- ---- ------<br>--- ----- --- --- ------ -------- ----- --- ------ ----- --<br>----- ----- ---------- --- --- ------ ------ ---- -- ------<br>------- --- ------ ----- --- ---- ------- -- ---- --- --<br>------- money.,213699.69999998808,213696.10000002384,213252.163,213268.19999998808,213268.829,213702.145,,55,money.
Item 100,flow.Loop,2_1_1_1,2022-04-27T11:10:56.395Z,,,,,,,,,,,,,,,,,,,,,,,,,,,,,,,21544.011000023835,,completion,,,,,B,,,,,,,,,,,silence,,,,,213699.90000003576,213696.10000002384,192135.423,192136.30000001192,192152.089,213702.145,,,
Question 1,html.Screen,2_1_1_2,2022-04-27T11:10:58.371Z,,,,,,,,,,,,,,,,,,,,,,,,,,,,true,TRUE,,1953.6550000119314,,response,,,,100,B,,,,,,TRUE,click #choice-1,,,,silence,,,,,215676.60000002384,215655.80000001192,213685.479,213699.90000003576,213702.145,215685.399,,,
Question 2,html.Screen,2_1_1_3,2022-04-27T11:11:00.371Z,,,,,,,,,,,,,,,,,,,,,,,,,,,,true,FALSE,,1970.501000035758,,response,,,,100,B,,,,,,FALSE,click #choice-2,,,,silence,,,,,217676.19999998808,217655.90000003576,215668.733,215676.60000002384,215685.399,217685.319,,,
Item 100,flow.Sequence,2_1_1,2022-04-27T11:11:00.371Z,,,,,,,,,,,,,,,,,,,,,,,,,,,,,,,35503.907000035775,,completion,,,,,,,,,,,,,,,,,,,,,217676.30000001192,217655.90000003576,182135.327,182143.60000002384,182151.993,217685.319,,,
End of Practice,html.Page,2_1_2,2022-04-27T11:11:07.555Z,,,,,,,,,,,,,,,,,,,,,,,,,,,,,,,7174.3809999880905,,form submission,,,,,,,,,,,,,,,,,,,,,224860.30000001192,224859.69999998808,217668.653,217676.40000003576,217685.319,224868.83,,,
Practice,flow.Sequence,2_1,2022-04-27T11:11:07.555Z,,,,,,,,,,,,,,,,,,,,,,,,,,,,,,,89108.85799998807,,completion,,,,,,,,,,,,,,,,,,,,,224860.5,224859.69999998808,135734.176,135745,135750.842,224868.83,,,
Trap_instruction,html.Page,2_2_0,2022-04-27T11:11:13.821Z,,,,,,,,,,,,,,,,,,,,,,,,,,,,,,,6257.470000011934,,form submission,,,,,,,,,,,,,,,,,,,,,231126.5,231126.30000001192,224852.164,224860.60000002384,224868.83,231135.246,,,
trap_trial,html.Screen,2_2_1,2022-04-27T11:11:16.838Z,,,,,,,,,,,,,,,,,,,,,,,,,,,,true,1,,2990.154000035749,,response,,,,,,,,,,,1,click #choice-1,,,,,,,,,234143.30000001192,234125.40000003576,231118.58,231126.60000002384,231135.246,234152.403,,,
end of trap trial,html.Page,2_2_2,2022-04-27T11:11:18.655Z,,,,,,,,,,,,,,,,,,,,,,,,,,,,,,,1807.8970000119298,,form submission,,,,,,,,,,,,,,,,,,,,,235960.90000003576,235960.30000001192,234135.737,234143.40000003576,234152.403,235985.663,,,
Trap 1,flow.Sequence,2_2,2022-04-27T11:11:18.655Z,,,,,,,,,,,,,,,,,,,,,,,,,,,,,,,11091.470000011934,,completion,,,,,,,,,,,,,,,,,,,,,235961.10000002384,235960.30000001192,224852.164,224860.60000002384,224868.83,235985.663,,,
Standby,html.Page,2_3_0,2022-04-27T11:11:26.664Z,,,,,,,,,,,,,,,,,,,,,,,,,,,,,,,7999.679999999993,,timeout,,,,,,,,,,,,,,,,,,,,,243969.69999998808,243968.677,235968.997,235961.10000002384,235985.663,243985.343,,,
Holding screen,html.Screen,2_3_1_0_0,2022-04-27T11:11:33.664Z,,,,,,,,,,,,,,,,,,,,,,,,,,,,,,,7000.3000000000175,,timeout,,,,,,,,,,,,,,,,,,,,,250969.80000001192,250968.977,243968.677,243969.90000003576,243985.343,250985.643,,,
screen,html.Screen,2_3_1_0_1_0,2022-04-27T11:11:40.665Z,,,,,,,,,,,,,,,,,51,,,,,,,,,,,,,,6999.720000000001,,timeout,,,,13,B,,,,,,,,,,,lyrical,,,,American -------- --- --- ---- --- --- ------ -- --------<br>---- --------- --- ------- ------------ ---------- ---------<br>--- ---------- ------- ---------- ------- -- -------- ----<br>---- --- ------ ----- ------ -- ---- --- ----- -- - -------<br>-------- -- --- --- -- ----- ----------- ----- -----------<br>---- --- ---------- --- ---- --- -- ----------,257970.5,257968.697,250968.977,250970.10000002384,250985.643,257985.363,,0,American
screen,html.Screen,2_3_1_0_1_1,2022-04-27T11:11:42.892Z,,,,,,,,,,,,,,,,,51,,,,,,,,,,,,,,2207.836999988067,,response,,,,13,B,,,,,,Space,keypress(Space),,,,lyrical,,,,-------- industry --- --- ---- --- --- ------ -- --------<br>---- --------- --- ------- ------------ ---------- ---------<br>--- ---------- ------- ---------- ------- -- -------- ----<br>---- --- ------ ----- ------ -- ---- --- ----- -- - -------<br>-------- -- --- --- -- ----- ----------- ----- -----------<br>---- --- ---------- --- ---- --- -- ----------,260198.30000001192,260193.19999998808,257968.697,257970.69999998808,257985.363,260201.941,,1,industry
screen,html.Screen,2_3_1_0_1_2,2022-04-27T11:11:43.356Z,,,,,,,,,,,,,,,,,51,,,,,,,,,,,,,,455.0590000000084,,response,,,,13,B,,,,,,Space,keypress(Space),,,,lyrical,,,,-------- -------- may --- ---- --- --- ------ -- --------<br>---- --------- --- ------- ------------ ---------- ---------<br>--- ---------- ------- ---------- ------- -- -------- ----<br>---- --- ------ ----- ------ -- ---- --- ----- -- - -------<br>-------- -- --- --- -- ----- ----------- ----- -----------<br>---- --- ---------- --- ---- --- -- ----------,260661.60000002384,260657,260185.275,260198.40000003576,260201.941,260669.224,,2,may
screen,html.Screen,2_3_1_0_1_3,2022-04-27T11:11:43.852Z,,,,,,,,,,,,,,,,,51,,,,,,,,,,,,,,484.0760000119335,,response,,,,13,B,,,,,,Space,keypress(Space),,,,lyrical,,,,-------- -------- --- not ---- --- --- ------ -- --------<br>---- --------- --- ------- ------------ ---------- ---------<br>--- ---------- ------- ---------- ------- -- -------- ----<br>---- --- ------ ----- ------ -- ---- --- ----- -- - -------<br>-------- -- --- --- -- ----- ----------- ----- -----------<br>---- --- ---------- --- ---- --- -- ----------,261157.90000003576,261153.30000001192,260652.558,260661.69999998808,260669.224,261169.204,,3,not
screen,html.Screen,2_3_1_0_1_4,2022-04-27T11:11:44.353Z,,,,,,,,,,,,,,,,,51,,,,,,,,,,,,,,485.1960000357649,,response,,,,13,B,,,,,,Space,keypress(Space),,,,lyrical,,,,-------- -------- --- --- know --- --- ------ -- --------<br>---- --------- --- ------- ------------ ---------- ---------<br>--- ---------- ------- ---------- ------- -- -------- ----<br>---- --- ------ ----- ------ -- ---- --- ----- -- - -------<br>-------- -- --- --- -- ----- ----------- ----- -----------<br>---- --- ---------- --- ---- --- -- ----------,261658.90000003576,261654.40000003576,261152.538,261158,261169.204,261669.184,,4,know
screen,html.Screen,2_3_1_0_1_5,2022-04-27T11:11:44.754Z,,,,,,,,,,,,,,,,,51,,,,,,,,,,,,,,386.5159999880707,,response,,,,13,B,,,,,,Space,keypress(Space),,,,lyrical,,,,"-------- -------- --- --- ---- it, --- ------ -- --------<br>---- --------- --- ------- ------------ ---------- ---------<br>--- ---------- ------- ---------- ------- -- -------- ----<br>---- --- ------ ----- ------ -- ---- --- ----- -- - -------<br>-------- -- --- --- -- ----- ----------- ----- -----------<br>---- --- ---------- --- ---- --- -- ----------",262060.10000002384,262055.69999998808,261652.518,261659,261669.184,262069.168,,5,"it,"
screen,html.Screen,2_3_1_0_1_6,2022-04-27T11:11:45.232Z,,,,,,,,,,,,,,,,,51,,,,,,,,,,,,,,464.43200002383674,,response,,,,13,B,,,,,,Space,keypress(Space),,,,lyrical,,,,-------- -------- --- --- ---- --- but ------ -- --------<br>---- --------- --- ------- ------------ ---------- ---------<br>--- ---------- ------- ---------- ------- -- -------- ----<br>---- --- ------ ----- ------ -- ---- --- ----- -- - -------<br>-------- -- --- --- -- ----- ----------- ----- -----------<br>---- --- ---------- --- ---- --- -- ----------,262538,262533.60000002384,262052.502,262060.30000001192,262069.168,262552.482,,6,but
screen,html.Screen,2_3_1_0_1_7,2022-04-27T11:11:45.708Z,,,,,,,,,,,,,,,,,51,,,,,,,,,,,,,,456.9180000357446,,response,,,,13,B,,,,,,Space,keypress(Space),,,,lyrical,,,,-------- -------- --- --- ---- --- --- debate -- --------<br>---- --------- --- ------- ------------ ---------- ---------<br>--- ---------- ------- ---------- ------- -- -------- ----<br>---- --- ------ ----- ------ -- ---- --- ----- -- - -------<br>-------- -- --- --- -- ----- ----------- ----- -----------<br>---- --- ---------- --- ---- --- -- ----------,263014,263009.40000003576,262535.816,262538.10000002384,262552.482,263019.13,,7,debate
screen,html.Screen,2_3_1_0_1_8,2022-04-27T11:11:46.103Z,,,,,,,,,,,,,,,,,51,,,,,,,,,,,,,,385.6700000119163,,response,,,,13,B,,,,,,Space,keypress(Space),,,,lyrical,,,,-------- -------- --- --- ---- --- --- ------ in --------<br>---- --------- --- ------- ------------ ---------- ---------<br>--- ---------- ------- ---------- ------- -- -------- ----<br>---- --- ------ ----- ------ -- ---- --- ----- -- - -------<br>-------- -- --- --- -- ----- ----------- ----- -----------<br>---- --- ---------- --- ---- --- -- ----------,263408.6999999881,263404.8000000119,263002.464,263014.10000002384,263019.13,263419.114,,8,in
screen,html.Screen,2_3_1_0_1_9,2022-04-27T11:11:46.573Z,,,,,,,,,,,,,,,,,51,,,,,,,,,,,,,,455.7860000357614,,response,,,,13,B,,,,,,Space,keypress(Space),,,,lyrical,,,,-------- -------- --- --- ---- --- --- ------ -- Congress<br>---- --------- --- ------- ------------ ---------- ---------<br>--- ---------- ------- ---------- ------- -- -------- ----<br>---- --- ------ ----- ------ -- ---- --- ----- -- - -------<br>-------- -- --- --- -- ----- ----------- ----- -----------<br>---- --- ---------- --- ---- --- -- ----------,263879.1999999881,263874.90000003576,263402.448,263408.8000000119,263419.114,263885.762,,9,Congress
screen,html.Screen,2_3_1_0_1_10,2022-04-27T11:11:46.982Z,,,,,,,,,,,,,,,,,51,,,,,,,,,,,,,,397.4379999880912,,response,,,,13,B,,,,,,Space,keypress(Space),,,,lyrical,,,,-------- -------- --- --- ---- --- --- ------ -- --------<br>over --------- --- ------- ------------ ---------- ---------<br>--- ---------- ------- ---------- ------- -- -------- ----<br>---- --- ------ ----- ------ -- ---- --- ----- -- - -------<br>-------- -- --- --- -- ----- ----------- ----- -----------<br>---- --- ---------- --- ---- --- -- ----------,264287.8000000119,264283.1999999881,263869.096,263879.1999999881,263885.762,264302.412,,10,over
screen,html.Screen,2_3_1_0_1_11,2022-04-27T11:11:47.516Z,,,,,,,,,,,,,,,,,51,,,,,,,,,,,,,,514.4880000357516,,response,,,,13,B,,,,,,Space,keypress(Space),,,,lyrical,,,,-------- -------- --- --- ---- --- --- ------ -- --------<br>---- reforming --- ------- ------------ ---------- ---------<br>--- ---------- ------- ---------- ------- -- -------- ----<br>---- --- ------ ----- ------ -- ---- --- ----- -- - -------<br>-------- -- --- --- -- ----- ----------- ----- -----------<br>---- --- ---------- --- ---- --- -- ----------,264821.3000000119,264816.90000003576,264285.746,264287.8000000119,264302.412,264835.724,,11,reforming
screen,html.Screen,2_3_1_0_1_12,2022-04-27T11:11:48.179Z,,,,,,,,,,,,,,,,,51,,,,,,,,,,,,,,645.4759999880916,,response,,,,13,B,,,,,,Space,keypress(Space),,,,lyrical,,,,-------- -------- --- --- ---- --- --- ------ -- --------<br>---- --------- the ------- ------------ ---------- ---------<br>--- ---------- ------- ---------- ------- -- -------- ----<br>---- --- ------ ----- ------ -- ---- --- ----- -- - -------<br>-------- -- --- --- -- ----- ----------- ----- -----------<br>---- --- ---------- --- ---- --- -- ----------,265485,265481.1999999881,264819.058,264821.40000003576,264835.724,265485.698,,12,the
screen,html.Screen,2_3_1_0_1_13,2022-04-27T11:11:48.555Z,,,,,,,,,,,,,,,,,51,,,,,,,,,,,,,,370.70200003578793,,response,,,,13,B,,,,,,Space,keypress(Space),,,,lyrical,,,,-------- -------- --- --- ---- --- --- ------ -- --------<br>---- --------- --- federal ------------ ---------- ---------<br>--- ---------- ------- ---------- ------- -- -------- ----<br>---- --- ------ ----- ------ -- ---- --- ----- -- - -------<br>-------- -- --- --- -- ----- ----------- ----- -----------<br>---- --- ---------- --- ---- --- -- ----------,265860.5,265856.40000003576,265469.032,265485.10000002384,265485.698,265869.016,,13,federal
screen,html.Screen,2_3_1_0_1_14,2022-04-27T11:11:51.659Z,,,,,,,,,,,,,,,,,51,,,,,,,,,,,,,,3091.8840000357595,,response,,,,13,B,,,,,,Space,keypress(Space),,,,lyrical,,,,-------- -------- --- --- ---- --- --- ------ -- --------<br>---- --------- --- ------- government's ---------- ---------<br>--- ---------- ------- ---------- ------- -- -------- ----<br>---- --- ------ ----- ------ -- ---- --- ----- -- - -------<br>-------- -- --- --- -- ----- ----------- ----- -----------<br>---- --- ---------- --- ---- --- -- ----------,268964.6999999881,268960.90000003576,265852.35,265860.60000002384,265869.016,268968.892,,14,government's
screen,html.Screen,2_3_1_0_1_15,2022-04-27T11:11:52.259Z,,,,,,,,,,,,,,,,,51,,,,,,,,,,,,,,591.7080000238493,,response,,,,13,B,,,,,,Space,keypress(Space),,,,lyrical,,,,-------- -------- --- --- ---- --- --- ------ -- --------<br>---- --------- --- ------- ------------ regulatory ---------<br>--- ---------- ------- ---------- ------- -- -------- ----<br>---- --- ------ ----- ------ -- ---- --- ----- -- - -------<br>-------- -- --- --- -- ----- ----------- ----- -----------<br>---- --- ---------- --- ---- --- -- ----------,269565.1999999881,269560.60000002384,268952.226,268964.8000000119,268968.892,269568.868,,15,regulatory
screen,html.Screen,2_3_1_0_1_16,2022-04-27T11:11:52.850Z,,,,,,,,,,,,,,,,,51,,,,,,,,,,,,,,583.1319999999832,,response,,,,13,B,,,,,,Space,keypress(Space),,,,lyrical,,,,-------- -------- --- --- ---- --- --- ------ -- --------<br>---- --------- --- ------- ------------ ---------- apparatus<br>--- ---------- ------- ---------- ------- -- -------- ----<br>---- --- ------ ----- ------ -- ---- --- ----- -- - -------<br>-------- -- --- --- -- ----- ----------- ----- -----------<br>---- --- ---------- --- ---- --- -- ----------,270156.10000002384,270152,269552.202,269565.3000000119,269568.868,270169.341,,16,apparatus
screen,html.Screen,2_3_1_0_1_17,2022-04-27T11:11:53.640Z,,,,,,,,,,,,,,,,,51,,,,,,,,,,,,,,771.3589999880642,,response,,,,13,B,,,,,,Space,keypress(Space),,,,lyrical,,,,-------- -------- --- --- ---- --- --- ------ -- --------<br>---- --------- --- ------- ------------ ---------- ---------<br>may ---------- ------- ---------- ------- -- -------- ----<br>---- --- ------ ----- ------ -- ---- --- ----- -- - -------<br>-------- -- --- --- -- ----- ----------- ----- -----------<br>---- --- ---------- --- ---- --- -- ----------,270945.60000002384,270940.6999999881,270152.675,270156.1999999881,270169.341,270952.643,,17,may
screen,html.Screen,2_3_1_0_1_18,2022-04-27T11:11:54.114Z,,,,,,,,,,,,,,,,,51,,,,,,,,,,,,,,462.95700002386,,response,,,,13,B,,,,,,Space,keypress(Space),,,,lyrical,,,,-------- -------- --- --- ---- --- --- ------ -- --------<br>---- --------- --- ------- ------------ ---------- ---------<br>--- profoundly ------- ---------- ------- -- -------- ----<br>---- --- ------ ----- ------ -- ---- --- ----- -- - -------<br>-------- -- --- --- -- ----- ----------- ----- -----------<br>---- --- ---------- --- ---- --- -- ----------,271420.3000000119,271415.60000002384,270935.977,270945.6999999881,270952.643,271435.957,,18,profoundly
screen,html.Screen,2_3_1_0_1_19,2022-04-27T11:11:54.605Z,,,,,,,,,,,,,,,,,51,,,,,,,,,,,,,,470.143000023847,,response,,,,13,B,,,,,,Space,keypress(Space),,,,lyrical,,,,-------- -------- --- --- ---- --- --- ------ -- --------<br>---- --------- --- ------- ------------ ---------- ---------<br>--- ---------- improve ---------- ------- -- -------- ----<br>---- --- ------ ----- ------ -- ---- --- ----- -- - -------<br>-------- -- --- --- -- ----- ----------- ----- -----------<br>---- --- ---------- --- ---- --- -- ----------,271910.5,271906.10000002384,271419.291,271420.40000003576,271435.957,271919.271,,19,improve
screen,html.Screen,2_3_1_0_1_20,2022-04-27T11:11:54.989Z,,,,,,,,,,,,,,,,,51,,,,,,,,,,,,,,371.529000011913,,response,,,,13,B,,,,,,Space,keypress(Space),,,,lyrical,,,,-------- -------- --- --- ---- --- --- ------ -- --------<br>---- --------- --- ------- ------------ ---------- ---------<br>--- ---------- ------- companies' ------- -- -------- ----<br>---- --- ------ ----- ------ -- ---- --- ----- -- - -------<br>-------- -- --- --- -- ----- ----------- ----- -----------<br>---- --- ---------- --- ---- --- -- ----------,272294.8000000119,272290.8000000119,271902.605,271910.5,271919.271,272302.589,,20,companies'
screen,html.Screen,2_3_1_0_1_21,2022-04-27T11:11:55.517Z,,,,,,,,,,,,,,,,,51,,,,,,,,,,,,,,515.7110000119428,,response,,,,13,B,,,,,,Space,keypress(Space),,,,lyrical,,,,-------- -------- --- --- ---- --- --- ------ -- --------<br>---- --------- --- ------- ------------ ---------- ---------<br>--- ---------- ------- ---------- ability -- -------- ----<br>---- --- ------ ----- ------ -- ---- --- ----- -- - -------<br>-------- -- --- --- -- ----- ----------- ----- -----------<br>---- --- ---------- --- ---- --- -- ----------,272822.90000003576,272818.3000000119,272285.923,272294.8000000119,272302.589,272835.901,,21,ability
screen,html.Screen,2_3_1_0_1_22,2022-04-27T11:11:55.928Z,,,,,,,,,,,,,,,,,51,,,,,,,,,,,,,,393.4990000357502,,response,,,,13,B,,,,,,Space,keypress(Space),,,,lyrical,,,,-------- -------- --- --- ---- --- --- ------ -- --------<br>---- --------- --- ------- ------------ ---------- ---------<br>--- ---------- ------- ---------- ------- to -------- ----<br>---- --- ------ ----- ------ -- ---- --- ----- -- - -------<br>-------- -- --- --- -- ----- ----------- ----- -----------<br>---- --- ---------- --- ---- --- -- ----------,273233.90000003576,273229.40000003576,272819.235,272823.10000002384,272835.901,273235.885,,22,to
screen,html.Screen,2_3_1_0_1_23,2022-04-27T11:11:56.361Z,,,,,,,,,,,,,,,,,51,,,,,,,,,,,,,,426.31499998806976,,response,,,,13,B,,,,,,Space,keypress(Space),,,,lyrical,,,,-------- -------- --- --- ---- --- --- ------ -- --------<br>---- --------- --- ------- ------------ ---------- ---------<br>--- ---------- ------- ---------- ------- -- survive. ----<br>---- --- ------ ----- ------ -- ---- --- ----- -- - -------<br>-------- -- --- --- -- ----- ----------- ----- -----------<br>---- --- ---------- --- ---- --- -- ----------,273666.60000002384,273662.1999999881,273219.219,273234,273235.885,273669.201,,23,survive.
screen,html.Screen,2_3_1_0_1_24,2022-04-27T11:11:56.790Z,,,,,,,,,,,,,,,,,51,,,,,,,,,,,,,,422.19900003576186,,response,,,,13,B,,,,,,Space,keypress(Space),,,,lyrical,,,,-------- -------- --- --- ---- --- --- ------ -- --------<br>---- --------- --- ------- ------------ ---------- ---------<br>--- ---------- ------- ---------- ------- -- -------- This<br>---- --- ------ ----- ------ -- ---- --- ----- -- - -------<br>-------- -- --- --- -- ----- ----------- ----- -----------<br>---- --- ---------- --- ---- --- -- ----------,274095.8000000119,274091.40000003576,273652.535,273666.60000002384,273669.201,274102.517,,24,This
screen,html.Screen,2_3_1_0_1_25,2022-04-27T11:11:57.239Z,,,,,,,,,,,,,,,,,51,,,,,,,,,,,,,,437.5830000238493,,response,,,,13,B,,,,,,Space,keypress(Space),,,,lyrical,,,,-------- -------- --- --- ---- --- --- ------ -- --------<br>---- --------- --- ------- ------------ ---------- ---------<br>--- ---------- ------- ---------- ------- -- -------- ----<br>week --- ------ ----- ------ -- ---- --- ----- -- - -------<br>-------- -- --- --- -- ----- ----------- ----- -----------<br>---- --- ---------- --- ---- --- -- ----------,274544.6999999881,274540.10000002384,274085.851,274095.90000003576,274102.517,274552.499,,25,week
screen,html.Screen,2_3_1_0_1_26,2022-04-27T11:11:57.531Z,,,,,,,,,,,,,,,,,51,,,,,,,,,,,,,,279.70099998806836,,response,,,,13,B,,,,,,Space,keypress(Space),,,,lyrical,,,,-------- -------- --- --- ---- --- --- ------ -- --------<br>---- --------- --- ------- ------------ ---------- ---------<br>--- ---------- ------- ---------- ------- -- -------- ----<br>---- the ------ ----- ------ -- ---- --- ----- -- - -------<br>-------- -- --- --- -- ----- ----------- ----- -----------<br>---- --- ---------- --- ---- --- -- ----------,274836.6999999881,274832.1999999881,274535.833,274544.8000000119,274552.499,274852.487,,26,the
screen,html.Screen,2_3_1_0_1_27,2022-04-27T11:11:57.903Z,,,,,,,,,,,,,,,,,51,,,,,,,,,,,,,,351.71299998805625,,response,,,,13,B,,,,,,Space,keypress(Space),,,,lyrical,,,,-------- -------- --- --- ---- --- --- ------ -- --------<br>---- --------- --- ------- ------------ ---------- ---------<br>--- ---------- ------- ---------- ------- -- -------- ----<br>---- --- Senate ----- ------ -- ---- --- ----- -- - -------<br>-------- -- --- --- -- ----- ----------- ----- -----------<br>---- --- ---------- --- ---- --- -- ----------,275208.8000000119,275204.1999999881,274835.821,274836.8000000119,274852.487,275219.139,,27,Senate
screen,html.Screen,2_3_1_0_1_28,2022-04-27T11:11:58.246Z,,,,,,,,,,,,,,,,,51,,,,,,,,,,,,,,328.66100001189625,,response,,,,13,B,,,,,,Space,keypress(Space),,,,lyrical,,,,-------- -------- --- --- ---- --- --- ------ -- --------<br>---- --------- --- ------- ------------ ---------- ---------<br>--- ---------- ------- ---------- ------- -- -------- ----<br>---- --- ------ seems ------ -- ---- --- ----- -- - -------<br>-------- -- --- --- -- ----- ----------- ----- -----------<br>---- --- ---------- --- ---- --- -- ----------,275552.3000000119,275547.8000000119,275202.473,275208.90000003576,275219.139,275569.125,,28,seems
screen,html.Screen,2_3_1_0_1_29,2022-04-27T11:11:58.655Z,,,,,,,,,,,,,,,,,51,,,,,,,,,,,,,,388.2750000357628,,response,,,,13,B,,,,,,Space,keypress(Space),,,,lyrical,,,,-------- -------- --- --- ---- --- --- ------ -- --------<br>---- --------- --- ------- ------------ ---------- ---------<br>--- ---------- ------- ---------- ------- -- -------- ----<br>---- --- ------ ----- poised -- ---- --- ----- -- - -------<br>-------- -- --- --- -- ----- ----------- ----- -----------<br>---- --- ---------- --- ---- --- -- ----------,275961.40000003576,275957.40000003576,275552.459,275552.3000000119,275569.125,275969.109,,29,poised
screen,html.Screen,2_3_1_0_1_30,2022-04-27T11:11:59.079Z,,,,,,,,,,,,,,,,,51,,,,,,,,,,,,,,411.9910000238451,,response,,,,13,B,,,,,,Space,keypress(Space),,,,lyrical,,,,-------- -------- --- --- ---- --- --- ------ -- --------<br>---- --------- --- ------- ------------ ---------- ---------<br>--- ---------- ------- ---------- ------- -- -------- ----<br>---- --- ------ ----- ------ to ---- --- ----- -- - -------<br>-------- -- --- --- -- ----- ----------- ----- -----------<br>---- --- ---------- --- ---- --- -- ----------,276385,276381.10000002384,275952.443,275961.5,275969.109,276385.759,,30,to
screen,html.Screen,2_3_1_0_1_31,2022-04-27T11:11:59.416Z,,,,,,,,,,,,,,,,,51,,,,,,,,,,,,,,331.64100003574276,,response,,,,13,B,,,,,,Space,keypress(Space),,,,lyrical,,,,-------- -------- --- --- ---- --- --- ------ -- --------<br>---- --------- --- ------- ------------ ---------- ---------<br>--- ---------- ------- ---------- ------- -- -------- ----<br>---- --- ------ ----- ------ -- join --- ----- -- - -------<br>-------- -- --- --- -- ----- ----------- ----- -----------<br>---- --- ---------- --- ---- --- -- ----------,276722.1999999881,276717.40000003576,276369.093,276385.1999999881,276385.759,276735.745,,31,join
screen,html.Screen,2_3_1_0_1_32,2022-04-27T11:11:59.783Z,,,,,,,,,,,,,,,,,51,,,,,,,,,,,,,,349.3550000238465,,response,,,,13,B,,,,,,Space,keypress(Space),,,,lyrical,,,,-------- -------- --- --- ---- --- --- ------ -- --------<br>---- --------- --- ------- ------------ ---------- ---------<br>--- ---------- ------- ---------- ------- -- -------- ----<br>---- --- ------ ----- ------ -- ---- the ----- -- - -------<br>-------- -- --- --- -- ----- ----------- ----- -----------<br>---- --- ---------- --- ---- --- -- ----------,277089.3000000119,277085.10000002384,276719.079,276722.3000000119,276735.745,277102.397,,32,the
screen,html.Screen,2_3_1_0_1_33,2022-04-27T11:12:00.139Z,,,,,,,,,,,,,,,,,51,,,,,,,,,,,,,,337.70300002384465,,response,,,,13,B,,,,,,Space,keypress(Space),,,,lyrical,,,,-------- -------- --- --- ---- --- --- ------ -- --------<br>---- --------- --- ------- ------------ ---------- ---------<br>--- ---------- ------- ---------- ------- -- -------- ----<br>---- --- ------ ----- ------ -- ---- --- House -- - -------<br>-------- -- --- --- -- ----- ----------- ----- -----------<br>---- --- ---------- --- ---- --- -- ----------,277444.5,277440.10000002384,277085.731,277089.40000003576,277102.397,277452.383,,33,House
screen,html.Screen,2_3_1_0_1_34,2022-04-27T11:12:00.489Z,,,,,,,,,,,,,,,,,51,,,,,,,,,,,,,,338.01700003579026,,response,,,,13,B,,,,,,Space,keypress(Space),,,,lyrical,,,,-------- -------- --- --- ---- --- --- ------ -- --------<br>---- --------- --- ------- ------------ ---------- ---------<br>--- ---------- ------- ---------- ------- -- -------- ----<br>---- --- ------ ----- ------ -- ---- --- ----- in - -------<br>-------- -- --- --- -- ----- ----------- ----- -----------<br>---- --- ---------- --- ---- --- -- ----------,277795,277790.40000003576,277435.717,277444.60000002384,277452.383,277802.369,,34,in
screen,html.Screen,2_3_1_0_1_35,2022-04-27T11:12:00.891Z,,,,,,,,,,,,,,,,,51,,,,,,,,,,,,,,390.63099999999395,,response,,,,13,B,,,,,,Space,keypress(Space),,,,lyrical,,,,-------- -------- --- --- ---- --- --- ------ -- --------<br>---- --------- --- ------- ------------ ---------- ---------<br>--- ---------- ------- ---------- ------- -- -------- ----<br>---- --- ------ ----- ------ -- ---- --- ----- -- a -------<br>-------- -- --- --- -- ----- ----------- ----- -----------<br>---- --- ---------- --- ---- --- -- ----------,278197.3000000119,278193,277785.703,277795.10000002384,277802.369,278202.353,,35,a
screen,html.Screen,2_3_1_0_1_36,2022-04-27T11:12:01.327Z,,,,,,,,,,,,,,,,,51,,,,,,,,,,,,,,426.44700001191813,,response,,,,13,B,,,,,,Space,keypress(Space),,,,lyrical,,,,-------- -------- --- --- ---- --- --- ------ -- --------<br>---- --------- --- ------- ------------ ---------- ---------<br>--- ---------- ------- ---------- ------- -- -------- ----<br>---- --- ------ ----- ------ -- ---- --- ----- -- - massive<br>-------- -- --- --- -- ----- ----------- ----- -----------<br>---- --- ---------- --- ---- --- -- ----------,278633.3000000119,278628.8000000119,278185.687,278197.5,278202.353,278635.669,,36,massive
screen,html.Screen,2_3_1_0_1_37,2022-04-27T11:12:01.895Z,,,,,,,,,,,,,,,,,51,,,,,,,,,,,,,,560.6310000119265,,response,,,,13,B,,,,,,Space,keypress(Space),,,,lyrical,,,,-------- -------- --- --- ---- --- --- ------ -- --------<br>---- --------- --- ------- ------------ ---------- ---------<br>--- ---------- ------- ---------- ------- -- -------- ----<br>---- --- ------ ----- ------ -- ---- --- ----- -- - -------<br>overhaul -- --- --- -- ----- ----------- ----- -----------<br>---- --- ---------- --- ---- --- -- ----------,279200.6999999881,279196.3000000119,278619.003,278633.40000003576,278635.669,279202.313,,37,overhaul
screen,html.Screen,2_3_1_0_1_38,2022-04-27T11:12:02.281Z,,,,,,,,,,,,,,,,,51,,,,,,,,,,,,,,381.18699999997625,,response,,,,13,B,,,,,,Space,keypress(Space),,,,lyrical,,,,-------- -------- --- --- ---- --- --- ------ -- --------<br>---- --------- --- ------- ------------ ---------- ---------<br>--- ---------- ------- ---------- ------- -- -------- ----<br>---- --- ------ ----- ------ -- ---- --- ----- -- - -------<br>-------- of --- --- -- ----- ----------- ----- -----------<br>---- --- ---------- --- ---- --- -- ----------,279587.1999999881,279583.5,279185.647,279200.8000000119,279202.313,279602.297,,38,of
