sender,sender_type,sender_id,timestamp,meta,,Blues,Classical,Country,Dance,Electronic,Folk,Gospel,Hip-Hop,Jazz,Latin,Musical/Film,New-age,Pop,Prolific_id,Provo_ID,R&B,Rap,Reggae,Religious,Rock,Soul,Swing,Traditional,age,artist_name,correct,correctResponse,distraction,duration,education,ended_on,familiarity,gender,headphone_check_performance,item,list,music_frequency,offensiveness,pleasantness,position_correct,preference,response,response_action,snippet_file,song_name,song_rating,sound,stimulus_1,stimulus_2,stimulus_3,text,time_commit,time_end,time_render,time_run,time_show,time_switch,url,word,word_ID
Prolific ID,html.Form,0,2022-05-02T13:52:32.997Z,"{""labjs_version"":""20.2.2"",""labjs_build"":{""flavor"":""production"",""commit"":""a25486e0c714a0ae2ce03ff94b7bb6896854dcfa""},""location"":""https://run.pavlovia.org/mvasilev/prolific3_music_g/"",""userAgent"":""Mozilla/5.0 (Windows NT 10.0; Win64; x64) AppleWebKit/537.36 (KHTML, like Gecko) Chrome/100.0.4896.127 Safari/537.36"",""platform"":""Win32"",""language"":""en-GB"",""locale"":""en-GB"",""timeZone"":""Europe/London"",""timezoneOffset"":-60,""screen_width"":1536,""screen_height"":864,""scroll_width"":1536,""scroll_height"":706,""window_innerWidth"":1536,""window_innerHeight"":754,""devicePixelRatio"":1.25}",,,,,,,,,,,,,,,61f2ad60a09e72f23cbaf86d,,,,,,,,,,,,,,,4957.326999964237,,form submission,,,,,,,,,,,,,,,,,,,,,12386,12385.599999964237,7394.991,7408.099999964237,7428.273,12392.641,{},,
Introduction,html.Screen,1_0,2022-05-02T13:52:35.972Z,,,,,,,,,,,,,,,,,,,,,,,,,,,,,,,2966.9589999642376,,response,,,,,,,,,,,continue,click button,,,,,,,,,15360.399999976158,15359.599999964237,12376.079,12386.300000011921,12392.641,15374.62,,,
Volume calibration,html.Screen,1_1,2022-05-02T13:53:04.734Z,,,,,,,,,,,,,,,,,,,,,,,,,,,,,,,28744.68000001192,,response,,,,,,,,,,,continue,click button,,,,,,,,,44122.69999998808,44119.30000001192,15358.113,15360.5,15374.62,44128.219,,,
Task instructions,html.Screen,1_2,2022-05-02T13:53:09.372Z,,,,,,,,,,,,,,,,,,,,,,,,,,,,,,,4631.38099996424,,response,,,,,,,,,,,continue,click button,,,,,,,,,48760.39999997616,48759.59999996424,44111.59,44122.80000001192,44128.219,48776.101,,,
Sounds,html.Screen,1_3_0_0,2022-05-02T13:53:13.630Z,,,,,,,,,,,,,,,,,,,,,,,,,,,,,,,4248.119999999995,,timeout,,,,,,,,,1,,,,,,,,S,I,O,,53018.59999996424,53007.631,48759.515,48760.59999996424,48776.101,53024.221,,,
Judgement,html.Screen,1_3_0_1,2022-05-02T13:53:14.548Z,,,,,,,,,,,,,,,,,,,,,,,,,,,,true,1,,911.2790000000023,,response,,,,,,,,,1,,1,click #choice-1,,,,,S,I,O,,53936.39999997616,53935.5,53007.631,53018.89999997616,53024.221,53940.417,,,
Trial,flow.Sequence,1_3_0,2022-05-02T13:53:14.548Z,,,,,,,,,,,,,,,,,,,,,,,,,,,,,,,5159.398999999998,,completion,,,,,,,,,1,,,,,,,,S,I,O,,53936.59999996424,53935.5,48759.515,48760.5,48776.101,53940.417,,,
Sounds,html.Screen,1_3_1_0,2022-05-02T13:53:18.784Z,,,,,,,,,,,,,,,,,,,,,,,,,,,,,,,4248.125999999997,,timeout,,,,,,,,,1,,,,,,,,S,O,I,,58173,58171.903,53923.871,53936.69999998808,53940.417,58188.543,,,
Judgement,html.Screen,1_3_1_1,2022-05-02T13:53:19.220Z,,,,,,,,,,,,,,,,,,,,,,,,,,,,true,1,,418.95700000000215,,response,,,,,,,,,1,,1,click #choice-1,,,,,S,O,I,,58608.5,58607.5,58171.903,58173.30000001192,58188.543,58621.65,,,
Trial,flow.Sequence,1_3_1,2022-05-02T13:53:19.220Z,,,,,,,,,,,,,,,,,,,,,,,,,,,,,,,4667.082999999999,,completion,,,,,,,,,1,,,,,,,,S,O,I,,58608.69999998808,58607.5,53923.871,53936.69999998808,53940.417,58621.65,,,
Sounds,html.Screen,1_3_2_0,2022-05-02T13:53:23.465Z,,,,,,,,,,,,,,,,,,,,,,,,,,,,,,,4248.152999999998,,timeout,,,,,,,,,3,,,,,,,,O,I,S,,62854.30000001192,62853.066,58605.085,58608.80000001192,58621.65,62869.803,,,
Judgement,html.Screen,1_3_2_1,2022-05-02T13:53:23.819Z,,,,,,,,,,,,,,,,,,,,,,,,,,,,true,3,,337.6970000000001,,response,,,,,,,,,3,,3,click #choice-3,,,,,O,I,S,,63208.30000001192,63207.5,62853.066,62854.59999996424,62869.803,63236.252,,,
Trial,flow.Sequence,1_3_2,2022-05-02T13:53:23.819Z,,,,,,,,,,,,,,,,,,,,,,,,,,,,,,,4585.8499999999985,,completion,,,,,,,,,3,,,,,,,,O,I,S,,63208.5,63207.5,58605.085,58608.80000001192,58621.65,63236.252,,,
Sounds,html.Screen,1_3_3_0,2022-05-02T13:53:28.079Z,,,,,,,,,,,,,,,,,,,,,,,,,,,,,,,4248.0509999999995,,timeout,,,,,,,,,2,,,,,,,,I,S,O,,67468.59999996424,67467.619,63219.615,63208.59999996424,63236.252,67484.303,,,
Judgement,html.Screen,1_3_3_1,2022-05-02T13:53:28.372Z,,,,,,,,,,,,,,,,,,,,,,,,,,,,true,2,,275.79699996423733,,response,,,,,,,,,2,,2,click #choice-2,,,,,I,S,O,,67760.89999997616,67760.09999996424,67467.619,67468.69999998808,67484.303,67784.166,,,
Trial,flow.Sequence,1_3_3,2022-05-02T13:53:28.372Z,,,,,,,,,,,,,,,,,,,,,,,,,,,,,,,4523.847999964237,,completion,,,,,,,,,2,,,,,,,,I,S,O,,67761.09999996424,67760.09999996424,63219.615,63208.5,63236.252,67784.166,,,
Sounds,html.Screen,1_3_4_0,2022-05-02T13:53:32.628Z,,,,,,,,,,,,,,,,,,,,,,,,,,,,,,,4248.1340000000055,,timeout,,,,,,,,,2,,,,,,,,O,S,I,,72016.80000001192,72015.609,67767.533,67761.09999996424,67784.166,72032.3,,,
Judgement,html.Screen,1_3_4_1,2022-05-02T13:53:32.851Z,,,,,,,,,,,,,,,,,,,,,,,,,,,,true,2,,207.39999998807616,,response,,,,,,,,,2,,2,click #choice-2,,,,,O,S,I,,72240.39999997616,72239.69999998808,72015.609,72017,72032.3,72248.818,,,
Trial,flow.Sequence,1_3_4,2022-05-02T13:53:32.851Z,,,,,,,,,,,,,,,,,,,,,,,,,,,,,,,4455.533999988082,,completion,,,,,,,,,2,,,,,,,,O,S,I,,72240.59999996424,72239.69999998808,67767.533,67761.09999996424,67784.166,72248.818,,,
Sounds,html.Screen,1_3_5_0,2022-05-02T13:53:37.092Z,,,,,,,,,,,,,,,,,,,,,,,,,,,,,,,4248.142000000007,,timeout,,,,,,,,,3,,,,,,,,I,O,S,,76481.5,76480.29,72232.221,72240.69999998808,72248.818,76496.96,,,
Judgement,html.Screen,1_3_5_1,2022-05-02T13:53:37.349Z,,,,,,,,,,,,,,,,,,,,,,,,,,,,true,3,,239.84000001191453,,response,,,,,,,,,3,,3,click #choice-3,,,,,I,O,S,,76737.80000001192,76736.80000001192,76480.29,76481.69999998808,76496.96,76746.721,,,
Trial,flow.Sequence,1_3_5,2022-05-02T13:53:37.349Z,,,,,,,,,,,,,,,,,,,,,,,,,,,,,,,4487.982000011922,,completion,,,,,,,,,3,,,,,,,,I,O,S,,76738,76736.80000001192,72232.221,72240.69999998808,72248.818,76746.721,,,
Task,flow.Loop,1_3,2022-05-02T13:53:37.352Z,,,,,,,,,,,,,,,,,,,,,,,,,,,,,,,27960.69900001192,,completion,,,1,,,,,,,,,,,,,,,,,,76741.30000001192,76736.80000001192,48759.515,48760.5,48776.101,76746.721,,,
Trap,html.Screen,1_4,2022-05-02T13:53:37.353Z,,,,,,,,,,,,,,,,,,,,,,,,,,,,,,,NaN,,skipped,,,,,,,,,,,,,,,,,,,,,76742.09999996424,76736.80000001192,,76741.89999997616,,76746.721,,,
Thanks,html.Screen,1_5,2022-05-02T13:53:39.459Z,,,,,,,,,,,,,,,,,,,,,,,,,,,,,,,2100.778999999995,,response,,,,,,,,,,,continue,click button,,,,,,,,,78848.30000001192,78847.5,76730.19,76742.09999996424,76746.721,81311.287,,,
Headphone screening,flow.Sequence,1,2022-05-02T13:53:39.459Z,,,,,,,,,,,,,,,,,,,,,,,,,,,,,,,66454.859,,completion,,,,,,,,,,,,,,,,,,,,,78848.39999997616,78847.5,12376.079,12386.300000011921,12392.641,81311.287,,,
Instructions,html.Page,2_0,2022-05-02T13:53:58.572Z,,,,,,,,,,,,,,,,,,,,,,,,,,,,,,,16649.61299997616,,form submission,,,,,,,,,,,,,,,,,,,,,97961.19999998808,97960.89999997616,81277.958,81312.59999996424,81311.287,97970.36,,,
Holding screen,html.Screen,2_1_0_0,2022-05-02T13:54:08.561Z,,,,,,,,,,,,,,,,,,,,,,,,,,,,,,,10012.210000000006,,timeout,,,,,,,,,,,,,,,,,,,,,107950.30000001192,107949.286,97953.749,97961.19999998808,97970.36,107982.57,,,
screen,html.Screen,2_1_0_1_0,2022-05-02T13:54:09.898Z,,,,,,,,,,,,,,,,,53,,,,,,,,,,,,,,1298.429999999993,,response,,,,99,,,,,,,Space,keypress(Space),,,,,,,,When -- ----- -- ------ - ------- --- ----------<br>------------- ------ ------ ---- ---- ------- ----- -- ----<br>-------- ------- -- ---------- --- - --- ----- ----- ----<br>---- --- --- ----- --- ---- ---- ------- ----- ---- -------<br>--- --- -- ----- -- --- ---- -- --- ---- -- ------ ------<br>--- ----- -- ----,109287,109281,107949.286,107950.59999996424,107982.57,109313.797,,0,When
screen,html.Screen,2_1_0_1_1,2022-05-02T13:54:10.291Z,,,,,,,,,,,,,,,,,53,,,,,,,,,,,,,,364.70299999999406,,response,,,,99,,,,,,,Space,keypress(Space),,,,,,,,---- it ----- -- ------ - ------- --- ----------<br>------------- ------ ------ ---- ---- ------- ----- -- ----<br>-------- ------- -- ---------- --- - --- ----- ----- ----<br>---- --- --- ----- --- ---- ---- ------- ----- ---- -------<br>--- --- -- ----- -- --- ---- -- --- ---- -- ------ ------<br>--- ----- -- ----,109679.89999997616,109678.5,109265.415,109287.39999997616,109313.797,109707.499,,1,it
screen,html.Screen,2_1_0_1_2,2022-05-02T13:54:10.684Z,,,,,,,,,,,,,,,,,53,,,,,,,,,,,,,,363.900999976162,,response,,,,99,,,,,,,Space,keypress(Space),,,,,,,,---- -- comes -- ------ - ------- --- ----------<br>------------- ------ ------ ---- ---- ------- ----- -- ----<br>-------- ------- -- ---------- --- - --- ----- ----- ----<br>---- --- --- ----- --- ---- ---- ------- ----- ---- -------<br>--- --- -- ----- -- --- ---- -- --- ---- -- ------ ------<br>--- ----- -- ----,110072.69999998808,110071.39999997616,109665.236,109680.09999996424,109707.499,110081.619,,2,comes
screen,html.Screen,2_1_0_1_3,2022-05-02T13:54:11.062Z,,,,,,,,,,,,,,,,,53,,,,,,,,,,,,,,368.1810000119149,,response,,,,99,,,,,,,Space,keypress(Space),,,,,,,,---- -- ----- to ------ - ------- --- ----------<br>------------- ------ ------ ---- ---- ------- ----- -- ----<br>-------- ------- -- ---------- --- - --- ----- ----- ----<br>---- --- --- ----- --- ---- ---- ------- ----- ---- -------<br>--- --- -- ----- -- --- ---- -- --- ---- -- ------ ------<br>--- ----- -- ----,110451.30000001192,110449.80000001192,110065.042,110073,110081.619,110464.715,,3,to
screen,html.Screen,2_1_0_1_4,2022-05-02T13:54:11.418Z,,,,,,,,,,,,,,,,,53,,,,,,,,,,,,,,340.7850000000035,,response,,,,99,,,,,,,Space,keypress(Space),,,,,,,,---- -- ----- -- having - ------- --- ----------<br>------------- ------ ------ ---- ---- ------- ----- -- ----<br>-------- ------- -- ---------- --- - --- ----- ----- ----<br>---- --- --- ----- --- ---- ---- ------- ----- ---- -------<br>--- --- -- ----- -- --- ---- -- --- ---- -- ------ ------<br>--- ----- -- ----,110806.80000001192,110805.5,110448.115,110451.59999996424,110464.715,110814.635,,4,having
screen,html.Screen,2_1_0_1_5,2022-05-02T13:54:11.863Z,,,,,,,,,,,,,,,,,53,,,,,,,,,,,,,,436.36500000000524,,response,,,,99,,,,,,,Space,keypress(Space),,,,,,,,---- -- ----- -- ------ a ------- --- ----------<br>------------- ------ ------ ---- ---- ------- ----- -- ----<br>-------- ------- -- ---------- --- - --- ----- ----- ----<br>---- --- --- ----- --- ---- ---- ------- ----- ---- -------<br>--- --- -- ----- -- --- ---- -- --- ---- -- ------ ------<br>--- ----- -- ----,111252.30000001192,111251,110798.052,110807.09999996424,110814.635,111264.428,,5,a
screen,html.Screen,2_1_0_1_6,2022-05-02T13:54:12.233Z,,,,,,,,,,,,,,,,,53,,,,,,,,,,,,,,356.87200001192105,,response,,,,99,,,,,,,Space,keypress(Space),,,,,,,,---- -- ----- -- ------ - lasting --- ----------<br>------------- ------ ------ ---- ---- ------- ----- -- ----<br>-------- ------- -- ---------- --- - --- ----- ----- ----<br>---- --- --- ----- --- ---- ---- ------- ----- ---- -------<br>--- --- -- ----- -- --- ---- -- --- ---- -- ------ ------<br>--- ----- -- ----,111622.59999996424,111621.30000001192,111247.82,111252.59999996424,111264.428,111630.946,,6,lasting
screen,html.Screen,2_1_0_1_7,2022-05-02T13:54:12.597Z,,,,,,,,,,,,,,,,,53,,,,,,,,,,,,,,354.35400001192465,,response,,,,99,,,,,,,Space,keypress(Space),,,,,,,,---- -- ----- -- ------ - ------- and ----------<br>------------- ------ ------ ---- ---- ------- ----- -- ----<br>-------- ------- -- ---------- --- - --- ----- ----- ----<br>---- --- --- ----- --- ---- ---- ------- ----- ---- -------<br>--- --- -- ----- -- --- ---- -- --- ---- -- ------ ------<br>--- ----- -- ----,111986.09999996424,111985.30000001192,111614.347,111622.80000001192,111630.946,111997.419,,7,and
screen,html.Screen,2_1_0_1_8,2022-05-02T13:54:13.081Z,,,,,,,,,,,,,,,,,53,,,,,,,,,,,,,,470.98099997616373,,response,,,,99,,,,,,,Space,keypress(Space),,,,,,,,---- -- ----- -- ------ - ------- --- fulfilling<br>------------- ------ ------ ---- ---- ------- ----- -- ----<br>-------- ------- -- ---------- --- - --- ----- ----- ----<br>---- --- --- ----- --- ---- ---- ------- ----- ---- -------<br>--- --- -- ----- -- --- ---- -- --- ---- -- ------ ------<br>--- ----- -- ----,112469.80000001192,112468.39999997616,111980.845,111986.30000001192,111997.419,112480.581,,8,fulfilling
screen,html.Screen,2_1_0_1_9,2022-05-02T13:54:13.572Z,,,,,,,,,,,,,,,,,53,,,,,,,,,,,,,,479.1189999880735,,response,,,,99,,,,,,,Space,keypress(Space),,,,,,,,"---- -- ----- -- ------ - ------- --- ----------<br>relationship, ------ ------ ---- ---- ------- ----- -- ----<br>-------- ------- -- ---------- --- - --- ----- ----- ----<br>---- --- --- ----- --- ---- ---- ------- ----- ---- -------<br>--- --- -- ----- -- --- ---- -- --- ---- -- ------ ------<br>--- ----- -- ----",112961.19999998808,112959.69999998808,112463.939,112470,112480.581,112963.586,,9,"relationship,"
screen,html.Screen,2_1_0_1_10,2022-05-02T13:54:14.472Z,,,,,,,,,,,,,,,,,53,,,,,,,,,,,,,,895.9140000000043,,response,,,,99,,,,,,,Space,keypress(Space),,,,,,,,---- -- ----- -- ------ - ------- --- ----------<br>------------- common ------ ---- ---- ------- ----- -- ----<br>-------- ------- -- ---------- --- - --- ----- ----- ----<br>---- --- --- ----- --- ---- ---- ------- ----- ---- -------<br>--- --- -- ----- -- --- ---- -- --- ---- -- ------ ------<br>--- ----- -- ----,113860.89999997616,113859.5,112947.007,112961.5,112963.586,113863.175,,10,common
screen,html.Screen,2_1_0_1_11,2022-05-02T13:54:14.867Z,,,,,,,,,,,,,,,,,53,,,,,,,,,,,,,,391.72499997615523,,response,,,,99,,,,,,,Space,keypress(Space),,,,,,,,---- -- ----- -- ------ - ------- --- ----------<br>------------- ------ wisdom ---- ---- ------- ----- -- ----<br>-------- ------- -- ---------- --- - --- ----- ----- ----<br>---- --- --- ----- --- ---- ---- ------- ----- ---- -------<br>--- --- -- ----- -- --- ---- -- --- ---- -- ------ ------<br>--- ----- -- ----,114256.39999997616,114254.89999997616,113846.693,113861.09999996424,113863.175,114263.037,,11,wisdom
screen,html.Screen,2_1_0_1_12,2022-05-02T13:54:15.319Z,,,,,,,,,,,,,,,,,53,,,,,,,,,,,,,,442.8629999761615,,response,,,,99,,,,,,,Space,keypress(Space),,,,,,,,---- -- ----- -- ------ - ------- --- ----------<br>------------- ------ ------ says ---- ------- ----- -- ----<br>-------- ------- -- ---------- --- - --- ----- ----- ----<br>---- --- --- ----- --- ---- ---- ------- ----- ---- -------<br>--- --- -- ----- -- --- ---- -- --- ---- -- ------ ------<br>--- ----- -- ----,114707.59999996424,114705.89999997616,114246.496,114256.59999996424,114263.037,114712.794,,12,says
screen,html.Screen,2_1_0_1_13,2022-05-02T13:54:15.701Z,,,,,,,,,,,,,,,,,53,,,,,,,,,,,,,,375.7060000000056,,response,,,,99,,,,,,,Space,keypress(Space),,,,,,,,---- -- ----- -- ------ - ------- --- ----------<br>------------- ------ ------ ---- that ------- ----- -- ----<br>-------- ------- -- ---------- --- - --- ----- ----- ----<br>---- --- --- ----- --- ---- ---- ------- ----- ---- -------<br>--- --- -- ----- -- --- ---- -- --- ---- -- ------ ------<br>--- ----- -- ----,115089.89999997616,115088.5,114696.254,114707.89999997616,114712.794,115095.993,,13,that
screen,html.Screen,2_1_0_1_14,2022-05-02T13:54:16.120Z,,,,,,,,,,,,,,,,,53,,,,,,,,,,,,,,411.606999964235,,response,,,,99,,,,,,,Space,keypress(Space),,,,,,,,---- -- ----- -- ------ - ------- --- ----------<br>------------- ------ ------ ---- ---- feeling ----- -- ----<br>-------- ------- -- ---------- --- - --- ----- ----- ----<br>---- --- --- ----- --- ---- ---- ------- ----- ---- -------<br>--- --- -- ----- -- --- ---- -- --- ---- -- ------ ------<br>--- ----- -- ----,115509.19999998808,115507.59999996424,115079.452,115090.09999996424,115095.993,115512.471,,14,feeling
screen,html.Screen,2_1_0_1_15,2022-05-02T13:54:16.519Z,,,,,,,,,,,,,,,,,53,,,,,,,,,,,,,,394.42899997615314,,response,,,,99,,,,,,,Space,keypress(Space),,,,,,,,---- -- ----- -- ------ - ------- --- ----------<br>------------- ------ ------ ---- ---- ------- close -- ----<br>-------- ------- -- ---------- --- - --- ----- ----- ----<br>---- --- --- ----- --- ---- ---- ------- ----- ---- -------<br>--- --- -- ----- -- --- ---- -- --- ---- -- ------ ------<br>--- ----- -- ----,115908.5,115906.89999997616,115495.922,115509.5,115512.471,115912.302,,15,close
screen,html.Screen,2_1_0_1_16,2022-05-02T13:54:16.862Z,,,,,,,,,,,,,,,,,53,,,,,,,,,,,,,,337.39799998808303,,response,,,,99,,,,,,,Space,keypress(Space),,,,,,,,---- -- ----- -- ------ - ------- --- ----------<br>------------- ------ ------ ---- ---- ------- ----- to ----<br>-------- ------- -- ---------- --- - --- ----- ----- ----<br>---- --- --- ----- --- ---- ---- ------- ----- ---- -------<br>--- --- -- ----- -- --- ---- -- --- ---- -- ------ ------<br>--- ----- -- ----,116251.39999997616,116249.69999998808,115895.717,115908.69999998808,115912.302,116262.135,,16,to
screen,html.Screen,2_1_0_1_17,2022-05-02T13:54:17.249Z,,,,,,,,,,,,,,,,,53,,,,,,,,,,,,,,374.5649999880843,,response,,,,99,,,,,,,Space,keypress(Space),,,,,,,,---- -- ----- -- ------ - ------- --- ----------<br>------------- ------ ------ ---- ---- ------- ----- -- your<br>-------- ------- -- ---------- --- - --- ----- ----- ----<br>---- --- --- ----- --- ---- ---- ------- ----- ---- -------<br>--- --- -- ----- -- --- ---- -- --- ---- -- ------ ------<br>--- ----- -- ----,116638.19999998808,116636.69999998808,116245.574,116251.69999998808,116262.135,116645.28,,17,your
screen,html.Screen,2_1_0_1_18,2022-05-02T13:54:17.725Z,,,,,,,,,,,,,,,,,53,,,,,,,,,,,,,,467.3199999642384,,response,,,,99,,,,,,,Space,keypress(Space),,,,,,,,---- -- ----- -- ------ - ------- --- ----------<br>------------- ------ ------ ---- ---- ------- ----- -- ----<br>romantic ------- -- ---------- --- - --- ----- ----- ----<br>---- --- --- ----- --- ---- ---- ------- ----- ---- -------<br>--- --- -- ----- -- --- ---- -- --- ---- -- ------ ------<br>--- ----- -- ----,117113.80000001192,117112.59999996424,116628.675,116638.30000001192,116645.28,117128.433,,18,romantic
screen,html.Screen,2_1_0_1_19,2022-05-02T13:54:18.411Z,,,,,,,,,,,,,,,,,53,,,,,,,,,,,,,,669.8670000119164,,response,,,,99,,,,,,,Space,keypress(Space),,,,,,,,---- -- ----- -- ------ - ------- --- ----------<br>------------- ------ ------ ---- ---- ------- ----- -- ----<br>-------- partner -- ---------- --- - --- ----- ----- ----<br>---- --- --- ----- --- ---- ---- ------- ----- ---- -------<br>--- --- -- ----- -- --- ---- -- --- ---- -- ------ ------<br>--- ----- -- ----,117800,117798.30000001192,117111.86,117114,117128.433,117811.459,,19,partner
screen,html.Screen,2_1_0_1_20,2022-05-02T13:54:18.854Z,,,,,,,,,,,,,,,,,53,,,,,,,,,,,,,,430.14099996423465,,response,,,,99,,,,,,,Space,keypress(Space),,,,,,,,---- -- ----- -- ------ - ------- --- ----------<br>------------- ------ ------ ---- ---- ------- ----- -- ----<br>-------- ------- is ---------- --- - --- ----- ----- ----<br>---- --- --- ----- --- ---- ---- ------- ----- ---- -------<br>--- --- -- ----- -- --- ---- -- --- ---- -- ------ ------<br>--- ----- -- ----,118243.19999998808,118241.59999996424,117794.849,117800.19999998808,117811.459,118269.456,,20,is
screen,html.Screen,2_1_0_1_21,2022-05-02T13:54:19.339Z,,,,,,,,,,,,,,,,,53,,,,,,,,,,,,,,457.2439999880735,,response,,,,99,,,,,,,Space,keypress(Space),,,,,,,,---- -- ----- -- ------ - ------- --- ----------<br>------------- ------ ------ ---- ---- ------- ----- -- ----<br>-------- ------- -- paramount. --- - --- ----- ----- ----<br>---- --- --- ----- --- ---- ---- ------- ----- ---- -------<br>--- --- -- ----- -- --- ---- -- --- ---- -- ------ ------<br>--- ----- -- ----,118728.09999996424,118726.69999998808,118227.979,118243.39999997616,118269.456,118744.355,,21,paramount.
screen,html.Screen,2_1_0_1_22,2022-05-02T13:54:19.860Z,,,,,,,,,,,,,,,,,53,,,,,,,,,,,,,,504.2449999642413,,response,,,,99,,,,,,,Space,keypress(Space),,,,,,,,---- -- ----- -- ------ - ------- --- ----------<br>------------- ------ ------ ---- ---- ------- ----- -- ----<br>-------- ------- -- ---------- But - --- ----- ----- ----<br>---- --- --- ----- --- ---- ---- ------- ----- ---- -------<br>--- --- -- ----- -- --- ---- -- --- ---- -- ------ ------<br>--- ----- -- ----,119249.39999997616,119248.59999996424,118727.713,118728.39999997616,118744.355,119260.805,,22,But
screen,html.Screen,2_1_0_1_23,2022-05-02T13:54:20.215Z,,,,,,,,,,,,,,,,,53,,,,,,,,,,,,,,341.39499998808606,,response,,,,99,,,,,,,Space,keypress(Space),,,,,,,,---- -- ----- -- ------ - ------- --- ----------<br>------------- ------ ------ ---- ---- ------- ----- -- ----<br>-------- ------- -- ---------- --- a --- ----- ----- ----<br>---- --- --- ----- --- ---- ---- ------- ----- ---- -------<br>--- --- -- ----- -- --- ---- -- --- ---- -- ------ ------<br>--- ----- -- ----,119604,119602.19999998808,119244.164,119249.59999996424,119260.805,119610.532,,23,a
screen,html.Screen,2_1_0_1_24,2022-05-02T13:54:20.561Z,,,,,,,,,,,,,,,,,53,,,,,,,,,,,,,,337.9679999999935,,response,,,,99,,,,,,,Space,keypress(Space),,,,,,,,---- -- ----- -- ------ - ------- --- ----------<br>------------- ------ ------ ---- ---- ------- ----- -- ----<br>-------- ------- -- ---------- --- - new ----- ----- ----<br>---- --- --- ----- --- ---- ---- ------- ----- ---- -------<br>--- --- -- ----- -- --- ---- -- --- ---- -- ------ ------<br>--- ----- -- ----,119950.09999996424,119948.5,119593.939,119604.19999998808,119610.532,119960.509,,24,new
screen,html.Screen,2_1_0_1_25,2022-05-02T13:54:20.922Z,,,,,,,,,,,,,,,,,53,,,,,,,,,,,,,,348.99099999999453,,response,,,,99,,,,,,,Space,keypress(Space),,,,,,,,---- -- ----- -- ------ - ------- --- ----------<br>------------- ------ ------ ---- ---- ------- ----- -- ----<br>-------- ------- -- ---------- --- - --- study ----- ----<br>---- --- --- ----- --- ---- ---- ------- ----- ---- -------<br>--- --- -- ----- -- --- ---- -- --- ---- -- ------ ------<br>--- ----- -- ----,120311,120309.5,119943.875,119950.39999997616,119960.509,120326.97,,25,study
screen,html.Screen,2_1_0_1_26,2022-05-02T13:54:21.234Z,,,,,,,,,,,,,,,,,53,,,,,,,,,,,,,,293.62999996423605,,response,,,,99,,,,,,,Space,keypress(Space),,,,,,,,---- -- ----- -- ------ - ------- --- ----------<br>------------- ------ ------ ---- ---- ------- ----- -- ----<br>-------- ------- -- ---------- --- - --- ----- finds ----<br>---- --- --- ----- --- ---- ---- ------- ----- ---- -------<br>--- --- -- ----- -- --- ---- -- --- ---- -- ------ ------<br>--- ----- -- ----,120622.59999996424,120620.59999996424,120310.361,120311.19999998808,120326.97,120626.769,,26,finds
screen,html.Screen,2_1_0_1_27,2022-05-02T13:54:21.595Z,,,,,,,,,,,,,,,,,53,,,,,,,,,,,,,,355.5310000119207,,response,,,,99,,,,,,,Space,keypress(Space),,,,,,,,---- -- ----- -- ------ - ------- --- ----------<br>------------- ------ ------ ---- ---- ------- ----- -- ----<br>-------- ------- -- ---------- --- - --- ----- ----- that<br>---- --- --- ----- --- ---- ---- ------- ----- ---- -------<br>--- --- -- ----- -- --- ---- -- --- ---- -- ------ ------<br>--- ----- -- ----,120984.09999996424,120982.30000001192,120610.229,120622.80000001192,120626.769,120993.302,,27,that
screen,html.Screen,2_1_0_1_28,2022-05-02T13:54:21.956Z,,,,,,,,,,,,,,,,,53,,,,,,,,,,,,,,350.29799996424117,,response,,,,99,,,,,,,Space,keypress(Space),,,,,,,,---- -- ----- -- ------ - ------- --- ----------<br>------------- ------ ------ ---- ---- ------- ----- -- ----<br>-------- ------- -- ---------- --- - --- ----- ----- ----<br>it's --- --- ----- --- ---- ---- ------- ----- ---- -------<br>--- --- -- ----- -- --- ---- -- --- ---- -- ------ ------<br>--- ----- -- ----,121345,121343.59999996424,120976.75,120984.39999997616,120993.302,121359.84,,28,it's
screen,html.Screen,2_1_0_1_29,2022-05-02T13:54:22.324Z,,,,,,,,,,,,,,,,,53,,,,,,,,,,,,,,352.1600000000035,,response,,,,99,,,,,,,Space,keypress(Space),,,,,,,,---- -- ----- -- ------ - ------- --- ----------<br>------------- ------ ------ ---- ---- ------- ----- -- ----<br>-------- ------- -- ---------- --- - --- ----- ----- ----<br>---- not --- ----- --- ---- ---- ------- ----- ---- -------<br>--- --- -- ----- -- --- ---- -- --- ---- -- ------ ------<br>--- ----- -- ----,121713.5,121712,121343.197,121345.19999998808,121359.84,121726.382,,29,not
screen,html.Screen,2_1_0_1_30,2022-05-02T13:54:22.640Z,,,,,,,,,,,,,,,,,53,,,,,,,,,,,,,,301.51799997616035,,response,,,,99,,,,,,,Space,keypress(Space),,,,,,,,---- -- ----- -- ------ - ------- --- ----------<br>------------- ------ ------ ---- ---- ------- ----- -- ----<br>-------- ------- -- ---------- --- - --- ----- ----- ----<br>---- --- how ----- --- ---- ---- ------- ----- ---- -------<br>--- --- -- ----- -- --- ---- -- --- ---- -- ------ ------<br>--- ----- -- ----,122029.30000001192,122027.89999997616,121709.746,121713.69999998808,121726.382,122042.884,,30,how
screen,html.Screen,2_1_0_1_31,2022-05-02T13:54:23.016Z,,,,,,,,,,,,,,,,,53,,,,,,,,,,,,,,361.3159999880736,,response,,,,99,,,,,,,Space,keypress(Space),,,,,,,,---- -- ----- -- ------ - ------- --- ----------<br>------------- ------ ------ ---- ---- ------- ----- -- ----<br>-------- ------- -- ---------- --- - --- ----- ----- ----<br>---- --- --- close --- ---- ---- ------- ----- ---- -------<br>--- --- -- ----- -- --- ---- -- --- ---- -- ------ ------<br>--- ----- -- ----,122404.89999997616,122404.19999998808,122026.257,122029.59999996424,122042.884,122409.264,,31,close
screen,html.Screen,2_1_0_1_32,2022-05-02T13:54:23.368Z,,,,,,,,,,,,,,,,,53,,,,,,,,,,,,,,345.2360000000044,,response,,,,99,,,,,,,Space,keypress(Space),,,,,,,,---- -- ----- -- ------ - ------- --- ----------<br>------------- ------ ------ ---- ---- ------- ----- -- ----<br>-------- ------- -- ---------- --- - --- ----- ----- ----<br>---- --- --- ----- you ---- ---- ------- ----- ---- -------<br>--- --- -- ----- -- --- ---- -- --- ---- -- ------ ------<br>--- ----- -- ----,122756.19999998808,122754.5,122392.711,122404.89999997616,122409.264,122759.135,,32,you
screen,html.Screen,2_1_0_1_33,2022-05-02T13:54:23.693Z,,,,,,,,,,,,,,,,,53,,,,,,,,,,,,,,320.7649999761634,,response,,,,99,,,,,,,Space,keypress(Space),,,,,,,,---- -- ----- -- ------ - ------- --- ----------<br>------------- ------ ------ ---- ---- ------- ----- -- ----<br>-------- ------- -- ---------- --- - --- ----- ----- ----<br>---- --- --- ----- --- feel ---- ------- ----- ---- -------<br>--- --- -- ----- -- --- ---- -- --- ---- -- ------ ------<br>--- ----- -- ----,123081.30000001192,123079.89999997616,122742.543,122756.5,122759.135,123092.414,,33,feel
screen,html.Screen,2_1_0_1_34,2022-05-02T13:54:24.064Z,,,,,,,,,,,,,,,,,53,,,,,,,,,,,,,,357.8860000119166,,response,,,,99,,,,,,,Space,keypress(Space),,,,,,,,---- -- ----- -- ------ - ------- --- ----------<br>------------- ------ ------ ---- ---- ------- ----- -- ----<br>-------- ------- -- ---------- --- - --- ----- ----- ----<br>---- --- --- ----- --- ---- that ------- ----- ---- -------<br>--- --- -- ----- -- --- ---- -- --- ---- -- ------ ------<br>--- ----- -- ----,123451.89999997616,123450.30000001192,123075.716,123081.59999996424,123092.414,123458.94,,34,that
screen,html.Screen,2_1_0_1_35,2022-05-02T13:54:24.478Z,,,,,,,,,,,,,,,,,53,,,,,,,,,,,,,,406.25999998807674,,response,,,,99,,,,,,,Space,keypress(Space),,,,,,,,---- -- ----- -- ------ - ------- --- ----------<br>------------- ------ ------ ---- ---- ------- ----- -- ----<br>-------- ------- -- ---------- --- - --- ----- ----- ----<br>---- --- --- ----- --- ---- ---- matters ----- ---- -------<br>--- --- -- ----- -- --- ---- -- --- ---- -- ------ ------<br>--- ----- -- ----,123866.80000001192,123865.19999998808,123442.222,123452.09999996424,123458.94,123875.318,,35,matters
screen,html.Screen,2_1_0_1_36,2022-05-02T13:54:24.985Z,,,,,,,,,,,,,,,,,53,,,,,,,,,,,,,,496.58199997615884,,response,,,,99,,,,,,,Space,keypress(Space),,,,,,,,"---- -- ----- -- ------ - ------- --- ----------<br>------------- ------ ------ ---- ---- ------- ----- -- ----<br>-------- ------- -- ---------- --- - --- ----- ----- ----<br>---- --- --- ----- --- ---- ---- ------- most, ---- -------<br>--- --- -- ----- -- --- ---- -- --- ---- -- ------ ------<br>--- ----- -- ----",124373.39999997616,124371.89999997616,123858.749,123867,123875.318,124393.213,,36,"most,"
screen,html.Screen,2_1_0_1_37,2022-05-02T13:54:25.889Z,,,,,,,,,,,,,,,,,53,,,,,,,,,,,,,,883.2869999999966,,response,,,,99,,,,,,,Space,keypress(Space),,,,,,,,---- -- ----- -- ------ - ------- --- ----------<br>------------- ------ ------ ---- ---- ------- ----- -- ----<br>-------- ------- -- ---------- --- - --- ----- ----- ----<br>---- --- --- ----- --- ---- ---- ------- ----- it's -------<br>--- --- -- ----- -- --- ---- -- --- ---- -- ------ ------<br>--- ----- -- ----,125277.80000001192,125276.5,124358.539,124373.69999998808,124393.213,125291.359,,37,it's
screen,html.Screen,2_1_0_1_38,2022-05-02T13:54:26.240Z,,,,,,,,,,,,,,,,,53,,,,,,,,,,,,,,335.9410000119242,,response,,,,99,,,,,,,Space,keypress(Space),,,,,,,,---- -- ----- -- ------ - ------- --- ----------<br>------------- ------ ------ ---- ---- ------- ----- -- ----<br>-------- ------- -- ---------- --- - --- ----- ----- ----<br>---- --- --- ----- --- ---- ---- ------- ----- ---- whether<br>--- --- -- ----- -- --- ---- -- --- ---- -- ------ ------<br>--- ----- -- ----,125628.80000001192,125627.30000001192,125274.818,125278.09999996424,125291.359,125641.268,,38,whether
screen,html.Screen,2_1_0_1_39,2022-05-02T13:54:26.620Z,,,,,,,,,,,,,,,,,53,,,,,,,,,,,,,,365.2320000000036,,response,,,,99,,,,,,,Space,keypress(Space),,,,,,,,---- -- ----- -- ------ - ------- --- ----------<br>------------- ------ ------ ---- ---- ------- ----- -- ----<br>-------- ------- -- ---------- --- - --- ----- ----- ----<br>---- --- --- ----- --- ---- ---- ------- ----- ---- -------<br>you --- -- ----- -- --- ---- -- --- ---- -- ------ ------<br>--- ----- -- ----,126008.09999996424,126006.5,125624.507,125629.09999996424,125641.268,126024.416,,39,you
screen,html.Screen,2_1_0_1_40,2022-05-02T13:54:27.040Z,,,,,,,,,,,,,,,,,53,,,,,,,,,,,,,,402.4839999761607,,response,,,,99,,,,,,,Space,keypress(Space),,,,,,,,---- -- ----- -- ------ - ------- --- ----------<br>------------- ------ ------ ---- ---- ------- ----- -- ----<br>-------- ------- -- ---------- --- - --- ----- ----- ----<br>---- --- --- ----- --- ---- ---- ------- ----- ---- -------<br>--- are -- ----- -- --- ---- -- --- ---- -- ------ ------<br>--- ----- -- ----,126428.5,126426.89999997616,126007.772,126008.30000001192,126024.416,126440.918,,40,are
screen,html.Screen,2_1_0_1_41,2022-05-02T13:54:27.598Z,,,,,,,,,,,,,,,,,53,,,,,,,,,,,,,,544.0819999999949,,response,,,,99,,,,,,,Space,keypress(Space),,,,,,,,---- -- ----- -- ------ - ------- --- ----------<br>------------- ------ ------ ---- ---- ------- ----- -- ----<br>-------- ------- -- ---------- --- - --- ----- ----- ----<br>---- --- --- ----- --- ---- ---- ------- ----- ---- -------<br>--- --- as ----- -- --- ---- -- --- ---- -- ------ ------<br>--- ----- -- ----,126986.59999996424,126985,126424.234,126428.69999998808,126440.918,126990.544,,41,as
screen,html.Screen,2_1_0_1_42,2022-05-02T13:54:29.874Z,,,,,,,,,,,,,,,,,53,,,,,,,,,,,,,,2270.8559999761637,,response,,,,99,,,,,,,Space,keypress(Space),,,,,,,,---- -- ----- -- ------ - ------- --- ----------<br>------------- ------ ------ ---- ---- ------- ----- -- ----<br>-------- ------- -- ---------- --- - --- ----- ----- ----<br>---- --- --- ----- --- ---- ---- ------- ----- ---- -------<br>--- --- -- close -- --- ---- -- --- ---- -- ------ ------<br>--- ----- -- ----,129262.30000001192,129261.39999997616,126973.969,126986.80000001192,126990.544,129272.856,,42,close
screen,html.Screen,2_1_0_1_43,2022-05-02T13:54:30.230Z,,,,,,,,,,,,,,,,,53,,,,,,,,,,,,,,343.74399996423745,,response,,,,99,,,,,,,Space,keypress(Space),,,,,,,,---- -- ----- -- ------ - ------- --- ----------<br>------------- ------ ------ ---- ---- ------- ----- -- ----<br>-------- ------- -- ---------- --- - --- ----- ----- ----<br>---- --- --- ----- --- ---- ---- ------- ----- ---- -------<br>--- --- -- ----- as --- ---- -- --- ---- -- ------ ------<br>--- ----- -- ----,129618.19999998808,129616.59999996424,129256.367,129262.5,129272.856,129622.644,,43,as
screen,html.Screen,2_1_0_1_44,2022-05-02T13:54:30.551Z,,,,,,,,,,,,,,,,,53,,,,,,,,,,,,,,315.35599999999977,,response,,,,99,,,,,,,Space,keypress(Space),,,,,,,,---- -- ----- -- ------ - ------- --- ----------<br>------------- ------ ------ ---- ---- ------- ----- -- ----<br>-------- ------- -- ---------- --- - --- ----- ----- ----<br>---- --- --- ----- --- ---- ---- ------- ----- ---- -------<br>--- --- -- ----- -- you ---- -- --- ---- -- ------ ------<br>--- ----- -- ----,129939.59999996424,129938,129606.123,129618.5,129622.644,129955.952,,44,you
screen,html.Screen,2_1_0_1_45,2022-05-02T13:54:30.852Z,,,,,,,,,,,,,,,,,53,,,,,,,,,,,,,,282.34800001191616,,response,,,,99,,,,,,,Space,keypress(Space),,,,,,,,---- -- ----- -- ------ - ------- --- ----------<br>------------- ------ ------ ---- ---- ------- ----- -- ----<br>-------- ------- -- ---------- --- - --- ----- ----- ----<br>---- --- --- ----- --- ---- ---- ------- ----- ---- -------<br>--- --- -- ----- -- --- want -- --- ---- -- ------ ------<br>--- ----- -- ----,130239.89999997616,130238.30000001192,129939.328,129939.80000001192,129955.952,130255.829,,45,want
screen,html.Screen,2_1_0_1_46,2022-05-02T13:54:31.173Z,,,,,,,,,,,,,,,,,53,,,,,,,,,,,,,,303.971000011923,,response,,,,99,,,,,,,Space,keypress(Space),,,,,,,,---- -- ----- -- ------ - ------- --- ----------<br>------------- ------ ------ ---- ---- ------- ----- -- ----<br>-------- ------- -- ---------- --- - --- ----- ----- ----<br>---- --- --- ----- --- ---- ---- ------- ----- ---- -------<br>--- --- -- ----- -- --- ---- to --- ---- -- ------ ------<br>--- ----- -- ----,130561.19999998808,130559.80000001192,130239.19,130240.09999996424,130255.829,130572.353,,46,to
screen,html.Screen,2_1_0_1_47,2022-05-02T13:54:31.541Z,,,,,,,,,,,,,,,,,53,,,,,,,,,,,,,,355.94700001191813,,response,,,,99,,,,,,,Space,keypress(Space),,,,,,,,"---- -- ----- -- ------ - ------- --- ----------<br>------------- ------ ------ ---- ---- ------- ----- -- ----<br>-------- ------- -- ---------- --- - --- ----- ----- ----<br>---- --- --- ----- --- ---- ---- ------- ----- ---- -------<br>--- --- -- ----- -- --- ---- -- be, ---- -- ------ ------<br>--- ----- -- ----",130929.69999998808,130928.30000001192,130555.716,130561.5,130572.353,130938.793,,47,"be,"
screen,html.Screen,2_1_0_1_48,2022-05-02T13:54:31.852Z,,,,,,,,,,,,,,,,,53,,,,,,,,,,,,,,299.606999976153,,response,,,,99,,,,,,,Space,keypress(Space),,,,,,,,---- -- ----- -- ------ - ------- --- ----------<br>------------- ------ ------ ---- ---- ------- ----- -- ----<br>-------- ------- -- ---------- --- - --- ----- ----- ----<br>---- --- --- ----- --- ---- ---- ------- ----- ---- -------<br>--- --- -- ----- -- --- ---- -- --- even -- ------ ------<br>--- ----- -- ----,131240.09999996424,131238.39999997616,130922.204,130930,130938.793,131255.246,,48,even
screen,html.Screen,2_1_0_1_49,2022-05-02T13:54:32.181Z,,,,,,,,,,,,,,,,,53,,,,,,,,,,,,,,313.45399998806533,,response,,,,99,,,,,,,Space,keypress(Space),,,,,,,,---- -- ----- -- ------ - ------- --- ----------<br>------------- ------ ------ ---- ---- ------- ----- -- ----<br>-------- ------- -- ---------- --- - --- ----- ----- ----<br>---- --- --- ----- --- ---- ---- ------- ----- ---- -------<br>--- --- -- ----- -- --- ---- -- --- ---- if ------ ------<br>--- ----- -- ----,131569.30000001192,131568.69999998808,131238.693,131240.30000001192,131255.246,131571.73,,49,if
screen,html.Screen,2_1_0_1_50,2022-05-02T13:54:32.548Z,,,,,,,,,,,,,,,,,53,,,,,,,,,,,,,,363.07000001191045,,response,,,,99,,,,,,,Space,keypress(Space),,,,,,,,---- -- ----- -- ------ - ------- --- ----------<br>------------- ------ ------ ---- ---- ------- ----- -- ----<br>-------- ------- -- ---------- --- - --- ----- ----- ----<br>---- --- --- ----- --- ---- ---- ------- ----- ---- -------<br>--- --- -- ----- -- --- ---- -- --- ---- -- that's ------<br>--- ----- -- ----,131936.80000001192,131934.80000001192,131555.243,131569.39999997616,131571.73,131965.747,,50,that's
screen,html.Screen,2_1_0_1_51,2022-05-02T13:54:32.947Z,,,,,,,,,,,,,,,,,53,,,,,,,,,,,,,,367.95299998807604,,response,,,,99,,,,,,,Space,keypress(Space),,,,,,,,---- -- ----- -- ------ - ------- --- ----------<br>------------- ------ ------ ---- ---- ------- ----- -- ----<br>-------- ------- -- ---------- --- - --- ----- ----- ----<br>---- --- --- ----- --- ---- ---- ------- ----- ---- -------<br>--- --- -- ----- -- --- ---- -- --- ---- -- ------ really<br>--- ----- -- ----,132335.19999998808,132333.69999998808,131921.782,131937,131965.747,132338.105,,51,really
screen,html.Screen,2_1_0_1_52,2022-05-02T13:54:33.351Z,,,,,,,,,,,,,,,,,53,,,,,,,,,,,,,,399.19500001191045,,response,,,,99,,,,,,,Space,keypress(Space),,,,,,,,---- -- ----- -- ------ - ------- --- ----------<br>------------- ------ ------ ---- ---- ------- ----- -- ----<br>-------- ------- -- ---------- --- - --- ----- ----- ----<br>---- --- --- ----- --- ---- ---- ------- ----- ---- -------<br>--- --- -- ----- -- --- ---- -- --- ---- -- ------ ------<br>not ----- -- ----,132739,132737.30000001192,132321.589,132335.39999997616,132338.105,132754.649,,52,not
screen,html.Screen,2_1_0_1_53,2022-05-02T13:54:33.809Z,,,,,,,,,,,,,,,,,53,,,,,,,,,,,,,,441.3509999999951,,response,,,,99,,,,,,,Space,keypress(Space),,,,,,,,---- -- ----- -- ------ - ------- --- ----------<br>------------- ------ ------ ---- ---- ------- ----- -- ----<br>-------- ------- -- ---------- --- - --- ----- ----- ----<br>---- --- --- ----- --- ---- ---- ------- ----- ---- -------<br>--- --- -- ----- -- --- ---- -- --- ---- -- ------ ------<br>--- close -- ----,133197.59999996424,133196,132738.003,132739.09999996424,132754.649,133204.401,,53,close
screen,html.Screen,2_1_0_1_54,2022-05-02T13:54:34.191Z,,,,,,,,,,,,,,,,,53,,,,,,,,,,,,,,372.89900001190836,,response,,,,99,,,,,,,Space,keypress(Space),,,,,,,,---- -- ----- -- ------ - ------- --- ----------<br>------------- ------ ------ ---- ---- ------- ----- -- ----<br>-------- ------- -- ---------- --- - --- ----- ----- ----<br>---- --- --- ----- --- ---- ---- ------- ----- ---- -------<br>--- --- -- ----- -- --- ---- -- --- ---- -- ------ ------<br>--- ----- at ----,133578.89999997616,133577.30000001192,133187.836,133197.69999998808,133204.401,133587.59,,54,at
screen,html.Screen,2_1_0_1_55,2022-05-02T13:54:34.954Z,,,,,,,,,,,,,,,,,53,,,,,,,,,,,,,,753.6099999880826,,response,,,,99,,,,,,,Space,keypress(Space),,,,,,,,---- -- ----- -- ------ - ------- --- ----------<br>------------- ------ ------ ---- ---- ------- ----- -- ----<br>-------- ------- -- ---------- --- - --- ----- ----- ----<br>---- --- --- ----- --- ---- ---- ------- ----- ---- -------<br>--- --- -- ----- -- --- ---- -- --- ---- -- ------ ------<br>--- ----- -- all.,134342.69999998808,134341.19999998808,133570.939,133579.09999996424,133587.59,134370.575,,55,all.
Item 99,flow.Loop,2_1_0_1,2022-05-02T13:54:34.955Z,,,,,,,,,,,,,,,,,,,,,,,,,,,,,,,26358.629999988072,,completion,,,,,G,,,,,,,,,,,silence,,,,,134343.30000001192,134341.19999998808,107949.286,107950.59999996424,107982.57,134370.575,,,
Question 1,html.Screen,2_1_0_2,2022-05-02T13:54:40.556Z,,,,,,,,,,,,,,,,,,,,,,,,,,,,true,FALSE,,5573.225000011909,,response,,,,99,G,,,,,,FALSE,click #choice-2,,,,silence,,,,,139944.59999996424,139943.80000001192,134337.357,134343.59999996424,134370.575,139951.26,,,
Question 2,html.Screen,2_1_0_3,2022-05-02T13:54:50.668Z,,,,,,,,,,,,,,,,,,,,,,,,,,,,true,TRUE,,10104.43999998807,,response,,,,99,G,,,,,,TRUE,click #choice-1,,,,silence,,,,,150056.39999997616,150055.69999998808,139934.779,139944.69999998808,139951.26,150063.34,,,
Item 99,flow.Sequence,2_1_0,2022-05-02T13:54:50.668Z,,,,,,,,,,,,,,,,,,,,,,,,,,,,,,,52085.33999998808,,completion,,,,,,,,,,,,,,,,,,,,,150056.59999996424,150055.69999998808,97953.749,97961.19999998808,97970.36,150063.34,,,
Holding screen,html.Screen,2_1_1_0,2022-05-02T13:55:00.655Z,,,,,,,,,,,,,,,,,,,,,,,,,,,,,,,9995.54800000001,,timeout,,,,,,,,,,,,,,,,,,,,,160043.09999996424,160042.257,150046.797,150056.69999998808,150063.34,160058.888,,,
screen,html.Screen,2_1_1_1_0,2022-05-02T13:55:01.831Z,,,,,,,,,,,,,,,,,54,,,,,,,,,,,,,,1158.5119999761519,,response,,,,100,,,,,,,Space,keypress(Space),,,,,,,,At --- ---- --- ------ ----- ------- ---- -- --- ------- --<br>------- ---------- ------ -- ----- -- ----- -- ---- ------<br>--- ----- --- --- ------ -------- ----- --- ------ ----- --<br>----- ----- ---------- --- --- ------ ------ ---- -- ------<br>------- --- ------ ----- --- ---- ------- -- ---- --- --<br>------- ------,161219.09999996424,161217.39999997616,160042.257,160043.39999997616,160058.888,161224.965,,0,At
screen,html.Screen,2_1_1_1_1,2022-05-02T13:55:02.222Z,,,,,,,,,,,,,,,,,54,,,,,,,,,,,,,,383.8350000119244,,response,,,,100,,,,,,,Space,keypress(Space),,,,,,,,-- the ---- --- ------ ----- ------- ---- -- --- ------- --<br>------- ---------- ------ -- ----- -- ----- -- ---- ------<br>--- ----- --- --- ------ -------- ----- --- ------ ----- --<br>----- ----- ---------- --- --- ------ ------ ---- -- ------<br>------- --- ------ ----- --- ---- ------- -- ---- --- --<br>------- ------,161610.09999996424,161608.80000001192,161208.452,161219.30000001192,161224.965,161624.87,,1,the
screen,html.Screen,2_1_1_1_2,2022-05-02T13:55:02.539Z,,,,,,,,,,,,,,,,,54,,,,,,,,,,,,,,301.22999996424187,,response,,,,100,,,,,,,Space,keypress(Space),,,,,,,,-- --- time --- ------ ----- ------- ---- -- --- ------- --<br>------- ---------- ------ -- ----- -- ----- -- ---- ------<br>--- ----- --- --- ------ -------- ----- --- ------ ----- --<br>----- ----- ---------- --- --- ------ ------ ---- -- ------<br>------- --- ------ ----- --- ---- ------- -- ---- --- --<br>------- ------,161927.5,161926.09999996424,161608.273,161610.30000001192,161624.87,161941.405,,2,time
screen,html.Screen,2_1_1_1_3,2022-05-02T13:55:02.896Z,,,,,,,,,,,,,,,,,54,,,,,,,,,,,,,,341.59500000000116,,response,,,,100,,,,,,,Space,keypress(Space),,,,,,,,-- --- ---- the ------ ----- ------- ---- -- --- ------- --<br>------- ---------- ------ -- ----- -- ----- -- ---- ------<br>--- ----- --- --- ------ -------- ----- --- ------ ----- --<br>----- ----- ---------- --- --- ------ ------ ---- -- ------<br>------- --- ------ ----- --- ---- ------- -- ---- --- --<br>------- ------,162284.39999997616,162283,161924.754,161927.80000001192,161941.405,162291.174,,3,the
screen,html.Screen,2_1_1_1_4,2022-05-02T13:55:03.276Z,,,,,,,,,,,,,,,,,54,,,,,,,,,,,,,,372.42599996423814,,response,,,,100,,,,,,,Space,keypress(Space),,,,,,,,-- --- ---- --- French ----- ------- ---- -- --- ------- --<br>------- ---------- ------ -- ----- -- ----- -- ---- ------<br>--- ----- --- --- ------ -------- ----- --- ------ ----- --<br>----- ----- ---------- --- --- ------ ------ ---- -- ------<br>------- --- ------ ----- --- ---- ------- -- ---- --- --<br>------- ------,162664.19999998808,162663.59999996424,162274.511,162284.5,162291.174,162674.249,,4,French
screen,html.Screen,2_1_1_1_5,2022-05-02T13:55:03.905Z,,,,,,,,,,,,,,,,,54,,,,,,,,,,,,,,617.7509999999893,,response,,,,100,,,,,,,Space,keypress(Space),,,,,,,,-- --- ---- --- ------ crown ------- ---- -- --- ------- --<br>------- ---------- ------ -- ----- -- ----- -- ---- ------<br>--- ----- --- --- ------ -------- ----- --- ------ ----- --<br>----- ----- ---------- --- --- ------ ------ ---- -- ------<br>------- --- ------ ----- --- ---- ------- -- ---- --- --<br>------- ------,163293.19999998808,163292,162657.745,162664.30000001192,162674.249,163307.356,,5,crown
screen,html.Screen,2_1_1_1_6,2022-05-02T13:55:04.282Z,,,,,,,,,,,,,,,,,54,,,,,,,,,,,,,,360.8439999880793,,response,,,,100,,,,,,,Space,keypress(Space),,,,,,,,-- --- ---- --- ------ ----- secured ---- -- --- ------- --<br>------- ---------- ------ -- ----- -- ----- -- ---- ------<br>--- ----- --- --- ------ -------- ----- --- ------ ----- --<br>----- ----- ---------- --- --- ------ ------ ---- -- ------<br>------- --- ------ ----- --- ---- ------- -- ---- --- --<br>------- ------,163670,163668.19999998808,163290.766,163293.5,163307.356,163673.886,,6,secured
screen,html.Screen,2_1_1_1_7,2022-05-02T13:55:04.643Z,,,,,,,,,,,,,,,,,54,,,,,,,,,,,,,,356.6140000000014,,response,,,,100,,,,,,,Space,keypress(Space),,,,,,,,-- --- ---- --- ------ ----- ------- much -- --- ------- --<br>------- ---------- ------ -- ----- -- ----- -- ---- ------<br>--- ----- --- --- ------ -------- ----- --- ------ ----- --<br>----- ----- ---------- --- --- ------ ------ ---- -- ------<br>------- --- ------ ----- --- ---- ------- -- ---- --- --<br>------- ------,164031.69999998808,164030.5,163657.321,163670.19999998808,163673.886,164040.329,,7,much
screen,html.Screen,2_1_1_1_8,2022-05-02T13:55:05.040Z,,,,,,,,,,,,,,,,,54,,,,,,,,,,,,,,387.2709999642393,,response,,,,100,,,,,,,Space,keypress(Space),,,,,,,,-- --- ---- --- ------ ----- ------- ---- of --- ------- --<br>------- ---------- ------ -- ----- -- ----- -- ---- ------<br>--- ----- --- --- ------ -------- ----- --- ------ ----- --<br>----- ----- ---------- --- --- ------ ------ ---- -- ------<br>------- --- ------ ----- --- ---- ------- -- ---- --- --<br>------- ------,164428.80000001192,164427.59999996424,164023.763,164032,164040.329,164440.229,,8,of
screen,html.Screen,2_1_1_1_9,2022-05-02T13:55:05.351Z,,,,,,,,,,,,,,,,,54,,,,,,,,,,,,,,298.57100001192885,,response,,,,100,,,,,,,Space,keypress(Space),,,,,,,,-- --- ---- --- ------ ----- ------- ---- -- its ------- --<br>------- ---------- ------ -- ----- -- ----- -- ---- ------<br>--- ----- --- --- ------ -------- ----- --- ------ ----- --<br>----- ----- ---------- --- --- ------ ------ ---- -- ------<br>------- --- ------ ----- --- ---- ------- -- ---- --- --<br>------- ------,164739.59999996424,164738.80000001192,164423.576,164429,164440.229,164756.775,,9,its
screen,html.Screen,2_1_1_1_10,2022-05-02T13:55:05.849Z,,,,,,,,,,,,,,,,,54,,,,,,,,,,,,,,479.4249999880849,,response,,,,100,,,,,,,Space,keypress(Space),,,,,,,,-- --- ---- --- ------ ----- ------- ---- -- --- revenue --<br>------- ---------- ------ -- ----- -- ----- -- ---- ------<br>--- ----- --- --- ------ -------- ----- --- ------ ----- --<br>----- ----- ---------- --- --- ------ ------ ---- -- ------<br>------- --- ------ ----- --- ---- ------- -- ---- --- --<br>------- ------,165237.59999996424,165236.19999998808,164740.043,164739.80000001192,164756.775,165239.838,,10,revenue
screen,html.Screen,2_1_1_1_11,2022-05-02T13:55:06.354Z,,,,,,,,,,,,,,,,,54,,,,,,,,,,,,,,501.1620000000112,,response,,,,100,,,,,,,Space,keypress(Space),,,,,,,,-- --- ---- --- ------ ----- ------- ---- -- --- ------- by<br>------- ---------- ------ -- ----- -- ----- -- ---- ------<br>--- ----- --- --- ------ -------- ----- --- ------ ----- --<br>----- ----- ---------- --- --- ------ ------ ---- -- ------<br>------- --- ------ ----- --- ---- ------- -- ---- --- --<br>------- ------,165742.30000001192,165741,165223.285,165237.80000001192,165239.838,165756.309,,11,by
screen,html.Screen,2_1_1_1_12,2022-05-02T13:55:06.667Z,,,,,,,,,,,,,,,,,54,,,,,,,,,,,,,,296.99100001191255,,response,,,,100,,,,,,,Space,keypress(Space),,,,,,,,-- --- ---- --- ------ ----- ------- ---- -- --- ------- --<br>issuing ---------- ------ -- ----- -- ----- -- ---- ------<br>--- ----- --- --- ------ -------- ----- --- ------ ----- --<br>----- ----- ---------- --- --- ------ ------ ---- -- ------<br>------- --- ------ ----- --- ---- ------- -- ---- --- --<br>------- ------,166054.80000001192,166053.30000001192,165739.732,165742.5,165756.309,166076.176,,12,issuing
screen,html.Screen,2_1_1_1_13,2022-05-02T13:55:07.036Z,,,,,,,,,,,,,,,,,54,,,,,,,,,,,,,,346.2239999761514,,response,,,,100,,,,,,,Space,keypress(Space),,,,,,,,-- --- ---- --- ------ ----- ------- ---- -- --- ------- --<br>------- government ------ -- ----- -- ----- -- ---- ------<br>--- ----- --- --- ------ -------- ----- --- ------ ----- --<br>----- ----- ---------- --- --- ------ ------ ---- -- ------<br>------- --- ------ ----- --- ---- ------- -- ---- --- --<br>------- ------,166424,166422.39999997616,166039.557,166055.09999996424,166076.176,166439.265,,13,government
screen,html.Screen,2_1_1_1_14,2022-05-02T13:55:08.147Z,,,,,,,,,,,,,,,,,54,,,,,,,,,,,,,,1094.3349999642232,,response,,,,100,,,,,,,Space,keypress(Space),,,,,,,,-- --- ---- --- ------ ----- ------- ---- -- --- ------- --<br>------- ---------- bonds. -- ----- -- ----- -- ---- ------<br>--- ----- --- --- ------ -------- ----- --- ------ ----- --<br>----- ----- ---------- --- --- ------ ------ ---- -- ------<br>------- --- ------ ----- --- ---- ------- -- ---- --- --<br>------- ------,167535.30000001192,167533.59999996424,166422.65,166424.30000001192,166439.265,167538.798,,14,bonds.
screen,html.Screen,2_1_1_1_15,2022-05-02T13:55:08.470Z,,,,,,,,,,,,,,,,,54,,,,,,,,,,,,,,317.80199996422743,,response,,,,100,,,,,,,Space,keypress(Space),,,,,,,,-- --- ---- --- ------ ----- ------- ---- -- --- ------- --<br>------- ---------- ------ In ----- -- ----- -- ---- ------<br>--- ----- --- --- ------ -------- ----- --- ------ ----- --<br>----- ----- ---------- --- --- ------ ------ ---- -- ------<br>------- --- ------ ----- --- ---- ------- -- ---- --- --<br>------- ------,167858.19999998808,167856.59999996424,167522.199,167535.5,167538.798,167872.047,,15,In
screen,html.Screen,2_1_1_1_16,2022-05-02T13:55:08.861Z,,,,,,,,,,,,,,,,,54,,,,,,,,,,,,,,375.5529999642458,,response,,,,100,,,,,,,Space,keypress(Space),,,,,,,,"-- --- ---- --- ------ ----- ------- ---- -- --- ------- --<br>------- ---------- ------ -- 1727, -- ----- -- ---- ------<br>--- ----- --- --- ------ -------- ----- --- ------ ----- --<br>----- ----- ---------- --- --- ------ ------ ---- -- ------<br>------- --- ------ ----- --- ---- ------- -- ---- --- --<br>------- ------",168248.89999997616,168247.59999996424,167855.411,167858.39999997616,167872.047,168255.216,,16,"1727,"
screen,html.Screen,2_1_1_1_17,2022-05-02T13:55:09.302Z,,,,,,,,,,,,,,,,,54,,,,,,,,,,,,,,433.2840000000142,,response,,,,100,,,,,,,Space,keypress(Space),,,,,,,,-- --- ---- --- ------ ----- ------- ---- -- --- ------- --<br>------- ---------- ------ -- ----- in ----- -- ---- ------<br>--- ----- --- --- ------ -------- ----- --- ------ ----- --<br>----- ----- ---------- --- --- ------ ------ ---- -- ------<br>------- --- ------ ----- --- ---- ------- -- ---- --- --<br>------- ------,168689.80000001192,168688.5,168238.42,168249.09999996424,168255.216,168704.942,,17,in
screen,html.Screen,2_1_1_1_18,2022-05-02T13:55:09.972Z,,,,,,,,,,,,,,,,,54,,,,,,,,,,,,,,653.7579999880691,,response,,,,100,,,,,,,Space,keypress(Space),,,,,,,,-- --- ---- --- ------ ----- ------- ---- -- --- ------- --<br>------- ---------- ------ -- ----- -- order -- ---- ------<br>--- ----- --- --- ------ -------- ----- --- ------ ----- --<br>----- ----- ---------- --- --- ------ ------ ---- -- ------<br>------- --- ------ ----- --- ---- ------- -- ---- --- --<br>------- ------,169360.30000001192,169358.69999998808,168688.355,168690.09999996424,168704.942,169371.301,,18,order
screen,html.Screen,2_1_1_1_19,2022-05-02T13:55:10.348Z,,,,,,,,,,,,,,,,,54,,,,,,,,,,,,,,362.8989999880723,,response,,,,100,,,,,,,Space,keypress(Space),,,,,,,,-- --- ---- --- ------ ----- ------- ---- -- --- ------- --<br>------- ---------- ------ -- ----- -- ----- to ---- ------<br>--- ----- --- --- ------ -------- ----- --- ------ ----- --<br>----- ----- ---------- --- --- ------ ------ ---- -- ------<br>------- --- ------ ----- --- ---- ------- -- ---- --- --<br>------- ------,169735.80000001192,169734.19999998808,169354.734,169360.59999996424,169371.301,169737.748,,19,to
screen,html.Screen,2_1_1_1_20,2022-05-02T13:55:10.733Z,,,,,,,,,,,,,,,,,54,,,,,,,,,,,,,,381.6519999761658,,response,,,,100,,,,,,,Space,keypress(Space),,,,,,,,-- --- ---- --- ------ ----- ------- ---- -- --- ------- --<br>------- ---------- ------ -- ----- -- ----- -- save ------<br>--- ----- --- --- ------ -------- ----- --- ------ ----- --<br>----- ----- ---------- --- --- ------ ------ ---- -- ------<br>------- --- ------ ----- --- ---- ------- -- ---- --- --<br>------- ------,170120.80000001192,170119.39999997616,169721.148,169736.09999996424,169737.748,170137.583,,20,save
screen,html.Screen,2_1_1_1_21,2022-05-02T13:55:11.143Z,,,,,,,,,,,,,,,,,54,,,,,,,,,,,,,,392.1169999880658,,response,,,,100,,,,,,,Space,keypress(Space),,,,,,,,"-- --- ---- --- ------ ----- ------- ---- -- --- ------- --<br>------- ---------- ------ -- ----- -- ----- -- ---- money,<br>--- ----- --- --- ------ -------- ----- --- ------ ----- --<br>----- ----- ---------- --- --- ------ ------ ---- -- ------<br>------- --- ------ ----- --- ---- ------- -- ---- --- --<br>------- ------",170531.30000001192,170529.69999998808,170121.019,170121.09999996424,170137.583,170537.419,,21,"money,"
screen,html.Screen,2_1_1_1_22,2022-05-02T13:55:11.520Z,,,,,,,,,,,,,,,,,54,,,,,,,,,,,,,,369.0810000000056,,response,,,,100,,,,,,,Space,keypress(Space),,,,,,,,-- --- ---- --- ------ ----- ------- ---- -- --- ------- --<br>------- ---------- ------ -- ----- -- ----- -- ---- ------<br>the ----- --- --- ------ -------- ----- --- ------ ----- --<br>----- ----- ---------- --- --- ------ ------ ---- -- ------<br>------- --- ------ ----- --- ---- ------- -- ---- --- --<br>------- ------,170908.30000001192,170906.5,170520.908,170531.59999996424,170537.419,170920.648,,22,the
screen,html.Screen,2_1_1_1_23,2022-05-02T13:55:11.848Z,,,,,,,,,,,,,,,,,54,,,,,,,,,,,,,,315.25199997617165,,response,,,,100,,,,,,,Space,keypress(Space),,,,,,,,-- --- ---- --- ------ ----- ------- ---- -- --- ------- --<br>------- ---------- ------ -- ----- -- ----- -- ---- ------<br>--- state --- --- ------ -------- ----- --- ------ ----- --<br>----- ----- ---------- --- --- ------ ------ ---- -- ------<br>------- --- ------ ----- --- ---- ------- -- ---- --- --<br>------- ------,171236.69999998808,171235.89999997616,170904.043,170908.5,170920.648,171253.774,,23,state
screen,html.Screen,2_1_1_1_24,2022-05-02T13:55:12.277Z,,,,,,,,,,,,,,,,,54,,,,,,,,,,,,,,409.9259999880742,,response,,,,100,,,,,,,Space,keypress(Space),,,,,,,,-- --- ---- --- ------ ----- ------- ---- -- --- ------- --<br>------- ---------- ------ -- ----- -- ----- -- ---- ------<br>--- ----- cut --- ------ -------- ----- --- ------ ----- --<br>----- ----- ---------- --- --- ------ ------ ---- -- ------<br>------- --- ------ ----- --- ---- ------- -- ---- --- --<br>------- ------,171665.30000001192,171663.69999998808,171220.512,171236.80000001192,171253.774,171670.25,,24,cut
screen,html.Screen,2_1_1_1_25,2022-05-02T13:55:12.660Z,,,,,,,,,,,,,,,,,54,,,,,,,,,,,,,,375.8499999642372,,response,,,,100,,,,,,,Space,keypress(Space),,,,,,,,-- --- ---- --- ------ ----- ------- ---- -- --- ------- --<br>------- ---------- ------ -- ----- -- ----- -- ---- ------<br>--- ----- --- the ------ -------- ----- --- ------ ----- --<br>----- ----- ---------- --- --- ------ ------ ---- -- ------<br>------- --- ------ ----- --- ---- ------- -- ---- --- --<br>------- ------,172048,172046.09999996424,171653.649,171665.59999996424,171670.25,172053.415,,25,the
screen,html.Screen,2_1_1_1_26,2022-05-02T13:55:13.066Z,,,,,,,,,,,,,,,,,54,,,,,,,,,,,,,,399.3850000119128,,response,,,,100,,,,,,,Space,keypress(Space),,,,,,,,-- --- ---- --- ------ ----- ------- ---- -- --- ------- --<br>------- ---------- ------ -- ----- -- ----- -- ---- ------<br>--- ----- --- --- bonds' -------- ----- --- ------ ----- --<br>----- ----- ---------- --- --- ------ ------ ---- -- ------<br>------- --- ------ ----- --- ---- ------- -- ---- --- --<br>------- ------,172454.19999998808,172452.80000001192,172036.828,172048.30000001192,172053.415,172469.946,,26,bonds'
screen,html.Screen,2_1_1_1_27,2022-05-02T13:55:13.530Z,,,,,,,,,,,,,,,,,54,,,,,,,,,,,,,,446.2539999880828,,response,,,,100,,,,,,,Space,keypress(Space),,,,,,,,-- --- ---- --- ------ ----- ------- ---- -- --- ------- --<br>------- ---------- ------ -- ----- -- ----- -- ---- ------<br>--- ----- --- --- ------ interest ----- --- ------ ----- --<br>----- ----- ---------- --- --- ------ ------ ---- -- ------<br>------- --- ------ ----- --- ---- ------- -- ---- --- --<br>------- ------,172917.80000001192,172916.19999998808,172453.286,172454.39999997616,172469.946,172919.678,,27,interest
screen,html.Screen,2_1_1_1_28,2022-05-02T13:55:13.896Z,,,,,,,,,,,,,,,,,54,,,,,,,,,,,,,,362.9219999642228,,response,,,,100,,,,,,,Space,keypress(Space),,,,,,,,-- --- ---- --- ------ ----- ------- ---- -- --- ------- --<br>------- ---------- ------ -- ----- -- ----- -- ---- ------<br>--- ----- --- --- ------ -------- rate. --- ------ ----- --<br>----- ----- ---------- --- --- ------ ------ ---- -- ------<br>------- --- ------ ----- --- ---- ------- -- ---- --- --<br>------- ------,173284.09999996424,173282.59999996424,172903.019,172918.09999996424,172919.678,173286.137,,28,rate.
screen,html.Screen,2_1_1_1_29,2022-05-02T13:55:14.310Z,,,,,,,,,,,,,,,,,54,,,,,,,,,,,,,,410.5629999880912,,response,,,,100,,,,,,,Space,keypress(Space),,,,,,,,-- --- ---- --- ------ ----- ------- ---- -- --- ------- --<br>------- ---------- ------ -- ----- -- ----- -- ---- ------<br>--- ----- --- --- ------ -------- ----- The ------ ----- --<br>----- ----- ---------- --- --- ------ ------ ---- -- ------<br>------- --- ------ ----- --- ---- ------- -- ---- --- --<br>------- ------,173698.30000001192,173696.69999998808,173269.603,173284.39999997616,173286.137,173702.66,,29,The
screen,html.Screen,2_1_1_1_30,2022-05-02T13:55:14.732Z,,,,,,,,,,,,,,,,,54,,,,,,,,,,,,,,415.64000001191744,,response,,,,100,,,,,,,Space,keypress(Space),,,,,,,,-- --- ---- --- ------ ----- ------- ---- -- --- ------- --<br>------- ---------- ------ -- ----- -- ----- -- ---- ------<br>--- ----- --- --- ------ -------- ----- --- market ----- --<br>----- ----- ---------- --- --- ------ ------ ---- -- ------<br>------- --- ------ ----- --- ---- ------- -- ---- --- --<br>------- ------,174120,174118.30000001192,173686.082,173698.5,173702.66,174135.842,,30,market
screen,html.Screen,2_1_1_1_31,2022-05-02T13:55:15.136Z,,,,,,,,,,,,,,,,,54,,,,,,,,,,,,,,387.05799997615395,,response,,,,100,,,,,,,Space,keypress(Space),,,,,,,,-- --- ---- --- ------ ----- ------- ---- -- --- ------- --<br>------- ---------- ------ -- ----- -- ----- -- ---- ------<br>--- ----- --- --- ------ -------- ----- --- ------ value --<br>----- ----- ---------- --- --- ------ ------ ---- -- ------<br>------- --- ------ ----- --- ---- ------- -- ---- --- --<br>------- ------,174524.39999997616,174522.89999997616,174119.241,174120.19999998808,174135.842,174535.619,,31,value
screen,html.Screen,2_1_1_1_32,2022-05-02T13:55:15.470Z,,,,,,,,,,,,,,,,,54,,,,,,,,,,,,,,321.080999988073,,response,,,,100,,,,,,,Space,keypress(Space),,,,,,,,-- --- ---- --- ------ ----- ------- ---- -- --- ------- --<br>------- ---------- ------ -- ----- -- ----- -- ---- ------<br>--- ----- --- --- ------ -------- ----- --- ------ ----- of<br>----- ----- ---------- --- --- ------ ------ ---- -- ------<br>------- --- ------ ----- --- ---- ------- -- ---- --- --<br>------- ------,174858.39999997616,174856.69999998808,174519.028,174524.69999998808,174535.619,174868.79,,32,of
screen,html.Screen,2_1_1_1_33,2022-05-02T13:55:15.777Z,,,,,,,,,,,,,,,,,54,,,,,,,,,,,,,,295.0100000119128,,response,,,,100,,,,,,,Space,keypress(Space),,,,,,,,-- --- ---- --- ------ ----- ------- ---- -- --- ------- --<br>------- ---------- ------ -- ----- -- ----- -- ---- ------<br>--- ----- --- --- ------ -------- ----- --- ------ ----- --<br>these ----- ---------- --- --- ------ ------ ---- -- ------<br>------- --- ------ ----- --- ---- ------- -- ---- --- --<br>------- ------,175165.39999997616,175163.80000001192,174852.137,174858.59999996424,174868.79,175168.655,,33,these
screen,html.Screen,2_1_1_1_34,2022-05-02T13:55:16.126Z,,,,,,,,,,,,,,,,,54,,,,,,,,,,,,,,343.9449999642384,,response,,,,100,,,,,,,Space,keypress(Space),,,,,,,,-- --- ---- --- ------ ----- ------- ---- -- --- ------- --<br>------- ---------- ------ -- ----- -- ----- -- ---- ------<br>--- ----- --- --- ------ -------- ----- --- ------ ----- --<br>----- bonds ---------- --- --- ------ ------ ---- -- ------<br>------- --- ------ ----- --- ---- ------- -- ---- --- --<br>------- ------,175514.09999996424,175512.59999996424,175152.016,175165.69999998808,175168.655,175518.466,,34,bonds
screen,html.Screen,2_1_1_1_35,2022-05-02T13:55:16.487Z,,,,,,,,,,,,,,,,,54,,,,,,,,,,,,,,355.0340000000142,,response,,,,100,,,,,,,Space,keypress(Space),,,,,,,,"-- --- ---- --- ------ ----- ------- ---- -- --- ------- --<br>------- ---------- ------ -- ----- -- ----- -- ---- ------<br>--- ----- --- --- ------ -------- ----- --- ------ ----- --<br>----- ----- plummeted, --- --- ------ ------ ---- -- ------<br>------- --- ------ ----- --- ---- ------- -- ---- --- --<br>------- ------",175875,175873.5,175501.933,175514.39999997616,175518.466,175885.052,,35,"plummeted,"
screen,html.Screen,2_1_1_1_36,2022-05-02T13:55:16.897Z,,,,,,,,,,,,,,,,,54,,,,,,,,,,,,,,398.64799998808303,,response,,,,100,,,,,,,Space,keypress(Space),,,,,,,,-- --- ---- --- ------ ----- ------- ---- -- --- ------- --<br>------- ---------- ------ -- ----- -- ----- -- ---- ------<br>--- ----- --- --- ------ -------- ----- --- ------ ----- --<br>----- ----- ---------- and --- ------ ------ ---- -- ------<br>------- --- ------ ----- --- ---- ------- -- ---- --- --<br>------- ------,176285.19999998808,176283.69999998808,175868.422,175875.19999998808,175885.052,176301.537,,36,and
screen,html.Screen,2_1_1_1_37,2022-05-02T13:55:17.393Z,,,,,,,,,,,,,,,,,54,,,,,,,,,,,,,,478.4629999999888,,response,,,,100,,,,,,,Space,keypress(Space),,,,,,,,-- --- ---- --- ------ ----- ------- ---- -- --- ------- --<br>------- ---------- ------ -- ----- -- ----- -- ---- ------<br>--- ----- --- --- ------ -------- ----- --- ------ ----- --<br>----- ----- ---------- --- the ------ ------ ---- -- ------<br>------- --- ------ ----- --- ---- ------- -- ---- --- --<br>------- ------,176781.39999997616,176780,176284.833,176285.39999997616,176301.537,176784.544,,37,the
screen,html.Screen,2_1_1_1_38,2022-05-02T13:55:17.768Z,,,,,,,,,,,,,,,,,54,,,,,,,,,,,,,,369.4560000000056,,response,,,,100,,,,,,,Space,keypress(Space),,,,,,,,-- --- ---- --- ------ ----- ------- ---- -- --- ------- --<br>------- ---------- ------ -- ----- -- ----- -- ---- ------<br>--- ----- --- --- ------ -------- ----- --- ------ ----- --<br>----- ----- ---------- --- --- market ------ ---- -- ------<br>------- --- ------ ----- --- ---- ------- -- ---- --- --<br>------- ------,177156.39999997616,177154,176767.999,176781.69999998808,176784.544,177167.744,,38,market
screen,html.Screen,2_1_1_1_39,2022-05-02T13:55:18.124Z,,,,,,,,,,,,,,,,,54,,,,,,,,,,,,,,343.0560000119149,,response,,,,100,,,,,,,Space,keypress(Space),,,,,,,,-- --- ---- --- ------ ----- ------- ---- -- --- ------- --<br>------- ---------- ------ -- ----- -- ----- -- ---- ------<br>--- ----- --- --- ------ -------- ----- --- ------ ----- --<br>----- ----- ---------- --- --- ------ became ---- -- ------<br>------- --- ------ ----- --- ---- ------- -- ---- --- --<br>------- ------,177512.39999997616,177510.80000001192,177151.186,177156.59999996424,177167.744,177517.542,,39,became
screen,html.Screen,2_1_1_1_40,2022-05-02T13:55:18.532Z,,,,,,,,,,,,,,,,,54,,,,,,,,,,,,,,401.45800000001327,,response,,,,100,,,,,,,Space,keypress(Space),,,,,,,,-- --- ---- --- ------ ----- ------- ---- -- --- ------- --<br>------- ---------- ------ -- ----- -- ----- -- ---- ------<br>--- ----- --- --- ------ -------- ----- --- ------ ----- --<br>----- ----- ---------- --- --- ------ ------ wary -- ------<br>------- --- ------ ----- --- ---- ------- -- ---- --- --<br>------- ------,177920.59999996424,177919,177501.02,177512.69999998808,177517.542,177934.1,,40,wary
screen,html.Screen,2_1_1_1_41,2022-05-02T13:55:18.924Z,,,,,,,,,,,,,,,,,54,,,,,,,,,,,,,,376.2000000119151,,response,,,,100,,,,,,,Space,keypress(Space),,,,,,,,-- --- ---- --- ------ ----- ------- ---- -- --- ------- --<br>------- ---------- ------ -- ----- -- ----- -- ---- ------<br>--- ----- --- --- ------ -------- ----- --- ------ ----- --<br>----- ----- ---------- --- --- ------ ------ ---- of ------<br>------- --- ------ ----- --- ---- ------- -- ---- --- --<br>------- ------,178312.19999998808,178310.30000001192,177917.519,177920.80000001192,177934.1,178317.184,,41,of
screen,html.Screen,2_1_1_1_42,2022-05-02T13:55:19.263Z,,,,,,,,,,,,,,,,,54,,,,,,,,,,,,,,332.61600001191255,,response,,,,100,,,,,,,Space,keypress(Space),,,,,,,,-- --- ---- --- ------ ----- ------- ---- -- --- ------- --<br>------- ---------- ------ -- ----- -- ----- -- ---- ------<br>--- ----- --- --- ------ -------- ----- --- ------ ----- --<br>----- ----- ---------- --- --- ------ ------ ---- -- French<br>------- --- ------ ----- --- ---- ------- -- ---- --- --<br>------- ------,178651.5,178649.80000001192,178300.589,178312.30000001192,178317.184,178667.052,,42,French
screen,html.Screen,2_1_1_1_43,2022-05-02T13:55:19.697Z,,,,,,,,,,,,,,,,,54,,,,,,,,,,,,,,416.54799996424117,,response,,,,100,,,,,,,Space,keypress(Space),,,,,,,,-- --- ---- --- ------ ----- ------- ---- -- --- ------- --<br>------- ---------- ------ -- ----- -- ----- -- ---- ------<br>--- ----- --- --- ------ -------- ----- --- ------ ----- --<br>----- ----- ---------- --- --- ------ ------ ---- -- ------<br>credit. --- ------ ----- --- ---- ------- -- ---- --- --<br>------- ------,179085.09999996424,179083.59999996424,178650.513,178651.69999998808,178667.052,179100.253,,43,credit.
screen,html.Screen,2_1_1_1_44,2022-05-02T13:55:20.222Z,,,,,,,,,,,,,,,,,54,,,,,,,,,,,,,,508.747000000003,,response,,,,100,,,,,,,Space,keypress(Space),,,,,,,,-- --- ---- --- ------ ----- ------- ---- -- --- ------- --<br>------- ---------- ------ -- ----- -- ----- -- ---- ------<br>--- ----- --- --- ------ -------- ----- --- ------ ----- --<br>----- ----- ---------- --- --- ------ ------ ---- -- ------<br>------- The ------ ----- --- ---- ------- -- ---- --- --<br>------- ------,179610.69999998808,179609,179083.613,179085.39999997616,179100.253,179616.605,,44,The
screen,html.Screen,2_1_1_1_45,2022-05-02T13:55:20.622Z,,,,,,,,,,,,,,,,,54,,,,,,,,,,,,,,391.79499997614766,,response,,,,100,,,,,,,Space,keypress(Space),,,,,,,,-- --- ---- --- ------ ----- ------- ---- -- --- ------- --<br>------- ---------- ------ -- ----- -- ----- -- ---- ------<br>--- ----- --- --- ------ -------- ----- --- ------ ----- --<br>----- ----- ---------- --- --- ------ ------ ---- -- ------<br>------- --- French ----- --- ---- ------- -- ---- --- --<br>------- ------,180010.09999996424,180008.39999997616,179600.056,179610.89999997616,179616.605,180016.436,,45,French
screen,html.Screen,2_1_1_1_46,2022-05-02T13:55:21.057Z,,,,,,,,,,,,,,,,,54,,,,,,,,,,,,,,426.56400000001304,,response,,,,100,,,,,,,Space,keypress(Space),,,,,,,,-- --- ---- --- ------ ----- ------- ---- -- --- ------- --<br>------- ---------- ------ -- ----- -- ----- -- ---- ------<br>--- ----- --- --- ------ -------- ----- --- ------ ----- --<br>----- ----- ---------- --- --- ------ ------ ---- -- ------<br>------- --- ------ state --- ---- ------- -- ---- --- --<br>------- ------,180445.5,180443,179999.896,180010.30000001192,180016.436,180449.553,,46,state
screen,html.Screen,2_1_1_1_47,2022-05-02T13:55:21.440Z,,,,,,,,,,,,,,,,,54,,,,,,,,,,,,,,376.7470000119065,,response,,,,100,,,,,,,Space,keypress(Space),,,,,,,,-- --- ---- --- ------ ----- ------- ---- -- --- ------- --<br>------- ---------- ------ -- ----- -- ----- -- ---- ------<br>--- ----- --- --- ------ -------- ----- --- ------ ----- --<br>----- ----- ---------- --- --- ------ ------ ---- -- ------<br>------- --- ------ ----- was ---- ------- -- ---- --- --<br>------- ------,180828.09999996424,180826.30000001192,180433.063,180445.80000001192,180449.553,180832.664,,47,was
screen,html.Screen,2_1_1_1_48,2022-05-02T13:55:21.791Z,,,,,,,,,,,,,,,,,54,,,,,,,,,,,,,,345.1360000119312,,response,,,,100,,,,,,,Space,keypress(Space),,,,,,,,-- --- ---- --- ------ ----- ------- ---- -- --- ------- --<br>------- ---------- ------ -- ----- -- ----- -- ---- ------<br>--- ----- --- --- ------ -------- ----- --- ------ ----- --<br>----- ----- ---------- --- --- ------ ------ ---- -- ------<br>------- --- ------ ----- --- left ------- -- ---- --- --<br>------- ------,181179.30000001192,181177.80000001192,180816.124,180828.30000001192,180832.664,181182.585,,48,left
screen,html.Screen,2_1_1_1_49,2022-05-02T13:55:22.136Z,,,,,,,,,,,,,,,,,54,,,,,,,,,,,,,,340.1149999880872,,response,,,,100,,,,,,,Space,keypress(Space),,,,,,,,-- --- ---- --- ------ ----- ------- ---- -- --- ------- --<br>------- ---------- ------ -- ----- -- ----- -- ---- ------<br>--- ----- --- --- ------ -------- ----- --- ------ ----- --<br>----- ----- ---------- --- --- ------ ------ ---- -- ------<br>------- --- ------ ----- --- ---- without -- ---- --- --<br>------- ------,181524.30000001192,181522.69999998808,181166.031,181179.59999996424,181182.585,181532.477,,49,without
screen,html.Screen,2_1_1_1_50,2022-05-02T13:55:22.513Z,,,,,,,,,,,,,,,,,54,,,,,,,,,,,,,,367.1229999642237,,response,,,,100,,,,,,,Space,keypress(Space),,,,,,,,-- --- ---- --- ------ ----- ------- ---- -- --- ------- --<br>------- ---------- ------ -- ----- -- ----- -- ---- ------<br>--- ----- --- --- ------ -------- ----- --- ------ ----- --<br>----- ----- ---------- --- --- ------ ------ ---- -- ------<br>------- --- ------ ----- --- ---- ------- an ---- --- --<br>------- ------,181901.30000001192,181899.59999996424,181515.813,181524.5,181532.477,181915.581,,50,an
screen,html.Screen,2_1_1_1_51,2022-05-02T13:55:22.880Z,,,,,,,,,,,,,,,,,54,,,,,,,,,,,,,,350.71900001191534,,response,,,,100,,,,,,,Space,keypress(Space),,,,,,,,-- --- ---- --- ------ ----- ------- ---- -- --- ------- --<br>------- ---------- ------ -- ----- -- ----- -- ---- ------<br>--- ----- --- --- ------ -------- ----- --- ------ ----- --<br>----- ----- ---------- --- --- ------ ------ ---- -- ------<br>------- --- ------ ----- --- ---- ------- -- easy --- --<br>------- ------,182267.89999997616,182266.30000001192,181898.997,181901.59999996424,181915.581,182282.175,,51,easy
screen,html.Screen,2_1_1_1_52,2022-05-02T13:55:23.244Z,,,,,,,,,,,,,,,,,54,,,,,,,,,,,,,,349.0249999880907,,response,,,,100,,,,,,,Space,keypress(Space),,,,,,,,-- --- ---- --- ------ ----- ------- ---- -- --- ------- --<br>------- ---------- ------ -- ----- -- ----- -- ---- ------<br>--- ----- --- --- ------ -------- ----- --- ------ ----- --<br>----- ----- ---------- --- --- ------ ------ ---- -- ------<br>------- --- ------ ----- --- ---- ------- -- ---- way --<br>------- ------,182632.80000001192,182631.19999998808,182265.516,182268.09999996424,182282.175,182648.615,,52,way
screen,html.Screen,2_1_1_1_53,2022-05-02T13:55:23.580Z,,,,,,,,,,,,,,,,,54,,,,,,,,,,,,,,318.5849999880884,,response,,,,100,,,,,,,Space,keypress(Space),,,,,,,,-- --- ---- --- ------ ----- ------- ---- -- --- ------- --<br>------- ---------- ------ -- ----- -- ----- -- ---- ------<br>--- ----- --- --- ------ -------- ----- --- ------ ----- --<br>----- ----- ---------- --- --- ------ ------ ---- -- ------<br>------- --- ------ ----- --- ---- ------- -- ---- --- of<br>------- ------,182968.80000001192,182967.19999998808,182631.96,182633,182648.615,182981.766,,53,of
screen,html.Screen,2_1_1_1_54,2022-05-02T13:55:23.937Z,,,,,,,,,,,,,,,,,54,,,,,,,,,,,,,,342.73399999999674,,response,,,,100,,,,,,,Space,keypress(Space),,,,,,,,-- --- ---- --- ------ ----- ------- ---- -- --- ------- --<br>------- ---------- ------ -- ----- -- ----- -- ---- ------<br>--- ----- --- --- ------ -------- ----- --- ------ ----- --<br>----- ----- ---------- --- --- ------ ------ ---- -- ------<br>------- --- ------ ----- --- ---- ------- -- ---- --- --<br>raising ------,183326.09999996424,183324.5,182965.138,182969,182981.766,183331.593,,54,raising
screen,html.Screen,2_1_1_1_55,2022-05-02T13:55:24.387Z,,,,,,,,,,,,,,,,,54,,,,,,,,,,,,,,443.30699997616466,,response,,,,100,,,,,,,Space,keypress(Space),,,,,,,,-- --- ---- --- ------ ----- ------- ---- -- --- ------- --<br>------- ---------- ------ -- ----- -- ----- -- ---- ------<br>--- ----- --- --- ------ -------- ----- --- ------ ----- --<br>----- ----- ---------- --- --- ------ ------ ---- -- ------<br>------- --- ------ ----- --- ---- ------- -- ---- --- --<br>------- money.,183776.5,183774.89999997616,183314.966,183326.39999997616,183331.593,183781.407,,55,money.
Item 100,flow.Loop,2_1_1_1,2022-05-02T13:55:24.388Z,,,,,,,,,,,,,,,,,,,,,,,,,,,,,,,23716.011999976152,,completion,,,,,G,,,,,,,,,,,silence,,,,,183776.89999997616,183774.89999997616,160042.257,160043.30000001192,160058.888,183781.407,,,
Question 1,html.Screen,2_1_1_2,2022-05-02T13:55:26.756Z,,,,,,,,,,,,,,,,,,,,,,,,,,,,true,TRUE,,2362.2929999880726,,response,,,,100,G,,,,,,TRUE,click #choice-1,,,,silence,,,,,186144.5,186143.69999998808,183764.734,183777,183781.407,186146.896,,,
Question 2,html.Screen,2_1_1_3,2022-05-02T13:55:31.276Z,,,,,,,,,,,,,,,,,,,,,,,,,,,,true,FALSE,,4516.904000011913,,response,,,,100,G,,,,,,FALSE,click #choice-2,,,,silence,,,,,190664.5,190663.80000001192,186130.431,186144.69999998808,186146.896,190678.291,,,
Item 100,flow.Sequence,2_1_1,2022-05-02T13:55:31.276Z,,,,,,,,,,,,,,,,,,,,,,,,,,,,,,,40600.460000011924,,completion,,,,,,,,,,,,,,,,,,,,,190664.59999996424,190663.80000001192,150046.797,150056.69999998808,150063.34,190678.291,,,
End of Practice,html.Page,2_1_2,2022-05-02T13:55:33.148Z,,,,,,,,,,,,,,,,,,,,,,,,,,,,,,,1858.3089999642398,,form submission,,,,,,,,,,,,,,,,,,,,,192536.80000001192,192536.59999996424,190661.575,190664.69999998808,190678.291,192560.735,,,
Practice,flow.Sequence,2_1,2022-05-02T13:55:33.148Z,,,,,,,,,,,,,,,,,,,,,,,,,,,,,,,94566.23999996424,,completion,,,,,,,,,,,,,,,,,,,,,192536.89999997616,192536.59999996424,97953.749,97961.19999998808,97970.36,192560.735,,,
Trap_instruction,html.Page,2_2_0,2022-05-02T13:55:34.692Z,,,,,,,,,,,,,,,,,,,,,,,,,,,,,,,1520.065000011935,,form submission,,,,,,,,,,,,,,,,,,,,,194081.09999996424,194080.80000001192,192544.009,192536.89999997616,192560.735,194093.286,,,
trap_trial,html.Screen,2_2_1,2022-05-02T13:55:37.404Z,,,,,,,,,,,,,,,,,,,,,,,,,,,,true,1,,2698.4139999880863,,response,,,,,,,,,,,1,click #choice-1,,,,,,,,,196792.69999998808,196791.69999998808,194076.781,194081.09999996424,194093.286,196808.902,,,
end of trap trial,html.Page,2_2_2,2022-05-02T13:55:38.652Z,,,,,,,,,,,,,,,,,,,,,,,,,,,,,,,1231.9979999761563,,form submission,,,,,,,,,,,,,,,,,,,,,198041,198040.89999997616,196792.129,196792.80000001192,196808.902,198041.48,,,
Trap 1,flow.Sequence,2_2,2022-05-02T13:55:38.652Z,,,,,,,,,,,,,,,,,,,,,,,,,,,,,,,5480.164999976172,,completion,,,,,,,,,,,,,,,,,,,,,198041.19999998808,198040.89999997616,192544.009,192536.89999997616,192560.735,198041.48,,,
Standby,html.Page,2_3_0,2022-05-02T13:55:46.633Z,,,,,,,,,,,,,,,,,,,,,,,,,,,,,,,7996.473999999987,,timeout,,,,,,,,,,,,,,,,,,,,,206022.30000001192,206021.298,198024.995,198041.19999998808,198041.48,206037.954,,,
Holding screen,html.Screen,2_3_1_0_0,2022-05-02T13:55:53.630Z,,,,,,,,,,,,,,,,,,,,,,,,,,,,,,,6996.758999999991,,timeout,,,,,,,,,,,,,,,,,,,,,213019.19999998808,213018.139,206021.298,206022.69999998808,206037.954,213034.713,,,
screen,html.Screen,2_3_1_0_1_0,2022-05-02T13:55:55.993Z,,,,,,,,,,,,,,,,,51,,,,,,,,,,,,,,2345.087000011932,,response,,,,13,G,,,,,,Space,keypress(Space),,,,instrumental,,,,American -------- --- --- ---- --- --- ------ -- --------<br>---- --------- --- ------- ------------ ---------- ---------<br>--- ---------- ------- ---------- ------- -- -------- ----<br>---- --- ------ ----- ------ -- ---- --- ----- -- - -------<br>-------- -- --- --- -- ----- ----------- ----- -----------<br>---- --- ---------- --- ---- --- -- ----------,215381.5,215379.80000001192,213018.139,213019.5,213034.713,215383.643,,0,American
screen,html.Screen,2_3_1_0_1_1,2022-05-02T13:55:56.485Z,,,,,,,,,,,,,,,,,51,,,,,,,,,,,,,,488.95699996422627,,response,,,,13,G,,,,,,Space,keypress(Space),,,,instrumental,,,,-------- industry --- --- ---- --- --- ------ -- --------<br>---- --------- --- ------- ------------ ---------- ---------<br>--- ---------- ------- ---------- ------- -- -------- ----<br>---- --- ------ ----- ------ -- ---- --- ----- -- - -------<br>-------- -- --- --- -- ----- ----------- ----- -----------<br>---- --- ---------- --- ---- --- -- ----------,215873.89999997616,215872.59999996424,215367.238,215381.69999998808,215383.643,215883.45,,1,industry
screen,html.Screen,2_3_1_0_1_2,2022-05-02T13:55:56.924Z,,,,,,,,,,,,,,,,,51,,,,,,,,,,,,,,428.24999998806743,,response,,,,13,G,,,,,,Space,keypress(Space),,,,instrumental,,,,-------- -------- may --- ---- --- --- ------ -- --------<br>---- --------- --- ------- ------------ ---------- ---------<br>--- ---------- ------- ---------- ------- -- -------- ----<br>---- --- ------ ----- ------ -- ---- --- ----- -- - -------<br>-------- -- --- --- -- ----- ----------- ----- -----------<br>---- --- ---------- --- ---- --- -- ----------,216313,216311.69999998808,215866.892,215874.09999996424,215883.45,216316.565,,2,may
screen,html.Screen,2_3_1_0_1_3,2022-05-02T13:55:57.340Z,,,,,,,,,,,,,,,,,51,,,,,,,,,,,,,,411.0349999642349,,response,,,,13,G,,,,,,Space,keypress(Space),,,,instrumental,,,,-------- -------- --- not ---- --- --- ------ -- --------<br>---- --------- --- ------- ------------ ---------- ---------<br>--- ---------- ------- ---------- ------- -- -------- ----<br>---- --- ------ ----- ------ -- ---- --- ----- -- - -------<br>-------- -- --- --- -- ----- ----------- ----- -----------<br>---- --- ---------- --- ---- --- -- ----------,216728.89999997616,216727.59999996424,216300.01,216313.19999998808,216316.565,216733.027,,3,not
screen,html.Screen,2_3_1_0_1_4,2022-05-02T13:55:57.798Z,,,,,,,,,,,,,,,,,51,,,,,,,,,,,,,,451.97299999999814,,response,,,,13,G,,,,,,Space,keypress(Space),,,,instrumental,,,,-------- -------- --- --- know --- --- ------ -- --------<br>---- --------- --- ------- ------------ ---------- ---------<br>--- ---------- ------- ---------- ------- -- -------- ----<br>---- --- ------ ----- ------ -- ---- --- ----- -- - -------<br>-------- -- --- --- -- ----- ----------- ----- -----------<br>---- --- ---------- --- ---- --- -- ----------,217186.59999996424,217185,216716.521,216729.09999996424,216733.027,217199.494,,4,know
screen,html.Screen,2_3_1_0_1_5,2022-05-02T13:55:58.253Z,,,,,,,,,,,,,,,,,51,,,,,,,,,,,,,,441.10599996423116,,response,,,,13,G,,,,,,Space,keypress(Space),,,,instrumental,,,,"-------- -------- --- --- ---- it, --- ------ -- --------<br>---- --------- --- ------- ------------ ---------- ---------<br>--- ---------- ------- ---------- ------- -- -------- ----<br>---- --- ------ ----- ------ -- ---- --- ----- -- - -------<br>-------- -- --- --- -- ----- ----------- ----- -----------<br>---- --- ---------- --- ---- --- -- ----------",217641.89999997616,217640.59999996424,217182.96,217186.80000001192,217199.494,217649.345,,5,"it,"
screen,html.Screen,2_3_1_0_1_6,2022-05-02T13:55:58.661Z,,,,,,,,,,,,,,,,,51,,,,,,,,,,,,,,399.95500001191976,,response,,,,13,G,,,,,,Space,keypress(Space),,,,instrumental,,,,-------- -------- --- --- ---- --- but ------ -- --------<br>---- --------- --- ------- ------------ ---------- ---------<br>--- ---------- ------- ---------- ------- -- -------- ----<br>---- --- ------ ----- ------ -- ---- --- ----- -- - -------<br>-------- -- --- --- -- ----- ----------- ----- -----------<br>---- --- ---------- --- ---- --- -- ----------,218050.39999997616,218049.30000001192,217632.743,217642.19999998808,217649.345,218065.805,,6,but
screen,html.Screen,2_3_1_0_1_7,2022-05-02T13:55:58.994Z,,,,,,,,,,,,,,,,,51,,,,,,,,,,,,,,316.195000000007,,response,,,,13,G,,,,,,Space,keypress(Space),,,,instrumental,,,,-------- -------- --- --- ---- --- --- debate -- --------<br>---- --------- --- ------- ------------ ---------- ---------<br>--- ---------- ------- ---------- ------- -- -------- ----<br>---- --- ------ ----- ------ -- ---- --- ----- -- - -------<br>-------- -- --- --- -- ----- ----------- ----- -----------<br>---- --- ---------- --- ---- --- -- ----------,218383.30000001192,218382,218049.248,218050.59999996424,218065.805,218399.065,,7,debate
screen,html.Screen,2_3_1_0_1_8,2022-05-02T13:55:59.368Z,,,,,,,,,,,,,,,,,51,,,,,,,,,,,,,,356.4349999999977,,response,,,,13,G,,,,,,Space,keypress(Space),,,,instrumental,,,,-------- -------- --- --- ---- --- --- ------ in --------<br>---- --------- --- ------- ------------ ---------- ---------<br>--- ---------- ------- ---------- ------- -- -------- ----<br>---- --- ------ ----- ------ -- ---- --- ----- -- - -------<br>-------- -- --- --- -- ----- ----------- ----- -----------<br>---- --- ---------- --- ---- --- -- ----------,218756.80000001192,218755.5,218382.38,218383.5,218399.065,218765.546,,8,in
screen,html.Screen,2_3_1_0_1_9,2022-05-02T13:55:59.724Z,,,,,,,,,,,,,,,,,51,,,,,,,,,,,,,,345.9539999999979,,response,,,,13,G,,,,,,Space,keypress(Space),,,,instrumental,,,,-------- -------- --- --- ---- --- --- ------ -- Congress<br>---- --------- --- ------- ------------ ---------- ---------<br>--- ---------- ------- ---------- ------- -- -------- ----<br>---- --- ------ ----- ------ -- ---- --- ----- -- - -------<br>-------- -- --- --- -- ----- ----------- ----- -----------<br>---- --- ---------- --- ---- --- -- ----------,219112.89999997616,219111.5,218748.991,218757,218765.546,219115.273,,9,Congress
screen,html.Screen,2_3_1_0_1_10,2022-05-02T13:56:00.052Z,,,,,,,,,,,,,,,,,51,,,,,,,,,,,,,,325.2270000000135,,response,,,,13,G,,,,,,Space,keypress(Space),,,,instrumental,,,,-------- -------- --- --- ---- --- --- ------ -- --------<br>over --------- --- ------- ------------ ---------- ---------<br>--- ---------- ------- ---------- ------- -- -------- ----<br>---- --- ------ ----- ------ -- ---- --- ----- -- - -------<br>-------- -- --- --- -- ----- ----------- ----- -----------<br>---- --- ---------- --- ---- --- -- ----------,219441.30000001192,219440.5,219098.75,219113,219115.273,219448.406,,10,over
screen,html.Screen,2_3_1_0_1_11,2022-05-02T13:56:00.443Z,,,,,,,,,,,,,,,,,51,,,,,,,,,,,,,,382.0940000000119,,response,,,,13,G,,,,,,Space,keypress(Space),,,,instrumental,,,,-------- -------- --- --- ---- --- --- ------ -- --------<br>---- reforming --- ------- ------------ ---------- ---------<br>--- ---------- ------- ---------- ------- -- -------- ----<br>---- --- ------ ----- ------ -- ---- --- ----- -- - -------<br>-------- -- --- --- -- ----- ----------- ----- -----------<br>---- --- ---------- --- ---- --- -- ----------,219832,219830.5,219431.849,219441.30000001192,219448.406,219848.385,,11,reforming
screen,html.Screen,2_3_1_0_1_12,2022-05-02T13:56:00.988Z,,,,,,,,,,,,,,,,,51,,,,,,,,,,,,,,527.1149999999907,,response,,,,13,G,,,,,,Space,keypress(Space),,,,instrumental,,,,-------- -------- --- --- ---- --- --- ------ -- --------<br>---- --------- the ------- ------------ ---------- ---------<br>--- ---------- ------- ---------- ------- -- -------- ----<br>---- --- ------ ----- ------ -- ---- --- ----- -- - -------<br>-------- -- --- --- -- ----- ----------- ----- -----------<br>---- --- ---------- --- ---- --- -- ----------,220377.09999996424,220375.5,219831.683,219832.19999998808,219848.385,220381.378,,12,the
screen,html.Screen,2_3_1_0_1_13,2022-05-02T13:56:01.453Z,,,,,,,,,,,,,,,,,51,,,,,,,,,,,,,,459.3219999880821,,response,,,,13,G,,,,,,Space,keypress(Space),,,,instrumental,,,,-------- -------- --- --- ---- --- --- ------ -- --------<br>---- --------- --- federal ------------ ---------- ---------<br>--- ---------- ------- ---------- ------- -- -------- ----<br>---- --- ------ ----- ------ -- ---- --- ----- -- - -------<br>-------- -- --- --- -- ----- ----------- ----- -----------<br>---- --- ---------- --- ---- --- -- ----------,220842.19999998808,220840.69999998808,220364.823,220377.19999998808,220381.378,220847.82,,13,federal
screen,html.Screen,2_3_1_0_1_14,2022-05-02T13:56:01.776Z,,,,,,,,,,,,,,,,,51,,,,,,,,,,,,,,315.2799999642302,,response,,,,13,G,,,,,,Space,keypress(Space),,,,instrumental,,,,-------- -------- --- --- ---- --- --- ------ -- --------<br>---- --------- --- ------- government's ---------- ---------<br>--- ---------- ------- ---------- ------- -- -------- ----<br>---- --- ------ ----- ------ -- ---- --- ----- -- - -------<br>-------- -- --- --- -- ----- ----------- ----- -----------<br>---- --- ---------- --- ---- --- -- ----------,221164.59999996424,221163.09999996424,220831.23,220842.39999997616,220847.82,221181.103,,14,government's
screen,html.Screen,2_3_1_0_1_15,2022-05-02T13:56:02.187Z,,,,,,,,,,,,,,,,,51,,,,,,,,,,,,,,394.19700001191813,,response,,,,13,G,,,,,,Space,keypress(Space),,,,instrumental,,,,-------- -------- --- --- ---- --- --- ------ -- --------<br>---- --------- --- ------- ------------ regulatory ---------<br>--- ---------- ------- ---------- ------- -- -------- ----<br>---- --- ------ ----- ------ -- ---- --- ----- -- - -------<br>-------- -- --- --- -- ----- ----------- ----- -----------<br>---- --- ---------- --- ---- --- -- ----------,221576.19999998808,221575.30000001192,221164.434,221165,221181.103,221580.791,,15,regulatory
screen,html.Screen,2_3_1_0_1_16,2022-05-02T13:56:02.831Z,,,,,,,,,,,,,,,,,51,,,,,,,,,,,,,,637.6089999761607,,response,,,,13,G,,,,,,Space,keypress(Space),,,,instrumental,,,,-------- -------- --- --- ---- --- --- ------ -- --------<br>---- --------- --- ------- ------------ ---------- apparatus<br>--- ---------- ------- ---------- ------- -- -------- ----<br>---- --- ------ ----- ------ -- ---- --- ----- -- - -------<br>-------- -- --- --- -- ----- ----------- ----- -----------<br>---- --- ---------- --- ---- --- -- ----------,222220.09999996424,222218.39999997616,221564.255,221576.39999997616,221580.791,222230.649,,16,apparatus
screen,html.Screen,2_3_1_0_1_17,2022-05-02T13:56:03.227Z,,,,,,,,,,,,,,,,,51,,,,,,,,,,,,,,383.0509999880742,,response,,,,13,G,,,,,,Space,keypress(Space),,,,instrumental,,,,-------- -------- --- --- ---- --- --- ------ -- --------<br>---- --------- --- ------- ------------ ---------- ---------<br>may ---------- ------- ---------- ------- -- -------- ----<br>---- --- ------ ----- ------ -- ---- --- ----- -- - -------<br>-------- -- --- --- -- ----- ----------- ----- -----------<br>---- --- ---------- --- ---- --- -- ----------,222615.69999998808,222613.69999998808,222213.974,222220.30000001192,222230.649,222630.396,,17,may
screen,html.Screen,2_3_1_0_1_18,2022-05-02T13:56:03.767Z,,,,,,,,,,,,,,,,,51,,,,,,,,,,,,,,524.1039999999921,,response,,,,13,G,,,,,,Space,keypress(Space),,,,instrumental,,,,-------- -------- --- --- ---- --- --- ------ -- --------<br>---- --------- --- ------- ------------ ---------- ---------<br>--- profoundly ------- ---------- ------- -- -------- ----<br>---- --- ------ ----- ------ -- ---- --- ----- -- - -------<br>-------- -- --- --- -- ----- ----------- ----- -----------<br>---- --- ---------- --- ---- --- -- ----------,223156.5,223154.5,222613.821,222615.89999997616,222630.396,223163.476,,18,profoundly
screen,html.Screen,2_3_1_0_1_19,2022-05-02T13:56:04.129Z,,,,,,,,,,,,,,,,,51,,,,,,,,,,,,,,353.22399998808396,,response,,,,13,G,,,,,,Space,keypress(Space),,,,instrumental,,,,-------- -------- --- --- ---- --- --- ------ -- --------<br>---- --------- --- ------- ------------ ---------- ---------<br>--- ---------- improve ---------- ------- -- -------- ----<br>---- --- ------ ----- ------ -- ---- --- ----- -- - -------<br>-------- -- --- --- -- ----- ----------- ----- -----------<br>---- --- ---------- --- ---- --- -- ----------,223518.30000001192,223516.69999998808,223146.908,223156.69999998808,223163.476,223530.044,,19,improve
screen,html.Screen,2_3_1_0_1_20,2022-05-02T13:56:04.564Z,,,,,,,,,,,,,,,,,51,,,,,,,,,,,,,,421.15599998808466,,response,,,,13,G,,,,,,Space,keypress(Space),,,,instrumental,,,,-------- -------- --- --- ---- --- --- ------ -- --------<br>---- --------- --- ------- ------------ ---------- ---------<br>--- ---------- ------- companies' ------- -- -------- ----<br>---- --- ------ ----- ------ -- ---- --- ----- -- - -------<br>-------- -- --- --- -- ----- ----------- ----- -----------<br>---- --- ---------- --- ---- --- -- ----------,223952.80000001192,223951.19999998808,223513.418,223518.39999997616,223530.044,223963.164,,20,companies'
screen,html.Screen,2_3_1_0_1_21,2022-05-02T13:56:05.051Z,,,,,,,,,,,,,,,,,51,,,,,,,,,,,,,,475.0359999880893,,response,,,,13,G,,,,,,Space,keypress(Space),,,,instrumental,,,,-------- -------- --- --- ---- --- --- ------ -- --------<br>---- --------- --- ------- ------------ ---------- ---------<br>--- ---------- ------- ---------- ability -- -------- ----<br>---- --- ------ ----- ------ -- ---- --- ----- -- - -------<br>-------- -- --- --- -- ----- ----------- ----- -----------<br>---- --- ---------- --- ---- --- -- ----------,224439.89999997616,224438.19999998808,223946.443,223953.09999996424,223963.164,224446.192,,21,ability
screen,html.Screen,2_3_1_0_1_22,2022-05-02T13:56:05.547Z,,,,,,,,,,,,,,,,,51,,,,,,,,,,,,,,487.9079999642272,,response,,,,13,G,,,,,,Space,keypress(Space),,,,instrumental,,,,-------- -------- --- --- ---- --- --- ------ -- --------<br>---- --------- --- ------- ------------ ---------- ---------<br>--- ---------- ------- ---------- ------- to -------- ----<br>---- --- ------ ----- ------ -- ---- --- ----- -- - -------<br>-------- -- --- --- -- ----- ----------- ----- -----------<br>---- --- ---------- --- ---- --- -- ----------,224935.89999997616,224934.09999996424,224429.684,224440.09999996424,224446.192,224946.009,,22,to
screen,html.Screen,2_3_1_0_1_23,2022-05-02T13:56:05.965Z,,,,,,,,,,,,,,,,,51,,,,,,,,,,,,,,406.19099998808815,,response,,,,13,G,,,,,,Space,keypress(Space),,,,instrumental,,,,-------- -------- --- --- ---- --- --- ------ -- --------<br>---- --------- --- ------- ------------ ---------- ---------<br>--- ---------- ------- ---------- ------- -- survive. ----<br>---- --- ------ ----- ------ -- ---- --- ----- -- - -------<br>-------- -- --- --- -- ----- ----------- ----- -----------<br>---- --- ---------- --- ---- --- -- ----------,225354.19999998808,225352.19999998808,224929.389,224936.19999998808,224946.009,225362.454,,23,survive.
screen,html.Screen,2_3_1_0_1_24,2022-05-02T13:56:06.519Z,,,,,,,,,,,,,,,,,51,,,,,,,,,,,,,,544.1459999642393,,response,,,,13,G,,,,,,Space,keypress(Space),,,,instrumental,,,,-------- -------- --- --- ---- --- --- ------ -- --------<br>---- --------- --- ------- ------------ ---------- ---------<br>--- ---------- ------- ---------- ------- -- -------- This<br>---- --- ------ ----- ------ -- ---- --- ----- -- - -------<br>-------- -- --- --- -- ----- ----------- ----- -----------<br>---- --- ---------- --- ---- --- -- ----------,225908.19999998808,225906.59999996424,225345.801,225354.39999997616,225362.454,225912.205,,24,This
screen,html.Screen,2_3_1_0_1_25,2022-05-02T13:56:06.933Z,,,,,,,,,,,,,,,,,51,,,,,,,,,,,,,,408.39499996425,,response,,,,13,G,,,,,,Space,keypress(Space),,,,instrumental,,,,-------- -------- --- --- ---- --- --- ------ -- --------<br>---- --------- --- ------- ------------ ---------- ---------<br>--- ---------- ------- ---------- ------- -- -------- ----<br>week --- ------ ----- ------ -- ---- --- ----- -- - -------<br>-------- -- --- --- -- ----- ----------- ----- -----------<br>---- --- ---------- --- ---- --- -- ----------,226322.30000001192,226320.59999996424,225895.567,225908.5,225912.205,226328.7,,25,week
screen,html.Screen,2_3_1_0_1_26,2022-05-02T13:56:07.385Z,,,,,,,,,,,,,,,,,51,,,,,,,,,,,,,,443.6000000119093,,response,,,,13,G,,,,,,Space,keypress(Space),,,,instrumental,,,,-------- -------- --- --- ---- --- --- ------ -- --------<br>---- --------- --- ------- ------------ ---------- ---------<br>--- ---------- ------- ---------- ------- -- -------- ----<br>---- the ------ ----- ------ -- ---- --- ----- -- - -------<br>-------- -- --- --- -- ----- ----------- ----- -----------<br>---- --- ---------- --- ---- --- -- ----------,226773.89999997616,226772.30000001192,226312.142,226322.5,226328.7,226778.429,,26,the
screen,html.Screen,2_3_1_0_1_27,2022-05-02T13:56:07.852Z,,,,,,,,,,,,,,,,,51,,,,,,,,,,,,,,460.5709999999963,,response,,,,13,G,,,,,,Space,keypress(Space),,,,instrumental,,,,-------- -------- --- --- ---- --- --- ------ -- --------<br>---- --------- --- ------- ------------ ---------- ---------<br>--- ---------- ------- ---------- ------- -- -------- ----<br>---- --- Senate ----- ------ -- ---- --- ----- -- - -------<br>-------- -- --- --- -- ----- ----------- ----- -----------<br>---- --- ---------- --- ---- --- -- ----------,227240.59999996424,227239,226761.871,226774,226778.429,227244.961,,27,Senate
screen,html.Screen,2_3_1_0_1_28,2022-05-02T13:56:08.350Z,,,,,,,,,,,,,,,,,51,,,,,,,,,,,,,,492.7389999880688,,response,,,,13,G,,,,,,Space,keypress(Space),,,,instrumental,,,,-------- -------- --- --- ---- --- --- ------ -- --------<br>---- --------- --- ------- ------------ ---------- ---------<br>--- ---------- ------- ---------- ------- -- -------- ----<br>---- --- ------ seems ------ -- ---- --- ----- -- - -------<br>-------- -- --- --- -- ----- ----------- ----- -----------<br>---- --- ---------- --- ---- --- -- ----------,227739.39999997616,227737.69999998808,227228.39,227240.89999997616,227244.961,227744.735,,28,seems
screen,html.Screen,2_3_1_0_1_29,2022-05-02T13:56:08.804Z,,,,,,,,,,,,,,,,,51,,,,,,,,,,,,,,446.5650000119349,,response,,,,13,G,,,,,,Space,keypress(Space),,,,instrumental,,,,-------- -------- --- --- ---- --- --- ------ -- --------<br>---- --------- --- ------- ------------ ---------- ---------<br>--- ---------- ------- ---------- ------- -- -------- ----<br>---- --- ------ ----- poised -- ---- --- ----- -- - -------<br>-------- -- --- --- -- ----- ----------- ----- -----------<br>---- --- ---------- --- ---- --- -- ----------,228192.80000001192,228191.30000001192,227728.158,227739.69999998808,227744.735,228215.446,,29,poised
screen,html.Screen,2_3_1_0_1_30,2022-05-02T13:56:09.273Z,,,,,,,,,,,,,,,,,51,,,,,,,,,,,,,,445.0540000000037,,response,,,,13,G,,,,,,Space,keypress(Space),,,,instrumental,,,,-------- -------- --- --- ---- --- --- ------ -- --------<br>---- --------- --- ------- ------------ ---------- ---------<br>--- ---------- ------- ---------- ------- -- -------- ----<br>---- --- ------ ----- ------ to ---- --- ----- -- - -------<br>-------- -- --- --- -- ----- ----------- ----- -----------<br>---- --- ---------- --- ---- --- -- ----------,228662.09999996424,228660.5,228177.98,228193,228215.446,228677.636,,30,to
screen,html.Screen,2_3_1_0_1_31,2022-05-02T13:56:09.671Z,,,,,,,,,,,,,,,,,51,,,,,,,,,,,,,,380.06399998808047,,response,,,,13,G,,,,,,Space,keypress(Space),,,,instrumental,,,,-------- -------- --- --- ---- --- --- ------ -- --------<br>---- --------- --- ------- ------------ ---------- ---------<br>--- ---------- ------- ---------- ------- -- -------- ----<br>---- --- ------ ----- ------ -- join --- ----- -- - -------<br>-------- -- --- --- -- ----- ----------- ----- -----------<br>---- --- ---------- --- ---- --- -- ----------,229059.69999998808,229057.69999998808,228661.03,228662.30000001192,228677.636,229077.513,,31,join
screen,html.Screen,2_3_1_0_1_32,2022-05-02T13:56:10.053Z,,,,,,,,,,,,,,,,,51,,,,,,,,,,,,,,363.88699997615186,,response,,,,13,G,,,,,,Space,keypress(Space),,,,instrumental,,,,-------- -------- --- --- ---- --- --- ------ -- --------<br>---- --------- --- ------- ------------ ---------- ---------<br>--- ---------- ------- ---------- ------- -- -------- ----<br>---- --- ------ ----- ------ -- ---- the ----- -- - -------<br>-------- -- --- --- -- ----- ----------- ----- -----------<br>---- --- ---------- --- ---- --- -- ----------,229442.30000001192,229441.39999997616,229044.188,229059.89999997616,229077.513,229471.267,,32,the
screen,html.Screen,2_3_1_0_1_33,2022-05-02T13:56:10.421Z,,,,,,,,,,,,,,,,,51,,,,,,,,,,,,,,337.4329999880865,,response,,,,13,G,,,,,,Space,keypress(Space),,,,instrumental,,,,-------- -------- --- --- ---- --- --- ------ -- --------<br>---- --------- --- ------- ------------ ---------- ---------<br>--- ---------- ------- ---------- ------- -- -------- ----<br>---- --- ------ ----- ------ -- ---- --- House -- - -------<br>-------- -- --- --- -- ----- ----------- ----- -----------<br>---- --- ---------- --- ---- --- -- ----------,229810.30000001192,229808.69999998808,229427.381,229442.5,229471.267,229827.167,,33,House
screen,html.Screen,2_3_1_0_1_34,2022-05-02T13:56:10.828Z,,,,,,,,,,,,,,,,,51,,,,,,,,,,,,,,387.4329999642505,,response,,,,13,G,,,,,,Space,keypress(Space),,,,instrumental,,,,-------- -------- --- --- ---- --- --- ------ -- --------<br>---- --------- --- ------- ------------ ---------- ---------<br>--- ---------- ------- ---------- ------- -- -------- ----<br>---- --- ------ ----- ------ -- ---- --- ----- in - -------<br>-------- -- --- --- -- ----- ----------- ----- -----------<br>---- --- ---------- --- ---- --- -- ----------,230216.59999996424,230214.59999996424,229810.555,229810.5,229827.167,230226.986,,34,in
screen,html.Screen,2_3_1_0_1_35,2022-05-02T13:56:11.184Z,,,,,,,,,,,,,,,,,51,,,,,,,,,,,,,,344.9139999761537,,response,,,,13,G,,,,,,Space,keypress(Space),,,,instrumental,,,,-------- -------- --- --- ---- --- --- ------ -- --------<br>---- --------- --- ------- ------------ ---------- ---------<br>--- ---------- ------- ---------- ------- -- -------- ----<br>---- --- ------ ----- ------ -- ---- --- ----- -- a -------<br>-------- -- --- --- -- ----- ----------- ----- -----------<br>---- --- ---------- --- ---- --- -- ----------,230573.5,230571.89999997616,230210.341,230216.69999998808,230226.986,230576.699,,35,a
screen,html.Screen,2_3_1_0_1_36,2022-05-02T13:56:11.563Z,,,,,,,,,,,,,,,,,51,,,,,,,,,,,,,,373.30100000000675,,response,,,,13,G,,,,,,Space,keypress(Space),,,,instrumental,,,,-------- -------- --- --- ---- --- --- ------ -- --------<br>---- --------- --- ------- ------------ ---------- ---------<br>--- ---------- ------- ---------- ------- -- -------- ----<br>---- --- ------ ----- ------ -- ---- --- ----- -- - massive<br>-------- -- --- --- -- ----- ----------- ----- -----------<br>---- --- ---------- --- ---- --- -- ----------,230951.69999998808,230950,230560.178,230573.59999996424,230576.699,230959.938,,36,massive
screen,html.Screen,2_3_1_0_1_37,2022-05-02T13:56:11.972Z,,,,,,,,,,,,,,,,,51,,,,,,,,,,,,,,399.9619999761635,,response,,,,13,G,,,,,,Space,keypress(Space),,,,instrumental,,,,-------- -------- --- --- ---- --- --- ------ -- --------<br>---- --------- --- ------- ------------ ---------- ---------<br>--- ---------- ------- ---------- ------- -- -------- ----<br>---- --- ------ ----- ------ -- ---- --- ----- -- - -------<br>overhaul -- --- --- -- ----- ----------- ----- -----------<br>---- --- ---------- --- ---- --- -- ----------,231361.30000001192,231359.89999997616,230943.378,230951.80000001192,230959.938,231376.506,,37,overhaul
screen,html.Screen,2_3_1_0_1_38,2022-05-02T13:56:12.403Z,,,,,,,,,,,,,,,,,51,,,,,,,,,,,,,,413.49400000000605,,response,,,,13,G,,,,,,Space,keypress(Space),,,,instrumental,,,,-------- -------- --- --- ---- --- --- ------ -- --------<br>---- --------- --- ------- ------------ ---------- ---------<br>--- ---------- ------- ---------- ------- -- -------- ----<br>---- --- ------ ----- ------ -- ---- --- ----- -- - -------<br>-------- of --- --- -- ----- ----------- ----- -----------<br>---- --- ---------- --- ---- --- -- ----------,231791.5,231790,231359.745,231361.59999996424,231376.506,231816.353,,38,of
