sender,sender_type,sender_id,timestamp,meta,,Blues,Classical,Country,Dance,Electronic,Folk,Gospel,Hip-Hop,Jazz,Latin,Musical/Film,New-age,Pop,Prolific_id,Provo_ID,R&B,Rap,Reggae,Religious,Rock,Soul,Swing,Traditional,age,artist_name,correct,correctResponse,distraction,duration,education,ended_on,familiarity,gender,headphone_check_performance,item,list,music_frequency,offensiveness,pleasantness,position_correct,preference,response,response_action,snippet_file,song_name,song_rating,sound,stimulus_1,stimulus_2,stimulus_3,text,time_commit,time_end,time_render,time_run,time_show,time_switch,url,word,word_ID
Prolific ID,html.Form,0,2022-05-03T12:41:27.512Z,"{""labjs_version"":""20.2.2"",""labjs_build"":{""flavor"":""production"",""commit"":""a25486e0c714a0ae2ce03ff94b7bb6896854dcfa""},""location"":""https://run.pavlovia.org/mvasilev/prolific3_music_h/"",""userAgent"":""Mozilla/5.0 (Windows NT 10.0; Win64; x64) AppleWebKit/537.36 (KHTML, like Gecko) Chrome/100.0.4896.127 Safari/537.36"",""platform"":""Win32"",""language"":""en-GB"",""locale"":""en-GB"",""timeZone"":""Europe/London"",""timezoneOffset"":-60,""screen_width"":1366,""screen_height"":768,""scroll_width"":1366,""scroll_height"":577,""window_innerWidth"":1366,""window_innerHeight"":625,""devicePixelRatio"":1}",,,,,,,,,,,,,,,5c083bf7133f8700012f74fe,,,,,,,,,,,,,,,7706.588000095366,,form submission,,,,,,,,,,,,,,,,,,,,,24611.10000014305,24610.400000095367,16854.012,16868,16903.812,24690.861,{},,
Introduction,html.Screen,1_0,2022-05-03T12:41:31.625Z,,,,,,,,,,,,,,,,,,,,,,,,,,,,,,,4029.439000190734,,response,,,,,,,,,,,continue,click button,,,,,,,,,28723.900000095367,28720.300000190735,24591.261,24611.5,24690.861,28789.438,,,
Volume calibration,html.Screen,1_1,2022-05-03T12:42:20.188Z,,,,,,,,,,,,,,,,,,,,,,,,,,,,,,,48490.96200009537,,response,,,,,,,,,,,continue,click button,,,,,,,,,77287.60000014305,77280.40000009537,28714.738,28724.10000014305,28789.438,77287.462,,,
Task instructions,html.Screen,1_2,2022-05-03T12:42:26.830Z,,,,,,,,,,,,,,,,,,,,,,,,,,,,,,,6640.738000047684,,response,,,,,,,,,,,continue,click button,,,,,,,,,83929.40000009537,83928.20000004768,77262.562,77287.70000004768,77287.462,83937.989,,,
Sounds,html.Screen,1_3_0_0,2022-05-03T12:42:31.080Z,,,,,,,,,,,,,,,,,,,,,,,,,,,,,,,4261.633000000002,,timeout,,,,,,,,,2,,,,,,,,O,S,I,,88179.60000014305,88174.722,83913.089,83929.70000004768,83937.989,88199.622,,,
Judgement,html.Screen,1_3_0_1,2022-05-03T12:42:32.206Z,,,,,,,,,,,,,,,,,,,,,,,,,,,,true,2,,1104.7780000953644,,response,,,,,,,,,2,,2,click #choice-2,,,,,O,S,I,,89305.60000014305,89304.40000009537,88174.722,88179.70000004768,88199.622,89313.085,,,
Trial,flow.Sequence,1_3_0,2022-05-03T12:42:32.207Z,,,,,,,,,,,,,,,,,,,,,,,,,,,,,,,5366.411000095366,,completion,,,,,,,,,2,,,,,,,,O,S,I,,89306,89304.40000009537,83913.089,83929.60000014305,83937.989,89313.085,,,
Sounds,html.Screen,1_3_1_0,2022-05-03T12:42:36.449Z,,,,,,,,,,,,,,,,,,,,,,,,,,,,,,,4259.319999999992,,timeout,,,,,,,,,2,,,,,,,,I,S,O,,93548.90000009537,93547.505,89288.185,89306.20000004768,89313.085,93572.405,,,
Judgement,html.Screen,1_3_1_1,2022-05-03T12:42:37.054Z,,,,,,,,,,,,,,,,,,,,,,,,,,,,true,2,,579.9950000953686,,response,,,,,,,,,2,,2,click #choice-2,,,,,I,S,O,,94153.80000019073,94152.40000009537,93547.505,93549,93572.405,94163.228,,,
Trial,flow.Sequence,1_3_1,2022-05-03T12:42:37.055Z,,,,,,,,,,,,,,,,,,,,,,,,,,,,,,,4839.315000095361,,completion,,,,,,,,,2,,,,,,,,I,S,O,,94154.10000014305,94152.40000009537,89288.185,89306.20000004768,89313.085,94163.228,,,
Sounds,html.Screen,1_3_2_0,2022-05-03T12:42:41.300Z,,,,,,,,,,,,,,,,,,,,,,,,,,,,,,,4258.947,,timeout,,,,,,,,,3,,,,,,,,I,O,S,,98399.20000004768,98397.275,94138.328,94154.30000019073,94163.228,98422.175,,,
Judgement,html.Screen,1_3_2_1,2022-05-03T12:42:41.878Z,,,,,,,,,,,,,,,,,,,,,,,,,,,,true,3,,554.125000190732,,response,,,,,,,,,3,,3,click #choice-3,,,,,I,O,S,,98977.30000019073,98976.30000019073,98397.275,98399.40000009537,98422.175,98987.174,,,
Trial,flow.Sequence,1_3_2,2022-05-03T12:42:41.878Z,,,,,,,,,,,,,,,,,,,,,,,,,,,,,,,4813.072000190732,,completion,,,,,,,,,3,,,,,,,,I,O,S,,98977.60000014305,98976.30000019073,94138.328,94154.30000019073,94163.228,98987.174,,,
Sounds,html.Screen,1_3_3_0,2022-05-03T12:42:46.125Z,,,,,,,,,,,,,,,,,,,,,,,,,,,,,,,4259.993000000002,,timeout,,,,,,,,,3,,,,,,,,O,I,S,,103224.5,103222.267,98962.274,98977.80000019073,98987.174,103247.167,,,
Judgement,html.Screen,1_3_3_1,2022-05-03T12:42:46.606Z,,,,,,,,,,,,,,,,,,,,,,,,,,,,true,3,,457.23300009536615,,response,,,,,,,,,3,,3,click #choice-3,,,,,O,I,S,,103705.60000014305,103704.40000009537,103222.267,103224.60000014305,103247.167,103712.164,,,
Trial,flow.Sequence,1_3_3,2022-05-03T12:42:46.606Z,,,,,,,,,,,,,,,,,,,,,,,,,,,,,,,4717.226000095368,,completion,,,,,,,,,3,,,,,,,,O,I,S,,103705.80000019073,103704.40000009537,98962.274,98977.70000004768,98987.174,103712.164,,,
Sounds,html.Screen,1_3_4_0,2022-05-03T12:42:50.849Z,,,,,,,,,,,,,,,,,,,,,,,,,,,,,,,4259.830999999991,,timeout,,,,,,,,,1,,,,,,,,S,O,I,,107948.10000014305,107947.095,103687.264,103706,103712.164,107971.995,,,
Judgement,html.Screen,1_3_4_1,2022-05-03T12:42:51.638Z,,,,,,,,,,,,,,,,,,,,,,,,,,,,true,1,,764.3050001907395,,response,,,,,,,,,1,,1,click #choice-1,,,,,S,O,I,,108737.40000009537,108736.30000019073,107947.095,107948.30000019073,107971.995,108737.22,,,
Trial,flow.Sequence,1_3_4,2022-05-03T12:42:51.638Z,,,,,,,,,,,,,,,,,,,,,,,,,,,,,,,5024.136000190731,,completion,,,,,,,,,1,,,,,,,,S,O,I,,108737.70000004768,108736.30000019073,103687.264,103705.90000009537,103712.164,108737.22,,,
Sounds,html.Screen,1_3_5_0,2022-05-03T12:42:55.874Z,,,,,,,,,,,,,,,,,,,,,,,,,,,,,,,4259.646999999997,,timeout,,,,,,,,,1,,,,,,,,S,I,O,,112973.10000014305,112971.967,108712.32,108737.80000019073,108737.22,112996.867,,,
Judgement,html.Screen,1_3_5_1,2022-05-03T12:42:56.406Z,,,,,,,,,,,,,,,,,,,,,,,,,,,,true,1,,507.4330001907365,,response,,,,,,,,,1,,1,click #choice-1,,,,,S,I,O,,113505.70000004768,113504.30000019073,112971.967,112973.30000019073,112996.867,113511.67,,,
Trial,flow.Sequence,1_3_5,2022-05-03T12:42:56.407Z,,,,,,,,,,,,,,,,,,,,,,,,,,,,,,,4767.080000190734,,completion,,,,,,,,,1,,,,,,,,S,I,O,,113506,113504.30000019073,108712.32,108737.80000019073,108737.22,113511.67,,,
Task,flow.Loop,1_3,2022-05-03T12:42:56.415Z,,,,,,,,,,,,,,,,,,,,,,,,,,,,,,,29566.311000190733,,completion,,,1,,,,,,,,,,,,,,,,,,113514.90000009537,113504.30000019073,83913.089,83929.60000014305,83937.989,113511.67,,,
Trap,html.Screen,1_4,2022-05-03T12:42:56.417Z,,,,,,,,,,,,,,,,,,,,,,,,,,,,,,,NaN,,skipped,,,,,,,,,,,,,,,,,,,,,113516.70000004768,113504.30000019073,,113516.60000014305,,113511.67,,,
Thanks,html.Screen,1_5,2022-05-03T12:42:59.134Z,,,,,,,,,,,,,,,,,,,,,,,,,,,,,,,2720.430000143053,,response,,,,,,,,,,,continue,click button,,,,,,,,,116233.30000019073,116232.10000014305,113486.77,113516.80000019073,113511.67,120248.867,,,
Headphone screening,flow.Sequence,1,2022-05-03T12:42:59.134Z,,,,,,,,,,,,,,,,,,,,,,,,,,,,,,,91541.23900014305,,completion,,,,,,,,,,,,,,,,,,,,,116233.5,116232.10000014305,24591.261,24611.5,24690.861,120248.867,,,
Instructions,html.Page,2_0,2022-05-03T12:43:22.255Z,,,,,,,,,,,,,,,,,,,,,,,,,,,,,,,19104.733000143053,,form submission,,,,,,,,,,,,,,,,,,,,,139354.10000014305,139353.60000014305,120199.067,120246.10000014305,120248.867,139361.549,,,
Holding screen,html.Screen,2_1_0_0,2022-05-03T12:43:32.236Z,,,,,,,,,,,,,,,,,,,,,,,,,,,,,,,10096.513999999996,,timeout,,,,,,,,,,,,,,,,,,,,,149335,149333.563,139336.649,139354.5,139361.549,149458.063,,,
screen,html.Screen,2_1_0_1_0,2022-05-03T12:43:35.388Z,,,,,,,,,,,,,,,,,53,,,,,,,,,,,,,,3026.137000047689,,response,,,,99,,,,,,,Space,keypress(Space),,,,,,,,When -- ----- -- ------ - ------- --- ----------<br>------------- ------ ------ ---- ---- ------- ----- -- ----<br>-------- ------- -- ---------- --- - --- ----- ----- ----<br>---- --- --- ----- --- ---- ---- ------- ----- ---- -------<br>--- --- -- ----- -- --- ---- -- --- ---- -- ------ ------<br>--- ----- -- ----,152487.70000004768,152484.20000004768,149333.563,149335.30000019073,149458.063,152500.386,,0,When
screen,html.Screen,2_1_0_1_1,2022-05-03T12:43:35.881Z,,,,,,,,,,,,,,,,,53,,,,,,,,,,,,,,479.8140000476851,,response,,,,99,,,,,,,Space,keypress(Space),,,,,,,,---- it ----- -- ------ - ------- --- ----------<br>------------- ------ ------ ---- ---- ------- ----- -- ----<br>-------- ------- -- ---------- --- - --- ----- ----- ----<br>---- --- --- ----- --- ---- ---- ------- ----- ---- -------<br>--- --- -- ----- -- --- ---- -- --- ---- -- ------ ------<br>--- ----- -- ----,152980.90000009537,152980.20000004768,152475.486,152487.90000009537,152500.386,153005.342,,1,it
screen,html.Screen,2_1_0_1_2,2022-05-03T12:43:36.304Z,,,,,,,,,,,,,,,,,53,,,,,,,,,,,,,,396.8580000476795,,response,,,,99,,,,,,,Space,keypress(Space),,,,,,,,---- -- comes -- ------ - ------- --- ----------<br>------------- ------ ------ ---- ---- ------- ----- -- ----<br>-------- ------- -- ---------- --- - --- ----- ----- ----<br>---- --- --- ----- --- ---- ---- ------- ----- ---- -------<br>--- --- -- ----- -- --- ---- -- --- ---- -- ------ ------<br>--- ----- -- ----,153403,153402.20000004768,152980.442,152981,153005.342,153408.81,,2,comes
screen,html.Screen,2_1_0_1_3,2022-05-03T12:43:36.708Z,,,,,,,,,,,,,,,,,53,,,,,,,,,,,,,,397.7900001430535,,response,,,,99,,,,,,,Space,keypress(Space),,,,,,,,---- -- ----- to ------ - ------- --- ----------<br>------------- ------ ------ ---- ---- ------- ----- -- ----<br>-------- ------- -- ---------- --- - --- ----- ----- ----<br>---- --- --- ----- --- ---- ---- ------- ----- ---- -------<br>--- --- -- ----- -- --- ---- -- --- ---- -- ------ ------<br>--- ----- -- ----,153807.40000009537,153806.60000014305,153383.91,153403.20000004768,153408.81,153809.137,,3,to
screen,html.Screen,2_1_0_1_4,2022-05-03T12:43:37.159Z,,,,,,,,,,,,,,,,,53,,,,,,,,,,,,,,448.3630000000121,,response,,,,99,,,,,,,Space,keypress(Space),,,,,,,,---- -- ----- -- having - ------- --- ----------<br>------------- ------ ------ ---- ---- ------- ----- -- ----<br>-------- ------- -- ---------- --- - --- ----- ----- ----<br>---- --- --- ----- --- ---- ---- ------- ----- ---- -------<br>--- --- -- ----- -- --- ---- -- --- ---- -- ------ ------<br>--- ----- -- ----,154258.20000004768,154257.5,153784.237,153807.5,153809.137,154260.52,,4,having
screen,html.Screen,2_1_0_1_5,2022-05-03T12:43:37.539Z,,,,,,,,,,,,,,,,,53,,,,,,,,,,,,,,376.78000019074534,,response,,,,99,,,,,,,Space,keypress(Space),,,,,,,,---- -- ----- -- ------ a ------- --- ----------<br>------------- ------ ------ ---- ---- ------- ----- -- ----<br>-------- ------- -- ---------- --- - --- ----- ----- ----<br>---- --- --- ----- --- ---- ---- ------- ----- ---- -------<br>--- --- -- ----- -- --- ---- -- --- ---- -- ------ ------<br>--- ----- -- ----,154638.10000014305,154637.30000019073,154235.62,154258.30000019073,154260.52,154660.718,,5,a
screen,html.Screen,2_1_0_1_6,2022-05-03T12:43:37.944Z,,,,,,,,,,,,,,,,,53,,,,,,,,,,,,,,381.7820000000065,,response,,,,99,,,,,,,Space,keypress(Space),,,,,,,,---- -- ----- -- ------ - lasting --- ----------<br>------------- ------ ------ ---- ---- ------- ----- -- ----<br>-------- ------- -- ---------- --- - --- ----- ----- ----<br>---- --- --- ----- --- ---- ---- ------- ----- ---- -------<br>--- --- -- ----- -- --- ---- -- --- ---- -- ------ ------<br>--- ----- -- ----,155043.20000004768,155042.5,154635.818,154638.10000014305,154660.718,155059.214,,6,lasting
screen,html.Screen,2_1_0_1_7,2022-05-03T12:43:38.398Z,,,,,,,,,,,,,,,,,53,,,,,,,,,,,,,,437.1860000953602,,response,,,,99,,,,,,,Space,keypress(Space),,,,,,,,---- -- ----- -- ------ - ------- and ----------<br>------------- ------ ------ ---- ---- ------- ----- -- ----<br>-------- ------- -- ---------- --- - --- ----- ----- ----<br>---- --- --- ----- --- ---- ---- ------- ----- ---- -------<br>--- --- -- ----- -- --- ---- -- --- ---- -- ------ ------<br>--- ----- -- ----,155497.20000004768,155496.40000009537,155034.314,155043.40000009537,155059.214,155508.898,,7,and
screen,html.Screen,2_1_0_1_8,2022-05-03T12:43:38.875Z,,,,,,,,,,,,,,,,,53,,,,,,,,,,,,,,464.90200019074837,,response,,,,99,,,,,,,Space,keypress(Space),,,,,,,,---- -- ----- -- ------ - ------- --- fulfilling<br>------------- ------ ------ ---- ---- ------- ----- -- ----<br>-------- ------- -- ---------- --- - --- ----- ----- ----<br>---- --- --- ----- --- ---- ---- ------- ----- ---- -------<br>--- --- -- ----- -- --- ---- -- --- ---- -- ------ ------<br>--- ----- -- ----,155974.5,155973.80000019073,155483.998,155497.30000019073,155508.898,155983.604,,8,fulfilling
screen,html.Screen,2_1_0_1_9,2022-05-03T12:43:39.339Z,,,,,,,,,,,,,,,,,53,,,,,,,,,,,,,,454.1960001907428,,response,,,,99,,,,,,,Space,keypress(Space),,,,,,,,"---- -- ----- -- ------ - ------- --- ----------<br>relationship, ------ ------ ---- ---- ------- ----- -- ----<br>-------- ------- -- ---------- --- - --- ----- ----- ----<br>---- --- --- ----- --- ---- ---- ------- ----- ---- -------<br>--- --- -- ----- -- --- ---- -- --- ---- -- ------ ------<br>--- ----- -- ----",156438.5,156437.80000019073,155958.704,155974.60000014305,155983.604,156458.579,,9,"relationship,"
screen,html.Screen,2_1_0_1_10,2022-05-03T12:43:39.755Z,,,,,,,,,,,,,,,,,53,,,,,,,,,,,,,,394.6210000476858,,response,,,,99,,,,,,,Space,keypress(Space),,,,,,,,---- -- ----- -- ------ - ------- --- ----------<br>------------- common ------ ---- ---- ------- ----- -- ----<br>-------- ------- -- ---------- --- - --- ----- ----- ----<br>---- --- --- ----- --- ---- ---- ------- ----- ---- -------<br>--- --- -- ----- -- --- ---- -- --- ---- -- ------ ------<br>--- ----- -- ----,156854,156853.20000004768,156433.679,156438.70000004768,156458.579,156860.554,,10,common
screen,html.Screen,2_1_0_1_11,2022-05-03T12:43:40.106Z,,,,,,,,,,,,,,,,,53,,,,,,,,,,,,,,343.64600004768,,response,,,,99,,,,,,,Space,keypress(Space),,,,,,,,---- -- ----- -- ------ - ------- --- ----------<br>------------- ------ wisdom ---- ---- ------- ----- -- ----<br>-------- ------- -- ---------- --- - --- ----- ----- ----<br>---- --- --- ----- --- ---- ---- ------- ----- ---- -------<br>--- --- -- ----- -- --- ---- -- --- ---- -- ------ ------<br>--- ----- -- ----,157205,157204.20000004768,156835.654,156854.20000004768,156860.554,157209.253,,11,wisdom
screen,html.Screen,2_1_0_1_12,2022-05-03T12:43:40.508Z,,,,,,,,,,,,,,,,,53,,,,,,,,,,,,,,397.14700009537046,,response,,,,99,,,,,,,Space,keypress(Space),,,,,,,,---- -- ----- -- ------ - ------- --- ----------<br>------------- ------ ------ says ---- ------- ----- -- ----<br>-------- ------- -- ---------- --- - --- ----- ----- ----<br>---- --- --- ----- --- ---- ---- ------- ----- ---- -------<br>--- --- -- ----- -- --- ---- -- --- ---- -- ------ ------<br>--- ----- -- ----,157607.30000019073,157606.40000009537,157184.353,157205.20000004768,157209.253,157610.618,,12,says
screen,html.Screen,2_1_0_1_13,2022-05-03T12:43:40.898Z,,,,,,,,,,,,,,,,,53,,,,,,,,,,,,,,386.38200000001234,,response,,,,99,,,,,,,Space,keypress(Space),,,,,,,,---- -- ----- -- ------ - ------- --- ----------<br>------------- ------ ------ ---- that ------- ----- -- ----<br>-------- ------- -- ---------- --- - --- ----- ----- ----<br>---- --- --- ----- --- ---- ---- ------- ----- ---- -------<br>--- --- -- ----- -- --- ---- -- --- ---- -- ------ ------<br>--- ----- -- ----,157997.80000019073,157997,157585.718,157607.40000009537,157610.618,158009.108,,13,that
screen,html.Screen,2_1_0_1_14,2022-05-03T12:43:41.245Z,,,,,,,,,,,,,,,,,53,,,,,,,,,,,,,,334.6920001907274,,response,,,,99,,,,,,,Space,keypress(Space),,,,,,,,---- -- ----- -- ------ - ------- --- ----------<br>------------- ------ ------ ---- ---- feeling ----- -- ----<br>-------- ------- -- ---------- --- - --- ----- ----- ----<br>---- --- --- ----- --- ---- ---- ------- ----- ---- -------<br>--- --- -- ----- -- --- ---- -- --- ---- -- ------ ------<br>--- ----- -- ----,158344.70000004768,158343.80000019073,157984.208,157998,158009.108,158359.296,,14,feeling
screen,html.Screen,2_1_0_1_15,2022-05-03T12:43:41.656Z,,,,,,,,,,,,,,,,,53,,,,,,,,,,,,,,395.10400009536534,,response,,,,99,,,,,,,Space,keypress(Space),,,,,,,,---- -- ----- -- ------ - ------- --- ----------<br>------------- ------ ------ ---- ---- ------- close -- ----<br>-------- ------- -- ---------- --- - --- ----- ----- ----<br>---- --- --- ----- --- ---- ---- ------- ----- ---- -------<br>--- --- -- ----- -- --- ---- -- --- ---- -- ------ ------<br>--- ----- -- ----,158755.10000014305,158754.40000009537,158334.396,158344.80000019073,158359.296,158759.302,,15,close
screen,html.Screen,2_1_0_1_16,2022-05-03T12:43:42.052Z,,,,,,,,,,,,,,,,,53,,,,,,,,,,,,,,391.3980000476877,,response,,,,99,,,,,,,Space,keypress(Space),,,,,,,,---- -- ----- -- ------ - ------- --- ----------<br>------------- ------ ------ ---- ---- ------- ----- to ----<br>-------- ------- -- ---------- --- - --- ----- ----- ----<br>---- --- --- ----- --- ---- ---- ------- ----- ---- -------<br>--- --- -- ----- -- --- ---- -- --- ---- -- ------ ------<br>--- ----- -- ----,159151.60000014305,159150.70000004768,158734.402,158755.20000004768,158759.302,159158.977,,16,to
screen,html.Screen,2_1_0_1_17,2022-05-03T12:43:42.536Z,,,,,,,,,,,,,,,,,53,,,,,,,,,,,,,,476.0229999999865,,response,,,,99,,,,,,,Space,keypress(Space),,,,,,,,---- -- ----- -- ------ - ------- --- ----------<br>------------- ------ ------ ---- ---- ------- ----- -- your<br>-------- ------- -- ---------- --- - --- ----- ----- ----<br>---- --- --- ----- --- ---- ---- ------- ----- ---- -------<br>--- --- -- ----- -- --- ---- -- --- ---- -- ------ ------<br>--- ----- -- ----,159635.80000019073,159635,159134.077,159151.90000009537,159158.977,159658.683,,17,your
screen,html.Screen,2_1_0_1_18,2022-05-03T12:43:42.973Z,,,,,,,,,,,,,,,,,53,,,,,,,,,,,,,,412.41700014306116,,response,,,,99,,,,,,,Space,keypress(Space),,,,,,,,---- -- ----- -- ------ - ------- --- ----------<br>------------- ------ ------ ---- ---- ------- ----- -- ----<br>romantic ------- -- ---------- --- - --- ----- ----- ----<br>---- --- --- ----- --- ---- ---- ------- ----- ---- -------<br>--- --- -- ----- -- --- ---- -- --- ---- -- ------ ------<br>--- ----- -- ----,160072,160071.10000014305,159633.783,159636,159658.683,160083.562,,18,romantic
screen,html.Screen,2_1_0_1_19,2022-05-03T12:43:43.308Z,,,,,,,,,,,,,,,,,53,,,,,,,,,,,,,,323.43799999999464,,response,,,,99,,,,,,,Space,keypress(Space),,,,,,,,---- -- ----- -- ------ - ------- --- ----------<br>------------- ------ ------ ---- ---- ------- ----- -- ----<br>-------- partner -- ---------- --- - --- ----- ----- ----<br>---- --- --- ----- --- ---- ---- ------- ----- ---- -------<br>--- --- -- ----- -- --- ---- -- --- ---- -- ------ ------<br>--- ----- -- ----,160407.80000019073,160407,160058.662,160072.20000004768,160083.562,160410.768,,19,partner
screen,html.Screen,2_1_0_1_20,2022-05-03T12:43:43.648Z,,,,,,,,,,,,,,,,,53,,,,,,,,,,,,,,335.6320000953565,,response,,,,99,,,,,,,Space,keypress(Space),,,,,,,,---- -- ----- -- ------ - ------- --- ----------<br>------------- ------ ------ ---- ---- ------- ----- -- ----<br>-------- ------- is ---------- --- - --- ----- ----- ----<br>---- --- --- ----- --- ---- ---- ------- ----- ---- -------<br>--- --- -- ----- -- --- ---- -- --- ---- -- ------ ------<br>--- ----- -- ----,160747.20000004768,160746.40000009537,160385.868,160407.90000009537,160410.768,160760.672,,20,is
screen,html.Screen,2_1_0_1_21,2022-05-03T12:43:44.064Z,,,,,,,,,,,,,,,,,53,,,,,,,,,,,,,,401.3280000000086,,response,,,,99,,,,,,,Space,keypress(Space),,,,,,,,---- -- ----- -- ------ - ------- --- ----------<br>------------- ------ ------ ---- ---- ------- ----- -- ----<br>-------- ------- -- paramount. --- - --- ----- ----- ----<br>---- --- --- ----- --- ---- ---- ------- ----- ---- -------<br>--- --- -- ----- -- --- ---- -- --- ---- -- ------ ------<br>--- ----- -- ----,161163.10000014305,161162,160735.772,160747.30000019073,160760.672,161208.951,,21,paramount.
screen,html.Screen,2_1_0_1_22,2022-05-03T12:43:44.651Z,,,,,,,,,,,,,,,,,53,,,,,,,,,,,,,,540.9490000953665,,response,,,,99,,,,,,,Space,keypress(Space),,,,,,,,---- -- ----- -- ------ - ------- --- ----------<br>------------- ------ ------ ---- ---- ------- ----- -- ----<br>-------- ------- -- ---------- But - --- ----- ----- ----<br>---- --- --- ----- --- ---- ---- ------- ----- ---- -------<br>--- --- -- ----- -- --- ---- -- --- ---- -- ------ ------<br>--- ----- -- ----,161750.70000004768,161749.90000009537,161159.151,161163.30000019073,161208.951,161759.83,,22,But
screen,html.Screen,2_1_0_1_23,2022-05-03T12:43:44.923Z,,,,,,,,,,,,,,,,,53,,,,,,,,,,,,,,262.1700000000128,,response,,,,99,,,,,,,Space,keypress(Space),,,,,,,,---- -- ----- -- ------ - ------- --- ----------<br>------------- ------ ------ ---- ---- ------- ----- -- ----<br>-------- ------- -- ---------- --- a --- ----- ----- ----<br>---- --- --- ----- --- ---- ---- ------- ----- ---- -------<br>--- --- -- ----- -- --- ---- -- --- ---- -- ------ ------<br>--- ----- -- ----,162022.90000009537,162022,161734.93,161750.80000019073,161759.83,162033.823,,23,a
screen,html.Screen,2_1_0_1_24,2022-05-03T12:43:45.394Z,,,,,,,,,,,,,,,,,53,,,,,,,,,,,,,,459.0770000953635,,response,,,,99,,,,,,,Space,keypress(Space),,,,,,,,---- -- ----- -- ------ - ------- --- ----------<br>------------- ------ ------ ---- ---- ------- ----- -- ----<br>-------- ------- -- ---------- --- - new ----- ----- ----<br>---- --- --- ----- --- ---- ---- ------- ----- ---- -------<br>--- --- -- ----- -- --- ---- -- --- ---- -- ------ ------<br>--- ----- -- ----,162493.70000004768,162492.90000009537,162008.923,162023,162033.823,162509.17,,24,new
screen,html.Screen,2_1_0_1_25,2022-05-03T12:43:45.791Z,,,,,,,,,,,,,,,,,53,,,,,,,,,,,,,,380.2300000953546,,response,,,,99,,,,,,,Space,keypress(Space),,,,,,,,---- -- ----- -- ------ - ------- --- ----------<br>------------- ------ ------ ---- ---- ------- ----- -- ----<br>-------- ------- -- ---------- --- - --- study ----- ----<br>---- --- --- ----- --- ---- ---- ------- ----- ---- -------<br>--- --- -- ----- -- --- ---- -- --- ---- -- ------ ------<br>--- ----- -- ----,162890.10000014305,162889.40000009537,162484.27,162493.70000004768,162509.17,162908.652,,25,study
screen,html.Screen,2_1_0_1_26,2022-05-03T12:43:46.196Z,,,,,,,,,,,,,,,,,53,,,,,,,,,,,,,,385.9480001430493,,response,,,,99,,,,,,,Space,keypress(Space),,,,,,,,---- -- ----- -- ------ - ------- --- ----------<br>------------- ------ ------ ---- ---- ------- ----- -- ----<br>-------- ------- -- ---------- --- - --- ----- finds ----<br>---- --- --- ----- --- ---- ---- ------- ----- ---- -------<br>--- --- -- ----- -- --- ---- -- --- ---- -- ------ ------<br>--- ----- -- ----,163295.40000009537,163294.60000014305,162883.752,162890.20000004768,162908.652,163308.849,,26,finds
screen,html.Screen,2_1_0_1_27,2022-05-03T12:43:46.610Z,,,,,,,,,,,,,,,,,53,,,,,,,,,,,,,,399.45100019074744,,response,,,,99,,,,,,,Space,keypress(Space),,,,,,,,---- -- ----- -- ------ - ------- --- ----------<br>------------- ------ ------ ---- ---- ------- ----- -- ----<br>-------- ------- -- ---------- --- - --- ----- ----- that<br>---- --- --- ----- --- ---- ---- ------- ----- ---- -------<br>--- --- -- ----- -- --- ---- -- --- ---- -- ------ ------<br>--- ----- -- ----,163709.10000014305,163708.30000019073,163283.949,163295.60000014305,163308.849,163733.73,,27,that
screen,html.Screen,2_1_0_1_28,2022-05-03T12:43:47.140Z,,,,,,,,,,,,,,,,,53,,,,,,,,,,,,,,505.17000009535695,,response,,,,99,,,,,,,Space,keypress(Space),,,,,,,,---- -- ----- -- ------ - ------- --- ----------<br>------------- ------ ------ ---- ---- ------- ----- -- ----<br>-------- ------- -- ---------- --- - --- ----- ----- ----<br>it's --- --- ----- --- ---- ---- ------- ----- ---- -------<br>--- --- -- ----- -- --- ---- -- --- ---- -- ------ ------<br>--- ----- -- ----,164239.60000014305,164238.90000009537,163708.83,163709.20000004768,163733.73,164258.339,,28,it's
screen,html.Screen,2_1_0_1_29,2022-05-03T12:43:47.461Z,,,,,,,,,,,,,,,,,53,,,,,,,,,,,,,,301.0610000953602,,response,,,,99,,,,,,,Space,keypress(Space),,,,,,,,---- -- ----- -- ------ - ------- --- ----------<br>------------- ------ ------ ---- ---- ------- ----- -- ----<br>-------- ------- -- ---------- --- - --- ----- ----- ----<br>---- not --- ----- --- ---- ---- ------- ----- ---- -------<br>--- --- -- ----- -- --- ---- -- --- ---- -- ------ ------<br>--- ----- -- ----,164560.10000014305,164559.40000009537,164233.439,164239.80000019073,164258.339,164583.631,,29,not
screen,html.Screen,2_1_0_1_30,2022-05-03T12:43:47.739Z,,,,,,,,,,,,,,,,,53,,,,,,,,,,,,,,253.9690001430572,,response,,,,99,,,,,,,Space,keypress(Space),,,,,,,,---- -- ----- -- ------ - ------- --- ----------<br>------------- ------ ------ ---- ---- ------- ----- -- ----<br>-------- ------- -- ---------- --- - --- ----- ----- ----<br>---- --- how ----- --- ---- ---- ------- ----- ---- -------<br>--- --- -- ----- -- --- ---- -- --- ---- -- ------ ------<br>--- ----- -- ----,164838.40000009537,164837.60000014305,164558.731,164560.20000004768,164583.631,164859.597,,30,how
screen,html.Screen,2_1_0_1_31,2022-05-03T12:43:48.179Z,,,,,,,,,,,,,,,,,53,,,,,,,,,,,,,,418.203000190726,,response,,,,99,,,,,,,Space,keypress(Space),,,,,,,,---- -- ----- -- ------ - ------- --- ----------<br>------------- ------ ------ ---- ---- ------- ----- -- ----<br>-------- ------- -- ---------- --- - --- ----- ----- ----<br>---- --- --- close --- ---- ---- ------- ----- ---- -------<br>--- --- -- ----- -- --- ---- -- --- ---- -- ------ ------<br>--- ----- -- ----,165278.60000014305,165277.80000019073,164834.697,164838.5,164859.597,165285.147,,31,close
screen,html.Screen,2_1_0_1_32,2022-05-03T12:43:48.516Z,,,,,,,,,,,,,,,,,53,,,,,,,,,,,,,,329.0530000476865,,response,,,,99,,,,,,,Space,keypress(Space),,,,,,,,---- -- ----- -- ------ - ------- --- ----------<br>------------- ------ ------ ---- ---- ------- ----- -- ----<br>-------- ------- -- ---------- --- - --- ----- ----- ----<br>---- --- --- ----- you ---- ---- ------- ----- ---- -------<br>--- --- -- ----- -- --- ---- -- --- ---- -- ------ ------<br>--- ----- -- ----,165615,165614.20000004768,165260.247,165278.70000004768,165285.147,165633.877,,32,you
screen,html.Screen,2_1_0_1_33,2022-05-03T12:43:48.885Z,,,,,,,,,,,,,,,,,53,,,,,,,,,,,,,,350.1229999999923,,response,,,,99,,,,,,,Space,keypress(Space),,,,,,,,---- -- ----- -- ------ - ------- --- ----------<br>------------- ------ ------ ---- ---- ------- ----- -- ----<br>-------- ------- -- ---------- --- - --- ----- ----- ----<br>---- --- --- ----- --- feel ---- ------- ----- ---- -------<br>--- --- -- ----- -- --- ---- -- --- ---- -- ------ ------<br>--- ----- -- ----,165984.80000019073,165984,165608.977,165615.10000014305,165633.877,166009.212,,33,feel
screen,html.Screen,2_1_0_1_34,2022-05-03T12:43:49.203Z,,,,,,,,,,,,,,,,,53,,,,,,,,,,,,,,292.6880000953679,,response,,,,99,,,,,,,Space,keypress(Space),,,,,,,,---- -- ----- -- ------ - ------- --- ----------<br>------------- ------ ------ ---- ---- ------- ----- -- ----<br>-------- ------- -- ---------- --- - --- ----- ----- ----<br>---- --- --- ----- --- ---- that ------- ----- ---- -------<br>--- --- -- ----- -- --- ---- -- --- ---- -- ------ ------<br>--- ----- -- ----,166302.60000014305,166301.90000009537,165984.312,165985,166009.212,166309.277,,34,that
screen,html.Screen,2_1_0_1_35,2022-05-03T12:43:49.623Z,,,,,,,,,,,,,,,,,53,,,,,,,,,,,,,,412.3230001430493,,response,,,,99,,,,,,,Space,keypress(Space),,,,,,,,---- -- ----- -- ------ - ------- --- ----------<br>------------- ------ ------ ---- ---- ------- ----- -- ----<br>-------- ------- -- ---------- --- - --- ----- ----- ----<br>---- --- --- ----- --- ---- ---- matters ----- ---- -------<br>--- --- -- ----- -- --- ---- -- --- ---- -- ------ ------<br>--- ----- -- ----,166722.40000009537,166721.60000014305,166284.377,166302.70000004768,166309.277,166735.198,,35,matters
screen,html.Screen,2_1_0_1_36,2022-05-03T12:43:49.990Z,,,,,,,,,,,,,,,,,53,,,,,,,,,,,,,,353.4020001430472,,response,,,,99,,,,,,,Space,keypress(Space),,,,,,,,"---- -- ----- -- ------ - ------- --- ----------<br>------------- ------ ------ ---- ---- ------- ----- -- ----<br>-------- ------- -- ---------- --- - --- ----- ----- ----<br>---- --- --- ----- --- ---- ---- ------- most, ---- -------<br>--- --- -- ----- -- --- ---- -- --- ---- -- ------ ------<br>--- ----- -- ----",167089.40000009537,167088.60000014305,166710.298,166722.60000014305,166735.198,167108.839,,36,"most,"
screen,html.Screen,2_1_0_1_37,2022-05-03T12:43:50.534Z,,,,,,,,,,,,,,,,,53,,,,,,,,,,,,,,523.6609999999928,,response,,,,99,,,,,,,Space,keypress(Space),,,,,,,,---- -- ----- -- ------ - ------- --- ----------<br>------------- ------ ------ ---- ---- ------- ----- -- ----<br>-------- ------- -- ---------- --- - --- ----- ----- ----<br>---- --- --- ----- --- ---- ---- ------- ----- it's -------<br>--- --- -- ----- -- --- ---- -- --- ---- -- ------ ------<br>--- ----- -- ----,167633.20000004768,167632.5,167083.939,167089.5,167108.839,167658.286,,37,it's
screen,html.Screen,2_1_0_1_38,2022-05-03T12:43:50.965Z,,,,,,,,,,,,,,,,,53,,,,,,,,,,,,,,404.91400004769093,,response,,,,99,,,,,,,Space,keypress(Space),,,,,,,,---- -- ----- -- ------ - ------- --- ----------<br>------------- ------ ------ ---- ---- ------- ----- -- ----<br>-------- ------- -- ---------- --- - --- ----- ----- ----<br>---- --- --- ----- --- ---- ---- ------- ----- ---- whether<br>--- --- -- ----- -- --- ---- -- --- ---- -- ------ ------<br>--- ----- -- ----,168063.90000009537,168063.20000004768,167633.386,167633.40000009537,167658.286,168082.997,,38,whether
screen,html.Screen,2_1_0_1_39,2022-05-03T12:43:51.336Z,,,,,,,,,,,,,,,,,53,,,,,,,,,,,,,,351.502999999997,,response,,,,99,,,,,,,Space,keypress(Space),,,,,,,,---- -- ----- -- ------ - ------- --- ----------<br>------------- ------ ------ ---- ---- ------- ----- -- ----<br>-------- ------- -- ---------- --- - --- ----- ----- ----<br>---- --- --- ----- --- ---- ---- ------- ----- ---- -------<br>you --- -- ----- -- --- ---- -- --- ---- -- ------ ------<br>--- ----- -- ----,168435.40000009537,168434.5,168058.097,168064.10000014305,168082.997,168458.659,,39,you
screen,html.Screen,2_1_0_1_40,2022-05-03T12:43:51.724Z,,,,,,,,,,,,,,,,,53,,,,,,,,,,,,,,364.44100014303694,,response,,,,99,,,,,,,Space,keypress(Space),,,,,,,,---- -- ----- -- ------ - ------- --- ----------<br>------------- ------ ------ ---- ---- ------- ----- -- ----<br>-------- ------- -- ---------- --- - --- ----- ----- ----<br>---- --- --- ----- --- ---- ---- ------- ----- ---- -------<br>--- are -- ----- -- --- ---- -- --- ---- -- ------ ------<br>--- ----- -- ----,168823.80000019073,168823.10000014305,168433.759,168435.5,168458.659,168833.874,,40,are
screen,html.Screen,2_1_0_1_41,2022-05-03T12:43:52.133Z,,,,,,,,,,,,,,,,,53,,,,,,,,,,,,,,398.326000047673,,response,,,,99,,,,,,,Space,keypress(Space),,,,,,,,---- -- ----- -- ------ - ------- --- ----------<br>------------- ------ ------ ---- ---- ------- ----- -- ----<br>-------- ------- -- ---------- --- - --- ----- ----- ----<br>---- --- --- ----- --- ---- ---- ------- ----- ---- -------<br>--- --- as ----- -- --- ---- -- --- ---- -- ------ ------<br>--- ----- -- ----,169232.90000009537,169232.20000004768,168808.974,168824,168833.874,169233.766,,41,as
screen,html.Screen,2_1_0_1_42,2022-05-03T12:43:52.502Z,,,,,,,,,,,,,,,,,53,,,,,,,,,,,,,,367.23399999999674,,response,,,,99,,,,,,,Space,keypress(Space),,,,,,,,---- -- ----- -- ------ - ------- --- ----------<br>------------- ------ ------ ---- ---- ------- ----- -- ----<br>-------- ------- -- ---------- --- - --- ----- ----- ----<br>---- --- --- ----- --- ---- ---- ------- ----- ---- -------<br>--- --- -- close -- --- ---- -- --- ---- -- ------ ------<br>--- ----- -- ----,169601.60000014305,169601,169208.866,169233,169233.766,169608.83,,42,close
screen,html.Screen,2_1_0_1_43,2022-05-03T12:43:52.870Z,,,,,,,,,,,,,,,,,53,,,,,,,,,,,,,,359.97000019074767,,response,,,,99,,,,,,,Space,keypress(Space),,,,,,,,---- -- ----- -- ------ - ------- --- ----------<br>------------- ------ ------ ---- ---- ------- ----- -- ----<br>-------- ------- -- ---------- --- - --- ----- ----- ----<br>---- --- --- ----- --- ---- ---- ------- ----- ---- -------<br>--- --- -- ----- as --- ---- -- --- ---- -- ------ ------<br>--- ----- -- ----,169969.5,169968.80000019073,169583.93,169601.80000019073,169608.83,169983.841,,43,as
screen,html.Screen,2_1_0_1_44,2022-05-03T12:43:53.362Z,,,,,,,,,,,,,,,,,53,,,,,,,,,,,,,,477.25900014306535,,response,,,,99,,,,,,,Space,keypress(Space),,,,,,,,---- -- ----- -- ------ - ------- --- ----------<br>------------- ------ ------ ---- ---- ------- ----- -- ----<br>-------- ------- -- ---------- --- - --- ----- ----- ----<br>---- --- --- ----- --- ---- ---- ------- ----- ---- -------<br>--- --- -- ----- -- you ---- -- --- ---- -- ------ ------<br>--- ----- -- ----,170461.90000009537,170461.10000014305,169958.941,169969.70000004768,169983.841,170483.389,,44,you
screen,html.Screen,2_1_0_1_45,2022-05-03T12:43:53.757Z,,,,,,,,,,,,,,,,,53,,,,,,,,,,,,,,372.4110001907393,,response,,,,99,,,,,,,Space,keypress(Space),,,,,,,,---- -- ----- -- ------ - ------- --- ----------<br>------------- ------ ------ ---- ---- ------- ----- -- ----<br>-------- ------- -- ---------- --- - --- ----- ----- ----<br>---- --- --- ----- --- ---- ---- ------- ----- ---- -------<br>--- --- -- ----- -- --- want -- --- ---- -- ------ ------<br>--- ----- -- ----,170856.60000014305,170855.80000019073,170458.489,170462.10000014305,170483.389,170858.282,,45,want
screen,html.Screen,2_1_0_1_46,2022-05-03T12:43:54.124Z,,,,,,,,,,,,,,,,,53,,,,,,,,,,,,,,364.51800019072834,,response,,,,99,,,,,,,Space,keypress(Space),,,,,,,,---- -- ----- -- ------ - ------- --- ----------<br>------------- ------ ------ ---- ---- ------- ----- -- ----<br>-------- ------- -- ---------- --- - --- ----- ----- ----<br>---- --- --- ----- --- ---- ---- ------- ----- ---- -------<br>--- --- -- ----- -- --- ---- to --- ---- -- ------ ------<br>--- ----- -- ----,171223.70000004768,171222.80000019073,170833.382,170856.80000019073,170858.282,171235.242,,46,to
screen,html.Screen,2_1_0_1_47,2022-05-03T12:43:54.604Z,,,,,,,,,,,,,,,,,53,,,,,,,,,,,,,,467.0580001907365,,response,,,,99,,,,,,,Space,keypress(Space),,,,,,,,"---- -- ----- -- ------ - ------- --- ----------<br>------------- ------ ------ ---- ---- ------- ----- -- ----<br>-------- ------- -- ---------- --- - --- ----- ----- ----<br>---- --- --- ----- --- ---- ---- ------- ----- ---- -------<br>--- --- -- ----- -- --- ---- -- be, ---- -- ------ ------<br>--- ----- -- ----",171703.10000014305,171702.30000019073,171210.342,171223.80000019073,171235.242,171709.79,,47,"be,"
screen,html.Screen,2_1_0_1_48,2022-05-03T12:43:55.194Z,,,,,,,,,,,,,,,,,53,,,,,,,,,,,,,,583.0100001907267,,response,,,,99,,,,,,,Space,keypress(Space),,,,,,,,---- -- ----- -- ------ - ------- --- ----------<br>------------- ------ ------ ---- ---- ------- ----- -- ----<br>-------- ------- -- ---------- --- - --- ----- ----- ----<br>---- --- --- ----- --- ---- ---- ------- ----- ---- -------<br>--- --- -- ----- -- --- ---- -- --- even -- ------ ------<br>--- ----- -- ----,172293.60000014305,172292.80000019073,171684.89,171703.30000019073,171709.79,172309.278,,48,even
screen,html.Screen,2_1_0_1_49,2022-05-03T12:43:55.555Z,,,,,,,,,,,,,,,,,53,,,,,,,,,,,,,,344.22200000000885,,response,,,,99,,,,,,,Space,keypress(Space),,,,,,,,---- -- ----- -- ------ - ------- --- ----------<br>------------- ------ ------ ---- ---- ------- ----- -- ----<br>-------- ------- -- ---------- --- - --- ----- ----- ----<br>---- --- --- ----- --- ---- ---- ------- ----- ---- -------<br>--- --- -- ----- -- --- ---- -- --- ---- if ------ ------<br>--- ----- -- ----,172654.20000004768,172653.5,172284.378,172293.70000004768,172309.278,172660.234,,49,if
screen,html.Screen,2_1_0_1_50,2022-05-03T12:43:56.191Z,,,,,,,,,,,,,,,,,53,,,,,,,,,,,,,,629.3660001430544,,response,,,,99,,,,,,,Space,keypress(Space),,,,,,,,---- -- ----- -- ------ - ------- --- ----------<br>------------- ------ ------ ---- ---- ------- ----- -- ----<br>-------- ------- -- ---------- --- - --- ----- ----- ----<br>---- --- --- ----- --- ---- ---- ------- ----- ---- -------<br>--- --- -- ----- -- --- ---- -- --- ---- -- that's ------<br>--- ----- -- ----,173290.60000014305,173289.60000014305,172635.334,172654.30000019073,172660.234,173307.705,,50,that's
screen,html.Screen,2_1_0_1_51,2022-05-03T12:43:56.875Z,,,,,,,,,,,,,,,,,53,,,,,,,,,,,,,,665.6950000953802,,response,,,,99,,,,,,,Space,keypress(Space),,,,,,,,---- -- ----- -- ------ - ------- --- ----------<br>------------- ------ ------ ---- ---- ------- ----- -- ----<br>-------- ------- -- ---------- --- - --- ----- ----- ----<br>---- --- --- ----- --- ---- ---- ------- ----- ---- -------<br>--- --- -- ----- -- --- ---- -- --- ---- -- ------ really<br>--- ----- -- ----,173974.20000004768,173973.40000009537,173282.805,173290.70000004768,173307.705,173981.462,,51,really
screen,html.Screen,2_1_0_1_52,2022-05-03T12:43:57.330Z,,,,,,,,,,,,,,,,,53,,,,,,,,,,,,,,447.53800000000047,,response,,,,99,,,,,,,Space,keypress(Space),,,,,,,,---- -- ----- -- ------ - ------- --- ----------<br>------------- ------ ------ ---- ---- ------- ----- -- ----<br>-------- ------- -- ---------- --- - --- ----- ----- ----<br>---- --- --- ----- --- ---- ---- ------- ----- ---- -------<br>--- --- -- ----- -- --- ---- -- --- ---- -- ------ ------<br>not ----- -- ----,174429.70000004768,174429,173956.562,173974.40000009537,173981.462,174432.15,,52,not
screen,html.Screen,2_1_0_1_53,2022-05-03T12:43:57.670Z,,,,,,,,,,,,,,,,,53,,,,,,,,,,,,,,336.3500000000058,,response,,,,99,,,,,,,Space,keypress(Space),,,,,,,,---- -- ----- -- ------ - ------- --- ----------<br>------------- ------ ------ ---- ---- ------- ----- -- ----<br>-------- ------- -- ---------- --- - --- ----- ----- ----<br>---- --- --- ----- --- ---- ---- ------- ----- ---- -------<br>--- --- -- ----- -- --- ---- -- --- ---- -- ------ ------<br>--- close -- ----,174769.20000004768,174768.5,174407.25,174429.80000019073,174432.15,174783.517,,53,close
screen,html.Screen,2_1_0_1_54,2022-05-03T12:43:58.348Z,,,,,,,,,,,,,,,,,53,,,,,,,,,,,,,,663.4830000000075,,response,,,,99,,,,,,,Space,keypress(Space),,,,,,,,---- -- ----- -- ------ - ------- --- ----------<br>------------- ------ ------ ---- ---- ------- ----- -- ----<br>-------- ------- -- ---------- --- - --- ----- ----- ----<br>---- --- --- ----- --- ---- ---- ------- ----- ---- -------<br>--- --- -- ----- -- --- ---- -- --- ---- -- ------ ------<br>--- ----- at ----,175447.70000004768,175447,174758.617,174769.30000019073,174783.517,175457.659,,54,at
screen,html.Screen,2_1_0_1_55,2022-05-03T12:44:00.180Z,,,,,,,,,,,,,,,,,53,,,,,,,,,,,,,,1821.0410000476695,,response,,,,99,,,,,,,Space,keypress(Space),,,,,,,,---- -- ----- -- ------ - ------- --- ----------<br>------------- ------ ------ ---- ---- ------- ----- -- ----<br>-------- ------- -- ---------- --- - --- ----- ----- ----<br>---- --- --- ----- --- ---- ---- ------- ----- ---- -------<br>--- --- -- ----- -- --- ---- -- --- ---- -- ------ ------<br>--- ----- -- all.,177279.5,177278.70000004768,175432.759,175447.90000009537,175457.659,177301.536,,55,all.
Item 99,flow.Loop,2_1_0_1,2022-05-03T12:44:00.180Z,,,,,,,,,,,,,,,,,,,,,,,,,,,,,,,27820.63700004769,,completion,,,,,H,,,,,,,,,,,silence,,,,,177279.80000019073,177278.70000004768,149333.563,149335.20000004768,149458.063,177301.536,,,
Question 1,html.Screen,2_1_0_2,2022-05-03T12:44:05.438Z,,,,,,,,,,,,,,,,,,,,,,,,,,,,true,FALSE,,5234.764000190742,,response,,,,99,H,,,,,,FALSE,click #choice-2,,,,silence,,,,,182537.40000009537,182536.30000019073,177276.636,177280,177301.536,182560.201,,,
Question 2,html.Screen,2_1_0_3,2022-05-03T12:44:08.638Z,,,,,,,,,,,,,,,,,,,,,,,,,,,,true,TRUE,,3176.1990000953665,,response,,,,99,H,,,,,,TRUE,click #choice-1,,,,silence,,,,,185737.40000009537,185736.40000009537,182535.301,182537.60000014305,182560.201,185760.361,,,
Item 99,flow.Sequence,2_1_0,2022-05-03T12:44:08.638Z,,,,,,,,,,,,,,,,,,,,,,,,,,,,,,,46374.85100009537,,completion,,,,,,,,,,,,,,,,,,,,,185737.70000004768,185736.40000009537,139336.649,139354.40000009537,139361.549,185760.361,,,
Holding screen,html.Screen,2_1_1_0,2022-05-03T12:44:18.633Z,,,,,,,,,,,,,,,,,,,,,,,,,,,,,,,9995.171999999991,,timeout,,,,,,,,,,,,,,,,,,,,,195732.60000014305,195730.633,185735.461,185737.90000009537,185760.361,195755.533,,,
screen,html.Screen,2_1_1_1_0,2022-05-03T12:44:20.388Z,,,,,,,,,,,,,,,,,54,,,,,,,,,,,,,,1731.667000047688,,response,,,,100,,,,,,,Space,keypress(Space),,,,,,,,At --- ---- --- ------ ----- ------- ---- -- --- ------- --<br>------- ---------- ------ -- ----- -- ----- -- ---- ------<br>--- ----- --- --- ------ -------- ----- --- ------ ----- --<br>----- ----- ---------- --- --- ------ ------ ---- -- ------<br>------- --- ------ ----- --- ---- ------- -- ---- --- --<br>------- ------,197488.10000014305,197487.20000004768,195730.633,195732.70000004768,195755.533,197499.921,,0,At
screen,html.Screen,2_1_1_1_1,2022-05-03T12:44:20.772Z,,,,,,,,,,,,,,,,,54,,,,,,,,,,,,,,371.37900019073277,,response,,,,100,,,,,,,Space,keypress(Space),,,,,,,,-- the ---- --- ------ ----- ------- ---- -- --- ------- --<br>------- ---------- ------ -- ----- -- ----- -- ---- ------<br>--- ----- --- --- ------ -------- ----- --- ------ ----- --<br>----- ----- ---------- --- --- ------ ------ ---- -- ------<br>------- --- ------ ----- --- ---- ------- -- ---- --- --<br>------- ------,197872.10000014305,197871.30000019073,197475.021,197488.20000004768,197499.921,197884.239,,1,the
screen,html.Screen,2_1_1_1_2,2022-05-03T12:44:21.178Z,,,,,,,,,,,,,,,,,54,,,,,,,,,,,,,,392.66100009536603,,response,,,,100,,,,,,,Space,keypress(Space),,,,,,,,-- --- time --- ------ ----- ------- ---- -- --- ------- --<br>------- ---------- ------ -- ----- -- ----- -- ---- ------<br>--- ----- --- --- ------ -------- ----- --- ------ ----- --<br>----- ----- ---------- --- --- ------ ------ ---- -- ------<br>------- --- ------ ----- --- ---- ------- -- ---- --- --<br>------- ------,198277.80000019073,198276.90000009537,197859.339,197872.30000019073,197884.239,198282.749,,2,time
screen,html.Screen,2_1_1_1_3,2022-05-03T12:44:21.496Z,,,,,,,,,,,,,,,,,54,,,,,,,,,,,,,,311.85100014304044,,response,,,,100,,,,,,,Space,keypress(Space),,,,,,,,-- --- ---- the ------ ----- ------- ---- -- --- ------- --<br>------- ---------- ------ -- ----- -- ----- -- ---- ------<br>--- ----- --- --- ------ -------- ----- --- ------ ----- --<br>----- ----- ---------- --- --- ------ ------ ---- -- ------<br>------- --- ------ ----- --- ---- ------- -- ---- --- --<br>------- ------,198595.30000019073,198594.60000014305,198257.849,198277.90000009537,198282.749,198607.96,,3,the
screen,html.Screen,2_1_1_1_4,2022-05-03T12:44:21.875Z,,,,,,,,,,,,,,,,,54,,,,,,,,,,,,,,366.54000000000815,,response,,,,100,,,,,,,Space,keypress(Space),,,,,,,,-- --- ---- --- French ----- ------- ---- -- --- ------- --<br>------- ---------- ------ -- ----- -- ----- -- ---- ------<br>--- ----- --- --- ------ -------- ----- --- ------ ----- --<br>----- ----- ---------- --- --- ------ ------ ---- -- ------<br>------- --- ------ ----- --- ---- ------- -- ---- --- --<br>------- ------,198975.20000004768,198974.5,198583.06,198595.5,198607.96,198984.305,,4,French
screen,html.Screen,2_1_1_1_5,2022-05-03T12:44:22.229Z,,,,,,,,,,,,,,,,,54,,,,,,,,,,,,,,343.3950000476907,,response,,,,100,,,,,,,Space,keypress(Space),,,,,,,,-- --- ---- --- ------ crown ------- ---- -- --- ------- --<br>------- ---------- ------ -- ----- -- ----- -- ---- ------<br>--- ----- --- --- ------ -------- ----- --- ------ ----- --<br>----- ----- ---------- --- --- ------ ------ ---- -- ------<br>------- --- ------ ----- --- ---- ------- -- ---- --- --<br>------- ------,199328.40000009537,199327.70000004768,198959.405,198975.30000019073,198984.305,199333.053,,5,crown
screen,html.Screen,2_1_1_1_6,2022-05-03T12:44:22.551Z,,,,,,,,,,,,,,,,,54,,,,,,,,,,,,,,316.6470000476693,,response,,,,100,,,,,,,Space,keypress(Space),,,,,,,,-- --- ---- --- ------ ----- secured ---- -- --- ------- --<br>------- ---------- ------ -- ----- -- ----- -- ---- ------<br>--- ----- --- --- ------ -------- ----- --- ------ ----- --<br>----- ----- ---------- --- --- ------ ------ ---- -- ------<br>------- --- ------ ----- --- ---- ------- -- ---- --- --<br>------- ------,199650.40000009537,199649.70000004768,199308.153,199328.60000014305,199333.053,199659.499,,6,secured
screen,html.Screen,2_1_1_1_7,2022-05-03T12:44:23.070Z,,,,,,,,,,,,,,,,,54,,,,,,,,,,,,,,509.10100014304044,,response,,,,100,,,,,,,Space,keypress(Space),,,,,,,,-- --- ---- --- ------ ----- ------- much -- --- ------- --<br>------- ---------- ------ -- ----- -- ----- -- ---- ------<br>--- ----- --- --- ------ -------- ----- --- ------ ----- --<br>----- ----- ---------- --- --- ------ ------ ---- -- ------<br>------- --- ------ ----- --- ---- ------- -- ---- --- --<br>------- ------,200169.40000009537,200168.60000014305,199634.599,199650.60000014305,199659.499,200182.528,,7,much
screen,html.Screen,2_1_1_1_8,2022-05-03T12:44:23.499Z,,,,,,,,,,,,,,,,,54,,,,,,,,,,,,,,415.8720000953763,,response,,,,100,,,,,,,Space,keypress(Space),,,,,,,,-- --- ---- --- ------ ----- ------- ---- of --- ------- --<br>------- ---------- ------ -- ----- -- ----- -- ---- ------<br>--- ----- --- --- ------ -------- ----- --- ------ ----- --<br>----- ----- ---------- --- --- ------ ------ ---- -- ------<br>------- --- ------ ----- --- ---- ------- -- ---- --- --<br>------- ------,200599.10000014305,200598.40000009537,200157.628,200169.5,200182.528,200607.066,,8,of
screen,html.Screen,2_1_1_1_9,2022-05-03T12:44:23.762Z,,,,,,,,,,,,,,,,,54,,,,,,,,,,,,,,254.1340000476921,,response,,,,100,,,,,,,Space,keypress(Space),,,,,,,,-- --- ---- --- ------ ----- ------- ---- -- its ------- --<br>------- ---------- ------ -- ----- -- ----- -- ---- ------<br>--- ----- --- --- ------ -------- ----- --- ------ ----- --<br>----- ----- ---------- --- --- ------ ------ ---- -- ------<br>------- --- ------ ----- --- ---- ------- -- ---- --- --<br>------- ------,200861.90000009537,200861.20000004768,200582.166,200600.20000004768,200607.066,200883.069,,9,its
screen,html.Screen,2_1_1_1_10,2022-05-03T12:44:24.272Z,,,,,,,,,,,,,,,,,54,,,,,,,,,,,,,,487.83100009537884,,response,,,,100,,,,,,,Space,keypress(Space),,,,,,,,-- --- ---- --- ------ ----- ------- ---- -- --- revenue --<br>------- ---------- ------ -- ----- -- ----- -- ---- ------<br>--- ----- --- --- ------ -------- ----- --- ------ ----- --<br>----- ----- ---------- --- --- ------ ------ ---- -- ------<br>------- --- ------ ----- --- ---- ------- -- ---- --- --<br>------- ------,201371.60000014305,201370.90000009537,200858.169,200862.10000014305,200883.069,201383.624,,10,revenue
screen,html.Screen,2_1_1_1_11,2022-05-03T12:44:24.691Z,,,,,,,,,,,,,,,,,54,,,,,,,,,,,,,,406.47600014304044,,response,,,,100,,,,,,,Space,keypress(Space),,,,,,,,-- --- ---- --- ------ ----- ------- ---- -- --- ------- by<br>------- ---------- ------ -- ----- -- ----- -- ---- ------<br>--- ----- --- --- ------ -------- ----- --- ------ ----- --<br>----- ----- ---------- --- --- ------ ------ ---- -- ------<br>------- --- ------ ----- --- ---- ------- -- ---- --- --<br>------- ------,201790.80000019073,201790.10000014305,201358.724,201371.70000004768,201383.624,201807.05,,11,by
screen,html.Screen,2_1_1_1_12,2022-05-03T12:44:25.057Z,,,,,,,,,,,,,,,,,54,,,,,,,,,,,,,,348.45000000001164,,response,,,,100,,,,,,,Space,keypress(Space),,,,,,,,-- --- ---- --- ------ ----- ------- ---- -- --- ------- --<br>issuing ---------- ------ -- ----- -- ----- -- ---- ------<br>--- ----- --- --- ------ -------- ----- --- ------ ----- --<br>----- ----- ---------- --- --- ------ ------ ---- -- ------<br>------- --- ------ ----- --- ---- ------- -- ---- --- --<br>------- ------,202156.40000009537,202155.5,201782.15,201791,201807.05,202157.689,,12,issuing
screen,html.Screen,2_1_1_1_13,2022-05-03T12:44:25.567Z,,,,,,,,,,,,,,,,,54,,,,,,,,,,,,,,508.81099999998696,,response,,,,100,,,,,,,Space,keypress(Space),,,,,,,,-- --- ---- --- ------ ----- ------- ---- -- --- ------- --<br>------- government ------ -- ----- -- ----- -- ---- ------<br>--- ----- --- --- ------ -------- ----- --- ------ ----- --<br>----- ----- ---------- --- --- ------ ------ ---- -- ------<br>------- --- ------ ----- --- ---- ------- -- ---- --- --<br>------- ------,202667.20000004768,202666.5,202132.789,202156.60000014305,202157.689,202682.212,,13,government
screen,html.Screen,2_1_1_1_14,2022-05-03T12:44:26.066Z,,,,,,,,,,,,,,,,,54,,,,,,,,,,,,,,482.6880000953679,,response,,,,100,,,,,,,Space,keypress(Space),,,,,,,,-- --- ---- --- ------ ----- ------- ---- -- --- ------- --<br>------- ---------- bonds. -- ----- -- ----- -- ---- ------<br>--- ----- --- --- ------ -------- ----- --- ------ ----- --<br>----- ----- ---------- --- --- ------ ------ ---- -- ------<br>------- --- ------ ----- --- ---- ------- -- ---- --- --<br>------- ------,203165.70000004768,203164.90000009537,202657.312,202667.30000019073,202682.212,203181.68,,14,bonds.
screen,html.Screen,2_1_1_1_15,2022-05-03T12:44:26.918Z,,,,,,,,,,,,,,,,,54,,,,,,,,,,,,,,834.9200001430581,,response,,,,100,,,,,,,Space,keypress(Space),,,,,,,,-- --- ---- --- ------ ----- ------- ---- -- --- ------- --<br>------- ---------- ------ In ----- -- ----- -- ---- ------<br>--- ----- --- --- ------ -------- ----- --- ------ ----- --<br>----- ----- ---------- --- --- ------ ------ ---- -- ------<br>------- --- ------ ----- --- ---- ------- -- ---- --- --<br>------- ------,204017.40000009537,204016.60000014305,203156.78,203165.80000019073,203181.68,204030.231,,15,In
screen,html.Screen,2_1_1_1_16,2022-05-03T12:44:27.664Z,,,,,,,,,,,,,,,,,54,,,,,,,,,,,,,,732.5690001907351,,response,,,,100,,,,,,,Space,keypress(Space),,,,,,,,"-- --- ---- --- ------ ----- ------- ---- -- --- ------- --<br>------- ---------- ------ -- 1727, -- ----- -- ---- ------<br>--- ----- --- --- ------ -------- ----- --- ------ ----- --<br>----- ----- ---------- --- --- ------ ------ ---- -- ------<br>------- --- ------ ----- --- ---- ------- -- ---- --- --<br>------- ------",204763.5,204762.80000019073,204005.331,204017.60000014305,204030.231,204779.197,,16,"1727,"
screen,html.Screen,2_1_1_1_17,2022-05-03T12:44:28.207Z,,,,,,,,,,,,,,,,,54,,,,,,,,,,,,,,526.4030001430656,,response,,,,100,,,,,,,Space,keypress(Space),,,,,,,,-- --- ---- --- ------ ----- ------- ---- -- --- ------- --<br>------- ---------- ------ -- ----- in ----- -- ---- ------<br>--- ----- --- --- ------ -------- ----- --- ------ ----- --<br>----- ----- ---------- --- --- ------ ------ ---- -- ------<br>------- --- ------ ----- --- ---- ------- -- ---- --- --<br>------- ------,205306.30000019073,205305.60000014305,204754.297,204763.70000004768,204779.197,205330.538,,17,in
screen,html.Screen,2_1_1_1_18,2022-05-03T12:44:28.598Z,,,,,,,,,,,,,,,,,54,,,,,,,,,,,,,,366.16200004768325,,response,,,,100,,,,,,,Space,keypress(Space),,,,,,,,-- --- ---- --- ------ ----- ------- ---- -- --- ------- --<br>------- ---------- ------ -- ----- -- order -- ---- ------<br>--- ----- --- --- ------ -------- ----- --- ------ ----- --<br>----- ----- ---------- --- --- ------ ------ ---- -- ------<br>------- --- ------ ----- --- ---- ------- -- ---- --- --<br>------- ------,205697.60000014305,205696.70000004768,205305.638,205306.40000009537,205330.538,205706.884,,18,order
screen,html.Screen,2_1_1_1_19,2022-05-03T12:44:28.927Z,,,,,,,,,,,,,,,,,54,,,,,,,,,,,,,,319.2160001430602,,response,,,,100,,,,,,,Space,keypress(Space),,,,,,,,-- --- ---- --- ------ ----- ------- ---- -- --- ------- --<br>------- ---------- ------ -- ----- -- ----- to ---- ------<br>--- ----- --- --- ------ -------- ----- --- ------ ----- --<br>----- ----- ---------- --- --- ------ ------ ---- -- ------<br>------- --- ------ ----- --- ---- ------- -- ---- --- --<br>------- ------,206026.90000009537,206026.10000014305,205681.984,205697.80000019073,205706.884,206032.773,,19,to
screen,html.Screen,2_1_1_1_20,2022-05-03T12:44:29.302Z,,,,,,,,,,,,,,,,,54,,,,,,,,,,,,,,367.82700014306465,,response,,,,100,,,,,,,Space,keypress(Space),,,,,,,,-- --- ---- --- ------ ----- ------- ---- -- --- ------- --<br>------- ---------- ------ -- ----- -- ----- -- save ------<br>--- ----- --- --- ------ -------- ----- --- ------ ----- --<br>----- ----- ---------- --- --- ------ ------ ---- -- ------<br>------- --- ------ ----- --- ---- ------- -- ---- --- --<br>------- ------,206401.40000009537,206400.60000014305,206007.873,206027.10000014305,206032.773,206407.863,,20,save
screen,html.Screen,2_1_1_1_21,2022-05-03T12:44:29.702Z,,,,,,,,,,,,,,,,,54,,,,,,,,,,,,,,393.1369999999879,,response,,,,100,,,,,,,Space,keypress(Space),,,,,,,,"-- --- ---- --- ------ ----- ------- ---- -- --- ------- --<br>------- ---------- ------ -- ----- -- ----- -- ---- money,<br>--- ----- --- --- ------ -------- ----- --- ------ ----- --<br>----- ----- ---------- --- --- ------ ------ ---- -- ------<br>------- --- ------ ----- --- ---- ------- -- ---- --- --<br>------- ------",206801.80000019073,206801,206382.963,206401.5,206407.863,206807.569,,21,"money,"
screen,html.Screen,2_1_1_1_22,2022-05-03T12:44:30.176Z,,,,,,,,,,,,,,,,,54,,,,,,,,,,,,,,467.03100014306256,,response,,,,100,,,,,,,Space,keypress(Space),,,,,,,,-- --- ---- --- ------ ----- ------- ---- -- --- ------- --<br>------- ---------- ------ -- ----- -- ----- -- ---- ------<br>the ----- --- --- ------ -------- ----- --- ------ ----- --<br>----- ----- ---------- --- --- ------ ------ ---- -- ------<br>------- --- ------ ----- --- ---- ------- -- ---- --- --<br>------- ------,207275.40000009537,207274.60000014305,206782.669,206801.90000009537,206807.569,207282.139,,22,the
screen,html.Screen,2_1_1_1_23,2022-05-03T12:44:30.729Z,,,,,,,,,,,,,,,,,54,,,,,,,,,,,,,,545.8610000000044,,response,,,,100,,,,,,,Space,keypress(Space),,,,,,,,-- --- ---- --- ------ ----- ------- ---- -- --- ------- --<br>------- ---------- ------ -- ----- -- ----- -- ---- ------<br>--- state --- --- ------ -------- ----- --- ------ ----- --<br>----- ----- ---------- --- --- ------ ------ ---- -- ------<br>------- --- ------ ----- --- ---- ------- -- ---- --- --<br>------- ------,207828.70000004768,207828,207257.239,207275.60000014305,207282.139,207831.538,,23,state
screen,html.Screen,2_1_1_1_24,2022-05-03T12:44:31.251Z,,,,,,,,,,,,,,,,,54,,,,,,,,,,,,,,518.362000095367,,response,,,,100,,,,,,,Space,keypress(Space),,,,,,,,-- --- ---- --- ------ ----- ------- ---- -- --- ------- --<br>------- ---------- ------ -- ----- -- ----- -- ---- ------<br>--- ----- cut --- ------ -------- ----- --- ------ ----- --<br>----- ----- ---------- --- --- ------ ------ ---- -- ------<br>------- --- ------ ----- --- ---- ------- -- ---- --- --<br>------- ------,208350.60000014305,208349.90000009537,207806.638,207828.80000019073,207831.538,208356.309,,24,cut
screen,html.Screen,2_1_1_1_25,2022-05-03T12:44:31.608Z,,,,,,,,,,,,,,,,,54,,,,,,,,,,,,,,351.09100009535905,,response,,,,100,,,,,,,Space,keypress(Space),,,,,,,,-- --- ---- --- ------ ----- ------- ---- -- --- ------- --<br>------- ---------- ------ -- ----- -- ----- -- ---- ------<br>--- ----- --- the ------ -------- ----- --- ------ ----- --<br>----- ----- ---------- --- --- ------ ------ ---- -- ------<br>------- --- ------ ----- --- ---- ------- -- ---- --- --<br>------- ------,208708.10000014305,208707.40000009537,208331.409,208350.80000019073,208356.309,208731.999,,25,the
screen,html.Screen,2_1_1_1_26,2022-05-03T12:44:32.092Z,,,,,,,,,,,,,,,,,54,,,,,,,,,,,,,,459.5009999999893,,response,,,,100,,,,,,,Space,keypress(Space),,,,,,,,-- --- ---- --- ------ ----- ------- ---- -- --- ------- --<br>------- ---------- ------ -- ----- -- ----- -- ---- ------<br>--- ----- --- --- bonds' -------- ----- --- ------ ----- --<br>----- ----- ---------- --- --- ------ ------ ---- -- ------<br>------- --- ------ ----- --- ---- ------- -- ---- --- --<br>------- ------,209192.20000004768,209191.5,208707.099,208708.30000019073,208731.999,209207.131,,26,bonds'
screen,html.Screen,2_1_1_1_27,2022-05-03T12:44:32.474Z,,,,,,,,,,,,,,,,,54,,,,,,,,,,,,,,365.86900000000605,,response,,,,100,,,,,,,Space,keypress(Space),,,,,,,,-- --- ---- --- ------ ----- ------- ---- -- --- ------- --<br>------- ---------- ------ -- ----- -- ----- -- ---- ------<br>--- ----- --- --- ------ interest ----- --- ------ ----- --<br>----- ----- ---------- --- --- ------ ------ ---- -- ------<br>------- --- ------ ----- --- ---- ------- -- ---- --- --<br>------- ------,209573.80000019073,209573,209182.231,209192.40000009537,209207.131,209582.052,,27,interest
screen,html.Screen,2_1_1_1_28,2022-05-03T12:44:32.795Z,,,,,,,,,,,,,,,,,54,,,,,,,,,,,,,,311.94800000000396,,response,,,,100,,,,,,,Space,keypress(Space),,,,,,,,-- --- ---- --- ------ ----- ------- ---- -- --- ------- --<br>------- ---------- ------ -- ----- -- ----- -- ---- ------<br>--- ----- --- --- ------ -------- rate. --- ------ ----- --<br>----- ----- ---------- --- --- ------ ------ ---- -- ------<br>------- --- ------ ----- --- ---- ------- -- ---- --- --<br>------- ------,209894.80000019073,209894,209557.152,209573.90000009537,209582.052,209907.622,,28,rate.
screen,html.Screen,2_1_1_1_29,2022-05-03T12:44:33.244Z,,,,,,,,,,,,,,,,,54,,,,,,,,,,,,,,435.67800019073184,,response,,,,100,,,,,,,Space,keypress(Space),,,,,,,,-- --- ---- --- ------ ----- ------- ---- -- --- ------- --<br>------- ---------- ------ -- ----- -- ----- -- ---- ------<br>--- ----- --- --- ------ -------- ----- The ------ ----- --<br>----- ----- ---------- --- --- ------ ------ ---- -- ------<br>------- --- ------ ----- --- ---- ------- -- ---- --- --<br>------- ------,210344.20000004768,210343.30000019073,209882.722,209894.90000009537,209907.622,210357.421,,29,The
screen,html.Screen,2_1_1_1_30,2022-05-03T12:44:33.617Z,,,,,,,,,,,,,,,,,54,,,,,,,,,,,,,,358.5789999999979,,response,,,,100,,,,,,,Space,keypress(Space),,,,,,,,-- --- ---- --- ------ ----- ------- ---- -- --- ------- --<br>------- ---------- ------ -- ----- -- ----- -- ---- ------<br>--- ----- --- --- ------ -------- ----- --- market ----- --<br>----- ----- ---------- --- --- ------ ------ ---- -- ------<br>------- --- ------ ----- --- ---- ------- -- ---- --- --<br>------- ------,210716.80000019073,210716,210332.521,210344.30000019073,210357.421,210732.212,,30,market
screen,html.Screen,2_1_1_1_31,2022-05-03T12:44:33.942Z,,,,,,,,,,,,,,,,,54,,,,,,,,,,,,,,308.4880000476842,,response,,,,100,,,,,,,Space,keypress(Space),,,,,,,,-- --- ---- --- ------ ----- ------- ---- -- --- ------- --<br>------- ---------- ------ -- ----- -- ----- -- ---- ------<br>--- ----- --- --- ------ -------- ----- --- ------ value --<br>----- ----- ---------- --- --- ------ ------ ---- -- ------<br>------- --- ------ ----- --- ---- ------- -- ---- --- --<br>------- ------,211041.5,211040.70000004768,210707.312,210717.10000014305,210732.212,211059.007,,31,value
screen,html.Screen,2_1_1_1_32,2022-05-03T12:44:34.386Z,,,,,,,,,,,,,,,,,54,,,,,,,,,,,,,,425.99299999998766,,response,,,,100,,,,,,,Space,keypress(Space),,,,,,,,-- --- ---- --- ------ ----- ------- ---- -- --- ------- --<br>------- ---------- ------ -- ----- -- ----- -- ---- ------<br>--- ----- --- --- ------ -------- ----- --- ------ ----- of<br>----- ----- ---------- --- --- ------ ------ ---- -- ------<br>------- --- ------ ----- --- ---- ------- -- ---- --- --<br>------- ------,211485.80000019073,211485,211034.107,211041.80000019073,211059.007,211508.471,,32,of
screen,html.Screen,2_1_1_1_33,2022-05-03T12:44:34.898Z,,,,,,,,,,,,,,,,,54,,,,,,,,,,,,,,488.3290001907444,,response,,,,100,,,,,,,Space,keypress(Space),,,,,,,,-- --- ---- --- ------ ----- ------- ---- -- --- ------- --<br>------- ---------- ------ -- ----- -- ----- -- ---- ------<br>--- ----- --- --- ------ -------- ----- --- ------ ----- --<br>these ----- ---------- --- --- ------ ------ ---- -- ------<br>------- --- ------ ----- --- ---- ------- -- ---- --- --<br>------- ------,211997.5,211996.80000019073,211483.571,211486,211508.471,212008.257,,33,these
screen,html.Screen,2_1_1_1_34,2022-05-03T12:44:35.315Z,,,,,,,,,,,,,,,,,54,,,,,,,,,,,,,,405.74299999998766,,response,,,,100,,,,,,,Space,keypress(Space),,,,,,,,-- --- ---- --- ------ ----- ------- ---- -- --- ------- --<br>------- ---------- ------ -- ----- -- ----- -- ---- ------<br>--- ----- --- --- ------ -------- ----- --- ------ ----- --<br>----- bonds ---------- --- --- ------ ------ ---- -- ------<br>------- --- ------ ----- --- ---- ------- -- ---- --- --<br>------- ------,212414.80000019073,212414,211983.357,211997.60000014305,212008.257,212431.67,,34,bonds
screen,html.Screen,2_1_1_1_35,2022-05-03T12:44:35.739Z,,,,,,,,,,,,,,,,,54,,,,,,,,,,,,,,405.8299999999872,,response,,,,100,,,,,,,Space,keypress(Space),,,,,,,,"-- --- ---- --- ------ ----- ------- ---- -- --- ------- --<br>------- ---------- ------ -- ----- -- ----- -- ---- ------<br>--- ----- --- --- ------ -------- ----- --- ------ ----- --<br>----- ----- plummeted, --- --- ------ ------ ---- -- ------<br>------- --- ------ ----- --- ---- ------- -- ---- --- --<br>------- ------",212838.30000019073,212837.5,212406.77,212414.90000009537,212431.67,212857.048,,35,"plummeted,"
screen,html.Screen,2_1_1_1_36,2022-05-03T12:44:36.565Z,,,,,,,,,,,,,,,,,54,,,,,,,,,,,,,,806.5520001430414,,response,,,,100,,,,,,,Space,keypress(Space),,,,,,,,-- --- ---- --- ------ ----- ------- ---- -- --- ------- --<br>------- ---------- ------ -- ----- -- ----- -- ---- ------<br>--- ----- --- --- ------ -------- ----- --- ------ ----- --<br>----- ----- ---------- and --- ------ ------ ---- -- ------<br>------- --- ------ ----- --- ---- ------- -- ---- --- --<br>------- ------,213664.5,213663.60000014305,212832.148,212838.40000009537,212857.048,213680.314,,36,and
screen,html.Screen,2_1_1_1_37,2022-05-03T12:44:37.036Z,,,,,,,,,,,,,,,,,54,,,,,,,,,,,,,,454.2860001430381,,response,,,,100,,,,,,,Space,keypress(Space),,,,,,,,-- --- ---- --- ------ ----- ------- ---- -- --- ------- --<br>------- ---------- ------ -- ----- -- ----- -- ---- ------<br>--- ----- --- --- ------ -------- ----- --- ------ ----- --<br>----- ----- ---------- --- the ------ ------ ---- -- ------<br>------- --- ------ ----- --- ---- ------- -- ---- --- --<br>------- ------,214135.40000009537,214134.60000014305,213655.414,213664.60000014305,213680.314,214155.081,,37,the
screen,html.Screen,2_1_1_1_38,2022-05-03T12:44:37.402Z,,,,,,,,,,,,,,,,,54,,,,,,,,,,,,,,346.31900009536184,,response,,,,100,,,,,,,Space,keypress(Space),,,,,,,,-- --- ---- --- ------ ----- ------- ---- -- --- ------- --<br>------- ---------- ------ -- ----- -- ----- -- ---- ------<br>--- ----- --- --- ------ -------- ----- --- ------ ----- --<br>----- ----- ---------- --- --- market ------ ---- -- ------<br>------- --- ------ ----- --- ---- ------- -- ---- --- --<br>------- ------,214502.20000004768,214501.40000009537,214130.181,214135.5,214155.081,214506.988,,38,market
screen,html.Screen,2_1_1_1_39,2022-05-03T12:44:37.693Z,,,,,,,,,,,,,,,,,54,,,,,,,,,,,,,,285.5119999999879,,response,,,,100,,,,,,,Space,keypress(Space),,,,,,,,-- --- ---- --- ------ ----- ------- ---- -- --- ------- --<br>------- ---------- ------ -- ----- -- ----- -- ---- ------<br>--- ----- --- --- ------ -------- ----- --- ------ ----- --<br>----- ----- ---------- --- --- ------ became ---- -- ------<br>------- --- ------ ----- --- ---- ------- -- ---- --- --<br>------- ------,214793.20000004768,214792.5,214482.088,214502.40000009537,214506.988,214807.686,,39,became
screen,html.Screen,2_1_1_1_40,2022-05-03T12:44:38.052Z,,,,,,,,,,,,,,,,,54,,,,,,,,,,,,,,343.71400009538047,,response,,,,100,,,,,,,Space,keypress(Space),,,,,,,,-- --- ---- --- ------ ----- ------- ---- -- --- ------- --<br>------- ---------- ------ -- ----- -- ----- -- ---- ------<br>--- ----- --- --- ------ -------- ----- --- ------ ----- --<br>----- ----- ---------- --- --- ------ ------ wary -- ------<br>------- --- ------ ----- --- ---- ------- -- ---- --- --<br>------- ------,215152.10000014305,215151.40000009537,214782.786,214793.30000019073,214807.686,215158.677,,40,wary
screen,html.Screen,2_1_1_1_41,2022-05-03T12:44:38.437Z,,,,,,,,,,,,,,,,,54,,,,,,,,,,,,,,377.4230001430551,,response,,,,100,,,,,,,Space,keypress(Space),,,,,,,,-- --- ---- --- ------ ----- ------- ---- -- --- ------- --<br>------- ---------- ------ -- ----- -- ----- -- ---- ------<br>--- ----- --- --- ------ -------- ----- --- ------ ----- --<br>----- ----- ---------- --- --- ------ ------ ---- of ------<br>------- --- ------ ----- --- ---- ------- -- ---- --- --<br>------- ------,215536.70000004768,215536.10000014305,215133.777,215152.20000004768,215158.677,215557.208,,41,of
screen,html.Screen,2_1_1_1_42,2022-05-03T12:44:38.856Z,,,,,,,,,,,,,,,,,54,,,,,,,,,,,,,,398.0920001907216,,response,,,,100,,,,,,,Space,keypress(Space),,,,,,,,-- --- ---- --- ------ ----- ------- ---- -- --- ------- --<br>------- ---------- ------ -- ----- -- ----- -- ---- ------<br>--- ----- --- --- ------ -------- ----- --- ------ ----- --<br>----- ----- ---------- --- --- ------ ------ ---- -- French<br>------- --- ------ ----- --- ---- ------- -- ---- --- --<br>------- ------,215956,215955.30000019073,215532.308,215536.90000009537,215557.208,215957.131,,42,French
screen,html.Screen,2_1_1_1_43,2022-05-03T12:44:39.240Z,,,,,,,,,,,,,,,,,54,,,,,,,,,,,,,,382.36900000000605,,response,,,,100,,,,,,,Space,keypress(Space),,,,,,,,-- --- ---- --- ------ ----- ------- ---- -- --- ------- --<br>------- ---------- ------ -- ----- -- ----- -- ---- ------<br>--- ----- --- --- ------ -------- ----- --- ------ ----- --<br>----- ----- ---------- --- --- ------ ------ ---- -- ------<br>credit. --- ------ ----- --- ---- ------- -- ---- --- --<br>------- ------,216340.30000019073,216339.5,215932.231,215956.20000004768,215957.131,216357.004,,43,credit.
screen,html.Screen,2_1_1_1_44,2022-05-03T12:44:39.648Z,,,,,,,,,,,,,,,,,54,,,,,,,,,,,,,,389.49600000001374,,response,,,,100,,,,,,,Space,keypress(Space),,,,,,,,-- --- ---- --- ------ ----- ------- ---- -- --- ------- --<br>------- ---------- ------ -- ----- -- ----- -- ---- ------<br>--- ----- --- --- ------ -------- ----- --- ------ ----- --<br>----- ----- ---------- --- --- ------ ------ ---- -- ------<br>------- The ------ ----- --- ---- ------- -- ---- --- --<br>------- ------,216747.20000004768,216746.5,216332.104,216340.40000009537,216357.004,216758.449,,44,The
screen,html.Screen,2_1_1_1_45,2022-05-03T12:44:39.935Z,,,,,,,,,,,,,,,,,54,,,,,,,,,,,,,,275.25100004769047,,response,,,,100,,,,,,,Space,keypress(Space),,,,,,,,-- --- ---- --- ------ ----- ------- ---- -- --- ------- --<br>------- ---------- ------ -- ----- -- ----- -- ---- ------<br>--- ----- --- --- ------ -------- ----- --- ------ ----- --<br>----- ----- ---------- --- --- ------ ------ ---- -- ------<br>------- --- French ----- --- ---- ------- -- ---- --- --<br>------- ------,217034.40000009537,217033.70000004768,216733.549,216747.40000009537,216758.449,217057.385,,45,French
screen,html.Screen,2_1_1_1_46,2022-05-03T12:44:40.250Z,,,,,,,,,,,,,,,,,54,,,,,,,,,,,,,,291.91500019072555,,response,,,,100,,,,,,,Space,keypress(Space),,,,,,,,-- --- ---- --- ------ ----- ------- ---- -- --- ------- --<br>------- ---------- ------ -- ----- -- ----- -- ---- ------<br>--- ----- --- --- ------ -------- ----- --- ------ ----- --<br>----- ----- ---------- --- --- ------ ------ ---- -- ------<br>------- --- ------ state --- ---- ------- -- ---- --- --<br>------- ------,217350.10000014305,217349.30000019073,217032.485,217034.60000014305,217057.385,217357.865,,46,state
screen,html.Screen,2_1_1_1_47,2022-05-03T12:44:40.606Z,,,,,,,,,,,,,,,,,54,,,,,,,,,,,,,,346.6350000000093,,response,,,,100,,,,,,,Space,keypress(Space),,,,,,,,-- --- ---- --- ------ ----- ------- ---- -- --- ------- --<br>------- ---------- ------ -- ----- -- ----- -- ---- ------<br>--- ----- --- --- ------ -------- ----- --- ------ ----- --<br>----- ----- ---------- --- --- ------ ------ ---- -- ------<br>------- --- ------ ----- was ---- ------- -- ---- --- --<br>------- ------,217705.30000019073,217704.5,217332.965,217350.20000004768,217357.865,217707.581,,47,was
screen,html.Screen,2_1_1_1_48,2022-05-03T12:44:40.970Z,,,,,,,,,,,,,,,,,54,,,,,,,,,,,,,,361.4189999999944,,response,,,,100,,,,,,,Space,keypress(Space),,,,,,,,-- --- ---- --- ------ ----- ------- ---- -- --- ------- --<br>------- ---------- ------ -- ----- -- ----- -- ---- ------<br>--- ----- --- --- ------ -------- ----- --- ------ ----- --<br>----- ----- ---------- --- --- ------ ------ ---- -- ------<br>------- --- ------ ----- --- left ------- -- ---- --- --<br>------- ------,218069.70000004768,218069,217682.681,217705.5,217707.581,218082.388,,48,left
screen,html.Screen,2_1_1_1_49,2022-05-03T12:44:41.378Z,,,,,,,,,,,,,,,,,54,,,,,,,,,,,,,,394.6119999999937,,response,,,,100,,,,,,,Space,keypress(Space),,,,,,,,-- --- ---- --- ------ ----- ------- ---- -- --- ------- --<br>------- ---------- ------ -- ----- -- ----- -- ---- ------<br>--- ----- --- --- ------ -------- ----- --- ------ ----- --<br>----- ----- ---------- --- --- ------ ------ ---- -- ------<br>------- --- ------ ----- --- ---- without -- ---- --- --<br>------- ------,218477.80000019073,218477,218057.488,218069.90000009537,218082.388,218482.116,,49,without
screen,html.Screen,2_1_1_1_50,2022-05-03T12:44:41.838Z,,,,,,,,,,,,,,,,,54,,,,,,,,,,,,,,454.48400014304207,,response,,,,100,,,,,,,Space,keypress(Space),,,,,,,,-- --- ---- --- ------ ----- ------- ---- -- --- ------- --<br>------- ---------- ------ -- ----- -- ----- -- ---- ------<br>--- ----- --- --- ------ -------- ----- --- ------ ----- --<br>----- ----- ---------- --- --- ------ ------ ---- -- ------<br>------- --- ------ ----- --- ---- ------- an ---- --- --<br>------- ------,218937.30000019073,218936.60000014305,218457.216,218478,218482.116,218956.706,,50,an
screen,html.Screen,2_1_1_1_51,2022-05-03T12:44:42.251Z,,,,,,,,,,,,,,,,,54,,,,,,,,,,,,,,393.4940000476781,,response,,,,100,,,,,,,Space,keypress(Space),,,,,,,,-- --- ---- --- ------ ----- ------- ---- -- --- ------- --<br>------- ---------- ------ -- ----- -- ----- -- ---- ------<br>--- ----- --- --- ------ -------- ----- --- ------ ----- --<br>----- ----- ---------- --- --- ------ ------ ---- -- ------<br>------- --- ------ ----- --- ---- ------- -- easy --- --<br>------- ------,219351,219350.20000004768,218931.806,218937.5,218956.706,219356.771,,51,easy
screen,html.Screen,2_1_1_1_52,2022-05-03T12:44:42.706Z,,,,,,,,,,,,,,,,,54,,,,,,,,,,,,,,448.1290000953595,,response,,,,100,,,,,,,Space,keypress(Space),,,,,,,,-- --- ---- --- ------ ----- ------- ---- -- --- ------- --<br>------- ---------- ------ -- ----- -- ----- -- ---- ------<br>--- ----- --- --- ------ -------- ----- --- ------ ----- --<br>----- ----- ---------- --- --- ------ ------ ---- -- ------<br>------- --- ------ ----- --- ---- ------- -- ---- way --<br>------- ------,219805.70000004768,219804.90000009537,219331.871,219351.10000014305,219356.771,219806.725,,52,way
screen,html.Screen,2_1_1_1_53,2022-05-03T12:44:43.158Z,,,,,,,,,,,,,,,,,54,,,,,,,,,,,,,,450.7749999999942,,response,,,,100,,,,,,,Space,keypress(Space),,,,,,,,-- --- ---- --- ------ ----- ------- ---- -- --- ------- --<br>------- ---------- ------ -- ----- -- ----- -- ---- ------<br>--- ----- --- --- ------ -------- ----- --- ------ ----- --<br>----- ----- ---------- --- --- ------ ------ ---- -- ------<br>------- --- ------ ----- --- ---- ------- -- ---- --- of<br>------- ------,220258.30000019073,220257.5,219781.825,219805.90000009537,219806.725,220281.485,,53,of
screen,html.Screen,2_1_1_1_54,2022-05-03T12:44:43.611Z,,,,,,,,,,,,,,,,,54,,,,,,,,,,,,,,428.31500019074883,,response,,,,100,,,,,,,Space,keypress(Space),,,,,,,,-- --- ---- --- ------ ----- ------- ---- -- --- ------- --<br>------- ---------- ------ -- ----- -- ----- -- ---- ------<br>--- ----- --- --- ------ -------- ----- --- ------ ----- --<br>----- ----- ---------- --- --- ------ ------ ---- -- ------<br>------- --- ------ ----- --- ---- ------- -- ---- --- --<br>raising ------,220710.5,220709.80000019073,220256.585,220258.40000009537,220281.485,220731.46,,54,raising
screen,html.Screen,2_1_1_1_55,2022-05-03T12:44:44.691Z,,,,,,,,,,,,,,,,,54,,,,,,,,,,,,,,1058.4400000953756,,response,,,,100,,,,,,,Space,keypress(Space),,,,,,,,-- --- ---- --- ------ ----- ------- ---- -- --- ------- --<br>------- ---------- ------ -- ----- -- ----- -- ---- ------<br>--- ----- --- --- ------ -------- ----- --- ------ ----- --<br>----- ----- ---------- --- --- ------ ------ ---- -- ------<br>------- --- ------ ----- --- ---- ------- -- ---- --- --<br>------- money.,221790.70000004768,221789.90000009537,220706.56,220710.60000014305,220731.46,221803.97,,55,money.
Item 100,flow.Loop,2_1_1_1,2022-05-03T12:44:44.691Z,,,,,,,,,,,,,,,,,,,,,,,,,,,,,,,26034.36700009537,,completion,,,,,H,,,,,,,,,,,silence,,,,,221791,221789.90000009537,195730.633,195732.70000004768,195755.533,221803.97,,,
Question 1,html.Screen,2_1_1_2,2022-05-03T12:44:47.173Z,,,,,,,,,,,,,,,,,,,,,,,,,,,,true,TRUE,,2468.13000014305,,response,,,,100,H,,,,,,TRUE,click #choice-1,,,,silence,,,,,224273,224272.10000014305,221779.07,221791,221803.97,224283.568,,,
Question 2,html.Screen,2_1_1_3,2022-05-03T12:44:50.966Z,,,,,,,,,,,,,,,,,,,,,,,,,,,,true,FALSE,,3780.7320001907356,,response,,,,100,H,,,,,,FALSE,click #choice-2,,,,silence,,,,,228065.30000019073,228064.30000019073,224258.668,224273.20000004768,224283.568,228083.241,,,
Item 100,flow.Sequence,2_1_1,2022-05-03T12:44:50.966Z,,,,,,,,,,,,,,,,,,,,,,,,,,,,,,,42303.93900019073,,completion,,,,,,,,,,,,,,,,,,,,,228065.60000014305,228064.30000019073,185735.461,185737.80000019073,185760.361,228083.241,,,
End of Practice,html.Page,2_1_2,2022-05-03T12:44:57.174Z,,,,,,,,,,,,,,,,,,,,,,,,,,,,,,,6190.059000190726,,form submission,,,,,,,,,,,,,,,,,,,,,234273.70000004768,234273.30000019073,228058.341,228065.70000004768,228083.241,234282.675,,,
Practice,flow.Sequence,2_1,2022-05-03T12:44:57.174Z,,,,,,,,,,,,,,,,,,,,,,,,,,,,,,,94911.75100019074,,completion,,,,,,,,,,,,,,,,,,,,,234274,234273.30000019073,139336.649,139354.40000009537,139361.549,234282.675,,,
Trap_instruction,html.Page,2_2_0,2022-05-03T12:45:02.654Z,,,,,,,,,,,,,,,,,,,,,,,,,,,,,,,5470.725000095379,,form submission,,,,,,,,,,,,,,,,,,,,,239753.70000004768,239753.40000009537,234257.775,234274.10000014305,234282.675,239832.22,,,
trap_trial,html.Screen,2_2_1,2022-05-03T12:45:07.421Z,,,,,,,,,,,,,,,,,,,,,,,,,,,,true,1,,4687.980000047683,,response,,,,,,,,,,,1,click #choice-1,,,,,,,,,244521.20000004768,244520.20000004768,239732.62,239753.90000009537,239832.22,244541.229,,,
end of trap trial,html.Page,2_2_2,2022-05-03T12:45:09.158Z,,,,,,,,,,,,,,,,,,,,,,,,,,,,,,,1716.271000000008,,form submission,,,,,,,,,,,,,,,,,,,,,246257.70000004768,246257.5,244516.329,244521.30000019073,244541.229,246281.975,,,
Trap 1,flow.Sequence,2_2,2022-05-03T12:45:09.158Z,,,,,,,,,,,,,,,,,,,,,,,,,,,,,,,11974.825000000012,,completion,,,,,,,,,,,,,,,,,,,,,246257.90000009537,246257.5,234257.775,234274.10000014305,234282.675,246281.975,,,
Standby,html.Page,2_3_0,2022-05-03T12:45:17.154Z,,,,,,,,,,,,,,,,,,,,,,,,,,,,,,,7994.93299999999,,timeout,,,,,,,,,,,,,,,,,,,,,254253.70000004768,254252.008,246257.075,246258.10000014305,246281.975,254276.908,,,
Holding screen,html.Screen,2_3_1_0_0,2022-05-03T12:45:24.153Z,,,,,,,,,,,,,,,,,,,,,,,,,,,,,,,6998.826000000001,,timeout,,,,,,,,,,,,,,,,,,,,,261252.40000009537,261250.834,254252.008,254254,254276.908,261275.734,,,
screen,html.Screen,2_3_1_0_1_0,2022-05-03T12:45:26.068Z,,,,,,,,,,,,,,,,,2,,,,,,,,,,,,,,1890.2660000000033,,response,,,,1,H,,,,,,Space,keypress(Space),,,,speech,,,,Two ---- ------ --- ------- ---------- ------- ----------<br>--- --------- --- ----------- ------- ----- ------- ---<br>--------- ---- -- --- ---- -- --------- -- ---- -------<br>-- --------- ------ --- ----- ------ ---- --- --------- --<br>------ - ---- -- --- ----------- ------- ---- ----- -----<br>--- -------- - ------ ---- -- ----- ---- --- --- -----------<br>-- -------,263167.10000014305,263166,261250.834,261252.60000014305,261275.734,263172.08,,0,Two
screen,html.Screen,2_3_1_0_1_1,2022-05-03T12:45:26.467Z,,,,,,,,,,,,,,,,,2,,,,,,,,,,,,,,393.32000009535113,,response,,,,1,H,,,,,,Space,keypress(Space),,,,speech,,,,--- days ------ --- ------- ---------- ------- ----------<br>--- --------- --- ----------- ------- ----- ------- ---<br>--------- ---- -- --- ---- -- --------- -- ---- -------<br>-- --------- ------ --- ----- ------ ---- --- --------- --<br>------ - ---- -- --- ----------- ------- ---- ----- -----<br>--- -------- - ------ ---- -- ----- ---- --- --- -----------<br>-- -------,263566.10000014305,263565.40000009537,263147.18,263167.40000009537,263172.08,263574.459,,1,days
screen,html.Screen,2_3_1_0_1_2,2022-05-03T12:45:26.762Z,,,,,,,,,,,,,,,,,2,,,,,,,,,,,,,,285.941000095394,,response,,,,1,H,,,,,,Space,keypress(Space),,,,speech,,,,"--- ---- later, --- ------- ---------- ------- ----------<br>--- --------- --- ----------- ------- ----- ------- ---<br>--------- ---- -- --- ---- -- --------- -- ---- -------<br>-- --------- ------ --- ----- ------ ---- --- --------- --<br>------ - ---- -- --- ----------- ------- ---- ----- -----<br>--- -------- - ------ ---- -- ----- ---- --- --- -----------<br>-- -------",263861.2000000477,263860.40000009537,263549.559,263566.2000000477,263574.459,263880.891,,2,"later,"
screen,html.Screen,2_3_1_0_1_3,2022-05-03T12:45:27.066Z,,,,,,,,,,,,,,,,,2,,,,,,,,,,,,,,283.4090001907316,,response,,,,1,H,,,,,,Space,keypress(Space),,,,speech,,,,--- ---- ------ the ------- ---------- ------- ----------<br>--- --------- --- ----------- ------- ----- ------- ---<br>--------- ---- -- --- ---- -- --------- -- ---- -------<br>-- --------- ------ --- ----- ------ ---- --- --------- --<br>------ - ---- -- --- ----------- ------- ---- ----- -----<br>--- -------- - ------ ---- -- ----- ---- --- --- -----------<br>-- -------,264165.10000014305,264164.30000019073,263855.991,263861.40000009537,263880.891,264181.267,,3,the
screen,html.Screen,2_3_1_0_1_4,2022-05-03T12:45:27.342Z,,,,,,,,,,,,,,,,,2,,,,,,,,,,,,,,259.3330001430586,,response,,,,1,H,,,,,,Space,keypress(Space),,,,speech,,,,--- ---- ------ --- British ---------- ------- ----------<br>--- --------- --- ----------- ------- ----- ------- ---<br>--------- ---- -- --- ---- -- --------- -- ---- -------<br>-- --------- ------ --- ----- ------ ---- --- --------- --<br>------ - ---- -- --- ----------- ------- ---- ----- -----<br>--- -------- - ------ ---- -- ----- ---- --- --- -----------<br>-- -------,264441.30000019073,264440.60000014305,264156.367,264165.30000019073,264181.267,264456.26,,4,British
screen,html.Screen,2_3_1_0_1_5,2022-05-03T12:45:27.605Z,,,,,,,,,,,,,,,,,2,,,,,,,,,,,,,,247.14000009535812,,response,,,,1,H,,,,,,Space,keypress(Space),,,,speech,,,,--- ---- ------ --- ------- astronomer ------- ----------<br>--- --------- --- ----------- ------- ----- ------- ---<br>--------- ---- -- --- ---- -- --------- -- ---- -------<br>-- --------- ------ --- ----- ------ ---- --- --------- --<br>------ - ---- -- --- ----------- ------- ---- ----- -----<br>--- -------- - ------ ---- -- ----- ---- --- --- -----------<br>-- -------,264704.2000000477,264703.40000009537,264431.36,264441.5,264456.26,264706.506,,5,astronomer
screen,html.Screen,2_3_1_0_1_6,2022-05-03T12:45:28.140Z,,,,,,,,,,,,,,,,,2,,,,,,,,,,,,,,532.2940001907409,,response,,,,1,H,,,,,,Space,keypress(Space),,,,speech,,,,--- ---- ------ --- ------- ---------- Richard ----------<br>--- --------- --- ----------- ------- ----- ------- ---<br>--------- ---- -- --- ---- -- --------- -- ---- -------<br>-- --------- ------ --- ----- ------ ---- --- --------- --<br>------ - ---- -- --- ----------- ------- ---- ----- -----<br>--- -------- - ------ ---- -- ----- ---- --- --- -----------<br>-- -------,265239.60000014305,265238.80000019073,264681.606,264704.30000019073,264706.506,265255.447,,6,Richard
screen,html.Screen,2_3_1_0_1_7,2022-05-03T12:45:28.513Z,,,,,,,,,,,,,,,,,2,,,,,,,,,,,,,,356.25300004769815,,response,,,,1,H,,,,,,Space,keypress(Space),,,,speech,,,,--- ---- ------ --- ------- ---------- ------- Carrington<br>--- --------- --- ----------- ------- ----- ------- ---<br>--------- ---- -- --- ---- -- --------- -- ---- -------<br>-- --------- ------ --- ----- ------ ---- --- --------- --<br>------ - ---- -- --- ----------- ------- ---- ----- -----<br>--- -------- - ------ ---- -- ----- ---- --- --- -----------<br>-- -------,265612.5,265611.7000000477,265230.547,265239.80000019073,265255.447,265629.866,,7,Carrington
screen,html.Screen,2_3_1_0_1_8,2022-05-03T12:45:28.900Z,,,,,,,,,,,,,,,,,2,,,,,,,,,,,,,,368.33400004770374,,response,,,,1,H,,,,,,Space,keypress(Space),,,,speech,,,,--- ---- ------ --- ------- ---------- ------- ----------<br>was --------- --- ----------- ------- ----- ------- ---<br>--------- ---- -- --- ---- -- --------- -- ---- -------<br>-- --------- ------ --- ----- ------ ---- --- --------- --<br>------ - ---- -- --- ----------- ------- ---- ----- -----<br>--- -------- - ------ ---- -- ----- ---- --- --- -----------<br>-- -------,265998.90000009537,265998.2000000477,265604.966,265612.60000014305,265629.866,266005.515,,8,was
screen,html.Screen,2_3_1_0_1_9,2022-05-03T12:45:29.353Z,,,,,,,,,,,,,,,,,2,,,,,,,,,,,,,,446.2850001907209,,response,,,,1,H,,,,,,Space,keypress(Space),,,,speech,,,,--- ---- ------ --- ------- ---------- ------- ----------<br>--- observing --- ----------- ------- ----- ------- ---<br>--------- ---- -- --- ---- -- --------- -- ---- -------<br>-- --------- ------ --- ----- ------ ---- --- --------- --<br>------ - ---- -- --- ----------- ------- ---- ----- -----<br>--- -------- - ------ ---- -- ----- ---- --- --- -----------<br>-- -------,266452.7000000477,266451.80000019073,265980.615,265999,266005.515,266455.17,,9,observing
screen,html.Screen,2_3_1_0_1_10,2022-05-03T12:45:29.639Z,,,,,,,,,,,,,,,,,2,,,,,,,,,,,,,,282.43000014306745,,response,,,,1,H,,,,,,Space,keypress(Space),,,,speech,,,,--- ---- ------ --- ------- ---------- ------- ----------<br>--- --------- the ----------- ------- ----- ------- ---<br>--------- ---- -- --- ---- -- --------- -- ---- -------<br>-- --------- ------ --- ----- ------ ---- --- --------- --<br>------ - ---- -- --- ----------- ------- ---- ----- -----<br>--- -------- - ------ ---- -- ----- ---- --- --- -----------<br>-- -------,266738.30000019073,266737.60000014305,266430.27,266452.80000019073,266455.17,266755.577,,10,the
screen,html.Screen,2_3_1_0_1_11,2022-05-03T12:45:30.036Z,,,,,,,,,,,,,,,,,2,,,,,,,,,,,,,,379.1230000476935,,response,,,,1,H,,,,,,Space,keypress(Space),,,,speech,,,,--- ---- ------ --- ------- ---------- ------- ----------<br>--- --------- --- interesting ------- ----- ------- ---<br>--------- ---- -- --- ---- -- --------- -- ---- -------<br>-- --------- ------ --- ----- ------ ---- --- --------- --<br>------ - ---- -- --- ----------- ------- ---- ----- -----<br>--- -------- - ------ ---- -- ----- ---- --- --- -----------<br>-- -------,267135.40000009537,267134.7000000477,266730.677,266738.5,266755.577,267155.786,,11,interesting
screen,html.Screen,2_3_1_0_1_12,2022-05-03T12:45:30.421Z,,,,,,,,,,,,,,,,,2,,,,,,,,,,,,,,364.11400009534555,,response,,,,1,H,,,,,,Space,keypress(Space),,,,speech,,,,--- ---- ------ --- ------- ---------- ------- ----------<br>--- --------- --- ----------- sunspot ----- ------- ---<br>--------- ---- -- --- ---- -- --------- -- ---- -------<br>-- --------- ------ --- ----- ------ ---- --- --------- --<br>------ - ---- -- --- ----------- ------- ---- ----- -----<br>--- -------- - ------ ---- -- ----- ---- --- --- -----------<br>-- -------,267520.60000014305,267519.90000009537,267130.886,267135.5,267155.786,267530.34,,12,sunspot
screen,html.Screen,2_3_1_0_1_13,2022-05-03T12:45:31.632Z,,,,,,,,,,,,,,,,,2,,,,,,,,,,,,,,1199.860000047658,,response,,,,1,H,,,,,,Space,keypress(Space),,,,speech,,,,--- ---- ------ --- ------- ---------- ------- ----------<br>--- --------- --- ----------- ------- group ------- ---<br>--------- ---- -- --- ---- -- --------- -- ---- -------<br>-- --------- ------ --- ----- ------ ---- --- --------- --<br>------ - ---- -- --- ----------- ------- ---- ----- -----<br>--- -------- - ------ ---- -- ----- ---- --- --- -----------<br>-- -------,268730.90000009537,268730.2000000477,267505.44,267520.80000019073,267530.34,268752.048,,13,group
screen,html.Screen,2_3_1_0_1_14,2022-05-03T12:45:32.063Z,,,,,,,,,,,,,,,,,2,,,,,,,,,,,,,,409.2520001907251,,response,,,,1,H,,,,,,Space,keypress(Space),,,,speech,,,,--- ---- ------ --- ------- ---------- ------- ----------<br>--- --------- --- ----------- ------- ----- through ---<br>--------- ---- -- --- ---- -- --------- -- ---- -------<br>-- --------- ------ --- ----- ------ ---- --- --------- --<br>------ - ---- -- --- ----------- ------- ---- ----- -----<br>--- -------- - ------ ---- -- ----- ---- --- --- -----------<br>-- -------,269162.5,269161.30000019073,268727.148,268731.2000000477,268752.048,269176.919,,14,through
screen,html.Screen,2_3_1_0_1_15,2022-05-03T12:45:32.464Z,,,,,,,,,,,,,,,,,2,,,,,,,,,,,,,,385.2810000476893,,response,,,,1,H,,,,,,Space,keypress(Space),,,,speech,,,,--- ---- ------ --- ------- ---------- ------- ----------<br>--- --------- --- ----------- ------- ----- ------- his<br>--------- ---- -- --- ---- -- --------- -- ---- -------<br>-- --------- ------ --- ----- ------ ---- --- --------- --<br>------ - ---- -- --- ----------- ------- ---- ----- -----<br>--- -------- - ------ ---- -- ----- ---- --- --- -----------<br>-- -------,269563,269562.2000000477,269152.019,269162.80000019073,269176.919,269581.666,,15,his
screen,html.Screen,2_3_1_0_1_16,2022-05-03T12:45:32.845Z,,,,,,,,,,,,,,,,,2,,,,,,,,,,,,,,362.0340000476572,,response,,,,1,H,,,,,,Space,keypress(Space),,,,speech,,,,--- ---- ------ --- ------- ---------- ------- ----------<br>--- --------- --- ----------- ------- ----- ------- ---<br>telescope ---- -- --- ---- -- --------- -- ---- -------<br>-- --------- ------ --- ----- ------ ---- --- --------- --<br>------ - ---- -- --- ----------- ------- ---- ----- -----<br>--- -------- - ------ ---- -- ----- ---- --- --- -----------<br>-- -------,269944.40000009537,269943.7000000477,269556.766,269563.2000000477,269581.666,269955.264,,16,telescope
screen,html.Screen,2_3_1_0_1_17,2022-05-03T12:45:33.167Z,,,,,,,,,,,,,,,,,2,,,,,,,,,,,,,,310.13600009534275,,response,,,,1,H,,,,,,Space,keypress(Space),,,,speech,,,,--- ---- ------ --- ------- ---------- ------- ----------<br>--- --------- --- ----------- ------- ----- ------- ---<br>--------- when -- --- ---- -- --------- -- ---- -------<br>-- --------- ------ --- ----- ------ ---- --- --------- --<br>------ - ---- -- --- ----------- ------- ---- ----- -----<br>--- -------- - ------ ---- -- ----- ---- --- --- -----------<br>-- -------,270266.30000019073,270265.40000009537,269930.364,269944.60000014305,269955.264,270280.624,,17,when
screen,html.Screen,2_3_1_0_1_18,2022-05-03T12:45:33.502Z,,,,,,,,,,,,,,,,,2,,,,,,,,,,,,,,319.97600014304044,,response,,,,1,H,,,,,,Space,keypress(Space),,,,speech,,,,--- ---- ------ --- ------- ---------- ------- ----------<br>--- --------- --- ----------- ------- ----- ------- ---<br>--------- ---- he --- ---- -- --------- -- ---- -------<br>-- --------- ------ --- ----- ------ ---- --- --------- --<br>------ - ---- -- --- ----------- ------- ---- ----- -----<br>--- -------- - ------ ---- -- ----- ---- --- --- -----------<br>-- -------,270601.40000009537,270600.60000014305,270255.724,270266.40000009537,270280.624,270605.839,,18,he
screen,html.Screen,2_3_1_0_1_19,2022-05-03T12:45:33.786Z,,,,,,,,,,,,,,,,,2,,,,,,,,,,,,,,278.46100019075675,,response,,,,1,H,,,,,,Space,keypress(Space),,,,speech,,,,--- ---- ------ --- ------- ---------- ------- ----------<br>--- --------- --- ----------- ------- ----- ------- ---<br>--------- ---- -- saw ---- -- --------- -- ---- -------<br>-- --------- ------ --- ----- ------ ---- --- --------- --<br>------ - ---- -- --- ----------- ------- ---- ----- -----<br>--- -------- - ------ ---- -- ----- ---- --- --- -----------<br>-- -------,270885.30000019073,270884.30000019073,270580.939,270601.60000014305,270605.839,270905.934,,19,saw
screen,html.Screen,2_3_1_0_1_20,2022-05-03T12:45:34.066Z,,,,,,,,,,,,,,,,,2,,,,,,,,,,,,,,257.8660001907265,,response,,,,1,H,,,,,,Space,keypress(Space),,,,speech,,,,--- ---- ------ --- ------- ---------- ------- ----------<br>--- --------- --- ----------- ------- ----- ------- ---<br>--------- ---- -- --- what -- --------- -- ---- -------<br>-- --------- ------ --- ----- ------ ---- --- --------- --<br>------ - ---- -- --- ----------- ------- ---- ----- -----<br>--- -------- - ------ ---- -- ----- ---- --- --- -----------<br>-- -------,271165.10000014305,271163.80000019073,270881.034,270885.40000009537,270905.934,271181.111,,20,what
screen,html.Screen,2_3_1_0_1_21,2022-05-03T12:45:34.359Z,,,,,,,,,,,,,,,,,2,,,,,,,,,,,,,,276.4890001430758,,response,,,,1,H,,,,,,Space,keypress(Space),,,,speech,,,,--- ---- ------ --- ------- ---------- ------- ----------<br>--- --------- --- ----------- ------- ----- ------- ---<br>--------- ---- -- --- ---- he --------- -- ---- -------<br>-- --------- ------ --- ----- ------ ---- --- --------- --<br>------ - ---- -- --- ----------- ------- ---- ----- -----<br>--- -------- - ------ ---- -- ----- ---- --- --- -----------<br>-- -------,271458.30000019073,271457.60000014305,271156.211,271165.30000019073,271181.111,271481.068,,21,he
screen,html.Screen,2_3_1_0_1_22,2022-05-03T12:45:34.598Z,,,,,,,,,,,,,,,,,2,,,,,,,,,,,,,,215.53200014302274,,response,,,,1,H,,,,,,Space,keypress(Space),,,,speech,,,,--- ---- ------ --- ------- ---------- ------- ----------<br>--- --------- --- ----------- ------- ----- ------- ---<br>--------- ---- -- --- ---- -- described -- ---- -------<br>-- --------- ------ --- ----- ------ ---- --- --------- --<br>------ - ---- -- --- ----------- ------- ---- ----- -----<br>--- -------- - ------ ---- -- ----- ---- --- --- -----------<br>-- -------,271697.5,271696.60000014305,271456.168,271458.60000014305,271481.068,271707.255,,22,described
screen,html.Screen,2_3_1_0_1_23,2022-05-03T12:45:34.997Z,,,,,,,,,,,,,,,,,2,,,,,,,,,,,,,,387.74499999999534,,response,,,,1,H,,,,,,Space,keypress(Space),,,,speech,,,,--- ---- ------ --- ------- ---------- ------- ----------<br>--- --------- --- ----------- ------- ----- ------- ---<br>--------- ---- -- --- ---- -- --------- as ---- -------<br>-- --------- ------ --- ----- ------ ---- --- --------- --<br>------ - ---- -- --- ----------- ------- ---- ----- -----<br>--- -------- - ------ ---- -- ----- ---- --- --- -----------<br>-- -------,272095.90000009537,272095,271682.355,271697.7000000477,271707.255,272105.807,,23,as
screen,html.Screen,2_3_1_0_1_24,2022-05-03T12:45:35.258Z,,,,,,,,,,,,,,,,,2,,,,,,,,,,,,,,251.09300009539584,,response,,,,1,H,,,,,,Space,keypress(Space),,,,speech,,,,"--- ---- ------ --- ------- ---------- ------- ----------<br>--- --------- --- ----------- ------- ----- ------- ---<br>--------- ---- -- --- ---- -- --------- -- ""two -------<br>-- --------- ------ --- ----- ------ ---- --- --------- --<br>------ - ---- -- --- ----------- ------- ---- ----- -----<br>--- -------- - ------ ---- -- ----- ---- --- --- -----------<br>-- -------",272357.60000014305,272356.90000009537,272080.907,272096.10000014305,272105.807,272380.7,,24,"""two"
screen,html.Screen,2_3_1_0_1_25,2022-05-03T12:45:35.698Z,,,,,,,,,,,,,,,,,2,,,,,,,,,,,,,,415.5000000476721,,response,,,,1,H,,,,,,Space,keypress(Space),,,,speech,,,,--- ---- ------ --- ------- ---------- ------- ----------<br>--- --------- --- ----------- ------- ----- ------- ---<br>--------- ---- -- --- ---- -- --------- -- ---- patches<br>-- --------- ------ --- ----- ------ ---- --- --------- --<br>------ - ---- -- --- ----------- ------- ---- ----- -----<br>--- -------- - ------ ---- -- ----- ---- --- --- -----------<br>-- -------,272797,272796.2000000477,272355.8,272357.80000019073,272380.7,272805.512,,25,patches
screen,html.Screen,2_3_1_0_1_26,2022-05-03T12:45:35.954Z,,,,,,,,,,,,,,,,,2,,,,,,,,,,,,,,247.18800004769582,,response,,,,1,H,,,,,,Space,keypress(Space),,,,speech,,,,--- ---- ------ --- ------- ---------- ------- ----------<br>--- --------- --- ----------- ------- ----- ------- ---<br>--------- ---- -- --- ---- -- --------- -- ---- -------<br>of --------- ------ --- ----- ------ ---- --- --------- --<br>------ - ---- -- --- ----------- ------- ---- ----- -----<br>--- -------- - ------ ---- -- ----- ---- --- --- -----------<br>-- -------,273053.60000014305,273052.7000000477,272780.612,272797.10000014305,272805.512,273055.566,,26,of
screen,html.Screen,2_3_1_0_1_27,2022-05-03T12:45:36.204Z,,,,,,,,,,,,,,,,,2,,,,,,,,,,,,,,247.43400000000838,,response,,,,1,H,,,,,,Space,keypress(Space),,,,speech,,,,--- ---- ------ --- ------- ---------- ------- ----------<br>--- --------- --- ----------- ------- ----- ------- ---<br>--------- ---- -- --- ---- -- --------- -- ---- -------<br>-- intensely ------ --- ----- ------ ---- --- --------- --<br>------ - ---- -- --- ----------- ------- ---- ----- -----<br>--- -------- - ------ ---- -- ----- ---- --- --- -----------<br>-- -------,273303.80000019073,273303,273030.666,273053.7000000477,273055.566,273307.259,,27,intensely
screen,html.Screen,2_3_1_0_1_28,2022-05-03T12:45:36.444Z,,,,,,,,,,,,,,,,,2,,,,,,,,,,,,,,235.24099999997998,,response,,,,1,H,,,,,,Space,keypress(Space),,,,speech,,,,--- ---- ------ --- ------- ---------- ------- ----------<br>--- --------- --- ----------- ------- ----- ------- ---<br>--------- ---- -- --- ---- -- --------- -- ---- -------<br>-- --------- bright --- ----- ------ ---- --- --------- --<br>------ - ---- -- --- ----------- ------- ---- ----- -----<br>--- -------- - ------ ---- -- ----- ---- --- --- -----------<br>-- -------,273543.2000000477,273542.5,273282.359,273304,273307.259,273557.247,,28,bright
screen,html.Screen,2_3_1_0_1_29,2022-05-03T12:45:36.715Z,,,,,,,,,,,,,,,,,2,,,,,,,,,,,,,,256.2530000000261,,response,,,,1,H,,,,,,Space,keypress(Space),,,,speech,,,,--- ---- ------ --- ------- ---------- ------- ----------<br>--- --------- --- ----------- ------- ----- ------- ---<br>--------- ---- -- --- ---- -- --------- -- ---- -------<br>-- --------- ------ and ----- ------ ---- --- --------- --<br>------ - ---- -- --- ----------- ------- ---- ----- -----<br>--- -------- - ------ ---- -- ----- ---- --- --- -----------<br>-- -------,273814.30000019073,273813.5,273532.347,273543.30000019073,273557.247,273831.206,,29,and
screen,html.Screen,2_3_1_0_1_30,2022-05-03T12:45:36.994Z,,,,,,,,,,,,,,,,,2,,,,,,,,,,,,,,261.5940001907293,,response,,,,1,H,,,,,,Space,keypress(Space),,,,speech,,,,--- ---- ------ --- ------- ---------- ------- ----------<br>--- --------- --- ----------- ------- ----- ------- ---<br>--------- ---- -- --- ---- -- --------- -- ---- -------<br>-- --------- ------ --- white ------ ---- --- --------- --<br>------ - ---- -- --- ----------- ------- ---- ----- -----<br>--- -------- - ------ ---- -- ----- ---- --- --- -----------<br>-- -------,274093.60000014305,274092.80000019073,273806.306,273814.5,273831.206,274106.944,,30,white
screen,html.Screen,2_3_1_0_1_31,2022-05-03T12:45:37.281Z,,,,,,,,,,,,,,,,,2,,,,,,,,,,,,,,272.15600014303345,,response,,,,1,H,,,,,,Space,keypress(Space),,,,speech,,,,"--- ---- ------ --- ------- ---------- ------- ----------<br>--- --------- --- ----------- ------- ----- ------- ---<br>--------- ---- -- --- ---- -- --------- -- ---- -------<br>-- --------- ------ --- ----- light"" ---- --- --------- --<br>------ - ---- -- --- ----------- ------- ---- ----- -----<br>--- -------- - ------ ---- -- ----- ---- --- --- -----------<br>-- -------",274379.90000009537,274379.10000014305,274082.044,274093.7000000477,274106.944,274382.113,,31,"light"""
screen,html.Screen,2_3_1_0_1_32,2022-05-03T12:45:37.778Z,,,,,,,,,,,,,,,,,2,,,,,,,,,,,,,,494.5870000476716,,response,,,,1,H,,,,,,Space,keypress(Space),,,,speech,,,,--- ---- ------ --- ------- ---------- ------- ----------<br>--- --------- --- ----------- ------- ----- ------- ---<br>--------- ---- -- --- ---- -- --------- -- ---- -------<br>-- --------- ------ --- ----- ------ over --- --------- --<br>------ - ---- -- --- ----------- ------- ---- ----- -----<br>--- -------- - ------ ---- -- ----- ---- --- --- -----------<br>-- -------,274877.40000009537,274876.7000000477,274357.213,274380.10000014305,274382.113,274880.187,,32,over
screen,html.Screen,2_3_1_0_1_33,2022-05-03T12:45:38.018Z,,,,,,,,,,,,,,,,,2,,,,,,,,,,,,,,236.9130001430749,,response,,,,1,H,,,,,,Space,keypress(Space),,,,speech,,,,--- ---- ------ --- ------- ---------- ------- ----------<br>--- --------- --- ----------- ------- ----- ------- ---<br>--------- ---- -- --- ---- -- --------- -- ---- -------<br>-- --------- ------ --- ----- ------ ---- the --------- --<br>------ - ---- -- --- ----------- ------- ---- ----- -----<br>--- -------- - ------ ---- -- ----- ---- --- --- -----------<br>-- -------,275117.80000019073,275117.10000014305,274855.287,274877.60000014305,274880.187,275130.298,,33,the
screen,html.Screen,2_3_1_0_1_34,2022-05-03T12:45:38.492Z,,,,,,,,,,,,,,,,,2,,,,,,,,,,,,,,460.60200009535765,,response,,,,1,H,,,,,,Space,keypress(Space),,,,speech,,,,--- ---- ------ --- ------- ---------- ------- ----------<br>--- --------- --- ----------- ------- ----- ------- ---<br>--------- ---- -- --- ---- -- --------- -- ---- -------<br>-- --------- ------ --- ----- ------ ---- --- sunspots. --<br>------ - ---- -- --- ----------- ------- ---- ----- -----<br>--- -------- - ------ ---- -- ----- ---- --- --- -----------<br>-- -------,275591.60000014305,275590.90000009537,275105.398,275118,275130.298,275605.375,,34,sunspots.
screen,html.Screen,2_3_1_0_1_35,2022-05-03T12:45:38.965Z,,,,,,,,,,,,,,,,,2,,,,,,,,,,,,,,457.72500014305115,,response,,,,1,H,,,,,,Space,keypress(Space),,,,speech,,,,--- ---- ------ --- ------- ---------- ------- ----------<br>--- --------- --- ----------- ------- ----- ------- ---<br>--------- ---- -- --- ---- -- --------- -- ---- -------<br>-- --------- ------ --- ----- ------ ---- --- --------- He<br>------ - ---- -- --- ----------- ------- ---- ----- -----<br>--- -------- - ------ ---- -- ----- ---- --- --- -----------<br>-- -------,276064,276063.10000014305,275580.475,275591.7000000477,275605.375,276079.482,,35,He
screen,html.Screen,2_3_1_0_1_36,2022-05-03T12:45:39.421Z,,,,,,,,,,,,,,,,,2,,,,,,,,,,,,,,440.41800009534927,,response,,,,1,H,,,,,,Space,keypress(Space),,,,speech,,,,--- ---- ------ --- ------- ---------- ------- ----------<br>--- --------- --- ----------- ------- ----- ------- ---<br>--------- ---- -- --- ---- -- --------- -- ---- -------<br>-- --------- ------ --- ----- ------ ---- --- --------- --<br>jotted - ---- -- --- ----------- ------- ---- ----- -----<br>--- -------- - ------ ---- -- ----- ---- --- --- -----------<br>-- -------,276520.7000000477,276519.90000009537,276054.582,276064.10000014305,276079.482,276529.59,,36,jotted
screen,html.Screen,2_3_1_0_1_37,2022-05-03T12:45:39.724Z,,,,,,,,,,,,,,,,,2,,,,,,,,,,,,,,293.01000014302554,,response,,,,1,H,,,,,,Space,keypress(Space),,,,speech,,,,--- ---- ------ --- ------- ---------- ------- ----------<br>--- --------- --- ----------- ------- ----- ------- ---<br>--------- ---- -- --- ---- -- --------- -- ---- -------<br>-- --------- ------ --- ----- ------ ---- --- --------- --<br>------ a ---- -- --- ----------- ------- ---- ----- -----<br>--- -------- - ------ ---- -- ----- ---- --- --- -----------<br>-- -------,276823.40000009537,276822.60000014305,276504.69,276520.80000019073,276529.59,276830.127,,37,a
