sender,sender_type,sender_id,timestamp,meta,,Blues,Classical,Country,Dance,Electronic,Folk,Gospel,Hip-Hop,Jazz,Latin,Musical/Film,New-age,Pop,Prolific_id,Provo_ID,R&B,Rap,Reggae,Religious,Rock,Soul,Swing,Traditional,age,artist_name,correct,correctResponse,distraction,duration,education,ended_on,familiarity,gender,headphone_check_performance,item,list,music_frequency,offensiveness,pleasantness,position_correct,preference,response,response_action,snippet_file,song_name,song_rating,sound,stimulus_1,stimulus_2,stimulus_3,text,time_commit,time_end,time_render,time_run,time_show,time_switch,url,word,word_ID
Prolific ID,html.Form,0,2022-04-27T13:06:14.077Z,"{""labjs_version"":""20.2.2"",""labjs_build"":{""flavor"":""production"",""commit"":""a25486e0c714a0ae2ce03ff94b7bb6896854dcfa""},""location"":""https://run.pavlovia.org/mvasilev/prolific3_music_c/"",""userAgent"":""Mozilla/5.0 (X11; CrOS x86_64 14526.89.0) AppleWebKit/537.36 (KHTML, like Gecko) Chrome/100.0.4896.133 Safari/537.36"",""platform"":""Linux x86_64"",""language"":""en-GB"",""locale"":""en-GB"",""timeZone"":""Europe/London"",""timezoneOffset"":-60,""screen_width"":1410,""screen_height"":940,""scroll_width"":1410,""scroll_height"":822,""window_innerWidth"":1410,""window_innerHeight"":869,""devicePixelRatio"":1.600000023841858}",,,,,,,,,,,,,,,5982eef79dfc3e00011d81e0,,,,,,,,,,,,,,,5000.488999999999,,form submission,,,,,,,,,,,,,,,,,,,,,12261.800000000003,12261.099999999999,7243.944,7246.9000000000015,7260.611,12274.139,{},,
Introduction,html.Screen,1_0,2022-04-27T13:06:18.149Z,,,,,,,,,,,,,,,,,,,,,,,,,,,,,,,4058.1609999999964,,response,,,,,,,,,,,continue,click button,,,,,,,,,16334.000000000007,16332.299999999996,12257.472,12262.099999999999,12274.139,16338.543,,,
Volume calibration,html.Screen,1_1,2022-04-27T13:06:32.816Z,,,,,,,,,,,,,,,,,,,,,,,,,,,,,,,14660.056999999999,,response,,,,,,,,,,,continue,click button,,,,,,,,,31000.299999999996,30998.6,16321.876,16334.099999999999,16338.543,31011.059,,,
Task instructions,html.Screen,1_2,2022-04-27T13:06:39.585Z,,,,,,,,,,,,,,,,,,,,,,,,,,,,,,,6756.941000000006,,response,,,,,,,,,,,continue,click button,,,,,,,,,37770.200000000004,37768.00000000001,30994.392,31000.500000000007,31011.059,37770.836,,,
Sounds,html.Screen,1_3_0_0,2022-04-27T13:06:43.814Z,,,,,,,,,,,,,,,,,,,,,,,,,,,,,,,4243.521999999997,,timeout,,,,,,,,,1,,,,,,,,S,O,I,,41998.4,41997.691,37754.169,37770.4,37770.836,42014.358,,,
Judgement,html.Screen,1_3_0_1,2022-04-27T13:06:45.275Z,,,,,,,,,,,,,,,,,,,,,,,,,,,,true,1,,1443.7419999999984,,response,,,,,,,,,1,,1,click #choice-1,,,,,S,O,I,,43459.799999999996,43458.1,41997.691,41998.50000000001,42014.358,43471.204,,,
Trial,flow.Sequence,1_3_0,2022-04-27T13:06:45.275Z,,,,,,,,,,,,,,,,,,,,,,,,,,,,,,,5687.263999999996,,completion,,,,,,,,,1,,,,,,,,S,O,I,,43460.200000000004,43458.1,37754.169,37770.4,37770.836,43471.204,,,
Sounds,html.Screen,1_3_1_0,2022-04-27T13:06:49.517Z,,,,,,,,,,,,,,,,,,,,,,,,,,,,,,,4246.353999999999,,timeout,,,,,,,,,2,,,,,,,,I,S,O,,47701.4,47700.891,43454.537,43460.50000000001,43471.204,47717.558,,,
Judgement,html.Screen,1_3_1_1,2022-04-27T13:06:50.422Z,,,,,,,,,,,,,,,,,,,,,,,,,,,,true,2,,886.8420000000042,,response,,,,,,,,,2,,2,click #choice-2,,,,,I,S,O,,48606.700000000004,48604.4,47700.891,47701.6,47717.558,48610.566,,,
Trial,flow.Sequence,1_3_1,2022-04-27T13:06:50.422Z,,,,,,,,,,,,,,,,,,,,,,,,,,,,,,,5133.196000000004,,completion,,,,,,,,,2,,,,,,,,I,S,O,,48606.9,48604.4,43454.537,43460.299999999996,43471.204,48610.566,,,
Sounds,html.Screen,1_3_2_0,2022-04-27T13:06:54.664Z,,,,,,,,,,,,,,,,,,,,,,,,,,,,,,,4253.700000000004,,timeout,,,,,,,,,3,,,,,,,,I,O,S,,52848.299999999996,52847.599,48593.899,48607.00000000001,48610.566,52864.266,,,
Judgement,html.Screen,1_3_2_1,2022-04-27T13:06:55.378Z,,,,,,,,,,,,,,,,,,,,,,,,,,,,true,3,,696.8339999999953,,response,,,,,,,,,3,,3,click #choice-3,,,,,I,O,S,,53563.00000000001,53561.1,52847.599,52848.4,52864.266,53574.51,,,
Trial,flow.Sequence,1_3_2,2022-04-27T13:06:55.379Z,,,,,,,,,,,,,,,,,,,,,,,,,,,,,,,4950.534,,completion,,,,,,,,,3,,,,,,,,I,O,S,,53563.299999999996,53561.1,48593.899,48607.00000000001,48610.566,53574.51,,,
Sounds,html.Screen,1_3_3_0,2022-04-27T13:06:59.620Z,,,,,,,,,,,,,,,,,,,,,,,,,,,,,,,4245.922999999995,,timeout,,,,,,,,,3,,,,,,,,O,I,S,,57804.6,57803.766,53557.843,53563.4,53574.51,57820.433,,,
Judgement,html.Screen,1_3_3_1,2022-04-27T13:07:00.244Z,,,,,,,,,,,,,,,,,,,,,,,,,,,,true,3,,606.56700000001,,response,,,,,,,,,3,,3,click #choice-3,,,,,O,I,S,,58428.700000000004,58427.00000000001,57803.766,57804.700000000004,57820.433,58441.436,,,
Trial,flow.Sequence,1_3_3,2022-04-27T13:07:00.244Z,,,,,,,,,,,,,,,,,,,,,,,,,,,,,,,4852.490000000005,,completion,,,,,,,,,3,,,,,,,,O,I,S,,58428.9,58427.00000000001,53557.843,53563.4,53574.51,58441.436,,,
Sounds,html.Screen,1_3_4_0,2022-04-27T13:07:04.499Z,,,,,,,,,,,,,,,,,,,,,,,,,,,,,,,4257.8240000000005,,timeout,,,,,,,,,2,,,,,,,,O,S,I,,62683.4,62682.579,58424.769,58429.00000000001,58441.436,62699.26,,,
Judgement,html.Screen,1_3_4_1,2022-04-27T13:07:05.886Z,,,,,,,,,,,,,,,,,,,,,,,,,,,,false,2,,1369.5399999999936,,response,,,,,,,,,2,,1,click #choice-1,,,,,O,S,I,,64070.6,64068.799999999996,62682.579,62683.50000000001,62699.26,64083.409,,,
Trial,flow.Sequence,1_3_4,2022-04-27T13:07:05.886Z,,,,,,,,,,,,,,,,,,,,,,,,,,,,,,,5627.363999999994,,completion,,,,,,,,,2,,,,,,,,O,S,I,,64070.799999999996,64068.799999999996,58424.769,58428.9,58441.436,64083.409,,,
Sounds,html.Screen,1_3_5_0,2022-04-27T13:07:10.129Z,,,,,,,,,,,,,,,,,,,,,,,,,,,,,,,4246.145000000004,,timeout,,,,,,,,,1,,,,,,,,S,I,O,,68313.4,68312.887,64066.742,64070.9,64083.409,68329.554,,,
Judgement,html.Screen,1_3_5_1,2022-04-27T13:07:10.721Z,,,,,,,,,,,,,,,,,,,,,,,,,,,,true,1,,574.4459999999963,,response,,,,,,,,,1,,1,click #choice-1,,,,,S,I,O,,68905.79999999999,68904,68312.887,68313.5,68329.554,68921.885,,,
Trial,flow.Sequence,1_3_5,2022-04-27T13:07:10.721Z,,,,,,,,,,,,,,,,,,,,,,,,,,,,,,,4820.591,,completion,,,,,,,,,1,,,,,,,,S,I,O,,68906,68904,64066.742,64070.9,64083.409,68921.885,,,
Task,flow.Loop,1_3,2022-04-27T13:07:10.726Z,,,,,,,,,,,,,,,,,,,,,,,,,,,,,,,31133.163999999997,,completion,,,0.8333333333333334,,,,,,,,,,,,,,,,,,68910.9,68904,37754.169,37770.299999999996,37770.836,68921.885,,,
Trap,html.Screen,1_4,2022-04-27T13:07:10.727Z,,,,,,,,,,,,,,,,,,,,,,,,,,,,,,,NaN,,skipped,,,,,,,,,,,,,,,,,,,,,68911.6,68904,,68911.5,,68921.885,,,
Thanks,html.Screen,1_5,2022-04-27T13:07:14.911Z,,,,,,,,,,,,,,,,,,,,,,,,,,,,,,,4172.115000000005,,response,,,,,,,,,,,continue,click button,,,,,,,,,73095.79999999999,73094,68905.218,68911.70000000001,68921.885,75625.206,,,
Headphone screening,flow.Sequence,1,2022-04-27T13:07:14.911Z,,,,,,,,,,,,,,,,,,,,,,,,,,,,,,,60819.861000000004,,completion,,,,,,,,,,,,,,,,,,,,,73095.9,73094,12257.472,12262,12274.139,75625.206,,,
Instructions,html.Page,2_0,2022-04-27T13:07:39.393Z,,,,,,,,,,,,,,,,,,,,,,,,,,,,,,,21952.093999999983,,form submission,,,,,,,,,,,,,,,,,,,,,97577.69999999998,97577.29999999999,75608.539,75606.29999999999,75625.206,97579.56,,,
Holding screen,html.Screen,2_1_0_0,2022-04-27T13:07:49.371Z,,,,,,,,,,,,,,,,,,,,,,,,,,,,,,,9991.733000000007,,timeout,,,,,,,,,,,,,,,,,,,,,107555.29999999999,107554.626,97562.893,97577.9,97579.56,107571.293,,,
screen,html.Screen,2_1_0_1_0,2022-04-27T13:07:49.943Z,,,,,,,,,,,,,,,,,53,,,,,,,,,,,,,,553.2069999999949,,response,,,,99,,,,,,,Space,keypress(Space),,,,,,,,When -- ----- -- ------ - ------- --- ----------<br>------------- ------ ------ ---- ---- ------- ----- -- ----<br>-------- ------- -- ---------- --- - --- ----- ----- ----<br>---- --- --- ----- --- ---- ---- ------- ----- ---- -------<br>--- --- -- ----- -- --- ---- -- --- ---- -- ------ ------<br>--- ----- -- ----,108128,108124.5,107554.626,107555.4,107571.293,108143.496,,0,When
screen,html.Screen,2_1_0_1_1,2022-04-27T13:07:50.503Z,,,,,,,,,,,,,,,,,53,,,,,,,,,,,,,,543.2039999999834,,response,,,,99,,,,,,,Space,keypress(Space),,,,,,,,---- it ----- -- ------ - ------- --- ----------<br>------------- ------ ------ ---- ---- ------- ----- -- ----<br>-------- ------- -- ---------- --- - --- ----- ----- ----<br>---- --- --- ----- --- ---- ---- ------- ----- ---- -------<br>--- --- -- ----- -- --- ---- -- --- ---- -- ------ ------<br>--- ----- -- ----,108687.5,108686.69999999998,108126.829,108128.1,108143.496,108701.765,,1,it
screen,html.Screen,2_1_0_1_2,2022-04-27T13:07:51.005Z,,,,,,,,,,,,,,,,,53,,,,,,,,,,,,,,486.53499999998894,,response,,,,99,,,,,,,Space,keypress(Space),,,,,,,,---- -- comes -- ------ - ------- --- ----------<br>------------- ------ ------ ---- ---- ------- ----- -- ----<br>-------- ------- -- ---------- --- - --- ----- ----- ----<br>---- --- --- ----- --- ---- ---- ------- ----- ---- -------<br>--- --- -- ----- -- --- ---- -- --- ---- -- ------ ------<br>--- ----- -- ----,109189.29999999999,109188.29999999999,108685.098,108687.69999999998,108701.765,109194.67,,2,comes
screen,html.Screen,2_1_0_1_3,2022-04-27T13:07:51.549Z,,,,,,,,,,,,,,,,,53,,,,,,,,,,,,,,537.7299999999959,,response,,,,99,,,,,,,Space,keypress(Space),,,,,,,,---- -- ----- to ------ - ------- --- ----------<br>------------- ------ ------ ---- ---- ------- ----- -- ----<br>-------- ------- -- ---------- --- - --- ----- ----- ----<br>---- --- --- ----- --- ---- ---- ------- ----- ---- -------<br>--- --- -- ----- -- --- ---- -- --- ---- -- ------ ------<br>--- ----- -- ----,109733.29999999999,109732.4,109178.003,109189.4,109194.67,109746.299,,3,to
screen,html.Screen,2_1_0_1_4,2022-04-27T13:07:52.052Z,,,,,,,,,,,,,,,,,53,,,,,,,,,,,,,,489.20100000000093,,response,,,,99,,,,,,,Space,keypress(Space),,,,,,,,---- -- ----- -- having - ------- --- ----------<br>------------- ------ ------ ---- ---- ------- ----- -- ----<br>-------- ------- -- ---------- --- - --- ----- ----- ----<br>---- --- --- ----- --- ---- ---- ------- ----- ---- -------<br>--- --- -- ----- -- --- ---- -- --- ---- -- ------ ------<br>--- ----- -- ----,110236.4,110235.5,109729.632,109733.4,109746.299,110240.424,,4,having
screen,html.Screen,2_1_0_1_5,2022-04-27T13:07:52.773Z,,,,,,,,,,,,,,,,,53,,,,,,,,,,,,,,716.2759999999835,,response,,,,99,,,,,,,Space,keypress(Space),,,,,,,,---- -- ----- -- ------ a ------- --- ----------<br>------------- ------ ------ ---- ---- ------- ----- -- ----<br>-------- ------- -- ---------- --- - --- ----- ----- ----<br>---- --- --- ----- --- ---- ---- ------- ----- ---- -------<br>--- --- -- ----- -- --- ---- -- --- ---- -- ------ ------<br>--- ----- -- ----,110957.6,110956.69999999998,110223.757,110236.6,110240.424,110960.105,,5,a
screen,html.Screen,2_1_0_1_6,2022-04-27T13:07:53.413Z,,,,,,,,,,,,,,,,,53,,,,,,,,,,,,,,635.8950000000041,,response,,,,99,,,,,,,Space,keypress(Space),,,,,,,,---- -- ----- -- ------ - lasting --- ----------<br>------------- ------ ------ ---- ---- ------- ----- -- ----<br>-------- ------- -- ---------- --- - --- ----- ----- ----<br>---- --- --- ----- --- ---- ---- ------- ----- ---- -------<br>--- --- -- ----- -- --- ---- -- --- ---- -- ------ ------<br>--- ----- -- ----,111597.4,111596,110943.438,110957.69999999998,110960.105,111598.425,,6,lasting
screen,html.Screen,2_1_0_1_7,2022-04-27T13:07:53.893Z,,,,,,,,,,,,,,,,,53,,,,,,,,,,,,,,478.0749999999971,,response,,,,99,,,,,,,Space,keypress(Space),,,,,,,,---- -- ----- -- ------ - ------- and ----------<br>------------- ------ ------ ---- ---- ------- ----- -- ----<br>-------- ------- -- ---------- --- - --- ----- ----- ----<br>---- --- --- ----- --- ---- ---- ------- ----- ---- -------<br>--- --- -- ----- -- --- ---- -- --- ---- -- ------ ------<br>--- ----- -- ----,112077.4,112076.5,111581.758,111597.6,111598.425,112088.461,,7,and
screen,html.Screen,2_1_0_1_8,2022-04-27T13:07:54.485Z,,,,,,,,,,,,,,,,,53,,,,,,,,,,,,,,579.9389999999985,,response,,,,99,,,,,,,Space,keypress(Space),,,,,,,,---- -- ----- -- ------ - ------- --- fulfilling<br>------------- ------ ------ ---- ---- ------- ----- -- ----<br>-------- ------- -- ---------- --- - --- ----- ----- ----<br>---- --- --- ----- --- ---- ---- ------- ----- ---- -------<br>--- --- -- ----- -- --- ---- -- --- ---- -- ------ ------<br>--- ----- -- ----,112669.29999999999,112668.4,112071.794,112077.6,112088.461,112684.829,,8,fulfilling
screen,html.Screen,2_1_0_1_9,2022-04-27T13:07:55.139Z,,,,,,,,,,,,,,,,,53,,,,,,,,,,,,,,637.8709999999846,,response,,,,99,,,,,,,Space,keypress(Space),,,,,,,,"---- -- ----- -- ------ - ------- --- ----------<br>relationship, ------ ------ ---- ---- ------- ----- -- ----<br>-------- ------- -- ---------- --- - --- ----- ----- ----<br>---- --- --- ----- --- ---- ---- ------- ----- ---- -------<br>--- --- -- ----- -- --- ---- -- --- ---- -- ------ ------<br>--- ----- -- ----",113323.79999999999,113322.69999999998,112668.162,112669.29999999999,112684.829,113326.365,,9,"relationship,"
screen,html.Screen,2_1_0_1_10,2022-04-27T13:07:55.689Z,,,,,,,,,,,,,,,,,53,,,,,,,,,,,,,,546.0349999999889,,response,,,,99,,,,,,,Space,keypress(Space),,,,,,,,---- -- ----- -- ------ - ------- --- ----------<br>------------- common ------ ---- ---- ------- ----- -- ----<br>-------- ------- -- ---------- --- - --- ----- ----- ----<br>---- --- --- ----- --- ---- ---- ------- ----- ---- -------<br>--- --- -- ----- -- --- ---- -- --- ---- -- ------ ------<br>--- ----- -- ----,113873.29999999999,113872.4,113309.698,113323.9,113326.365,113880.816,,10,common
screen,html.Screen,2_1_0_1_11,2022-04-27T13:07:56.239Z,,,,,,,,,,,,,,,,,53,,,,,,,,,,,,,,542.1839999999938,,response,,,,99,,,,,,,Space,keypress(Space),,,,,,,,---- -- ----- -- ------ - ------- --- ----------<br>------------- ------ wisdom ---- ---- ------- ----- -- ----<br>-------- ------- -- ---------- --- - --- ----- ----- ----<br>---- --- --- ----- --- ---- ---- ------- ----- ---- -------<br>--- --- -- ----- -- --- ---- -- --- ---- -- ------ ------<br>--- ----- -- ----,114423.9,114423,113864.149,113873.29999999999,113880.816,114430.249,,11,wisdom
screen,html.Screen,2_1_0_1_12,2022-04-27T13:07:56.796Z,,,,,,,,,,,,,,,,,53,,,,,,,,,,,,,,549.4509999999864,,response,,,,99,,,,,,,Space,keypress(Space),,,,,,,,---- -- ----- -- ------ - ------- --- ----------<br>------------- ------ ------ says ---- ------- ----- -- ----<br>-------- ------- -- ---------- --- - --- ----- ----- ----<br>---- --- --- ----- --- ---- ---- ------- ----- ---- -------<br>--- --- -- ----- -- --- ---- -- --- ---- -- ------ ------<br>--- ----- -- ----,114980.6,114979.69999999998,114413.582,114424,114430.249,114981.289,,12,says
screen,html.Screen,2_1_0_1_13,2022-04-27T13:07:57.341Z,,,,,,,,,,,,,,,,,53,,,,,,,,,,,,,,543.6109999999899,,response,,,,99,,,,,,,Space,keypress(Space),,,,,,,,---- -- ----- -- ------ - ------- --- ----------<br>------------- ------ ------ ---- that ------- ----- -- ----<br>-------- ------- -- ---------- --- - --- ----- ----- ----<br>---- --- --- ----- --- ---- ---- ------- ----- ---- -------<br>--- --- -- ----- -- --- ---- -- --- ---- -- ------ ------<br>--- ----- -- ----,115525.69999999998,115524.9,114964.622,114980.69999999998,114981.289,115537.502,,13,that
screen,html.Screen,2_1_0_1_14,2022-04-27T13:07:57.935Z,,,,,,,,,,,,,,,,,53,,,,,,,,,,,,,,581.7979999999952,,response,,,,99,,,,,,,Space,keypress(Space),,,,,,,,---- -- ----- -- ------ - ------- --- ----------<br>------------- ------ ------ ---- ---- feeling ----- -- ----<br>-------- ------- -- ---------- --- - --- ----- ----- ----<br>---- --- --- ----- --- ---- ---- ------- ----- ---- -------<br>--- --- -- ----- -- --- ---- -- --- ---- -- ------ ------<br>--- ----- -- ----,116120.1,116119.29999999999,115520.835,115525.79999999999,115537.502,116132.52,,14,feeling
screen,html.Screen,2_1_0_1_15,2022-04-27T13:07:58.695Z,,,,,,,,,,,,,,,,,53,,,,,,,,,,,,,,746.1799999999785,,response,,,,99,,,,,,,Space,keypress(Space),,,,,,,,---- -- ----- -- ------ - ------- --- ----------<br>------------- ------ ------ ---- ---- ------- close -- ----<br>-------- ------- -- ---------- --- - --- ----- ----- ----<br>---- --- --- ----- --- ---- ---- ------- ----- ---- -------<br>--- --- -- ----- -- --- ---- -- --- ---- -- ------ ------<br>--- ----- -- ----,116879.6,116878.69999999998,116115.853,116120.19999999998,116132.52,116893.804,,15,close
screen,html.Screen,2_1_0_1_16,2022-04-27T13:07:59.273Z,,,,,,,,,,,,,,,,,53,,,,,,,,,,,,,,562.6959999999963,,response,,,,99,,,,,,,Space,keypress(Space),,,,,,,,---- -- ----- -- ------ - ------- --- ----------<br>------------- ------ ------ ---- ---- ------- ----- to ----<br>-------- ------- -- ---------- --- - --- ----- ----- ----<br>---- --- --- ----- --- ---- ---- ------- ----- ---- -------<br>--- --- -- ----- -- --- ---- -- --- ---- -- ------ ------<br>--- ----- -- ----,117457.29999999999,117456.5,116877.137,116879.69999999998,116893.804,117469.723,,16,to
screen,html.Screen,2_1_0_1_17,2022-04-27T13:07:59.839Z,,,,,,,,,,,,,,,,,53,,,,,,,,,,,,,,553.4769999999844,,response,,,,99,,,,,,,Space,keypress(Space),,,,,,,,---- -- ----- -- ------ - ------- --- ----------<br>------------- ------ ------ ---- ---- ------- ----- -- your<br>-------- ------- -- ---------- --- - --- ----- ----- ----<br>---- --- --- ----- --- ---- ---- ------- ----- ---- -------<br>--- --- -- ----- -- --- ---- -- --- ---- -- ------ ------<br>--- ----- -- ----,118024.1,118023.19999999998,117453.056,117457.5,117469.723,118032.018,,17,your
screen,html.Screen,2_1_0_1_18,2022-04-27T13:08:00.519Z,,,,,,,,,,,,,,,,,53,,,,,,,,,,,,,,670.781999999992,,response,,,,99,,,,,,,Space,keypress(Space),,,,,,,,---- -- ----- -- ------ - ------- --- ----------<br>------------- ------ ------ ---- ---- ------- ----- -- ----<br>romantic ------- -- ---------- --- - --- ----- ----- ----<br>---- --- --- ----- --- ---- ---- ------- ----- ---- -------<br>--- --- -- ----- -- --- ---- -- --- ---- -- ------ ------<br>--- ----- -- ----,118704,118702.79999999999,118015.351,118024.19999999998,118032.018,118714.744,,18,romantic
screen,html.Screen,2_1_0_1_19,2022-04-27T13:08:01.088Z,,,,,,,,,,,,,,,,,53,,,,,,,,,,,,,,557.0559999999823,,response,,,,99,,,,,,,Space,keypress(Space),,,,,,,,---- -- ----- -- ------ - ------- --- ----------<br>------------- ------ ------ ---- ---- ------- ----- -- ----<br>-------- partner -- ---------- --- - --- ----- ----- ----<br>---- --- --- ----- --- ---- ---- ------- ----- ---- -------<br>--- --- -- ----- -- --- ---- -- --- ---- -- ------ ------<br>--- ----- -- ----,119272.79999999999,119271.79999999999,118698.077,118704.19999999998,118714.744,119277.698,,19,partner
screen,html.Screen,2_1_0_1_20,2022-04-27T13:08:01.723Z,,,,,,,,,,,,,,,,,53,,,,,,,,,,,,,,628.801999999996,,response,,,,99,,,,,,,Space,keypress(Space),,,,,,,,---- -- ----- -- ------ - ------- --- ----------<br>------------- ------ ------ ---- ---- ------- ----- -- ----<br>-------- ------- is ---------- --- - --- ----- ----- ----<br>---- --- --- ----- --- ---- ---- ------- ----- ---- -------<br>--- --- -- ----- -- --- ---- -- --- ---- -- ------ ------<br>--- ----- -- ----,119907.4,119906.5,119261.031,119272.9,119277.698,119913.052,,20,is
screen,html.Screen,2_1_0_1_21,2022-04-27T13:08:02.483Z,,,,,,,,,,,,,,,,,53,,,,,,,,,,,,,,753.448000000004,,response,,,,99,,,,,,,Space,keypress(Space),,,,,,,,---- -- ----- -- ------ - ------- --- ----------<br>------------- ------ ------ ---- ---- ------- ----- -- ----<br>-------- ------- -- paramount. --- - --- ----- ----- ----<br>---- --- --- ----- --- ---- ---- ------- ----- ---- -------<br>--- --- -- ----- -- --- ---- -- --- ---- -- ------ ------<br>--- ----- -- ----,120667.4,120666.5,119896.385,119907.6,119913.052,120680.975,,21,paramount.
screen,html.Screen,2_1_0_1_22,2022-04-27T13:08:03.098Z,,,,,,,,,,,,,,,,,53,,,,,,,,,,,,,,600.5249999999942,,response,,,,99,,,,,,,Space,keypress(Space),,,,,,,,---- -- ----- -- ------ - ------- --- ----------<br>------------- ------ ------ ---- ---- ------- ----- -- ----<br>-------- ------- -- ---------- But - --- ----- ----- ----<br>---- --- --- ----- --- ---- ---- ------- ----- ---- -------<br>--- --- -- ----- -- --- ---- -- --- ---- -- ------ ------<br>--- ----- -- ----,121282.29999999999,121281.5,120664.308,120667.5,120680.975,121290.854,,22,But
screen,html.Screen,2_1_0_1_23,2022-04-27T13:08:03.764Z,,,,,,,,,,,,,,,,,53,,,,,,,,,,,,,,657.1459999999934,,response,,,,99,,,,,,,Space,keypress(Space),,,,,,,,---- -- ----- -- ------ - ------- --- ----------<br>------------- ------ ------ ---- ---- ------- ----- -- ----<br>-------- ------- -- ---------- --- a --- ----- ----- ----<br>---- --- --- ----- --- ---- ---- ------- ----- ---- -------<br>--- --- -- ----- -- --- ---- -- --- ---- -- ------ ------<br>--- ----- -- ----,121948.79999999999,121948,121274.187,121282.5,121290.854,121956.097,,23,a
screen,html.Screen,2_1_0_1_24,2022-04-27T13:08:04.419Z,,,,,,,,,,,,,,,,,53,,,,,,,,,,,,,,646.9030000000057,,response,,,,99,,,,,,,Space,keypress(Space),,,,,,,,---- -- ----- -- ------ - ------- --- ----------<br>------------- ------ ------ ---- ---- ------- ----- -- ----<br>-------- ------- -- ---------- --- - new ----- ----- ----<br>---- --- --- ----- --- ---- ---- ------- ----- ---- -------<br>--- --- -- ----- -- --- ---- -- --- ---- -- ------ ------<br>--- ----- -- ----,122603.9,122603,121939.43,121948.9,121956.097,122605.735,,24,new
screen,html.Screen,2_1_0_1_25,2022-04-27T13:08:05.032Z,,,,,,,,,,,,,,,,,53,,,,,,,,,,,,,,610.2649999999994,,response,,,,99,,,,,,,Space,keypress(Space),,,,,,,,---- -- ----- -- ------ - ------- --- ----------<br>------------- ------ ------ ---- ---- ------- ----- -- ----<br>-------- ------- -- ---------- --- - --- study ----- ----<br>---- --- --- ----- --- ---- ---- ------- ----- ---- -------<br>--- --- -- ----- -- --- ---- -- --- ---- -- ------ ------<br>--- ----- -- ----,123216.9,123216,122589.068,122604,122605.735,123227.653,,25,study
screen,html.Screen,2_1_0_1_26,2022-04-27T13:08:05.586Z,,,,,,,,,,,,,,,,,53,,,,,,,,,,,,,,542.0469999999768,,response,,,,99,,,,,,,Space,keypress(Space),,,,,,,,---- -- ----- -- ------ - ------- --- ----------<br>------------- ------ ------ ---- ---- ------- ----- -- ----<br>-------- ------- -- ---------- --- - --- ----- finds ----<br>---- --- --- ----- --- ---- ---- ------- ----- ---- -------<br>--- --- -- ----- -- --- ---- -- --- ---- -- ------ ------<br>--- ----- -- ----,123770.6,123769.69999999998,123210.986,123217,123227.653,123773.74,,26,finds
screen,html.Screen,2_1_0_1_27,2022-04-27T13:08:06.210Z,,,,,,,,,,,,,,,,,53,,,,,,,,,,,,,,620.4599999999773,,response,,,,99,,,,,,,Space,keypress(Space),,,,,,,,---- -- ----- -- ------ - ------- --- ----------<br>------------- ------ ------ ---- ---- ------- ----- -- ----<br>-------- ------- -- ---------- --- - --- ----- ----- that<br>---- --- --- ----- --- ---- ---- ------- ----- ---- -------<br>--- --- -- ----- -- --- ---- -- --- ---- -- ------ ------<br>--- ----- -- ----,124395,124394.19999999998,123757.073,123770.69999999998,123773.74,124411.078,,27,that
screen,html.Screen,2_1_0_1_28,2022-04-27T13:08:06.891Z,,,,,,,,,,,,,,,,,53,,,,,,,,,,,,,,663.9220000000059,,response,,,,99,,,,,,,Space,keypress(Space),,,,,,,,---- -- ----- -- ------ - ------- --- ----------<br>------------- ------ ------ ---- ---- ------- ----- -- ----<br>-------- ------- -- ---------- --- - --- ----- ----- ----<br>it's --- --- ----- --- ---- ---- ------- ----- ---- -------<br>--- --- -- ----- -- --- ---- -- --- ---- -- ------ ------<br>--- ----- -- ----,125076,125075,124394.411,124395.19999999998,124411.078,125085.241,,28,it's
screen,html.Screen,2_1_0_1_29,2022-04-27T13:08:07.422Z,,,,,,,,,,,,,,,,,53,,,,,,,,,,,,,,520.6589999999997,,response,,,,99,,,,,,,Space,keypress(Space),,,,,,,,---- -- ----- -- ------ - ------- --- ----------<br>------------- ------ ------ ---- ---- ------- ----- -- ----<br>-------- ------- -- ---------- --- - --- ----- ----- ----<br>---- not --- ----- --- ---- ---- ------- ----- ---- -------<br>--- --- -- ----- -- --- ---- -- --- ---- -- ------ ------<br>--- ----- -- ----,125606.9,125605.9,125068.574,125076.1,125085.241,125616.763,,29,not
screen,html.Screen,2_1_0_1_30,2022-04-27T13:08:08.057Z,,,,,,,,,,,,,,,,,53,,,,,,,,,,,,,,623.9369999999763,,response,,,,99,,,,,,,Space,keypress(Space),,,,,,,,---- -- ----- -- ------ - ------- --- ----------<br>------------- ------ ------ ---- ---- ------- ----- -- ----<br>-------- ------- -- ---------- --- - --- ----- ----- ----<br>---- --- how ----- --- ---- ---- ------- ----- ---- -------<br>--- --- -- ----- -- --- ---- -- --- ---- -- ------ ------<br>--- ----- -- ----,126241.6,126240.69999999998,125600.096,125607,125616.763,126247.346,,30,how
screen,html.Screen,2_1_0_1_31,2022-04-27T13:08:08.652Z,,,,,,,,,,,,,,,,,53,,,,,,,,,,,,,,588.9539999999834,,response,,,,99,,,,,,,Space,keypress(Space),,,,,,,,---- -- ----- -- ------ - ------- --- ----------<br>------------- ------ ------ ---- ---- ------- ----- -- ----<br>-------- ------- -- ---------- --- - --- ----- ----- ----<br>---- --- --- close --- ---- ---- ------- ----- ---- -------<br>--- --- -- ----- -- --- ---- -- --- ---- -- ------ ------<br>--- ----- -- ----,126837,126836.29999999999,126230.679,126241.6,126247.346,126848.862,,31,close
screen,html.Screen,2_1_0_1_32,2022-04-27T13:08:09.130Z,,,,,,,,,,,,,,,,,53,,,,,,,,,,,,,,464.6380000000063,,response,,,,99,,,,,,,Space,keypress(Space),,,,,,,,---- -- ----- -- ------ - ------- --- ----------<br>------------- ------ ------ ---- ---- ------- ----- -- ----<br>-------- ------- -- ---------- --- - --- ----- ----- ----<br>---- --- --- ----- you ---- ---- ------- ----- ---- -------<br>--- --- -- ----- -- --- ---- -- --- ---- -- ------ ------<br>--- ----- -- ----,127314.5,127313.5,126832.195,126837,126848.862,127326.027,,32,you
screen,html.Screen,2_1_0_1_33,2022-04-27T13:08:09.655Z,,,,,,,,,,,,,,,,,53,,,,,,,,,,,,,,512.8729999999923,,response,,,,99,,,,,,,Space,keypress(Space),,,,,,,,---- -- ----- -- ------ - ------- --- ----------<br>------------- ------ ------ ---- ---- ------- ----- -- ----<br>-------- ------- -- ---------- --- - --- ----- ----- ----<br>---- --- --- ----- --- feel ---- ------- ----- ---- -------<br>--- --- -- ----- -- --- ---- -- --- ---- -- ------ ------<br>--- ----- -- ----,127839.79999999999,127838.9,127309.36,127314.6,127326.027,127854.642,,33,feel
screen,html.Screen,2_1_0_1_34,2022-04-27T13:08:10.194Z,,,,,,,,,,,,,,,,,53,,,,,,,,,,,,,,522.7579999999871,,response,,,,99,,,,,,,Space,keypress(Space),,,,,,,,---- -- ----- -- ------ - ------- --- ----------<br>------------- ------ ------ ---- ---- ------- ----- -- ----<br>-------- ------- -- ---------- --- - --- ----- ----- ----<br>---- --- --- ----- --- ---- that ------- ----- ---- -------<br>--- --- -- ----- -- --- ---- -- --- ---- -- ------ ------<br>--- ----- -- ----,128378.4,128377.4,127837.975,127840,127854.642,128380.157,,34,that
screen,html.Screen,2_1_0_1_35,2022-04-27T13:08:10.837Z,,,,,,,,,,,,,,,,,53,,,,,,,,,,,,,,639.9429999999993,,response,,,,99,,,,,,,Space,keypress(Space),,,,,,,,---- -- ----- -- ------ - ------- --- ----------<br>------------- ------ ------ ---- ---- ------- ----- -- ----<br>-------- ------- -- ---------- --- - --- ----- ----- ----<br>---- --- --- ----- --- ---- ---- matters ----- ---- -------<br>--- --- -- ----- -- --- ---- -- --- ---- -- ------ ------<br>--- ----- -- ----,129021.4,129020.1,128363.49,128378.5,128380.157,129035.506,,35,matters
screen,html.Screen,2_1_0_1_36,2022-04-27T13:08:11.533Z,,,,,,,,,,,,,,,,,53,,,,,,,,,,,,,,681.5940000000119,,response,,,,99,,,,,,,Space,keypress(Space),,,,,,,,"---- -- ----- -- ------ - ------- --- ----------<br>------------- ------ ------ ---- ---- ------- ----- -- ----<br>-------- ------- -- ---------- --- - --- ----- ----- ----<br>---- --- --- ----- --- ---- ---- ------- most, ---- -------<br>--- --- -- ----- -- --- ---- -- --- ---- -- ------ ------<br>--- ----- -- ----",129718,129717.1,129018.839,129021.5,129035.506,129728.389,,36,"most,"
screen,html.Screen,2_1_0_1_37,2022-04-27T13:08:12.029Z,,,,,,,,,,,,,,,,,53,,,,,,,,,,,,,,484.5109999999986,,response,,,,99,,,,,,,Space,keypress(Space),,,,,,,,---- -- ----- -- ------ - ------- --- ----------<br>------------- ------ ------ ---- ---- ------- ----- -- ----<br>-------- ------- -- ---------- --- - --- ----- ----- ----<br>---- --- --- ----- --- ---- ---- ------- ----- it's -------<br>--- --- -- ----- -- --- ---- -- --- ---- -- ------ ------<br>--- ----- -- ----,130213.9,130212.9,129711.722,129718.19999999998,129728.389,130224.872,,37,it's
screen,html.Screen,2_1_0_1_38,2022-04-27T13:08:12.606Z,,,,,,,,,,,,,,,,,53,,,,,,,,,,,,,,565.2280000000028,,response,,,,99,,,,,,,Space,keypress(Space),,,,,,,,---- -- ----- -- ------ - ------- --- ----------<br>------------- ------ ------ ---- ---- ------- ----- -- ----<br>-------- ------- -- ---------- --- - --- ----- ----- ----<br>---- --- --- ----- --- ---- ---- ------- ----- ---- whether<br>--- --- -- ----- -- --- ---- -- --- ---- -- ------ ------<br>--- ----- -- ----,130791,130790.1,130208.205,130214,130224.872,130803.872,,38,whether
screen,html.Screen,2_1_0_1_39,2022-04-27T13:08:13.204Z,,,,,,,,,,,,,,,,,53,,,,,,,,,,,,,,584.127999999997,,response,,,,99,,,,,,,Space,keypress(Space),,,,,,,,---- -- ----- -- ------ - ------- --- ----------<br>------------- ------ ------ ---- ---- ------- ----- -- ----<br>-------- ------- -- ---------- --- - --- ----- ----- ----<br>---- --- --- ----- --- ---- ---- ------- ----- ---- -------<br>you --- -- ----- -- --- ---- -- --- ---- -- ------ ------<br>--- ----- -- ----,131388.9,131388,130787.205,130791.1,130803.872,131397.787,,39,you
screen,html.Screen,2_1_0_1_40,2022-04-27T13:08:13.750Z,,,,,,,,,,,,,,,,,53,,,,,,,,,,,,,,536.0129999999772,,response,,,,99,,,,,,,Space,keypress(Space),,,,,,,,---- -- ----- -- ------ - ------- --- ----------<br>------------- ------ ------ ---- ---- ------- ----- -- ----<br>-------- ------- -- ---------- --- - --- ----- ----- ----<br>---- --- --- ----- --- ---- ---- ------- ----- ---- -------<br>--- are -- ----- -- --- ---- -- --- ---- -- ------ ------<br>--- ----- -- ----,131934.6,131933.8,131381.12,131388.9,131397.787,131945.776,,40,are
screen,html.Screen,2_1_0_1_41,2022-04-27T13:08:14.274Z,,,,,,,,,,,,,,,,,53,,,,,,,,,,,,,,511.42399999996996,,response,,,,99,,,,,,,Space,keypress(Space),,,,,,,,---- -- ----- -- ------ - ------- --- ----------<br>------------- ------ ------ ---- ---- ------- ----- -- ----<br>-------- ------- -- ---------- --- - --- ----- ----- ----<br>---- --- --- ----- --- ---- ---- ------- ----- ---- -------<br>--- --- as ----- -- --- ---- -- --- ---- -- ------ ------<br>--- ----- -- ----,132459,132457.19999999998,131929.109,131934.69999999998,131945.776,132475.045,,41,as
screen,html.Screen,2_1_0_1_42,2022-04-27T13:08:14.768Z,,,,,,,,,,,,,,,,,53,,,,,,,,,,,,,,476.9549999999872,,response,,,,99,,,,,,,Space,keypress(Space),,,,,,,,---- -- ----- -- ------ - ------- --- ----------<br>------------- ------ ------ ---- ---- ------- ----- -- ----<br>-------- ------- -- ---------- --- - --- ----- ----- ----<br>---- --- --- ----- --- ---- ---- ------- ----- ---- -------<br>--- --- -- close -- --- ---- -- --- ---- -- ------ ------<br>--- ----- -- ----,132952.9,132952,132458.378,132459.1,132475.045,132966.411,,42,close
screen,html.Screen,2_1_0_1_43,2022-04-27T13:08:15.298Z,,,,,,,,,,,,,,,,,53,,,,,,,,,,,,,,515.3889999999956,,response,,,,99,,,,,,,Space,keypress(Space),,,,,,,,---- -- ----- -- ------ - ------- --- ----------<br>------------- ------ ------ ---- ---- ------- ----- -- ----<br>-------- ------- -- ---------- --- - --- ----- ----- ----<br>---- --- --- ----- --- ---- ---- ------- ----- ---- -------<br>--- --- -- ----- as --- ---- -- --- ---- -- ------ ------<br>--- ----- -- ----,133482.6,133481.8,132949.744,132953,132966.411,133493.023,,43,as
screen,html.Screen,2_1_0_1_44,2022-04-27T13:08:15.823Z,,,,,,,,,,,,,,,,,53,,,,,,,,,,,,,,514.0770000000193,,response,,,,99,,,,,,,Space,keypress(Space),,,,,,,,---- -- ----- -- ------ - ------- --- ----------<br>------------- ------ ------ ---- ---- ------- ----- -- ----<br>-------- ------- -- ---------- --- - --- ----- ----- ----<br>---- --- --- ----- --- ---- ---- ------- ----- ---- -------<br>--- --- -- ----- -- you ---- -- --- ---- -- ------ ------<br>--- ----- -- ----,134008.1,134007.1,133476.356,133482.69999999998,133493.023,134022.88,,44,you
screen,html.Screen,2_1_0_1_45,2022-04-27T13:08:16.357Z,,,,,,,,,,,,,,,,,53,,,,,,,,,,,,,,517.5199999999895,,response,,,,99,,,,,,,Space,keypress(Space),,,,,,,,---- -- ----- -- ------ - ------- --- ----------<br>------------- ------ ------ ---- ---- ------- ----- -- ----<br>-------- ------- -- ---------- --- - --- ----- ----- ----<br>---- --- --- ----- --- ---- ---- ------- ----- ---- -------<br>--- --- -- ----- -- --- want -- --- ---- -- ------ ------<br>--- ----- -- ----,134541.3,134540.4,134006.213,134008.19999999998,134022.88,134548.463,,45,want
screen,html.Screen,2_1_0_1_46,2022-04-27T13:08:16.892Z,,,,,,,,,,,,,,,,,53,,,,,,,,,,,,,,527.5370000000112,,response,,,,99,,,,,,,Space,keypress(Space),,,,,,,,---- -- ----- -- ------ - ------- --- ----------<br>------------- ------ ------ ---- ---- ------- ----- -- ----<br>-------- ------- -- ---------- --- - --- ----- ----- ----<br>---- --- --- ----- --- ---- ---- ------- ----- ---- -------<br>--- --- -- ----- -- --- ---- to --- ---- -- ------ ------<br>--- ----- -- ----,135076.8,135076,134531.796,134541.4,134548.463,135081.677,,46,to
screen,html.Screen,2_1_0_1_47,2022-04-27T13:08:17.491Z,,,,,,,,,,,,,,,,,53,,,,,,,,,,,,,,592.7229999999981,,response,,,,99,,,,,,,Space,keypress(Space),,,,,,,,"---- -- ----- -- ------ - ------- --- ----------<br>------------- ------ ------ ---- ---- ------- ----- -- ----<br>-------- ------- -- ---------- --- - --- ----- ----- ----<br>---- --- --- ----- --- ---- ---- ------- ----- ---- -------<br>--- --- -- ----- -- --- ---- -- be, ---- -- ------ ------<br>--- ----- -- ----",135675.19999999998,135674.4,135065.01,135077,135081.677,135683.989,,47,"be,"
screen,html.Screen,2_1_0_1_48,2022-04-27T13:08:18.002Z,,,,,,,,,,,,,,,,,53,,,,,,,,,,,,,,502.1110000000044,,response,,,,99,,,,,,,Space,keypress(Space),,,,,,,,---- -- ----- -- ------ - ------- --- ----------<br>------------- ------ ------ ---- ---- ------- ----- -- ----<br>-------- ------- -- ---------- --- - --- ----- ----- ----<br>---- --- --- ----- --- ---- ---- ------- ----- ---- -------<br>--- --- -- ----- -- --- ---- -- --- even -- ------ ------<br>--- ----- -- ----,136187,136186.1,135667.322,135675.3,135683.989,136199.177,,48,even
screen,html.Screen,2_1_0_1_49,2022-04-27T13:08:18.512Z,,,,,,,,,,,,,,,,,53,,,,,,,,,,,,,,496.6229999999923,,response,,,,99,,,,,,,Space,keypress(Space),,,,,,,,---- -- ----- -- ------ - ------- --- ----------<br>------------- ------ ------ ---- ---- ------- ----- -- ----<br>-------- ------- -- ---------- --- - --- ----- ----- ----<br>---- --- --- ----- --- ---- ---- ------- ----- ---- -------<br>--- --- -- ----- -- --- ---- -- --- ---- if ------ ------<br>--- ----- -- ----,136696.69999999998,136695.8,136182.51,136187.1,136199.177,136710.856,,49,if
screen,html.Screen,2_1_0_1_50,2022-04-27T13:08:18.996Z,,,,,,,,,,,,,,,,,53,,,,,,,,,,,,,,468.64400000000023,,response,,,,99,,,,,,,Space,keypress(Space),,,,,,,,---- -- ----- -- ------ - ------- --- ----------<br>------------- ------ ------ ---- ---- ------- ----- -- ----<br>-------- ------- -- ---------- --- - --- ----- ----- ----<br>---- --- --- ----- --- ---- ---- ------- ----- ---- -------<br>--- --- -- ----- -- --- ---- -- --- ---- -- that's ------<br>--- ----- -- ----,137180.3,137179.5,136694.189,136696.8,136710.856,137187.024,,50,that's
screen,html.Screen,2_1_0_1_51,2022-04-27T13:08:19.581Z,,,,,,,,,,,,,,,,,53,,,,,,,,,,,,,,577.6759999999776,,response,,,,99,,,,,,,Space,keypress(Space),,,,,,,,---- -- ----- -- ------ - ------- --- ----------<br>------------- ------ ------ ---- ---- ------- ----- -- ----<br>-------- ------- -- ---------- --- - --- ----- ----- ----<br>---- --- --- ----- --- ---- ---- ------- ----- ---- -------<br>--- --- -- ----- -- --- ---- -- --- ---- -- ------ really<br>--- ----- -- ----,137765.8,137764.69999999998,137170.357,137180.4,137187.024,137770.595,,51,really
screen,html.Screen,2_1_0_1_52,2022-04-27T13:08:20.191Z,,,,,,,,,,,,,,,,,53,,,,,,,,,,,,,,603.9049999999988,,response,,,,99,,,,,,,Space,keypress(Space),,,,,,,,---- -- ----- -- ------ - ------- --- ----------<br>------------- ------ ------ ---- ---- ------- ----- -- ----<br>-------- ------- -- ---------- --- - --- ----- ----- ----<br>---- --- --- ----- --- ---- ---- ------- ----- ---- -------<br>--- --- -- ----- -- --- ---- -- --- ---- -- ------ ------<br>not ----- -- ----,138375.4,138374.5,137753.928,137765.9,137770.595,138389.24,,52,not
screen,html.Screen,2_1_0_1_53,2022-04-27T13:08:20.716Z,,,,,,,,,,,,,,,,,53,,,,,,,,,,,,,,510.1600000000035,,response,,,,99,,,,,,,Space,keypress(Space),,,,,,,,---- -- ----- -- ------ - ------- --- ----------<br>------------- ------ ------ ---- ---- ------- ----- -- ----<br>-------- ------- -- ---------- --- - --- ----- ----- ----<br>---- --- --- ----- --- ---- ---- ------- ----- ---- -------<br>--- --- -- ----- -- --- ---- -- --- ---- -- ------ ------<br>--- close -- ----,138900.3,138899.4,138372.573,138375.5,138389.24,138915.549,,53,close
screen,html.Screen,2_1_0_1_54,2022-04-27T13:08:21.262Z,,,,,,,,,,,,,,,,,53,,,,,,,,,,,,,,530.4510000000009,,response,,,,99,,,,,,,Space,keypress(Space),,,,,,,,---- -- ----- -- ------ - ------- --- ----------<br>------------- ------ ------ ---- ---- ------- ----- -- ----<br>-------- ------- -- ---------- --- - --- ----- ----- ----<br>---- --- --- ----- --- ---- ---- ------- ----- ---- -------<br>--- --- -- ----- -- --- ---- -- --- ---- -- ------ ------<br>--- ----- at ----,139447.1,139446,138898.882,138900.5,138915.549,139457.507,,54,at
screen,html.Screen,2_1_0_1_55,2022-04-27T13:08:22.204Z,,,,,,,,,,,,,,,,,53,,,,,,,,,,,,,,929.6929999999702,,response,,,,99,,,,,,,Space,keypress(Space),,,,,,,,---- -- ----- -- ------ - ------- --- ----------<br>------------- ------ ------ ---- ---- ------- ----- -- ----<br>-------- ------- -- ---------- --- - --- ----- ----- ----<br>---- --- --- ----- --- ---- ---- ------- ----- ---- -------<br>--- --- -- ----- -- --- ---- -- --- ---- -- ------ ------<br>--- ----- -- all.,140388.19999999998,140387.19999999998,139440.84,139447.19999999998,139457.507,140404.251,,55,all.
Item 99,flow.Loop,2_1_0_1,2022-04-27T13:08:22.204Z,,,,,,,,,,,,,,,,,,,,,,,,,,,,,,,32815.90699999998,,completion,,,,,C,,,,,,,,,,,silence,,,,,140388.5,140387.19999999998,107554.626,107555.29999999999,107571.293,140404.251,,,
Question 1,html.Screen,2_1_0_2,2022-04-27T13:08:27.090Z,,,,,,,,,,,,,,,,,,,,,,,,,,,,true,FALSE,,4869.149000000005,,response,,,,99,C,,,,,,FALSE,click #choice-2,,,,silence,,,,,145275,145273.4,140387.584,140388.6,140404.251,145282.073,,,
Question 2,html.Screen,2_1_0_3,2022-04-27T13:08:32.865Z,,,,,,,,,,,,,,,,,,,,,,,,,,,,true,TRUE,,5765.226999999984,,response,,,,99,C,,,,,,TRUE,click #choice-1,,,,silence,,,,,151049.19999999998,151047.3,145265.406,145275.1,145282.073,151063.148,,,
Item 99,flow.Sequence,2_1_0,2022-04-27T13:08:32.865Z,,,,,,,,,,,,,,,,,,,,,,,,,,,,,,,53467.73999999999,,completion,,,,,,,,,,,,,,,,,,,,,151049.4,151047.3,97562.893,97577.79999999999,97579.56,151063.148,,,
Holding screen,html.Screen,2_1_1_0,2022-04-27T13:08:42.859Z,,,,,,,,,,,,,,,,,,,,,,,,,,,,,,,9996.841000000015,,timeout,,,,,,,,,,,,,,,,,,,,,161043.69999999998,161043.322,151046.481,151049.6,151063.148,161059.989,,,
screen,html.Screen,2_1_1_1_0,2022-04-27T13:08:43.756Z,,,,,,,,,,,,,,,,,54,,,,,,,,,,,,,,878.6110000000044,,response,,,,100,,,,,,,Space,keypress(Space),,,,,,,,At --- ---- --- ------ ----- ------- ---- -- --- ------- --<br>------- ---------- ------ -- ----- -- ----- -- ---- ------<br>--- ----- --- --- ------ -------- ----- --- ------ ----- --<br>----- ----- ---------- --- --- ------ ------ ---- -- ------<br>------- --- ------ ----- --- ---- ------- -- ---- --- --<br>------- ------,161940.6,161938.6,161043.322,161043.9,161059.989,161953.38,,0,At
screen,html.Screen,2_1_1_1_1,2022-04-27T13:08:44.221Z,,,,,,,,,,,,,,,,,54,,,,,,,,,,,,,,451.22000000000116,,response,,,,100,,,,,,,Space,keypress(Space),,,,,,,,-- the ---- --- ------ ----- ------- ---- -- --- ------- --<br>------- ---------- ------ -- ----- -- ----- -- ---- ------<br>--- ----- --- --- ------ -------- ----- --- ------ ----- --<br>----- ----- ---------- --- --- ------ ------ ---- -- ------<br>------- --- ------ ----- --- ---- ------- -- ---- --- --<br>------- ------,162405.5,162404.6,161936.713,161940.69999999998,161953.38,162409.073,,1,the
screen,html.Screen,2_1_1_1_2,2022-04-27T13:08:44.720Z,,,,,,,,,,,,,,,,,54,,,,,,,,,,,,,,494.8269999999902,,response,,,,100,,,,,,,Space,keypress(Space),,,,,,,,-- --- time --- ------ ----- ------- ---- -- --- ------- --<br>------- ---------- ------ -- ----- -- ----- -- ---- ------<br>--- ----- --- --- ------ -------- ----- --- ------ ----- --<br>----- ----- ---------- --- --- ------ ------ ---- -- ------<br>------- --- ------ ----- --- ---- ------- -- ---- --- --<br>------- ------,162904.8,162903.9,162392.406,162405.5,162409.073,162912.535,,2,time
screen,html.Screen,2_1_1_1_3,2022-04-27T13:08:45.169Z,,,,,,,,,,,,,,,,,54,,,,,,,,,,,,,,440.3649999999907,,response,,,,100,,,,,,,Space,keypress(Space),,,,,,,,-- --- ---- the ------ ----- ------- ---- -- --- ------- --<br>------- ---------- ------ -- ----- -- ----- -- ---- ------<br>--- ----- --- --- ------ -------- ----- --- ------ ----- --<br>----- ----- ---------- --- --- ------ ------ ---- -- ------<br>------- --- ------ ----- --- ---- ------- -- ---- --- --<br>------- ------,163353.69999999998,163352.9,162895.868,162904.9,162912.535,163362.144,,3,the
screen,html.Screen,2_1_1_1_4,2022-04-27T13:08:45.738Z,,,,,,,,,,,,,,,,,54,,,,,,,,,,,,,,560.0559999999823,,response,,,,100,,,,,,,Space,keypress(Space),,,,,,,,-- --- ---- --- French ----- ------- ---- -- --- ------- --<br>------- ---------- ------ -- ----- -- ----- -- ---- ------<br>--- ----- --- --- ------ -------- ----- --- ------ ----- --<br>----- ----- ---------- --- --- ------ ------ ---- -- ------<br>------- --- ------ ----- --- ---- ------- -- ---- --- --<br>------- ------,163923.1,163922.19999999998,163345.477,163353.8,163362.144,163927.336,,4,French
screen,html.Screen,2_1_1_1_5,2022-04-27T13:08:45.832Z,,,,,,,,,,,,,,,,,54,,,,,,,,,,,,,,88.56399999998393,,response,,,,100,,,,,,,Space,keypress(Space),,,,,,,,-- --- ---- --- ------ crown ------- ---- -- --- ------- --<br>------- ---------- ------ -- ----- -- ----- -- ---- ------<br>--- ----- --- --- ------ -------- ----- --- ------ ----- --<br>----- ----- ---------- --- --- ------ ------ ---- -- ------<br>------- --- ------ ----- --- ---- ------- -- ---- --- --<br>------- ------,164016.8,164015.9,163910.669,163923.3,163927.336,164029.956,,5,crown
screen,html.Screen,2_1_1_1_6,2022-04-27T13:08:46.599Z,,,,,,,,,,,,,,,,,54,,,,,,,,,,,,,,753.243999999977,,response,,,,100,,,,,,,Space,keypress(Space),,,,,,,,-- --- ---- --- ------ ----- secured ---- -- --- ------- --<br>------- ---------- ------ -- ----- -- ----- -- ---- ------<br>--- ----- --- --- ------ -------- ----- --- ------ ----- --<br>----- ----- ---------- --- --- ------ ------ ---- -- ------<br>------- --- ------ ----- --- ---- ------- -- ---- --- --<br>------- ------,164784,164783.19999999998,164013.289,164016.8,164029.956,164796.688,,6,secured
screen,html.Screen,2_1_1_1_7,2022-04-27T13:08:47.263Z,,,,,,,,,,,,,,,,,54,,,,,,,,,,,,,,650.3120000000054,,response,,,,100,,,,,,,Space,keypress(Space),,,,,,,,-- --- ---- --- ------ ----- ------- much -- --- ------- --<br>------- ---------- ------ -- ----- -- ----- -- ---- ------<br>--- ----- --- --- ------ -------- ----- --- ------ ----- --<br>----- ----- ---------- --- --- ------ ------ ---- -- ------<br>------- --- ------ ----- --- ---- ------- -- ---- --- --<br>------- ------,165447.8,165447,164780.021,164784.1,164796.688,165457.729,,7,much
screen,html.Screen,2_1_1_1_8,2022-04-27T13:08:47.704Z,,,,,,,,,,,,,,,,,54,,,,,,,,,,,,,,429.7710000000079,,response,,,,100,,,,,,,Space,keypress(Space),,,,,,,,-- --- ---- --- ------ ----- ------- ---- of --- ------- --<br>------- ---------- ------ -- ----- -- ----- -- ---- ------<br>--- ----- --- --- ------ -------- ----- --- ------ ----- --<br>----- ----- ---------- --- --- ------ ------ ---- -- ------<br>------- --- ------ ----- --- ---- ------- -- ---- --- --<br>------- ------,165888.4,165887.5,165441.062,165447.9,165457.729,165904.702,,8,of
screen,html.Screen,2_1_1_1_9,2022-04-27T13:08:48.223Z,,,,,,,,,,,,,,,,,54,,,,,,,,,,,,,,502.09799999999814,,response,,,,100,,,,,,,Space,keypress(Space),,,,,,,,-- --- ---- --- ------ ----- ------- ---- -- its ------- --<br>------- ---------- ------ -- ----- -- ----- -- ---- ------<br>--- ----- --- --- ------ -------- ----- --- ------ ----- --<br>----- ----- ---------- --- --- ------ ------ ---- -- ------<br>------- --- ------ ----- --- ---- ------- -- ---- --- --<br>------- ------,166407.69999999998,166406.8,165888.035,165888.5,165904.702,166412.317,,9,its
screen,html.Screen,2_1_1_1_10,2022-04-27T13:08:48.729Z,,,,,,,,,,,,,,,,,54,,,,,,,,,,,,,,500.18299999999,,response,,,,100,,,,,,,Space,keypress(Space),,,,,,,,-- --- ---- --- ------ ----- ------- ---- -- --- revenue --<br>------- ---------- ------ -- ----- -- ----- -- ---- ------<br>--- ----- --- --- ------ -------- ----- --- ------ ----- --<br>----- ----- ---------- --- --- ------ ------ ---- -- ------<br>------- --- ------ ----- --- ---- ------- -- ---- --- --<br>------- ------,166913.3,166912.5,166395.65,166407.8,166412.317,166914.416,,10,revenue
screen,html.Screen,2_1_1_1_11,2022-04-27T13:08:49.303Z,,,,,,,,,,,,,,,,,54,,,,,,,,,,,,,,571.9839999999967,,response,,,,100,,,,,,,Space,keypress(Space),,,,,,,,-- --- ---- --- ------ ----- ------- ---- -- --- ------- by<br>------- ---------- ------ -- ----- -- ----- -- ---- ------<br>--- ----- --- --- ------ -------- ----- --- ------ ----- --<br>----- ----- ---------- --- --- ------ ------ ---- -- ------<br>------- --- ------ ----- --- ---- ------- -- ---- --- --<br>------- ------,167487.3,167486.4,166897.749,166913.5,166914.416,167504.065,,11,by
screen,html.Screen,2_1_1_1_12,2022-04-27T13:08:49.860Z,,,,,,,,,,,,,,,,,54,,,,,,,,,,,,,,540.5350000000035,,response,,,,100,,,,,,,Space,keypress(Space),,,,,,,,-- --- ---- --- ------ ----- ------- ---- -- --- ------- --<br>issuing ---------- ------ -- ----- -- ----- -- ---- ------<br>--- ----- --- --- ------ -------- ----- --- ------ ----- --<br>----- ----- ---------- --- --- ------ ------ ---- -- ------<br>------- --- ------ ----- --- ---- ------- -- ---- --- --<br>------- ------,168045.19999999998,168044.6,167487.398,167487.4,167504.065,168061.227,,12,issuing
screen,html.Screen,2_1_1_1_13,2022-04-27T13:08:50.355Z,,,,,,,,,,,,,,,,,54,,,,,,,,,,,,,,477.1729999999807,,response,,,,100,,,,,,,Space,keypress(Space),,,,,,,,-- --- ---- --- ------ ----- ------- ---- -- --- ------- --<br>------- government ------ -- ----- -- ----- -- ---- ------<br>--- ----- --- --- ------ -------- ----- --- ------ ----- --<br>----- ----- ---------- --- --- ------ ------ ---- -- ------<br>------- --- ------ ----- --- ---- ------- -- ---- --- --<br>------- ------,168539.19999999998,168538.4,168044.56,168045.19999999998,168061.227,168550.962,,13,government
screen,html.Screen,2_1_1_1_14,2022-04-27T13:08:50.873Z,,,,,,,,,,,,,,,,,54,,,,,,,,,,,,,,506.03800000000047,,response,,,,100,,,,,,,Space,keypress(Space),,,,,,,,-- --- ---- --- ------ ----- ------- ---- -- --- ------- --<br>------- ---------- bonds. -- ----- -- ----- -- ---- ------<br>--- ----- --- --- ------ -------- ----- --- ------ ----- --<br>----- ----- ---------- --- --- ------ ------ ---- -- ------<br>------- --- ------ ----- --- ---- ------- -- ---- --- --<br>------- ------,169057.9,169057,168534.295,168539.4,168550.962,169062.896,,14,bonds.
screen,html.Screen,2_1_1_1_15,2022-04-27T13:08:51.573Z,,,,,,,,,,,,,,,,,54,,,,,,,,,,,,,,694.1039999999921,,response,,,,100,,,,,,,Space,keypress(Space),,,,,,,,-- --- ---- --- ------ ----- ------- ---- -- --- ------- --<br>------- ---------- ------ In ----- -- ----- -- ---- ------<br>--- ----- --- --- ------ -------- ----- --- ------ ----- --<br>----- ----- ---------- --- --- ------ ------ ---- -- ------<br>------- --- ------ ----- --- ---- ------- -- ---- --- --<br>------- ------,169757.8,169757,169046.229,169057.9,169062.896,169765.034,,15,In
screen,html.Screen,2_1_1_1_16,2022-04-27T13:08:52.219Z,,,,,,,,,,,,,,,,,54,,,,,,,,,,,,,,637.4659999999858,,response,,,,100,,,,,,,Space,keypress(Space),,,,,,,,"-- --- ---- --- ------ ----- ------- ---- -- --- ------- --<br>------- ---------- ------ -- 1727, -- ----- -- ---- ------<br>--- ----- --- --- ------ -------- ----- --- ------ ----- --<br>----- ----- ---------- --- --- ------ ------ ---- -- ------<br>------- --- ------ ----- --- ---- ------- -- ---- --- --<br>------- ------",170404.1,170402.5,169748.367,169757.9,169765.034,170415.049,,16,"1727,"
screen,html.Screen,2_1_1_1_17,2022-04-27T13:08:52.884Z,,,,,,,,,,,,,,,,,54,,,,,,,,,,,,,,652.2509999999893,,response,,,,100,,,,,,,Space,keypress(Space),,,,,,,,-- --- ---- --- ------ ----- ------- ---- -- --- ------- --<br>------- ---------- ------ -- ----- in ----- -- ---- ------<br>--- ----- --- --- ------ -------- ----- --- ------ ----- --<br>----- ----- ---------- --- --- ------ ------ ---- -- ------<br>------- --- ------ ----- --- ---- ------- -- ---- --- --<br>------- ------,171068.3,171067.3,170398.382,170404.19999999998,170415.049,171077.67,,17,in
screen,html.Screen,2_1_1_1_18,2022-04-27T13:08:53.408Z,,,,,,,,,,,,,,,,,54,,,,,,,,,,,,,,513.7299999999814,,response,,,,100,,,,,,,Space,keypress(Space),,,,,,,,-- --- ---- --- ------ ----- ------- ---- -- --- ------- --<br>------- ---------- ------ -- ----- -- order -- ---- ------<br>--- ----- --- --- ------ -------- ----- --- ------ ----- --<br>----- ----- ---------- --- --- ------ ------ ---- -- ------<br>------- --- ------ ----- --- ---- ------- -- ---- --- --<br>------- ------,171592.3,171591.4,171061.003,171068.4,171077.67,171609.039,,18,order
screen,html.Screen,2_1_1_1_19,2022-04-27T13:08:53.903Z,,,,,,,,,,,,,,,,,54,,,,,,,,,,,,,,477.1609999999928,,response,,,,100,,,,,,,Space,keypress(Space),,,,,,,,-- --- ---- --- ------ ----- ------- ---- -- --- ------- --<br>------- ---------- ------ -- ----- -- ----- to ---- ------<br>--- ----- --- --- ------ -------- ----- --- ------ ----- --<br>----- ----- ---------- --- --- ------ ------ ---- -- ------<br>------- --- ------ ----- --- ---- ------- -- ---- --- --<br>------- ------,172087.3,172086.19999999998,171592.372,171592.4,171609.039,172099.446,,19,to
screen,html.Screen,2_1_1_1_20,2022-04-27T13:08:54.304Z,,,,,,,,,,,,,,,,,54,,,,,,,,,,,,,,388.0540000000037,,response,,,,100,,,,,,,Space,keypress(Space),,,,,,,,-- --- ---- --- ------ ----- ------- ---- -- --- ------- --<br>------- ---------- ------ -- ----- -- ----- -- save ------<br>--- ----- --- --- ------ -------- ----- --- ------ ----- --<br>----- ----- ---------- --- --- ------ ------ ---- -- ------<br>------- --- ------ ----- --- ---- ------- -- ---- --- --<br>------- ------,172488.69999999998,172487.5,172082.779,172087.4,172099.446,172494.155,,20,save
screen,html.Screen,2_1_1_1_21,2022-04-27T13:08:54.815Z,,,,,,,,,,,,,,,,,54,,,,,,,,,,,,,,505.0449999999837,,response,,,,100,,,,,,,Space,keypress(Space),,,,,,,,"-- --- ---- --- ------ ----- ------- ---- -- --- ------- --<br>------- ---------- ------ -- ----- -- ----- -- ---- money,<br>--- ----- --- --- ------ -------- ----- --- ------ ----- --<br>----- ----- ---------- --- --- ------ ------ ---- -- ------<br>------- --- ------ ----- --- ---- ------- -- ---- --- --<br>------- ------",173000,172999.19999999998,172477.488,172488.8,172494.155,173012.514,,21,"money,"
screen,html.Screen,2_1_1_1_22,2022-04-27T13:08:55.460Z,,,,,,,,,,,,,,,,,54,,,,,,,,,,,,,,631.3859999999986,,response,,,,100,,,,,,,Space,keypress(Space),,,,,,,,-- --- ---- --- ------ ----- ------- ---- -- --- ------- --<br>------- ---------- ------ -- ----- -- ----- -- ---- ------<br>the ----- --- --- ------ -------- ----- --- ------ ----- --<br>----- ----- ---------- --- --- ------ ------ ---- -- ------<br>------- --- ------ ----- --- ---- ------- -- ---- --- --<br>------- ------,173644.8,173643.9,172995.847,173000,173012.514,173656.897,,22,the
screen,html.Screen,2_1_1_1_23,2022-04-27T13:08:56.140Z,,,,,,,,,,,,,,,,,54,,,,,,,,,,,,,,667.1030000000028,,response,,,,100,,,,,,,Space,keypress(Space),,,,,,,,-- --- ---- --- ------ ----- ------- ---- -- --- ------- --<br>------- ---------- ------ -- ----- -- ----- -- ---- ------<br>--- state --- --- ------ -------- ----- --- ------ ----- --<br>----- ----- ---------- --- --- ------ ------ ---- -- ------<br>------- --- ------ ----- --- ---- ------- -- ---- --- --<br>------- ------,174324.8,174324,173640.23,173645,173656.897,174335.008,,23,state
screen,html.Screen,2_1_1_1_24,2022-04-27T13:08:56.719Z,,,,,,,,,,,,,,,,,54,,,,,,,,,,,,,,567.4919999999984,,response,,,,100,,,,,,,Space,keypress(Space),,,,,,,,-- --- ---- --- ------ ----- ------- ---- -- --- ------- --<br>------- ---------- ------ -- ----- -- ----- -- ---- ------<br>--- ----- cut --- ------ -------- ----- --- ------ ----- --<br>----- ----- ---------- --- --- ------ ------ ---- -- ------<br>------- --- ------ ----- --- ---- ------- -- ---- --- --<br>------- ------,174903.5,174902.5,174318.341,174324.9,174335.008,174915.068,,24,cut
screen,html.Screen,2_1_1_1_25,2022-04-27T13:08:57.259Z,,,,,,,,,,,,,,,,,54,,,,,,,,,,,,,,527.7319999999891,,response,,,,100,,,,,,,Space,keypress(Space),,,,,,,,-- --- ---- --- ------ ----- ------- ---- -- --- ------- --<br>------- ---------- ------ -- ----- -- ----- -- ---- ------<br>--- ----- --- the ------ -------- ----- --- ------ ----- --<br>----- ----- ---------- --- --- ------ ------ ---- -- ------<br>------- --- ------ ----- --- ---- ------- -- ---- --- --<br>------- ------,175443.69999999998,175442.8,174898.401,174903.6,174915.068,175460.466,,25,the
screen,html.Screen,2_1_1_1_26,2022-04-27T13:08:57.829Z,,,,,,,,,,,,,,,,,54,,,,,,,,,,,,,,552.4340000000084,,response,,,,100,,,,,,,Space,keypress(Space),,,,,,,,-- --- ---- --- ------ ----- ------- ---- -- --- ------- --<br>------- ---------- ------ -- ----- -- ----- -- ---- ------<br>--- ----- --- --- bonds' -------- ----- --- ------ ----- --<br>----- ----- ---------- --- --- ------ ------ ---- -- ------<br>------- --- ------ ----- --- ---- ------- -- ---- --- --<br>------- ------,176013.8,176012.9,175443.799,175443.9,175460.466,176017.363,,26,bonds'
screen,html.Screen,2_1_1_1_27,2022-04-27T13:08:58.400Z,,,,,,,,,,,,,,,,,54,,,,,,,,,,,,,,566.9369999999763,,response,,,,100,,,,,,,Space,keypress(Space),,,,,,,,-- --- ---- --- ------ ----- ------- ---- -- --- ------- --<br>------- ---------- ------ -- ----- -- ----- -- ---- ------<br>--- ----- --- --- ------ interest ----- --- ------ ----- --<br>----- ----- ---------- --- --- ------ ------ ---- -- ------<br>------- --- ------ ----- --- ---- ------- -- ---- --- --<br>------- ------,176585.1,176584.3,176000.696,176014,176017.363,176587.473,,27,interest
screen,html.Screen,2_1_1_1_28,2022-04-27T13:08:59.062Z,,,,,,,,,,,,,,,,,54,,,,,,,,,,,,,,658.2269999999844,,response,,,,100,,,,,,,Space,keypress(Space),,,,,,,,-- --- ---- --- ------ ----- ------- ---- -- --- ------- --<br>------- ---------- ------ -- ----- -- ----- -- ---- ------<br>--- ----- --- --- ------ -------- rate. --- ------ ----- --<br>----- ----- ---------- --- --- ------ ------ ---- -- ------<br>------- --- ------ ----- --- ---- ------- -- ---- --- --<br>------- ------,177246.8,177245.69999999998,176570.806,176585.3,176587.473,177258.899,,28,rate.
screen,html.Screen,2_1_1_1_29,2022-04-27T13:08:59.604Z,,,,,,,,,,,,,,,,,54,,,,,,,,,,,,,,528.2010000000009,,response,,,,100,,,,,,,Space,keypress(Space),,,,,,,,-- --- ---- --- ------ ----- ------- ---- -- --- ------- --<br>------- ---------- ------ -- ----- -- ----- -- ---- ------<br>--- ----- --- --- ------ -------- ----- The ------ ----- --<br>----- ----- ---------- --- --- ------ ------ ---- -- ------<br>------- --- ------ ----- --- ---- ------- -- ---- --- --<br>------- ------,177788.19999999998,177787.1,177242.232,177246.9,177258.899,177803.693,,29,The
screen,html.Screen,2_1_1_1_30,2022-04-27T13:09:00.095Z,,,,,,,,,,,,,,,,,54,,,,,,,,,,,,,,474.9070000000065,,response,,,,100,,,,,,,Space,keypress(Space),,,,,,,,-- --- ---- --- ------ ----- ------- ---- -- --- ------- --<br>------- ---------- ------ -- ----- -- ----- -- ---- ------<br>--- ----- --- --- ------ -------- ----- --- market ----- --<br>----- ----- ---------- --- --- ------ ------ ---- -- ------<br>------- --- ------ ----- --- ---- ------- -- ---- --- --<br>------- ------,178279.4,178278.6,177787.026,177788.4,177803.693,178295.259,,30,market
screen,html.Screen,2_1_1_1_31,2022-04-27T13:09:00.617Z,,,,,,,,,,,,,,,,,54,,,,,,,,,,,,,,505.64100000000326,,response,,,,100,,,,,,,Space,keypress(Space),,,,,,,,-- --- ---- --- ------ ----- ------- ---- -- --- ------- --<br>------- ---------- ------ -- ----- -- ----- -- ---- ------<br>--- ----- --- --- ------ -------- ----- --- ------ value --<br>----- ----- ---------- --- --- ------ ------ ---- -- ------<br>------- --- ------ ----- --- ---- ------- -- ---- --- --<br>------- ------,178801.69999999998,178800.9,178278.592,178279.6,178295.259,178803.021,,31,value
screen,html.Screen,2_1_1_1_32,2022-04-27T13:09:01.441Z,,,,,,,,,,,,,,,,,54,,,,,,,,,,,,,,821.6789999999746,,response,,,,100,,,,,,,Space,keypress(Space),,,,,,,,-- --- ---- --- ------ ----- ------- ---- -- --- ------- --<br>------- ---------- ------ -- ----- -- ----- -- ---- ------<br>--- ----- --- --- ------ -------- ----- --- ------ ----- of<br>----- ----- ---------- --- --- ------ ------ ---- -- ------<br>------- --- ------ ----- --- ---- ------- -- ---- --- --<br>------- ------,179625.69999999998,179624.69999999998,178786.354,178801.9,178803.021,179642.076,,32,of
screen,html.Screen,2_1_1_1_33,2022-04-27T13:09:02.036Z,,,,,,,,,,,,,,,,,54,,,,,,,,,,,,,,578.2239999999874,,response,,,,100,,,,,,,Space,keypress(Space),,,,,,,,-- --- ---- --- ------ ----- ------- ---- -- --- ------- --<br>------- ---------- ------ -- ----- -- ----- -- ---- ------<br>--- ----- --- --- ------ -------- ----- --- ------ ----- --<br>these ----- ---------- --- --- ------ ------ ---- -- ------<br>------- --- ------ ----- --- ---- ------- -- ---- --- --<br>------- ------,180221.19999999998,180220.3,179625.409,179625.8,179642.076,180232.722,,33,these
screen,html.Screen,2_1_1_1_34,2022-04-27T13:09:02.521Z,,,,,,,,,,,,,,,,,54,,,,,,,,,,,,,,471.5779999999795,,response,,,,100,,,,,,,Space,keypress(Space),,,,,,,,-- --- ---- --- ------ ----- ------- ---- -- --- ------- --<br>------- ---------- ------ -- ----- -- ----- -- ---- ------<br>--- ----- --- --- ------ -------- ----- --- ------ ----- --<br>----- bonds ---------- --- --- ------ ------ ---- -- ------<br>------- --- ------ ----- --- ---- ------- -- ---- --- --<br>------- ------,180705.4,180704.3,180216.055,180221.3,180232.722,180711.413,,34,bonds
screen,html.Screen,2_1_1_1_35,2022-04-27T13:09:03.128Z,,,,,,,,,,,,,,,,,54,,,,,,,,,,,,,,600.3869999999879,,response,,,,100,,,,,,,Space,keypress(Space),,,,,,,,"-- --- ---- --- ------ ----- ------- ---- -- --- ------- --<br>------- ---------- ------ -- ----- -- ----- -- ---- ------<br>--- ----- --- --- ------ -------- ----- --- ------ ----- --<br>----- ----- plummeted, --- --- ------ ------ ---- -- ------<br>------- --- ------ ----- --- ---- ------- -- ---- --- --<br>------- ------",181312.8,181311.8,180694.746,180705.4,180711.413,181329.015,,35,"plummeted,"
screen,html.Screen,2_1_1_1_36,2022-04-27T13:09:03.692Z,,,,,,,,,,,,,,,,,54,,,,,,,,,,,,,,547.0849999999919,,response,,,,100,,,,,,,Space,keypress(Space),,,,,,,,-- --- ---- --- ------ ----- ------- ---- -- --- ------- --<br>------- ---------- ------ -- ----- -- ----- -- ---- ------<br>--- ----- --- --- ------ -------- ----- --- ------ ----- --<br>----- ----- ---------- and --- ------ ------ ---- -- ------<br>------- --- ------ ----- --- ---- ------- -- ---- --- --<br>------- ------,181877,181876.1,181312.348,181313,181329.015,181886.516,,36,and
screen,html.Screen,2_1_1_1_37,2022-04-27T13:09:04.148Z,,,,,,,,,,,,,,,,,54,,,,,,,,,,,,,,445.3839999999909,,response,,,,100,,,,,,,Space,keypress(Space),,,,,,,,-- --- ---- --- ------ ----- ------- ---- -- --- ------- --<br>------- ---------- ------ -- ----- -- ----- -- ---- ------<br>--- ----- --- --- ------ -------- ----- --- ------ ----- --<br>----- ----- ---------- --- the ------ ------ ---- -- ------<br>------- --- ------ ----- --- ---- ------- -- ---- --- --<br>------- ------,182333.1,182331.9,181869.849,181877.1,181886.516,182334.203,,37,the
screen,html.Screen,2_1_1_1_38,2022-04-27T13:09:04.658Z,,,,,,,,,,,,,,,,,54,,,,,,,,,,,,,,507.19699999998556,,response,,,,100,,,,,,,Space,keypress(Space),,,,,,,,-- --- ---- --- ------ ----- ------- ---- -- --- ------- --<br>------- ---------- ------ -- ----- -- ----- -- ---- ------<br>--- ----- --- --- ------ -------- ----- --- ------ ----- --<br>----- ----- ---------- --- --- market ------ ---- -- ------<br>------- --- ------ ----- --- ---- ------- -- ---- --- --<br>------- ------,182842.4,182841.4,182317.536,182333.3,182334.203,182857.352,,38,market
screen,html.Screen,2_1_1_1_39,2022-04-27T13:09:05.341Z,,,,,,,,,,,,,,,,,54,,,,,,,,,,,,,,667.6479999999865,,response,,,,100,,,,,,,Space,keypress(Space),,,,,,,,-- --- ---- --- ------ ----- ------- ---- -- --- ------- --<br>------- ---------- ------ -- ----- -- ----- -- ---- ------<br>--- ----- --- --- ------ -------- ----- --- ------ ----- --<br>----- ----- ---------- --- --- ------ became ---- -- ------<br>------- --- ------ ----- --- ---- ------- -- ---- --- --<br>------- ------,183525.8,183525,182840.685,182842.6,182857.352,183533.405,,39,became
screen,html.Screen,2_1_1_1_40,2022-04-27T13:09:05.763Z,,,,,,,,,,,,,,,,,54,,,,,,,,,,,,,,412.8949999999895,,response,,,,100,,,,,,,Space,keypress(Space),,,,,,,,-- --- ---- --- ------ ----- ------- ---- -- --- ------- --<br>------- ---------- ------ -- ----- -- ----- -- ---- ------<br>--- ----- --- --- ------ -------- ----- --- ------ ----- --<br>----- ----- ---------- --- --- ------ ------ wary -- ------<br>------- --- ------ ----- --- ---- ------- -- ---- --- --<br>------- ------,183947.3,183946.3,183516.738,183525.9,183533.405,183949.951,,40,wary
screen,html.Screen,2_1_1_1_41,2022-04-27T13:09:06.192Z,,,,,,,,,,,,,,,,,54,,,,,,,,,,,,,,425.54899999999907,,response,,,,100,,,,,,,Space,keypress(Space),,,,,,,,-- --- ---- --- ------ ----- ------- ---- -- --- ------- --<br>------- ---------- ------ -- ----- -- ----- -- ---- ------<br>--- ----- --- --- ------ -------- ----- --- ------ ----- --<br>----- ----- ---------- --- --- ------ ------ ---- of ------<br>------- --- ------ ----- --- ---- ------- -- ---- --- --<br>------- ------,184376.4,184375.5,183933.284,183947.4,183949.951,184387.653,,41,of
screen,html.Screen,2_1_1_1_42,2022-04-27T13:09:06.701Z,,,,,,,,,,,,,,,,,54,,,,,,,,,,,,,,497.0469999999914,,response,,,,100,,,,,,,Space,keypress(Space),,,,,,,,-- --- ---- --- ------ ----- ------- ---- -- --- ------- --<br>------- ---------- ------ -- ----- -- ----- -- ---- ------<br>--- ----- --- --- ------ -------- ----- --- ------ ----- --<br>----- ----- ---------- --- --- ------ ------ ---- -- French<br>------- --- ------ ----- --- ---- ------- -- ---- --- --<br>------- ------,184885.6,184884.69999999998,184370.986,184376.5,184387.653,184900.295,,42,French
screen,html.Screen,2_1_1_1_43,2022-04-27T13:09:07.418Z,,,,,,,,,,,,,,,,,54,,,,,,,,,,,,,,701.0049999999756,,response,,,,100,,,,,,,Space,keypress(Space),,,,,,,,-- --- ---- --- ------ ----- ------- ---- -- --- ------- --<br>------- ---------- ------ -- ----- -- ----- -- ---- ------<br>--- ----- --- --- ------ -------- ----- --- ------ ----- --<br>----- ----- ---------- --- --- ------ ------ ---- -- ------<br>credit. --- ------ ----- --- ---- ------- -- ---- --- --<br>------- ------,185602.19999999998,185601.3,184883.628,184885.69999999998,184900.295,185609.389,,43,credit.
screen,html.Screen,2_1_1_1_44,2022-04-27T13:09:07.939Z,,,,,,,,,,,,,,,,,54,,,,,,,,,,,,,,513.6110000000044,,response,,,,100,,,,,,,Space,keypress(Space),,,,,,,,-- --- ---- --- ------ ----- ------- ---- -- --- ------- --<br>------- ---------- ------ -- ----- -- ----- -- ---- ------<br>--- ----- --- --- ------ -------- ----- --- ------ ----- --<br>----- ----- ---------- --- --- ------ ------ ---- -- ------<br>------- The ------ ----- --- ---- ------- -- ---- --- --<br>------- ------,186123.8,186123,185592.722,185602.4,185609.389,186126.092,,44,The
screen,html.Screen,2_1_1_1_45,2022-04-27T13:09:08.409Z,,,,,,,,,,,,,,,,,54,,,,,,,,,,,,,,466.9079999999958,,response,,,,100,,,,,,,Space,keypress(Space),,,,,,,,-- --- ---- --- ------ ----- ------- ---- -- --- ------- --<br>------- ---------- ------ -- ----- -- ----- -- ---- ------<br>--- ----- --- --- ------ -------- ----- --- ------ ----- --<br>----- ----- ---------- --- --- ------ ------ ---- -- ------<br>------- --- French ----- --- ---- ------- -- ---- --- --<br>------- ------,186593.9,186593,186109.425,186124,186126.092,186597.45,,45,French
screen,html.Screen,2_1_1_1_46,2022-04-27T13:09:08.853Z,,,,,,,,,,,,,,,,,54,,,,,,,,,,,,,,439.04999999998836,,response,,,,100,,,,,,,Space,keypress(Space),,,,,,,,-- --- ---- --- ------ ----- ------- ---- -- --- ------- --<br>------- ---------- ------ -- ----- -- ----- -- ---- ------<br>--- ----- --- --- ------ -------- ----- --- ------ ----- --<br>----- ----- ---------- --- --- ------ ------ ---- -- ------<br>------- --- ------ state --- ---- ------- -- ---- --- --<br>------- ------,187037.4,187036.5,186580.783,186594,186597.45,187051.052,,46,state
screen,html.Screen,2_1_1_1_47,2022-04-27T13:09:09.347Z,,,,,,,,,,,,,,,,,54,,,,,,,,,,,,,,479.1479999999865,,response,,,,100,,,,,,,Space,keypress(Space),,,,,,,,-- --- ---- --- ------ ----- ------- ---- -- --- ------- --<br>------- ---------- ------ -- ----- -- ----- -- ---- ------<br>--- ----- --- --- ------ -------- ----- --- ------ ----- --<br>----- ----- ---------- --- --- ------ ------ ---- -- ------<br>------- --- ------ ----- was ---- ------- -- ---- --- --<br>------- ------,187531.19999999998,187530.19999999998,187034.385,187037.5,187051.052,187544.725,,47,was
screen,html.Screen,2_1_1_1_48,2022-04-27T13:09:09.823Z,,,,,,,,,,,,,,,,,54,,,,,,,,,,,,,,461.9749999999767,,response,,,,100,,,,,,,Space,keypress(Space),,,,,,,,-- --- ---- --- ------ ----- ------- ---- -- --- ------- --<br>------- ---------- ------ -- ----- -- ----- -- ---- ------<br>--- ----- --- --- ------ -------- ----- --- ------ ----- --<br>----- ----- ---------- --- --- ------ ------ ---- -- ------<br>------- --- ------ ----- --- left ------- -- ---- --- --<br>------- ------,188007.8,188006.69999999998,187528.058,187531.3,187544.725,188021.405,,48,left
screen,html.Screen,2_1_1_1_49,2022-04-27T13:09:10.438Z,,,,,,,,,,,,,,,,,54,,,,,,,,,,,,,,599.8949999999895,,response,,,,100,,,,,,,Space,keypress(Space),,,,,,,,-- --- ---- --- ------ ----- ------- ---- -- --- ------- --<br>------- ---------- ------ -- ----- -- ----- -- ---- ------<br>--- ----- --- --- ------ -------- ----- --- ------ ----- --<br>----- ----- ---------- --- --- ------ ------ ---- -- ------<br>------- --- ------ ----- --- ---- without -- ---- --- --<br>------- ------,188622.3,188621.3,188004.738,188007.9,188021.405,188631.533,,49,without
screen,html.Screen,2_1_1_1_50,2022-04-27T13:09:10.962Z,,,,,,,,,,,,,,,,,54,,,,,,,,,,,,,,513.9670000000042,,response,,,,100,,,,,,,Space,keypress(Space),,,,,,,,-- --- ---- --- ------ ----- ------- ---- -- --- ------- --<br>------- ---------- ------ -- ----- -- ----- -- ---- ------<br>--- ----- --- --- ------ -------- ----- --- ------ ----- --<br>----- ----- ---------- --- --- ------ ------ ---- -- ------<br>------- --- ------ ----- --- ---- ------- an ---- --- --<br>------- ------,189146.4,189145.5,188614.866,188622.3,188631.533,189162.519,,50,an
screen,html.Screen,2_1_1_1_51,2022-04-27T13:09:11.487Z,,,,,,,,,,,,,,,,,54,,,,,,,,,,,,,,508.48099999999977,,response,,,,100,,,,,,,Space,keypress(Space),,,,,,,,-- --- ---- --- ------ ----- ------- ---- -- --- ------- --<br>------- ---------- ------ -- ----- -- ----- -- ---- ------<br>--- ----- --- --- ------ -------- ----- --- ------ ----- --<br>----- ----- ---------- --- --- ------ ------ ---- -- ------<br>------- --- ------ ----- --- ---- ------- -- easy --- --<br>------- ------,189672,189671,189145.852,189146.5,189162.519,189687.251,,51,easy
screen,html.Screen,2_1_1_1_52,2022-04-27T13:09:12.068Z,,,,,,,,,,,,,,,,,54,,,,,,,,,,,,,,564.4489999999932,,response,,,,100,,,,,,,Space,keypress(Space),,,,,,,,-- --- ---- --- ------ ----- ------- ---- -- --- ------- --<br>------- ---------- ------ -- ----- -- ----- -- ---- ------<br>--- ----- --- --- ------ -------- ----- --- ------ ----- --<br>----- ----- ---------- --- --- ------ ------ ---- -- ------<br>------- --- ------ ----- --- ---- ------- -- ---- way --<br>------- ------,190252.6,190251.69999999998,189670.584,189672.1,189687.251,190262.541,,52,way
screen,html.Screen,2_1_1_1_53,2022-04-27T13:09:12.701Z,,,,,,,,,,,,,,,,,54,,,,,,,,,,,,,,622.2589999999909,,response,,,,100,,,,,,,Space,keypress(Space),,,,,,,,-- --- ---- --- ------ ----- ------- ---- -- --- ------- --<br>------- ---------- ------ -- ----- -- ----- -- ---- ------<br>--- ----- --- --- ------ -------- ----- --- ------ ----- --<br>----- ----- ---------- --- --- ------ ------ ---- -- ------<br>------- --- ------ ----- --- ---- ------- -- ---- --- of<br>------- ------,190885.8,190884.8,190245.874,190252.69999999998,190262.541,190892.859,,53,of
screen,html.Screen,2_1_1_1_54,2022-04-27T13:09:13.239Z,,,,,,,,,,,,,,,,,54,,,,,,,,,,,,,,529.5409999999974,,response,,,,100,,,,,,,Space,keypress(Space),,,,,,,,-- --- ---- --- ------ ----- ------- ---- -- --- ------- --<br>------- ---------- ------ -- ----- -- ----- -- ---- ------<br>--- ----- --- --- ------ -------- ----- --- ------ ----- --<br>----- ----- ---------- --- --- ------ ------ ---- -- ------<br>------- --- ------ ----- --- ---- ------- -- ---- --- --<br>raising ------,191423.4,191422.4,190876.192,190885.9,190892.859,191426.124,,54,raising
screen,html.Screen,2_1_1_1_55,2022-04-27T13:09:13.898Z,,,,,,,,,,,,,,,,,54,,,,,,,,,,,,,,655.9759999999951,,response,,,,100,,,,,,,Space,keypress(Space),,,,,,,,-- --- ---- --- ------ ----- ------- ---- -- --- ------- --<br>------- ---------- ------ -- ----- -- ----- -- ---- ------<br>--- ----- --- --- ------ -------- ----- --- ------ ----- --<br>----- ----- ---------- --- --- ------ ------ ---- -- ------<br>------- --- ------ ----- --- ---- ------- -- ---- --- --<br>------- money.,192083,192082.1,191409.457,191423.6,191426.124,192097.315,,55,money.
Item 100,flow.Loop,2_1_1_1,2022-04-27T13:09:13.898Z,,,,,,,,,,,,,,,,,,,,,,,,,,,,,,,31022.111000000004,,completion,,,,,C,,,,,,,,,,,silence,,,,,192083.19999999998,192082.1,161043.322,161043.8,161059.989,192097.315,,,
Question 1,html.Screen,2_1_1_2,2022-04-27T13:09:17.064Z,,,,,,,,,,,,,,,,,,,,,,,,,,,,true,TRUE,,3149.6849999999977,,response,,,,100,C,,,,,,TRUE,click #choice-1,,,,silence,,,,,195249,195247,192080.648,192083.19999999998,192097.315,195259.845,,,
Question 2,html.Screen,2_1_1_3,2022-04-27T13:09:19.476Z,,,,,,,,,,,,,,,,,,,,,,,,,,,,true,FALSE,,2399.554999999993,,response,,,,100,C,,,,,,FALSE,click #choice-2,,,,silence,,,,,197660.9,197659.4,195243.178,195249.1,195259.845,197674.693,,,
Item 100,flow.Sequence,2_1_1,2022-04-27T13:09:19.476Z,,,,,,,,,,,,,,,,,,,,,,,,,,,,,,,46596.25200000001,,completion,,,,,,,,,,,,,,,,,,,,,197661.19999999998,197659.4,151046.481,151049.5,151063.148,197674.693,,,
End of Practice,html.Page,2_1_2,2022-04-27T13:09:22.727Z,,,,,,,,,,,,,,,,,,,,,,,,,,,,,,,3236.706999999995,,form submission,,,,,,,,,,,,,,,,,,,,,200911.69999999998,200911.4,197658.026,197661.19999999998,197674.693,200921.197,,,
Practice,flow.Sequence,2_1,2022-04-27T13:09:22.727Z,,,,,,,,,,,,,,,,,,,,,,,,,,,,,,,103331.84,,completion,,,,,,,,,,,,,,,,,,,,,200911.9,200911.4,97562.893,97577.79999999999,97579.56,200921.197,,,
Trap_instruction,html.Page,2_2_0,2022-04-27T13:09:27.047Z,,,,,,,,,,,,,,,,,,,,,,,,,,,,,,,4310.502999999997,,form submission,,,,,,,,,,,,,,,,,,,,,205232,205231.69999999998,200904.53,200912,200921.197,205242.252,,,
trap_trial,html.Screen,2_2_1,2022-04-27T13:09:30.832Z,,,,,,,,,,,,,,,,,,,,,,,,,,,,true,1,,3772.6479999999865,,response,,,,,,,,,,,1,click #choice-1,,,,,,,,,209017,209014.9,205225.585,205232.1,205242.252,209030.572,,,
end of trap trial,html.Page,2_2_2,2022-04-27T13:09:32.811Z,,,,,,,,,,,,,,,,,,,,,,,,,,,,,,,1964.627999999997,,form submission,,,,,,,,,,,,,,,,,,,,,210995.4,210995.19999999998,209013.905,209017.1,209030.572,211010.584,,,
Trap 1,flow.Sequence,2_2,2022-04-27T13:09:32.811Z,,,,,,,,,,,,,,,,,,,,,,,,,,,,,,,10074.002999999997,,completion,,,,,,,,,,,,,,,,,,,,,210995.6,210995.19999999998,200904.53,200912,200921.197,211010.584,,,
Standby,html.Page,2_3_0,2022-04-27T13:09:40.802Z,,,,,,,,,,,,,,,,,,,,,,,,,,,,,,,7992.391000000003,,timeout,,,,,,,,,,,,,,,,,,,,,218986.80000000002,218986.308,210993.917,210995.8,211010.584,219002.975,,,
Holding screen,html.Screen,2_3_1_0_0,2022-04-27T13:09:47.796Z,,,,,,,,,,,,,,,,,,,,,,,,,,,,,,,6993.45199999999,,timeout,,,,,,,,,,,,,,,,,,,,,225980.30000000002,225979.76,218986.308,218986.99999999997,219002.975,225996.427,,,
screen,html.Screen,2_3_1_0_1_0,2022-04-27T13:09:48.704Z,,,,,,,,,,,,,,,,,19,,,,,,,,,,,,,,890.2729999999865,,response,,,,17,C,,,,,,Space,keypress(Space),,,,instrumental,,,,"Interestingly, --- -------- -------- ---------- ---- -------<br>-- ---------- -- --- ----- ------ ----- ---- --------- ----<br>------- ------ -------- -- ------ ---------- ------ ---<br>------ -- -- ---- -- ---------- -------- ------ ---- -------<br>---- --- --------- ------- ----- --------- ---- ----- --<br>------ -------- -- ------ -- ---- ------------",226888.80000000002,226886.69999999998,225979.76,225980.6,225996.427,226889.542,,0,"Interestingly,"
screen,html.Screen,2_3_1_0_1_1,2022-04-27T13:09:49.137Z,,,,,,,,,,,,,,,,,19,,,,,,,,,,,,,,430.95799999998417,,response,,,,17,C,,,,,,Space,keypress(Space),,,,instrumental,,,,-------------- the -------- -------- ---------- ---- -------<br>-- ---------- -- --- ----- ------ ----- ---- --------- ----<br>------- ------ -------- -- ------ ---------- ------ ---<br>------ -- -- ---- -- ---------- -------- ------ ---- -------<br>---- --- --------- ------- ----- --------- ---- ----- --<br>------ -------- -- ------ -- ---- ------------,227321.49999999997,227320.49999999997,226872.875,226888.9,226889.542,227323.773,,1,the
screen,html.Screen,2_3_1_0_1_2,2022-04-27T13:09:49.619Z,,,,,,,,,,,,,,,,,19,,,,,,,,,,,,,,479.42699999999604,,response,,,,17,C,,,,,,Space,keypress(Space),,,,instrumental,,,,-------------- --- heaviest -------- ---------- ---- -------<br>-- ---------- -- --- ----- ------ ----- ---- --------- ----<br>------- ------ -------- -- ------ ---------- ------ ---<br>------ -- -- ---- -- ---------- -------- ------ ---- -------<br>---- --- --------- ------- ----- --------- ---- ----- --<br>------ -------- -- ------ -- ---- ------------,227804.19999999998,227803.19999999998,227307.106,227321.6,227323.773,227811.819,,2,heaviest
screen,html.Screen,2_3_1_0_1_3,2022-04-27T13:09:50.321Z,,,,,,,,,,,,,,,,,19,,,,,,,,,,,,,,693.2810000000172,,response,,,,17,C,,,,,,Space,keypress(Space),,,,instrumental,,,,-------------- --- -------- isotopes ---------- ---- -------<br>-- ---------- -- --- ----- ------ ----- ---- --------- ----<br>------- ------ -------- -- ------ ---------- ------ ---<br>------ -- -- ---- -- ---------- -------- ------ ---- -------<br>---- --- --------- ------- ----- --------- ---- ----- --<br>------ -------- -- ------ -- ---- ------------,228505.99999999997,228505.1,227795.152,227804.30000000002,227811.819,228510.831,,3,isotopes
screen,html.Screen,2_3_1_0_1_4,2022-04-27T13:09:51.086Z,,,,,,,,,,,,,,,,,19,,,,,,,,,,,,,,759.2690000000002,,response,,,,17,C,,,,,,Space,keypress(Space),,,,instrumental,,,,-------------- --- -------- -------- physicists ---- -------<br>-- ---------- -- --- ----- ------ ----- ---- --------- ----<br>------- ------ -------- -- ------ ---------- ------ ---<br>------ -- -- ---- -- ---------- -------- ------ ---- -------<br>---- --- --------- ------- ----- --------- ---- ----- --<br>------ -------- -- ------ -- ---- ------------,229270.99999999997,229270.1,228494.164,228506.1,228510.831,229279.562,,4,physicists
screen,html.Screen,2_3_1_0_1_5,2022-04-27T13:09:51.606Z,,,,,,,,,,,,,,,,,19,,,,,,,,,,,,,,510.03800000000047,,response,,,,17,C,,,,,,Space,keypress(Space),,,,instrumental,,,,-------------- --- -------- -------- ---------- have -------<br>-- ---------- -- --- ----- ------ ----- ---- --------- ----<br>------- ------ -------- -- ------ ---------- ------ ---<br>------ -- -- ---- -- ---------- -------- ------ ---- -------<br>---- --- --------- ------- ----- --------- ---- ----- --<br>------ -------- -- ------ -- ---- ------------,229790.49999999997,229789.6,229262.895,229271.1,229279.562,229794.449,,5,have
screen,html.Screen,2_3_1_0_1_6,2022-04-27T13:09:52.133Z,,,,,,,,,,,,,,,,,19,,,,,,,,,,,,,,522.4510000000009,,response,,,,17,C,,,,,,Space,keypress(Space),,,,instrumental,,,,-------------- --- -------- -------- ---------- ---- managed<br>-- ---------- -- --- ----- ------ ----- ---- --------- ----<br>------- ------ -------- -- ------ ---------- ------ ---<br>------ -- -- ---- -- ---------- -------- ------ ---- -------<br>---- --- --------- ------- ----- --------- ---- ----- --<br>------ -------- -- ------ -- ---- ------------,230317.69999999998,230316.9,229777.782,229790.6,229794.449,230330.459,,6,managed
screen,html.Screen,2_3_1_0_1_7,2022-04-27T13:09:52.669Z,,,,,,,,,,,,,,,,,19,,,,,,,,,,,,,,522.5409999999683,,response,,,,17,C,,,,,,Space,keypress(Space),,,,instrumental,,,,-------------- --- -------- -------- ---------- ---- -------<br>to ---------- -- --- ----- ------ ----- ---- --------- ----<br>------- ------ -------- -- ------ ---------- ------ ---<br>------ -- -- ---- -- ---------- -------- ------ ---- -------<br>---- --- --------- ------- ----- --------- ---- ----- --<br>------ -------- -- ------ -- ---- ------------,230853.99999999997,230852.99999999997,230313.792,230317.80000000002,230330.459,230857.848,,7,to
screen,html.Screen,2_3_1_0_1_8,2022-04-27T13:09:53.406Z,,,,,,,,,,,,,,,,,19,,,,,,,,,,,,,,731.4520000000193,,response,,,,17,C,,,,,,Space,keypress(Space),,,,instrumental,,,,-------------- --- -------- -------- ---------- ---- -------<br>-- synthesize -- --- ----- ------ ----- ---- --------- ----<br>------- ------ -------- -- ------ ---------- ------ ---<br>------ -- -- ---- -- ---------- -------- ------ ---- -------<br>---- --- --------- ------- ----- --------- ---- ----- --<br>------ -------- -- ------ -- ---- ------------,231590.4,231589.30000000002,230841.181,230854.1,230857.848,231593.948,,8,synthesize
screen,html.Screen,2_3_1_0_1_9,2022-04-27T13:09:54.170Z,,,,,,,,,,,,,,,,,19,,,,,,,,,,,,,,759.3520000000135,,response,,,,17,C,,,,,,Space,keypress(Space),,,,instrumental,,,,-------------- --- -------- -------- ---------- ---- -------<br>-- ---------- so --- ----- ------ ----- ---- --------- ----<br>------- ------ -------- -- ------ ---------- ------ ---<br>------ -- -- ---- -- ---------- -------- ------ ---- -------<br>---- --- --------- ------- ----- --------- ---- ----- --<br>------ -------- -- ------ -- ---- ------------,232354.49999999997,232353.30000000002,231577.281,231590.4,231593.948,232363.644,,9,so
screen,html.Screen,2_3_1_0_1_10,2022-04-27T13:09:54.637Z,,,,,,,,,,,,,,,,,19,,,,,,,,,,,,,,457.25599999999395,,response,,,,17,C,,,,,,Space,keypress(Space),,,,instrumental,,,,-------------- --- -------- -------- ---------- ---- -------<br>-- ---------- -- far ----- ------ ----- ---- --------- ----<br>------- ------ -------- -- ------ ---------- ------ ---<br>------ -- -- ---- -- ---------- -------- ------ ---- -------<br>---- --- --------- ------- ----- --------- ---- ----- --<br>------ -------- -- ------ -- ---- ------------,232821.69999999998,232820.9,232346.977,232354.69999999998,232363.644,232828.107,,10,far
screen,html.Screen,2_3_1_0_1_11,2022-04-27T13:09:55.279Z,,,,,,,,,,,,,,,,,19,,,,,,,,,,,,,,634.4930000000168,,response,,,,17,C,,,,,,Space,keypress(Space),,,,instrumental,,,,-------------- --- -------- -------- ---------- ---- -------<br>-- ---------- -- --- don't ------ ----- ---- --------- ----<br>------- ------ -------- -- ------ ---------- ------ ---<br>------ -- -- ---- -- ---------- -------- ------ ---- -------<br>---- --- --------- ------- ----- --------- ---- ----- --<br>------ -------- -- ------ -- ---- ------------,233463.49999999997,233462.6,232811.44,232821.9,232828.107,233478.53,,11,don't
screen,html.Screen,2_3_1_0_1_12,2022-04-27T13:09:56.008Z,,,,,,,,,,,,,,,,,19,,,,,,,,,,,,,,712.7700000000186,,response,,,,17,C,,,,,,Space,keypress(Space),,,,instrumental,,,,-------------- --- -------- -------- ---------- ---- -------<br>-- ---------- -- --- ----- behave ----- ---- --------- ----<br>------- ------ -------- -- ------ ---------- ------ ---<br>------ -- -- ---- -- ---------- -------- ------ ---- -------<br>---- --- --------- ------- ----- --------- ---- ----- --<br>------ -------- -- ------ -- ---- ------------,234192.19999999998,234191.30000000002,233461.863,233463.6,233478.53,234203.509,,12,behave
screen,html.Screen,2_3_1_0_1_13,2022-04-27T13:09:56.639Z,,,,,,,,,,,,,,,,,19,,,,,,,,,,,,,,619.49099999998,,response,,,,17,C,,,,,,Space,keypress(Space),,,,instrumental,,,,-------------- --- -------- -------- ---------- ---- -------<br>-- ---------- -- --- ----- ------ quite ---- --------- ----<br>------- ------ -------- -- ------ ---------- ------ ---<br>------ -- -- ---- -- ---------- -------- ------ ---- -------<br>---- --- --------- ------- ----- --------- ---- ----- --<br>------ -------- -- ------ -- ---- ------------,234823.99999999997,234822.99999999997,234186.842,234192.4,234203.509,234832.314,,13,quite
screen,html.Screen,2_3_1_0_1_14,2022-04-27T13:09:57.101Z,,,,,,,,,,,,,,,,,19,,,,,,,,,,,,,,452.4860000000044,,response,,,,17,C,,,,,,Space,keypress(Space),,,,instrumental,,,,-------------- --- -------- -------- ---------- ---- -------<br>-- ---------- -- --- ----- ------ ----- like --------- ----<br>------- ------ -------- -- ------ ---------- ------ ---<br>------ -- -- ---- -- ---------- -------- ------ ---- -------<br>---- --- --------- ------- ----- --------- ---- ----- --<br>------ -------- -- ------ -- ---- ------------,235286.1,235284.80000000002,234815.647,234824.1,234832.314,235297.391,,14,like
screen,html.Screen,2_3_1_0_1_15,2022-04-27T13:09:57.692Z,,,,,,,,,,,,,,,,,19,,,,,,,,,,,,,,578.3089999999793,,response,,,,17,C,,,,,,Space,keypress(Space),,,,instrumental,,,,-------------- --- -------- -------- ---------- ---- -------<br>-- ---------- -- --- ----- ------ ----- ---- science's ----<br>------- ------ -------- -- ------ ---------- ------ ---<br>------ -- -- ---- -- ---------- -------- ------ ---- -------<br>---- --- --------- ------- ----- --------- ---- ----- --<br>------ -------- -- ------ -- ---- ------------,235876.49999999997,235875.69999999998,235280.724,235286.1,235297.391,235893.584,,15,science's
screen,html.Screen,2_3_1_0_1_16,2022-04-27T13:09:58.222Z,,,,,,,,,,,,,,,,,19,,,,,,,,,,,,,,512.2160000000149,,response,,,,17,C,,,,,,Space,keypress(Space),,,,instrumental,,,,-------------- --- -------- -------- ---------- ---- -------<br>-- ---------- -- --- ----- ------ ----- ---- --------- best<br>------- ------ -------- -- ------ ---------- ------ ---<br>------ -- -- ---- -- ---------- -------- ------ ---- -------<br>---- --- --------- ------- ----- --------- ---- ----- --<br>------ -------- -- ------ -- ---- ------------,236406.69999999998,236405.80000000002,235876.917,235876.6,235893.584,236417.141,,16,best
screen,html.Screen,2_3_1_0_1_17,2022-04-27T13:09:58.937Z,,,,,,,,,,,,,,,,,19,,,,,,,,,,,,,,703.4590000000026,,response,,,,17,C,,,,,,Space,keypress(Space),,,,instrumental,,,,-------------- --- -------- -------- ---------- ---- -------<br>-- ---------- -- --- ----- ------ ----- ---- --------- ----<br>current ------ -------- -- ------ ---------- ------ ---<br>------ -- -- ---- -- ---------- -------- ------ ---- -------<br>---- --- --------- ------- ----- --------- ---- ----- --<br>------ -------- -- ------ -- ---- ------------,237121.80000000002,237120.6,236400.474,236406.80000000002,236417.141,237130.188,,17,current
screen,html.Screen,2_3_1_0_1_18,2022-04-27T13:09:59.477Z,,,,,,,,,,,,,,,,,19,,,,,,,,,,,,,,530.3119999999763,,response,,,,17,C,,,,,,Space,keypress(Space),,,,instrumental,,,,-------------- --- -------- -------- ---------- ---- -------<br>-- ---------- -- --- ----- ------ ----- ---- --------- ----<br>------- models -------- -- ------ ---------- ------ ---<br>------ -- -- ---- -- ---------- -------- ------ ---- -------<br>---- --- --------- ------- ----- --------- ---- ----- --<br>------ -------- -- ------ -- ---- ------------,237661.6,237660.49999999997,237113.521,237121.9,237130.188,237678.725,,18,models
screen,html.Screen,2_3_1_0_1_19,2022-04-27T13:10:00.389Z,,,,,,,,,,,,,,,,,19,,,,,,,,,,,,,,894.4749999999767,,response,,,,17,C,,,,,,Space,keypress(Space),,,,instrumental,,,,"-------------- --- -------- -------- ---------- ---- -------<br>-- ---------- -- --- ----- ------ ----- ---- --------- ----<br>------- ------ predict, -- ------ ---------- ------ ---<br>------ -- -- ---- -- ---------- -------- ------ ---- -------<br>---- --- --------- ------- ----- --------- ---- ----- --<br>------ -------- -- ------ -- ---- ------------",238574.1,238573.19999999998,237662.058,237661.69999999998,237678.725,238585.248,,19,"predict,"
screen,html.Screen,2_3_1_0_1_20,2022-04-27T13:10:00.883Z,,,,,,,,,,,,,,,,,19,,,,,,,,,,,,,,481.55200000002515,,response,,,,17,C,,,,,,Space,keypress(Space),,,,instrumental,,,,-------------- --- -------- -------- ---------- ---- -------<br>-- ---------- -- --- ----- ------ ----- ---- --------- ----<br>------- ------ -------- so ------ ---------- ------ ---<br>------ -- -- ---- -- ---------- -------- ------ ---- -------<br>---- --- --------- ------- ----- --------- ---- ----- --<br>------ -------- -- ------ -- ---- ------------,239067.80000000002,239066.80000000002,238568.581,238574.19999999998,238585.248,239080.928,,20,so
screen,html.Screen,2_3_1_0_1_21,2022-04-27T13:10:01.723Z,,,,,,,,,,,,,,,,,19,,,,,,,,,,,,,,825.872000000003,,response,,,,17,C,,,,,,Space,keypress(Space),,,,instrumental,,,,-------------- --- -------- -------- ---------- ---- -------<br>-- ---------- -- --- ----- ------ ----- ---- --------- ----<br>------- ------ -------- -- stable ---------- ------ ---<br>------ -- -- ---- -- ---------- -------- ------ ---- -------<br>---- --- --------- ------- ----- --------- ---- ----- --<br>------ -------- -- ------ -- ---- ------------,239907.80000000002,239906.80000000002,239064.261,239067.99999999997,239080.928,239924.916,,21,stable
screen,html.Screen,2_3_1_0_1_22,2022-04-27T13:10:02.455Z,,,,,,,,,,,,,,,,,19,,,,,,,,,,,,,,713.7839999999851,,response,,,,17,C,,,,,,Space,keypress(Space),,,,instrumental,,,,-------------- --- -------- -------- ---------- ---- -------<br>-- ---------- -- --- ----- ------ ----- ---- --------- ----<br>------- ------ -------- -- ------ superheavy ------ ---<br>------ -- -- ---- -- ---------- -------- ------ ---- -------<br>---- --- --------- ------- ----- --------- ---- ----- --<br>------ -------- -- ------ -- ---- ------------,240639.69999999998,240638.69999999998,239908.249,239907.80000000002,239924.916,240647.985,,22,superheavy
screen,html.Screen,2_3_1_0_1_23,2022-04-27T13:10:03.342Z,,,,,,,,,,,,,,,,,19,,,,,,,,,,,,,,878.1150000000198,,response,,,,17,C,,,,,,Space,keypress(Space),,,,instrumental,,,,-------------- --- -------- -------- ---------- ---- -------<br>-- ---------- -- --- ----- ------ ----- ---- --------- ----<br>------- ------ -------- -- ------ ---------- nuclei ---<br>------ -- -- ---- -- ---------- -------- ------ ---- -------<br>---- --- --------- ------- ----- --------- ---- ----- --<br>------ -------- -- ------ -- ---- ------------,241526.99999999997,241526.1,240631.318,240639.9,240647.985,241529.855,,23,nuclei
screen,html.Screen,2_3_1_0_1_24,2022-04-27T13:10:03.874Z,,,,,,,,,,,,,,,,,19,,,,,,,,,,,,,,527.7449999999953,,response,,,,17,C,,,,,,Space,keypress(Space),,,,instrumental,,,,-------------- --- -------- -------- ---------- ---- -------<br>-- ---------- -- --- ----- ------ ----- ---- --------- ----<br>------- ------ -------- -- ------ ---------- ------ are<br>------ -- -- ---- -- ---------- -------- ------ ---- -------<br>---- --- --------- ------- ----- --------- ---- ----- --<br>------ -------- -- ------ -- ---- ------------,242058.49999999997,242057.6,241513.188,241527.1,241529.855,242067.594,,24,are
screen,html.Screen,2_3_1_0_1_25,2022-04-27T13:10:04.489Z,,,,,,,,,,,,,,,,,19,,,,,,,,,,,,,,605.005999999994,,response,,,,17,C,,,,,,Space,keypress(Space),,,,instrumental,,,,-------------- --- -------- -------- ---------- ---- -------<br>-- ---------- -- --- ----- ------ ----- ---- --------- ----<br>------- ------ -------- -- ------ ---------- ------ ---<br>likely -- -- ---- -- ---------- -------- ------ ---- -------<br>---- --- --------- ------- ----- --------- ---- ----- --<br>------ -------- -- ------ -- ---- ------------,242673.6,242672.6,242050.927,242058.69999999998,242067.594,242682.649,,25,likely
screen,html.Screen,2_3_1_0_1_26,2022-04-27T13:10:04.905Z,,,,,,,,,,,,,,,,,19,,,,,,,,,,,,,,405.7509999999893,,response,,,,17,C,,,,,,Space,keypress(Space),,,,instrumental,,,,-------------- --- -------- -------- ---------- ---- -------<br>-- ---------- -- --- ----- ------ ----- ---- --------- ----<br>------- ------ -------- -- ------ ---------- ------ ---<br>------ to -- ---- -- ---------- -------- ------ ---- -------<br>---- --- --------- ------- ----- --------- ---- ----- --<br>------ -------- -- ------ -- ---- ------------,243089.4,243088.4,242665.982,242673.80000000002,242682.649,243096.943,,26,to
screen,html.Screen,2_3_1_0_1_27,2022-04-27T13:10:05.472Z,,,,,,,,,,,,,,,,,19,,,,,,,,,,,,,,559.1570000000065,,response,,,,17,C,,,,,,Space,keypress(Space),,,,instrumental,,,,-------------- --- -------- -------- ---------- ---- -------<br>-- ---------- -- --- ----- ------ ----- ---- --------- ----<br>------- ------ -------- -- ------ ---------- ------ ---<br>------ -- be ---- -- ---------- -------- ------ ---- -------<br>---- --- --------- ------- ----- --------- ---- ----- --<br>------ -------- -- ------ -- ---- ------------,243656.99999999997,243656.1,243080.276,243089.4,243096.943,243662.829,,27,be
screen,html.Screen,2_3_1_0_1_28,2022-04-27T13:10:06.020Z,,,,,,,,,,,,,,,,,19,,,,,,,,,,,,,,540.4710000000196,,response,,,,17,C,,,,,,Space,keypress(Space),,,,instrumental,,,,-------------- --- -------- -------- ---------- ---- -------<br>-- ---------- -- --- ----- ------ ----- ---- --------- ----<br>------- ------ -------- -- ------ ---------- ------ ---<br>------ -- -- full -- ---------- -------- ------ ---- -------<br>---- --- --------- ------- ----- --------- ---- ----- --<br>------ -------- -- ------ -- ---- ------------,244204.30000000002,244203.30000000002,243646.162,243657.1,243662.829,244213.825,,28,full
screen,html.Screen,2_3_1_0_1_29,2022-04-27T13:10:06.504Z,,,,,,,,,,,,,,,,,19,,,,,,,,,,,,,,473.9750000000058,,response,,,,17,C,,,,,,Space,keypress(Space),,,,instrumental,,,,-------------- --- -------- -------- ---------- ---- -------<br>-- ---------- -- --- ----- ------ ----- ---- --------- ----<br>------- ------ -------- -- ------ ---------- ------ ---<br>------ -- -- ---- of ---------- -------- ------ ---- -------<br>---- --- --------- ------- ----- --------- ---- ----- --<br>------ -------- -- ------ -- ---- ------------,244688.80000000002,244687.80000000002,244197.158,244204.49999999997,244213.825,244694.472,,29,of
screen,html.Screen,2_3_1_0_1_30,2022-04-27T13:10:07.169Z,,,,,,,,,,,,,,,,,19,,,,,,,,,,,,,,658.027999999962,,response,,,,17,C,,,,,,Space,keypress(Space),,,,instrumental,,,,-------------- --- -------- -------- ---------- ---- -------<br>-- ---------- -- --- ----- ------ ----- ---- --------- ----<br>------- ------ -------- -- ------ ---------- ------ ---<br>------ -- -- ---- -- surprises. -------- ------ ---- -------<br>---- --- --------- ------- ----- --------- ---- ----- --<br>------ -------- -- ------ -- ---- ------------,245353.4,245352.49999999997,244677.805,244688.9,244694.472,245362.78,,30,surprises.
screen,html.Screen,2_3_1_0_1_31,2022-04-27T13:10:08.028Z,,,,,,,,,,,,,,,,,19,,,,,,,,,,,,,,849.1199999999953,,response,,,,17,C,,,,,,Space,keypress(Space),,,,instrumental,,,,-------------- --- -------- -------- ---------- ---- -------<br>-- ---------- -- --- ----- ------ ----- ---- --------- ----<br>------- ------ -------- -- ------ ---------- ------ ---<br>------ -- -- ---- -- ---------- Chemists ------ ---- -------<br>---- --- --------- ------- ----- --------- ---- ----- --<br>------ -------- -- ------ -- ---- ------------,246212.9,246211.9,245346.113,245353.49999999997,245362.78,246227.219,,31,Chemists
screen,html.Screen,2_3_1_0_1_32,2022-04-27T13:10:08.565Z,,,,,,,,,,,,,,,,,19,,,,,,,,,,,,,,521.780999999959,,response,,,,17,C,,,,,,Space,keypress(Space),,,,instrumental,,,,-------------- --- -------- -------- ---------- ---- -------<br>-- ---------- -- --- ----- ------ ----- ---- --------- ----<br>------- ------ -------- -- ------ ---------- ------ ---<br>------ -- -- ---- -- ---------- -------- cannot ---- -------<br>---- --- --------- ------- ----- --------- ---- ----- --<br>------ -------- -- ------ -- ---- ------------,246749.9,246748.99999999997,246210.552,246212.99999999997,246227.219,246753.63,,32,cannot
screen,html.Screen,2_3_1_0_1_33,2022-04-27T13:10:09.060Z,,,,,,,,,,,,,,,,,19,,,,,,,,,,,,,,489.7699999999895,,response,,,,17,C,,,,,,Space,keypress(Space),,,,instrumental,,,,-------------- --- -------- -------- ---------- ---- -------<br>-- ---------- -- --- ----- ------ ----- ---- --------- ----<br>------- ------ -------- -- ------ ---------- ------ ---<br>------ -- -- ---- -- ---------- -------- ------ even -------<br>---- --- --------- ------- ----- --------- ---- ----- --<br>------ -------- -- ------ -- ---- ------------,247244.4,247243.4,246736.963,246749.99999999997,246753.63,247256.666,,33,even
screen,html.Screen,2_3_1_0_1_34,2022-04-27T13:10:09.687Z,,,,,,,,,,,,,,,,,19,,,,,,,,,,,,,,614.0339999999851,,response,,,,17,C,,,,,,Space,keypress(Space),,,,instrumental,,,,-------------- --- -------- -------- ---------- ---- -------<br>-- ---------- -- --- ----- ------ ----- ---- --------- ----<br>------- ------ -------- -- ------ ---------- ------ ---<br>------ -- -- ---- -- ---------- -------- ------ ---- predict<br>---- --- --------- ------- ----- --------- ---- ----- --<br>------ -------- -- ------ -- ---- ------------,247871.6,247870.69999999998,247239.999,247244.49999999997,247256.666,247884.152,,34,predict
screen,html.Screen,2_3_1_0_1_35,2022-04-27T13:10:10.447Z,,,,,,,,,,,,,,,,,19,,,,,,,,,,,,,,747.1480000000156,,response,,,,17,C,,,,,,Space,keypress(Space),,,,instrumental,,,,-------------- --- -------- -------- ---------- ---- -------<br>-- ---------- -- --- ----- ------ ----- ---- --------- ----<br>------- ------ -------- -- ------ ---------- ------ ---<br>------ -- -- ---- -- ---------- -------- ------ ---- -------<br>with --- --------- ------- ----- --------- ---- ----- --<br>------ -------- -- ------ -- ---- ------------,248632.1,248631.30000000002,247867.485,247871.69999999998,247884.152,248645.306,,35,with
screen,html.Screen,2_3_1_0_1_36,2022-04-27T13:10:11.073Z,,,,,,,,,,,,,,,,,19,,,,,,,,,,,,,,611.8939999999711,,response,,,,17,C,,,,,,Space,keypress(Space),,,,instrumental,,,,-------------- --- -------- -------- ---------- ---- -------<br>-- ---------- -- --- ----- ------ ----- ---- --------- ----<br>------- ------ -------- -- ------ ---------- ------ ---<br>------ -- -- ---- -- ---------- -------- ------ ---- -------<br>---- any --------- ------- ----- --------- ---- ----- --<br>------ -------- -- ------ -- ---- ------------,249258.1,249257.19999999998,248628.639,248632.19999999998,248645.306,249272.168,,36,any
screen,html.Screen,2_3_1_0_1_37,2022-04-27T13:10:11.753Z,,,,,,,,,,,,,,,,,19,,,,,,,,,,,,,,664.0319999999774,,response,,,,17,C,,,,,,Space,keypress(Space),,,,instrumental,,,,-------------- --- -------- -------- ---------- ---- -------<br>-- ---------- -- --- ----- ------ ----- ---- --------- ----<br>------- ------ -------- -- ------ ---------- ------ ---<br>------ -- -- ---- -- ---------- -------- ------ ---- -------<br>---- --- certainty ------- ----- --------- ---- ----- --<br>------ -------- -- ------ -- ---- ------------,249937.19999999998,249936.19999999998,249255.501,249258.30000000002,249272.168,249948.34,,37,certainty
screen,html.Screen,2_3_1_0_1_38,2022-04-27T13:10:12.430Z,,,,,,,,,,,,,,,,,19,,,,,,,,,,,,,,665.460000000021,,response,,,,17,C,,,,,,Space,keypress(Space),,,,instrumental,,,,-------------- --- -------- -------- ---------- ---- -------<br>-- ---------- -- --- ----- ------ ----- ---- --------- ----<br>------- ------ -------- -- ------ ---------- ------ ---<br>------ -- -- ---- -- ---------- -------- ------ ---- -------<br>---- --- --------- whether ----- --------- ---- ----- --<br>------ -------- -- ------ -- ---- ------------,250614.6,250613.80000000002,249931.673,249937.30000000002,249948.34,250627.445,,38,whether
screen,html.Screen,2_3_1_0_1_39,2022-04-27T13:10:13.062Z,,,,,,,,,,,,,,,,,19,,,,,,,,,,,,,,618.5549999999639,,response,,,,17,C,,,,,,Space,keypress(Space),,,,instrumental,,,,-------------- --- -------- -------- ---------- ---- -------<br>-- ---------- -- --- ----- ------ ----- ---- --------- ----<br>------- ------ -------- -- ------ ---------- ------ ---<br>------ -- -- ---- -- ---------- -------- ------ ---- -------<br>---- --- --------- ------- these --------- ---- ----- --<br>------ -------- -- ------ -- ---- ------------,251246.6,251245.99999999997,250610.778,250614.80000000002,250627.445,251255.853,,39,these
screen,html.Screen,2_3_1_0_1_40,2022-04-27T13:10:13.622Z,,,,,,,,,,,,,,,,,19,,,,,,,,,,,,,,549.8469999999797,,response,,,,17,C,,,,,,Space,keypress(Space),,,,instrumental,,,,-------------- --- -------- -------- ---------- ---- -------<br>-- ---------- -- --- ----- ------ ----- ---- --------- ----<br>------- ------ -------- -- ------ ---------- ------ ---<br>------ -- -- ---- -- ---------- -------- ------ ---- -------<br>---- --- --------- ------- ----- materials ---- ----- --<br>------ -------- -- ------ -- ---- ------------,251806.6,251805.69999999998,251239.186,251246.69999999998,251255.853,251819.22,,40,materials
screen,html.Screen,2_3_1_0_1_41,2022-04-27T13:10:14.216Z,,,,,,,,,,,,,,,,,19,,,,,,,,,,,,,,581.0800000000163,,response,,,,17,C,,,,,,Space,keypress(Space),,,,instrumental,,,,-------------- --- -------- -------- ---------- ---- -------<br>-- ---------- -- --- ----- ------ ----- ---- --------- ----<br>------- ------ -------- -- ------ ---------- ------ ---<br>------ -- -- ---- -- ---------- -------- ------ ---- -------<br>---- --- --------- ------- ----- --------- will ----- --<br>------ -------- -- ------ -- ---- ------------,252401.1,252400.30000000002,251802.553,251806.69999999998,251819.22,252413.309,,41,will
screen,html.Screen,2_3_1_0_1_42,2022-04-27T13:10:14.796Z,,,,,,,,,,,,,,,,,19,,,,,,,,,,,,,,566.7909999999974,,response,,,,17,C,,,,,,Space,keypress(Space),,,,instrumental,,,,-------------- --- -------- -------- ---------- ---- -------<br>-- ---------- -- --- ----- ------ ----- ---- --------- ----<br>------- ------ -------- -- ------ ---------- ------ ---<br>------ -- -- ---- -- ---------- -------- ------ ---- -------<br>---- --- --------- ------- ----- --------- ---- exist --<br>------ -------- -- ------ -- ---- ------------,252980.99999999997,252980.1,252396.642,252401.19999999998,252413.309,252990.931,,42,exist
