sender,sender_type,sender_id,timestamp,meta,,Blues,Classical,Country,Dance,Electronic,Folk,Gospel,Hip-Hop,Jazz,Latin,Musical/Film,New-age,Pop,Prolific_id,Provo_ID,R&B,Rap,Reggae,Religious,Rock,Soul,Swing,Traditional,age,artist_name,correct,correctResponse,distraction,duration,education,ended_on,familiarity,gender,headphone_check_performance,item,list,music_frequency,offensiveness,pleasantness,position_correct,preference,response,response_action,snippet_file,song_name,song_rating,sound,stimulus_1,stimulus_2,stimulus_3,text,time_commit,time_end,time_render,time_run,time_show,time_switch,url,word,word_ID
Prolific ID,html.Form,0,2022-05-02T10:21:19.647Z,"{""labjs_version"":""20.2.2"",""labjs_build"":{""flavor"":""production"",""commit"":""a25486e0c714a0ae2ce03ff94b7bb6896854dcfa""},""location"":""https://run.pavlovia.org/mvasilev/prolific3_music_e/"",""userAgent"":""Mozilla/5.0 (Windows NT 10.0; Win64; x64) AppleWebKit/537.36 (KHTML, like Gecko) Chrome/100.0.4896.127 Safari/537.36"",""platform"":""Win32"",""language"":""en-GB"",""locale"":""en-GB"",""timeZone"":""Europe/London"",""timezoneOffset"":-60,""screen_width"":1536,""screen_height"":864,""scroll_width"":1536,""scroll_height"":648,""window_innerWidth"":1536,""window_innerHeight"":696,""devicePixelRatio"":1.25}",,,,,,,,,,,,,,,60fe888379a6bd46ef417f07,,,,,,,,,,,,,,,11649.227999976158,,form submission,,,,,,,,,,,,,,,,,,,,,23898.799999952316,23898.399999976158,12218.877,12227.899999976158,12249.172,23904.814,{},,
Introduction,html.Screen,1_0,2022-05-02T10:21:28.321Z,,,,,,,,,,,,,,,,,,,,,,,,,,,,,,,8665.785999964239,,response,,,,,,,,,,,continue,click button,,,,,,,,,32572.5,32570.599999964237,23888.207,23899.099999964237,23904.814,32580.054,,,
Volume calibration,html.Screen,1_1,2022-05-02T10:21:50.488Z,,,,,,,,,,,,,,,,,,,,,,,,,,,,,,,22157.946,,response,,,,,,,,,,,continue,click button,,,,,,,,,54740.59999996424,54738,32563.472,32572.599999964237,32580.054,54742.331,,,
Task instructions,html.Screen,1_2,2022-05-02T10:22:00.240Z,,,,,,,,,,,,,,,,,,,,,,,,,,,,,,,9749.669000000002,,response,,,,,,,,,,,continue,click button,,,,,,,,,64492.59999996424,64492,54725.82,54740.799999952316,54742.331,64499.749,,,
Sounds,html.Screen,1_3_0_0,2022-05-02T10:22:04.479Z,,,,,,,,,,,,,,,,,,,,,,,,,,,,,,,4245.991000000002,,timeout,,,,,,,,,1,,,,,,,,S,O,I,,68731,68729.126,64483.181,64492.799999952316,64499.749,68745.74,,,
Judgement,html.Screen,1_3_0_1,2022-05-02T10:22:07.825Z,,,,,,,,,,,,,,,,,,,,,,,,,,,,true,1,,3330.859999964232,,response,,,,,,,,,1,,1,click #choice-1,,,,,S,O,I,,72077.29999995232,72076.59999996424,68729.126,68731.19999998808,68745.74,72092.59,,,
Trial,flow.Sequence,1_3_0,2022-05-02T10:22:07.826Z,,,,,,,,,,,,,,,,,,,,,,,,,,,,,,,7576.850999964234,,completion,,,,,,,,,1,,,,,,,,S,O,I,,72078.59999996424,72076.59999996424,64483.181,64492.69999998808,64499.749,72092.59,,,
Sounds,html.Screen,1_3_1_0,2022-05-02T10:22:12.070Z,,,,,,,,,,,,,,,,,,,,,,,,,,,,,,,4245.997000000003,,timeout,,,,,,,,,3,,,,,,,,O,I,S,,76322.39999997616,76321.935,72076.031,72078.89999997616,72092.59,76338.587,,,
Judgement,html.Screen,1_3_1_1,2022-05-02T10:22:12.835Z,,,,,,,,,,,,,,,,,,,,,,,,,,,,true,3,,747.4130000000005,,response,,,,,,,,,3,,3,click #choice-3,,,,,O,I,S,,77086.79999995232,77086,76321.935,76322.59999996424,76338.587,77087.895,,,
Trial,flow.Sequence,1_3_1,2022-05-02T10:22:12.835Z,,,,,,,,,,,,,,,,,,,,,,,,,,,,,,,4993.4100000000035,,completion,,,,,,,,,3,,,,,,,,O,I,S,,77087.09999996424,77086,72076.031,72078.69999998808,72092.59,77087.895,,,
Sounds,html.Screen,1_3_2_0,2022-05-02T10:22:17.066Z,,,,,,,,,,,,,,,,,,,,,,,,,,,,,,,4245.981999999989,,timeout,,,,,,,,,2,,,,,,,,O,S,I,,81317.69999998808,81317.224,77071.321,77087.19999998808,77087.895,81333.877,,,
Judgement,html.Screen,1_3_2_1,2022-05-02T10:22:19.099Z,,,,,,,,,,,,,,,,,,,,,,,,,,,,true,2,,2016.9229999523232,,response,,,,,,,,,2,,2,click #choice-2,,,,,O,S,I,,83351.39999997616,83350.79999995232,81317.224,81317.89999997616,81333.877,83365.291,,,
Trial,flow.Sequence,1_3_2,2022-05-02T10:22:19.099Z,,,,,,,,,,,,,,,,,,,,,,,,,,,,,,,6262.904999952312,,completion,,,,,,,,,2,,,,,,,,O,S,I,,83351.59999996424,83350.79999995232,77071.321,77087.19999998808,77087.895,83365.291,,,
Sounds,html.Screen,1_3_3_0,2022-05-02T10:22:23.343Z,,,,,,,,,,,,,,,,,,,,,,,,,,,,,,,4245.983999999997,,timeout,,,,,,,,,3,,,,,,,,I,O,S,,87595.19999998808,87594.621,83348.69,83351.69999998808,83365.291,87611.275,,,
Judgement,html.Screen,1_3_3_1,2022-05-02T10:22:24.016Z,,,,,,,,,,,,,,,,,,,,,,,,,,,,true,3,,656.124999976164,,response,,,,,,,,,3,,3,click #choice-3,,,,,I,O,S,,88268,88267.39999997616,87594.621,87595.39999997616,87611.275,88277.306,,,
Trial,flow.Sequence,1_3_3,2022-05-02T10:22:24.016Z,,,,,,,,,,,,,,,,,,,,,,,,,,,,,,,4902.108999976161,,completion,,,,,,,,,3,,,,,,,,I,O,S,,88268.09999996424,88267.39999997616,83348.69,83351.59999996424,83365.291,88277.306,,,
Sounds,html.Screen,1_3_4_0,2022-05-02T10:22:28.255Z,,,,,,,,,,,,,,,,,,,,,,,,,,,,,,,4246.01400000001,,timeout,,,,,,,,,1,,,,,,,,S,I,O,,92507.39999997616,92506.689,88260.729,88268.19999998808,88277.306,92523.32,,,
Judgement,html.Screen,1_3_4_1,2022-05-02T10:22:29.118Z,,,,,,,,,,,,,,,,,,,,,,,,,,,,true,1,,845.8799999880721,,response,,,,,,,,,1,,1,click #choice-1,,,,,S,I,O,,93369.79999995232,93369.19999998808,92506.689,92507.5,92523.32,93372.503,,,
Trial,flow.Sequence,1_3_4,2022-05-02T10:22:29.118Z,,,,,,,,,,,,,,,,,,,,,,,,,,,,,,,5091.893999988082,,completion,,,,,,,,,1,,,,,,,,S,I,O,,93370,93369.19999998808,88260.729,88268.19999998808,88277.306,93372.503,,,
Sounds,html.Screen,1_3_5_0,2022-05-02T10:22:33.350Z,,,,,,,,,,,,,,,,,,,,,,,,,,,,,,,4245.966,,timeout,,,,,,,,,2,,,,,,,,I,S,O,,97602.5,97601.84,93355.904,93370,93372.503,97618.469,,,
Judgement,html.Screen,1_3_5_1,2022-05-02T10:22:33.921Z,,,,,,,,,,,,,,,,,,,,,,,,,,,,true,2,,553.9309999761608,,response,,,,,,,,,2,,2,click #choice-2,,,,,I,S,O,,98173.19999998808,98172.39999997616,97601.84,97602.69999998808,97618.469,98184.718,,,
Trial,flow.Sequence,1_3_5,2022-05-02T10:22:33.921Z,,,,,,,,,,,,,,,,,,,,,,,,,,,,,,,4799.896999976161,,completion,,,,,,,,,2,,,,,,,,I,S,O,,98173.29999995232,98172.39999997616,93355.904,93370,93372.503,98184.718,,,
Task,flow.Loop,1_3,2022-05-02T10:22:33.925Z,,,,,,,,,,,,,,,,,,,,,,,,,,,,,,,33672.650999976155,,completion,,,1,,,,,,,,,,,,,,,,,,98177,98172.39999997616,64483.181,64492.69999998808,64499.749,98184.718,,,
Trap,html.Screen,1_4,2022-05-02T10:22:33.926Z,,,,,,,,,,,,,,,,,,,,,,,,,,,,,,,NaN,,skipped,,,,,,,,,,,,,,,,,,,,,98177.89999997616,98172.39999997616,,98177.89999997616,,98184.718,,,
Thanks,html.Screen,1_5,2022-05-02T10:22:39.009Z,,,,,,,,,,,,,,,,,,,,,,,,,,,,,,,5075.581999952323,,response,,,,,,,,,,,continue,click button,,,,,,,,,103261,103260.29999995232,98168.037,98178,98184.718,106693.274,,,
Headphone screening,flow.Sequence,1,2022-05-02T10:22:39.009Z,,,,,,,,,,,,,,,,,,,,,,,,,,,,,,,79355.48599995232,,completion,,,,,,,,,,,,,,,,,,,,,103261.09999996424,103260.29999995232,23888.207,23899,23904.814,106693.274,,,
Instructions,html.Page,2_0,2022-05-02T10:23:03.019Z,,,,,,,,,,,,,,,,,,,,,,,,,,,,,,,20578.02599995231,,form submission,,,,,,,,,,,,,,,,,,,,,127271.5,127271.29999995232,106676.693,106702.29999995232,106693.274,127273.828,,,
Holding screen,html.Screen,2_1_0_0,2022-05-02T10:23:13.012Z,,,,,,,,,,,,,,,,,,,,,,,,,,,,,,,10007.193000000014,,timeout,,,,,,,,,,,,,,,,,,,,,137264.79999995232,137264.374,127257.201,127271.69999998808,127273.828,137281.021,,,
screen,html.Screen,2_1_0_1_0,2022-05-02T10:23:13.957Z,,,,,,,,,,,,,,,,,53,,,,,,,,,,,,,,926.5789999642293,,response,,,,99,,,,,,,Space,keypress(Space),,,,,,,,When -- ----- -- ------ - ------- --- ----------<br>------------- ------ ------ ---- ---- ------- ----- -- ----<br>-------- ------- -- ---------- --- - --- ----- ----- ----<br>---- --- --- ----- --- ---- ---- ------- ----- ---- -------<br>--- --- -- ----- -- --- ---- -- --- ---- -- ------ ------<br>--- ----- -- ----,138209.39999997616,138207.59999996424,137264.374,137265,137281.021,138213.461,,0,When
screen,html.Screen,2_1_0_1_1,2022-05-02T10:23:14.489Z,,,,,,,,,,,,,,,,,53,,,,,,,,,,,,,,527.838999952306,,response,,,,99,,,,,,,Space,keypress(Space),,,,,,,,---- it ----- -- ------ - ------- --- ----------<br>------------- ------ ------ ---- ---- ------- ----- -- ----<br>-------- ------- -- ---------- --- - --- ----- ----- ----<br>---- --- --- ----- --- ---- ---- ------- ----- ---- -------<br>--- --- -- ----- -- --- ---- -- --- ---- -- ------ ------<br>--- ----- -- ----,138741.89999997616,138741.29999995232,138197.622,138209.5,138213.461,138746.294,,1,it
screen,html.Screen,2_1_0_1_2,2022-05-02T10:23:15.159Z,,,,,,,,,,,,,,,,,53,,,,,,,,,,,,,,665.0059999523219,,response,,,,99,,,,,,,Space,keypress(Space),,,,,,,,---- -- comes -- ------ - ------- --- ----------<br>------------- ------ ------ ---- ---- ------- ----- -- ----<br>-------- ------- -- ---------- --- - --- ----- ----- ----<br>---- --- --- ----- --- ---- ---- ------- ----- ---- -------<br>--- --- -- ----- -- --- ---- -- --- ---- -- ------ ------<br>--- ----- -- ----,139411.69999998808,139411.29999995232,138730.071,138742,138746.294,139431.557,,2,comes
screen,html.Screen,2_1_0_1_3,2022-05-02T10:23:15.597Z,,,,,,,,,,,,,,,,,53,,,,,,,,,,,,,,417.7429999523156,,response,,,,99,,,,,,,Space,keypress(Space),,,,,,,,---- -- ----- to ------ - ------- --- ----------<br>------------- ------ ------ ---- ---- ------- ----- -- ----<br>-------- ------- -- ---------- --- - --- ----- ----- ----<br>---- --- --- ----- --- ---- ---- ------- ----- ---- -------<br>--- --- -- ----- -- --- ---- -- --- ---- -- ------ ------<br>--- ----- -- ----,139849.79999995232,139849.29999995232,139396.241,139411.79999995232,139431.557,139861.944,,3,to
screen,html.Screen,2_1_0_1_4,2022-05-02T10:23:16.141Z,,,,,,,,,,,,,,,,,53,,,,,,,,,,,,,,531.3559999523277,,response,,,,99,,,,,,,Space,keypress(Space),,,,,,,,---- -- ----- -- having - ------- --- ----------<br>------------- ------ ------ ---- ---- ------- ----- -- ----<br>-------- ------- -- ---------- --- - --- ----- ----- ----<br>---- --- --- ----- --- ---- ---- ------- ----- ---- -------<br>--- --- -- ----- -- --- ---- -- --- ---- -- ------ ------<br>--- ----- -- ----,140393.59999996424,140393.29999995232,139845.592,139849.79999995232,139861.944,140420.653,,4,having
screen,html.Screen,2_1_0_1_5,2022-05-02T10:23:16.585Z,,,,,,,,,,,,,,,,,53,,,,,,,,,,,,,,416.746999976167,,response,,,,99,,,,,,,Space,keypress(Space),,,,,,,,---- -- ----- -- ------ a ------- --- ----------<br>------------- ------ ------ ---- ---- ------- ----- -- ----<br>-------- ------- -- ---------- --- - --- ----- ----- ----<br>---- --- --- ----- --- ---- ---- ------- ----- ---- -------<br>--- --- -- ----- -- --- ---- -- --- ---- -- ------ ------<br>--- ----- -- ----,140837.79999995232,140837.39999997616,140378.502,140393.69999998808,140420.653,140844.289,,5,a
screen,html.Screen,2_1_0_1_6,2022-05-02T10:23:17.149Z,,,,,,,,,,,,,,,,,53,,,,,,,,,,,,,,556.3109999642475,,response,,,,99,,,,,,,Space,keypress(Space),,,,,,,,---- -- ----- -- ------ - lasting --- ----------<br>------------- ------ ------ ---- ---- ------- ----- -- ----<br>-------- ------- -- ---------- --- - --- ----- ----- ----<br>---- --- --- ----- --- ---- ---- ------- ----- ---- -------<br>--- --- -- ----- -- --- ---- -- --- ---- -- ------ ------<br>--- ----- -- ----,141401,141400.59999996424,140828.011,140837.89999997616,140844.289,141410.432,,6,lasting
screen,html.Screen,2_1_0_1_7,2022-05-02T10:23:17.688Z,,,,,,,,,,,,,,,,,53,,,,,,,,,,,,,,529.1679999642365,,response,,,,99,,,,,,,Space,keypress(Space),,,,,,,,---- -- ----- -- ------ - ------- and ----------<br>------------- ------ ------ ---- ---- ------- ----- -- ----<br>-------- ------- -- ---------- --- - --- ----- ----- ----<br>---- --- --- ----- --- ---- ---- ------- ----- ---- -------<br>--- --- -- ----- -- --- ---- -- --- ---- -- ------ ------<br>--- ----- -- ----,141940,141939.59999996424,141394.271,141401.09999996424,141410.432,141943.269,,7,and
screen,html.Screen,2_1_0_1_8,2022-05-02T10:23:18.247Z,,,,,,,,,,,,,,,,,53,,,,,,,,,,,,,,555.830999964237,,response,,,,99,,,,,,,Space,keypress(Space),,,,,,,,---- -- ----- -- ------ - ------- --- fulfilling<br>------------- ------ ------ ---- ---- ------- ----- -- ----<br>-------- ------- -- ---------- --- - --- ----- ----- ----<br>---- --- --- ----- --- ---- ---- ------- ----- ---- -------<br>--- --- -- ----- -- --- ---- -- --- ---- -- ------ ------<br>--- ----- -- ----,142499.59999996424,142499.09999996424,141927.08,141940.09999996424,141943.269,142509.4,,8,fulfilling
screen,html.Screen,2_1_0_1_9,2022-05-02T10:23:19.125Z,,,,,,,,,,,,,,,,,53,,,,,,,,,,,,,,867.499999976164,,response,,,,99,,,,,,,Space,keypress(Space),,,,,,,,"---- -- ----- -- ------ - ------- --- ----------<br>relationship, ------ ------ ---- ---- ------- ----- -- ----<br>-------- ------- -- ---------- --- - --- ----- ----- ----<br>---- --- --- ----- --- ---- ---- ------- ----- ---- -------<br>--- --- -- ----- -- --- ---- -- --- ---- -- ------ ------<br>--- ----- -- ----",143377.39999997616,143376.89999997616,142493.225,142499.59999996424,142509.4,143391.916,,9,"relationship,"
screen,html.Screen,2_1_0_1_10,2022-05-02T10:23:19.818Z,,,,,,,,,,,,,,,,,53,,,,,,,,,,,,,,677.9839999761607,,response,,,,99,,,,,,,Space,keypress(Space),,,,,,,,---- -- ----- -- ------ - ------- --- ----------<br>------------- common ------ ---- ---- ------- ----- -- ----<br>-------- ------- -- ---------- --- - --- ----- ----- ----<br>---- --- --- ----- --- ---- ---- ------- ----- ---- -------<br>--- --- -- ----- -- --- ---- -- --- ---- -- ------ ------<br>--- ----- -- ----,144070.39999997616,144069.89999997616,143375.99,143377.39999997616,143391.916,144074.576,,10,common
screen,html.Screen,2_1_0_1_11,2022-05-02T10:23:20.367Z,,,,,,,,,,,,,,,,,53,,,,,,,,,,,,,,544.4239999999991,,response,,,,99,,,,,,,Space,keypress(Space),,,,,,,,---- -- ----- -- ------ - ------- --- ----------<br>------------- ------ wisdom ---- ---- ------- ----- -- ----<br>-------- ------- -- ---------- --- - --- ----- ----- ----<br>---- --- --- ----- --- ---- ---- ------- ----- ---- -------<br>--- --- -- ----- -- --- ---- -- --- ---- -- ------ ------<br>--- ----- -- ----,144619.39999997616,144619,144058.507,144070.39999997616,144074.576,144624.056,,11,wisdom
screen,html.Screen,2_1_0_1_12,2022-05-02T10:23:20.896Z,,,,,,,,,,,,,,,,,53,,,,,,,,,,,,,,523.6439999880677,,response,,,,99,,,,,,,Space,keypress(Space),,,,,,,,---- -- ----- -- ------ - ------- --- ----------<br>------------- ------ ------ says ---- ------- ----- -- ----<br>-------- ------- -- ---------- --- - --- ----- ----- ----<br>---- --- --- ----- --- ---- ---- ------- ----- ---- -------<br>--- --- -- ----- -- --- ---- -- --- ---- -- ------ ------<br>--- ----- -- ----,145148.29999995232,145147.69999998808,144607.871,144619.5,144624.056,145156.888,,12,says
screen,html.Screen,2_1_0_1_13,2022-05-02T10:23:21.530Z,,,,,,,,,,,,,,,,,53,,,,,,,,,,,,,,625.5119999761519,,response,,,,99,,,,,,,Space,keypress(Space),,,,,,,,---- -- ----- -- ------ - ------- --- ----------<br>------------- ------ ------ ---- that ------- ----- -- ----<br>-------- ------- -- ---------- --- - --- ----- ----- ----<br>---- --- --- ----- --- ---- ---- ------- ----- ---- -------<br>--- --- -- ----- -- --- ---- -- --- ---- -- ------ ------<br>--- ----- -- ----,145782.79999995232,145782.39999997616,145140.679,145148.29999995232,145156.888,145789.63,,13,that
screen,html.Screen,2_1_0_1_14,2022-05-02T10:23:22.167Z,,,,,,,,,,,,,,,,,53,,,,,,,,,,,,,,629.2699999761535,,response,,,,99,,,,,,,Space,keypress(Space),,,,,,,,---- -- ----- -- ------ - ------- --- ----------<br>------------- ------ ------ ---- ---- feeling ----- -- ----<br>-------- ------- -- ---------- --- - --- ----- ----- ----<br>---- --- --- ----- --- ---- ---- ------- ----- ---- -------<br>--- --- -- ----- -- --- ---- -- --- ---- -- ------ ------<br>--- ----- -- ----,146419.29999995232,146418.89999997616,145773.51,145782.89999997616,145789.63,146422.372,,14,feeling
screen,html.Screen,2_1_0_1_15,2022-05-02T10:23:22.702Z,,,,,,,,,,,,,,,,,53,,,,,,,,,,,,,,531.4279999523133,,response,,,,99,,,,,,,Space,keypress(Space),,,,,,,,---- -- ----- -- ------ - ------- --- ----------<br>------------- ------ ------ ---- ---- ------- close -- ----<br>-------- ------- -- ---------- --- - --- ----- ----- ----<br>---- --- --- ----- --- ---- ---- ------- ----- ---- -------<br>--- --- -- ----- -- --- ---- -- --- ---- -- ------ ------<br>--- ----- -- ----,146954.19999998808,146953.79999995232,146406.24,146419.39999997616,146422.372,146984.18,,15,close
screen,html.Screen,2_1_0_1_16,2022-05-02T10:23:23.074Z,,,,,,,,,,,,,,,,,53,,,,,,,,,,,,,,341.320000000007,,response,,,,99,,,,,,,Space,keypress(Space),,,,,,,,---- -- ----- -- ------ - ------- --- ----------<br>------------- ------ ------ ---- ---- ------- ----- to ----<br>-------- ------- -- ---------- --- - --- ----- ----- ----<br>---- --- --- ----- --- ---- ---- ------- ----- ---- -------<br>--- --- -- ----- -- --- ---- -- --- ---- -- ------ ------<br>--- ----- -- ----,147326,147325.5,146939.005,146954.19999998808,146984.18,147338.164,,16,to
screen,html.Screen,2_1_0_1_17,2022-05-02T10:23:23.486Z,,,,,,,,,,,,,,,,,53,,,,,,,,,,,,,,399.43599996424746,,response,,,,99,,,,,,,Space,keypress(Space),,,,,,,,---- -- ----- -- ------ - ------- --- ----------<br>------------- ------ ------ ---- ---- ------- ----- -- your<br>-------- ------- -- ---------- --- - --- ----- ----- ----<br>---- --- --- ----- --- ---- ---- ------- ----- ---- -------<br>--- --- -- ----- -- --- ---- -- --- ---- -- ------ ------<br>--- ----- -- ----,147738,147737.59999996424,147321.831,147326.09999996424,147338.164,147754.458,,17,your
screen,html.Screen,2_1_0_1_18,2022-05-02T10:23:24.035Z,,,,,,,,,,,,,,,,,53,,,,,,,,,,,,,,532.1419999642239,,response,,,,99,,,,,,,Space,keypress(Space),,,,,,,,---- -- ----- -- ------ - ------- --- ----------<br>------------- ------ ------ ---- ---- ------- ----- -- ----<br>romantic ------- -- ---------- --- - --- ----- ----- ----<br>---- --- --- ----- --- ---- ---- ------- ----- ---- -------<br>--- --- -- ----- -- --- ---- -- --- ---- -- ------ ------<br>--- ----- -- ----,148287,148286.59999996424,147738.131,147738.09999996424,147754.458,148303.942,,18,romantic
screen,html.Screen,2_1_0_1_19,2022-05-02T10:23:24.532Z,,,,,,,,,,,,,,,,,53,,,,,,,,,,,,,,480.1579999642272,,response,,,,99,,,,,,,Space,keypress(Space),,,,,,,,---- -- ----- -- ------ - ------- --- ----------<br>------------- ------ ------ ---- ---- ------- ----- -- ----<br>-------- partner -- ---------- --- - --- ----- ----- ----<br>---- --- --- ----- --- ---- ---- ------- ----- ---- -------<br>--- --- -- ----- -- --- ---- -- --- ---- -- ------ ------<br>--- ----- -- ----,148784.39999997616,148784.09999996424,148271.054,148287.09999996424,148303.942,148786.827,,19,partner
screen,html.Screen,2_1_0_1_20,2022-05-02T10:23:24.979Z,,,,,,,,,,,,,,,,,53,,,,,,,,,,,,,,443.87299998808885,,response,,,,99,,,,,,,Space,keypress(Space),,,,,,,,---- -- ----- -- ------ - ------- --- ----------<br>------------- ------ ------ ---- ---- ------- ----- -- ----<br>-------- ------- is ---------- --- - --- ----- ----- ----<br>---- --- --- ----- --- ---- ---- ------- ----- ---- -------<br>--- --- -- ----- -- --- ---- -- --- ---- -- ------ ------<br>--- ----- -- ----,149231.09999996424,149230.69999998808,148770.546,148784.59999996424,148786.827,149236.367,,20,is
screen,html.Screen,2_1_0_1_21,2022-05-02T10:23:26.597Z,,,,,,,,,,,,,,,,,53,,,,,,,,,,,,,,1613.1330000000016,,response,,,,99,,,,,,,Space,keypress(Space),,,,,,,,---- -- ----- -- ------ - ------- --- ----------<br>------------- ------ ------ ---- ---- ------- ----- -- ----<br>-------- ------- -- paramount. --- - --- ----- ----- ----<br>---- --- --- ----- --- ---- ---- ------- ----- ---- -------<br>--- --- -- ----- -- --- ---- -- --- ---- -- ------ ------<br>--- ----- -- ----,150849.89999997616,150849.5,149220.09,149231.19999998808,149236.367,150851.539,,21,paramount.
screen,html.Screen,2_1_0_1_22,2022-05-02T10:23:27.373Z,,,,,,,,,,,,,,,,,53,,,,,,,,,,,,,,773.1609999880893,,response,,,,99,,,,,,,Space,keypress(Space),,,,,,,,---- -- ----- -- ------ - ------- --- ----------<br>------------- ------ ------ ---- ---- ------- ----- -- ----<br>-------- ------- -- ---------- But - --- ----- ----- ----<br>---- --- --- ----- --- ---- ---- ------- ----- ---- -------<br>--- --- -- ----- -- --- ---- -- --- ---- -- ------ ------<br>--- ----- -- ----,151625,151624.69999998808,150836.287,150849.89999997616,150851.539,151634.111,,22,But
screen,html.Screen,2_1_0_1_23,2022-05-02T10:23:28.043Z,,,,,,,,,,,,,,,,,53,,,,,,,,,,,,,,661.3889999999956,,response,,,,99,,,,,,,Space,keypress(Space),,,,,,,,---- -- ----- -- ------ - ------- --- ----------<br>------------- ------ ------ ---- ---- ------- ----- -- ----<br>-------- ------- -- ---------- --- a --- ----- ----- ----<br>---- --- --- ----- --- ---- ---- ------- ----- ---- -------<br>--- --- -- ----- -- --- ---- -- --- ---- -- ------ ------<br>--- ----- -- ----,152295.79999995232,152295.5,151618.13,151625.09999996424,151634.111,152300.193,,23,a
screen,html.Screen,2_1_0_1_24,2022-05-02T10:23:28.524Z,,,,,,,,,,,,,,,,,53,,,,,,,,,,,,,,475.8070000000007,,response,,,,99,,,,,,,Space,keypress(Space),,,,,,,,---- -- ----- -- ------ - ------- --- ----------<br>------------- ------ ------ ---- ---- ------- ----- -- ----<br>-------- ------- -- ---------- --- - new ----- ----- ----<br>---- --- --- ----- --- ---- ---- ------- ----- ---- -------<br>--- --- -- ----- -- --- ---- -- --- ---- -- ------ ------<br>--- ----- -- ----,152776.39999997616,152776,152284.044,152296,152300.193,152783.011,,24,new
screen,html.Screen,2_1_0_1_25,2022-05-02T10:23:28.991Z,,,,,,,,,,,,,,,,,53,,,,,,,,,,,,,,460.38899997615954,,response,,,,99,,,,,,,Space,keypress(Space),,,,,,,,---- -- ----- -- ------ - ------- --- ----------<br>------------- ------ ------ ---- ---- ------- ----- -- ----<br>-------- ------- -- ---------- --- - --- study ----- ----<br>---- --- --- ----- --- ---- ---- ------- ----- ---- -------<br>--- --- -- ----- -- --- ---- -- --- ---- -- ------ ------<br>--- ----- -- ----,153243.79999995232,153243.39999997616,152766.765,152776.5,152783.011,153249.248,,25,study
screen,html.Screen,2_1_0_1_26,2022-05-02T10:23:29.455Z,,,,,,,,,,,,,,,,,53,,,,,,,,,,,,,,457.45199998808675,,response,,,,99,,,,,,,Space,keypress(Space),,,,,,,,---- -- ----- -- ------ - ------- --- ----------<br>------------- ------ ------ ---- ---- ------- ----- -- ----<br>-------- ------- -- ---------- --- - --- ----- finds ----<br>---- --- --- ----- --- ---- ---- ------- ----- ---- -------<br>--- --- -- ----- -- --- ---- -- --- ---- -- ------ ------<br>--- ----- -- ----,153707.19999998808,153706.69999998808,153232.974,153243.89999997616,153249.248,153715.468,,26,finds
screen,html.Screen,2_1_0_1_27,2022-05-02T10:23:29.918Z,,,,,,,,,,,,,,,,,53,,,,,,,,,,,,,,454.63199996424373,,response,,,,99,,,,,,,Space,keypress(Space),,,,,,,,---- -- ----- -- ------ - ------- --- ----------<br>------------- ------ ------ ---- ---- ------- ----- -- ----<br>-------- ------- -- ---------- --- - --- ----- ----- that<br>---- --- --- ----- --- ---- ---- ------- ----- ---- -------<br>--- --- -- ----- -- --- ---- -- --- ---- -- ------ ------<br>--- ----- -- ----,154170.5,154170.09999996424,153699.214,153707.29999995232,153715.468,154181.705,,27,that
screen,html.Screen,2_1_0_1_28,2022-05-02T10:23:30.410Z,,,,,,,,,,,,,,,,,53,,,,,,,,,,,,,,480.0949999523291,,response,,,,99,,,,,,,Space,keypress(Space),,,,,,,,---- -- ----- -- ------ - ------- --- ----------<br>------------- ------ ------ ---- ---- ------- ----- -- ----<br>-------- ------- -- ---------- --- - --- ----- ----- ----<br>it's --- --- ----- --- ---- ---- ------- ----- ---- -------<br>--- --- -- ----- -- --- ---- -- --- ---- -- ------ ------<br>--- ----- -- ----,154662.19999998808,154661.79999995232,154165.443,154170.5,154181.705,154664.602,,28,it's
screen,html.Screen,2_1_0_1_29,2022-05-02T10:23:31.172Z,,,,,,,,,,,,,,,,,53,,,,,,,,,,,,,,758.9979999642237,,response,,,,99,,,,,,,Space,keypress(Space),,,,,,,,---- -- ----- -- ------ - ------- --- ----------<br>------------- ------ ------ ---- ---- ------- ----- -- ----<br>-------- ------- -- ---------- --- - --- ----- ----- ----<br>---- not --- ----- --- ---- ---- ------- ----- ---- -------<br>--- --- -- ----- -- --- ---- -- --- ---- -- ------ ------<br>--- ----- -- ----,155424.09999996424,155423.59999996424,154648.332,154662.29999995232,154664.602,155430.548,,29,not
screen,html.Screen,2_1_0_1_30,2022-05-02T10:23:32.088Z,,,,,,,,,,,,,,,,,53,,,,,,,,,,,,,,909.3519999761484,,response,,,,99,,,,,,,Space,keypress(Space),,,,,,,,---- -- ----- -- ------ - ------- --- ----------<br>------------- ------ ------ ---- ---- ------- ----- -- ----<br>-------- ------- -- ---------- --- - --- ----- ----- ----<br>---- --- how ----- --- ---- ---- ------- ----- ---- -------<br>--- --- -- ----- -- --- ---- -- --- ---- -- ------ ------<br>--- ----- -- ----,156340.29999995232,156339.89999997616,155414.529,155424.29999995232,155430.548,156346.31,,30,how
screen,html.Screen,2_1_0_1_31,2022-05-02T10:23:32.533Z,,,,,,,,,,,,,,,,,53,,,,,,,,,,,,,,438.9899999523186,,response,,,,99,,,,,,,Space,keypress(Space),,,,,,,,---- -- ----- -- ------ - ------- --- ----------<br>------------- ------ ------ ---- ---- ------- ----- -- ----<br>-------- ------- -- ---------- --- - --- ----- ----- ----<br>---- --- --- close --- ---- ---- ------- ----- ---- -------<br>--- --- -- ----- -- --- ---- -- --- ---- -- ------ ------<br>--- ----- -- ----,156785.79999995232,156785.29999995232,156330.486,156340.39999997616,156346.31,156795.894,,31,close
screen,html.Screen,2_1_0_1_32,2022-05-02T10:23:32.943Z,,,,,,,,,,,,,,,,,53,,,,,,,,,,,,,,399.205999964237,,response,,,,99,,,,,,,Space,keypress(Space),,,,,,,,---- -- ----- -- ------ - ------- --- ----------<br>------------- ------ ------ ---- ---- ------- ----- -- ----<br>-------- ------- -- ---------- --- - --- ----- ----- ----<br>---- --- --- ----- you ---- ---- ------- ----- ---- -------<br>--- --- -- ----- -- --- ---- -- --- ---- -- ------ ------<br>--- ----- -- ----,157195.5,157195.09999996424,156779.614,156785.89999997616,156795.894,157212.192,,32,you
screen,html.Screen,2_1_0_1_33,2022-05-02T10:23:33.645Z,,,,,,,,,,,,,,,,,53,,,,,,,,,,,,,,685.1079999523063,,response,,,,99,,,,,,,Space,keypress(Space),,,,,,,,---- -- ----- -- ------ - ------- --- ----------<br>------------- ------ ------ ---- ---- ------- ----- -- ----<br>-------- ------- -- ---------- --- - --- ----- ----- ----<br>---- --- --- ----- --- feel ---- ------- ----- ---- -------<br>--- --- -- ----- -- --- ---- -- --- ---- -- ------ ------<br>--- ----- -- ----,157897.69999998808,157897.29999995232,157195.863,157195.59999996424,157212.192,157911.511,,33,feel
screen,html.Screen,2_1_0_1_34,2022-05-02T10:23:34.087Z,,,,,,,,,,,,,,,,,53,,,,,,,,,,,,,,427.38899997615954,,response,,,,99,,,,,,,Space,keypress(Space),,,,,,,,---- -- ----- -- ------ - ------- --- ----------<br>------------- ------ ------ ---- ---- ------- ----- -- ----<br>-------- ------- -- ---------- --- - --- ----- ----- ----<br>---- --- --- ----- --- ---- that ------- ----- ---- -------<br>--- --- -- ----- -- --- ---- -- --- ---- -- ------ ------<br>--- ----- -- ----,158339.39999997616,158338.89999997616,157895.455,157897.69999998808,157911.511,158344.43,,34,that
screen,html.Screen,2_1_0_1_35,2022-05-02T10:23:34.631Z,,,,,,,,,,,,,,,,,53,,,,,,,,,,,,,,538.269999988086,,response,,,,99,,,,,,,Space,keypress(Space),,,,,,,,---- -- ----- -- ------ - ------- --- ----------<br>------------- ------ ------ ---- ---- ------- ----- -- ----<br>-------- ------- -- ---------- --- - --- ----- ----- ----<br>---- --- --- ----- --- ---- ---- matters ----- ---- -------<br>--- --- -- ----- -- --- ---- -- --- ---- -- ------ ------<br>--- ----- -- ----,158883.19999998808,158882.69999998808,158328.161,158339.5,158344.43,158893.911,,35,matters
screen,html.Screen,2_1_0_1_36,2022-05-02T10:23:35.437Z,,,,,,,,,,,,,,,,,53,,,,,,,,,,,,,,795.2889999880863,,response,,,,99,,,,,,,Space,keypress(Space),,,,,,,,"---- -- ----- -- ------ - ------- --- ----------<br>------------- ------ ------ ---- ---- ------- ----- -- ----<br>-------- ------- -- ---------- --- - --- ----- ----- ----<br>---- --- --- ----- --- ---- ---- ------- most, ---- -------<br>--- --- -- ----- -- --- ---- -- --- ---- -- ------ ------<br>--- ----- -- ----",159689.69999998808,159689.19999998808,158877.713,158883.19999998808,158893.911,159693.171,,36,"most,"
screen,html.Screen,2_1_0_1_37,2022-05-02T10:23:35.927Z,,,,,,,,,,,,,,,,,53,,,,,,,,,,,,,,485.8289999999979,,response,,,,99,,,,,,,Space,keypress(Space),,,,,,,,---- -- ----- -- ------ - ------- --- ----------<br>------------- ------ ------ ---- ---- ------- ----- -- ----<br>-------- ------- -- ---------- --- - --- ----- ----- ----<br>---- --- --- ----- --- ---- ---- ------- ----- it's -------<br>--- --- -- ----- -- --- ---- -- --- ---- -- ------ ------<br>--- ----- -- ----,160179.39999997616,160179,159677.187,159689.69999998808,159693.171,160192.693,,37,it's
screen,html.Screen,2_1_0_1_38,2022-05-02T10:23:36.430Z,,,,,,,,,,,,,,,,,53,,,,,,,,,,,,,,489.00699998807977,,response,,,,99,,,,,,,Space,keypress(Space),,,,,,,,---- -- ----- -- ------ - ------- --- ----------<br>------------- ------ ------ ---- ---- ------- ----- -- ----<br>-------- ------- -- ---------- --- - --- ----- ----- ----<br>---- --- --- ----- --- ---- ---- ------- ----- ---- whether<br>--- --- -- ----- -- --- ---- -- --- ---- -- ------ ------<br>--- ----- -- ----,160682.09999996424,160681.69999998808,160176.461,160179.39999997616,160192.693,160692.255,,38,whether
screen,html.Screen,2_1_0_1_39,2022-05-02T10:23:36.933Z,,,,,,,,,,,,,,,,,53,,,,,,,,,,,,,,492.74499999999534,,response,,,,99,,,,,,,Space,keypress(Space),,,,,,,,---- -- ----- -- ------ - ------- --- ----------<br>------------- ------ ------ ---- ---- ------- ----- -- ----<br>-------- ------- -- ---------- --- - --- ----- ----- ----<br>---- --- --- ----- --- ---- ---- ------- ----- ---- -------<br>you --- -- ----- -- --- ---- -- --- ---- -- ------ ------<br>--- ----- -- ----,161185.5,161185,160675.967,160682.19999998808,160692.255,161191.778,,39,you
screen,html.Screen,2_1_0_1_40,2022-05-02T10:23:37.421Z,,,,,,,,,,,,,,,,,53,,,,,,,,,,,,,,481.32199996424606,,response,,,,99,,,,,,,Space,keypress(Space),,,,,,,,---- -- ----- -- ------ - ------- --- ----------<br>------------- ------ ------ ---- ---- ------- ----- -- ----<br>-------- ------- -- ---------- --- - --- ----- ----- ----<br>---- --- --- ----- --- ---- ---- ------- ----- ---- -------<br>--- are -- ----- -- --- ---- -- --- ---- -- ------ ------<br>--- ----- -- ----,161673.59999996424,161673.09999996424,161175.534,161185.59999996424,161191.778,161694.079,,40,are
screen,html.Screen,2_1_0_1_41,2022-05-02T10:23:37.900Z,,,,,,,,,,,,,,,,,53,,,,,,,,,,,,,,458.12099998808117,,response,,,,99,,,,,,,Space,keypress(Space),,,,,,,,---- -- ----- -- ------ - ------- --- ----------<br>------------- ------ ------ ---- ---- ------- ----- -- ----<br>-------- ------- -- ---------- --- - --- ----- ----- ----<br>---- --- --- ----- --- ---- ---- ------- ----- ---- -------<br>--- --- as ----- -- --- ---- -- --- ---- -- ------ ------<br>--- ----- -- ----,162152.69999998808,162152.19999998808,161658.394,161673.59999996424,161694.079,162157.487,,41,as
screen,html.Screen,2_1_0_1_42,2022-05-02T10:23:38.389Z,,,,,,,,,,,,,,,,,53,,,,,,,,,,,,,,483.21299998808536,,response,,,,99,,,,,,,Space,keypress(Space),,,,,,,,---- -- ----- -- ------ - ------- --- ----------<br>------------- ------ ------ ---- ---- ------- ----- -- ----<br>-------- ------- -- ---------- --- - --- ----- ----- ----<br>---- --- --- ----- --- ---- ---- ------- ----- ---- -------<br>--- --- -- close -- --- ---- -- --- ---- -- ------ ------<br>--- ----- -- ----,162641.09999996424,162640.69999998808,162141.225,162152.79999995232,162157.487,162657.046,,42,close
screen,html.Screen,2_1_0_1_43,2022-05-02T10:23:38.812Z,,,,,,,,,,,,,,,,,53,,,,,,,,,,,,,,406.5539999642351,,response,,,,99,,,,,,,Space,keypress(Space),,,,,,,,---- -- ----- -- ------ - ------- --- ----------<br>------------- ------ ------ ---- ---- ------- ----- -- ----<br>-------- ------- -- ---------- --- - --- ----- ----- ----<br>---- --- --- ----- --- ---- ---- ------- ----- ---- -------<br>--- --- -- ----- as --- ---- -- --- ---- -- ------ ------<br>--- ----- -- ----,163064.09999996424,163063.59999996424,162640.797,162641.29999995232,162657.046,163073.305,,43,as
screen,html.Screen,2_1_0_1_44,2022-05-02T10:23:39.239Z,,,,,,,,,,,,,,,,,53,,,,,,,,,,,,,,417.49499995232327,,response,,,,99,,,,,,,Space,keypress(Space),,,,,,,,---- -- ----- -- ------ - ------- --- ----------<br>------------- ------ ------ ---- ---- ------- ----- -- ----<br>-------- ------- -- ---------- --- - --- ----- ----- ----<br>---- --- --- ----- --- ---- ---- ------- ----- ---- -------<br>--- --- -- ----- -- you ---- -- --- ---- -- ------ ------<br>--- ----- -- ----,163491.19999998808,163490.79999995232,163056.997,163064.19999998808,163073.305,163506.247,,44,you
screen,html.Screen,2_1_0_1_45,2022-05-02T10:23:39.707Z,,,,,,,,,,,,,,,,,53,,,,,,,,,,,,,,453.1529999761551,,response,,,,99,,,,,,,Space,keypress(Space),,,,,,,,---- -- ----- -- ------ - ------- --- ----------<br>------------- ------ ------ ---- ---- ------- ----- -- ----<br>-------- ------- -- ---------- --- - --- ----- ----- ----<br>---- --- --- ----- --- ---- ---- ------- ----- ---- -------<br>--- --- -- ----- -- --- want -- --- ---- -- ------ ------<br>--- ----- -- ----,163959.79999995232,163959.39999997616,163489.935,163491.29999995232,163506.247,163972.47,,45,want
screen,html.Screen,2_1_0_1_46,2022-05-02T10:23:40.168Z,,,,,,,,,,,,,,,,,53,,,,,,,,,,,,,,447.02999999999884,,response,,,,99,,,,,,,Space,keypress(Space),,,,,,,,---- -- ----- -- ------ - ------- --- ----------<br>------------- ------ ------ ---- ---- ------- ----- -- ----<br>-------- ------- -- ---------- --- - --- ----- ----- ----<br>---- --- --- ----- --- ---- ---- ------- ----- ---- -------<br>--- --- -- ----- -- --- ---- to --- ---- -- ------ ------<br>--- ----- -- ----,164419.89999997616,164419.5,163956.197,163959.89999997616,163972.47,164422.045,,46,to
screen,html.Screen,2_1_0_1_47,2022-05-02T10:23:40.866Z,,,,,,,,,,,,,,,,,53,,,,,,,,,,,,,,695.6549999880663,,response,,,,99,,,,,,,Space,keypress(Space),,,,,,,,"---- -- ----- -- ------ - ------- --- ----------<br>------------- ------ ------ ---- ---- ------- ----- -- ----<br>-------- ------- -- ---------- --- - --- ----- ----- ----<br>---- --- --- ----- --- ---- ---- ------- ----- ---- -------<br>--- --- -- ----- -- --- ---- -- be, ---- -- ------ ------<br>--- ----- -- ----",165118.09999996424,165117.69999998808,164405.747,164420.09999996424,164422.045,165121.384,,47,"be,"
screen,html.Screen,2_1_0_1_48,2022-05-02T10:23:41.250Z,,,,,,,,,,,,,,,,,53,,,,,,,,,,,,,,381.1160000000091,,response,,,,99,,,,,,,Space,keypress(Space),,,,,,,,---- -- ----- -- ------ - ------- --- ----------<br>------------- ------ ------ ---- ---- ------- ----- -- ----<br>-------- ------- -- ---------- --- - --- ----- ----- ----<br>---- --- --- ----- --- ---- ---- ------- ----- ---- -------<br>--- --- -- ----- -- --- ---- -- --- even -- ------ ------<br>--- ----- -- ----,165502.79999995232,165502.5,165105.319,165118.19999998808,165121.384,165504.369,,48,even
screen,html.Screen,2_1_0_1_49,2022-05-02T10:23:41.712Z,,,,,,,,,,,,,,,,,53,,,,,,,,,,,,,,459.63099999999395,,response,,,,99,,,,,,,Space,keypress(Space),,,,,,,,---- -- ----- -- ------ - ------- --- ----------<br>------------- ------ ------ ---- ---- ------- ----- -- ----<br>-------- ------- -- ---------- --- - --- ----- ----- ----<br>---- --- --- ----- --- ---- ---- ------- ----- ---- -------<br>--- --- -- ----- -- --- ---- -- --- ---- if ------ ------<br>--- ----- -- ----,165964.29999995232,165964,165487.981,165502.89999997616,165504.369,165970.569,,49,if
screen,html.Screen,2_1_0_1_50,2022-05-02T10:23:42.222Z,,,,,,,,,,,,,,,,,53,,,,,,,,,,,,,,502.9310000000114,,response,,,,99,,,,,,,Space,keypress(Space),,,,,,,,---- -- ----- -- ------ - ------- --- ----------<br>------------- ------ ------ ---- ---- ------- ----- -- ----<br>-------- ------- -- ---------- --- - --- ----- ----- ----<br>---- --- --- ----- --- ---- ---- ------- ----- ---- -------<br>--- --- -- ----- -- --- ---- -- --- ---- -- that's ------<br>--- ----- -- ----,166473.89999997616,166473.5,165954.292,165964.5,165970.569,166486.745,,50,that's
screen,html.Screen,2_1_0_1_51,2022-05-02T10:23:42.654Z,,,,,,,,,,,,,,,,,53,,,,,,,,,,,,,,418.9549999880837,,response,,,,99,,,,,,,Space,keypress(Space),,,,,,,,---- -- ----- -- ------ - ------- --- ----------<br>------------- ------ ------ ---- ---- ------- ----- -- ----<br>-------- ------- -- ---------- --- - --- ----- ----- ----<br>---- --- --- ----- --- ---- ---- ------- ----- ---- -------<br>--- --- -- ----- -- --- ---- -- --- ---- -- ------ really<br>--- ----- -- ----,166906,166905.69999998808,166470.536,166474,166486.745,166919.67,,51,really
screen,html.Screen,2_1_0_1_52,2022-05-02T10:23:43.159Z,,,,,,,,,,,,,,,,,53,,,,,,,,,,,,,,491.52999998806627,,response,,,,99,,,,,,,Space,keypress(Space),,,,,,,,---- -- ----- -- ------ - ------- --- ----------<br>------------- ------ ------ ---- ---- ------- ----- -- ----<br>-------- ------- -- ---------- --- - --- ----- ----- ----<br>---- --- --- ----- --- ---- ---- ------- ----- ---- -------<br>--- --- -- ----- -- --- ---- -- --- ---- -- ------ ------<br>not ----- -- ----,167411.69999998808,167411.19999998808,166903.391,166906.19999998808,166919.67,167419.193,,52,not
screen,html.Screen,2_1_0_1_53,2022-05-02T10:23:43.666Z,,,,,,,,,,,,,,,,,53,,,,,,,,,,,,,,499.00699998807977,,response,,,,99,,,,,,,Space,keypress(Space),,,,,,,,---- -- ----- -- ------ - ------- --- ----------<br>------------- ------ ------ ---- ---- ------- ----- -- ----<br>-------- ------- -- ---------- --- - --- ----- ----- ----<br>---- --- --- ----- --- ---- ---- ------- ----- ---- -------<br>--- --- -- ----- -- --- ---- -- --- ---- -- ------ ------<br>--- close -- ----,167918.69999998808,167918.19999998808,167402.952,167411.69999998808,167419.193,167935.388,,53,close
screen,html.Screen,2_1_0_1_54,2022-05-02T10:23:44.151Z,,,,,,,,,,,,,,,,,53,,,,,,,,,,,,,,467.41199995231,,response,,,,99,,,,,,,Space,keypress(Space),,,,,,,,---- -- ----- -- ------ - ------- --- ----------<br>------------- ------ ------ ---- ---- ------- ----- -- ----<br>-------- ------- -- ---------- --- - --- ----- ----- ----<br>---- --- --- ----- --- ---- ---- ------- ----- ---- -------<br>--- --- -- ----- -- --- ---- -- --- ---- -- ------ ------<br>--- ----- at ----,168403.19999998808,168402.79999995232,167902.504,167918.79999995232,167935.388,168418.263,,54,at
screen,html.Screen,2_1_0_1_55,2022-05-02T10:23:45.637Z,,,,,,,,,,,,,,,,,53,,,,,,,,,,,,,,1470.9369999880728,,response,,,,99,,,,,,,Space,keypress(Space),,,,,,,,---- -- ----- -- ------ - ------- --- ----------<br>------------- ------ ------ ---- ---- ------- ----- -- ----<br>-------- ------- -- ---------- --- - --- ----- ----- ----<br>---- --- --- ----- --- ---- ---- ------- ----- ---- -------<br>--- --- -- ----- -- --- ---- -- --- ---- -- ------ ------<br>--- ----- -- all.,169889.69999998808,169889.19999998808,168401.999,168403.29999995232,168418.263,169900.213,,55,all.
Item 99,flow.Loop,2_1_0_1,2022-05-02T10:23:45.637Z,,,,,,,,,,,,,,,,,,,,,,,,,,,,,,,32608.17899998807,,completion,,,,,E,,,,,,,,,,,silence,,,,,169889.79999995232,169889.19999998808,137264.374,137264.89999997616,137281.021,169900.213,,,
Question 1,html.Screen,2_1_0_2,2022-05-02T10:23:53.533Z,,,,,,,,,,,,,,,,,,,,,,,,,,,,true,FALSE,,7884.48699998809,,response,,,,99,E,,,,,,FALSE,click #choice-2,,,,silence,,,,,177785.39999997616,177784.69999998808,169884.829,169889.89999997616,169900.213,177792.761,,,
Question 2,html.Screen,2_1_0_3,2022-05-02T10:23:59.105Z,,,,,,,,,,,,,,,,,,,,,,,,,,,,true,TRUE,,5563.9389999880805,,response,,,,99,E,,,,,,TRUE,click #choice-1,,,,silence,,,,,183357.29999995232,183356.69999998808,177776.153,177785.5,177792.761,183370.887,,,
Item 99,flow.Sequence,2_1_0,2022-05-02T10:23:59.105Z,,,,,,,,,,,,,,,,,,,,,,,,,,,,,,,56082.871999988085,,completion,,,,,,,,,,,,,,,,,,,,,183357.5,183356.69999998808,127257.201,127271.69999998808,127273.828,183370.887,,,
Holding screen,html.Screen,2_1_1_0,2022-05-02T10:24:09.112Z,,,,,,,,,,,,,,,,,,,,,,,,,,,,,,,10007.113000000012,,timeout,,,,,,,,,,,,,,,,,,,,,193364.29999995232,193361.385,183354.329,183357.59999996424,183370.887,193378,,,
screen,html.Screen,2_1_1_1_0,2022-05-02T10:24:09.904Z,,,,,,,,,,,,,,,,,54,,,,,,,,,,,,,,778.3999999761581,,response,,,,100,,,,,,,Space,keypress(Space),,,,,,,,At --- ---- --- ------ ----- ------- ---- -- --- ------- --<br>------- ---------- ------ -- ----- -- ----- -- ---- ------<br>--- ----- --- --- ------ -------- ----- --- ------ ----- --<br>----- ----- ---------- --- --- ------ ------ ---- -- ------<br>------- --- ------ ----- --- ---- ------- -- ---- --- --<br>------- ------,194156.89999997616,194156.39999997616,193361.385,193364.5,193378,194160.618,,0,At
screen,html.Screen,2_1_1_1_1,2022-05-02T10:24:10.301Z,,,,,,,,,,,,,,,,,54,,,,,,,,,,,,,,392.0819999880914,,response,,,,100,,,,,,,Space,keypress(Space),,,,,,,,-- the ---- --- ------ ----- ------- ---- -- --- ------- --<br>------- ---------- ------ -- ----- -- ----- -- ---- ------<br>--- ----- --- --- ------ -------- ----- --- ------ ----- --<br>----- ----- ---------- --- --- ------ ------ ---- -- ------<br>------- --- ------ ----- --- ---- ------- -- ---- --- --<br>------- ------,194553.09999996424,194552.69999998808,194144.63,194156.89999997616,194160.618,194560.215,,1,the
screen,html.Screen,2_1_1_1_2,2022-05-02T10:24:10.828Z,,,,,,,,,,,,,,,,,54,,,,,,,,,,,,,,519.5849999523198,,response,,,,100,,,,,,,Space,keypress(Space),,,,,,,,-- --- time --- ------ ----- ------- ---- -- --- ------- --<br>------- ---------- ------ -- ----- -- ----- -- ---- ------<br>--- ----- --- --- ------ -------- ----- --- ------ ----- --<br>----- ----- ---------- --- --- ------ ------ ---- -- ------<br>------- --- ------ ----- --- ---- ------- -- ---- --- --<br>------- ------,195080.19999998808,195079.79999995232,194543.906,194553.19999998808,194560.215,195093.051,,2,time
screen,html.Screen,2_1_1_1_3,2022-05-02T10:24:11.215Z,,,,,,,,,,,,,,,,,54,,,,,,,,,,,,,,374.44899999999325,,response,,,,100,,,,,,,Space,keypress(Space),,,,,,,,-- --- ---- the ------ ----- ------- ---- -- --- ------- --<br>------- ---------- ------ -- ----- -- ----- -- ---- ------<br>--- ----- --- --- ------ -------- ----- --- ------ ----- --<br>----- ----- ---------- --- --- ------ ------ ---- -- ------<br>------- --- ------ ----- --- ---- ------- -- ---- --- --<br>------- ------,195467.89999997616,195467.5,195076.844,195080.29999995232,195093.051,195476.013,,3,the
screen,html.Screen,2_1_1_1_4,2022-05-02T10:24:11.766Z,,,,,,,,,,,,,,,,,54,,,,,,,,,,,,,,542.3869999761519,,response,,,,100,,,,,,,Space,keypress(Space),,,,,,,,-- --- ---- --- French ----- ------- ---- -- --- ------- --<br>------- ---------- ------ -- ----- -- ----- -- ---- ------<br>--- ----- --- --- ------ -------- ----- --- ------ ----- --<br>----- ----- ---------- --- --- ------ ------ ---- -- ------<br>------- --- ------ ----- --- ---- ------- -- ---- --- --<br>------- ------,196018.69999998808,196018.39999997616,195459.693,195468,195476.013,196025.496,,4,French
screen,html.Screen,2_1_1_1_5,2022-05-02T10:24:12.193Z,,,,,,,,,,,,,,,,,54,,,,,,,,,,,,,,419.1039999642235,,response,,,,100,,,,,,,Space,keypress(Space),,,,,,,,-- --- ---- --- ------ crown ------- ---- -- --- ------- --<br>------- ---------- ------ -- ----- -- ----- -- ---- ------<br>--- ----- --- --- ------ -------- ----- --- ------ ----- --<br>----- ----- ---------- --- --- ------ ------ ---- -- ------<br>------- --- ------ ----- --- ---- ------- -- ---- --- --<br>------- ------,196444.89999997616,196444.59999996424,196009.349,196018.89999997616,196025.496,196458.42,,5,crown
screen,html.Screen,2_1_1_1_6,2022-05-02T10:24:12.617Z,,,,,,,,,,,,,,,,,54,,,,,,,,,,,,,,410.27999998806627,,response,,,,100,,,,,,,Space,keypress(Space),,,,,,,,-- --- ---- --- ------ ----- secured ---- -- --- ------- --<br>------- ---------- ------ -- ----- -- ----- -- ---- ------<br>--- ----- --- --- ------ -------- ----- --- ------ ----- --<br>----- ----- ---------- --- --- ------ ------ ---- -- ------<br>------- --- ------ ----- --- ---- ------- -- ---- --- --<br>------- ------,196869,196868.69999998808,196442.144,196445,196458.42,196874.688,,6,secured
screen,html.Screen,2_1_1_1_7,2022-05-02T10:24:13.013Z,,,,,,,,,,,,,,,,,54,,,,,,,,,,,,,,390.7119999761635,,response,,,,100,,,,,,,Space,keypress(Space),,,,,,,,-- --- ---- --- ------ ----- ------- much -- --- ------- --<br>------- ---------- ------ -- ----- -- ----- -- ---- ------<br>--- ----- --- --- ------ -------- ----- --- ------ ----- --<br>----- ----- ---------- --- --- ------ ------ ---- -- ------<br>------- --- ------ ----- --- ---- ------- -- ---- --- --<br>------- ------,197265.79999995232,197265.39999997616,196858.394,196869.09999996424,196874.688,197274.325,,7,much
screen,html.Screen,2_1_1_1_8,2022-05-02T10:24:13.398Z,,,,,,,,,,,,,,,,,54,,,,,,,,,,,,,,375.7749999642256,,response,,,,100,,,,,,,Space,keypress(Space),,,,,,,,-- --- ---- --- ------ ----- ------- ---- of --- ------- --<br>------- ---------- ------ -- ----- -- ----- -- ---- ------<br>--- ----- --- --- ------ -------- ----- --- ------ ----- --<br>----- ----- ---------- --- --- ------ ------ ---- -- ------<br>------- --- ------ ----- --- ---- ------- -- ---- --- --<br>------- ------,197650.5,197650.09999996424,197257.985,197265.89999997616,197274.325,197657.285,,8,of
screen,html.Screen,2_1_1_1_9,2022-05-02T10:24:13.764Z,,,,,,,,,,,,,,,,,54,,,,,,,,,,,,,,358.9149999880756,,response,,,,100,,,,,,,Space,keypress(Space),,,,,,,,-- --- ---- --- ------ ----- ------- ---- -- its ------- --<br>------- ---------- ------ -- ----- -- ----- -- ---- ------<br>--- ----- --- --- ------ -------- ----- --- ------ ----- --<br>----- ----- ---------- --- --- ------ ------ ---- -- ------<br>------- --- ------ ----- --- ---- ------- -- ---- --- --<br>------- ------,198016.5,198016.19999998808,197640.964,197650.59999996424,197657.285,198023.609,,9,its
screen,html.Screen,2_1_1_1_10,2022-05-02T10:24:14.544Z,,,,,,,,,,,,,,,,,54,,,,,,,,,,,,,,772.7909999761614,,response,,,,100,,,,,,,Space,keypress(Space),,,,,,,,-- --- ---- --- ------ ----- ------- ---- -- --- revenue --<br>------- ---------- ------ -- ----- -- ----- -- ---- ------<br>--- ----- --- --- ------ -------- ----- --- ------ ----- --<br>----- ----- ---------- --- --- ------ ------ ---- -- ------<br>------- --- ------ ----- --- ---- ------- -- ---- --- --<br>------- ------,198796.79999995232,198796.39999997616,198007.263,198016.69999998808,198023.609,198806.224,,10,revenue
screen,html.Screen,2_1_1_1_11,2022-05-02T10:24:15.038Z,,,,,,,,,,,,,,,,,54,,,,,,,,,,,,,,483.8759999642498,,response,,,,100,,,,,,,Space,keypress(Space),,,,,,,,-- --- ---- --- ------ ----- ------- ---- -- --- ------- by<br>------- ---------- ------ -- ----- -- ----- -- ---- ------<br>--- ----- --- --- ------ -------- ----- --- ------ ----- --<br>----- ----- ---------- --- --- ------ ------ ---- -- ------<br>------- --- ------ ----- --- ---- ------- -- ---- --- --<br>------- ------,199290.59999996424,199290.09999996424,198789.84,198797,198806.224,199305.759,,11,by
screen,html.Screen,2_1_1_1_12,2022-05-02T10:24:15.502Z,,,,,,,,,,,,,,,,,54,,,,,,,,,,,,,,448.6409999761672,,response,,,,100,,,,,,,Space,keypress(Space),,,,,,,,-- --- ---- --- ------ ----- ------- ---- -- --- ------- --<br>issuing ---------- ------ -- ----- -- ----- -- ---- ------<br>--- ----- --- --- ------ -------- ----- --- ------ ----- --<br>----- ----- ---------- --- --- ------ ------ ---- -- ------<br>------- --- ------ ----- --- ---- ------- -- ---- --- --<br>------- ------,199754.79999995232,199754.39999997616,199289.5,199290.69999998808,199305.759,199776.185,,12,issuing
screen,html.Screen,2_1_1_1_13,2022-05-02T10:24:16.127Z,,,,,,,,,,,,,,,,,54,,,,,,,,,,,,,,602.7149999761605,,response,,,,100,,,,,,,Space,keypress(Space),,,,,,,,-- --- ---- --- ------ ----- ------- ---- -- --- ------- --<br>------- government ------ -- ----- -- ----- -- ---- ------<br>--- ----- --- --- ------ -------- ----- --- ------ ----- --<br>----- ----- ---------- --- --- ------ ------ ---- -- ------<br>------- --- ------ ----- --- ---- ------- -- ---- --- --<br>------- ------,200379.39999997616,200378.89999997616,199739.063,199754.79999995232,199776.185,200388.056,,13,government
screen,html.Screen,2_1_1_1_14,2022-05-02T10:24:17.251Z,,,,,,,,,,,,,,,,,54,,,,,,,,,,,,,,1114.9439999999886,,response,,,,100,,,,,,,Space,keypress(Space),,,,,,,,-- --- ---- --- ------ ----- ------- ---- -- --- ------- --<br>------- ---------- bonds. -- ----- -- ----- -- ---- ------<br>--- ----- --- --- ------ -------- ----- --- ------ ----- --<br>----- ----- ---------- --- --- ------ ------ ---- -- ------<br>------- --- ------ ----- --- ---- ------- -- ---- --- --<br>------- ------,201503.39999997616,201503,200371.905,200379.5,200388.056,201520.308,,14,bonds.
screen,html.Screen,2_1_1_1_15,2022-05-02T10:24:17.628Z,,,,,,,,,,,,,,,,,54,,,,,,,,,,,,,,359.8919999880891,,response,,,,100,,,,,,,Space,keypress(Space),,,,,,,,-- --- ---- --- ------ ----- ------- ---- -- --- ------- --<br>------- ---------- ------ In ----- -- ----- -- ---- ------<br>--- ----- --- --- ------ -------- ----- --- ------ ----- --<br>----- ----- ---------- --- --- ------ ------ ---- -- ------<br>------- --- ------ ----- --- ---- ------- -- ---- --- --<br>------- ------,201880.69999998808,201880.19999998808,201487.994,201503.5,201520.308,201886.625,,15,In
screen,html.Screen,2_1_1_1_16,2022-05-02T10:24:18.660Z,,,,,,,,,,,,,,,,,54,,,,,,,,,,,,,,1025.6749999523163,,response,,,,100,,,,,,,Space,keypress(Space),,,,,,,,"-- --- ---- --- ------ ----- ------- ---- -- --- ------- --<br>------- ---------- ------ -- 1727, -- ----- -- ---- ------<br>--- ----- --- --- ------ -------- ----- --- ------ ----- --<br>----- ----- ---------- --- --- ------ ------ ---- -- ------<br>------- --- ------ ----- --- ---- ------- -- ---- --- --<br>------- ------",202912.59999996424,202912.29999995232,201870.286,201880.69999998808,201886.625,202918.979,,16,"1727,"
screen,html.Screen,2_1_1_1_17,2022-05-02T10:24:19.188Z,,,,,,,,,,,,,,,,,54,,,,,,,,,,,,,,521.3209999523242,,response,,,,100,,,,,,,Space,keypress(Space),,,,,,,,-- --- ---- --- ------ ----- ------- ---- -- --- ------- --<br>------- ---------- ------ -- ----- in ----- -- ---- ------<br>--- ----- --- --- ------ -------- ----- --- ------ ----- --<br>----- ----- ---------- --- --- ------ ------ ---- -- ------<br>------- --- ------ ----- --- ---- ------- -- ---- --- --<br>------- ------,203440.79999995232,203440.29999995232,202903.224,202913.09999996424,202918.979,203451.836,,17,in
screen,html.Screen,2_1_1_1_18,2022-05-02T10:24:19.759Z,,,,,,,,,,,,,,,,,54,,,,,,,,,,,,,,559.3639999880688,,response,,,,100,,,,,,,Space,keypress(Space),,,,,,,,-- --- ---- --- ------ ----- ------- ---- -- --- ------- --<br>------- ---------- ------ -- ----- -- order -- ---- ------<br>--- ----- --- --- ------ -------- ----- --- ------ ----- --<br>----- ----- ---------- --- --- ------ ------ ---- -- ------<br>------- --- ------ ----- --- ---- ------- -- ---- --- --<br>------- ------,204011.59999996424,204011.19999998808,203435.631,203440.89999997616,203451.836,204017.945,,18,order
screen,html.Screen,2_1_1_1_19,2022-05-02T10:24:20.538Z,,,,,,,,,,,,,,,,,54,,,,,,,,,,,,,,772.4549999761512,,response,,,,100,,,,,,,Space,keypress(Space),,,,,,,,-- --- ---- --- ------ ----- ------- ---- -- --- ------- --<br>------- ---------- ------ -- ----- -- ----- to ---- ------<br>--- ----- --- --- ------ -------- ----- --- ------ ----- --<br>----- ----- ---------- --- --- ------ ------ ---- -- ------<br>------- --- ------ ----- --- ---- ------- -- ---- --- --<br>------- ------,204790.79999995232,204790.39999997616,204001.792,204011.69999998808,204017.945,204800.54,,19,to
screen,html.Screen,2_1_1_1_20,2022-05-02T10:24:20.957Z,,,,,,,,,,,,,,,,,54,,,,,,,,,,,,,,408.45999999999185,,response,,,,100,,,,,,,Space,keypress(Space),,,,,,,,-- --- ---- --- ------ ----- ------- ---- -- --- ------- --<br>------- ---------- ------ -- ----- -- ----- -- save ------<br>--- ----- --- --- ------ -------- ----- --- ------ ----- --<br>----- ----- ---------- --- --- ------ ------ ---- -- ------<br>------- --- ------ ----- --- ---- ------- -- ---- --- --<br>------- ------,205209.39999997616,205209,204784.59,204790.89999997616,204800.54,205216.812,,20,save
screen,html.Screen,2_1_1_1_21,2022-05-02T10:24:21.626Z,,,,,,,,,,,,,,,,,54,,,,,,,,,,,,,,661.1879999999946,,response,,,,100,,,,,,,Space,keypress(Space),,,,,,,,"-- --- ---- --- ------ ----- ------- ---- -- --- ------- --<br>------- ---------- ------ -- ----- -- ----- -- ---- money,<br>--- ----- --- --- ------ -------- ----- --- ------ ----- --<br>----- ----- ---------- --- --- ------ ------ ---- -- ------<br>------- --- ------ ----- --- ---- ------- -- ---- --- --<br>------- ------",205878.29999995232,205878,205200.525,205209.59999996424,205216.812,205882.847,,21,"money,"
screen,html.Screen,2_1_1_1_22,2022-05-02T10:24:22.206Z,,,,,,,,,,,,,,,,,54,,,,,,,,,,,,,,575.4529999523074,,response,,,,100,,,,,,,Space,keypress(Space),,,,,,,,-- --- ---- --- ------ ----- ------- ---- -- --- ------- --<br>------- ---------- ------ -- ----- -- ----- -- ---- ------<br>the ----- --- --- ------ -------- ----- --- ------ ----- --<br>----- ----- ---------- --- --- ------ ------ ---- -- ------<br>------- --- ------ ----- --- ---- ------- -- ---- --- --<br>------- ------,206458.79999995232,206458.29999995232,205866.77,205878.39999997616,205882.847,206465.627,,22,the
screen,html.Screen,2_1_1_1_23,2022-05-02T10:24:22.755Z,,,,,,,,,,,,,,,,,54,,,,,,,,,,,,,,541.4729999642295,,response,,,,100,,,,,,,Space,keypress(Space),,,,,,,,-- --- ---- --- ------ ----- ------- ---- -- --- ------- --<br>------- ---------- ------ -- ----- -- ----- -- ---- ------<br>--- state --- --- ------ -------- ----- --- ------ ----- --<br>----- ----- ---------- --- --- ------ ------ ---- -- ------<br>------- --- ------ ----- --- ---- ------- -- ---- --- --<br>------- ------,207007.5,207007.09999996424,206449.475,206459,206465.627,207015.124,,23,state
screen,html.Screen,2_1_1_1_24,2022-05-02T10:24:23.138Z,,,,,,,,,,,,,,,,,54,,,,,,,,,,,,,,374.8759999999893,,response,,,,100,,,,,,,Space,keypress(Space),,,,,,,,-- --- ---- --- ------ ----- ------- ---- -- --- ------- --<br>------- ---------- ------ -- ----- -- ----- -- ---- ------<br>--- ----- cut --- ------ -------- ----- --- ------ ----- --<br>----- ----- ---------- --- --- ------ ------ ---- -- ------<br>------- --- ------ ----- --- ---- ------- -- ---- --- --<br>------- ------,207390.5,207390,206998.929,207007.59999996424,207015.124,207398.079,,24,cut
screen,html.Screen,2_1_1_1_25,2022-05-02T10:24:23.545Z,,,,,,,,,,,,,,,,,54,,,,,,,,,,,,,,399.0209999642393,,response,,,,100,,,,,,,Space,keypress(Space),,,,,,,,-- --- ---- --- ------ ----- ------- ---- -- --- ------- --<br>------- ---------- ------ -- ----- -- ----- -- ---- ------<br>--- ----- --- the ------ -------- ----- --- ------ ----- --<br>----- ----- ---------- --- --- ------ ------ ---- -- ------<br>------- --- ------ ----- --- ---- ------- -- ---- --- --<br>------- ------,207797.39999997616,207797.09999996424,207381.771,207390.5,207398.079,207831.034,,25,the
screen,html.Screen,2_1_1_1_26,2022-05-02T10:24:24.326Z,,,,,,,,,,,,,,,,,54,,,,,,,,,,,,,,746.6659999880649,,response,,,,100,,,,,,,Space,keypress(Space),,,,,,,,-- --- ---- --- ------ ----- ------- ---- -- --- ------- --<br>------- ---------- ------ -- ----- -- ----- -- ---- ------<br>--- ----- --- --- bonds' -------- ----- --- ------ ----- --<br>----- ----- ---------- --- --- ------ ------ ---- -- ------<br>------- --- ------ ----- --- ---- ------- -- ---- --- --<br>------- ------,208578.19999998808,208577.69999998808,207814.382,207797.59999996424,207831.034,208580.352,,26,bonds'
screen,html.Screen,2_1_1_1_27,2022-05-02T10:24:24.901Z,,,,,,,,,,,,,,,,,54,,,,,,,,,,,,,,572.4479999523028,,response,,,,100,,,,,,,Space,keypress(Space),,,,,,,,-- --- ---- --- ------ ----- ------- ---- -- --- ------- --<br>------- ---------- ------ -- ----- -- ----- -- ---- ------<br>--- ----- --- --- ------ interest ----- --- ------ ----- --<br>----- ----- ---------- --- --- ------ ------ ---- -- ------<br>------- --- ------ ----- --- ---- ------- -- ---- --- --<br>------- ------,209153.29999995232,209152.79999995232,208564.286,208578.19999998808,208580.352,209163.087,,27,interest
screen,html.Screen,2_1_1_1_28,2022-05-02T10:24:25.827Z,,,,,,,,,,,,,,,,,54,,,,,,,,,,,,,,915.5129999642377,,response,,,,100,,,,,,,Space,keypress(Space),,,,,,,,-- --- ---- --- ------ ----- ------- ---- -- --- ------- --<br>------- ---------- ------ -- ----- -- ----- -- ---- ------<br>--- ----- --- --- ------ -------- rate. --- ------ ----- --<br>----- ----- ---------- --- --- ------ ------ ---- -- ------<br>------- --- ------ ----- --- ---- ------- -- ---- --- --<br>------- ------,210079,210078.59999996424,209146.935,209153.5,209163.087,210095.542,,28,rate.
screen,html.Screen,2_1_1_1_29,2022-05-02T10:24:26.250Z,,,,,,,,,,,,,,,,,54,,,,,,,,,,,,,,406.0579999642505,,response,,,,100,,,,,,,Space,keypress(Space),,,,,,,,-- --- ---- --- ------ ----- ------- ---- -- --- ------- --<br>------- ---------- ------ -- ----- -- ----- -- ---- ------<br>--- ----- --- --- ------ -------- ----- The ------ ----- --<br>----- ----- ---------- --- --- ------ ------ ---- -- ------<br>------- --- ------ ----- --- ---- ------- -- ---- --- --<br>------- ------,210502.09999996424,210501.59999996424,210063.056,210079,210095.542,210511.816,,29,The
screen,html.Screen,2_1_1_1_30,2022-05-02T10:24:26.734Z,,,,,,,,,,,,,,,,,54,,,,,,,,,,,,,,474.2839999642456,,response,,,,100,,,,,,,Space,keypress(Space),,,,,,,,-- --- ---- --- ------ ----- ------- ---- -- --- ------- --<br>------- ---------- ------ -- ----- -- ----- -- ---- ------<br>--- ----- --- --- ------ -------- ----- --- market ----- --<br>----- ----- ---------- --- --- ------ ------ ---- -- ------<br>------- --- ------ ----- --- ---- ------- -- ---- --- --<br>------- ------,210986.5,210986.09999996424,210495.508,210502.09999996424,210511.816,210994.684,,30,market
screen,html.Screen,2_1_1_1_31,2022-05-02T10:24:27.141Z,,,,,,,,,,,,,,,,,54,,,,,,,,,,,,,,398.5159999880707,,response,,,,100,,,,,,,Space,keypress(Space),,,,,,,,-- --- ---- --- ------ ----- ------- ---- -- --- ------- --<br>------- ---------- ------ -- ----- -- ----- -- ---- ------<br>--- ----- --- --- ------ -------- ----- --- ------ value --<br>----- ----- ---------- --- --- ------ ------ ---- -- ------<br>------- --- ------ ----- --- ---- ------- -- ---- --- --<br>------- ------,211393.59999996424,211393.19999998808,210978.46,210986.5,210994.684,211425.565,,31,value
screen,html.Screen,2_1_1_1_32,2022-05-02T10:24:27.600Z,,,,,,,,,,,,,,,,,54,,,,,,,,,,,,,,426.0349999642349,,response,,,,100,,,,,,,Space,keypress(Space),,,,,,,,-- --- ---- --- ------ ----- ------- ---- -- --- ------- --<br>------- ---------- ------ -- ----- -- ----- -- ---- ------<br>--- ----- --- --- ------ -------- ----- --- ------ ----- of<br>----- ----- ---------- --- --- ------ ------ ---- -- ------<br>------- --- ------ ----- --- ---- ------- -- ---- --- --<br>------- ------,211852,211851.59999996424,211377.982,211393.69999998808,211425.565,211860.539,,32,of
screen,html.Screen,2_1_1_1_33,2022-05-02T10:24:28.033Z,,,,,,,,,,,,,,,,,54,,,,,,,,,,,,,,423.96100000001024,,response,,,,100,,,,,,,Space,keypress(Space),,,,,,,,-- --- ---- --- ------ ----- ------- ---- -- --- ------- --<br>------- ---------- ------ -- ----- -- ----- -- ---- ------<br>--- ----- --- --- ------ -------- ----- --- ------ ----- --<br>these ----- ---------- --- --- ------ ------ ---- -- ------<br>------- --- ------ ----- --- ---- ------- -- ---- --- --<br>------- ------,212284.89999997616,212284.5,211844.258,211852.09999996424,211860.539,212293.483,,33,these
screen,html.Screen,2_1_1_1_34,2022-05-02T10:24:28.614Z,,,,,,,,,,,,,,,,,54,,,,,,,,,,,,,,572.4169999761507,,response,,,,100,,,,,,,Space,keypress(Space),,,,,,,,-- --- ---- --- ------ ----- ------- ---- -- --- ------- --<br>------- ---------- ------ -- ----- -- ----- -- ---- ------<br>--- ----- --- --- ------ -------- ----- --- ------ ----- --<br>----- bonds ---------- --- --- ------ ------ ---- -- ------<br>------- --- ------ ----- --- ---- ------- -- ---- --- --<br>------- ------,212866.29999995232,212865.89999997616,212277.178,212285,212293.483,212876.247,,34,bonds
screen,html.Screen,2_1_1_1_35,2022-05-02T10:24:29.881Z,,,,,,,,,,,,,,,,,54,,,,,,,,,,,,,,1257.0529999523133,,response,,,,100,,,,,,,Space,keypress(Space),,,,,,,,"-- --- ---- --- ------ ----- ------- ---- -- --- ------- --<br>------- ---------- ------ -- ----- -- ----- -- ---- ------<br>--- ----- --- --- ------ -------- ----- --- ------ ----- --<br>----- ----- plummeted, --- --- ------ ------ ---- -- ------<br>------- --- ------ ----- --- ---- ------- -- ---- --- --<br>------- ------",214133.79999995232,214133.29999995232,212860.069,212866.29999995232,212876.247,214141.718,,35,"plummeted,"
screen,html.Screen,2_1_1_1_36,2022-05-02T10:24:30.284Z,,,,,,,,,,,,,,,,,54,,,,,,,,,,,,,,394.5819999523228,,response,,,,100,,,,,,,Space,keypress(Space),,,,,,,,-- --- ---- --- ------ ----- ------- ---- -- --- ------- --<br>------- ---------- ------ -- ----- -- ----- -- ---- ------<br>--- ----- --- --- ------ -------- ----- --- ------ ----- --<br>----- ----- ---------- and --- ------ ------ ---- -- ------<br>------- --- ------ ----- --- ---- ------- -- ---- --- --<br>------- ------,214536.69999998808,214536.29999995232,214126.169,214133.79999995232,214141.718,214541.332,,36,and
screen,html.Screen,2_1_1_1_37,2022-05-02T10:24:30.778Z,,,,,,,,,,,,,,,,,54,,,,,,,,,,,,,,488.6680000000051,,response,,,,100,,,,,,,Space,keypress(Space),,,,,,,,-- --- ---- --- ------ ----- ------- ---- -- --- ------- --<br>------- ---------- ------ -- ----- -- ----- -- ---- ------<br>--- ----- --- --- ------ -------- ----- --- ------ ----- --<br>----- ----- ---------- --- the ------ ------ ---- -- ------<br>------- --- ------ ----- --- ---- ------- -- ---- --- --<br>------- ------,215030.39999997616,215030,214525.021,214536.79999995232,214541.332,215040.888,,37,the
screen,html.Screen,2_1_1_1_38,2022-05-02T10:24:31.312Z,,,,,,,,,,,,,,,,,54,,,,,,,,,,,,,,522.6119999999937,,response,,,,100,,,,,,,Space,keypress(Space),,,,,,,,-- --- ---- --- ------ ----- ------- ---- -- --- ------- --<br>------- ---------- ------ -- ----- -- ----- -- ---- ------<br>--- ----- --- --- ------ -------- ----- --- ------ ----- --<br>----- ----- ---------- --- --- market ------ ---- -- ------<br>------- --- ------ ----- --- ---- ------- -- ---- --- --<br>------- ------,215563.89999997616,215563.5,215024.674,215030.5,215040.888,215573.705,,38,market
screen,html.Screen,2_1_1_1_39,2022-05-02T10:24:31.752Z,,,,,,,,,,,,,,,,,54,,,,,,,,,,,,,,429.89499996425,,response,,,,100,,,,,,,Space,keypress(Space),,,,,,,,-- --- ---- --- ------ ----- ------- ---- -- --- ------- --<br>------- ---------- ------ -- ----- -- ----- -- ---- ------<br>--- ----- --- --- ------ -------- ----- --- ------ ----- --<br>----- ----- ---------- --- --- ------ became ---- -- ------<br>------- --- ------ ----- --- ---- ------- -- ---- --- --<br>------- ------,216004,216003.59999996424,215557.505,215564.09999996424,215573.705,216006.682,,39,became
screen,html.Screen,2_1_1_1_40,2022-05-02T10:24:32.168Z,,,,,,,,,,,,,,,,,54,,,,,,,,,,,,,,413.1179999523156,,response,,,,100,,,,,,,Space,keypress(Space),,,,,,,,-- --- ---- --- ------ ----- ------- ---- -- --- ------- --<br>------- ---------- ------ -- ----- -- ----- -- ---- ------<br>--- ----- --- --- ------ -------- ----- --- ------ ----- --<br>----- ----- ---------- --- --- ------ ------ wary -- ------<br>------- --- ------ ----- --- ---- ------- -- ---- --- --<br>------- ------,216420.19999998808,216419.79999995232,215990.366,216004.09999996424,216006.682,216422.901,,40,wary
screen,html.Screen,2_1_1_1_41,2022-05-02T10:24:32.562Z,,,,,,,,,,,,,,,,,54,,,,,,,,,,,,,,390.5989999999874,,response,,,,100,,,,,,,Space,keypress(Space),,,,,,,,-- --- ---- --- ------ ----- ------- ---- -- --- ------- --<br>------- ---------- ------ -- ----- -- ----- -- ---- ------<br>--- ----- --- --- ------ -------- ----- --- ------ ----- --<br>----- ----- ---------- --- --- ------ ------ ---- of ------<br>------- --- ------ ----- --- ---- ------- -- ---- --- --<br>------- ------,216814,216813.5,216406.575,216420.29999995232,216422.901,216822.522,,41,of
screen,html.Screen,2_1_1_1_42,2022-05-02T10:24:33.005Z,,,,,,,,,,,,,,,,,54,,,,,,,,,,,,,,434.17799998808187,,response,,,,100,,,,,,,Space,keypress(Space),,,,,,,,-- --- ---- --- ------ ----- ------- ---- -- --- ------- --<br>------- ---------- ------ -- ----- -- ----- -- ---- ------<br>--- ----- --- --- ------ -------- ----- --- ------ ----- --<br>----- ----- ---------- --- --- ------ ------ ---- -- French<br>------- --- ------ ----- --- ---- ------- -- ---- --- --<br>------- ------,217257.19999998808,217256.69999998808,216806.2,216814,216822.522,217272.101,,42,French
screen,html.Screen,2_1_1_1_43,2022-05-02T10:24:33.772Z,,,,,,,,,,,,,,,,,54,,,,,,,,,,,,,,752.298999976163,,response,,,,100,,,,,,,Space,keypress(Space),,,,,,,,-- --- ---- --- ------ ----- ------- ---- -- --- ------- --<br>------- ---------- ------ -- ----- -- ----- -- ---- ------<br>--- ----- --- --- ------ -------- ----- --- ------ ----- --<br>----- ----- ---------- --- --- ------ ------ ---- -- ------<br>credit. --- ------ ----- --- ---- ------- -- ---- --- --<br>------- ------,218024.89999997616,218024.39999997616,217255.823,217257.29999995232,217272.101,218038.057,,43,credit.
screen,html.Screen,2_1_1_1_44,2022-05-02T10:24:34.132Z,,,,,,,,,,,,,,,,,54,,,,,,,,,,,,,,346.4429999999993,,response,,,,100,,,,,,,Space,keypress(Space),,,,,,,,-- --- ---- --- ------ ----- ------- ---- -- --- ------- --<br>------- ---------- ------ -- ----- -- ----- -- ---- ------<br>--- ----- --- --- ------ -------- ----- --- ------ ----- --<br>----- ----- ---------- --- --- ------ ------ ---- -- ------<br>------- The ------ ----- --- ---- ------- -- ---- --- --<br>------- ------,218384.89999997616,218384.5,218022.042,218024.89999997616,218038.057,218387.717,,44,The
screen,html.Screen,2_1_1_1_45,2022-05-02T10:24:34.506Z,,,,,,,,,,,,,,,,,54,,,,,,,,,,,,,,369.9829999880749,,response,,,,100,,,,,,,Space,keypress(Space),,,,,,,,-- --- ---- --- ------ ----- ------- ---- -- --- ------- --<br>------- ---------- ------ -- ----- -- ----- -- ---- ------<br>--- ----- --- --- ------ -------- ----- --- ------ ----- --<br>----- ----- ---------- --- --- ------ ------ ---- -- ------<br>------- --- French ----- --- ---- ------- -- ---- --- --<br>------- ------,218758.09999996424,218757.69999998808,218371.366,218385,218387.717,218770.692,,45,French
screen,html.Screen,2_1_1_1_46,2022-05-02T10:24:34.878Z,,,,,,,,,,,,,,,,,54,,,,,,,,,,,,,,359.4079999642272,,response,,,,100,,,,,,,Space,keypress(Space),,,,,,,,-- --- ---- --- ------ ----- ------- ---- -- --- ------- --<br>------- ---------- ------ -- ----- -- ----- -- ---- ------<br>--- ----- --- --- ------ -------- ----- --- ------ ----- --<br>----- ----- ---------- --- --- ------ ------ ---- -- ------<br>------- --- ------ state --- ---- ------- -- ---- --- --<br>------- ------,219130.5,219130.09999996424,218754.35,218758.19999998808,218770.692,219136.998,,46,state
screen,html.Screen,2_1_1_1_47,2022-05-02T10:24:35.265Z,,,,,,,,,,,,,,,,,54,,,,,,,,,,,,,,380.5020000000077,,response,,,,100,,,,,,,Space,keypress(Space),,,,,,,,-- --- ---- --- ------ ----- ------- ---- -- --- ------- --<br>------- ---------- ------ -- ----- -- ----- -- ---- ------<br>--- ----- --- --- ------ -------- ----- --- ------ ----- --<br>----- ----- ---------- --- --- ------ ------ ---- -- ------<br>------- --- ------ ----- was ---- ------- -- ---- --- --<br>------- ------,219517.89999997616,219517.5,219120.645,219130.59999996424,219136.998,219519.997,,47,was
screen,html.Screen,2_1_1_1_48,2022-05-02T10:24:35.694Z,,,,,,,,,,,,,,,,,54,,,,,,,,,,,,,,425.6029999642342,,response,,,,100,,,,,,,Space,keypress(Space),,,,,,,,-- --- ---- --- ------ ----- ------- ---- -- --- ------- --<br>------- ---------- ------ -- ----- -- ----- -- ---- ------<br>--- ----- --- --- ------ -------- ----- --- ------ ----- --<br>----- ----- ---------- --- --- ------ ------ ---- -- ------<br>------- --- ------ ----- --- left ------- -- ---- --- --<br>------- ------,219946,219945.59999996424,219503.658,219518,219519.997,219952.89,,48,left
screen,html.Screen,2_1_1_1_49,2022-05-02T10:24:36.107Z,,,,,,,,,,,,,,,,,54,,,,,,,,,,,,,,405.60999999998603,,response,,,,100,,,,,,,Space,keypress(Space),,,,,,,,-- --- ---- --- ------ ----- ------- ---- -- --- ------- --<br>------- ---------- ------ -- ----- -- ----- -- ---- ------<br>--- ----- --- --- ------ -------- ----- --- ------ ----- --<br>----- ----- ---------- --- --- ------ ------ ---- -- ------<br>------- --- ------ ----- --- ---- without -- ---- --- --<br>------- ------,220359,220358.5,219936.619,219946.09999996424,219952.89,220369.204,,49,without
screen,html.Screen,2_1_1_1_50,2022-05-02T10:24:36.561Z,,,,,,,,,,,,,,,,,54,,,,,,,,,,,,,,443.49599998808117,,response,,,,100,,,,,,,Space,keypress(Space),,,,,,,,-- --- ---- --- ------ ----- ------- ---- -- --- ------- --<br>------- ---------- ------ -- ----- -- ----- -- ---- ------<br>--- ----- --- --- ------ -------- ----- --- ------ ----- --<br>----- ----- ---------- --- --- ------ ------ ---- -- ------<br>------- --- ------ ----- --- ---- ------- an ---- --- --<br>------- ------,220813,220812.69999998808,220352.853,220359.09999996424,220369.204,220818.734,,50,an
screen,html.Screen,2_1_1_1_51,2022-05-02T10:24:36.964Z,,,,,,,,,,,,,,,,,54,,,,,,,,,,,,,,396.96599998808233,,response,,,,100,,,,,,,Space,keypress(Space),,,,,,,,-- --- ---- --- ------ ----- ------- ---- -- --- ------- --<br>------- ---------- ------ -- ----- -- ----- -- ---- ------<br>--- ----- --- --- ------ -------- ----- --- ------ ----- --<br>----- ----- ---------- --- --- ------ ------ ---- -- ------<br>------- --- ------ ----- --- ---- ------- -- easy --- --<br>------- ------,221216.09999996424,221215.69999998808,220802.451,220813.09999996424,220818.734,221218.401,,51,easy
screen,html.Screen,2_1_1_1_52,2022-05-02T10:24:37.366Z,,,,,,,,,,,,,,,,,54,,,,,,,,,,,,,,399.2989999880665,,response,,,,100,,,,,,,Space,keypress(Space),,,,,,,,-- --- ---- --- ------ ----- ------- ---- -- --- ------- --<br>------- ---------- ------ -- ----- -- ----- -- ---- ------<br>--- ----- --- --- ------ -------- ----- --- ------ ----- --<br>----- ----- ---------- --- --- ------ ------ ---- -- ------<br>------- --- ------ ----- --- ---- ------- -- ---- way --<br>------- ------,221618,221617.69999998808,221202.053,221216.29999995232,221218.401,221634.651,,52,way
screen,html.Screen,2_1_1_1_53,2022-05-02T10:24:37.734Z,,,,,,,,,,,,,,,,,54,,,,,,,,,,,,,,351.5489999880665,,response,,,,100,,,,,,,Space,keypress(Space),,,,,,,,-- --- ---- --- ------ ----- ------- ---- -- --- ------- --<br>------- ---------- ------ -- ----- -- ----- -- ---- ------<br>--- ----- --- --- ------ -------- ----- --- ------ ----- --<br>----- ----- ---------- --- --- ------ ------ ---- -- ------<br>------- --- ------ ----- --- ---- ------- -- ---- --- of<br>------- ------,221986.69999998808,221986.19999998808,221618.347,221618.19999998808,221634.651,222000.987,,53,of
screen,html.Screen,2_1_1_1_54,2022-05-02T10:24:38.156Z,,,,,,,,,,,,,,,,,54,,,,,,,,,,,,,,407.31299995232257,,response,,,,100,,,,,,,Space,keypress(Space),,,,,,,,-- --- ---- --- ------ ----- ------- ---- -- --- ------- --<br>------- ---------- ------ -- ----- -- ----- -- ---- ------<br>--- ----- --- --- ------ -------- ----- --- ------ ----- --<br>----- ----- ---------- --- --- ------ ------ ---- -- ------<br>------- --- ------ ----- --- ---- ------- -- ---- --- --<br>raising ------,222408.69999998808,222408.29999995232,221984.605,221986.79999995232,222000.987,222417.226,,54,raising
screen,html.Screen,2_1_1_1_55,2022-05-02T10:24:39.729Z,,,,,,,,,,,,,,,,,54,,,,,,,,,,,,,,1563.473999988084,,response,,,,100,,,,,,,Space,keypress(Space),,,,,,,,-- --- ---- --- ------ ----- ------- ---- -- --- ------- --<br>------- ---------- ------ -- ----- -- ----- -- ---- ------<br>--- ----- --- --- ------ -------- ----- --- ------ ----- --<br>----- ----- ---------- --- --- ------ ------ ---- -- ------<br>------- --- ------ ----- --- ---- ------- -- ---- --- --<br>------- money.,223981.19999998808,223980.69999998808,222400.922,222408.79999995232,222417.226,224009.636,,55,money.
Item 100,flow.Loop,2_1_1_1,2022-05-02T10:24:39.729Z,,,,,,,,,,,,,,,,,,,,,,,,,,,,,,,30602.69999998808,,completion,,,,,E,,,,,,,,,,,silence,,,,,223981.39999997616,223980.69999998808,193361.385,193364.39999997616,193378,224009.636,,,
Question 1,html.Screen,2_1_1_2,2022-05-02T10:24:44.863Z,,,,,,,,,,,,,,,,,,,,,,,,,,,,true,TRUE,,5105.5639999880805,,response,,,,100,E,,,,,,TRUE,click #choice-1,,,,silence,,,,,229115.69999998808,229115.19999998808,223967.155,223981.39999997616,224009.636,229127.555,,,
Question 2,html.Screen,2_1_1_3,2022-05-02T10:24:48.659Z,,,,,,,,,,,,,,,,,,,,,,,,,,,,true,FALSE,,3783.445000000007,,response,,,,100,E,,,,,,FALSE,click #choice-2,,,,silence,,,,,232911.59999996424,232911,229110.967,229115.89999997616,229127.555,232924.015,,,
Item 100,flow.Sequence,2_1_1,2022-05-02T10:24:48.659Z,,,,,,,,,,,,,,,,,,,,,,,,,,,,,,,49540.11300000001,,completion,,,,,,,,,,,,,,,,,,,,,232911.69999998808,232911,183354.329,183357.5,183370.887,232924.015,,,
End of Practice,html.Page,2_1_2,2022-05-02T10:24:52.227Z,,,,,,,,,,,,,,,,,,,,,,,,,,,,,,,3555.2849999523023,,form submission,,,,,,,,,,,,,,,,,,,,,236479.5,236479.29999995232,232907.443,232911.79999995232,232924.015,236487.267,,,
Practice,flow.Sequence,2_1,2022-05-02T10:24:52.227Z,,,,,,,,,,,,,,,,,,,,,,,,,,,,,,,109205.47199995232,,completion,,,,,,,,,,,,,,,,,,,,,236479.69999998808,236479.29999995232,127257.201,127271.59999996424,127273.828,236487.267,,,
Trap_instruction,html.Page,2_2_0,2022-05-02T10:24:56.580Z,,,,,,,,,,,,,,,,,,,,,,,,,,,,,,,4344.832999964245,,form submission,,,,,,,,,,,,,,,,,,,,,240832.29999995232,240832.09999996424,236470.685,236479.79999995232,236487.267,240849.878,,,
trap_trial,html.Screen,2_2_1,2022-05-02T10:25:00.334Z,,,,,,,,,,,,,,,,,,,,,,,,,,,,true,1,,3735.4219999523193,,response,,,,,,,,,,,1,click #choice-1,,,,,,,,,244585.89999997616,244585.29999995232,240816.585,240832.39999997616,240849.878,244596.277,,,
end of trap trial,html.Page,2_2_2,2022-05-02T10:25:02.703Z,,,,,,,,,,,,,,,,,,,,,,,,,,,,,,,2358.922999988077,,form submission,,,,,,,,,,,,,,,,,,,,,246955.39999997616,246955.19999998808,244579.728,244586,244596.277,246960.703,,,
Trap 1,flow.Sequence,2_2,2022-05-02T10:25:02.703Z,,,,,,,,,,,,,,,,,,,,,,,,,,,,,,,10467.932999988087,,completion,,,,,,,,,,,,,,,,,,,,,246955.59999996424,246955.19999998808,236470.685,236479.79999995232,236487.267,246960.703,,,
Standby,html.Page,2_3_0,2022-05-02T10:25:10.685Z,,,,,,,,,,,,,,,,,,,,,,,,,,,,,,,7992.445999999996,,timeout,,,,,,,,,,,,,,,,,,,,,254937,254936.56,246944.12,246955.59999996424,246960.703,254953.149,,,
Holding screen,html.Screen,2_3_1_0_0,2022-05-02T10:25:17.678Z,,,,,,,,,,,,,,,,,,,,,,,,,,,,,,,6993.442999999999,,timeout,,,,,,,,,,,,,,,,,,,,,261930.29999995232,261929.918,254936.56,254937.19999998808,254953.149,261946.592,,,
screen,html.Screen,2_3_1_0_1_0,2022-05-02T10:25:18.882Z,,,,,,,,,,,,,,,,,19,,,,,,,,,,,,,,1187.1079999880749,,response,,,,17,E,,,,,,Space,keypress(Space),,,,silence,,,,"Interestingly, --- -------- -------- ---------- ---- -------<br>-- ---------- -- --- ----- ------ ----- ---- --------- ----<br>------- ------ -------- -- ------ ---------- ------ ---<br>------ -- -- ---- -- ---------- -------- ------ ---- -------<br>---- --- --------- ------- ----- --------- ---- ----- --<br>------ -------- -- ------ -- ---- ------------",263134.2999999523,263133.6999999881,261929.918,261930.5,261946.592,263145.428,,0,"Interestingly,"
screen,html.Screen,2_3_1_0_1_1,2022-05-02T10:25:19.442Z,,,,,,,,,,,,,,,,,19,,,,,,,,,,,,,,548.7719999880646,,response,,,,17,E,,,,,,Space,keypress(Space),,,,silence,,,,-------------- the -------- -------- ---------- ---- -------<br>-- ---------- -- --- ----- ------ ----- ---- --------- ----<br>------- ------ -------- -- ------ ---------- ------ ---<br>------ -- -- ---- -- ---------- -------- ------ ---- -------<br>---- --- --------- ------- ----- --------- ---- ----- --<br>------ -------- -- ------ -- ---- ------------,263694.59999996424,263694.1999999881,263129.838,263134.39999997616,263145.428,263711.559,,1,the
screen,html.Screen,2_3_1_0_1_2,2022-05-02T10:25:19.969Z,,,,,,,,,,,,,,,,,19,,,,,,,,,,,,,,509.54099996422883,,response,,,,17,E,,,,,,Space,keypress(Space),,,,silence,,,,-------------- --- heaviest -------- ---------- ---- -------<br>-- ---------- -- --- ----- ------ ----- ---- --------- ----<br>------- ------ -------- -- ------ ---------- ------ ---<br>------ -- -- ---- -- ---------- -------- ------ ---- -------<br>---- --- --------- ------- ----- --------- ---- ----- --<br>------ -------- -- ------ -- ---- ------------,264221.6999999881,264221.09999996424,263678.73,263694.6999999881,263711.559,264227.724,,2,heaviest
screen,html.Screen,2_3_1_0_1_3,2022-05-02T10:25:21.476Z,,,,,,,,,,,,,,,,,19,,,,,,,,,,,,,,1500.2760000000126,,response,,,,17,E,,,,,,Space,keypress(Space),,,,silence,,,,-------------- --- -------- isotopes ---------- ---- -------<br>-- ---------- -- --- ----- ------ ----- ---- --------- ----<br>------- ------ -------- -- ------ ---------- ------ ---<br>------ -- -- ---- -- ---------- -------- ------ ---- -------<br>---- --- --------- ------- ----- --------- ---- ----- --<br>------ -------- -- ------ -- ---- ------------,265728.39999997616,265728,264211.511,264221.7999999523,264227.724,265742.972,,3,isotopes
screen,html.Screen,2_3_1_0_1_4,2022-05-02T10:25:22.563Z,,,,,,,,,,,,,,,,,19,,,,,,,,,,,,,,1072.1279999642284,,response,,,,17,E,,,,,,Space,keypress(Space),,,,silence,,,,-------------- --- -------- -------- physicists ---- -------<br>-- ---------- -- --- ----- ------ ----- ---- --------- ----<br>------- ------ -------- -- ------ ---------- ------ ---<br>------ -- -- ---- -- ---------- -------- ------ ---- -------<br>---- --- --------- ------- ----- --------- ---- ----- --<br>------ -------- -- ------ -- ---- ------------,266815.59999996424,266815.09999996424,265727.652,265728.5,265742.972,266825.29,,4,physicists
screen,html.Screen,2_3_1_0_1_5,2022-05-02T10:25:22.902Z,,,,,,,,,,,,,,,,,19,,,,,,,,,,,,,,328.9099999881,,response,,,,17,E,,,,,,Space,keypress(Space),,,,silence,,,,-------------- --- -------- -------- ---------- have -------<br>-- ---------- -- --- ----- ------ ----- ---- --------- ----<br>------- ------ -------- -- ------ ---------- ------ ---<br>------ -- -- ---- -- ---------- -------- ------ ---- -------<br>---- --- --------- ------- ----- --------- ---- ----- --<br>------ -------- -- ------ -- ---- ------------,267154.59999996424,267154.1999999881,266809.583,266815.6999999881,266825.29,267158.321,,5,have
screen,html.Screen,2_3_1_0_1_6,2022-05-02T10:25:23.787Z,,,,,,,,,,,,,,,,,19,,,,,,,,,,,,,,880.3789999880828,,response,,,,17,E,,,,,,Space,keypress(Space),,,,silence,,,,-------------- --- -------- -------- ---------- ---- managed<br>-- ---------- -- --- ----- ------ ----- ---- --------- ----<br>------- ------ -------- -- ------ ---------- ------ ---<br>------ -- -- ---- -- ---------- -------- ------ ---- -------<br>---- --- --------- ------- ----- --------- ---- ----- --<br>------ -------- -- ------ -- ---- ------------,268039.1999999881,268038.6999999881,267141.913,267154.7999999523,267158.321,268040.841,,6,managed
screen,html.Screen,2_3_1_0_1_7,2022-05-02T10:25:24.200Z,,,,,,,,,,,,,,,,,19,,,,,,,,,,,,,,410.85899998806417,,response,,,,17,E,,,,,,Space,keypress(Space),,,,silence,,,,-------------- --- -------- -------- ---------- ---- -------<br>to ---------- -- --- ----- ------ ----- ---- --------- ----<br>------- ------ -------- -- ------ ---------- ------ ---<br>------ -- -- ---- -- ---------- -------- ------ ---- -------<br>---- --- --------- ------- ----- --------- ---- ----- --<br>------ -------- -- ------ -- ---- ------------,268452.1999999881,268451.6999999881,268024.927,268039.2999999523,268040.841,268457.083,,7,to
screen,html.Screen,2_3_1_0_1_8,2022-05-02T10:25:25.112Z,,,,,,,,,,,,,,,,,19,,,,,,,,,,,,,,906.4170000000158,,response,,,,17,E,,,,,,Space,keypress(Space),,,,silence,,,,-------------- --- -------- -------- ---------- ---- -------<br>-- synthesize -- --- ----- ------ ----- ---- --------- ----<br>------- ------ -------- -- ------ ---------- ------ ---<br>------ -- -- ---- -- ---------- -------- ------ ---- -------<br>---- --- --------- ------- ----- --------- ---- ----- --<br>------ -------- -- ------ -- ---- ------------,269363.89999997616,269363.5,268440.765,268452.2999999523,268457.083,269372.89,,8,synthesize
screen,html.Screen,2_3_1_0_1_9,2022-05-02T10:25:25.621Z,,,,,,,,,,,,,,,,,19,,,,,,,,,,,,,,499.5099999761442,,response,,,,17,E,,,,,,Space,keypress(Space),,,,silence,,,,-------------- --- -------- -------- ---------- ---- -------<br>-- ---------- so --- ----- ------ ----- ---- --------- ----<br>------- ------ -------- -- ------ ---------- ------ ---<br>------ -- -- ---- -- ---------- -------- ------ ---- -------<br>---- --- --------- ------- ----- --------- ---- ----- --<br>------ -------- -- ------ -- ---- ------------,269872.89999997616,269872.39999997616,269357.049,269364,269372.89,269889.102,,9,so
screen,html.Screen,2_3_1_0_1_10,2022-05-02T10:25:26.139Z,,,,,,,,,,,,,,,,,19,,,,,,,,,,,,,,501.8979999999865,,response,,,,17,E,,,,,,Space,keypress(Space),,,,silence,,,,-------------- --- -------- -------- ---------- ---- -------<br>-- ---------- -- far ----- ------ ----- ---- --------- ----<br>------- ------ -------- -- ------ ---------- ------ ---<br>------ -- -- ---- -- ---------- -------- ------ ---- -------<br>---- --- --------- ------- ----- --------- ---- ----- --<br>------ -------- -- ------ -- ---- ------------,270391.59999996424,270391,269872.843,269872.89999997616,269889.102,270405.233,,10,far
screen,html.Screen,2_3_1_0_1_11,2022-05-02T10:25:26.664Z,,,,,,,,,,,,,,,,,19,,,,,,,,,,,,,,510.6669999761507,,response,,,,17,E,,,,,,Space,keypress(Space),,,,silence,,,,-------------- --- -------- -------- ---------- ---- -------<br>-- ---------- -- --- don't ------ ----- ---- --------- ----<br>------- ------ -------- -- ------ ---------- ------ ---<br>------ -- -- ---- -- ---------- -------- ------ ---- -------<br>---- --- --------- ------- ----- --------- ---- ----- --<br>------ -------- -- ------ -- ---- ------------,270916.1999999881,270915.89999997616,270389.018,270391.59999996424,270405.233,270921.402,,11,don't
screen,html.Screen,2_3_1_0_1_12,2022-05-02T10:25:27.519Z,,,,,,,,,,,,,,,,,19,,,,,,,,,,,,,,849.5979999999981,,response,,,,17,E,,,,,,Space,keypress(Space),,,,silence,,,,-------------- --- -------- -------- ---------- ---- -------<br>-- ---------- -- --- ----- behave ----- ---- --------- ----<br>------- ------ -------- -- ------ ---------- ------ ---<br>------ -- -- ---- -- ---------- -------- ------ ---- -------<br>---- --- --------- ------- ----- --------- ---- ----- --<br>------ -------- -- ------ -- ---- ------------,271771.5,271771,270905.18,270916.2999999523,270921.402,271787.257,,12,behave
screen,html.Screen,2_3_1_0_1_13,2022-05-02T10:25:28.013Z,,,,,,,,,,,,,,,,,19,,,,,,,,,,,,,,477.54299995233305,,response,,,,17,E,,,,,,Space,keypress(Space),,,,silence,,,,-------------- --- -------- -------- ---------- ---- -------<br>-- ---------- -- --- ----- ------ quite ---- --------- ----<br>------- ------ -------- -- ------ ---------- ------ ---<br>------ -- -- ---- -- ---------- -------- ------ ---- -------<br>---- --- --------- ------- ----- --------- ---- ----- --<br>------ -------- -- ------ -- ---- ------------,272265.1999999881,272264.7999999523,271771.385,271771.59999996424,271787.257,272270.122,,13,quite
screen,html.Screen,2_3_1_0_1_14,2022-05-02T10:25:28.426Z,,,,,,,,,,,,,,,,,19,,,,,,,,,,,,,,407.4779999642633,,response,,,,17,E,,,,,,Space,keypress(Space),,,,silence,,,,-------------- --- -------- -------- ---------- ---- -------<br>-- ---------- -- --- ----- ------ ----- like --------- ----<br>------- ------ -------- -- ------ ---------- ------ ---<br>------ -- -- ---- -- ---------- -------- ------ ---- -------<br>---- --- --------- ------- ----- --------- ---- ----- --<br>------ -------- -- ------ -- ---- ------------,272678,272677.59999996424,272253.895,272265.2999999523,272270.122,272686.443,,14,like
screen,html.Screen,2_3_1_0_1_15,2022-05-02T10:25:28.860Z,,,,,,,,,,,,,,,,,19,,,,,,,,,,,,,,425.3569999522879,,response,,,,17,E,,,,,,Space,keypress(Space),,,,silence,,,,-------------- --- -------- -------- ---------- ---- -------<br>-- ---------- -- --- ----- ------ ----- ---- science's ----<br>------- ------ -------- -- ------ ---------- ------ ---<br>------ -- -- ---- -- ---------- -------- ------ ---- -------<br>---- --- --------- ------- ----- --------- ---- ----- --<br>------ -------- -- ------ -- ---- ------------,273112.2999999523,273111.7999999523,272670.124,272678.09999996424,272686.443,273119.337,,15,science's
screen,html.Screen,2_3_1_0_1_16,2022-05-02T10:25:29.323Z,,,,,,,,,,,,,,,,,19,,,,,,,,,,,,,,455.86299998807954,,response,,,,17,E,,,,,,Space,keypress(Space),,,,silence,,,,-------------- --- -------- -------- ---------- ---- -------<br>-- ---------- -- --- ----- ------ ----- ---- --------- best<br>------- ------ -------- -- ------ ---------- ------ ---<br>------ -- -- ---- -- ---------- -------- ------ ---- -------<br>---- --- --------- ------- ----- --------- ---- ----- --<br>------ -------- -- ------ -- ---- ------------,273575.5,273575.1999999881,273103.052,273112.2999999523,273119.337,273585.557,,16,best
screen,html.Screen,2_3_1_0_1_17,2022-05-02T10:25:29.828Z,,,,,,,,,,,,,,,,,19,,,,,,,,,,,,,,494.0429999642656,,response,,,,17,E,,,,,,Space,keypress(Space),,,,silence,,,,-------------- --- -------- -------- ---------- ---- -------<br>-- ---------- -- --- ----- ------ ----- ---- --------- ----<br>current ------ -------- -- ------ ---------- ------ ---<br>------ -- -- ---- -- ---------- -------- ------ ---- -------<br>---- --- --------- ------- ----- --------- ---- ----- --<br>------ -------- -- ------ -- ---- ------------,274080,274079.59999996424,273569.305,273575.59999996424,273585.557,274085.079,,17,current
screen,html.Screen,2_3_1_0_1_18,2022-05-02T10:25:30.810Z,,,,,,,,,,,,,,,,,19,,,,,,,,,,,,,,976.6209999880521,,response,,,,17,E,,,,,,Space,keypress(Space),,,,silence,,,,-------------- --- -------- -------- ---------- ---- -------<br>-- ---------- -- --- ----- ------ ----- ---- --------- ----<br>------- models -------- -- ------ ---------- ------ ---<br>------ -- -- ---- -- ---------- -------- ------ ---- -------<br>---- --- --------- ------- ----- --------- ---- ----- --<br>------ -------- -- ------ -- ---- ------------,275062.09999996424,275061.6999999881,274068.848,274080.09999996424,274085.079,275067.485,,18,models
screen,html.Screen,2_3_1_0_1_19,2022-05-02T10:25:31.916Z,,,,,,,,,,,,,,,,,19,,,,,,,,,,,,,,1100.414999976172,,response,,,,17,E,,,,,,Space,keypress(Space),,,,silence,,,,"-------------- --- -------- -------- ---------- ---- -------<br>-- ---------- -- --- ----- ------ ----- ---- --------- ----<br>------- ------ predict, -- ------ ---------- ------ ---<br>------ -- -- ---- -- ---------- -------- ------ ---- -------<br>---- --- --------- ------- ----- --------- ---- ----- --<br>------ -------- -- ------ -- ---- ------------",276168.2999999523,276167.89999997616,275051.703,275062.09999996424,275067.485,276183.127,,19,"predict,"
screen,html.Screen,2_3_1_0_1_20,2022-05-02T10:25:32.466Z,,,,,,,,,,,,,,,,,19,,,,,,,,,,,,,,534.5729999881005,,response,,,,17,E,,,,,,Space,keypress(Space),,,,silence,,,,-------------- --- -------- -------- ---------- ---- -------<br>-- ---------- -- --- ----- ------ ----- ---- --------- ----<br>------- ------ -------- so ------ ---------- ------ ---<br>------ -- -- ---- -- ---------- -------- ------ ---- -------<br>---- --- --------- ------- ----- --------- ---- ----- --<br>------ -------- -- ------ -- ---- ------------,276718.1999999881,276717.6999999881,276167.445,276168.39999997616,276183.127,276732.606,,20,so
screen,html.Screen,2_3_1_0_1_21,2022-05-02T10:25:33.014Z,,,,,,,,,,,,,,,,,19,,,,,,,,,,,,,,533.0939999880502,,response,,,,17,E,,,,,,Space,keypress(Space),,,,silence,,,,-------------- --- -------- -------- ---------- ---- -------<br>-- ---------- -- --- ----- ------ ----- ---- --------- ----<br>------- ------ -------- -- stable ---------- ------ ---<br>------ -- -- ---- -- ---------- -------- ------ ---- -------<br>---- --- --------- ------- ----- --------- ---- ----- --<br>------ -------- -- ------ -- ---- ------------,277266.1999999881,277265.6999999881,276716.421,276718.2999999523,276732.606,277282.084,,21,stable
screen,html.Screen,2_3_1_0_1_22,2022-05-02T10:25:33.710Z,,,,,,,,,,,,,,,,,19,,,,,,,,,,,,,,679.9160000000265,,response,,,,17,E,,,,,,Space,keypress(Space),,,,silence,,,,-------------- --- -------- -------- ---------- ---- -------<br>-- ---------- -- --- ----- ------ ----- ---- --------- ----<br>------- ------ -------- -- ------ superheavy ------ ---<br>------ -- -- ---- -- ---------- -------- ------ ---- -------<br>---- --- --------- ------- ----- --------- ---- ----- --<br>------ -------- -- ------ -- ---- ------------,277962.2999999523,277962,277265.887,277266.1999999881,277282.084,277964.791,,22,superheavy
screen,html.Screen,2_3_1_0_1_23,2022-05-02T10:25:35.267Z,,,,,,,,,,,,,,,,,19,,,,,,,,,,,,,,1554.2089999999735,,response,,,,17,E,,,,,,Space,keypress(Space),,,,silence,,,,-------------- --- -------- -------- ---------- ---- -------<br>-- ---------- -- --- ----- ------ ----- ---- --------- ----<br>------- ------ -------- -- ------ ---------- nuclei ---<br>------ -- -- ---- -- ---------- -------- ------ ---- -------<br>---- --- --------- ------- ----- --------- ---- ----- --<br>------ -------- -- ------ -- ---- ------------,279519.6999999881,279519,277948.709,277962.5,277964.791,279529.95,,23,nuclei
screen,html.Screen,2_3_1_0_1_24,2022-05-02T10:25:35.729Z,,,,,,,,,,,,,,,,,19,,,,,,,,,,,,,,450.9499999761465,,response,,,,17,E,,,,,,Space,keypress(Space),,,,silence,,,,-------------- --- -------- -------- ---------- ---- -------<br>-- ---------- -- --- ----- ------ ----- ---- --------- ----<br>------- ------ -------- -- ------ ---------- ------ are<br>------ -- -- ---- -- ---------- -------- ------ ---- -------<br>---- --- --------- ------- ----- --------- ---- ----- --<br>------ -------- -- ------ -- ---- ------------,279981.39999997616,279980.89999997616,279514.669,279519.7999999523,279529.95,279996.179,,24,are
screen,html.Screen,2_3_1_0_1_25,2022-05-02T10:25:36.167Z,,,,,,,,,,,,,,,,,19,,,,,,,,,,,,,,422.7209999761544,,response,,,,17,E,,,,,,Space,keypress(Space),,,,silence,,,,-------------- --- -------- -------- ---------- ---- -------<br>-- ---------- -- --- ----- ------ ----- ---- --------- ----<br>------- ------ -------- -- ------ ---------- ------ ---<br>likely -- -- ---- -- ---------- -------- ------ ---- -------<br>---- --- --------- ------- ----- --------- ---- ----- --<br>------ -------- -- ------ -- ---- ------------,280419.2999999523,280418.89999997616,279979.934,279981.39999997616,279996.179,280429.131,,25,likely
screen,html.Screen,2_3_1_0_1_26,2022-05-02T10:25:36.545Z,,,,,,,,,,,,,,,,,19,,,,,,,,,,,,,,368.16899995232234,,response,,,,17,E,,,,,,Space,keypress(Space),,,,silence,,,,-------------- --- -------- -------- ---------- ---- -------<br>-- ---------- -- --- ----- ------ ----- ---- --------- ----<br>------- ------ -------- -- ------ ---------- ------ ---<br>------ to -- ---- -- ---------- -------- ------ ---- -------<br>---- --- --------- ------- ----- --------- ---- ----- --<br>------ -------- -- ------ -- ---- ------------,280797.6999999881,280797.2999999523,280412.815,280419.2999999523,280429.131,280812.085,,26,to
screen,html.Screen,2_3_1_0_1_27,2022-05-02T10:25:36.953Z,,,,,,,,,,,,,,,,,19,,,,,,,,,,,,,,392.3149999761372,,response,,,,17,E,,,,,,Space,keypress(Space),,,,silence,,,,-------------- --- -------- -------- ---------- ---- -------<br>-- ---------- -- --- ----- ------ ----- ---- --------- ----<br>------- ------ -------- -- ------ ---------- ------ ---<br>------ -- be ---- -- ---------- -------- ------ ---- -------<br>---- --- --------- ------- ----- --------- ---- ----- --<br>------ -------- -- ------ -- ---- ------------,281204.7999999523,281204.39999997616,280795.744,280797.7999999523,280812.085,281211.688,,27,be
screen,html.Screen,2_3_1_0_1_28,2022-05-02T10:25:37.372Z,,,,,,,,,,,,,,,,,19,,,,,,,,,,,,,,412.61199995229254,,response,,,,17,E,,,,,,Space,keypress(Space),,,,silence,,,,-------------- --- -------- -------- ---------- ---- -------<br>-- ---------- -- --- ----- ------ ----- ---- --------- ----<br>------- ------ -------- -- ------ ---------- ------ ---<br>------ -- -- full -- ---------- -------- ------ ---- -------<br>---- --- --------- ------- ----- --------- ---- ----- --<br>------ -------- -- ------ -- ---- ------------,281624.59999996424,281624.2999999523,281195.376,281204.89999997616,281211.688,281627.968,,28,full
screen,html.Screen,2_3_1_0_1_29,2022-05-02T10:25:37.735Z,,,,,,,,,,,,,,,,,19,,,,,,,,,,,,,,358.93199997616466,,response,,,,17,E,,,,,,Space,keypress(Space),,,,silence,,,,-------------- --- -------- -------- ---------- ---- -------<br>-- ---------- -- --- ----- ------ ----- ---- --------- ----<br>------- ------ -------- -- ------ ---------- ------ ---<br>------ -- -- ---- of ---------- -------- ------ ---- -------<br>---- --- --------- ------- ----- --------- ---- ----- --<br>------ -------- -- ------ -- ---- ------------,281987.2999999523,281986.89999997616,281611.658,281624.6999999881,281627.968,281994.272,,29,of
screen,html.Screen,2_3_1_0_1_30,2022-05-02T10:25:38.932Z,,,,,,,,,,,,,,,,,19,,,,,,,,,,,,,,1189.4279999880819,,response,,,,17,E,,,,,,Space,keypress(Space),,,,silence,,,,-------------- --- -------- -------- ---------- ---- -------<br>-- ---------- -- --- ----- ------ ----- ---- --------- ----<br>------- ------ -------- -- ------ ---------- ------ ---<br>------ -- -- ---- -- surprises. -------- ------ ---- -------<br>---- --- --------- ------- ----- --------- ---- ----- --<br>------ -------- -- ------ -- ---- ------------,283184.1999999881,283183.6999999881,281977.928,281987.39999997616,281994.272,283193.162,,30,surprises.
screen,html.Screen,2_3_1_0_1_31,2022-05-02T10:25:39.537Z,,,,,,,,,,,,,,,,,19,,,,,,,,,,,,,,596.0379999880679,,response,,,,17,E,,,,,,Space,keypress(Space),,,,silence,,,,-------------- --- -------- -------- ---------- ---- -------<br>-- ---------- -- --- ----- ------ ----- ---- --------- ----<br>------- ------ -------- -- ------ ---------- ------ ---<br>------ -- -- ---- -- ---------- Chemists ------ ---- -------<br>---- --- --------- ------- ----- --------- ---- ----- --<br>------ -------- -- ------ -- ---- ------------,283789.6999999881,283789.1999999881,283177.556,283184.39999997616,283193.162,283792.591,,31,Chemists
screen,html.Screen,2_3_1_0_1_32,2022-05-02T10:25:39.949Z,,,,,,,,,,,,,,,,,19,,,,,,,,,,,,,,408.60899998806417,,response,,,,17,E,,,,,,Space,keypress(Space),,,,silence,,,,-------------- --- -------- -------- ---------- ---- -------<br>-- ---------- -- --- ----- ------ ----- ---- --------- ----<br>------- ------ -------- -- ------ ---------- ------ ---<br>------ -- -- ---- -- ---------- -------- cannot ---- -------<br>---- --- --------- ------- ----- --------- ---- ----- --<br>------ -------- -- ------ -- ---- ------------,284201.7999999523,284201.1999999881,283776.44,283789.7999999523,283792.591,284208.858,,32,cannot
screen,html.Screen,2_3_1_0_1_33,2022-05-02T10:25:40.407Z,,,,,,,,,,,,,,,,,19,,,,,,,,,,,,,,450.44199995230883,,response,,,,17,E,,,,,,Space,keypress(Space),,,,silence,,,,-------------- --- -------- -------- ---------- ---- -------<br>-- ---------- -- --- ----- ------ ----- ---- --------- ----<br>------- ------ -------- -- ------ ---------- ------ ---<br>------ -- -- ---- -- ---------- -------- ------ even -------<br>---- --- --------- ------- ----- --------- ---- ----- --<br>------ -------- -- ------ -- ---- ------------,284659.6999999881,284659.2999999523,284192.563,284201.89999997616,284208.858,284675.083,,33,even
screen,html.Screen,2_3_1_0_1_34,2022-05-02T10:25:40.965Z,,,,,,,,,,,,,,,,,19,,,,,,,,,,,,,,541.516999964253,,response,,,,17,E,,,,,,Space,keypress(Space),,,,silence,,,,-------------- --- -------- -------- ---------- ---- -------<br>-- ---------- -- --- ----- ------ ----- ---- --------- ----<br>------- ------ -------- -- ------ ---------- ------ ---<br>------ -- -- ---- -- ---------- -------- ------ ---- predict<br>---- --- --------- ------- ----- --------- ---- ----- --<br>------ -------- -- ------ -- ---- ------------,285217,285216.59999996424,284658.857,284659.89999997616,284675.083,285224.555,,34,predict
screen,html.Screen,2_3_1_0_1_35,2022-05-02T10:25:41.471Z,,,,,,,,,,,,,,,,,19,,,,,,,,,,,,,,498.5449999642442,,response,,,,17,E,,,,,,Space,keypress(Space),,,,silence,,,,-------------- --- -------- -------- ---------- ---- -------<br>-- ---------- -- --- ----- ------ ----- ---- --------- ----<br>------- ------ -------- -- ------ ---------- ------ ---<br>------ -- -- ---- -- ---------- -------- ------ ---- -------<br>with --- --------- ------- ----- --------- ---- ----- --<br>------ -------- -- ------ -- ---- ------------,285723.5,285723.09999996424,285208.384,285217.09999996424,285224.555,285756.225,,35,with
screen,html.Screen,2_3_1_0_1_36,2022-05-02T10:25:41.949Z,,,,,,,,,,,,,,,,,19,,,,,,,,,,,,,,444.57499995233957,,response,,,,17,E,,,,,,Space,keypress(Space),,,,silence,,,,-------------- --- -------- -------- ---------- ---- -------<br>-- ---------- -- --- ----- ------ ----- ---- --------- ----<br>------- ------ -------- -- ------ ---------- ------ ---<br>------ -- -- ---- -- ---------- -------- ------ ---- -------<br>---- any --------- ------- ----- --------- ---- ----- --<br>------ -------- -- ------ -- ---- ------------,286201.1999999881,286200.7999999523,285707.861,285723.5,285756.225,286206.967,,36,any
screen,html.Screen,2_3_1_0_1_37,2022-05-02T10:25:42.679Z,,,,,,,,,,,,,,,,,19,,,,,,,,,,,,,,723.932999976154,,response,,,,17,E,,,,,,Space,keypress(Space),,,,silence,,,,-------------- --- -------- -------- ---------- ---- -------<br>-- ---------- -- --- ----- ------ ----- ---- --------- ----<br>------- ------ -------- -- ------ ---------- ------ ---<br>------ -- -- ---- -- ---------- -------- ------ ---- -------<br>---- --- certainty ------- ----- --------- ---- ----- --<br>------ -------- -- ------ -- ---- ------------,286931.2999999523,286930.89999997616,286190.683,286201.2999999523,286206.967,286939.609,,37,certainty
screen,html.Screen,2_3_1_0_1_38,2022-05-02T10:25:43.230Z,,,,,,,,,,,,,,,,,19,,,,,,,,,,,,,,542.1909999523195,,response,,,,17,E,,,,,,Space,keypress(Space),,,,silence,,,,-------------- --- -------- -------- ---------- ---- -------<br>-- ---------- -- --- ----- ------ ----- ---- --------- ----<br>------- ------ -------- -- ------ ---------- ------ ---<br>------ -- -- ---- -- ---------- -------- ------ ---- -------<br>---- --- --------- whether ----- --------- ---- ----- --<br>------ -------- -- ------ -- ---- ------------,287482.2999999523,287481.7999999523,286923.607,286931.2999999523,286939.609,287489.12,,38,whether
screen,html.Screen,2_3_1_0_1_39,2022-05-02T10:25:43.681Z,,,,,,,,,,,,,,,,,19,,,,,,,,,,,,,,443.88000000000466,,response,,,,17,E,,,,,,Space,keypress(Space),,,,silence,,,,-------------- --- -------- -------- ---------- ---- -------<br>-- ---------- -- --- ----- ------ ----- ---- --------- ----<br>------- ------ -------- -- ------ ---------- ------ ---<br>------ -- -- ---- -- ---------- -------- ------ ---- -------<br>---- --- --------- ------- these --------- ---- ----- --<br>------ -------- -- ------ -- ---- ------------,287933.5,287933,287472.91,287482.39999997616,287489.12,287938.659,,39,these
