sender,sender_type,sender_id,timestamp,meta,,Blues,Classical,Country,Dance,Electronic,Folk,Gospel,Hip-Hop,Jazz,Latin,Musical/Film,New-age,Pop,Prolific_id,Provo_ID,R&B,Rap,Reggae,Religious,Rock,Soul,Swing,Traditional,age,artist_name,correct,correctResponse,distraction,duration,education,ended_on,familiarity,gender,headphone_check_performance,item,list,music_frequency,offensiveness,pleasantness,position_correct,preference,response,response_action,snippet_file,song_name,song_rating,sound,stimulus_1,stimulus_2,stimulus_3,text,time_commit,time_end,time_render,time_run,time_show,time_switch,url,word,word_ID
Prolific ID,html.Form,0,2022-05-03T11:22:38.730Z,"{""labjs_version"":""20.2.2"",""labjs_build"":{""flavor"":""production"",""commit"":""a25486e0c714a0ae2ce03ff94b7bb6896854dcfa""},""location"":""https://run.pavlovia.org/mvasilev/prolific3_music_h/"",""userAgent"":""Mozilla/5.0 (Windows NT 10.0; Win64; x64) AppleWebKit/537.36 (KHTML, like Gecko) Chrome/100.0.4896.127 Safari/537.36"",""platform"":""Win32"",""language"":""en-GB"",""locale"":""en-GB"",""timeZone"":""Europe/London"",""timezoneOffset"":-60,""screen_width"":1920,""screen_height"":1080,""scroll_width"":1920,""scroll_height"":921,""window_innerWidth"":1920,""window_innerHeight"":969,""devicePixelRatio"":1}",,,,,,,,,,,,,,,5c0822f550d77a000164d7ce,,,,,,,,,,,,,,,5568.639000000752,,form submission,,,,,,,,,,,,,,,,,,,,,79253.59999999776,79253.30000000075,73667.17,73672.30000000075,73684.661,79256.838,{},,
Introduction,html.Screen,1_0,2022-05-03T11:25:32.233Z,,,,,,,,,,,,,,,,,,,,,,,,,,,,,,,173499.162,,response,,,,,,,,,,,continue,click button,,,,,,,,,252757.69999999925,252756,79240.154,79253.80000000075,79256.838,252763.253,,,
Volume calibration,html.Screen,1_1,2022-05-03T11:25:47.778Z,,,,,,,,,,,,,,,,,,,,,,,,,,,,,,,15536.547000000748,,response,,,,,,,,,,,continue,click button,,,,,,,,,268302.59999999776,268299.80000000075,252746.769,252757.80000000075,252763.253,268312.119,,,
Task instructions,html.Screen,1_2,2022-05-03T11:25:56.664Z,,,,,,,,,,,,,,,,,,,,,,,,,,,,,,,8876.181000000739,,response,,,,,,,,,,,continue,click button,,,,,,,,,277188.80000000075,277188.30000000075,268295.436,268302.69999999925,268312.119,277204.338,,,
Sounds,html.Screen,1_3_0_0,2022-05-03T11:26:00.929Z,,,,,,,,,,,,,,,,,,,,,,,,,,,,,,,4254.232000000018,,timeout,,,,,,,,,2,,,,,,,,I,S,O,,281453.30000000075,281441.804,277187.815,277188.8999999985,277204.338,281458.57,,,
Judgement,html.Screen,1_3_0_1,2022-05-03T11:26:02.456Z,,,,,,,,,,,,,,,,,,,,,,,,,,,,true,2,,1521.0299999977578,,response,,,,,,,,,2,,2,click #choice-2,,,,,I,S,O,,282980.30000000075,282979.59999999776,281441.804,281453.3999999985,281458.57,282993.425,,,
Trial,flow.Sequence,1_3_0,2022-05-03T11:26:02.456Z,,,,,,,,,,,,,,,,,,,,,,,,,,,,,,,5775.261999997776,,completion,,,,,,,,,2,,,,,,,,I,S,O,,282980.30000000075,282979.59999999776,277187.815,277188.8999999985,277204.338,282993.425,,,
Sounds,html.Screen,1_3_1_0,2022-05-03T11:26:06.707Z,,,,,,,,,,,,,,,,,,,,,,,,,,,,,,,4254.244000000006,,timeout,,,,,,,,,1,,,,,,,,S,O,I,,287231.3999999985,287230.986,282976.746,282980.3999999985,282993.425,287247.669,,,
Judgement,html.Screen,1_3_1_1,2022-05-03T11:26:07.264Z,,,,,,,,,,,,,,,,,,,,,,,,,,,,true,1,,539.9309999977704,,response,,,,,,,,,1,,1,click #choice-1,,,,,S,O,I,,287788.19999999925,287787.59999999776,287230.986,287231.3999999985,287247.669,287798.162,,,
Trial,flow.Sequence,1_3_1,2022-05-03T11:26:07.264Z,,,,,,,,,,,,,,,,,,,,,,,,,,,,,,,4794.1749999977765,,completion,,,,,,,,,1,,,,,,,,S,O,I,,287788.3999999985,287787.59999999776,282976.746,282980.3999999985,282993.425,287798.162,,,
Sounds,html.Screen,1_3_2_0,2022-05-03T11:26:11.512Z,,,,,,,,,,,,,,,,,,,,,,,,,,,,,,,4254.254000000015,,timeout,,,,,,,,,2,,,,,,,,O,S,I,,292036.09999999776,292035.704,287781.455,287788.3999999985,287798.162,292052.416,,,
Judgement,html.Screen,1_3_2_1,2022-05-03T11:26:12.032Z,,,,,,,,,,,,,,,,,,,,,,,,,,,,true,2,,503.08399999997346,,response,,,,,,,,,2,,2,click #choice-2,,,,,O,S,I,,292556,292555.5,292035.704,292036.19999999925,292052.416,292569.594,,,
Trial,flow.Sequence,1_3_2,2022-05-03T11:26:12.032Z,,,,,,,,,,,,,,,,,,,,,,,,,,,,,,,4757.337999999989,,completion,,,,,,,,,2,,,,,,,,O,S,I,,292556.19999999925,292555.5,287781.455,287788.3999999985,287798.162,292569.594,,,
Sounds,html.Screen,1_3_3_0,2022-05-03T11:26:16.283Z,,,,,,,,,,,,,,,,,,,,,,,,,,,,,,,4254.237000000023,,timeout,,,,,,,,,1,,,,,,,,S,I,O,,296807.59999999776,296807.204,292552.906,292556.19999999925,292569.594,296823.831,,,
Judgement,html.Screen,1_3_3_1,2022-05-03T11:26:16.976Z,,,,,,,,,,,,,,,,,,,,,,,,,,,,true,1,,675.7689999977592,,response,,,,,,,,,1,,1,click #choice-1,,,,,S,I,O,,297500.19999999925,297499.59999999776,296807.204,296807.69999999925,296823.831,297507.934,,,
Trial,flow.Sequence,1_3_3,2022-05-03T11:26:16.976Z,,,,,,,,,,,,,,,,,,,,,,,,,,,,,,,4930.005999997782,,completion,,,,,,,,,1,,,,,,,,S,I,O,,297500.30000000075,297499.59999999776,292552.906,292556.19999999925,292569.594,297507.934,,,
Sounds,html.Screen,1_3_4_0,2022-05-03T11:26:21.221Z,,,,,,,,,,,,,,,,,,,,,,,,,,,,,,,4254.181999999972,,timeout,,,,,,,,,3,,,,,,,,O,I,S,,301745.80000000075,301745.415,297491.195,297500.30000000075,297507.934,301762.116,,,
Judgement,html.Screen,1_3_4_1,2022-05-03T11:26:21.624Z,,,,,,,,,,,,,,,,,,,,,,,,,,,,true,3,,385.48399999778485,,response,,,,,,,,,3,,3,click #choice-3,,,,,O,I,S,,302148,302147.59999999776,301745.415,301745.8999999985,301762.116,302162.546,,,
Trial,flow.Sequence,1_3_4,2022-05-03T11:26:21.624Z,,,,,,,,,,,,,,,,,,,,,,,,,,,,,,,4639.665999997756,,completion,,,,,,,,,3,,,,,,,,O,I,S,,302148,302147.59999999776,297491.195,297500.30000000075,297507.934,302162.546,,,
Sounds,html.Screen,1_3_5_0,2022-05-03T11:26:25.876Z,,,,,,,,,,,,,,,,,,,,,,,,,,,,,,,4254.201000000001,,timeout,,,,,,,,,3,,,,,,,,I,O,S,,306400.3999999985,306400.024,302145.784,302148.09999999776,302162.546,306416.747,,,
Judgement,html.Screen,1_3_5_1,2022-05-03T11:26:26.240Z,,,,,,,,,,,,,,,,,,,,,,,,,,,,true,3,,346.8529999977909,,response,,,,,,,,,3,,3,click #choice-3,,,,,I,O,S,,306764.19999999925,306763.59999999776,306400.024,306400.3999999985,306416.747,306767.096,,,
Trial,flow.Sequence,1_3_5,2022-05-03T11:26:26.240Z,,,,,,,,,,,,,,,,,,,,,,,,,,,,,,,4601.053999997792,,completion,,,,,,,,,3,,,,,,,,I,O,S,,306764.19999999925,306763.59999999776,302145.784,302148.09999999776,302162.546,306767.096,,,
Task,flow.Loop,1_3,2022-05-03T11:26:26.242Z,,,,,,,,,,,,,,,,,,,,,,,,,,,,,,,29559.261999997776,,completion,,,1,,,,,,,,,,,,,,,,,,306766.3999999985,306763.59999999776,277187.815,277188.80000000075,277204.338,306767.096,,,
Trap,html.Screen,1_4,2022-05-03T11:26:26.243Z,,,,,,,,,,,,,,,,,,,,,,,,,,,,,,,NaN,,skipped,,,,,,,,,,,,,,,,,,,,,306767,306763.59999999776,,306767,,306767.096,,,
Thanks,html.Screen,1_5,2022-05-03T11:26:28.552Z,,,,,,,,,,,,,,,,,,,,,,,,,,,,,,,2308.5039999977453,,response,,,,,,,,,,,continue,click button,,,,,,,,,309076.19999999925,309075.59999999776,306750.381,306767,306767.096,313423.779,,,
Headphone screening,flow.Sequence,1,2022-05-03T11:26:28.552Z,,,,,,,,,,,,,,,,,,,,,,,,,,,,,,,229818.76199999778,,completion,,,,,,,,,,,,,,,,,,,,,309076.30000000075,309075.59999999776,79240.154,79253.80000000075,79256.838,313423.779,,,
Instructions,html.Page,2_0,2022-05-03T11:26:44.624Z,,,,,,,,,,,,,,,,,,,,,,,,,,,,,,,11724.22100000002,,form submission,,,,,,,,,,,,,,,,,,,,,325148.09999999776,325148,313407.069,313424.19999999925,313423.779,325152.096,,,
Holding screen,html.Screen,2_1_0_0,2022-05-03T11:26:54.605Z,,,,,,,,,,,,,,,,,,,,,,,,,,,,,,,9993.27999999997,,timeout,,,,,,,,,,,,,,,,,,,,,335129.09999999776,335128.753,325135.405,325148.30000000075,325152.096,335145.376,,,
screen,html.Screen,2_1_0_1_0,2022-05-03T11:26:56.033Z,,,,,,,,,,,,,,,,,53,,,,,,,,,,,,,,1410.2239999977755,,response,,,,99,,,,,,,Space,keypress(Space),,,,,,,,When -- ----- -- ------ - ------- --- ----------<br>------------- ------ ------ ---- ---- ------- ----- -- ----<br>-------- ------- -- ---------- --- - --- ----- ----- ----<br>---- --- --- ----- --- ---- ---- ------- ----- ---- -------<br>--- --- -- ----- -- --- ---- -- --- ---- -- ------ ------<br>--- ----- -- ----,336557,336555.59999999776,335128.753,335129.19999999925,335145.376,336563.45,,0,When
screen,html.Screen,2_1_0_1_1,2022-05-03T11:26:56.425Z,,,,,,,,,,,,,,,,,53,,,,,,,,,,,,,,385.04999999998836,,response,,,,99,,,,,,,Space,keypress(Space),,,,,,,,---- it ----- -- ------ - ------- --- ----------<br>------------- ------ ------ ---- ---- ------- ----- -- ----<br>-------- ------- -- ---------- --- - --- ----- ----- ----<br>---- --- --- ----- --- ---- ---- ------- ----- ---- -------<br>--- --- -- ----- -- --- ---- -- --- ---- -- ------ ------<br>--- ----- -- ----,336949.3999999985,336948.5,336546.799,336557.09999999776,336563.45,336964.028,,1,it
screen,html.Screen,2_1_0_1_2,2022-05-03T11:26:56.833Z,,,,,,,,,,,,,,,,,53,,,,,,,,,,,,,,392.37199999851873,,response,,,,99,,,,,,,Space,keypress(Space),,,,,,,,---- -- comes -- ------ - ------- --- ----------<br>------------- ------ ------ ---- ---- ------- ----- -- ----<br>-------- ------- -- ---------- --- - --- ----- ----- ----<br>---- --- --- ----- --- ---- ---- ------- ----- ---- -------<br>--- --- -- ----- -- --- ---- -- --- ---- -- ------ ------<br>--- ----- -- ----,337357.19999999925,337356.3999999985,336947.153,336949.59999999776,336964.028,337364.359,,2,comes
screen,html.Screen,2_1_0_1_3,2022-05-03T11:26:57.208Z,,,,,,,,,,,,,,,,,53,,,,,,,,,,,,,,367.64100000000326,,response,,,,99,,,,,,,Space,keypress(Space),,,,,,,,---- -- ----- to ------ - ------- --- ----------<br>------------- ------ ------ ---- ---- ------- ----- -- ----<br>-------- ------- -- ---------- --- - --- ----- ----- ----<br>---- --- --- ----- --- ---- ---- ------- ----- ---- -------<br>--- --- -- ----- -- --- ---- -- --- ---- -- ------ ------<br>--- ----- -- ----,337732.30000000075,337732,337347.791,337357.3999999985,337364.359,337748.225,,3,to
screen,html.Screen,2_1_0_1_4,2022-05-03T11:26:57.712Z,,,,,,,,,,,,,,,,,53,,,,,,,,,,,,,,487.7750000000233,,response,,,,99,,,,,,,Space,keypress(Space),,,,,,,,---- -- ----- -- having - ------- --- ----------<br>------------- ------ ------ ---- ---- ------- ----- -- ----<br>-------- ------- -- ---------- --- - --- ----- ----- ----<br>---- --- --- ----- --- ---- ---- ------- ----- ---- -------<br>--- --- -- ----- -- --- ---- -- --- ---- -- ------ ------<br>--- ----- -- ----,338236.5,338236,337731.49,337732.3999999985,337748.225,338248.587,,4,having
screen,html.Screen,2_1_0_1_5,2022-05-03T11:26:58.056Z,,,,,,,,,,,,,,,,,53,,,,,,,,,,,,,,331.31299999851035,,response,,,,99,,,,,,,Space,keypress(Space),,,,,,,,---- -- ----- -- ------ a ------- --- ----------<br>------------- ------ ------ ---- ---- ------- ----- -- ----<br>-------- ------- -- ---------- --- - --- ----- ----- ----<br>---- --- --- ----- --- ---- ---- ------- ----- ---- -------<br>--- --- -- ----- -- --- ---- -- --- ---- -- ------ ------<br>--- ----- -- ----,338580.3999999985,338579.8999999985,338232.092,338236.59999999776,338248.587,338582.168,,5,a
screen,html.Screen,2_1_0_1_6,2022-05-03T11:26:58.600Z,,,,,,,,,,,,,,,,,53,,,,,,,,,,,,,,541.6320000007399,,response,,,,99,,,,,,,Space,keypress(Space),,,,,,,,---- -- ----- -- ------ - lasting --- ----------<br>------------- ------ ------ ---- ---- ------- ----- -- ----<br>-------- ------- -- ---------- --- - --- ----- ----- ----<br>---- --- --- ----- --- ---- ---- ------- ----- ---- -------<br>--- --- -- ----- -- --- ---- -- --- ---- -- ------ ------<br>--- ----- -- ----,339124.09999999776,339123.80000000075,338565.69,338580.3999999985,338582.168,339132.739,,6,lasting
screen,html.Screen,2_1_0_1_7,2022-05-03T11:26:58.985Z,,,,,,,,,,,,,,,,,53,,,,,,,,,,,,,,375.86099999776343,,response,,,,99,,,,,,,Space,keypress(Space),,,,,,,,---- -- ----- -- ------ - ------- and ----------<br>------------- ------ ------ ---- ---- ------- ----- -- ----<br>-------- ------- -- ---------- --- - --- ----- ----- ----<br>---- --- --- ----- --- ---- ---- ------- ----- ---- -------<br>--- --- -- ----- -- --- ---- -- --- ---- -- ------ ------<br>--- ----- -- ----,339509.30000000075,339508.59999999776,339116.058,339124.19999999925,339132.739,339516.474,,7,and
screen,html.Screen,2_1_0_1_8,2022-05-03T11:26:59.401Z,,,,,,,,,,,,,,,,,53,,,,,,,,,,,,,,408.0260000000126,,response,,,,99,,,,,,,Space,keypress(Space),,,,,,,,---- -- ----- -- ------ - ------- --- fulfilling<br>------------- ------ ------ ---- ---- ------- ----- -- ----<br>-------- ------- -- ---------- --- - --- ----- ----- ----<br>---- --- --- ----- --- ---- ---- ------- ----- ---- -------<br>--- --- -- ----- -- --- ---- -- --- ---- -- ------ ------<br>--- ----- -- ----,339925.30000000075,339924.5,339499.89,339509.59999999776,339516.474,339933.619,,8,fulfilling
screen,html.Screen,2_1_0_1_9,2022-05-03T11:26:59.736Z,,,,,,,,,,,,,,,,,53,,,,,,,,,,,,,,326.0809999992489,,response,,,,99,,,,,,,Space,keypress(Space),,,,,,,,"---- -- ----- -- ------ - ------- --- ----------<br>relationship, ------ ------ ---- ---- ------- ----- -- ----<br>-------- ------- -- ---------- --- - --- ----- ----- ----<br>---- --- --- ----- --- ---- ---- ------- ----- ---- -------<br>--- --- -- ----- -- --- ---- -- --- ---- -- ------ ------<br>--- ----- -- ----",340260.09999999776,340259.69999999925,339916.922,339925.5,339933.619,340267.179,,9,"relationship,"
screen,html.Screen,2_1_0_1_10,2022-05-03T11:27:00.122Z,,,,,,,,,,,,,,,,,53,,,,,,,,,,,,,,378.8209999999963,,response,,,,99,,,,,,,Space,keypress(Space),,,,,,,,---- -- ----- -- ------ - ------- --- ----------<br>------------- common ------ ---- ---- ------- ----- -- ----<br>-------- ------- -- ---------- --- - --- ----- ----- ----<br>---- --- --- ----- --- ---- ---- ------- ----- ---- -------<br>--- --- -- ----- -- --- ---- -- --- ---- -- ------ ------<br>--- ----- -- ----,340646.5,340646,340250.621,340260.19999999925,340267.179,340650.955,,10,common
screen,html.Screen,2_1_0_1_11,2022-05-03T11:27:00.345Z,,,,,,,,,,,,,,,,,53,,,,,,,,,,,,,,217.5449999999837,,response,,,,99,,,,,,,Space,keypress(Space),,,,,,,,---- -- ----- -- ------ - ------- --- ----------<br>------------- ------ wisdom ---- ---- ------- ----- -- ----<br>-------- ------- -- ---------- --- - --- ----- ----- ----<br>---- --- --- ----- --- ---- ---- ------- ----- ---- -------<br>--- --- -- ----- -- --- ---- -- --- ---- -- ------ ------<br>--- ----- -- ----,340869.30000000075,340868.5,340634.215,340646.59999999776,340650.955,340884.635,,11,wisdom
screen,html.Screen,2_1_0_1_12,2022-05-03T11:27:00.664Z,,,,,,,,,,,,,,,,,53,,,,,,,,,,,,,,303.06499999924563,,response,,,,99,,,,,,,Space,keypress(Space),,,,,,,,---- -- ----- -- ------ - ------- --- ----------<br>------------- ------ ------ says ---- ------- ----- -- ----<br>-------- ------- -- ---------- --- - --- ----- ----- ----<br>---- --- --- ----- --- ---- ---- ------- ----- ---- -------<br>--- --- -- ----- -- --- ---- -- --- ---- -- ------ ------<br>--- ----- -- ----,341188,341187.69999999925,340867.79,340869.5,340884.635,341201.421,,12,says
screen,html.Screen,2_1_0_1_13,2022-05-03T11:27:00.905Z,,,,,,,,,,,,,,,,,53,,,,,,,,,,,,,,227.079000000027,,response,,,,99,,,,,,,Space,keypress(Space),,,,,,,,---- -- ----- -- ------ - ------- --- ----------<br>------------- ------ ------ ---- that ------- ----- -- ----<br>-------- ------- -- ---------- --- - --- ----- ----- ----<br>---- --- --- ----- --- ---- ---- ------- ----- ---- -------<br>--- --- -- ----- -- --- ---- -- --- ---- -- ------ ------<br>--- ----- -- ----,341429.30000000075,341428.5,341184.852,341188.09999999776,341201.421,341435.102,,13,that
screen,html.Screen,2_1_0_1_14,2022-05-03T11:27:01.193Z,,,,,,,,,,,,,,,,,53,,,,,,,,,,,,,,281.2979999984964,,response,,,,99,,,,,,,Space,keypress(Space),,,,,,,,---- -- ----- -- ------ - ------- --- ----------<br>------------- ------ ------ ---- ---- feeling ----- -- ----<br>-------- ------- -- ---------- --- - --- ----- ----- ----<br>---- --- --- ----- --- ---- ---- ------- ----- ---- -------<br>--- --- -- ----- -- --- ---- -- --- ---- -- ------ ------<br>--- ----- -- ----,341717.19999999925,341716.3999999985,341418.585,341429.5,341435.102,341745.418,,14,feeling
screen,html.Screen,2_1_0_1_15,2022-05-03T11:27:01.505Z,,,,,,,,,,,,,,,,,53,,,,,,,,,,,,,,282.98199999850476,,response,,,,99,,,,,,,Space,keypress(Space),,,,,,,,---- -- ----- -- ------ - ------- --- ----------<br>------------- ------ ------ ---- ---- ------- close -- ----<br>-------- ------- -- ---------- --- - --- ----- ----- ----<br>---- --- --- ----- --- ---- ---- ------- ----- ---- -------<br>--- --- -- ----- -- --- ---- -- --- ---- -- ------ ------<br>--- ----- -- ----,342029.09999999776,342028.3999999985,341702.132,341717.3999999985,341745.418,342035.707,,15,close
screen,html.Screen,2_1_0_1_16,2022-05-03T11:27:01.770Z,,,,,,,,,,,,,,,,,53,,,,,,,,,,,,,,257.99299999926006,,response,,,,99,,,,,,,Space,keypress(Space),,,,,,,,---- -- ----- -- ------ - ------- --- ----------<br>------------- ------ ------ ---- ---- ------- ----- to ----<br>-------- ------- -- ---------- --- - --- ----- ----- ----<br>---- --- --- ----- --- ---- ---- ------- ----- ---- -------<br>--- --- -- ----- -- --- ---- -- --- ---- -- ------ ------<br>--- ----- -- ----,342294.3999999985,342293.69999999925,342019.039,342029.3999999985,342035.707,342302.627,,16,to
screen,html.Screen,2_1_0_1_17,2022-05-03T11:27:02.083Z,,,,,,,,,,,,,,,,,53,,,,,,,,,,,,,,303.57299999927636,,response,,,,99,,,,,,,Space,keypress(Space),,,,,,,,---- -- ----- -- ------ - ------- --- ----------<br>------------- ------ ------ ---- ---- ------- ----- -- your<br>-------- ------- -- ---------- --- - --- ----- ----- ----<br>---- --- --- ----- --- ---- ---- ------- ----- ---- -------<br>--- --- -- ----- -- --- ---- -- --- ---- -- ------ ------<br>--- ----- -- ----,342607,342606.19999999925,342286.1,342294.69999999925,342302.627,342619.54,,17,your
screen,html.Screen,2_1_0_1_18,2022-05-03T11:27:02.465Z,,,,,,,,,,,,,,,,,53,,,,,,,,,,,,,,368.85999999853084,,response,,,,99,,,,,,,Space,keypress(Space),,,,,,,,---- -- ----- -- ------ - ------- --- ----------<br>------------- ------ ------ ---- ---- ------- ----- -- ----<br>romantic ------- -- ---------- --- - --- ----- ----- ----<br>---- --- --- ----- --- ---- ---- ------- ----- ---- -------<br>--- --- -- ----- -- --- ---- -- --- ---- -- ------ ------<br>--- ----- -- ----,342989.19999999925,342988.3999999985,342603.039,342607.19999999925,342619.54,343003.255,,18,romantic
screen,html.Screen,2_1_0_1_19,2022-05-03T11:27:02.706Z,,,,,,,,,,,,,,,,,53,,,,,,,,,,,,,,226.74499999999534,,response,,,,99,,,,,,,Space,keypress(Space),,,,,,,,---- -- ----- -- ------ - ------- --- ----------<br>------------- ------ ------ ---- ---- ------- ----- -- ----<br>-------- partner -- ---------- --- - --- ----- ----- ----<br>---- --- --- ----- --- ---- ---- ------- ----- ---- -------<br>--- --- -- ----- -- --- ---- -- --- ---- -- ------ ------<br>--- ----- -- ----,343230.80000000075,343230,342986.734,342989.3999999985,343003.255,343236.847,,19,partner
screen,html.Screen,2_1_0_1_20,2022-05-03T11:27:02.976Z,,,,,,,,,,,,,,,,,53,,,,,,,,,,,,,,263.05299999850104,,response,,,,99,,,,,,,Space,keypress(Space),,,,,,,,---- -- ----- -- ------ - ------- --- ----------<br>------------- ------ ------ ---- ---- ------- ----- -- ----<br>-------- ------- is ---------- --- - --- ----- ----- ----<br>---- --- --- ----- --- ---- ---- ------- ----- ---- -------<br>--- --- -- ----- -- --- ---- -- --- ---- -- ------ ------<br>--- ----- -- ----,343500.19999999925,343499.8999999985,343220.177,343231,343236.847,343503.81,,20,is
screen,html.Screen,2_1_0_1_21,2022-05-03T11:27:03.216Z,,,,,,,,,,,,,,,,,53,,,,,,,,,,,,,,236.19000000000233,,response,,,,99,,,,,,,Space,keypress(Space),,,,,,,,---- -- ----- -- ------ - ------- --- ----------<br>------------- ------ ------ ---- ---- ------- ----- -- ----<br>-------- ------- -- paramount. --- - --- ----- ----- ----<br>---- --- --- ----- --- ---- ---- ------- ----- ---- -------<br>--- --- -- ----- -- --- ---- -- --- ---- -- ------ ------<br>--- ----- -- ----,343740.3999999985,343740,343487.338,343500.30000000075,343503.81,343754.03,,21,paramount.
screen,html.Screen,2_1_0_1_22,2022-05-03T11:27:03.417Z,,,,,,,,,,,,,,,,,53,,,,,,,,,,,,,,186.36999999848194,,response,,,,99,,,,,,,Space,keypress(Space),,,,,,,,---- -- ----- -- ------ - ------- --- ----------<br>------------- ------ ------ ---- ---- ------- ----- -- ----<br>-------- ------- -- ---------- But - --- ----- ----- ----<br>---- --- --- ----- --- ---- ---- ------- ----- ---- -------<br>--- --- -- ----- -- --- ---- -- --- ---- -- ------ ------<br>--- ----- -- ----,343941.09999999776,343940.3999999985,343737.51,343740.59999999776,343754.03,343954.398,,22,But
screen,html.Screen,2_1_0_1_23,2022-05-03T11:27:03.697Z,,,,,,,,,,,,,,,,,53,,,,,,,,,,,,,,266.0019999985234,,response,,,,99,,,,,,,Space,keypress(Space),,,,,,,,---- -- ----- -- ------ - ------- --- ----------<br>------------- ------ ------ ---- ---- ------- ----- -- ----<br>-------- ------- -- ---------- --- a --- ----- ----- ----<br>---- --- --- ----- --- ---- ---- ------- ----- ---- -------<br>--- --- -- ----- -- --- ---- -- --- ---- -- ------ ------<br>--- ----- -- ----,344221.19999999925,344220.3999999985,343937.697,343941.3999999985,343954.398,344237.845,,23,a
screen,html.Screen,2_1_0_1_24,2022-05-03T11:27:03.929Z,,,,,,,,,,,,,,,,,53,,,,,,,,,,,,,,214.65500000002794,,response,,,,99,,,,,,,Space,keypress(Space),,,,,,,,---- -- ----- -- ------ - ------- --- ----------<br>------------- ------ ------ ---- ---- ------- ----- -- ----<br>-------- ------- -- ---------- --- - new ----- ----- ----<br>---- --- --- ----- --- ---- ---- ------- ----- ---- -------<br>--- --- -- ----- -- --- ---- -- --- ---- -- ------ ------<br>--- ----- -- ----,344453.19999999925,344452.5,344221.255,344221.3999999985,344237.845,344473.712,,24,new
screen,html.Screen,2_1_0_1_25,2022-05-03T11:27:04.105Z,,,,,,,,,,,,,,,,,53,,,,,,,,,,,,,,154.78800000000047,,response,,,,99,,,,,,,Space,keypress(Space),,,,,,,,---- -- ----- -- ------ - ------- --- ----------<br>------------- ------ ------ ---- ---- ------- ----- -- ----<br>-------- ------- -- ---------- --- - --- study ----- ----<br>---- --- --- ----- --- ---- ---- ------- ----- ---- -------<br>--- --- -- ----- -- --- ---- -- --- ---- -- ------ ------<br>--- ----- -- ----,344629.19999999925,344628.5,344438.09,344453.3999999985,344473.712,344638.364,,25,study
screen,html.Screen,2_1_0_1_26,2022-05-03T11:27:04.577Z,,,,,,,,,,,,,,,,,53,,,,,,,,,,,,,,461.83599999925354,,response,,,,99,,,,,,,Space,keypress(Space),,,,,,,,---- -- ----- -- ------ - ------- --- ----------<br>------------- ------ ------ ---- ---- ------- ----- -- ----<br>-------- ------- -- ---------- --- - --- ----- finds ----<br>---- --- --- ----- --- ---- ---- ------- ----- ---- -------<br>--- --- -- ----- -- --- ---- -- --- ---- -- ------ ------<br>--- ----- -- ----,345101.09999999776,345100.19999999925,344621.596,344629.59999999776,344638.364,345105.401,,26,finds
screen,html.Screen,2_1_0_1_27,2022-05-03T11:27:04.963Z,,,,,,,,,,,,,,,,,53,,,,,,,,,,,,,,380.9989999984973,,response,,,,99,,,,,,,Space,keypress(Space),,,,,,,,---- -- ----- -- ------ - ------- --- ----------<br>------------- ------ ------ ---- ---- ------- ----- -- ----<br>-------- ------- -- ---------- --- - --- ----- ----- that<br>---- --- --- ----- --- ---- ---- ------- ----- ---- -------<br>--- --- -- ----- -- --- ---- -- --- ---- -- ------ ------<br>--- ----- -- ----,345487.09999999776,345486.3999999985,345088.881,345101.30000000075,345105.401,345489.118,,27,that
screen,html.Screen,2_1_0_1_28,2022-05-03T11:27:05.361Z,,,,,,,,,,,,,,,,,53,,,,,,,,,,,,,,395.1820000007283,,response,,,,99,,,,,,,Space,keypress(Space),,,,,,,,---- -- ----- -- ------ - ------- --- ----------<br>------------- ------ ------ ---- ---- ------- ----- -- ----<br>-------- ------- -- ---------- --- - --- ----- ----- ----<br>it's --- --- ----- --- ---- ---- ------- ----- ---- -------<br>--- --- -- ----- -- --- ---- -- --- ---- -- ------ ------<br>--- ----- -- ----,345885.09999999776,345884.30000000075,345472.439,345487.3999999985,345489.118,345889.484,,28,it's
screen,html.Screen,2_1_0_1_29,2022-05-03T11:27:05.560Z,,,,,,,,,,,,,,,,,53,,,,,,,,,,,,,,194.41599999851314,,response,,,,99,,,,,,,Space,keypress(Space),,,,,,,,---- -- ----- -- ------ - ------- --- ----------<br>------------- ------ ------ ---- ---- ------- ----- -- ----<br>-------- ------- -- ---------- --- - --- ----- ----- ----<br>---- not --- ----- --- ---- ---- ------- ----- ---- -------<br>--- --- -- ----- -- --- ---- -- --- ---- -- ------ ------<br>--- ----- -- ----,346084.30000000075,346083.8999999985,345873.015,345885.30000000075,345889.484,346089.698,,29,not
screen,html.Screen,2_1_0_1_30,2022-05-03T11:27:05.768Z,,,,,,,,,,,,,,,,,53,,,,,,,,,,,,,,202.5019999992801,,response,,,,99,,,,,,,Space,keypress(Space),,,,,,,,---- -- ----- -- ------ - ------- --- ----------<br>------------- ------ ------ ---- ---- ------- ----- -- ----<br>-------- ------- -- ---------- --- - --- ----- ----- ----<br>---- --- how ----- --- ---- ---- ------- ----- ---- -------<br>--- --- -- ----- -- --- ---- -- --- ---- -- ------ ------<br>--- ----- -- ----,346292.69999999925,346292.19999999925,346072.976,346084.3999999985,346089.698,346306.744,,30,how
screen,html.Screen,2_1_0_1_31,2022-05-03T11:27:05.984Z,,,,,,,,,,,,,,,,,53,,,,,,,,,,,,,,201.25599999999395,,response,,,,99,,,,,,,Space,keypress(Space),,,,,,,,---- -- ----- -- ------ - ------- --- ----------<br>------------- ------ ------ ---- ---- ------- ----- -- ----<br>-------- ------- -- ---------- --- - --- ----- ----- ----<br>---- --- --- close --- ---- ---- ------- ----- ---- -------<br>--- --- -- ----- -- --- ---- -- --- ---- -- ------ ------<br>--- ----- -- ----,346508.59999999776,346508,346289.892,346292.80000000075,346306.744,346523.701,,31,close
screen,html.Screen,2_1_0_1_32,2022-05-03T11:27:06.329Z,,,,,,,,,,,,,,,,,53,,,,,,,,,,,,,,329.19899999850895,,response,,,,99,,,,,,,Space,keypress(Space),,,,,,,,---- -- ----- -- ------ - ------- --- ----------<br>------------- ------ ------ ---- ---- ------- ----- -- ----<br>-------- ------- -- ---------- --- - --- ----- ----- ----<br>---- --- --- ----- you ---- ---- ------- ----- ---- -------<br>--- --- -- ----- -- --- ---- -- --- ---- -- ------ ------<br>--- ----- -- ----,346853.59999999776,346852.8999999985,346506.782,346508.69999999925,346523.701,346857.159,,32,you
screen,html.Screen,2_1_0_1_33,2022-05-03T11:27:06.528Z,,,,,,,,,,,,,,,,,53,,,,,,,,,,,,,,194.64100000075996,,response,,,,99,,,,,,,Space,keypress(Space),,,,,,,,---- -- ----- -- ------ - ------- --- ----------<br>------------- ------ ------ ---- ---- ------- ----- -- ----<br>-------- ------- -- ---------- --- - --- ----- ----- ----<br>---- --- --- ----- --- feel ---- ------- ----- ---- -------<br>--- --- -- ----- -- --- ---- -- --- ---- -- ------ ------<br>--- ----- -- ----,347052.09999999776,347051.80000000075,346840.505,346853.80000000075,346857.159,347057.351,,33,feel
screen,html.Screen,2_1_0_1_34,2022-05-03T11:27:06.729Z,,,,,,,,,,,,,,,,,53,,,,,,,,,,,,,,195.14899999997579,,response,,,,99,,,,,,,Space,keypress(Space),,,,,,,,---- -- ----- -- ------ - ------- --- ----------<br>------------- ------ ------ ---- ---- ------- ----- -- ----<br>-------- ------- -- ---------- --- - --- ----- ----- ----<br>---- --- --- ----- --- ---- that ------- ----- ---- -------<br>--- --- -- ----- -- --- ---- -- --- ---- -- ------ ------<br>--- ----- -- ----,347253.30000000075,347252.5,347040.823,347052.59999999776,347057.351,347257.516,,34,that
screen,html.Screen,2_1_0_1_35,2022-05-03T11:27:06.937Z,,,,,,,,,,,,,,,,,53,,,,,,,,,,,,,,202.98399999999674,,response,,,,99,,,,,,,Space,keypress(Space),,,,,,,,---- -- ----- -- ------ - ------- --- ----------<br>------------- ------ ------ ---- ---- ------- ----- -- ----<br>-------- ------- -- ---------- --- - --- ----- ----- ----<br>---- --- --- ----- --- ---- ---- matters ----- ---- -------<br>--- --- -- ----- -- --- ---- -- --- ---- -- ------ ------<br>--- ----- -- ----,347461.30000000075,347460.5,347240.848,347253.5,347257.516,347474.441,,35,matters
screen,html.Screen,2_1_0_1_36,2022-05-03T11:27:07.168Z,,,,,,,,,,,,,,,,,53,,,,,,,,,,,,,,217.45899999851827,,response,,,,99,,,,,,,Space,keypress(Space),,,,,,,,"---- -- ----- -- ------ - ------- --- ----------<br>------------- ------ ------ ---- ---- ------- ----- -- ----<br>-------- ------- -- ---------- --- - --- ----- ----- ----<br>---- --- --- ----- --- ---- ---- ------- most, ---- -------<br>--- --- -- ----- -- --- ---- -- --- ---- -- ------ ------<br>--- ----- -- ----",347692.19999999925,347691.8999999985,347457.773,347461.5,347474.441,347708.112,,36,"most,"
screen,html.Screen,2_1_0_1_37,2022-05-03T11:27:07.568Z,,,,,,,,,,,,,,,,,53,,,,,,,,,,,,,,383.68800000072224,,response,,,,99,,,,,,,Space,keypress(Space),,,,,,,,---- -- ----- -- ------ - ------- --- ----------<br>------------- ------ ------ ---- ---- ------- ----- -- ----<br>-------- ------- -- ---------- --- - --- ----- ----- ----<br>---- --- --- ----- --- ---- ---- ------- ----- it's -------<br>--- --- -- ----- -- --- ---- -- --- ---- -- ------ ------<br>--- ----- -- ----,348092.09999999776,348091.80000000075,347691.327,347692.30000000075,347708.112,348108.536,,37,it's
screen,html.Screen,2_1_0_1_38,2022-05-03T11:27:07.744Z,,,,,,,,,,,,,,,,,53,,,,,,,,,,,,,,159.26400000072317,,response,,,,99,,,,,,,Space,keypress(Space),,,,,,,,---- -- ----- -- ------ - ------- --- ----------<br>------------- ------ ------ ---- ---- ------- ----- -- ----<br>-------- ------- -- ---------- --- - --- ----- ----- ----<br>---- --- --- ----- --- ---- ---- ------- ----- ---- whether<br>--- --- -- ----- -- --- ---- -- --- ---- -- ------ ------<br>--- ----- -- ----,348268.19999999925,348267.80000000075,348091.627,348092.09999999776,348108.536,348275.204,,38,whether
screen,html.Screen,2_1_0_1_39,2022-05-03T11:27:07.992Z,,,,,,,,,,,,,,,,,53,,,,,,,,,,,,,,240.69599999848288,,response,,,,99,,,,,,,Space,keypress(Space),,,,,,,,---- -- ----- -- ------ - ------- --- ----------<br>------------- ------ ------ ---- ---- ------- ----- -- ----<br>-------- ------- -- ---------- --- - --- ----- ----- ----<br>---- --- --- ----- --- ---- ---- ------- ----- ---- -------<br>you --- -- ----- -- --- ---- -- --- ---- -- ------ ------<br>--- ----- -- ----,348516.19999999925,348515.8999999985,348258.686,348268.3999999985,348275.204,348525.483,,39,you
screen,html.Screen,2_1_0_1_40,2022-05-03T11:27:08.208Z,,,,,,,,,,,,,,,,,53,,,,,,,,,,,,,,206.11699999775738,,response,,,,99,,,,,,,Space,keypress(Space),,,,,,,,---- -- ----- -- ------ - ------- --- ----------<br>------------- ------ ------ ---- ---- ------- ----- -- ----<br>-------- ------- -- ---------- --- - --- ----- ----- ----<br>---- --- --- ----- --- ---- ---- ------- ----- ---- -------<br>--- are -- ----- -- --- ---- -- --- ---- -- ------ ------<br>--- ----- -- ----,348732,348731.59999999776,348508.938,348516.30000000075,348525.483,348742.446,,40,are
screen,html.Screen,2_1_0_1_41,2022-05-03T11:27:08.401Z,,,,,,,,,,,,,,,,,53,,,,,,,,,,,,,,182.4539999985136,,response,,,,99,,,,,,,Space,keypress(Space),,,,,,,,---- -- ----- -- ------ - ------- --- ----------<br>------------- ------ ------ ---- ---- ------- ----- -- ----<br>-------- ------- -- ---------- --- - --- ----- ----- ----<br>---- --- --- ----- --- ---- ---- ------- ----- ---- -------<br>--- --- as ----- -- --- ---- -- --- ---- -- ------ ------<br>--- ----- -- ----,348925.69999999925,348924.8999999985,348725.759,348732.09999999776,348742.446,348942.57,,41,as
screen,html.Screen,2_1_0_1_42,2022-05-03T11:27:08.561Z,,,,,,,,,,,,,,,,,53,,,,,,,,,,,,,,141.92999999999302,,response,,,,99,,,,,,,Space,keypress(Space),,,,,,,,---- -- ----- -- ------ - ------- --- ----------<br>------------- ------ ------ ---- ---- ------- ----- -- ----<br>-------- ------- -- ---------- --- - --- ----- ----- ----<br>---- --- --- ----- --- ---- ---- ------- ----- ---- -------<br>--- --- -- close -- --- ---- -- --- ---- -- ------ ------<br>--- ----- -- ----,349084.8999999985,349084.5,348925.952,348925.8999999985,348942.57,349092.793,,42,close
screen,html.Screen,2_1_0_1_43,2022-05-03T11:27:08.753Z,,,,,,,,,,,,,,,,,53,,,,,,,,,,,,,,183.60699999850476,,response,,,,99,,,,,,,Space,keypress(Space),,,,,,,,---- -- ----- -- ------ - ------- --- ----------<br>------------- ------ ------ ---- ---- ------- ----- -- ----<br>-------- ------- -- ---------- --- - --- ----- ----- ----<br>---- --- --- ----- --- ---- ---- ------- ----- ---- -------<br>--- --- -- ----- as --- ---- -- --- ---- -- ------ ------<br>--- ----- -- ----,349277.3999999985,349276.3999999985,349076.038,349085,349092.793,349293.1,,43,as
screen,html.Screen,2_1_0_1_44,2022-05-03T11:27:08.913Z,,,,,,,,,,,,,,,,,53,,,,,,,,,,,,,,143.09999999927823,,response,,,,99,,,,,,,Space,keypress(Space),,,,,,,,---- -- ----- -- ------ - ------- --- ----------<br>------------- ------ ------ ---- ---- ------- ----- -- ----<br>-------- ------- -- ---------- --- - --- ----- ----- ----<br>---- --- --- ----- --- ---- ---- ------- ----- ---- -------<br>--- --- -- ----- -- you ---- -- --- ---- -- ------ ------<br>--- ----- -- ----,349437,349436.19999999925,349276.326,349277.59999999776,349293.1,349443.056,,44,you
screen,html.Screen,2_1_0_1_45,2022-05-03T11:27:09.075Z,,,,,,,,,,,,,,,,,53,,,,,,,,,,,,,,155.14399999927264,,response,,,,99,,,,,,,Space,keypress(Space),,,,,,,,---- -- ----- -- ------ - ------- --- ----------<br>------------- ------ ------ ---- ---- ------- ----- -- ----<br>-------- ------- -- ---------- --- - --- ----- ----- ----<br>---- --- --- ----- --- ---- ---- ------- ----- ---- -------<br>--- --- -- ----- -- --- want -- --- ---- -- ------ ------<br>--- ----- -- ----,349599,349598.19999999925,349426.409,349437.19999999925,349443.056,349610.04,,45,want
screen,html.Screen,2_1_0_1_46,2022-05-03T11:27:09.257Z,,,,,,,,,,,,,,,,,53,,,,,,,,,,,,,,170.260000000766,,response,,,,99,,,,,,,Space,keypress(Space),,,,,,,,---- -- ----- -- ------ - ------- --- ----------<br>------------- ------ ------ ---- ---- ------- ----- -- ----<br>-------- ------- -- ---------- --- - --- ----- ----- ----<br>---- --- --- ----- --- ---- ---- ------- ----- ---- -------<br>--- --- -- ----- -- --- ---- to --- ---- -- ------ ------<br>--- ----- -- ----,349781.09999999776,349780.30000000075,349593.343,349599.19999999925,349610.04,349793.543,,46,to
screen,html.Screen,2_1_0_1_47,2022-05-03T11:27:09.425Z,,,,,,,,,,,,,,,,,53,,,,,,,,,,,,,,154.85699999850476,,response,,,,99,,,,,,,Space,keypress(Space),,,,,,,,"---- -- ----- -- ------ - ------- --- ----------<br>------------- ------ ------ ---- ---- ------- ----- -- ----<br>-------- ------- -- ---------- --- - --- ----- ----- ----<br>---- --- --- ----- --- ---- ---- ------- ----- ---- -------<br>--- --- -- ----- -- --- ---- -- be, ---- -- ------ ------<br>--- ----- -- ----",349949.19999999925,349948.3999999985,349776.707,349781.3999999985,349793.543,349960.382,,47,"be,"
screen,html.Screen,2_1_0_1_48,2022-05-03T11:27:09.601Z,,,,,,,,,,,,,,,,,53,,,,,,,,,,,,,,164.11800000001676,,response,,,,99,,,,,,,Space,keypress(Space),,,,,,,,---- -- ----- -- ------ - ------- --- ----------<br>------------- ------ ------ ---- ---- ------- ----- -- ----<br>-------- ------- -- ---------- --- - --- ----- ----- ----<br>---- --- --- ----- --- ---- ---- ------- ----- ---- -------<br>--- --- -- ----- -- --- ---- -- --- even -- ------ ------<br>--- ----- -- ----,350125.30000000075,350124.5,349943.695,349949.3999999985,349960.382,350159.436,,48,even
screen,html.Screen,2_1_0_1_49,2022-05-03T11:27:09.777Z,,,,,,,,,,,,,,,,,53,,,,,,,,,,,,,,140.96399999852292,,response,,,,99,,,,,,,Space,keypress(Space),,,,,,,,---- -- ----- -- ------ - ------- --- ----------<br>------------- ------ ------ ---- ---- ------- ----- -- ----<br>-------- ------- -- ---------- --- - --- ----- ----- ----<br>---- --- --- ----- --- ---- ---- ------- ----- ---- -------<br>--- --- -- ----- -- --- ---- -- --- ---- if ------ ------<br>--- ----- -- ----,350301.30000000075,350300.3999999985,350110.425,350125.5,350159.436,350310.615,,49,if
screen,html.Screen,2_1_0_1_50,2022-05-03T11:27:09.977Z,,,,,,,,,,,,,,,,,53,,,,,,,,,,,,,,189.7849999985192,,response,,,,99,,,,,,,Space,keypress(Space),,,,,,,,---- -- ----- -- ------ - ------- --- ----------<br>------------- ------ ------ ---- ---- ------- ----- -- ----<br>-------- ------- -- ---------- --- - --- ----- ----- ----<br>---- --- --- ----- --- ---- ---- ------- ----- ---- -------<br>--- --- -- ----- -- --- ---- -- --- ---- -- that's ------<br>--- ----- -- ----,350501.19999999925,350500.3999999985,350293.943,350301.59999999776,350310.615,350510.933,,50,that's
screen,html.Screen,2_1_0_1_51,2022-05-03T11:27:10.160Z,,,,,,,,,,,,,,,,,53,,,,,,,,,,,,,,173.16699999774573,,response,,,,99,,,,,,,Space,keypress(Space),,,,,,,,---- -- ----- -- ------ - ------- --- ----------<br>------------- ------ ------ ---- ---- ------- ----- -- ----<br>-------- ------- -- ---------- --- - --- ----- ----- ----<br>---- --- --- ----- --- ---- ---- ------- ----- ---- -------<br>--- --- -- ----- -- --- ---- -- --- ---- -- ------ really<br>--- ----- -- ----,350685,350684.09999999776,350494.195,350501.3999999985,350510.933,350694.298,,51,really
screen,html.Screen,2_1_0_1_52,2022-05-03T11:27:10.649Z,,,,,,,,,,,,,,,,,53,,,,,,,,,,,,,,478.0020000007353,,response,,,,99,,,,,,,Space,keypress(Space),,,,,,,,---- -- ----- -- ------ - ------- --- ----------<br>------------- ------ ------ ---- ---- ------- ----- -- ----<br>-------- ------- -- ---------- --- - --- ----- ----- ----<br>---- --- --- ----- --- ---- ---- ------- ----- ---- -------<br>--- --- -- ----- -- --- ---- -- --- ---- -- ------ ------<br>not ----- -- ----,351173.09999999776,351172.30000000075,350677.693,350685.19999999925,350694.298,351178.123,,52,not
screen,html.Screen,2_1_0_1_53,2022-05-03T11:27:10.823Z,,,,,,,,,,,,,,,,,53,,,,,,,,,,,,,,169.4769999977434,,response,,,,99,,,,,,,Space,keypress(Space),,,,,,,,---- -- ----- -- ------ - ------- --- ----------<br>------------- ------ ------ ---- ---- ------- ----- -- ----<br>-------- ------- -- ---------- --- - --- ----- ----- ----<br>---- --- --- ----- --- ---- ---- ------- ----- ---- -------<br>--- --- -- ----- -- --- ---- -- --- ---- -- ------ ------<br>--- close -- ----,351347.8999999985,351347.59999999776,351161.519,351173.30000000075,351178.123,351361.649,,53,close
screen,html.Screen,2_1_0_1_54,2022-05-03T11:27:11.169Z,,,,,,,,,,,,,,,,,53,,,,,,,,,,,,,,330.8510000000242,,response,,,,99,,,,,,,Space,keypress(Space),,,,,,,,---- -- ----- -- ------ - ------- --- ----------<br>------------- ------ ------ ---- ---- ------- ----- -- ----<br>-------- ------- -- ---------- --- - --- ----- ----- ----<br>---- --- --- ----- --- ---- ---- ------- ----- ---- -------<br>--- --- -- ----- -- --- ---- -- --- ---- -- ------ ------<br>--- ----- at ----,351693.19999999925,351692.5,351345.087,351348,351361.649,351695.274,,54,at
screen,html.Screen,2_1_0_1_55,2022-05-03T11:27:11.521Z,,,,,,,,,,,,,,,,,53,,,,,,,,,,,,,,349.5260000007693,,response,,,,99,,,,,,,Space,keypress(Space),,,,,,,,---- -- ----- -- ------ - ------- --- ----------<br>------------- ------ ------ ---- ---- ------- ----- -- ----<br>-------- ------- -- ---------- --- - --- ----- ----- ----<br>---- --- --- ----- --- ---- ---- ------- ----- ---- -------<br>--- --- -- ----- -- --- ---- -- --- ---- -- ------ ------<br>--- ----- -- all.,352045.59999999776,352044.80000000075,351678.702,351693.5,351695.274,352062.471,,55,all.
Item 99,flow.Loop,2_1_0_1,2022-05-03T11:27:11.522Z,,,,,,,,,,,,,,,,,,,,,,,,,,,,,,,16899.424000000756,,completion,,,,,H,,,,,,,,,,,silence,,,,,352046.09999999776,352044.80000000075,335128.753,335129.09999999776,335145.376,352062.471,,,
Question 1,html.Screen,2_1_0_2,2022-05-03T11:27:15.976Z,,,,,,,,,,,,,,,,,,,,,,,,,,,,true,FALSE,,4437.128999997745,,response,,,,99,H,,,,,,FALSE,click #choice-2,,,,silence,,,,,356500.3999999985,356499.59999999776,352045.791,352046.30000000075,352062.471,356516.742,,,
Question 2,html.Screen,2_1_0_3,2022-05-03T11:27:19.376Z,,,,,,,,,,,,,,,,,,,,,,,,,,,,true,TRUE,,3382.9579999992275,,response,,,,99,H,,,,,,TRUE,click #choice-1,,,,silence,,,,,359900.3999999985,359899.69999999925,356500.106,356500.5,356516.742,359903.425,,,
Item 99,flow.Sequence,2_1_0,2022-05-03T11:27:19.376Z,,,,,,,,,,,,,,,,,,,,,,,,,,,,,,,34747.603999999235,,completion,,,,,,,,,,,,,,,,,,,,,359900.5,359899.69999999925,325135.405,325148.30000000075,325152.096,359903.425,,,
Holding screen,html.Screen,2_1_1_0,2022-05-03T11:27:29.357Z,,,,,,,,,,,,,,,,,,,,,,,,,,,,,,,9993.37400000001,,timeout,,,,,,,,,,,,,,,,,,,,,369881.09999999776,369880.284,359886.936,359900.59999999776,359903.425,369896.799,,,
screen,html.Screen,2_1_1_1_0,2022-05-03T11:27:30.104Z,,,,,,,,,,,,,,,,,54,,,,,,,,,,,,,,731.1009999985108,,response,,,,100,,,,,,,Space,keypress(Space),,,,,,,,At --- ---- --- ------ ----- ------- ---- -- --- ------- --<br>------- ---------- ------ -- ----- -- ----- -- ---- ------<br>--- ----- --- --- ------ -------- ----- --- ------ ----- --<br>----- ----- ---------- --- --- ------ ------ ---- -- ------<br>------- --- ------ ----- --- ---- ------- -- ---- --- --<br>------- ------,370628.30000000075,370627.8999999985,369880.284,369881.59999999776,369896.799,370630.844,,0,At
screen,html.Screen,2_1_1_1_1,2022-05-03T11:27:30.464Z,,,,,,,,,,,,,,,,,54,,,,,,,,,,,,,,357.15600000001723,,response,,,,100,,,,,,,Space,keypress(Space),,,,,,,,-- the ---- --- ------ ----- ------- ---- -- --- ------- --<br>------- ---------- ------ -- ----- -- ----- -- ---- ------<br>--- ----- --- --- ------ -------- ----- --- ------ ----- --<br>----- ----- ---------- --- --- ------ ------ ---- -- ------<br>------- --- ------ ----- --- ---- ------- -- ---- --- --<br>------- ------,370988.30000000075,370988,370614.247,370628.3999999985,370630.844,370997.895,,1,the
screen,html.Screen,2_1_1_1_2,2022-05-03T11:27:30.649Z,,,,,,,,,,,,,,,,,54,,,,,,,,,,,,,,174.80499999923632,,response,,,,100,,,,,,,Space,keypress(Space),,,,,,,,-- --- time --- ------ ----- ------- ---- -- --- ------- --<br>------- ---------- ------ -- ----- -- ----- -- ---- ------<br>--- ----- --- --- ------ -------- ----- --- ------ ----- --<br>----- ----- ---------- --- --- ------ ------ ---- -- ------<br>------- --- ------ ----- --- ---- ------- -- ---- --- --<br>------- ------,371173.5,371172.69999999925,370981.242,370988.3999999985,370997.895,371181.502,,2,time
screen,html.Screen,2_1_1_1_3,2022-05-03T11:27:30.889Z,,,,,,,,,,,,,,,,,54,,,,,,,,,,,,,,230.8979999985313,,response,,,,100,,,,,,,Space,keypress(Space),,,,,,,,-- --- ---- the ------ ----- ------- ---- -- --- ------- --<br>------- ---------- ------ -- ----- -- ----- -- ---- ------<br>--- ----- --- --- ------ -------- ----- --- ------ ----- --<br>----- ----- ---------- --- --- ------ ------ ---- -- ------<br>------- --- ------ ----- --- ---- ------- -- ---- --- --<br>------- ------,371413.09999999776,371412.3999999985,371164.853,371173.59999999776,371181.502,371414.962,,3,the
screen,html.Screen,2_1_1_1_4,2022-05-03T11:27:31.072Z,,,,,,,,,,,,,,,,,54,,,,,,,,,,,,,,180.83800000074552,,response,,,,100,,,,,,,Space,keypress(Space),,,,,,,,-- --- ---- --- French ----- ------- ---- -- --- ------- --<br>------- ---------- ------ -- ----- -- ----- -- ---- ------<br>--- ----- --- --- ------ -------- ----- --- ------ ----- --<br>----- ----- ---------- --- --- ------ ------ ---- -- ------<br>------- --- ------ ----- --- ---- ------- -- ---- --- --<br>------- ------,371596.30000000075,371595.80000000075,371398.301,371413.30000000075,371414.962,371598.397,,4,French
screen,html.Screen,2_1_1_1_5,2022-05-03T11:27:31.296Z,,,,,,,,,,,,,,,,,54,,,,,,,,,,,,,,221.40300000074785,,response,,,,100,,,,,,,Space,keypress(Space),,,,,,,,-- --- ---- --- ------ crown ------- ---- -- --- ------- --<br>------- ---------- ------ -- ----- -- ----- -- ---- ------<br>--- ----- --- --- ------ -------- ----- --- ------ ----- --<br>----- ----- ---------- --- --- ------ ------ ---- -- ------<br>------- --- ------ ----- --- ---- ------- -- ---- --- --<br>------- ------,371820.19999999925,371819.80000000075,371581.851,371596.3999999985,371598.397,371832.163,,5,crown
screen,html.Screen,2_1_1_1_6,2022-05-03T11:27:31.448Z,,,,,,,,,,,,,,,,,54,,,,,,,,,,,,,,139.53699999925448,,response,,,,100,,,,,,,Space,keypress(Space),,,,,,,,-- --- ---- --- ------ ----- secured ---- -- --- ------- --<br>------- ---------- ------ -- ----- -- ----- -- ---- ------<br>--- ----- --- --- ------ -------- ----- --- ------ ----- --<br>----- ----- ---------- --- --- ------ ------ ---- -- ------<br>------- --- ------ ----- --- ---- ------- -- ---- --- --<br>------- ------,371972.09999999776,371971.69999999925,371815.42,371820.30000000075,371832.163,371982.304,,6,secured
screen,html.Screen,2_1_1_1_7,2022-05-03T11:27:31.601Z,,,,,,,,,,,,,,,,,54,,,,,,,,,,,,,,142.89599999925122,,response,,,,100,,,,,,,Space,keypress(Space),,,,,,,,-- --- ---- --- ------ ----- ------- much -- --- ------- --<br>------- ---------- ------ -- ----- -- ----- -- ---- ------<br>--- ----- --- --- ------ -------- ----- --- ------ ----- --<br>----- ----- ---------- --- --- ------ ------ ---- -- ------<br>------- --- ------ ----- --- ---- ------- -- ---- --- --<br>------- ------,372125.5,372125.19999999925,371965.517,371972.09999999776,371982.304,372132.371,,7,much
screen,html.Screen,2_1_1_1_8,2022-05-03T11:27:32.096Z,,,,,,,,,,,,,,,,,54,,,,,,,,,,,,,,487.62900000001537,,response,,,,100,,,,,,,Space,keypress(Space),,,,,,,,-- --- ---- --- ------ ----- ------- ---- of --- ------- --<br>------- ---------- ------ -- ----- -- ----- -- ---- ------<br>--- ----- --- --- ------ -------- ----- --- ------ ----- --<br>----- ----- ---------- --- --- ------ ------ ---- -- ------<br>------- --- ------ ----- --- ---- ------- -- ---- --- --<br>------- ------,372620.59999999776,372620,372115.665,372125.69999999925,372132.371,372632.935,,8,of
screen,html.Screen,2_1_1_1_9,2022-05-03T11:27:32.448Z,,,,,,,,,,,,,,,,,54,,,,,,,,,,,,,,338.76499999925727,,response,,,,100,,,,,,,Space,keypress(Space),,,,,,,,-- --- ---- --- ------ ----- ------- ---- -- its ------- --<br>------- ---------- ------ -- ----- -- ----- -- ---- ------<br>--- ----- --- --- ------ -------- ----- --- ------ ----- --<br>----- ----- ---------- --- --- ------ ------ ---- -- ------<br>------- --- ------ ----- --- ---- ------- -- ---- --- --<br>------- ------,372972,372971.69999999925,372616.235,372621.8999999985,372632.935,372983.152,,9,its
screen,html.Screen,2_1_1_1_10,2022-05-03T11:27:32.618Z,,,,,,,,,,,,,,,,,54,,,,,,,,,,,,,,158.6480000007432,,response,,,,100,,,,,,,Space,keypress(Space),,,,,,,,-- --- ---- --- ------ ----- ------- ---- -- --- revenue --<br>------- ---------- ------ -- ----- -- ----- -- ---- ------<br>--- ----- --- --- ------ -------- ----- --- ------ ----- --<br>----- ----- ---------- --- --- ------ ------ ---- -- ------<br>------- --- ------ ----- --- ---- ------- -- ---- --- --<br>------- ------,373142.59999999776,373141.80000000075,372966.622,372972.09999999776,372983.152,373150.02,,10,revenue
screen,html.Screen,2_1_1_1_11,2022-05-03T11:27:32.801Z,,,,,,,,,,,,,,,,,54,,,,,,,,,,,,,,174.28000000072643,,response,,,,100,,,,,,,Space,keypress(Space),,,,,,,,-- --- ---- --- ------ ----- ------- ---- -- --- ------- by<br>------- ---------- ------ -- ----- -- ----- -- ---- ------<br>--- ----- --- --- ------ -------- ----- --- ------ ----- --<br>----- ----- ---------- --- --- ------ ------ ---- -- ------<br>------- --- ------ ----- --- ---- ------- -- ---- --- --<br>------- ------,373325.09999999776,373324.30000000075,373133.446,373142.80000000075,373150.02,373333.479,,11,by
screen,html.Screen,2_1_1_1_12,2022-05-03T11:27:33.088Z,,,,,,,,,,,,,,,,,54,,,,,,,,,,,,,,278.321000000753,,response,,,,100,,,,,,,Space,keypress(Space),,,,,,,,-- --- ---- --- ------ ----- ------- ---- -- --- ------- --<br>issuing ---------- ------ -- ----- -- ----- -- ---- ------<br>--- ----- --- --- ------ -------- ----- --- ------ ----- --<br>----- ----- ---------- --- --- ------ ------ ---- -- ------<br>------- --- ------ ----- --- ---- ------- -- ---- --- --<br>------- ------,373612.30000000075,373611.80000000075,373317.045,373325.30000000075,373333.479,373617.173,,12,issuing
screen,html.Screen,2_1_1_1_13,2022-05-03T11:27:33.272Z,,,,,,,,,,,,,,,,,54,,,,,,,,,,,,,,178.62700000073528,,response,,,,100,,,,,,,Space,keypress(Space),,,,,,,,-- --- ---- --- ------ ----- ------- ---- -- --- ------- --<br>------- government ------ -- ----- -- ----- -- ---- ------<br>--- ----- --- --- ------ -------- ----- --- ------ ----- --<br>----- ----- ---------- --- --- ------ ------ ---- -- ------<br>------- --- ------ ----- --- ---- ------- -- ---- --- --<br>------- ------,373796.30000000075,373795.80000000075,373600.559,373612.3999999985,373617.173,373800.677,,13,government
screen,html.Screen,2_1_1_1_14,2022-05-03T11:27:33.433Z,,,,,,,,,,,,,,,,,54,,,,,,,,,,,,,,155.72299999848474,,response,,,,100,,,,,,,Space,keypress(Space),,,,,,,,-- --- ---- --- ------ ----- ------- ---- -- --- ------- --<br>------- ---------- bonds. -- ----- -- ----- -- ---- ------<br>--- ----- --- --- ------ -------- ----- --- ------ ----- --<br>----- ----- ---------- --- --- ------ ------ ---- -- ------<br>------- --- ------ ----- --- ---- ------- -- ---- --- --<br>------- ------,373957.19999999925,373956.3999999985,373784.008,373796.30000000075,373800.677,373967.481,,14,bonds.
screen,html.Screen,2_1_1_1_15,2022-05-03T11:27:33.713Z,,,,,,,,,,,,,,,,,54,,,,,,,,,,,,,,268.918999998481,,response,,,,100,,,,,,,Space,keypress(Space),,,,,,,,-- --- ---- --- ------ ----- ------- ---- -- --- ------- --<br>------- ---------- ------ In ----- -- ----- -- ---- ------<br>--- ----- --- --- ------ -------- ----- --- ------ ----- --<br>----- ----- ---------- --- --- ------ ------ ---- -- ------<br>------- --- ------ ----- --- ---- ------- -- ---- --- --<br>------- ------,374237.19999999925,374236.3999999985,373950.938,373957.5,373967.481,374251.319,,15,In
screen,html.Screen,2_1_1_1_16,2022-05-03T11:27:34.072Z,,,,,,,,,,,,,,,,,54,,,,,,,,,,,,,,344.38099999923725,,response,,,,100,,,,,,,Space,keypress(Space),,,,,,,,"-- --- ---- --- ------ ----- ------- ---- -- --- ------- --<br>------- ---------- ------ -- 1727, -- ----- -- ---- ------<br>--- ----- --- --- ------ -------- ----- --- ------ ----- --<br>----- ----- ---------- --- --- ------ ------ ---- -- ------<br>------- --- ------ ----- --- ---- ------- -- ---- --- --<br>------- ------",374596.09999999776,374595.69999999925,374234.609,374237.30000000075,374251.319,374601.522,,16,"1727,"
screen,html.Screen,2_1_1_1_17,2022-05-03T11:27:34.223Z,,,,,,,,,,,,,,,,,54,,,,,,,,,,,,,,146.07799999776762,,response,,,,100,,,,,,,Space,keypress(Space),,,,,,,,-- --- ---- --- ------ ----- ------- ---- -- --- ------- --<br>------- ---------- ------ -- ----- in ----- -- ---- ------<br>--- ----- --- --- ------ -------- ----- --- ------ ----- --<br>----- ----- ---------- --- --- ------ ------ ---- -- ------<br>------- --- ------ ----- --- ---- ------- -- ---- --- --<br>------- ------,374747.8999999985,374747.59999999776,374584.794,374596.19999999925,374601.522,374751.64,,17,in
screen,html.Screen,2_1_1_1_18,2022-05-03T11:27:34.504Z,,,,,,,,,,,,,,,,,54,,,,,,,,,,,,,,276.1600000007311,,response,,,,100,,,,,,,Space,keypress(Space),,,,,,,,-- --- ---- --- ------ ----- ------- ---- -- --- ------- --<br>------- ---------- ------ -- ----- -- order -- ---- ------<br>--- ----- --- --- ------ -------- ----- --- ------ ----- --<br>----- ----- ---------- --- --- ------ ------ ---- -- ------<br>------- --- ------ ----- --- ---- ------- -- ---- --- --<br>------- ------,375028.30000000075,375027.80000000075,374735.044,374748,374751.64,375035.268,,18,order
screen,html.Screen,2_1_1_1_19,2022-05-03T11:27:34.704Z,,,,,,,,,,,,,,,,,54,,,,,,,,,,,,,,192.831999997783,,response,,,,100,,,,,,,Space,keypress(Space),,,,,,,,-- --- ---- --- ------ ----- ------- ---- -- --- ------- --<br>------- ---------- ------ -- ----- -- ----- to ---- ------<br>--- ----- --- --- ------ -------- ----- --- ------ ----- --<br>----- ----- ---------- --- --- ------ ------ ---- -- ------<br>------- --- ------ ----- --- ---- ------- -- ---- --- --<br>------- ------,375229,375228.09999999776,375018.618,375028.3999999985,375035.268,375235.575,,19,to
screen,html.Screen,2_1_1_1_20,2022-05-03T11:27:34.944Z,,,,,,,,,,,,,,,,,54,,,,,,,,,,,,,,232.6249999992433,,response,,,,100,,,,,,,Space,keypress(Space),,,,,,,,-- --- ---- --- ------ ----- ------- ---- -- --- ------- --<br>------- ---------- ------ -- ----- -- ----- -- save ------<br>--- ----- --- --- ------ -------- ----- --- ------ ----- --<br>----- ----- ---------- --- --- ------ ------ ---- -- ------<br>------- --- ------ ----- --- ---- ------- -- ---- --- --<br>------- ------,375469,375468.19999999925,375218.774,375229.19999999925,375235.575,375485.789,,20,save
screen,html.Screen,2_1_1_1_21,2022-05-03T11:27:35.145Z,,,,,,,,,,,,,,,,,54,,,,,,,,,,,,,,182.61099999852013,,response,,,,100,,,,,,,Space,keypress(Space),,,,,,,,"-- --- ---- --- ------ ----- ------- ---- -- --- ------- --<br>------- ---------- ------ -- ----- -- ----- -- ---- money,<br>--- ----- --- --- ------ -------- ----- --- ------ ----- --<br>----- ----- ---------- --- --- ------ ------ ---- -- ------<br>------- --- ------ ----- --- ---- ------- -- ---- --- --<br>------- ------",375669.09999999776,375668.3999999985,375469.173,375469.19999999925,375485.789,375685.918,,21,"money,"
screen,html.Screen,2_1_1_1_22,2022-05-03T11:27:35.321Z,,,,,,,,,,,,,,,,,54,,,,,,,,,,,,,,158.38200000073994,,response,,,,100,,,,,,,Space,keypress(Space),,,,,,,,-- --- ---- --- ------ ----- ------- ---- -- --- ------- --<br>------- ---------- ------ -- ----- -- ----- -- ---- ------<br>the ----- --- --- ------ -------- ----- --- ------ ----- --<br>----- ----- ---------- --- --- ------ ------ ---- -- ------<br>------- --- ------ ----- --- ---- ------- -- ---- --- --<br>------- ------,375845.19999999925,375844.30000000075,375669.225,375669.3999999985,375685.918,375852.729,,22,the
screen,html.Screen,2_1_1_1_23,2022-05-03T11:27:35.488Z,,,,,,,,,,,,,,,,,54,,,,,,,,,,,,,,159.1709999985178,,response,,,,100,,,,,,,Space,keypress(Space),,,,,,,,-- --- ---- --- ------ ----- ------- ---- -- --- ------- --<br>------- ---------- ------ -- ----- -- ----- -- ---- ------<br>--- state --- --- ------ -------- ----- --- ------ ----- --<br>----- ----- ---------- --- --- ------ ------ ---- -- ------<br>------- --- ------ ----- --- ---- ------- -- ---- --- --<br>------- ------,376012.09999999776,376011.8999999985,375836.196,375845.3999999985,375852.729,376019.594,,23,state
screen,html.Screen,2_1_1_1_24,2022-05-03T11:27:35.801Z,,,,,,,,,,,,,,,,,54,,,,,,,,,,,,,,304.60599999927217,,response,,,,100,,,,,,,Space,keypress(Space),,,,,,,,-- --- ---- --- ------ ----- ------- ---- -- --- ------- --<br>------- ---------- ------ -- ----- -- ----- -- ---- ------<br>--- ----- cut --- ------ -------- ----- --- ------ ----- --<br>----- ----- ---------- --- --- ------ ------ ---- -- ------<br>------- --- ------ ----- --- ---- ------- -- ---- --- --<br>------- ------,376325,376324.19999999925,376002.963,376012.19999999925,376019.594,376336.573,,24,cut
screen,html.Screen,2_1_1_1_25,2022-05-03T11:27:35.984Z,,,,,,,,,,,,,,,,,54,,,,,,,,,,,,,,171.6269999992801,,response,,,,100,,,,,,,Space,keypress(Space),,,,,,,,-- --- ---- --- ------ ----- ------- ---- -- --- ------- --<br>------- ---------- ------ -- ----- -- ----- -- ---- ------<br>--- ----- --- the ------ -------- ----- --- ------ ----- --<br>----- ----- ---------- --- --- ------ ------ ---- -- ------<br>------- --- ------ ----- --- ---- ------- -- ---- --- --<br>------- ------,376509.09999999776,376508.19999999925,376319.812,376325.30000000075,376336.573,376520.251,,25,the
screen,html.Screen,2_1_1_1_26,2022-05-03T11:27:36.152Z,,,,,,,,,,,,,,,,,54,,,,,,,,,,,,,,155.54900000075577,,response,,,,100,,,,,,,Space,keypress(Space),,,,,,,,-- --- ---- --- ------ ----- ------- ---- -- --- ------- --<br>------- ---------- ------ -- ----- -- ----- -- ---- ------<br>--- ----- --- --- bonds' -------- ----- --- ------ ----- --<br>----- ----- ---------- --- --- ------ ------ ---- -- ------<br>------- --- ------ ----- --- ---- ------- -- ---- --- --<br>------- ------,376676.19999999925,376675.80000000075,376503.373,376509.19999999925,376520.251,376687.042,,26,bonds'
screen,html.Screen,2_1_1_1_27,2022-05-03T11:27:36.369Z,,,,,,,,,,,,,,,,,54,,,,,,,,,,,,,,205.35799999849405,,response,,,,100,,,,,,,Space,keypress(Space),,,,,,,,-- --- ---- --- ------ ----- ------- ---- -- --- ------- --<br>------- ---------- ------ -- ----- -- ----- -- ---- ------<br>--- ----- --- --- ------ interest ----- --- ------ ----- --<br>----- ----- ---------- --- --- ------ ------ ---- -- ------<br>------- --- ------ ----- --- ---- ------- -- ---- --- --<br>------- ------,376893.19999999925,376892.3999999985,376670.243,376676.19999999925,376687.042,376903.762,,27,interest
screen,html.Screen,2_1_1_1_28,2022-05-03T11:27:36.568Z,,,,,,,,,,,,,,,,,54,,,,,,,,,,,,,,188.43799999926705,,response,,,,100,,,,,,,Space,keypress(Space),,,,,,,,-- --- ---- --- ------ ----- ------- ---- -- --- ------- --<br>------- ---------- ------ -- ----- -- ----- -- ---- ------<br>--- ----- --- --- ------ -------- rate. --- ------ ----- --<br>----- ----- ---------- --- --- ------ ------ ---- -- ------<br>------- --- ------ ----- --- ---- ------- -- ---- --- --<br>------- ------,377092.80000000075,377092.19999999925,376887.094,376893.3999999985,376903.762,377103.926,,28,rate.
screen,html.Screen,2_1_1_1_29,2022-05-03T11:27:36.770Z,,,,,,,,,,,,,,,,,54,,,,,,,,,,,,,,190.3740000007674,,response,,,,100,,,,,,,Space,keypress(Space),,,,,,,,-- --- ---- --- ------ ----- ------- ---- -- --- ------- --<br>------- ---------- ------ -- ----- -- ----- -- ---- ------<br>--- ----- --- --- ------ -------- ----- The ------ ----- --<br>----- ----- ---------- --- --- ------ ------ ---- -- ------<br>------- --- ------ ----- --- ---- ------- -- ---- --- --<br>------- ------,377294.80000000075,377294.30000000075,377087.425,377093,377103.926,377304.206,,29,The
screen,html.Screen,2_1_1_1_30,2022-05-03T11:27:36.992Z,,,,,,,,,,,,,,,,,54,,,,,,,,,,,,,,211.6939999985043,,response,,,,100,,,,,,,Space,keypress(Space),,,,,,,,-- --- ---- --- ------ ----- ------- ---- -- --- ------- --<br>------- ---------- ------ -- ----- -- ----- -- ---- ------<br>--- ----- --- --- ------ -------- ----- --- market ----- --<br>----- ----- ---------- --- --- ------ ------ ---- -- ------<br>------- --- ------ ----- --- ---- ------- -- ---- --- --<br>------- ------,377516.5,377515.8999999985,377287.543,377294.8999999985,377304.206,377521.174,,30,market
screen,html.Screen,2_1_1_1_31,2022-05-03T11:27:37.168Z,,,,,,,,,,,,,,,,,54,,,,,,,,,,,,,,170.52599999925587,,response,,,,100,,,,,,,Space,keypress(Space),,,,,,,,-- --- ---- --- ------ ----- ------- ---- -- --- ------- --<br>------- ---------- ------ -- ----- -- ----- -- ---- ------<br>--- ----- --- --- ------ -------- ----- --- ------ value --<br>----- ----- ---------- --- --- ------ ------ ---- -- ------<br>------- --- ------ ----- --- ---- ------- -- ---- --- --<br>------- ------,377692.09999999776,377691.69999999925,377504.527,377516.59999999776,377521.174,377704.709,,31,value
screen,html.Screen,2_1_1_1_32,2022-05-03T11:27:37.336Z,,,,,,,,,,,,,,,,,54,,,,,,,,,,,,,,155.29100000002654,,response,,,,100,,,,,,,Space,keypress(Space),,,,,,,,-- --- ---- --- ------ ----- ------- ---- -- --- ------- --<br>------- ---------- ------ -- ----- -- ----- -- ---- ------<br>--- ----- --- --- ------ -------- ----- --- ------ ----- of<br>----- ----- ---------- --- --- ------ ------ ---- -- ------<br>------- --- ------ ----- --- ---- ------- -- ---- --- --<br>------- ------,377860.5,377860,377688.036,377692.19999999925,377704.709,377871.502,,32,of
screen,html.Screen,2_1_1_1_33,2022-05-03T11:27:37.560Z,,,,,,,,,,,,,,,,,54,,,,,,,,,,,,,,212.49800000002142,,response,,,,100,,,,,,,Space,keypress(Space),,,,,,,,-- --- ---- --- ------ ----- ------- ---- -- --- ------- --<br>------- ---------- ------ -- ----- -- ----- -- ---- ------<br>--- ----- --- --- ------ -------- ----- --- ------ ----- --<br>these ----- ---------- --- --- ------ ------ ---- -- ------<br>------- --- ------ ----- --- ---- ------- -- ---- --- --<br>------- ------,378084.3999999985,378084,377854.83,377860.69999999925,377871.502,378088.349,,33,these
screen,html.Screen,2_1_1_1_34,2022-05-03T11:27:37.760Z,,,,,,,,,,,,,,,,,54,,,,,,,,,,,,,,195.7509999977774,,response,,,,100,,,,,,,Space,keypress(Space),,,,,,,,-- --- ---- --- ------ ----- ------- ---- -- --- ------- --<br>------- ---------- ------ -- ----- -- ----- -- ---- ------<br>--- ----- --- --- ------ -------- ----- --- ------ ----- --<br>----- bonds ---------- --- --- ------ ------ ---- -- ------<br>------- --- ------ ----- --- ---- ------- -- ---- --- --<br>------- ------,378284.8999999985,378284.09999999776,378071.571,378084.5,378088.349,378288.472,,34,bonds
screen,html.Screen,2_1_1_1_35,2022-05-03T11:27:38.104Z,,,,,,,,,,,,,,,,,54,,,,,,,,,,,,,,339.52799999999115,,response,,,,100,,,,,,,Space,keypress(Space),,,,,,,,"-- --- ---- --- ------ ----- ------- ---- -- --- ------- --<br>------- ---------- ------ -- ----- -- ----- -- ---- ------<br>--- ----- --- --- ------ -------- ----- --- ------ ----- --<br>----- ----- plummeted, --- --- ------ ------ ---- -- ------<br>------- --- ------ ----- --- ---- ------- -- ---- --- --<br>------- ------",378628.59999999776,378628,378271.93,378285.09999999776,378288.472,378638.774,,35,"plummeted,"
screen,html.Screen,2_1_1_1_36,2022-05-03T11:27:38.344Z,,,,,,,,,,,,,,,,,54,,,,,,,,,,,,,,229.42599999927916,,response,,,,100,,,,,,,Space,keypress(Space),,,,,,,,-- --- ---- --- ------ ----- ------- ---- -- --- ------- --<br>------- ---------- ------ -- ----- -- ----- -- ---- ------<br>--- ----- --- --- ------ -------- ----- --- ------ ----- --<br>----- ----- ---------- and --- ------ ------ ---- -- ------<br>------- --- ------ ----- --- ---- ------- -- ---- --- --<br>------- ------,378869.09999999776,378868.19999999925,378622.293,378628.59999999776,378638.774,378872.393,,36,and
screen,html.Screen,2_1_1_1_37,2022-05-03T11:27:38.609Z,,,,,,,,,,,,,,,,,54,,,,,,,,,,,,,,260.00699999852804,,response,,,,100,,,,,,,Space,keypress(Space),,,,,,,,-- --- ---- --- ------ ----- ------- ---- -- --- ------- --<br>------- ---------- ------ -- ----- -- ----- -- ---- ------<br>--- ----- --- --- ------ -------- ----- --- ------ ----- --<br>----- ----- ---------- --- the ------ ------ ---- -- ------<br>------- --- ------ ----- --- ---- ------- -- ---- --- --<br>------- ------,379133.30000000075,379132.3999999985,378855.864,378869.30000000075,378872.393,379139.34,,37,the
screen,html.Screen,2_1_1_1_38,2022-05-03T11:27:38.896Z,,,,,,,,,,,,,,,,,54,,,,,,,,,,,,,,280.85999999922933,,response,,,,100,,,,,,,Space,keypress(Space),,,,,,,,-- --- ---- --- ------ ----- ------- ---- -- --- ------- --<br>------- ---------- ------ -- ----- -- ----- -- ---- ------<br>--- ----- --- --- ------ -------- ----- --- ------ ----- --<br>----- ----- ---------- --- --- market ------ ---- -- ------<br>------- --- ------ ----- --- ---- ------- -- ---- --- --<br>------- ------,379420.8999999985,379420.19999999925,379122.684,379133.3999999985,379139.34,379422.949,,38,market
screen,html.Screen,2_1_1_1_39,2022-05-03T11:27:39.168Z,,,,,,,,,,,,,,,,,54,,,,,,,,,,,,,,268.8510000007227,,response,,,,100,,,,,,,Space,keypress(Space),,,,,,,,-- --- ---- --- ------ ----- ------- ---- -- --- ------- --<br>------- ---------- ------ -- ----- -- ----- -- ---- ------<br>--- ----- --- --- ------ -------- ----- --- ------ ----- --<br>----- ----- ---------- --- --- ------ became ---- -- ------<br>------- --- ------ ----- --- ---- ------- -- ---- --- --<br>------- ------,379692.19999999925,379691.80000000075,379406.321,379421.19999999925,379422.949,379706.639,,39,became
screen,html.Screen,2_1_1_1_40,2022-05-03T11:27:39.272Z,,,,,,,,,,,,,,,,,54,,,,,,,,,,,,,,89.66100000072038,,response,,,,100,,,,,,,Space,keypress(Space),,,,,,,,-- --- ---- --- ------ ----- ------- ---- -- --- ------- --<br>------- ---------- ------ -- ----- -- ----- -- ---- ------<br>--- ----- --- --- ------ -------- ----- --- ------ ----- --<br>----- ----- ---------- --- --- ------ ------ wary -- ------<br>------- --- ------ ----- --- ---- ------- -- ---- --- --<br>------- ------,379797.09999999776,379796.30000000075,379690.016,379692.30000000075,379706.639,379806.679,,40,wary
screen,html.Screen,2_1_1_1_41,2022-05-03T11:27:39.769Z,,,,,,,,,,,,,,,,,54,,,,,,,,,,,,,,485.62100000074133,,response,,,,100,,,,,,,Space,keypress(Space),,,,,,,,-- --- ---- --- ------ ----- ------- ---- -- --- ------- --<br>------- ---------- ------ -- ----- -- ----- -- ---- ------<br>--- ----- --- --- ------ -------- ----- --- ------ ----- --<br>----- ----- ---------- --- --- ------ ------ ---- of ------<br>------- --- ------ ----- --- ---- ------- -- ---- --- --<br>------- ------,380293.09999999776,380292.30000000075,379790.098,379797.19999999925,379806.679,380307.199,,41,of
screen,html.Screen,2_1_1_1_42,2022-05-03T11:27:40.033Z,,,,,,,,,,,,,,,,,54,,,,,,,,,,,,,,249.1010000007227,,response,,,,100,,,,,,,Space,keypress(Space),,,,,,,,-- --- ---- --- ------ ----- ------- ---- -- --- ------- --<br>------- ---------- ------ -- ----- -- ----- -- ---- ------<br>--- ----- --- --- ------ -------- ----- --- ------ ----- --<br>----- ----- ---------- --- --- ------ ------ ---- -- French<br>------- --- ------ ----- --- ---- ------- -- ---- --- --<br>------- ------,380557.09999999776,380556.30000000075,380290.627,380293.30000000075,380307.199,380574.16,,42,French
screen,html.Screen,2_1_1_1_43,2022-05-03T11:27:40.361Z,,,,,,,,,,,,,,,,,54,,,,,,,,,,,,,,310.3400000000256,,response,,,,100,,,,,,,Space,keypress(Space),,,,,,,,-- --- ---- --- ------ ----- ------- ---- -- --- ------- --<br>------- ---------- ------ -- ----- -- ----- -- ---- ------<br>--- ----- --- --- ------ -------- ----- --- ------ ----- --<br>----- ----- ---------- --- --- ------ ------ ---- -- ------<br>credit. --- ------ ----- --- ---- ------- -- ---- --- --<br>------- ------,380885.30000000075,380884.5,380557.748,380557.30000000075,380574.16,380891.09,,43,credit.
screen,html.Screen,2_1_1_1_44,2022-05-03T11:27:40.568Z,,,,,,,,,,,,,,,,,54,,,,,,,,,,,,,,200.71000000071945,,response,,,,100,,,,,,,Space,keypress(Space),,,,,,,,-- --- ---- --- ------ ----- ------- ---- -- --- ------- --<br>------- ---------- ------ -- ----- -- ----- -- ---- ------<br>--- ----- --- --- ------ -------- ----- --- ------ ----- --<br>----- ----- ---------- --- --- ------ ------ ---- -- ------<br>------- The ------ ----- --- ---- ------- -- ---- --- --<br>------- ------,381092.09999999776,381091.80000000075,380874.531,380885.5,380891.09,381108.065,,44,The
screen,html.Screen,2_1_1_1_45,2022-05-03T11:27:40.808Z,,,,,,,,,,,,,,,,,54,,,,,,,,,,,,,,224.23500000074273,,response,,,,100,,,,,,,Space,keypress(Space),,,,,,,,-- --- ---- --- ------ ----- ------- ---- -- --- ------- --<br>------- ---------- ------ -- ----- -- ----- -- ---- ------<br>--- ----- --- --- ------ -------- ----- --- ------ ----- --<br>----- ----- ---------- --- --- ------ ------ ---- -- ------<br>------- --- French ----- --- ---- ------- -- ---- --- --<br>------- ------,381332.59999999776,381332.30000000075,381091.418,381092.19999999925,381108.065,381341.65,,45,French
screen,html.Screen,2_1_1_1_46,2022-05-03T11:27:41.090Z,,,,,,,,,,,,,,,,,54,,,,,,,,,,,,,,272.54999999923166,,response,,,,100,,,,,,,Space,keypress(Space),,,,,,,,-- --- ---- --- ------ ----- ------- ---- -- --- ------- --<br>------- ---------- ------ -- ----- -- ----- -- ---- ------<br>--- ----- --- --- ------ -------- ----- --- ------ ----- --<br>----- ----- ---------- --- --- ------ ------ ---- -- ------<br>------- --- ------ state --- ---- ------- -- ---- --- --<br>------- ------,381614.8999999985,381614.19999999925,381325.026,381332.69999999925,381341.65,381625.259,,46,state
screen,html.Screen,2_1_1_1_47,2022-05-03T11:27:41.337Z,,,,,,,,,,,,,,,,,54,,,,,,,,,,,,,,235.64099999848986,,response,,,,100,,,,,,,Space,keypress(Space),,,,,,,,-- --- ---- --- ------ ----- ------- ---- -- --- ------- --<br>------- ---------- ------ -- ----- -- ----- -- ---- ------<br>--- ----- --- --- ------ -------- ----- --- ------ ----- --<br>----- ----- ---------- --- --- ------ ------ ---- -- ------<br>------- --- ------ ----- was ---- ------- -- ---- --- --<br>------- ------,381861.19999999925,381860.8999999985,381608.512,381615.09999999776,381625.259,381875.341,,47,was
screen,html.Screen,2_1_1_1_48,2022-05-03T11:27:41.528Z,,,,,,,,,,,,,,,,,54,,,,,,,,,,,,,,176.35899999924004,,response,,,,100,,,,,,,Space,keypress(Space),,,,,,,,-- --- ---- --- ------ ----- ------- ---- -- --- ------- --<br>------- ---------- ------ -- ----- -- ----- -- ---- ------<br>--- ----- --- --- ------ -------- ----- --- ------ ----- --<br>----- ----- ---------- --- --- ------ ------ ---- -- ------<br>------- --- ------ ----- --- left ------- -- ---- --- --<br>------- ------,382052.09999999776,382051.69999999925,381858.735,381861.30000000075,381875.341,382058.879,,48,left
screen,html.Screen,2_1_1_1_49,2022-05-03T11:27:41.776Z,,,,,,,,,,,,,,,,,54,,,,,,,,,,,,,,241.32099999923958,,response,,,,100,,,,,,,Space,keypress(Space),,,,,,,,-- --- ---- --- ------ ----- ------- ---- -- --- ------- --<br>------- ---------- ------ -- ----- -- ----- -- ---- ------<br>--- ----- --- --- ------ -------- ----- --- ------ ----- --<br>----- ----- ---------- --- --- ------ ------ ---- -- ------<br>------- --- ------ ----- --- ---- without -- ---- --- --<br>------- ------,382301.09999999776,382300.19999999925,382042.264,382052.19999999925,382058.879,382309.213,,49,without
screen,html.Screen,2_1_1_1_50,2022-05-03T11:27:41.930Z,,,,,,,,,,,,,,,,,54,,,,,,,,,,,,,,144.98699999926612,,response,,,,100,,,,,,,Space,keypress(Space),,,,,,,,-- --- ---- --- ------ ----- ------- ---- -- --- ------- --<br>------- ---------- ------ -- ----- -- ----- -- ---- ------<br>--- ----- --- --- ------ -------- ----- --- ------ ----- --<br>----- ----- ---------- --- --- ------ ------ ---- -- ------<br>------- --- ------ ----- --- ---- ------- an ---- --- --<br>------- ------,382455,382454.19999999925,382292.473,382301.30000000075,382309.213,382459.313,,50,an
screen,html.Screen,2_1_1_1_51,2022-05-03T11:27:42.080Z,,,,,,,,,,,,,,,,,54,,,,,,,,,,,,,,144.4870000007213,,response,,,,100,,,,,,,Space,keypress(Space),,,,,,,,-- --- ---- --- ------ ----- ------- ---- -- --- ------- --<br>------- ---------- ------ -- ----- -- ----- -- ---- ------<br>--- ----- --- --- ------ -------- ----- --- ------ ----- --<br>----- ----- ---------- --- --- ------ ------ ---- -- ------<br>------- --- ------ ----- --- ---- ------- -- easy --- --<br>------- ------,382604.19999999925,382603.80000000075,382442.743,382455.19999999925,382459.313,382609.492,,51,easy
screen,html.Screen,2_1_1_1_52,2022-05-03T11:27:42.258Z,,,,,,,,,,,,,,,,,54,,,,,,,,,,,,,,172.10799999773735,,response,,,,100,,,,,,,Space,keypress(Space),,,,,,,,-- --- ---- --- ------ ----- ------- ---- -- --- ------- --<br>------- ---------- ------ -- ----- -- ----- -- ---- ------<br>--- ----- --- --- ------ -------- ----- --- ------ ----- --<br>----- ----- ---------- --- --- ------ ------ ---- -- ------<br>------- --- ------ ----- --- ---- ------- -- ---- way --<br>------- ------,382782.19999999925,382781.59999999776,382592.904,382604.30000000075,382609.492,382793.015,,52,way
screen,html.Screen,2_1_1_1_53,2022-05-03T11:27:42.624Z,,,,,,,,,,,,,,,,,54,,,,,,,,,,,,,,354.98499999998603,,response,,,,100,,,,,,,Space,keypress(Space),,,,,,,,-- --- ---- --- ------ ----- ------- ---- -- --- ------- --<br>------- ---------- ------ -- ----- -- ----- -- ---- ------<br>--- ----- --- --- ------ -------- ----- --- ------ ----- --<br>----- ----- ---------- --- --- ------ ------ ---- -- ------<br>------- --- ------ ----- --- ---- ------- -- ---- --- of<br>------- ------,383148.5,383148,382776.335,382782.30000000075,382793.015,383160.116,,53,of
screen,html.Screen,2_1_1_1_54,2022-05-03T11:27:42.944Z,,,,,,,,,,,,,,,,,54,,,,,,,,,,,,,,307.58399999927497,,response,,,,100,,,,,,,Space,keypress(Space),,,,,,,,-- --- ---- --- ------ ----- ------- ---- -- --- ------- --<br>------- ---------- ------ -- ----- -- ----- -- ---- ------<br>--- ----- --- --- ------ -------- ----- --- ------ ----- --<br>----- ----- ---------- --- --- ------ ------ ---- -- ------<br>------- --- ------ ----- --- ---- ------- -- ---- --- --<br>raising ------,383468.09999999776,383467.69999999925,383143.299,383148.69999999925,383160.116,383477.122,,54,raising
screen,html.Screen,2_1_1_1_55,2022-05-03T11:27:43.288Z,,,,,,,,,,,,,,,,,54,,,,,,,,,,,,,,334.577999999281,,response,,,,100,,,,,,,Space,keypress(Space),,,,,,,,-- --- ---- --- ------ ----- ------- ---- -- --- ------- --<br>------- ---------- ------ -- ----- -- ----- -- ---- ------<br>--- ----- --- --- ------ -------- ----- --- ------ ----- --<br>----- ----- ---------- --- --- ------ ------ ---- -- ------<br>------- --- ------ ----- --- ---- ------- -- ---- --- --<br>------- money.,383812.09999999776,383811.69999999925,383460.315,383468.19999999925,383477.122,383827.506,,55,money.
Item 100,flow.Loop,2_1_1_1,2022-05-03T11:27:43.288Z,,,,,,,,,,,,,,,,,,,,,,,,,,,,,,,13914.900999999256,,completion,,,,,H,,,,,,,,,,,silence,,,,,383812.30000000075,383811.69999999925,369880.284,369881.3999999985,369896.799,383827.506,,,
Question 1,html.Screen,2_1_1_2,2022-05-03T11:27:46.488Z,,,,,,,,,,,,,,,,,,,,,,,,,,,,true,TRUE,,3184.193999999261,,response,,,,100,H,,,,,,TRUE,click #choice-1,,,,silence,,,,,387012.19999999925,387011.69999999925,383810.616,383812.30000000075,383827.506,387013.802,,,
Question 2,html.Screen,2_1_1_3,2022-05-03T11:27:48.375Z,,,,,,,,,,,,,,,,,,,,,,,,,,,,true,FALSE,,1885.5979999984847,,response,,,,100,H,,,,,,FALSE,click #choice-2,,,,silence,,,,,388899.8999999985,388899.3999999985,386997.346,387012.30000000075,387013.802,388915.807,,,
Item 100,flow.Sequence,2_1_1,2022-05-03T11:27:48.376Z,,,,,,,,,,,,,,,,,,,,,,,,,,,,,,,28995.97499999852,,completion,,,,,,,,,,,,,,,,,,,,,388900.09999999776,388899.3999999985,359886.936,359900.59999999776,359903.425,388915.807,,,
End of Practice,html.Page,2_1_2,2022-05-03T11:28:08.378Z,,,,,,,,,,,,,,,,,,,,,,,,,,,,,,,20003.27800000005,,timeout,,,,,,,,,,,,,,,,,,,,,408902.8999999985,408902.489,388899.047,388900.19999999925,388915.807,408919.085,,,
Practice,flow.Sequence,2_1,2022-05-03T11:28:08.378Z,,,,,,,,,,,,,,,,,,,,,,,,,,,,,,,83750.39299999998,,completion,,,,,,,,,,,,,,,,,,,,,408903,408902.489,325135.405,325148.30000000075,325152.096,408919.085,,,
Trap_instruction,html.Page,2_2_0,2022-05-03T11:28:16.464Z,,,,,,,,,,,,,,,,,,,,,,,,,,,,,,,8069.215000000724,,form submission,,,,,,,,,,,,,,,,,,,,,416988.5,416988.30000000075,408902.489,408903.09999999776,408919.085,416993.706,,,
trap_trial,html.Screen,2_2_1,2022-05-03T11:28:19.079Z,,,,,,,,,,,,,,,,,,,,,,,,,,,,true,1,,2609.5940000007395,,response,,,,,,,,,,,1,click #choice-1,,,,,,,,,419603.80000000075,419603.30000000075,416977.037,416988.59999999776,416993.706,419612.975,,,
end of trap trial,html.Page,2_2_2,2022-05-03T11:28:21.080Z,,,,,,,,,,,,,,,,,,,,,,,,,,,,,,,1991.0250000000233,,form submission,,,,,,,,,,,,,,,,,,,,,421604.30000000075,421604,419596.318,419603.8999999985,419612.975,421614.963,,,
Trap 1,flow.Sequence,2_2,2022-05-03T11:28:21.080Z,,,,,,,,,,,,,,,,,,,,,,,,,,,,,,,12684.914999999979,,completion,,,,,,,,,,,,,,,,,,,,,421604.30000000075,421604,408902.489,408903,408919.085,421614.963,,,
Standby,html.Page,2_3_0,2022-05-03T11:28:29.082Z,,,,,,,,,,,,,,,,,,,,,,,,,,,,,,,8007.960000000021,,timeout,,,,,,,,,,,,,,,,,,,,,429606.5,429606.226,421598.24,421604.3999999985,421614.963,429622.923,,,
Holding screen,html.Screen,2_3_1_0_0,2022-05-03T11:28:36.089Z,,,,,,,,,,,,,,,,,,,,,,,,,,,,,,,7007.034999999974,,timeout,,,,,,,,,,,,,,,,,,,,,436613.69999999925,436613.221,429606.226,429606.69999999925,429622.923,436629.958,,,
screen,html.Screen,2_3_1_0_1_0,2022-05-03T11:28:38.000Z,,,,,,,,,,,,,,,,,51,,,,,,,,,,,,,,1893.6419999977807,,response,,,,13,H,,,,,,Space,keypress(Space),,,,speech,,,,American -------- --- --- ---- --- --- ------ -- --------<br>---- --------- --- ------- ------------ ---------- ---------<br>--- ---------- ------- ---------- ------- -- -------- ----<br>---- --- ------ ----- ------ -- ---- --- ----- -- - -------<br>-------- -- --- --- -- ----- ----------- ----- -----------<br>---- --- ---------- --- ---- --- -- ----------,438524.5,438523.59999999776,436613.221,436613.80000000075,436629.958,438531.827,,0,American
screen,html.Screen,2_3_1_0_1_1,2022-05-03T11:28:38.399Z,,,,,,,,,,,,,,,,,51,,,,,,,,,,,,,,391.57299999851966,,response,,,,13,H,,,,,,Space,keypress(Space),,,,speech,,,,-------- industry --- --- ---- --- --- ------ -- --------<br>---- --------- --- ------- ------------ ---------- ---------<br>--- ---------- ------- ---------- ------- -- -------- ----<br>---- --- ------ ----- ------ -- ---- --- ----- -- - -------<br>-------- -- --- --- -- ----- ----------- ----- -----------<br>---- --- ---------- --- ---- --- -- ----------,438923.8999999985,438923.3999999985,438515.109,438524.59999999776,438531.827,438932.226,,1,industry
screen,html.Screen,2_3_1_0_1_2,2022-05-03T11:28:38.687Z,,,,,,,,,,,,,,,,,51,,,,,,,,,,,,,,279.2739999999758,,response,,,,13,H,,,,,,Space,keypress(Space),,,,speech,,,,-------- -------- may --- ---- --- --- ------ -- --------<br>---- --------- --- ------- ------------ ---------- ---------<br>--- ---------- ------- ---------- ------- -- -------- ----<br>---- --- ------ ----- ------ -- ---- --- ----- -- - -------<br>-------- -- --- --- -- ----- ----------- ----- -----------<br>---- --- ---------- --- ---- --- -- ----------,439212,439211.5,438915.567,438924.09999999776,438932.226,439215.886,,2,may
screen,html.Screen,2_3_1_0_1_3,2022-05-03T11:28:38.911Z,,,,,,,,,,,,,,,,,51,,,,,,,,,,,,,,219.6140000000014,,response,,,,13,H,,,,,,Space,keypress(Space),,,,speech,,,,-------- -------- --- not ---- --- --- ------ -- --------<br>---- --------- --- ------- ------------ ---------- ---------<br>--- ---------- ------- ---------- ------- -- -------- ----<br>---- --- ------ ----- ------ -- ---- --- ----- -- - -------<br>-------- -- --- --- -- ----- ----------- ----- -----------<br>---- --- ---------- --- ---- --- -- ----------,439435.80000000075,439435.5,439199.18,439212.09999999776,439215.886,439449.469,,3,not
screen,html.Screen,2_3_1_0_1_4,2022-05-03T11:28:39.111Z,,,,,,,,,,,,,,,,,51,,,,,,,,,,,,,,186.03100000001723,,response,,,,13,H,,,,,,Space,keypress(Space),,,,speech,,,,-------- -------- --- --- know --- --- ------ -- --------<br>---- --------- --- ------- ------------ ---------- ---------<br>--- ---------- ------- ---------- ------- -- -------- ----<br>---- --- ------ ----- ------ -- ---- --- ----- -- - -------<br>-------- -- --- --- -- ----- ----------- ----- -----------<br>---- --- ---------- --- ---- --- -- ----------,439635.80000000075,439635.5,439432.799,439435.80000000075,439449.469,439649.667,,4,know
screen,html.Screen,2_3_1_0_1_5,2022-05-03T11:28:39.359Z,,,,,,,,,,,,,,,,,51,,,,,,,,,,,,,,233.73299999849405,,response,,,,13,H,,,,,,Space,keypress(Space),,,,speech,,,,"-------- -------- --- --- ---- it, --- ------ -- --------<br>---- --------- --- ------- ------------ ---------- ---------<br>--- ---------- ------- ---------- ------- -- -------- ----<br>---- --- ------ ----- ------ -- ---- --- ----- -- - -------<br>-------- -- --- --- -- ----- ----------- ----- -----------<br>---- --- ---------- --- ---- --- -- ----------",439883.80000000075,439883.3999999985,439632.897,439635.8999999985,439649.667,439899.964,,5,"it,"
screen,html.Screen,2_3_1_0_1_6,2022-05-03T11:28:39.663Z,,,,,,,,,,,,,,,,,51,,,,,,,,,,,,,,287.6359999977867,,response,,,,13,H,,,,,,Space,keypress(Space),,,,speech,,,,-------- -------- --- --- ---- --- but ------ -- --------<br>---- --------- --- ------- ------------ ---------- ---------<br>--- ---------- ------- ---------- ------- -- -------- ----<br>---- --- ------ ----- ------ -- ---- --- ----- -- - -------<br>-------- -- --- --- -- ----- ----------- ----- -----------<br>---- --- ---------- --- ---- --- -- ----------,440188,440187.59999999776,439883.172,439883.8999999985,439899.964,440200.144,,6,but
screen,html.Screen,2_3_1_0_1_7,2022-05-03T11:28:39.927Z,,,,,,,,,,,,,,,,,51,,,,,,,,,,,,,,251.35600000002887,,response,,,,13,H,,,,,,Space,keypress(Space),,,,speech,,,,-------- -------- --- --- ---- --- --- debate -- --------<br>---- --------- --- ------- ------------ ---------- ---------<br>--- ---------- ------- ---------- ------- -- -------- ----<br>---- --- ------ ----- ------ -- ---- --- ----- -- - -------<br>-------- -- --- --- -- ----- ----------- ----- -----------<br>---- --- ---------- --- ---- --- -- ----------,440451.80000000075,440451.5,440183.449,440188.09999999776,440200.144,440467.067,,7,debate
screen,html.Screen,2_3_1_0_1_8,2022-05-03T11:28:40.151Z,,,,,,,,,,,,,,,,,51,,,,,,,,,,,,,,208.4330000000191,,response,,,,13,H,,,,,,Space,keypress(Space),,,,speech,,,,-------- -------- --- --- ---- --- --- ------ in --------<br>---- --------- --- ------- ------------ ---------- ---------<br>--- ---------- ------- ---------- ------- -- -------- ----<br>---- --- ------ ----- ------ -- ---- --- ----- -- - -------<br>-------- -- --- --- -- ----- ----------- ----- -----------<br>---- --- ---------- --- ---- --- -- ----------,440675.80000000075,440675.5,440450.399,440451.8999999985,440467.067,440683.959,,8,in
screen,html.Screen,2_3_1_0_1_9,2022-05-03T11:28:40.735Z,,,,,,,,,,,,,,,,,51,,,,,,,,,,,,,,575.5410000000265,,response,,,,13,H,,,,,,Space,keypress(Space),,,,speech,,,,-------- -------- --- --- ---- --- --- ------ -- Congress<br>---- --------- --- ------- ------------ ---------- ---------<br>--- ---------- ------- ---------- ------- -- -------- ----<br>---- --- ------ ----- ------ -- ---- --- ----- -- - -------<br>-------- -- --- --- -- ----- ----------- ----- -----------<br>---- --- ---------- --- ---- --- -- ----------,441259.8999999985,441259.5,440667.345,440675.8999999985,440683.959,441267.911,,9,Congress
screen,html.Screen,2_3_1_0_1_10,2022-05-03T11:28:40.991Z,,,,,,,,,,,,,,,,,51,,,,,,,,,,,,,,247.488999998488,,response,,,,13,H,,,,,,Space,keypress(Space),,,,speech,,,,-------- -------- --- --- ---- --- --- ------ -- --------<br>over --------- --- ------- ------------ ---------- ---------<br>--- ---------- ------- ---------- ------- -- -------- ----<br>---- --- ------ ----- ------ -- ---- --- ----- -- - -------<br>-------- -- --- --- -- ----- ----------- ----- -----------<br>---- --- ---------- --- ---- --- -- ----------,441515.8999999985,441515.3999999985,441251.175,441259.8999999985,441267.911,441518.099,,10,over
screen,html.Screen,2_3_1_0_1_11,2022-05-03T11:28:41.231Z,,,,,,,,,,,,,,,,,51,,,,,,,,,,,,,,237.40100000001257,,response,,,,13,H,,,,,,Space,keypress(Space),,,,speech,,,,-------- -------- --- --- ---- --- --- ------ -- --------<br>---- reforming --- ------- ------------ ---------- ---------<br>--- ---------- ------- ---------- ------- -- -------- ----<br>---- --- ------ ----- ------ -- ---- --- ----- -- - -------<br>-------- -- --- --- -- ----- ----------- ----- -----------<br>---- --- ---------- --- ---- --- -- ----------,441755.8999999985,441755.5,441501.519,441515.8999999985,441518.099,441768.4,,11,reforming
screen,html.Screen,2_3_1_0_1_12,2022-05-03T11:28:41.440Z,,,,,,,,,,,,,,,,,51,,,,,,,,,,,,,,196.09999999997672,,response,,,,13,H,,,,,,Space,keypress(Space),,,,speech,,,,-------- -------- --- --- ---- --- --- ------ -- --------<br>---- --------- the ------- ------------ ---------- ---------<br>--- ---------- ------- ---------- ------- -- -------- ----<br>---- --- ------ ----- ------ -- ---- --- ----- -- - -------<br>-------- -- --- --- -- ----- ----------- ----- -----------<br>---- --- ---------- --- ---- --- -- ----------,441965,441964.5,441751.771,441756,441768.4,441968.634,,12,the
screen,html.Screen,2_3_1_0_1_13,2022-05-03T11:28:41.791Z,,,,,,,,,,,,,,,,,51,,,,,,,,,,,,,,346.9659999977448,,response,,,,13,H,,,,,,Space,keypress(Space),,,,speech,,,,-------- -------- --- --- ---- --- --- ------ -- --------<br>---- --------- --- federal ------------ ---------- ---------<br>--- ---------- ------- ---------- ------- -- -------- ----<br>---- --- ------ ----- ------ -- ---- --- ----- -- - -------<br>-------- -- --- --- -- ----- ----------- ----- -----------<br>---- --- ---------- --- ---- --- -- ----------,442316,442315.59999999776,441951.954,441965,441968.634,442319.137,,13,federal
screen,html.Screen,2_3_1_0_1_14,2022-05-03T11:28:42.007Z,,,,,,,,,,,,,,,,,51,,,,,,,,,,,,,,212.262999998522,,response,,,,13,H,,,,,,Space,keypress(Space),,,,speech,,,,-------- -------- --- --- ---- --- --- ------ -- --------<br>---- --------- --- ------- government's ---------- ---------<br>--- ---------- ------- ---------- ------- -- -------- ----<br>---- --- ------ ----- ------ -- ---- --- ----- -- - -------<br>-------- -- --- --- -- ----- ----------- ----- -----------<br>---- --- ---------- --- ---- --- -- ----------,442532,442531.3999999985,442302.275,442316,442319.137,442535.872,,14,government's
screen,html.Screen,2_3_1_0_1_15,2022-05-03T11:28:42.263Z,,,,,,,,,,,,,,,,,51,,,,,,,,,,,,,,251.7279999977909,,response,,,,13,H,,,,,,Space,keypress(Space),,,,speech,,,,-------- -------- --- --- ---- --- --- ------ -- --------<br>---- --------- --- ------- ------------ regulatory ---------<br>--- ---------- ------- ---------- ------- -- -------- ----<br>---- --- ------ ----- ------ -- ---- --- ----- -- - -------<br>-------- -- --- --- -- ----- ----------- ----- -----------<br>---- --- ---------- --- ---- --- -- ----------,442788,442787.59999999776,442519.185,442532.09999999776,442535.872,442802.751,,15,regulatory
screen,html.Screen,2_3_1_0_1_16,2022-05-03T11:28:42.551Z,,,,,,,,,,,,,,,,,51,,,,,,,,,,,,,,272.6489999985206,,response,,,,13,H,,,,,,Space,keypress(Space),,,,speech,,,,-------- -------- --- --- ---- --- --- ------ -- --------<br>---- --------- --- ------- ------------ ---------- apparatus<br>--- ---------- ------- ---------- ------- -- -------- ----<br>---- --- ------ ----- ------ -- ---- --- ----- -- - -------<br>-------- -- --- --- -- ----- ----------- ----- -----------<br>---- --- ---------- --- ---- --- -- ----------,443075.8999999985,443075.3999999985,442786.134,442788.09999999776,442802.751,443086.341,,16,apparatus
screen,html.Screen,2_3_1_0_1_17,2022-05-03T11:28:42.863Z,,,,,,,,,,,,,,,,,51,,,,,,,,,,,,,,301.1589999999851,,response,,,,13,H,,,,,,Space,keypress(Space),,,,speech,,,,-------- -------- --- --- ---- --- --- ------ -- --------<br>---- --------- --- ------- ------------ ---------- ---------<br>may ---------- ------- ---------- ------- -- -------- ----<br>---- --- ------ ----- ------ -- ---- --- ----- -- - -------<br>-------- -- --- --- -- ----- ----------- ----- -----------<br>---- --- ---------- --- ---- --- -- ----------,443387.8999999985,443387.5,443069.65,443076,443086.341,443403.334,,17,may
screen,html.Screen,2_3_1_0_1_18,2022-05-03T11:28:43.079Z,,,,,,,,,,,,,,,,,51,,,,,,,,,,,,,,200.06599999853643,,response,,,,13,H,,,,,,Space,keypress(Space),,,,speech,,,,-------- -------- --- --- ---- --- --- ------ -- --------<br>---- --------- --- ------- ------------ ---------- ---------<br>--- profoundly ------- ---------- ------- -- -------- ----<br>---- --- ------ ----- ------ -- ---- --- ----- -- - -------<br>-------- -- --- --- -- ----- ----------- ----- -----------<br>---- --- ---------- --- ---- --- -- ----------,443603.69999999925,443603.3999999985,443386.725,443388,443403.334,443620.296,,18,profoundly
screen,html.Screen,2_3_1_0_1_19,2022-05-03T11:28:43.255Z,,,,,,,,,,,,,,,,,51,,,,,,,,,,,,,,159.204000000027,,response,,,,13,H,,,,,,Space,keypress(Space),,,,speech,,,,-------- -------- --- --- ---- --- --- ------ -- --------<br>---- --------- --- ------- ------------ ---------- ---------<br>--- ---------- improve ---------- ------- -- -------- ----<br>---- --- ------ ----- ------ -- ---- --- ----- -- - -------<br>-------- -- --- --- -- ----- ----------- ----- -----------<br>---- --- ---------- --- ---- --- -- ----------,443779.8999999985,443779.5,443603.599,443603.80000000075,443620.296,443787.058,,19,improve
screen,html.Screen,2_3_1_0_1_20,2022-05-03T11:28:43.519Z,,,,,,,,,,,,,,,,,51,,,,,,,,,,,,,,256.3419999984908,,response,,,,13,H,,,,,,Space,keypress(Space),,,,speech,,,,-------- -------- --- --- ---- --- --- ------ -- --------<br>---- --------- --- ------- ------------ ---------- ---------<br>--- ---------- ------- companies' ------- -- -------- ----<br>---- --- ------ ----- ------ -- ---- --- ----- -- - -------<br>-------- -- --- --- -- ----- ----------- ----- -----------<br>---- --- ---------- --- ---- --- -- ----------,444043.8999999985,444043.3999999985,443770.374,443779.8999999985,443787.058,444053.954,,20,companies'
screen,html.Screen,2_3_1_0_1_21,2022-05-03T11:28:43.791Z,,,,,,,,,,,,,,,,,51,,,,,,,,,,,,,,261.4459999984829,,response,,,,13,H,,,,,,Space,keypress(Space),,,,speech,,,,-------- -------- --- --- ---- --- --- ------ -- --------<br>---- --------- --- ------- ------------ ---------- ---------<br>--- ---------- ------- ---------- ability -- -------- ----<br>---- --- ------ ----- ------ -- ---- --- ----- -- - -------<br>-------- -- --- --- -- ----- ----------- ----- -----------<br>---- --- ---------- --- ---- --- -- ----------,444315.80000000075,444315.3999999985,444037.307,444043.8999999985,444053.954,444320.89,,21,ability
screen,html.Screen,2_3_1_0_1_22,2022-05-03T11:28:44.031Z,,,,,,,,,,,,,,,,,51,,,,,,,,,,,,,,234.60999999998603,,response,,,,13,H,,,,,,Space,keypress(Space),,,,speech,,,,-------- -------- --- --- ---- --- --- ------ -- --------<br>---- --------- --- ------- ------------ ---------- ---------<br>--- ---------- ------- ---------- ------- to -------- ----<br>---- --- ------ ----- ------ -- ---- --- ----- -- - -------<br>-------- -- --- --- -- ----- ----------- ----- -----------<br>---- --- ---------- --- ---- --- -- ----------,444555.8999999985,444555.5,444304.302,444315.8999999985,444320.89,444571.164,,22,to
screen,html.Screen,2_3_1_0_1_23,2022-05-03T11:28:44.247Z,,,,,,,,,,,,,,,,,51,,,,,,,,,,,,,,200.33600000001024,,response,,,,13,H,,,,,,Space,keypress(Space),,,,speech,,,,-------- -------- --- --- ---- --- --- ------ -- --------<br>---- --------- --- ------- ------------ ---------- ---------<br>--- ---------- ------- ---------- ------- -- survive. ----<br>---- --- ------ ----- ------ -- ---- --- ----- -- - -------<br>-------- -- --- --- -- ----- ----------- ----- -----------<br>---- --- ---------- --- ---- --- -- ----------,444772.09999999776,444771.5,444554.546,444555.8999999985,444571.164,444788.139,,23,survive.
screen,html.Screen,2_3_1_0_1_24,2022-05-03T11:28:44.728Z,,,,,,,,,,,,,,,,,51,,,,,,,,,,,,,,463.3609999999753,,response,,,,13,H,,,,,,Space,keypress(Space),,,,speech,,,,-------- -------- --- --- ---- --- --- ------ -- --------<br>---- --------- --- ------- ------------ ---------- ---------<br>--- ---------- ------- ---------- ------- -- -------- This<br>---- --- ------ ----- ------ -- ---- --- ----- -- - -------<br>-------- -- --- --- -- ----- ----------- ----- -----------<br>---- --- ---------- --- ---- --- -- ----------,445252.30000000075,445251.5,444771.428,444772.09999999776,444788.139,445255.21,,24,This
screen,html.Screen,2_3_1_0_1_25,2022-05-03T11:28:44.999Z,,,,,,,,,,,,,,,,,51,,,,,,,,,,,,,,268.18999999848893,,response,,,,13,H,,,,,,Space,keypress(Space),,,,speech,,,,-------- -------- --- --- ---- --- --- ------ -- --------<br>---- --------- --- ------- ------------ ---------- ---------<br>--- ---------- ------- ---------- ------- -- -------- ----<br>week --- ------ ----- ------ -- ---- --- ----- -- - -------<br>-------- -- --- --- -- ----- ----------- ----- -----------<br>---- --- ---------- --- ---- --- -- ----------,445523.80000000075,445523.3999999985,445238.528,445252.3999999985,445255.21,445538.872,,25,week
screen,html.Screen,2_3_1_0_1_26,2022-05-03T11:28:45.263Z,,,,,,,,,,,,,,,,,51,,,,,,,,,,,,,,248.62800000002608,,response,,,,13,H,,,,,,Space,keypress(Space),,,,speech,,,,-------- -------- --- --- ---- --- --- ------ -- --------<br>---- --------- --- ------- ------------ ---------- ---------<br>--- ---------- ------- ---------- ------- -- -------- ----<br>---- the ------ ----- ------ -- ---- --- ----- -- - -------<br>-------- -- --- --- -- ----- ----------- ----- -----------<br>---- --- ---------- --- ---- --- -- ----------,445787.8999999985,445787.5,445522.171,445523.80000000075,445538.872,445813.537,,26,the
screen,html.Screen,2_3_1_0_1_27,2022-05-03T11:28:45.479Z,,,,,,,,,,,,,,,,,51,,,,,,,,,,,,,,189.8629999984987,,response,,,,13,H,,,,,,Space,keypress(Space),,,,speech,,,,-------- -------- --- --- ---- --- --- ------ -- --------<br>---- --------- --- ------- ------------ ---------- ---------<br>--- ---------- ------- ---------- ------- -- -------- ----<br>---- --- Senate ----- ------ -- ---- --- ----- -- - -------<br>-------- -- --- --- -- ----- ----------- ----- -----------<br>---- --- ---------- --- ---- --- -- ----------,446003.69999999925,446003.3999999985,445772.402,445787.8999999985,445813.537,446005.981,,27,Senate
screen,html.Screen,2_3_1_0_1_28,2022-05-03T11:28:45.735Z,,,,,,,,,,,,,,,,,51,,,,,,,,,,,,,,253.418999998481,,response,,,,13,H,,,,,,Space,keypress(Space),,,,speech,,,,-------- -------- --- --- ---- --- --- ------ -- --------<br>---- --------- --- ------- ------------ ---------- ---------<br>--- ---------- ------- ---------- ------- -- -------- ----<br>---- --- ------ seems ------ -- ---- --- ----- -- - -------<br>-------- -- --- --- -- ----- ----------- ----- -----------<br>---- --- ---------- --- ---- --- -- ----------,446259.8999999985,446259.3999999985,445989.276,446003.80000000075,446005.981,446272.901,,28,seems
screen,html.Screen,2_3_1_0_1_29,2022-05-03T11:28:46.119Z,,,,,,,,,,,,,,,,,51,,,,,,,,,,,,,,370.5989999999874,,response,,,,13,H,,,,,,Space,keypress(Space),,,,speech,,,,-------- -------- --- --- ---- --- --- ------ -- --------<br>---- --------- --- ------- ------------ ---------- ---------<br>--- ---------- ------- ---------- ------- -- -------- ----<br>---- --- ------ ----- poised -- ---- --- ----- -- - -------<br>-------- -- --- --- -- ----- ----------- ----- -----------<br>---- --- ---------- --- ---- --- -- ----------,446643.8999999985,446643.5,446256.261,446260,446272.901,446656.573,,29,poised
screen,html.Screen,2_3_1_0_1_30,2022-05-03T11:28:46.319Z,,,,,,,,,,,,,,,,,51,,,,,,,,,,,,,,186.7270000007702,,response,,,,13,H,,,,,,Space,keypress(Space),,,,speech,,,,-------- -------- --- --- ---- --- --- ------ -- --------<br>---- --------- --- ------- ------------ ---------- ---------<br>--- ---------- ------- ---------- ------- -- -------- ----<br>---- --- ------ ----- ------ to ---- --- ----- -- - -------<br>-------- -- --- --- -- ----- ----------- ----- -----------<br>---- --- ---------- --- ---- --- -- ----------,446843.80000000075,446843.30000000075,446639.987,446644,446656.573,446856.748,,30,to
screen,html.Screen,2_3_1_0_1_31,2022-05-03T11:28:46.559Z,,,,,,,,,,,,,,,,,51,,,,,,,,,,,,,,226.65199999848846,,response,,,,13,H,,,,,,Space,keypress(Space),,,,speech,,,,-------- -------- --- --- ---- --- --- ------ -- --------<br>---- --------- --- ------- ------------ ---------- ---------<br>--- ---------- ------- ---------- ------- -- -------- ----<br>---- --- ------ ----- ------ -- join --- ----- -- - -------<br>-------- -- --- --- -- ----- ----------- ----- -----------<br>---- --- ---------- --- ---- --- -- ----------,447083.8999999985,447083.3999999985,446840.106,446844,446856.748,447090.396,,31,join
screen,html.Screen,2_3_1_0_1_32,2022-05-03T11:28:46.767Z,,,,,,,,,,,,,,,,,51,,,,,,,,,,,,,,201.10399999999208,,response,,,,13,H,,,,,,Space,keypress(Space),,,,speech,,,,-------- -------- --- --- ---- --- --- ------ -- --------<br>---- --------- --- ------- ------------ ---------- ---------<br>--- ---------- ------- ---------- ------- -- -------- ----<br>---- --- ------ ----- ------ -- ---- the ----- -- - -------<br>-------- -- --- --- -- ----- ----------- ----- -----------<br>---- --- ---------- --- ---- --- -- ----------,447292,447291.5,447073.74,447083.8999999985,447090.396,447307.259,,32,the
screen,html.Screen,2_3_1_0_1_33,2022-05-03T11:28:46.959Z,,,,,,,,,,,,,,,,,51,,,,,,,,,,,,,,176.04100000072503,,response,,,,13,H,,,,,,Space,keypress(Space),,,,speech,,,,-------- -------- --- --- ---- --- --- ------ -- --------<br>---- --------- --- ------- ------------ ---------- ---------<br>--- ---------- ------- ---------- ------- -- -------- ----<br>---- --- ------ ----- ------ -- ---- --- House -- - -------<br>-------- -- --- --- -- ----- ----------- ----- -----------<br>---- --- ---------- --- ---- --- -- ----------,447483.80000000075,447483.30000000075,447290.58,447292,447307.259,447490.743,,33,House
screen,html.Screen,2_3_1_0_1_34,2022-05-03T11:28:47.183Z,,,,,,,,,,,,,,,,,51,,,,,,,,,,,,,,216.85699999774806,,response,,,,13,H,,,,,,Space,keypress(Space),,,,speech,,,,-------- -------- --- --- ---- --- --- ------ -- --------<br>---- --------- --- ------- ------------ ---------- ---------<br>--- ---------- ------- ---------- ------- -- -------- ----<br>---- --- ------ ----- ------ -- ---- --- ----- in - -------<br>-------- -- --- --- -- ----- ----------- ----- -----------<br>---- --- ---------- --- ---- --- -- ----------,447708.09999999776,447707.59999999776,447474.138,447483.8999999985,447490.743,447724.331,,34,in
screen,html.Screen,2_3_1_0_1_35,2022-05-03T11:28:47.391Z,,,,,,,,,,,,,,,,,51,,,,,,,,,,,,,,191.0689999985043,,response,,,,13,H,,,,,,Space,keypress(Space),,,,speech,,,,-------- -------- --- --- ---- --- --- ------ -- --------<br>---- --------- --- ------- ------------ ---------- ---------<br>--- ---------- ------- ---------- ------- -- -------- ----<br>---- --- ------ ----- ------ -- ---- --- ----- -- a -------<br>-------- -- --- --- -- ----- ----------- ----- -----------<br>---- --- ---------- --- ---- --- -- ----------,447915.80000000075,447915.3999999985,447707.689,447708.09999999776,447724.331,447924.578,,35,a
screen,html.Screen,2_3_1_0_1_36,2022-05-03T11:28:47.567Z,,,,,,,,,,,,,,,,,51,,,,,,,,,,,,,,167.02199999778531,,response,,,,13,H,,,,,,Space,keypress(Space),,,,speech,,,,-------- -------- --- --- ---- --- --- ------ -- --------<br>---- --------- --- ------- ------------ ---------- ---------<br>--- ---------- ------- ---------- ------- -- -------- ----<br>---- --- ------ ----- ------ -- ---- --- ----- -- - massive<br>-------- -- --- --- -- ----- ----------- ----- -----------<br>---- --- ---------- --- ---- --- -- ----------,448091.80000000075,448091.59999999776,447907.917,447915.8999999985,447924.578,448108.022,,36,massive
screen,html.Screen,2_3_1_0_1_37,2022-05-03T11:28:47.648Z,,,,,,,,,,,,,,,,,51,,,,,,,,,,,,,,63.57799999776762,,response,,,,13,H,,,,,,Space,keypress(Space),,,,speech,,,,-------- -------- --- --- ---- --- --- ------ -- --------<br>---- --------- --- ------- ------------ ---------- ---------<br>--- ---------- ------- ---------- ------- -- -------- ----<br>---- --- ------ ----- ------ -- ---- --- ----- -- - -------<br>overhaul -- --- --- -- ----- ----------- ----- -----------<br>---- --- ---------- --- ---- --- -- ----------,448172.09999999776,448171.59999999776,448091.346,448091.8999999985,448108.022,448174.784,,37,overhaul
screen,html.Screen,2_3_1_0_1_38,2022-05-03T11:28:47.863Z,,,,,,,,,,,,,,,,,51,,,,,,,,,,,,,,212.81599999777973,,response,,,,13,H,,,,,,Space,keypress(Space),,,,speech,,,,-------- -------- --- --- ---- --- --- ------ -- --------<br>---- --------- --- ------- ------------ ---------- ---------<br>--- ---------- ------- ---------- ------- -- -------- ----<br>---- --- ------ ----- ------ -- ---- --- ----- -- - -------<br>-------- of --- --- -- ----- ----------- ----- -----------<br>---- --- ---------- --- ---- --- -- ----------,448388,448387.59999999776,448158.109,448172.19999999925,448174.784,448391.709,,38,of
