sender,sender_type,sender_id,timestamp,meta,,Blues,Classical,Country,Dance,Electronic,Folk,Gospel,Hip-Hop,Jazz,Latin,Musical/Film,New-age,Pop,Prolific_id,Provo_ID,R&B,Rap,Reggae,Religious,Rock,Soul,Swing,Traditional,age,artist_name,correct,correctResponse,distraction,duration,education,ended_on,familiarity,gender,headphone_check_performance,item,list,music_frequency,offensiveness,pleasantness,position_correct,preference,response,response_action,snippet_file,song_name,song_rating,sound,stimulus_1,stimulus_2,stimulus_3,text,time_commit,time_end,time_render,time_run,time_show,time_switch,url,word,word_ID
Prolific ID,html.Form,0,2022-05-02T15:16:29.522Z,"{""labjs_version"":""20.2.2"",""labjs_build"":{""flavor"":""production"",""commit"":""a25486e0c714a0ae2ce03ff94b7bb6896854dcfa""},""location"":""https://run.pavlovia.org/mvasilev/prolific3_music_g/"",""userAgent"":""Mozilla/5.0 (Windows NT 10.0; Win64; x64) AppleWebKit/537.36 (KHTML, like Gecko) Chrome/100.0.4896.127 Safari/537.36"",""platform"":""Win32"",""language"":""en-GB"",""locale"":""en-GB"",""timeZone"":""Europe/London"",""timezoneOffset"":-60,""screen_width"":1360,""screen_height"":768,""scroll_width"":1360,""scroll_height"":609,""window_innerWidth"":1360,""window_innerHeight"":657,""devicePixelRatio"":1}",,,,,,,,,,,,,,,57b28526f6b9390001af1edd,,,,,,,,,,,,,,,10670.21700004769,,form submission,,,,,,,,,,,,,,,,,,,,,88826.5,88825.70000004768,78071.791,71782.5,78155.483,88854.674,{},,
Introduction,html.Screen,1_0,2022-05-02T15:16:38.208Z,,,,,,,,,,,,,,,,,,,,,,,,,,,,,,,8655.226000095368,,response,,,,,,,,,,,continue,click button,,,,,,,,,97513.20000004768,97509.90000009537,88804.807,88828.29999995232,88854.674,97537.527,,,
Volume calibration,html.Screen,1_1,2022-05-02T15:17:10.066Z,,,,,,,,,,,,,,,,,,,,,,,,,,,,,,,31827.07300014305,,response,,,,,,,,,,,continue,click button,,,,,,,,,129371.5,129364.60000014305,97504.409,97513.29999995232,97537.527,129369.392,,,
Task instructions,html.Screen,1_2,2022-05-02T15:17:22.486Z,,,,,,,,,,,,,,,,,,,,,,,,,,,,,,,12418.808000047677,,response,,,,,,,,,,,continue,click button,,,,,,,,,141791.20000004768,141788.20000004768,129352.757,129371.70000004768,129369.392,141802.33,,,
Sounds,html.Screen,1_3_0_0,2022-05-02T15:17:26.740Z,,,,,,,,,,,,,,,,,,,,,,,,,,,,,,,4249.680000000022,,timeout,,,,,,,,,3,,,,,,,,I,O,S,,146045.5,146035.453,141785.546,141796,141802.33,146052.01,,,
Judgement,html.Screen,1_3_0_1,2022-05-02T15:17:28.025Z,,,,,,,,,,,,,,,,,,,,,,,,,,,,true,3,,1275.0900001430418,,response,,,,,,,,,3,,3,click #choice-3,,,,,I,O,S,,147330.40000009537,147327.10000014305,146035.453,146046,146052.01,147335.282,,,
Trial,flow.Sequence,1_3_0,2022-05-02T15:17:28.026Z,,,,,,,,,,,,,,,,,,,,,,,,,,,,,,,5524.770000143064,,completion,,,,,,,,,3,,,,,,,,I,O,S,,147331.70000004768,147327.10000014305,141785.546,141795.79999995232,141802.33,147335.282,,,
Sounds,html.Screen,1_3_1_0,2022-05-02T15:17:32.264Z,,,,,,,,,,,,,,,,,,,,,,,,,,,,,,,4250.695000000007,,timeout,,,,,,,,,2,,,,,,,,I,S,O,,151570,151568.555,147318.869,147332.70000004768,147335.282,151585.977,,,
Judgement,html.Screen,1_3_1_1,2022-05-02T15:17:32.968Z,,,,,,,,,,,,,,,,,,,,,,,,,,,,true,2,,684.0229999999865,,response,,,,,,,,,2,,2,click #choice-2,,,,,I,S,O,,152273.20000004768,152270,151568.555,151570.29999995232,151585.977,152285.005,,,
Trial,flow.Sequence,1_3_1,2022-05-02T15:17:32.970Z,,,,,,,,,,,,,,,,,,,,,,,,,,,,,,,4934.7179999999935,,completion,,,,,,,,,2,,,,,,,,I,S,O,,152275.29999995232,152270,147318.869,147332.20000004768,147335.282,152285.005,,,
Sounds,html.Screen,1_3_2_0,2022-05-02T15:17:37.214Z,,,,,,,,,,,,,,,,,,,,,,,,,,,,,,,4249.810999999987,,timeout,,,,,,,,,1,,,,,,,,S,O,I,,156520.10000014305,156518.242,152268.662,152276.20000004768,152285.005,156534.816,,,
Judgement,html.Screen,1_3_2_1,2022-05-02T15:17:38.009Z,,,,,,,,,,,,,,,,,,,,,,,,,,,,true,1,,776.6840000000084,,response,,,,,,,,,1,,1,click #choice-1,,,,,S,O,I,,157314.10000014305,157311.5,156518.242,156520.40000009537,156534.816,157318.148,,,
Trial,flow.Sequence,1_3_2,2022-05-02T15:17:38.009Z,,,,,,,,,,,,,,,,,,,,,,,,,,,,,,,5026.494999999995,,completion,,,,,,,,,1,,,,,,,,S,O,I,,157315,157311.5,152268.662,152275.79999995232,152285.005,157318.148,,,
Sounds,html.Screen,1_3_3_0,2022-05-02T15:17:42.248Z,,,,,,,,,,,,,,,,,,,,,,,,,,,,,,,4252.557000000001,,timeout,,,,,,,,,3,,,,,,,,O,I,S,,161553.40000009537,161551.787,157301.632,157315.90000009537,157318.148,161570.705,,,
Judgement,html.Screen,1_3_3_1,2022-05-02T15:17:43.000Z,,,,,,,,,,,,,,,,,,,,,,,,,,,,true,3,,732.4950000476965,,response,,,,,,,,,3,,3,click #choice-3,,,,,O,I,S,,162305.5,162303.20000004768,161551.787,161553.79999995232,161570.705,162318.42,,,
Trial,flow.Sequence,1_3_3,2022-05-02T15:17:43.000Z,,,,,,,,,,,,,,,,,,,,,,,,,,,,,,,4985.052000047697,,completion,,,,,,,,,3,,,,,,,,O,I,S,,162306,162303.20000004768,157301.632,157315.5,157318.148,162318.42,,,
Sounds,html.Screen,1_3_4_0,2022-05-02T15:17:47.247Z,,,,,,,,,,,,,,,,,,,,,,,,,,,,,,,4249.245999999985,,timeout,,,,,,,,,1,,,,,,,,S,I,O,,166552.90000009537,166551.411,162301.237,162306.5,162318.42,166567.666,,,
Judgement,html.Screen,1_3_4_1,2022-05-02T15:17:48.215Z,,,,,,,,,,,,,,,,,,,,,,,,,,,,true,1,,950.3340000000026,,response,,,,,,,,,1,,1,click #choice-1,,,,,S,I,O,,167520.60000014305,167518,166551.411,166553.29999995232,166567.666,167534.398,,,
Trial,flow.Sequence,1_3_4,2022-05-02T15:17:48.216Z,,,,,,,,,,,,,,,,,,,,,,,,,,,,,,,5199.579999999987,,completion,,,,,,,,,1,,,,,,,,S,I,O,,167521.40000009537,167518,162301.237,162306.40000009537,162318.42,167534.398,,,
Sounds,html.Screen,1_3_5_0,2022-05-02T15:17:52.464Z,,,,,,,,,,,,,,,,,,,,,,,,,,,,,,,4251.622000000003,,timeout,,,,,,,,,2,,,,,,,,O,S,I,,171769.70000004768,171767.608,167517.753,167521.70000004768,167534.398,171786.02,,,
Judgement,html.Screen,1_3_5_1,2022-05-02T15:17:53.236Z,,,,,,,,,,,,,,,,,,,,,,,,,,,,true,2,,751.6800000476942,,response,,,,,,,,,2,,2,click #choice-2,,,,,O,S,I,,172541.20000004768,172537.70000004768,171767.608,171770,171786.02,172567.566,,,
Trial,flow.Sequence,1_3_5,2022-05-02T15:17:53.236Z,,,,,,,,,,,,,,,,,,,,,,,,,,,,,,,5003.302000047697,,completion,,,,,,,,,2,,,,,,,,O,S,I,,172542,172537.70000004768,167517.753,167521.60000014305,167534.398,172567.566,,,
Task,flow.Loop,1_3,2022-05-02T15:17:53.257Z,,,,,,,,,,,,,,,,,,,,,,,,,,,,,,,30735.370000047697,,completion,,,1,,,,,,,,,,,,,,,,,,172562.29999995232,172537.70000004768,141785.546,141792,141802.33,172567.566,,,
Trap,html.Screen,1_4,2022-05-02T15:17:53.266Z,,,,,,,,,,,,,,,,,,,,,,,,,,,,,,,NaN,,skipped,,,,,,,,,,,,,,,,,,,,,172571.20000004768,172537.70000004768,,172571,,172567.566,,,
Thanks,html.Screen,1_5,2022-05-02T15:17:55.931Z,,,,,,,,,,,,,,,,,,,,,,,,,,,,,,,2664.834000095376,,response,,,,,,,,,,,continue,click button,,,,,,,,,175236.10000014305,175232.40000009537,172534.084,172571.40000009537,172567.566,212232.187,,,
Headphone screening,flow.Sequence,1,2022-05-02T15:17:55.931Z,,,,,,,,,,,,,,,,,,,,,,,,,,,,,,,86377.72600009537,,completion,,,,,,,,,,,,,,,,,,,,,175236.90000009537,175232.40000009537,88804.807,88827.10000014305,88854.674,212232.187,,,
Instructions,html.Page,2_0,2022-05-02T15:18:46.444Z,,,,,,,,,,,,,,,,,,,,,,,,,,,,,,,13515.312999999995,,form submission,,,,,,,,,,,,,,,,,,,,,225749.90000009537,225747.5,212182.273,212223.90000009537,212232.187,225764.964,,,
Holding screen,html.Screen,2_1_0_0,2022-05-02T15:18:56.443Z,,,,,,,,,,,,,,,,,,,,,,,,,,,,,,,10032.78899999999,,timeout,,,,,,,,,,,,,,,,,,,,,235748.5,235747.759,225731.71,225751.10000014305,225764.964,235797.753,,,
screen,html.Screen,2_1_0_1_0,2022-05-02T15:19:05.077Z,,,,,,,,,,,,,,,,,53,,,,,,,,,,,,,,8575.447000047687,,response,,,,99,,,,,,,Space,keypress(Space),,,,,,,,When -- ----- -- ------ - ------- --- ----------<br>------------- ------ ------ ---- ---- ------- ----- -- ----<br>-------- ------- -- ---------- --- - --- ----- ----- ----<br>---- --- --- ----- --- ---- ---- ------- ----- ---- -------<br>--- --- -- ----- -- --- ---- -- --- ---- -- ------ ------<br>--- ----- -- ----,244382.20000004768,244373.20000004768,235747.759,235748.60000014305,235797.753,244380.727,,0,When
screen,html.Screen,2_1_0_1_1,2022-05-02T15:19:05.650Z,,,,,,,,,,,,,,,,,53,,,,,,,,,,,,,,572.8730001430376,,response,,,,99,,,,,,,Space,keypress(Space),,,,,,,,---- it ----- -- ------ - ------- --- ----------<br>------------- ------ ------ ---- ---- ------- ----- -- ----<br>-------- ------- -- ---------- --- - --- ----- ----- ----<br>---- --- --- ----- --- ---- ---- ------- ----- ---- -------<br>--- --- -- ----- -- --- ---- -- --- ---- -- ------ ------<br>--- ----- -- ----,244955.5,244953.60000014305,244363.578,244382.60000014305,244380.727,244964.042,,1,it
screen,html.Screen,2_1_0_1_2,2022-05-02T15:19:06.136Z,,,,,,,,,,,,,,,,,53,,,,,,,,,,,,,,475.158000047697,,response,,,,99,,,,,,,Space,keypress(Space),,,,,,,,---- -- comes -- ------ - ------- --- ----------<br>------------- ------ ------ ---- ---- ------- ----- -- ----<br>-------- ------- -- ---------- --- - --- ----- ----- ----<br>---- --- --- ----- --- ---- ---- ------- ----- ---- -------<br>--- --- -- ----- -- --- ---- -- --- ---- -- ------ ------<br>--- ----- -- ----,245441.10000014305,245439.20000004768,244947.344,244955.79999995232,244964.042,245447.357,,2,comes
screen,html.Screen,2_1_0_1_3,2022-05-02T15:19:06.498Z,,,,,,,,,,,,,,,,,53,,,,,,,,,,,,,,353.5430000953784,,response,,,,99,,,,,,,Space,keypress(Space),,,,,,,,---- -- ----- to ------ - ------- --- ----------<br>------------- ------ ------ ---- ---- ------- ----- -- ----<br>-------- ------- -- ---------- --- - --- ----- ----- ----<br>---- --- --- ----- --- ---- ---- ------- ----- ---- -------<br>--- --- -- ----- -- --- ---- -- --- ---- -- ------ ------<br>--- ----- -- ----,245803.40000009537,245800.90000009537,245430.629,245441.5,245447.357,245814.351,,3,to
screen,html.Screen,2_1_0_1_4,2022-05-02T15:19:06.894Z,,,,,,,,,,,,,,,,,53,,,,,,,,,,,,,,383.3490000476886,,response,,,,99,,,,,,,Space,keypress(Space),,,,,,,,---- -- ----- -- having - ------- --- ----------<br>------------- ------ ------ ---- ---- ------- ----- -- ----<br>-------- ------- -- ---------- --- - --- ----- ----- ----<br>---- --- --- ----- --- ---- ---- ------- ----- ---- -------<br>--- --- -- ----- -- --- ---- -- --- ---- -- ------ ------<br>--- ----- -- ----,246199.5,246197.70000004768,245797.278,245803.90000009537,245814.351,246214.11,,4,having
screen,html.Screen,2_1_0_1_5,2022-05-02T15:19:07.264Z,,,,,,,,,,,,,,,,,53,,,,,,,,,,,,,,353.4900001430651,,response,,,,99,,,,,,,Space,keypress(Space),,,,,,,,---- -- ----- -- ------ a ------- --- ----------<br>------------- ------ ------ ---- ---- ------- ----- -- ----<br>-------- ------- -- ---------- --- - --- ----- ----- ----<br>---- --- --- ----- --- ---- ---- ------- ----- ---- -------<br>--- --- -- ----- -- --- ---- -- --- ---- -- ------ ------<br>--- ----- -- ----,246569.20000004768,246567.60000014305,246197.307,246199.79999995232,246214.11,246580.832,,5,a
screen,html.Screen,2_1_0_1_6,2022-05-02T15:19:07.642Z,,,,,,,,,,,,,,,,,53,,,,,,,,,,,,,,364.56800009537255,,response,,,,99,,,,,,,Space,keypress(Space),,,,,,,,---- -- ----- -- ------ - lasting --- ----------<br>------------- ------ ------ ---- ---- ------- ----- -- ----<br>-------- ------- -- ---------- --- - --- ----- ----- ----<br>---- --- --- ----- --- ---- ---- ------- ----- ---- -------<br>--- --- -- ----- -- --- ---- -- --- ---- -- ------ ------<br>--- ----- -- ----,246947.20000004768,246945.40000009537,246564.082,246569.5,246580.832,246963.978,,6,lasting
screen,html.Screen,2_1_0_1_7,2022-05-02T15:19:08.013Z,,,,,,,,,,,,,,,,,53,,,,,,,,,,,,,,352.2220000476809,,response,,,,99,,,,,,,Space,keypress(Space),,,,,,,,---- -- ----- -- ------ - ------- and ----------<br>------------- ------ ------ ---- ---- ------- ----- -- ----<br>-------- ------- -- ---------- --- - --- ----- ----- ----<br>---- --- --- ----- --- ---- ---- ------- ----- ---- -------<br>--- --- -- ----- -- --- ---- -- --- ---- -- ------ ------<br>--- ----- -- ----,247318,247316.20000004768,246947.389,246947.5,246963.978,247330.611,,7,and
screen,html.Screen,2_1_0_1_8,2022-05-02T15:19:08.429Z,,,,,,,,,,,,,,,,,53,,,,,,,,,,,,,,402.18899995231186,,response,,,,99,,,,,,,Space,keypress(Space),,,,,,,,---- -- ----- -- ------ - ------- --- fulfilling<br>------------- ------ ------ ---- ---- ------- ----- -- ----<br>-------- ------- -- ---------- --- - --- ----- ----- ----<br>---- --- --- ----- --- ---- ---- ------- ----- ---- -------<br>--- --- -- ----- -- --- ---- -- --- ---- -- ------ ------<br>--- ----- -- ----,247734.5,247732.79999995232,247313.957,247318.40000009537,247330.611,247747.218,,8,fulfilling
screen,html.Screen,2_1_0_1_9,2022-05-02T15:19:08.889Z,,,,,,,,,,,,,,,,,53,,,,,,,,,,,,,,445.48200004769024,,response,,,,99,,,,,,,Space,keypress(Space),,,,,,,,"---- -- ----- -- ------ - ------- --- ----------<br>relationship, ------ ------ ---- ---- ------- ----- -- ----<br>-------- ------- -- ---------- --- - --- ----- ----- ----<br>---- --- --- ----- --- ---- ---- ------- ----- ---- -------<br>--- --- -- ----- -- --- ---- -- --- ---- -- ------ ------<br>--- ----- -- ----",248194.60000014305,248192.70000004768,247730.685,247734.79999995232,247747.218,248197.218,,9,"relationship,"
screen,html.Screen,2_1_0_1_10,2022-05-02T15:19:09.258Z,,,,,,,,,,,,,,,,,53,,,,,,,,,,,,,,359.5819999523228,,response,,,,99,,,,,,,Space,keypress(Space),,,,,,,,---- -- ----- -- ------ - ------- --- ----------<br>------------- common ------ ---- ---- ------- ----- -- ----<br>-------- ------- -- ---------- --- - --- ----- ----- ----<br>---- --- --- ----- --- ---- ---- ------- ----- ---- -------<br>--- --- -- ----- -- --- ---- -- --- ---- -- ------ ------<br>--- ----- -- ----,248563.70000004768,248556.79999995232,248180.656,248195,248197.218,248580.539,,10,common
screen,html.Screen,2_1_0_1_11,2022-05-02T15:19:09.585Z,,,,,,,,,,,,,,,,,53,,,,,,,,,,,,,,308.3610000953777,,response,,,,99,,,,,,,Space,keypress(Space),,,,,,,,---- -- ----- -- ------ - ------- --- ----------<br>------------- ------ wisdom ---- ---- ------- ----- -- ----<br>-------- ------- -- ---------- --- - --- ----- ----- ----<br>---- --- --- ----- --- ---- ---- ------- ----- ---- -------<br>--- --- -- ----- -- --- ---- -- --- ---- -- ------ ------<br>--- ----- -- ----,248890.29999995232,248888.90000009537,248563.888,248564.10000014305,248580.539,248897.238,,11,wisdom
screen,html.Screen,2_1_0_1_12,2022-05-02T15:19:09.964Z,,,,,,,,,,,,,,,,,53,,,,,,,,,,,,,,370.0619999523042,,response,,,,99,,,,,,,Space,keypress(Space),,,,,,,,---- -- ----- -- ------ - ------- --- ----------<br>------------- ------ ------ says ---- ------- ----- -- ----<br>-------- ------- -- ---------- --- - --- ----- ----- ----<br>---- --- --- ----- --- ---- ---- ------- ----- ---- -------<br>--- --- -- ----- -- --- ---- -- --- ---- -- ------ ------<br>--- ----- -- ----,249269.10000014305,249267.29999995232,248880.641,248890.40000009537,248897.238,249280.613,,12,says
screen,html.Screen,2_1_0_1_13,2022-05-02T15:19:10.352Z,,,,,,,,,,,,,,,,,53,,,,,,,,,,,,,,375.3869999999879,,response,,,,99,,,,,,,Space,keypress(Space),,,,,,,,---- -- ----- -- ------ - ------- --- ----------<br>------------- ------ ------ ---- that ------- ----- -- ----<br>-------- ------- -- ---------- --- - --- ----- ----- ----<br>---- --- --- ----- --- ---- ---- ------- ----- ---- -------<br>--- --- -- ----- -- --- ---- -- --- ---- -- ------ ------<br>--- ----- -- ----,249657.79999995232,249656,249263.945,249269.40000009537,249280.613,249663.794,,13,that
screen,html.Screen,2_1_0_1_14,2022-05-02T15:19:10.688Z,,,,,,,,,,,,,,,,,53,,,,,,,,,,,,,,327.2060000000056,,response,,,,99,,,,,,,Space,keypress(Space),,,,,,,,---- -- ----- -- ------ - ------- --- ----------<br>------------- ------ ------ ---- ---- feeling ----- -- ----<br>-------- ------- -- ---------- --- - --- ----- ----- ----<br>---- --- --- ----- --- ---- ---- ------- ----- ---- -------<br>--- --- -- ----- -- --- ---- -- --- ---- -- ------ ------<br>--- ----- -- ----,249993.20000004768,249991,249647.242,249658.10000014305,249663.794,249997.131,,14,feeling
screen,html.Screen,2_1_0_1_15,2022-05-02T15:19:11.012Z,,,,,,,,,,,,,,,,,53,,,,,,,,,,,,,,318.4690001430572,,response,,,,99,,,,,,,Space,keypress(Space),,,,,,,,---- -- ----- -- ------ - ------- --- ----------<br>------------- ------ ------ ---- ---- ------- close -- ----<br>-------- ------- -- ---------- --- - --- ----- ----- ----<br>---- --- --- ----- --- ---- ---- ------- ----- ---- -------<br>--- --- -- ----- -- --- ---- -- --- ---- -- ------ ------<br>--- ----- -- ----,250317.5,250315.60000014305,249980.612,249993.60000014305,249997.131,250330.464,,15,close
screen,html.Screen,2_1_0_1_16,2022-05-02T15:19:11.273Z,,,,,,,,,,,,,,,,,53,,,,,,,,,,,,,,246.63600014304393,,response,,,,99,,,,,,,Space,keypress(Space),,,,,,,,---- -- ----- -- ------ - ------- --- ----------<br>------------- ------ ------ ---- ---- ------- ----- to ----<br>-------- ------- -- ---------- --- - --- ----- ----- ----<br>---- --- --- ----- --- ---- ---- ------- ----- ---- -------<br>--- --- -- ----- -- --- ---- -- --- ---- -- ------ ------<br>--- ----- -- ----,250579,250577.10000014305,250313.829,250317.79999995232,250330.464,250607.592,,16,to
screen,html.Screen,2_1_0_1_17,2022-05-02T15:19:11.674Z,,,,,,,,,,,,,,,,,53,,,,,,,,,,,,,,369.80800009536324,,response,,,,99,,,,,,,Space,keypress(Space),,,,,,,,---- -- ----- -- ------ - ------- --- ----------<br>------------- ------ ------ ---- ---- ------- ----- -- your<br>-------- ------- -- ---------- --- - --- ----- ----- ----<br>---- --- --- ----- --- ---- ---- ------- ----- ---- -------<br>--- --- -- ----- -- --- ---- -- --- ---- -- ------ ------<br>--- ----- -- ----,250979.10000014305,250977.40000009537,250563.895,250579.29999995232,250607.592,250997.235,,17,your
screen,html.Screen,2_1_0_1_18,2022-05-02T15:19:12.039Z,,,,,,,,,,,,,,,,,53,,,,,,,,,,,,,,345.26500000001397,,response,,,,99,,,,,,,Space,keypress(Space),,,,,,,,---- -- ----- -- ------ - ------- --- ----------<br>------------- ------ ------ ---- ---- ------- ----- -- ----<br>romantic ------- -- ---------- --- - --- ----- ----- ----<br>---- --- --- ----- --- ---- ---- ------- ----- ---- -------<br>--- --- -- ----- -- --- ---- -- --- ---- -- ------ ------<br>--- ----- -- ----,251344.20000004768,251342.5,250963.891,250979.5,250997.235,251347.068,,18,romantic
screen,html.Screen,2_1_0_1_19,2022-05-02T15:19:12.394Z,,,,,,,,,,,,,,,,,53,,,,,,,,,,,,,,350.4320000000007,,response,,,,99,,,,,,,Space,keypress(Space),,,,,,,,---- -- ----- -- ------ - ------- --- ----------<br>------------- ------ ------ ---- ---- ------- ----- -- ----<br>-------- partner -- ---------- --- - --- ----- ----- ----<br>---- --- --- ----- --- ---- ---- ------- ----- ---- -------<br>--- --- -- ----- -- --- ---- -- --- ---- -- ------ ------<br>--- ----- -- ----,251699.40000009537,251697.5,251330.543,251344.5,251347.068,251713.854,,19,partner
screen,html.Screen,2_1_0_1_20,2022-05-02T15:19:12.754Z,,,,,,,,,,,,,,,,,53,,,,,,,,,,,,,,344.04600009537535,,response,,,,99,,,,,,,Space,keypress(Space),,,,,,,,---- -- ----- -- ------ - ------- --- ----------<br>------------- ------ ------ ---- ---- ------- ----- -- ----<br>-------- ------- is ---------- --- - --- ----- ----- ----<br>---- --- --- ----- --- ---- ---- ------- ----- ---- -------<br>--- --- -- ----- -- --- ---- -- --- ---- -- ------ ------<br>--- ----- -- ----,252059.60000014305,252057.90000009537,251697.223,251699.79999995232,251713.854,252063.707,,20,is
screen,html.Screen,2_1_0_1_21,2022-05-02T15:19:13.128Z,,,,,,,,,,,,,,,,,53,,,,,,,,,,,,,,367.69300009537255,,response,,,,99,,,,,,,Space,keypress(Space),,,,,,,,---- -- ----- -- ------ - ------- --- ----------<br>------------- ------ ------ ---- ---- ------- ----- -- ----<br>-------- ------- -- paramount. --- - --- ----- ----- ----<br>---- --- --- ----- --- ---- ---- ------- ----- ---- -------<br>--- --- -- ----- -- --- ---- -- --- ---- -- ------ ------<br>--- ----- -- ----,252433.20000004768,252431.40000009537,252047.195,252059.90000009537,252063.707,252447.078,,21,paramount.
screen,html.Screen,2_1_0_1_22,2022-05-02T15:19:13.545Z,,,,,,,,,,,,,,,,,53,,,,,,,,,,,,,,402.6220000476751,,response,,,,99,,,,,,,Space,keypress(Space),,,,,,,,---- -- ----- -- ------ - ------- --- ----------<br>------------- ------ ------ ---- ---- ------- ----- -- ----<br>-------- ------- -- ---------- But - --- ----- ----- ----<br>---- --- --- ----- --- ---- ---- ------- ----- ---- -------<br>--- --- -- ----- -- --- ---- -- --- ---- -- ------ ------<br>--- ----- -- ----,252850.60000014305,252849.70000004768,252430.407,252433.60000014305,252447.078,252863.801,,22,But
screen,html.Screen,2_1_0_1_23,2022-05-02T15:19:13.871Z,,,,,,,,,,,,,,,,,53,,,,,,,,,,,,,,310.7990001430444,,response,,,,99,,,,,,,Space,keypress(Space),,,,,,,,---- -- ----- -- ------ - ------- --- ----------<br>------------- ------ ------ ---- ---- ------- ----- -- ----<br>-------- ------- -- ---------- --- a --- ----- ----- ----<br>---- --- --- ----- --- ---- ---- ------- ----- ---- -------<br>--- --- -- ----- -- --- ---- -- --- ---- -- ------ ------<br>--- ----- -- ----,253176.29999995232,253174.60000014305,252847.226,252850.79999995232,252863.801,253180.306,,23,a
screen,html.Screen,2_1_0_1_24,2022-05-02T15:19:14.210Z,,,,,,,,,,,,,,,,,53,,,,,,,,,,,,,,333.1939999999886,,response,,,,99,,,,,,,Space,keypress(Space),,,,,,,,---- -- ----- -- ------ - ------- --- ----------<br>------------- ------ ------ ---- ---- ------- ----- -- ----<br>-------- ------- -- ---------- --- - new ----- ----- ----<br>---- --- --- ----- --- ---- ---- ------- ----- ---- -------<br>--- --- -- ----- -- --- ---- -- --- ---- -- ------ ------<br>--- ----- -- ----,253515.29999995232,253513.5,253163.775,253176.60000014305,253180.306,253530.445,,24,new
screen,html.Screen,2_1_0_1_25,2022-05-02T15:19:14.536Z,,,,,,,,,,,,,,,,,53,,,,,,,,,,,,,,309.75500004767673,,response,,,,99,,,,,,,Space,keypress(Space),,,,,,,,---- -- ----- -- ------ - ------- --- ----------<br>------------- ------ ------ ---- ---- ------- ----- -- ----<br>-------- ------- -- ---------- --- - --- study ----- ----<br>---- --- --- ----- --- ---- ---- ------- ----- ---- -------<br>--- --- -- ----- -- --- ---- -- --- ---- -- ------ ------<br>--- ----- -- ----,253841.90000009537,253840.20000004768,253513.887,253515.60000014305,253530.445,253846.96,,25,study
screen,html.Screen,2_1_0_1_26,2022-05-02T15:19:14.871Z,,,,,,,,,,,,,,,,,53,,,,,,,,,,,,,,327.6400001430593,,response,,,,99,,,,,,,Space,keypress(Space),,,,,,,,---- -- ----- -- ------ - ------- --- ----------<br>------------- ------ ------ ---- ---- ------- ----- -- ----<br>-------- ------- -- ---------- --- - --- ----- finds ----<br>---- --- --- ----- --- ---- ---- ------- ----- ---- -------<br>--- --- -- ----- -- --- ---- -- --- ---- -- ------ ------<br>--- ----- -- ----,254176.40000009537,254174.60000014305,253830.295,253842.29999995232,253846.96,254180.273,,26,finds
screen,html.Screen,2_1_0_1_27,2022-05-02T15:19:15.251Z,,,,,,,,,,,,,,,,,53,,,,,,,,,,,,,,373.12700009538094,,response,,,,99,,,,,,,Space,keypress(Space),,,,,,,,---- -- ----- -- ------ - ------- --- ----------<br>------------- ------ ------ ---- ---- ------- ----- -- ----<br>-------- ------- -- ---------- --- - --- ----- ----- that<br>---- --- --- ----- --- ---- ---- ------- ----- ---- -------<br>--- --- -- ----- -- --- ---- -- --- ---- -- ------ ------<br>--- ----- -- ----,254556.90000009537,254553.40000009537,254163.75,254176.70000004768,254180.273,254563.626,,27,that
screen,html.Screen,2_1_0_1_28,2022-05-02T15:19:15.614Z,,,,,,,,,,,,,,,,,53,,,,,,,,,,,,,,354.27400009537814,,response,,,,99,,,,,,,Space,keypress(Space),,,,,,,,---- -- ----- -- ------ - ------- --- ----------<br>------------- ------ ------ ---- ---- ------- ----- -- ----<br>-------- ------- -- ---------- --- - --- ----- ----- ----<br>it's --- --- ----- --- ---- ---- ------- ----- ---- -------<br>--- --- -- ----- -- --- ---- -- --- ---- -- ------ ------<br>--- ----- -- ----,254919.90000009537,254917.90000009537,254547.18,254557.29999995232,254563.626,254930.251,,28,it's
screen,html.Screen,2_1_0_1_29,2022-05-02T15:19:15.956Z,,,,,,,,,,,,,,,,,53,,,,,,,,,,,,,,328.9490000476944,,response,,,,99,,,,,,,Space,keypress(Space),,,,,,,,---- -- ----- -- ------ - ------- --- ----------<br>------------- ------ ------ ---- ---- ------- ----- -- ----<br>-------- ------- -- ---------- --- - --- ----- ----- ----<br>---- not --- ----- --- ---- ---- ------- ----- ---- -------<br>--- --- -- ----- -- --- ---- -- --- ---- -- ------ ------<br>--- ----- -- ----,255261,255259.20000004768,254913.65,254920.20000004768,254930.251,255263.542,,29,not
screen,html.Screen,2_1_0_1_30,2022-05-02T15:19:16.318Z,,,,,,,,,,,,,,,,,53,,,,,,,,,,,,,,357.95800000001327,,response,,,,99,,,,,,,Space,keypress(Space),,,,,,,,---- -- ----- -- ------ - ------- --- ----------<br>------------- ------ ------ ---- ---- ------- ----- -- ----<br>-------- ------- -- ---------- --- - --- ----- ----- ----<br>---- --- how ----- --- ---- ---- ------- ----- ---- -------<br>--- --- -- ----- -- --- ---- -- --- ---- -- ------ ------<br>--- ----- -- ----,255623.10000014305,255621.5,255247.032,255261.29999995232,255263.542,255630.223,,30,how
screen,html.Screen,2_1_0_1_31,2022-05-02T15:19:16.662Z,,,,,,,,,,,,,,,,,53,,,,,,,,,,,,,,335.4770000476856,,response,,,,99,,,,,,,Space,keypress(Space),,,,,,,,---- -- ----- -- ------ - ------- --- ----------<br>------------- ------ ------ ---- ---- ------- ----- -- ----<br>-------- ------- -- ---------- --- - --- ----- ----- ----<br>---- --- --- close --- ---- ---- ------- ----- ---- -------<br>--- --- -- ----- -- --- ---- -- --- ---- -- ------ ------<br>--- ----- -- ----,255967.5,255965.70000004768,255613.551,255623.40000009537,255630.223,255980.317,,31,close
screen,html.Screen,2_1_0_1_32,2022-05-02T15:19:16.916Z,,,,,,,,,,,,,,,,,53,,,,,,,,,,,,,,239.58300009535742,,response,,,,99,,,,,,,Space,keypress(Space),,,,,,,,---- -- ----- -- ------ - ------- --- ----------<br>------------- ------ ------ ---- ---- ------- ----- -- ----<br>-------- ------- -- ---------- --- - --- ----- ----- ----<br>---- --- --- ----- you ---- ---- ------- ----- ---- -------<br>--- --- -- ----- -- --- ---- -- --- ---- -- ------ ------<br>--- ----- -- ----,256221.70000004768,256219.90000009537,255963.583,255967.79999995232,255980.317,256230.171,,32,you
screen,html.Screen,2_1_0_1_33,2022-05-02T15:19:17.359Z,,,,,,,,,,,,,,,,,53,,,,,,,,,,,,,,432.1289999523142,,response,,,,99,,,,,,,Space,keypress(Space),,,,,,,,---- -- ----- -- ------ - ------- --- ----------<br>------------- ------ ------ ---- ---- ------- ----- -- ----<br>-------- ------- -- ---------- --- - --- ----- ----- ----<br>---- --- --- ----- --- feel ---- ------- ----- ---- -------<br>--- --- -- ----- -- --- ---- -- --- ---- -- ------ ------<br>--- ----- -- ----,256664,256662.29999995232,256213.638,256222,256230.171,256680.289,,33,feel
screen,html.Screen,2_1_0_1_34,2022-05-02T15:19:17.953Z,,,,,,,,,,,,,,,,,53,,,,,,,,,,,,,,576.8110001430614,,response,,,,99,,,,,,,Space,keypress(Space),,,,,,,,---- -- ----- -- ------ - ------- --- ----------<br>------------- ------ ------ ---- ---- ------- ----- -- ----<br>-------- ------- -- ---------- --- - --- ----- ----- ----<br>---- --- --- ----- --- ---- that ------- ----- ---- -------<br>--- --- -- ----- -- --- ---- -- --- ---- -- ------ ------<br>--- ----- -- ----,257258.79999995232,257257.10000014305,256663.503,256664.40000009537,256680.289,257263.461,,34,that
screen,html.Screen,2_1_0_1_35,2022-05-02T15:19:18.322Z,,,,,,,,,,,,,,,,,53,,,,,,,,,,,,,,362.4390000953572,,response,,,,99,,,,,,,Space,keypress(Space),,,,,,,,---- -- ----- -- ------ - ------- --- ----------<br>------------- ------ ------ ---- ---- ------- ----- -- ----<br>-------- ------- -- ---------- --- - --- ----- ----- ----<br>---- --- --- ----- --- ---- ---- matters ----- ---- -------<br>--- --- -- ----- -- --- ---- -- --- ---- -- ------ ------<br>--- ----- -- ----,257627.60000014305,257625.90000009537,257246.904,257259.20000004768,257263.461,257630.104,,35,matters
screen,html.Screen,2_1_0_1_36,2022-05-02T15:19:18.770Z,,,,,,,,,,,,,,,,,53,,,,,,,,,,,,,,443.3960000000079,,response,,,,99,,,,,,,Space,keypress(Space),,,,,,,,"---- -- ----- -- ------ - ------- --- ----------<br>------------- ------ ------ ---- ---- ------- ----- -- ----<br>-------- ------- -- ---------- --- - --- ----- ----- ----<br>---- --- --- ----- --- ---- ---- ------- most, ---- -------<br>--- --- -- ----- -- --- ---- -- --- ---- -- ------ ------<br>--- ----- -- ----",258075.10000014305,258073.5,257613.583,257627.90000009537,257630.104,258080.132,,36,"most,"
screen,html.Screen,2_1_0_1_37,2022-05-02T15:19:19.226Z,,,,,,,,,,,,,,,,,53,,,,,,,,,,,,,,449.36799999998766,,response,,,,99,,,,,,,Space,keypress(Space),,,,,,,,---- -- ----- -- ------ - ------- --- ----------<br>------------- ------ ------ ---- ---- ------- ----- -- ----<br>-------- ------- -- ---------- --- - --- ----- ----- ----<br>---- --- --- ----- --- ---- ---- ------- ----- it's -------<br>--- --- -- ----- -- --- ---- -- --- ---- -- ------ ------<br>--- ----- -- ----,258531.40000009537,258529.5,258063.53,258075.5,258080.132,258546.843,,37,it's
screen,html.Screen,2_1_0_1_38,2022-05-02T15:19:19.606Z,,,,,,,,,,,,,,,,,53,,,,,,,,,,,,,,362.9569999523228,,response,,,,99,,,,,,,Space,keypress(Space),,,,,,,,---- -- ----- -- ------ - ------- --- ----------<br>------------- ------ ------ ---- ---- ------- ----- -- ----<br>-------- ------- -- ---------- --- - --- ----- ----- ----<br>---- --- --- ----- --- ---- ---- ------- ----- ---- whether<br>--- --- -- ----- -- --- ---- -- --- ---- -- ------ ------<br>--- ----- -- ----,258911.70000004768,258909.79999995232,258530.111,258531.70000004768,258546.843,258940.026,,38,whether
screen,html.Screen,2_1_0_1_39,2022-05-02T15:19:19.989Z,,,,,,,,,,,,,,,,,53,,,,,,,,,,,,,,352.37400009535486,,response,,,,99,,,,,,,Space,keypress(Space),,,,,,,,---- -- ----- -- ------ - ------- --- ----------<br>------------- ------ ------ ---- ---- ------- ----- -- ----<br>-------- ------- -- ---------- --- - --- ----- ----- ----<br>---- --- --- ----- --- ---- ---- ------- ----- ---- -------<br>you --- -- ----- -- --- ---- -- --- ---- -- ------ ------<br>--- ----- -- ----,259294.29999995232,259292.40000009537,258896.837,258912,258940.026,259296.695,,39,you
screen,html.Screen,2_1_0_1_40,2022-05-02T15:19:20.319Z,,,,,,,,,,,,,,,,,53,,,,,,,,,,,,,,326.00500004767673,,response,,,,99,,,,,,,Space,keypress(Space),,,,,,,,---- -- ----- -- ------ - ------- --- ----------<br>------------- ------ ------ ---- ---- ------- ----- -- ----<br>-------- ------- -- ---------- --- - --- ----- ----- ----<br>---- --- --- ----- --- ---- ---- ------- ----- ---- -------<br>--- are -- ----- -- --- ---- -- --- ---- -- ------ ------<br>--- ----- -- ----,259624.5,259622.70000004768,259280.171,259294.60000014305,259296.695,259630.021,,40,are
screen,html.Screen,2_1_0_1_41,2022-05-02T15:19:20.710Z,,,,,,,,,,,,,,,,,53,,,,,,,,,,,,,,383.77899995230837,,response,,,,99,,,,,,,Space,keypress(Space),,,,,,,,---- -- ----- -- ------ - ------- --- ----------<br>------------- ------ ------ ---- ---- ------- ----- -- ----<br>-------- ------- -- ---------- --- - --- ----- ----- ----<br>---- --- --- ----- --- ---- ---- ------- ----- ---- -------<br>--- --- as ----- -- --- ---- -- --- ---- -- ------ ------<br>--- ----- -- ----,260015.70000004768,260013.79999995232,259613.4,259624.79999995232,259630.021,260030.134,,41,as
screen,html.Screen,2_1_0_1_42,2022-05-02T15:19:21.133Z,,,,,,,,,,,,,,,,,53,,,,,,,,,,,,,,406.8660000000091,,response,,,,99,,,,,,,Space,keypress(Space),,,,,,,,---- -- ----- -- ------ - ------- --- ----------<br>------------- ------ ------ ---- ---- ------- ----- -- ----<br>-------- ------- -- ---------- --- - --- ----- ----- ----<br>---- --- --- ----- --- ---- ---- ------- ----- ---- -------<br>--- --- -- close -- --- ---- -- --- ---- -- ------ ------<br>--- ----- -- ----,260438.60000014305,260437,260013.478,260016,260030.134,260446.65,,42,close
screen,html.Screen,2_1_0_1_43,2022-05-02T15:19:21.477Z,,,,,,,,,,,,,,,,,53,,,,,,,,,,,,,,333.55000004768954,,response,,,,99,,,,,,,Space,keypress(Space),,,,,,,,---- -- ----- -- ------ - ------- --- ----------<br>------------- ------ ------ ---- ---- ------- ----- -- ----<br>-------- ------- -- ---------- --- - --- ----- ----- ----<br>---- --- --- ----- --- ---- ---- ------- ----- ---- -------<br>--- --- -- ----- as --- ---- -- --- ---- -- ------ ------<br>--- ----- -- ----,260782,260780.20000004768,260430.097,260438.90000009537,260446.65,260796.718,,43,as
screen,html.Screen,2_1_0_1_44,2022-05-02T15:19:21.933Z,,,,,,,,,,,,,,,,,53,,,,,,,,,,,,,,440.2820000000065,,response,,,,99,,,,,,,Space,keypress(Space),,,,,,,,---- -- ----- -- ------ - ------- --- ----------<br>------------- ------ ------ ---- ---- ------- ----- -- ----<br>-------- ------- -- ---------- --- - --- ----- ----- ----<br>---- --- --- ----- --- ---- ---- ------- ----- ---- -------<br>--- --- -- ----- -- you ---- -- --- ---- -- ------ ------<br>--- ----- -- ----,261238.60000014305,261237,260780.037,260782.40000009537,260796.718,261246.616,,44,you
screen,html.Screen,2_1_0_1_45,2022-05-02T15:19:22.415Z,,,,,,,,,,,,,,,,,53,,,,,,,,,,,,,,471.58400004767464,,response,,,,99,,,,,,,Space,keypress(Space),,,,,,,,---- -- ----- -- ------ - ------- --- ----------<br>------------- ------ ------ ---- ---- ------- ----- -- ----<br>-------- ------- -- ---------- --- - --- ----- ----- ----<br>---- --- --- ----- --- ---- ---- ------- ----- ---- -------<br>--- --- -- ----- -- --- want -- --- ---- -- ------ ------<br>--- ----- -- ----,261720,261718.20000004768,261229.97,261239,261246.616,261729.929,,45,want
screen,html.Screen,2_1_0_1_46,2022-05-02T15:19:22.814Z,,,,,,,,,,,,,,,,,53,,,,,,,,,,,,,,387.37099995231256,,response,,,,99,,,,,,,Space,keypress(Space),,,,,,,,---- -- ----- -- ------ - ------- --- ----------<br>------------- ------ ------ ---- ---- ------- ----- -- ----<br>-------- ------- -- ---------- --- - --- ----- ----- ----<br>---- --- --- ----- --- ---- ---- ------- ----- ---- -------<br>--- --- -- ----- -- --- ---- to --- ---- -- ------ ------<br>--- ----- -- ----,262119.20000004768,262117.29999995232,261713.299,261720.40000009537,261729.929,262130.123,,46,to
screen,html.Screen,2_1_0_1_47,2022-05-02T15:19:23.329Z,,,,,,,,,,,,,,,,,53,,,,,,,,,,,,,,502.3770000000077,,response,,,,99,,,,,,,Space,keypress(Space),,,,,,,,"---- -- ----- -- ------ - ------- --- ----------<br>------------- ------ ------ ---- ---- ------- ----- -- ----<br>-------- ------- -- ---------- --- - --- ----- ----- ----<br>---- --- --- ----- --- ---- ---- ------- ----- ---- -------<br>--- --- -- ----- -- --- ---- -- be, ---- -- ------ ------<br>--- ----- -- ----",262634.2999999523,262632.5,262113.37,262119.5,262130.123,262646.669,,47,"be,"
screen,html.Screen,2_1_0_1_48,2022-05-02T15:19:23.732Z,,,,,,,,,,,,,,,,,53,,,,,,,,,,,,,,389.3310000000056,,response,,,,99,,,,,,,Space,keypress(Space),,,,,,,,---- -- ----- -- ------ - ------- --- ----------<br>------------- ------ ------ ---- ---- ------- ----- -- ----<br>-------- ------- -- ---------- --- - --- ----- ----- ----<br>---- --- --- ----- --- ---- ---- ------- ----- ---- -------<br>--- --- -- ----- -- --- ---- -- --- even -- ------ ------<br>--- ----- -- ----,263037.7999999523,263036,262630.006,262634.60000014305,262646.669,263046.529,,48,even
screen,html.Screen,2_1_0_1_49,2022-05-02T15:19:24.191Z,,,,,,,,,,,,,,,,,53,,,,,,,,,,,,,,447.6710000477033,,response,,,,99,,,,,,,Space,keypress(Space),,,,,,,,---- -- ----- -- ------ - ------- --- ----------<br>------------- ------ ------ ---- ---- ------- ----- -- ----<br>-------- ------- -- ---------- --- - --- ----- ----- ----<br>---- --- --- ----- --- ---- ---- ------- ----- ---- -------<br>--- --- -- ----- -- --- ---- -- --- ---- if ------ ------<br>--- ----- -- ----,263496.2999999523,263494.2000000477,263029.895,263038.2000000477,263046.529,263513.301,,49,if
screen,html.Screen,2_1_0_1_50,2022-05-02T15:19:24.608Z,,,,,,,,,,,,,,,,,53,,,,,,,,,,,,,,398.5990000953898,,response,,,,99,,,,,,,Space,keypress(Space),,,,,,,,---- -- ----- -- ------ - ------- --- ----------<br>------------- ------ ------ ---- ---- ------- ----- -- ----<br>-------- ------- -- ---------- --- - --- ----- ----- ----<br>---- --- --- ----- --- ---- ---- ------- ----- ---- -------<br>--- --- -- ----- -- --- ---- -- --- ---- -- that's ------<br>--- ----- -- ----,263913.90000009537,263911.90000009537,263496.641,263496.60000014305,263513.301,263929.955,,50,that's
screen,html.Screen,2_1_0_1_51,2022-05-02T15:19:25.034Z,,,,,,,,,,,,,,,,,53,,,,,,,,,,,,,,408.14500014303485,,response,,,,99,,,,,,,Space,keypress(Space),,,,,,,,---- -- ----- -- ------ - ------- --- ----------<br>------------- ------ ------ ---- ---- ------- ----- -- ----<br>-------- ------- -- ---------- --- - --- ----- ----- ----<br>---- --- --- ----- --- ---- ---- ------- ----- ---- -------<br>--- --- -- ----- -- --- ---- -- --- ---- -- ------ really<br>--- ----- -- ----,264339.10000014305,264338.10000014305,263913.268,263914.2000000477,263929.955,264346.411,,51,really
screen,html.Screen,2_1_0_1_52,2022-05-02T15:19:25.410Z,,,,,,,,,,,,,,,,,53,,,,,,,,,,,,,,367.3889999522944,,response,,,,99,,,,,,,Space,keypress(Space),,,,,,,,---- -- ----- -- ------ - ------- --- ----------<br>------------- ------ ------ ---- ---- ------- ----- -- ----<br>-------- ------- -- ---------- --- - --- ----- ----- ----<br>---- --- --- ----- --- ---- ---- ------- ----- ---- -------<br>--- --- -- ----- -- --- ---- -- --- ---- -- ------ ------<br>not ----- -- ----,264715.60000014305,264713.7999999523,264329.846,264339.2000000477,264346.411,264729.898,,52,not
screen,html.Screen,2_1_0_1_53,2022-05-02T15:19:25.747Z,,,,,,,,,,,,,,,,,53,,,,,,,,,,,,,,320.6020000000135,,response,,,,99,,,,,,,Space,keypress(Space),,,,,,,,---- -- ----- -- ------ - ------- --- ----------<br>------------- ------ ------ ---- ---- ------- ----- -- ----<br>-------- ------- -- ---------- --- - --- ----- ----- ----<br>---- --- --- ----- --- ---- ---- ------- ----- ---- -------<br>--- --- -- ----- -- --- ---- -- --- ---- -- ------ ------<br>--- close -- ----,265052.5,265050.5,264713.086,264715.90000009537,264729.898,265063.119,,53,close
screen,html.Screen,2_1_0_1_54,2022-05-02T15:19:26.019Z,,,,,,,,,,,,,,,,,53,,,,,,,,,,,,,,259.38099999999395,,response,,,,99,,,,,,,Space,keypress(Space),,,,,,,,---- -- ----- -- ------ - ------- --- ----------<br>------------- ------ ------ ---- ---- ------- ----- -- ----<br>-------- ------- -- ---------- --- - --- ----- ----- ----<br>---- --- --- ----- --- ---- ---- ------- ----- ---- -------<br>--- --- -- ----- -- --- ---- -- --- ---- -- ------ ------<br>--- ----- at ----,265324.40000009537,265322.5,265046.582,265052.7999999523,265063.119,265329.752,,54,at
screen,html.Screen,2_1_0_1_55,2022-05-02T15:19:27.595Z,,,,,,,,,,,,,,,,,53,,,,,,,,,,,,,,1570.1480000953889,,response,,,,99,,,,,,,Space,keypress(Space),,,,,,,,---- -- ----- -- ------ - ------- --- ----------<br>------------- ------ ------ ---- ---- ------- ----- -- ----<br>-------- ------- -- ---------- --- - --- ----- ----- ----<br>---- --- --- ----- --- ---- ---- ------- ----- ---- -------<br>--- --- -- ----- -- --- ---- -- --- ---- -- ------ ------<br>--- ----- -- all.,266900.90000009537,266899.90000009537,265313.211,265324.7000000477,265329.752,266912.959,,55,all.
Item 99,flow.Loop,2_1_0_1,2022-05-02T15:19:27.596Z,,,,,,,,,,,,,,,,,,,,,,,,,,,,,,,31102.14700009537,,completion,,,,,G,,,,,,,,,,,silence,,,,,266901.10000014305,266899.90000009537,235747.759,235748.60000014305,235797.753,266912.959,,,
Question 1,html.Screen,2_1_0_2,2022-05-02T15:19:35.565Z,,,,,,,,,,,,,,,,,,,,,,,,,,,,true,FALSE,,7955.840999952343,,response,,,,99,G,,,,,,FALSE,click #choice-2,,,,silence,,,,,274870.10000014305,274868.7999999523,266896.436,266901.2999999523,266912.959,274879.279,,,
Question 2,html.Screen,2_1_0_3,2022-05-02T15:19:38.638Z,,,,,,,,,,,,,,,,,,,,,,,,,,,,true,TRUE,,3061.121000095387,,response,,,,99,G,,,,,,TRUE,click #choice-1,,,,silence,,,,,277942.90000009537,277940.40000009537,274863.255,274870.2000000477,274879.279,277962.987,,,
Item 99,flow.Sequence,2_1_0,2022-05-02T15:19:38.638Z,,,,,,,,,,,,,,,,,,,,,,,,,,,,,,,52175.43600009536,,completion,,,,,,,,,,,,,,,,,,,,,277943.5,277940.40000009537,225731.71,225750.79999995232,225764.964,277962.987,,,
Holding screen,html.Screen,2_1_1_0,2022-05-02T15:19:48.641Z,,,,,,,,,,,,,,,,,,,,,,,,,,,,,,,9999.007999999973,,timeout,,,,,,,,,,,,,,,,,,,,,287946.7000000477,287945.445,277929.608,277943.90000009537,277962.987,287961.995,,,
screen,html.Screen,2_1_1_1_0,2022-05-02T15:19:49.511Z,,,,,,,,,,,,,,,,,54,,,,,,,,,,,,,,852.4050000953721,,response,,,,100,,,,,,,Space,keypress(Space),,,,,,,,At --- ---- --- ------ ----- ------- ---- -- --- ------- --<br>------- ---------- ------ -- ----- -- ----- -- ---- ------<br>--- ----- --- --- ------ -------- ----- --- ------ ----- --<br>----- ----- ---------- --- --- ------ ------ ---- -- ------<br>------- --- ------ ----- --- ---- ------- -- ---- --- --<br>------- ------,288816.5,288814.40000009537,287945.445,287947.2000000477,287961.995,288828.651,,0,At
screen,html.Screen,2_1_1_1_1,2022-05-02T15:19:49.910Z,,,,,,,,,,,,,,,,,54,,,,,,,,,,,,,,385.1489999523037,,response,,,,100,,,,,,,Space,keypress(Space),,,,,,,,-- the ---- --- ------ ----- ------- ---- -- --- ------- --<br>------- ---------- ------ -- ----- -- ----- -- ---- ------<br>--- ----- --- --- ------ -------- ----- --- ------ ----- --<br>----- ----- ---------- --- --- ------ ------ ---- -- ------<br>------- --- ------ ----- --- ---- ------- -- ---- --- --<br>------- ------,289215.60000014305,289213.7999999523,288811.911,288816.7999999523,288828.651,289228.77,,1,the
screen,html.Screen,2_1_1_1_2,2022-05-02T15:19:50.351Z,,,,,,,,,,,,,,,,,54,,,,,,,,,,,,,,425.52999995229766,,response,,,,100,,,,,,,Space,keypress(Space),,,,,,,,-- --- time --- ------ ----- ------- ---- -- --- ------- --<br>------- ---------- ------ -- ----- -- ----- -- ---- ------<br>--- ----- --- --- ------ -------- ----- --- ------ ----- --<br>----- ----- ---------- --- --- ------ ------ ---- -- ------<br>------- --- ------ ----- --- ---- ------- -- ---- --- --<br>------- ------,289656,289654.2999999523,289212.025,289216,289228.77,289661.965,,2,time
screen,html.Screen,2_1_1_1_3,2022-05-02T15:19:50.603Z,,,,,,,,,,,,,,,,,54,,,,,,,,,,,,,,244.2350000476581,,response,,,,100,,,,,,,Space,keypress(Space),,,,,,,,-- --- ---- the ------ ----- ------- ---- -- --- ------- --<br>------- ---------- ------ -- ----- -- ----- -- ---- ------<br>--- ----- --- --- ------ -------- ----- --- ------ ----- --<br>----- ----- ---------- --- --- ------ ------ ---- -- ------<br>------- --- ------ ----- --- ---- ------- -- ---- --- --<br>------- ------,289907.90000009537,289906.2000000477,289645.368,289656.40000009537,289661.965,289911.933,,3,the
screen,html.Screen,2_1_1_1_4,2022-05-02T15:19:51.519Z,,,,,,,,,,,,,,,,,54,,,,,,,,,,,,,,910.8669999522972,,response,,,,100,,,,,,,Space,keypress(Space),,,,,,,,-- --- ---- --- French ----- ------- ---- -- --- ------- --<br>------- ---------- ------ -- ----- -- ----- -- ---- ------<br>--- ----- --- --- ------ -------- ----- --- ------ ----- --<br>----- ----- ---------- --- --- ------ ------ ---- -- ------<br>------- --- ------ ----- --- ---- ------- -- ---- --- --<br>------- ------,290824.40000009537,290822.7999999523,289895.43,289908.2999999523,289911.933,290828.562,,4,French
screen,html.Screen,2_1_1_1_5,2022-05-02T15:19:52.088Z,,,,,,,,,,,,,,,,,54,,,,,,,,,,,,,,563.1380000477075,,response,,,,100,,,,,,,Space,keypress(Space),,,,,,,,-- --- ---- --- ------ crown ------- ---- -- --- ------- --<br>------- ---------- ------ -- ----- -- ----- -- ---- ------<br>--- ----- --- --- ------ -------- ----- --- ------ ----- --<br>----- ----- ---------- --- --- ------ ------ ---- -- ------<br>------- --- ------ ----- --- ---- ------- -- ---- --- --<br>------- ------,291393.40000009537,291391.7000000477,290812.144,290824.7000000477,290828.562,291419.422,,5,crown
screen,html.Screen,2_1_1_1_6,2022-05-02T15:19:52.922Z,,,,,,,,,,,,,,,,,54,,,,,,,,,,,,,,806.5779999999795,,response,,,,100,,,,,,,Space,keypress(Space),,,,,,,,-- --- ---- --- ------ ----- secured ---- -- --- ------- --<br>------- ---------- ------ -- ----- -- ----- -- ---- ------<br>--- ----- --- --- ------ -------- ----- --- ------ ----- --<br>----- ----- ---------- --- --- ------ ------ ---- -- ------<br>------- --- ------ ----- --- ---- ------- -- ---- --- --<br>------- ------,292227.60000014305,292226,291378.663,291393.7000000477,291419.422,292245.297,,6,secured
screen,html.Screen,2_1_1_1_7,2022-05-02T15:19:53.290Z,,,,,,,,,,,,,,,,,54,,,,,,,,,,,,,,348.10300009534694,,response,,,,100,,,,,,,Space,keypress(Space),,,,,,,,-- --- ---- --- ------ ----- ------- much -- --- ------- --<br>------- ---------- ------ -- ----- -- ----- -- ---- ------<br>--- ----- --- --- ------ -------- ----- --- ------ ----- --<br>----- ----- ---------- --- --- ------ ------ ---- -- ------<br>------- --- ------ ----- --- ---- ------- -- ---- --- --<br>------- ------,292595.2000000477,292593.40000009537,292228.611,292227.7999999523,292245.297,292611.945,,7,much
screen,html.Screen,2_1_1_1_8,2022-05-02T15:19:53.699Z,,,,,,,,,,,,,,,,,54,,,,,,,,,,,,,,390.95500009536045,,response,,,,100,,,,,,,Space,keypress(Space),,,,,,,,-- --- ---- --- ------ ----- ------- ---- of --- ------- --<br>------- ---------- ------ -- ----- -- ----- -- ---- ------<br>--- ----- --- --- ------ -------- ----- --- ------ ----- --<br>----- ----- ---------- --- --- ------ ------ ---- -- ------<br>------- --- ------ ----- --- ---- ------- -- ---- --- --<br>------- ------,293004.5,293002.90000009537,292595.272,292595.60000014305,292611.945,293012.352,,8,of
screen,html.Screen,2_1_1_1_9,2022-05-02T15:19:54.030Z,,,,,,,,,,,,,,,,,54,,,,,,,,,,,,,,321.24800014303764,,response,,,,100,,,,,,,Space,keypress(Space),,,,,,,,-- --- ---- --- ------ ----- ------- ---- -- its ------- --<br>------- ---------- ------ -- ----- -- ----- -- ---- ------<br>--- ----- --- --- ------ -------- ----- --- ------ ----- --<br>----- ----- ---------- --- --- ------ ------ ---- -- ------<br>------- --- ------ ----- --- ---- ------- -- ---- --- --<br>------- ------,293335.2000000477,293333.60000014305,292995.143,293004.90000009537,293012.352,293345.244,,9,its
screen,html.Screen,2_1_1_1_10,2022-05-02T15:19:54.620Z,,,,,,,,,,,,,,,,,54,,,,,,,,,,,,,,578.4560000476777,,response,,,,100,,,,,,,Space,keypress(Space),,,,,,,,-- --- ---- --- ------ ----- ------- ---- -- --- revenue --<br>------- ---------- ------ -- ----- -- ----- -- ---- ------<br>--- ----- --- --- ------ -------- ----- --- ------ ----- --<br>----- ----- ---------- --- --- ------ ------ ---- -- ------<br>------- --- ------ ----- --- ---- ------- -- ---- --- --<br>------- ------,293925.40000009537,293923.7000000477,293328.487,293335.5,293345.244,293928.397,,10,revenue
screen,html.Screen,2_1_1_1_11,2022-05-02T15:19:54.992Z,,,,,,,,,,,,,,,,,54,,,,,,,,,,,,,,368.3030000476865,,response,,,,100,,,,,,,Space,keypress(Space),,,,,,,,-- --- ---- --- ------ ----- ------- ---- -- --- ------- by<br>------- ---------- ------ -- ----- -- ----- -- ---- ------<br>--- ----- --- --- ------ -------- ----- --- ------ ----- --<br>----- ----- ---------- --- --- ------ ------ ---- -- ------<br>------- --- ------ ----- --- ---- ------- -- ---- --- --<br>------- ------,294297.60000014305,294296.7000000477,293911.866,293925.7999999523,293928.397,294311.692,,11,by
screen,html.Screen,2_1_1_1_12,2022-05-02T15:19:55.355Z,,,,,,,,,,,,,,,,,54,,,,,,,,,,,,,,347.1079999523354,,response,,,,100,,,,,,,Space,keypress(Space),,,,,,,,-- --- ---- --- ------ ----- ------- ---- -- --- ------- --<br>issuing ---------- ------ -- ----- -- ----- -- ---- ------<br>--- ----- --- --- ------ -------- ----- --- ------ ----- --<br>----- ----- ---------- --- --- ------ ------ ---- -- ------<br>------- --- ------ ----- --- ---- ------- -- ---- --- --<br>------- ------,294660.40000009537,294658.7999999523,294295.305,294297.7000000477,294311.692,294695.144,,12,issuing
screen,html.Screen,2_1_1_1_13,2022-05-02T15:19:55.922Z,,,,,,,,,,,,,,,,,54,,,,,,,,,,,,,,530.3560000000289,,response,,,,100,,,,,,,Space,keypress(Space),,,,,,,,-- --- ---- --- ------ ----- ------- ---- -- --- ------- --<br>------- government ------ -- ----- -- ----- -- ---- ------<br>--- ----- --- --- ------ -------- ----- --- ------ ----- --<br>----- ----- ---------- --- --- ------ ------ ---- -- ------<br>------- --- ------ ----- --- ---- ------- -- ---- --- --<br>------- ------,295227.2000000477,295225.5,294678.538,294660.7000000477,294695.144,295261.831,,13,government
screen,html.Screen,2_1_1_1_14,2022-05-02T15:19:57.309Z,,,,,,,,,,,,,,,,,54,,,,,,,,,,,,,,1350.2690001430456,,response,,,,100,,,,,,,Space,keypress(Space),,,,,,,,-- --- ---- --- ------ ----- ------- ---- -- --- ------- --<br>------- ---------- bonds. -- ----- -- ----- -- ---- ------<br>--- ----- --- --- ------ -------- ----- --- ------ ----- --<br>----- ----- ---------- --- --- ------ ------ ---- -- ------<br>------- --- ------ ----- --- ---- ------- -- ---- --- --<br>------- ------,296613.90000009537,296612.10000014305,295245.174,295227.40000009537,295261.831,296628.337,,14,bonds.
screen,html.Screen,2_1_1_1_15,2022-05-02T15:19:57.710Z,,,,,,,,,,,,,,,,,54,,,,,,,,,,,,,,385.3630000476842,,response,,,,100,,,,,,,Space,keypress(Space),,,,,,,,-- --- ---- --- ------ ----- ------- ---- -- --- ------- --<br>------- ---------- ------ In ----- -- ----- -- ---- ------<br>--- ----- --- --- ------ -------- ----- --- ------ ----- --<br>----- ----- ---------- --- --- ------ ------ ---- -- ------<br>------- --- ------ ----- --- ---- ------- -- ---- --- --<br>------- ------,297015.5,297013.7000000477,296611.699,296614.2999999523,296628.337,297028.289,,15,In
screen,html.Screen,2_1_1_1_16,2022-05-02T15:19:59.236Z,,,,,,,,,,,,,,,,,54,,,,,,,,,,,,,,1510.8110001430614,,response,,,,100,,,,,,,Space,keypress(Space),,,,,,,,"-- --- ---- --- ------ ----- ------- ---- -- --- ------- --<br>------- ---------- ------ -- 1727, -- ----- -- ---- ------<br>--- ----- --- --- ------ -------- ----- --- ------ ----- --<br>----- ----- ---------- --- --- ------ ------ ---- -- ------<br>------- --- ------ ----- --- ---- ------- -- ---- --- --<br>------- ------",298540.90000009537,298539.10000014305,297011.638,297015.90000009537,297028.289,298544.872,,16,"1727,"
screen,html.Screen,2_1_1_1_17,2022-05-02T15:19:59.637Z,,,,,,,,,,,,,,,,,54,,,,,,,,,,,,,,395.8280000477098,,response,,,,100,,,,,,,Space,keypress(Space),,,,,,,,-- --- ---- --- ------ ----- ------- ---- -- --- ------- --<br>------- ---------- ------ -- ----- in ----- -- ---- ------<br>--- ----- --- --- ------ -------- ----- --- ------ ----- --<br>----- ----- ---------- --- --- ------ ------ ---- -- ------<br>------- --- ------ ----- --- ---- ------- -- ---- --- --<br>------- ------,298942.2999999523,298940.7000000477,298528.202,298541.2999999523,298544.872,298944.864,,17,in
screen,html.Screen,2_1_1_1_18,2022-05-02T15:20:00.044Z,,,,,,,,,,,,,,,,,54,,,,,,,,,,,,,,403.1359999999986,,response,,,,100,,,,,,,Space,keypress(Space),,,,,,,,-- --- ---- --- ------ ----- ------- ---- -- --- ------- --<br>------- ---------- ------ -- ----- -- order -- ---- ------<br>--- ----- --- --- ------ -------- ----- --- ------ ----- --<br>----- ----- ---------- --- --- ------ ------ ---- -- ------<br>------- --- ------ ----- --- ---- ------- -- ---- --- --<br>------- ------,299349.5,299348,298928.242,298942.7000000477,298944.864,299361.427,,18,order
screen,html.Screen,2_1_1_1_19,2022-05-02T15:20:00.439Z,,,,,,,,,,,,,,,,,54,,,,,,,,,,,,,,381.4730000953423,,response,,,,100,,,,,,,Space,keypress(Space),,,,,,,,-- --- ---- --- ------ ----- ------- ---- -- --- ------- --<br>------- ---------- ------ -- ----- -- ----- to ---- ------<br>--- ----- --- --- ------ -------- ----- --- ------ ----- --<br>----- ----- ---------- --- --- ------ ------ ---- -- ------<br>------- --- ------ ----- --- ---- ------- -- ---- --- --<br>------- ------,299744.40000009537,299742.90000009537,299345.053,299349.60000014305,299361.427,299761.605,,19,to
screen,html.Screen,2_1_1_1_20,2022-05-02T15:20:00.798Z,,,,,,,,,,,,,,,,,54,,,,,,,,,,,,,,339.3950000000186,,response,,,,100,,,,,,,Space,keypress(Space),,,,,,,,-- --- ---- --- ------ ----- ------- ---- -- --- ------- --<br>------- ---------- ------ -- ----- -- ----- -- save ------<br>--- ----- --- --- ------ -------- ----- --- ------ ----- --<br>----- ----- ---------- --- --- ------ ------ ---- -- ------<br>------- --- ------ ----- --- ---- ------- -- ---- --- --<br>------- ------,300103.2999999523,300101,299744.768,299744.90000009537,299761.605,300111.886,,20,save
screen,html.Screen,2_1_1_1_21,2022-05-02T15:20:01.283Z,,,,,,,,,,,,,,,,,54,,,,,,,,,,,,,,474.6140000000014,,response,,,,100,,,,,,,Space,keypress(Space),,,,,,,,"-- --- ---- --- ------ ----- ------- ---- -- --- ------- --<br>------- ---------- ------ -- ----- -- ----- -- ---- money,<br>--- ----- --- --- ------ -------- ----- --- ------ ----- --<br>----- ----- ---------- --- --- ------ ------ ---- -- ------<br>------- --- ------ ----- --- ---- ------- -- ---- --- --<br>------- ------",300588.10000014305,300586.5,300094.916,300103.60000014305,300111.886,300594.846,,21,"money,"
screen,html.Screen,2_1_1_1_22,2022-05-02T15:20:01.749Z,,,,,,,,,,,,,,,,,54,,,,,,,,,,,,,,457.85400004766416,,response,,,,100,,,,,,,Space,keypress(Space),,,,,,,,-- --- ---- --- ------ ----- ------- ---- -- --- ------- --<br>------- ---------- ------ -- ----- -- ----- -- ---- ------<br>the ----- --- --- ------ -------- ----- --- ------ ----- --<br>----- ----- ---------- --- --- ------ ------ ---- -- ------<br>------- --- ------ ----- --- ---- ------- -- ---- --- --<br>------- ------,301054.60000014305,301052.7000000477,300578.114,300588.40000009537,300594.846,301061.434,,22,the
screen,html.Screen,2_1_1_1_23,2022-05-02T15:20:02.179Z,,,,,,,,,,,,,,,,,54,,,,,,,,,,,,,,421.76600004767533,,response,,,,100,,,,,,,Space,keypress(Space),,,,,,,,-- --- ---- --- ------ ----- ------- ---- -- --- ------- --<br>------- ---------- ------ -- ----- -- ----- -- ---- ------<br>--- state --- --- ------ -------- ----- --- ------ ----- --<br>----- ----- ---------- --- --- ------ ------ ---- -- ------<br>------- --- ------ ----- --- ---- ------- -- ---- --- --<br>------- ------,301484.90000009537,301483.2000000477,301044.821,301054.90000009537,301061.434,301494.902,,23,state
screen,html.Screen,2_1_1_1_24,2022-05-02T15:20:02.574Z,,,,,,,,,,,,,,,,,54,,,,,,,,,,,,,,382.3979999523144,,response,,,,100,,,,,,,Space,keypress(Space),,,,,,,,-- --- ---- --- ------ ----- ------- ---- -- --- ------- --<br>------- ---------- ------ -- ----- -- ----- -- ---- ------<br>--- ----- cut --- ------ -------- ----- --- ------ ----- --<br>----- ----- ---------- --- --- ------ ------ ---- -- ------<br>------- --- ------ ----- --- ---- ------- -- ---- --- --<br>------- ------,301879,301877.2999999523,301478.21,301485.2000000477,301494.902,301894.769,,24,cut
screen,html.Screen,2_1_1_1_25,2022-05-02T15:20:03.066Z,,,,,,,,,,,,,,,,,54,,,,,,,,,,,,,,475.23100000002887,,response,,,,100,,,,,,,Space,keypress(Space),,,,,,,,-- --- ---- --- ------ ----- ------- ---- -- --- ------- --<br>------- ---------- ------ -- ----- -- ----- -- ---- ------<br>--- ----- --- the ------ -------- ----- --- ------ ----- --<br>----- ----- ---------- --- --- ------ ------ ---- -- ------<br>------- --- ------ ----- --- ---- ------- -- ---- --- --<br>------- ------,302371.60000014305,302370,301878.117,301879.40000009537,301894.769,302378.04,,25,the
screen,html.Screen,2_1_1_1_26,2022-05-02T15:20:03.463Z,,,,,,,,,,,,,,,,,54,,,,,,,,,,,,,,388.66000004770467,,response,,,,100,,,,,,,Space,keypress(Space),,,,,,,,-- --- ---- --- ------ ----- ------- ---- -- --- ------- --<br>------- ---------- ------ -- ----- -- ----- -- ---- ------<br>--- ----- --- --- bonds' -------- ----- --- ------ ----- --<br>----- ----- ---------- --- --- ------ ------ ---- -- ------<br>------- --- ------ ----- --- ---- ------- -- ---- --- --<br>------- ------,302768.40000009537,302766.7000000477,302361.442,302372,302378.04,302778.004,,26,bonds'
screen,html.Screen,2_1_1_1_27,2022-05-02T15:20:03.890Z,,,,,,,,,,,,,,,,,54,,,,,,,,,,,,,,415.0960001430358,,response,,,,100,,,,,,,Space,keypress(Space),,,,,,,,-- --- ---- --- ------ ----- ------- ---- -- --- ------- --<br>------- ---------- ------ -- ----- -- ----- -- ---- ------<br>--- ----- --- --- ------ interest ----- --- ------ ----- --<br>----- ----- ---------- --- --- ------ ------ ---- -- ------<br>------- --- ------ ----- --- ---- ------- -- ---- --- --<br>------- ------,303195,303193.10000014305,302761.385,302768.7000000477,302778.004,303211.446,,27,interest
screen,html.Screen,2_1_1_1_28,2022-05-02T15:20:04.225Z,,,,,,,,,,,,,,,,,54,,,,,,,,,,,,,,317.1540001430549,,response,,,,100,,,,,,,Space,keypress(Space),,,,,,,,-- --- ---- --- ------ ----- ------- ---- -- --- ------- --<br>------- ---------- ------ -- ----- -- ----- -- ---- ------<br>--- ----- --- --- ------ -------- rate. --- ------ ----- --<br>----- ----- ---------- --- --- ------ ------ ---- -- ------<br>------- --- ------ ----- --- ---- ------- -- ---- --- --<br>------- ------,303530.2000000477,303528.60000014305,303194.784,303195.40000009537,303211.446,303544.769,,28,rate.
screen,html.Screen,2_1_1_1_29,2022-05-02T15:20:04.829Z,,,,,,,,,,,,,,,,,54,,,,,,,,,,,,,,587.83100014308,,response,,,,100,,,,,,,Space,keypress(Space),,,,,,,,-- --- ---- --- ------ ----- ------- ---- -- --- ------- --<br>------- ---------- ------ -- ----- -- ----- -- ---- ------<br>--- ----- --- --- ------ -------- ----- The ------ ----- --<br>----- ----- ---------- --- --- ------ ------ ---- -- ------<br>------- --- ------ ----- --- ---- ------- -- ---- --- --<br>------- ------,304134.2000000477,304132.60000014305,303528.098,303530.5,303544.769,304144.849,,29,The
screen,html.Screen,2_1_1_1_30,2022-05-02T15:20:05.212Z,,,,,,,,,,,,,,,,,54,,,,,,,,,,,,,,370.3510000476963,,response,,,,100,,,,,,,Space,keypress(Space),,,,,,,,-- --- ---- --- ------ ----- ------- ---- -- --- ------- --<br>------- ---------- ------ -- ----- -- ----- -- ---- ------<br>--- ----- --- --- ------ -------- ----- --- market ----- --<br>----- ----- ---------- --- --- ------ ------ ---- -- ------<br>------- --- ------ ----- --- ---- ------- -- ---- --- --<br>------- ------,304517,304515.2000000477,304128.077,304134.5,304144.849,304528.042,,30,market
screen,html.Screen,2_1_1_1_31,2022-05-02T15:20:05.545Z,,,,,,,,,,,,,,,,,54,,,,,,,,,,,,,,320.25799995230045,,response,,,,100,,,,,,,Space,keypress(Space),,,,,,,,-- --- ---- --- ------ ----- ------- ---- -- --- ------- --<br>------- ---------- ------ -- ----- -- ----- -- ---- ------<br>--- ----- --- --- ------ -------- ----- --- ------ value --<br>----- ----- ---------- --- --- ------ ------ ---- -- ------<br>------- --- ------ ----- --- ---- ------- -- ---- --- --<br>------- ------,304849.90000009537,304848.2999999523,304511.851,304517.40000009537,304528.042,304861.195,,31,value
screen,html.Screen,2_1_1_1_32,2022-05-02T15:20:05.910Z,,,,,,,,,,,,,,,,,54,,,,,,,,,,,,,,352.50500004767673,,response,,,,100,,,,,,,Space,keypress(Space),,,,,,,,-- --- ---- --- ------ ----- ------- ---- -- --- ------- --<br>------- ---------- ------ -- ----- -- ----- -- ---- ------<br>--- ----- --- --- ------ -------- ----- --- ------ ----- of<br>----- ----- ---------- --- --- ------ ------ ---- -- ------<br>------- --- ------ ----- --- ---- ------- -- ---- --- --<br>------- ------,305215.40000009537,305213.7000000477,304844.635,304850.2000000477,304861.195,305228.035,,32,of
screen,html.Screen,2_1_1_1_33,2022-05-02T15:20:06.265Z,,,,,,,,,,,,,,,,,54,,,,,,,,,,,,,,340.7649999523419,,response,,,,100,,,,,,,Space,keypress(Space),,,,,,,,-- --- ---- --- ------ ----- ------- ---- -- --- ------- --<br>------- ---------- ------ -- ----- -- ----- -- ---- ------<br>--- ----- --- --- ------ -------- ----- --- ------ ----- --<br>these ----- ---------- --- --- ------ ------ ---- -- ------<br>------- --- ------ ----- --- ---- ------- -- ---- --- --<br>------- ------,305570.5,305568.7999999523,305211.359,305215.7000000477,305228.035,305578.311,,33,these
screen,html.Screen,2_1_1_1_34,2022-05-02T15:20:06.609Z,,,,,,,,,,,,,,,,,54,,,,,,,,,,,,,,334.58900009538047,,response,,,,100,,,,,,,Space,keypress(Space),,,,,,,,-- --- ---- --- ------ ----- ------- ---- -- --- ------- --<br>------- ---------- ------ -- ----- -- ----- -- ---- ------<br>--- ----- --- --- ------ -------- ----- --- ------ ----- --<br>----- bonds ---------- --- --- ------ ------ ---- -- ------<br>------- --- ------ ----- --- ---- ------- -- ---- --- --<br>------- ------,305914.5,305912.90000009537,305561.226,305570.7999999523,305578.311,305927.996,,34,bonds
screen,html.Screen,2_1_1_1_35,2022-05-02T15:20:07.123Z,,,,,,,,,,,,,,,,,54,,,,,,,,,,,,,,498.50400000001537,,response,,,,100,,,,,,,Space,keypress(Space),,,,,,,,"-- --- ---- --- ------ ----- ------- ---- -- --- ------- --<br>------- ---------- ------ -- ----- -- ----- -- ---- ------<br>--- ----- --- --- ------ -------- ----- --- ------ ----- --<br>----- ----- plummeted, --- --- ------ ------ ---- -- ------<br>------- --- ------ ----- --- ---- ------- -- ---- --- --<br>------- ------",306428.2000000477,306426.5,305911.251,305914.7999999523,305927.996,306444.638,,35,"plummeted,"
screen,html.Screen,2_1_1_1_36,2022-05-02T15:20:07.501Z,,,,,,,,,,,,,,,,,54,,,,,,,,,,,,,,359.76200009539025,,response,,,,100,,,,,,,Space,keypress(Space),,,,,,,,-- --- ---- --- ------ ----- ------- ---- -- --- ------- --<br>------- ---------- ------ -- ----- -- ----- -- ---- ------<br>--- ----- --- --- ------ -------- ----- --- ------ ----- --<br>----- ----- ---------- and --- ------ ------ ---- -- ------<br>------- --- ------ ----- --- ---- ------- -- ---- --- --<br>------- ------,306806,306804.40000009537,306427.866,306428.5,306444.638,306811.159,,36,and
screen,html.Screen,2_1_1_1_37,2022-05-02T15:20:07.868Z,,,,,,,,,,,,,,,,,54,,,,,,,,,,,,,,360.0410000476986,,response,,,,100,,,,,,,Space,keypress(Space),,,,,,,,-- --- ---- --- ------ ----- ------- ---- -- --- ------- --<br>------- ---------- ------ -- ----- -- ----- -- ---- ------<br>--- ----- --- --- ------ -------- ----- --- ------ ----- --<br>----- ----- ---------- --- the ------ ------ ---- -- ------<br>------- --- ------ ----- --- ---- ------- -- ---- --- --<br>------- ------,307172.90000009537,307171.2000000477,306794.588,306806.2999999523,306811.159,307177.808,,37,the
screen,html.Screen,2_1_1_1_38,2022-05-02T15:20:08.295Z,,,,,,,,,,,,,,,,,54,,,,,,,,,,,,,,420.59200009534834,,response,,,,100,,,,,,,Space,keypress(Space),,,,,,,,-- --- ---- --- ------ ----- ------- ---- -- --- ------- --<br>------- ---------- ------ -- ----- -- ----- -- ---- ------<br>--- ----- --- --- ------ -------- ----- --- ------ ----- --<br>----- ----- ---------- --- --- market ------ ---- -- ------<br>------- --- ------ ----- --- ---- ------- -- ---- --- --<br>------- ------,307600.40000009537,307598.40000009537,307161.285,307173.2999999523,307177.808,307611.175,,38,market
screen,html.Screen,2_1_1_1_39,2022-05-02T15:20:08.731Z,,,,,,,,,,,,,,,,,54,,,,,,,,,,,,,,423.4250001430628,,response,,,,100,,,,,,,Space,keypress(Space),,,,,,,,-- --- ---- --- ------ ----- ------- ---- -- --- ------- --<br>------- ---------- ------ -- ----- -- ----- -- ---- ------<br>--- ----- --- --- ------ -------- ----- --- ------ ----- --<br>----- ----- ---------- --- --- ------ became ---- -- ------<br>------- --- ------ ----- --- ---- ------- -- ---- --- --<br>------- ------,308036.2000000477,308034.60000014305,307594.379,307600.90000009537,307611.175,308044.433,,39,became
screen,html.Screen,2_1_1_1_40,2022-05-02T15:20:09.127Z,,,,,,,,,,,,,,,,,54,,,,,,,,,,,,,,386.46700009534834,,response,,,,100,,,,,,,Space,keypress(Space),,,,,,,,-- --- ---- --- ------ ----- ------- ---- -- --- ------- --<br>------- ---------- ------ -- ----- -- ----- -- ---- ------<br>--- ----- --- --- ------ -------- ----- --- ------ ----- --<br>----- ----- ---------- --- --- ------ ------ wary -- ------<br>------- --- ------ ----- --- ---- ------- -- ---- --- --<br>------- ------,308432.7999999523,308430.90000009537,308027.818,308036.5,308044.433,308444.488,,40,wary
screen,html.Screen,2_1_1_1_41,2022-05-02T15:20:09.478Z,,,,,,,,,,,,,,,,,54,,,,,,,,,,,,,,337.5119999999879,,response,,,,100,,,,,,,Space,keypress(Space),,,,,,,,-- --- ---- --- ------ ----- ------- ---- -- --- ------- --<br>------- ---------- ------ -- ----- -- ----- -- ---- ------<br>--- ----- --- --- ------ -------- ----- --- ------ ----- --<br>----- ----- ---------- --- --- ------ ------ ---- of ------<br>------- --- ------ ----- --- ---- ------- -- ---- --- --<br>------- ------,308783.90000009537,308782,308427.767,308433.10000014305,308444.488,308794.483,,41,of
screen,html.Screen,2_1_1_1_42,2022-05-02T15:20:09.885Z,,,,,,,,,,,,,,,,,54,,,,,,,,,,,,,,393.91700009536,,response,,,,100,,,,,,,Space,keypress(Space),,,,,,,,-- --- ---- --- ------ ----- ------- ---- -- --- ------- --<br>------- ---------- ------ -- ----- -- ----- -- ---- ------<br>--- ----- --- --- ------ -------- ----- --- ------ ----- --<br>----- ----- ---------- --- --- ------ ------ ---- -- French<br>------- --- ------ ----- --- ---- ------- -- ---- --- --<br>------- ------,309190.2000000477,309188.40000009537,308777.792,308784.2000000477,308794.483,309194.368,,42,French
screen,html.Screen,2_1_1_1_43,2022-05-02T15:20:10.724Z,,,,,,,,,,,,,,,,,54,,,,,,,,,,,,,,833.0320000953507,,response,,,,100,,,,,,,Space,keypress(Space),,,,,,,,-- --- ---- --- ------ ----- ------- ---- -- --- ------- --<br>------- ---------- ------ -- ----- -- ----- -- ---- ------<br>--- ----- --- --- ------ -------- ----- --- ------ ----- --<br>----- ----- ---------- --- --- ------ ------ ---- -- ------<br>credit. --- ------ ----- --- ---- ------- -- ---- --- --<br>------- ------,310029.10000014305,310027.40000009537,309177.766,309190.60000014305,309194.368,310044.498,,43,credit.
screen,html.Screen,2_1_1_1_44,2022-05-02T15:20:11.082Z,,,,,,,,,,,,,,,,,54,,,,,,,,,,,,,,340.80199995229486,,response,,,,100,,,,,,,Space,keypress(Space),,,,,,,,-- --- ---- --- ------ ----- ------- ---- -- --- ------- --<br>------- ---------- ------ -- ----- -- ----- -- ---- ------<br>--- ----- --- --- ------ -------- ----- --- ------ ----- --<br>----- ----- ---------- --- --- ------ ------ ---- -- ------<br>------- The ------ ----- --- ---- ------- -- ---- --- --<br>------- ------,310387,310385.2999999523,310027.785,310029.40000009537,310044.498,310394.464,,44,The
screen,html.Screen,2_1_1_1_45,2022-05-02T15:20:11.446Z,,,,,,,,,,,,,,,,,54,,,,,,,,,,,,,,355.5360000000219,,response,,,,100,,,,,,,Space,keypress(Space),,,,,,,,-- --- ---- --- ------ ----- ------- ---- -- --- ------- --<br>------- ---------- ------ -- ----- -- ----- -- ---- ------<br>--- ----- --- --- ------ -------- ----- --- ------ ----- --<br>----- ----- ---------- --- --- ------ ------ ---- -- ------<br>------- --- French ----- --- ---- ------- -- ---- --- --<br>------- ------,310751.60000014305,310750,310377.724,310387.40000009537,310394.464,310760.985,,45,French
screen,html.Screen,2_1_1_1_46,2022-05-02T15:20:11.963Z,,,,,,,,,,,,,,,,,54,,,,,,,,,,,,,,506.01500000001397,,response,,,,100,,,,,,,Space,keypress(Space),,,,,,,,-- --- ---- --- ------ ----- ------- ---- -- --- ------- --<br>------- ---------- ------ -- ----- -- ----- -- ---- ------<br>--- ----- --- --- ------ -------- ----- --- ------ ----- --<br>----- ----- ---------- --- --- ------ ------ ---- -- ------<br>------- --- ------ state --- ---- ------- -- ---- --- --<br>------- ------,311268.60000014305,311267,310744.336,310752.10000014305,310760.985,311277.844,,46,state
screen,html.Screen,2_1_1_1_47,2022-05-02T15:20:12.357Z,,,,,,,,,,,,,,,,,54,,,,,,,,,,,,,,383.35600004770095,,response,,,,100,,,,,,,Space,keypress(Space),,,,,,,,-- --- ---- --- ------ ----- ------- ---- -- --- ------- --<br>------- ---------- ------ -- ----- -- ----- -- ---- ------<br>--- ----- --- --- ------ -------- ----- --- ------ ----- --<br>----- ----- ---------- --- --- ------ ------ ---- -- ------<br>------- --- ------ ----- was ---- ------- -- ---- --- --<br>------- ------,311662.90000009537,311661.2000000477,311261.084,311268.90000009537,311277.844,311677.756,,47,was
screen,html.Screen,2_1_1_1_48,2022-05-02T15:20:12.748Z,,,,,,,,,,,,,,,,,54,,,,,,,,,,,,,,373.8440001430572,,response,,,,100,,,,,,,Space,keypress(Space),,,,,,,,-- --- ---- --- ------ ----- ------- ---- -- --- ------- --<br>------- ---------- ------ -- ----- -- ----- -- ---- ------<br>--- ----- --- --- ------ -------- ----- --- ------ ----- --<br>----- ----- ---------- --- --- ------ ------ ---- -- ------<br>------- --- ------ ----- --- left ------- -- ---- --- --<br>------- ------,312053.5,312051.60000014305,311660.981,311663.2000000477,311677.756,312060.894,,48,left
screen,html.Screen,2_1_1_1_49,2022-05-02T15:20:13.147Z,,,,,,,,,,,,,,,,,54,,,,,,,,,,,,,,389.70600014308,,response,,,,100,,,,,,,Space,keypress(Space),,,,,,,,-- --- ---- --- ------ ----- ------- ---- -- --- ------- --<br>------- ---------- ------ -- ----- -- ----- -- ---- ------<br>--- ----- --- --- ------ -------- ----- --- ------ ----- --<br>----- ----- ---------- --- --- ------ ------ ---- -- ------<br>------- --- ------ ----- --- ---- without -- ---- --- --<br>------- ------,312452.2999999523,312450.60000014305,312044.252,312053.90000009537,312060.894,312460.885,,49,without
screen,html.Screen,2_1_1_1_50,2022-05-02T15:20:13.506Z,,,,,,,,,,,,,,,,,54,,,,,,,,,,,,,,349.21500014304183,,response,,,,100,,,,,,,Space,keypress(Space),,,,,,,,-- --- ---- --- ------ ----- ------- ---- -- --- ------- --<br>------- ---------- ------ -- ----- -- ----- -- ---- ------<br>--- ----- --- --- ------ -------- ----- --- ------ ----- --<br>----- ----- ---------- --- --- ------ ------ ---- -- ------<br>------- --- ------ ----- --- ---- ------- an ---- --- --<br>------- ------,312811.7000000477,312810.10000014305,312444.43,312452.7000000477,312460.885,312827.586,,50,an
screen,html.Screen,2_1_1_1_51,2022-05-02T15:20:13.874Z,,,,,,,,,,,,,,,,,54,,,,,,,,,,,,,,350.0140001430409,,response,,,,100,,,,,,,Space,keypress(Space),,,,,,,,-- --- ---- --- ------ ----- ------- ---- -- --- ------- --<br>------- ---------- ------ -- ----- -- ----- -- ---- ------<br>--- ----- --- --- ------ -------- ----- --- ------ ----- --<br>----- ----- ---------- --- --- ------ ------ ---- -- ------<br>------- --- ------ ----- --- ---- ------- -- easy --- --<br>------- ------,313179.2999999523,313177.60000014305,312811.097,312812,312827.586,313194.329,,51,easy
screen,html.Screen,2_1_1_1_52,2022-05-02T15:20:14.203Z,,,,,,,,,,,,,,,,,54,,,,,,,,,,,,,,312.0710000953404,,response,,,,100,,,,,,,Space,keypress(Space),,,,,,,,-- --- ---- --- ------ ----- ------- ---- -- --- ------- --<br>------- ---------- ------ -- ----- -- ----- -- ---- ------<br>--- ----- --- --- ------ -------- ----- --- ------ ----- --<br>----- ----- ---------- --- --- ------ ------ ---- -- ------<br>------- --- ------ ----- --- ---- ------- -- ---- way --<br>------- ------,313507.90000009537,313506.40000009537,313177.488,313179.7000000477,313194.329,313510.836,,52,way
screen,html.Screen,2_1_1_1_53,2022-05-02T15:20:14.660Z,,,,,,,,,,,,,,,,,54,,,,,,,,,,,,,,452.46399995230604,,response,,,,100,,,,,,,Space,keypress(Space),,,,,,,,-- --- ---- --- ------ ----- ------- ---- -- --- ------- --<br>------- ---------- ------ -- ----- -- ----- -- ---- ------<br>--- ----- --- --- ------ -------- ----- --- ------ ----- --<br>----- ----- ---------- --- --- ------ ------ ---- -- ------<br>------- --- ------ ----- --- ---- ------- -- ---- --- of<br>------- ------,313965,313963.2999999523,313494.191,313508.2999999523,313510.836,313977.586,,53,of
screen,html.Screen,2_1_1_1_54,2022-05-02T15:20:15.018Z,,,,,,,,,,,,,,,,,54,,,,,,,,,,,,,,344.71399995230604,,response,,,,100,,,,,,,Space,keypress(Space),,,,,,,,-- --- ---- --- ------ ----- ------- ---- -- --- ------- --<br>------- ---------- ------ -- ----- -- ----- -- ---- ------<br>--- ----- --- --- ------ -------- ----- --- ------ ----- --<br>----- ----- ---------- --- --- ------ ------ ---- -- ------<br>------- --- ------ ----- --- ---- ------- -- ---- --- --<br>raising ------,314323.90000009537,314322.2999999523,313960.9,313965.2999999523,313977.586,314327.467,,54,raising
screen,html.Screen,2_1_1_1_55,2022-05-02T15:20:16.440Z,,,,,,,,,,,,,,,,,54,,,,,,,,,,,,,,1416.5329999999958,,response,,,,100,,,,,,,Space,keypress(Space),,,,,,,,-- --- ---- --- ------ ----- ------- ---- -- --- ------- --<br>------- ---------- ------ -- ----- -- ----- -- ---- ------<br>--- ----- --- --- ------ -------- ----- --- ------ ----- --<br>----- ----- ---------- --- --- ------ ------ ---- -- ------<br>------- --- ------ ----- --- ---- ------- -- ---- --- --<br>------- money.,315745.90000009537,315744,314310.927,314324.2000000477,314327.467,315760.701,,55,money.
Item 100,flow.Loop,2_1_1_1,2022-05-02T15:20:16.441Z,,,,,,,,,,,,,,,,,,,,,,,,,,,,,,,27782.005000000005,,completion,,,,,G,,,,,,,,,,,silence,,,,,315746.5,315744,287945.445,287947,287961.995,315760.701,,,
Question 1,html.Screen,2_1_1_2,2022-05-02T15:20:18.841Z,,,,,,,,,,,,,,,,,,,,,,,,,,,,true,TRUE,,2383.0989999523154,,response,,,,100,G,,,,,,TRUE,click #choice-1,,,,silence,,,,,318146.90000009537,318143.7999999523,315744.141,315746.7999999523,315760.701,318161.503,,,
Question 2,html.Screen,2_1_1_3,2022-05-02T15:20:20.941Z,,,,,,,,,,,,,,,,,,,,,,,,,,,,true,FALSE,,2082.097000143025,,response,,,,100,G,,,,,,FALSE,click #choice-2,,,,silence,,,,,320246.2999999523,320243.60000014305,318144.109,318147.2000000477,318161.503,320261.323,,,
Item 100,flow.Sequence,2_1_1,2022-05-02T15:20:20.942Z,,,,,,,,,,,,,,,,,,,,,,,,,,,,,,,42280.61300014303,,completion,,,,,,,,,,,,,,,,,,,,,320246.90000009537,320243.60000014305,277929.608,277943.7999999523,277962.987,320261.323,,,
End of Practice,html.Page,2_1_2,2022-05-02T15:20:26.970Z,,,,,,,,,,,,,,,,,,,,,,,,,,,,,,,6013.377000047709,,form submission,,,,,,,,,,,,,,,,,,,,,326275.7000000477,326274.7000000477,320243.926,320247.2999999523,320261.323,326278.561,,,
Practice,flow.Sequence,2_1,2022-05-02T15:20:26.974Z,,,,,,,,,,,,,,,,,,,,,,,,,,,,,,,100509.73600004768,,completion,,,,,,,,,,,,,,,,,,,,,326279.90000009537,326274.7000000477,225731.71,225750.70000004768,225764.964,326278.561,,,
Trap_instruction,html.Page,2_2_0,2022-05-02T15:20:31.024Z,,,,,,,,,,,,,,,,,,,,,,,,,,,,,,,4050.939000000013,,form submission,,,,,,,,,,,,,,,,,,,,,330330.10000014305,330329.5,326260.3,326280.60000014305,326278.561,330393.349,,,
trap_trial,html.Screen,2_2_1,2022-05-02T15:20:34.393Z,,,,,,,,,,,,,,,,,,,,,,,,,,,,true,1,,3302.6510000000126,,response,,,,,,,,,,,1,click #choice-1,,,,,,,,,333698.60000014305,333696,330326.844,330330.5,330393.349,333709.909,,,
end of trap trial,html.Page,2_2_2,2022-05-02T15:20:36.010Z,,,,,,,,,,,,,,,,,,,,,,,,,,,,,,,1604.7910000476986,,form submission,,,,,,,,,,,,,,,,,,,,,335315.40000009537,335314.7000000477,333693.268,333699,333709.909,335328.742,,,
Trap 1,flow.Sequence,2_2,2022-05-02T15:20:36.010Z,,,,,,,,,,,,,,,,,,,,,,,,,,,,,,,9036.139000047697,,completion,,,,,,,,,,,,,,,,,,,,,335315.90000009537,335314.7000000477,326260.3,326280.5,326278.561,335328.742,,,
Standby,html.Page,2_3_0,2022-05-02T15:20:44.005Z,,,,,,,,,,,,,,,,,,,,,,,,,,,,,,,7997.3829999999725,,timeout,,,,,,,,,,,,,,,,,,,,,343311.10000014305,343309.588,335309.858,335316.2999999523,335328.742,343326.125,,,
Holding screen,html.Screen,2_3_1_0_0,2022-05-02T15:20:51.004Z,,,,,,,,,,,,,,,,,,,,,,,,,,,,,,,6999.6170000000275,,timeout,,,,,,,,,,,,,,,,,,,,,350309.7999999523,350309.066,343309.588,343311.7999999523,343326.125,350325.742,,,
screen,html.Screen,2_3_1_0_1_0,2022-05-02T15:20:58.004Z,,,,,,,,,,,,,,,,,2,,,,,,,,,,,,,,6999.641999999993,,timeout,,,,1,G,,,,,,,,,,,instrumental,,,,Two ---- ------ --- ------- ---------- ------- ----------<br>--- --------- --- ----------- ------- ----- ------- ---<br>--------- ---- -- --- ---- -- --------- -- ---- -------<br>-- --------- ------ --- ----- ------ ---- --- --------- --<br>------ - ---- -- --- ----------- ------- ---- ----- -----<br>--- -------- - ------ ---- -- ----- ---- --- --- -----------<br>-- -------,357309.5,357308.74,350309.066,350310.10000014305,350325.742,357325.384,,0,Two
screen,html.Screen,2_3_1_0_1_1,2022-05-02T15:21:04.096Z,,,,,,,,,,,,,,,,,2,,,,,,,,,,,,,,6074.11599999998,,response,,,,1,G,,,,,,Space,keypress(Space),,,,instrumental,,,,--- days ------ --- ------- ---------- ------- ----------<br>--- --------- --- ----------- ------- ----- ------- ---<br>--------- ---- -- --- ---- -- --------- -- ---- -------<br>-- --------- ------ --- ----- ------ ---- --- --------- --<br>------ - ---- -- --- ----------- ------- ---- ----- -----<br>--- -------- - ------ ---- -- ----- ---- --- --- -----------<br>-- -------,363402,363399.5,357308.74,357309.60000014305,357325.384,363408.479,,1,days
screen,html.Screen,2_3_1_0_1_2,2022-05-02T15:21:04.638Z,,,,,,,,,,,,,,,,,2,,,,,,,,,,,,,,533.5210000000079,,response,,,,1,G,,,,,,Space,keypress(Space),,,,instrumental,,,,"--- ---- later, --- ------- ---------- ------- ----------<br>--- --------- --- ----------- ------- ----- ------- ---<br>--------- ---- -- --- ---- -- --------- -- ---- -------<br>-- --------- ------ --- ----- ------ ---- --- --------- --<br>------ - ---- -- --- ----------- ------- ---- ----- -----<br>--- -------- - ------ ---- -- ----- ---- --- --- -----------<br>-- -------",363943.7000000477,363942,363391.47,363402.2999999523,363408.479,363958.508,,2,"later,"
screen,html.Screen,2_3_1_0_1_3,2022-05-02T15:21:05.065Z,,,,,,,,,,,,,,,,,2,,,,,,,,,,,,,,410.0920001430786,,response,,,,1,G,,,,,,Space,keypress(Space),,,,instrumental,,,,--- ---- ------ the ------- ---------- ------- ----------<br>--- --------- --- ----------- ------- ----- ------- ---<br>--------- ---- -- --- ---- -- --------- -- ---- -------<br>-- --------- ------ --- ----- ------ ---- --- --------- --<br>------ - ---- -- --- ----------- ------- ---- ----- -----<br>--- -------- - ------ ---- -- ----- ---- --- --- -----------<br>-- -------,364370.2999999523,364368.60000014305,363941.943,363944.10000014305,363958.508,364375.124,,3,the
screen,html.Screen,2_3_1_0_1_4,2022-05-02T15:21:05.488Z,,,,,,,,,,,,,,,,,2,,,,,,,,,,,,,,416.8759999999893,,response,,,,1,G,,,,,,Space,keypress(Space),,,,instrumental,,,,--- ---- ------ --- British ---------- ------- ----------<br>--- --------- --- ----------- ------- ----- ------- ---<br>--------- ---- -- --- ---- -- --------- -- ---- -------<br>-- --------- ------ --- ----- ------ ---- --- --------- --<br>------ - ---- -- --- ----------- ------- ---- ----- -----<br>--- -------- - ------ ---- -- ----- ---- --- --- -----------<br>-- -------,364793.7000000477,364792,364358.577,364370.7000000477,364375.124,364808.579,,4,British
screen,html.Screen,2_3_1_0_1_5,2022-05-02T15:21:05.875Z,,,,,,,,,,,,,,,,,2,,,,,,,,,,,,,,370.7209999522893,,response,,,,1,G,,,,,,Space,keypress(Space),,,,instrumental,,,,--- ---- ------ --- ------- astronomer ------- ----------<br>--- --------- --- ----------- ------- ----- ------- ---<br>--------- ---- -- --- ---- -- --------- -- ---- -------<br>-- --------- ------ --- ----- ------ ---- --- --------- --<br>------ - ---- -- --- ----------- ------- ---- ----- -----<br>--- -------- - ------ ---- -- ----- ---- --- --- -----------<br>-- -------,365180.5,365179.2999999523,364791.834,364794.2000000477,364808.579,365191.892,,5,astronomer
screen,html.Screen,2_3_1_0_1_6,2022-05-02T15:21:06.355Z,,,,,,,,,,,,,,,,,2,,,,,,,,,,,,,,465.7080001430586,,response,,,,1,G,,,,,,Space,keypress(Space),,,,instrumental,,,,--- ---- ------ --- ------- ---------- Richard ----------<br>--- --------- --- ----------- ------- ----- ------- ---<br>--------- ---- -- --- ---- -- --------- -- ---- -------<br>-- --------- ------ --- ----- ------ ---- --- --------- --<br>------ - ---- -- --- ----------- ------- ---- ----- -----<br>--- -------- - ------ ---- -- ----- ---- --- --- -----------<br>-- -------,365660.7999999523,365657.60000014305,365175.179,365180.7000000477,365191.892,365675.208,,6,Richard
screen,html.Screen,2_3_1_0_1_7,2022-05-02T15:21:06.927Z,,,,,,,,,,,,,,,,,2,,,,,,,,,,,,,,555.7920000000158,,response,,,,1,G,,,,,,Space,keypress(Space),,,,instrumental,,,,--- ---- ------ --- ------- ---------- ------- Carrington<br>--- --------- --- ----------- ------- ----- ------- ---<br>--------- ---- -- --- ---- -- --------- -- ---- -------<br>-- --------- ------ --- ----- ------ ---- --- --------- --<br>------ - ---- -- --- ----------- ------- ---- ----- -----<br>--- -------- - ------ ---- -- ----- ---- --- --- -----------<br>-- -------,366232.60000014305,366231,365658.516,365661.2999999523,365675.208,366241.713,,7,Carrington
screen,html.Screen,2_3_1_0_1_8,2022-05-02T15:21:07.337Z,,,,,,,,,,,,,,,,,2,,,,,,,,,,,,,,399.8870001430623,,response,,,,1,G,,,,,,Space,keypress(Space),,,,instrumental,,,,--- ---- ------ --- ------- ---------- ------- ----------<br>was --------- --- ----------- ------- ----- ------- ---<br>--------- ---- -- --- ---- -- --------- -- ---- -------<br>-- --------- ------ --- ----- ------ ---- --- --------- --<br>------ - ---- -- --- ----------- ------- ---- ----- -----<br>--- -------- - ------ ---- -- ----- ---- --- --- -----------<br>-- -------,366642.60000014305,366641.60000014305,366225.155,366233,366241.713,366658.297,,8,was
screen,html.Screen,2_3_1_0_1_9,2022-05-02T15:21:07.719Z,,,,,,,,,,,,,,,,,2,,,,,,,,,,,,,,365.10300009534694,,response,,,,1,G,,,,,,Space,keypress(Space),,,,instrumental,,,,--- ---- ------ --- ------- ---------- ------- ----------<br>--- observing --- ----------- ------- ----- ------- ---<br>--------- ---- -- --- ---- -- --------- -- ---- -------<br>-- --------- ------ --- ----- ------ ---- --- --------- --<br>------ - ---- -- --- ----------- ------- ---- ----- -----<br>--- -------- - ------ ---- -- ----- ---- --- --- -----------<br>-- -------,367025.10000014305,367023.40000009537,366641.729,366642.7000000477,366658.297,367041.717,,9,observing
screen,html.Screen,2_3_1_0_1_10,2022-05-02T15:21:08.081Z,,,,,,,,,,,,,,,,,2,,,,,,,,,,,,,,343.0829999523121,,response,,,,1,G,,,,,,Space,keypress(Space),,,,instrumental,,,,--- ---- ------ --- ------- ---------- ------- ----------<br>--- --------- the ----------- ------- ----- ------- ---<br>--------- ---- -- --- ---- -- --------- -- ---- -------<br>-- --------- ------ --- ----- ------ ---- --- --------- --<br>------ - ---- -- --- ----------- ------- ---- ----- -----<br>--- -------- - ------ ---- -- ----- ---- --- --- -----------<br>-- -------,367386.60000014305,367384.7999999523,367025.003,367025.5,367041.717,367391.654,,10,the
screen,html.Screen,2_3_1_0_1_11,2022-05-02T15:21:08.461Z,,,,,,,,,,,,,,,,,2,,,,,,,,,,,,,,373.34600000001956,,response,,,,1,G,,,,,,Space,keypress(Space),,,,instrumental,,,,--- ---- ------ --- ------- ---------- ------- ----------<br>--- --------- --- interesting ------- ----- ------- ---<br>--------- ---- -- --- ---- -- --------- -- ---- -------<br>-- --------- ------ --- ----- ------ ---- --- --------- --<br>------ - ---- -- --- ----------- ------- ---- ----- -----<br>--- -------- - ------ ---- -- ----- ---- --- --- -----------<br>-- -------,367766.60000014305,367765,367375.029,367387,367391.654,367774.938,,11,interesting
screen,html.Screen,2_3_1_0_1_12,2022-05-02T15:21:08.865Z,,,,,,,,,,,,,,,,,2,,,,,,,,,,,,,,394.26200004765997,,response,,,,1,G,,,,,,Space,keypress(Space),,,,instrumental,,,,--- ---- ------ --- ------- ---------- ------- ----------<br>--- --------- --- ----------- sunspot ----- ------- ---<br>--------- ---- -- --- ---- -- --------- -- ---- -------<br>-- --------- ------ --- ----- ------ ---- --- --------- --<br>------ - ---- -- --- ----------- ------- ---- ----- -----<br>--- -------- - ------ ---- -- ----- ---- --- --- -----------<br>-- -------,368171.2000000477,368169.2000000477,367758.443,367767,367774.938,368174.916,,12,sunspot
screen,html.Screen,2_3_1_0_1_13,2022-05-02T15:21:09.238Z,,,,,,,,,,,,,,,,,2,,,,,,,,,,,,,,366.88399995228974,,response,,,,1,G,,,,,,Space,keypress(Space),,,,instrumental,,,,--- ---- ------ --- ------- ---------- ------- ----------<br>--- --------- --- ----------- ------- group ------- ---<br>--------- ---- -- --- ---- -- --------- -- ---- -------<br>-- --------- ------ --- ----- ------ ---- --- --------- --<br>------ - ---- -- --- ----------- ------- ---- ----- -----<br>--- -------- - ------ ---- -- ----- ---- --- --- -----------<br>-- -------,368543.5,368541.7999999523,368158.417,368171.60000014305,368174.916,368558.397,,13,group
screen,html.Screen,2_3_1_0_1_14,2022-05-02T15:21:09.676Z,,,,,,,,,,,,,,,,,2,,,,,,,,,,,,,,420.70300014305394,,response,,,,1,G,,,,,,Space,keypress(Space),,,,instrumental,,,,--- ---- ------ --- ------- ---------- ------- ----------<br>--- --------- --- ----------- ------- ----- through ---<br>--------- ---- -- --- ---- -- --------- -- ---- -------<br>-- --------- ------ --- ----- ------ ---- --- --------- --<br>------ - ---- -- --- ----------- ------- ---- ----- -----<br>--- -------- - ------ ---- -- ----- ---- --- --- -----------<br>-- -------,368981.2999999523,368979.10000014305,368541.821,368543.7999999523,368558.397,368991.691,,14,through
screen,html.Screen,2_3_1_0_1_15,2022-05-02T15:21:10.038Z,,,,,,,,,,,,,,,,,2,,,,,,,,,,,,,,350.5090000476921,,response,,,,1,G,,,,,,Space,keypress(Space),,,,instrumental,,,,--- ---- ------ --- ------- ---------- ------- ----------<br>--- --------- --- ----------- ------- ----- ------- his<br>--------- ---- -- --- ---- -- --------- -- ---- -------<br>-- --------- ------ --- ----- ------ ---- --- --------- --<br>------ - ---- -- --- ----------- ------- ---- ----- -----<br>--- -------- - ------ ---- -- ----- ---- --- --- -----------<br>-- -------,369343.7999999523,369342.2000000477,368975.035,368981.60000014305,368991.691,369358.368,,15,his
screen,html.Screen,2_3_1_0_1_16,2022-05-02T15:21:10.460Z,,,,,,,,,,,,,,,,,2,,,,,,,,,,,,,,405.53200009535067,,response,,,,1,G,,,,,,Space,keypress(Space),,,,instrumental,,,,--- ---- ------ --- ------- ---------- ------- ----------<br>--- --------- --- ----------- ------- ----- ------- ---<br>telescope ---- -- --- ---- -- --------- -- ---- -------<br>-- --------- ------ --- ----- ------ ---- --- --------- --<br>------ - ---- -- --- ----------- ------- ---- ----- -----<br>--- -------- - ------ ---- -- ----- ---- --- --- -----------<br>-- -------,369765.60000014305,369763.90000009537,369341.604,369344.2000000477,369358.368,369774.882,,16,telescope
screen,html.Screen,2_3_1_0_1_17,2022-05-02T15:21:10.830Z,,,,,,,,,,,,,,,,,2,,,,,,,,,,,,,,359.0180000953842,,response,,,,1,G,,,,,,Space,keypress(Space),,,,instrumental,,,,--- ---- ------ --- ------- ---------- ------- ----------<br>--- --------- --- ----------- ------- ----- ------- ---<br>--------- when -- --- ---- -- --------- -- ---- -------<br>-- --------- ------ --- ----- ------ ---- --- --------- --<br>------ - ---- -- --- ----------- ------- ---- ----- -----<br>--- -------- - ------ ---- -- ----- ---- --- --- -----------<br>-- -------,370135.60000014305,370133.90000009537,369758.274,369766,369774.882,370141.501,,17,when
screen,html.Screen,2_3_1_0_1_18,2022-05-02T15:21:11.181Z,,,,,,,,,,,,,,,,,2,,,,,,,,,,,,,,343.9990000000107,,response,,,,1,G,,,,,,Space,keypress(Space),,,,instrumental,,,,--- ---- ------ --- ------- ---------- ------- ----------<br>--- --------- --- ----------- ------- ----- ------- ---<br>--------- ---- he --- ---- -- --------- -- ---- -------<br>-- --------- ------ --- ----- ------ ---- --- --------- --<br>------ - ---- -- --- ----------- ------- ---- ----- -----<br>--- -------- - ------ ---- -- ----- ---- --- --- -----------<br>-- -------,370487.2000000477,370485.5,370125.053,370136,370141.501,370491.511,,18,he
screen,html.Screen,2_3_1_0_1_19,2022-05-02T15:21:11.490Z,,,,,,,,,,,,,,,,,2,,,,,,,,,,,,,,302.88900009536883,,response,,,,1,G,,,,,,Space,keypress(Space),,,,instrumental,,,,--- ---- ------ --- ------- ---------- ------- ----------<br>--- --------- --- ----------- ------- ----- ------- ---<br>--------- ---- -- saw ---- -- --------- -- ---- -------<br>-- --------- ------ --- ----- ------ ---- --- --------- --<br>------ - ---- -- --- ----------- ------- ---- ----- -----<br>--- -------- - ------ ---- -- ----- ---- --- --- -----------<br>-- -------,370796.10000014305,370794.40000009537,370474.979,370487.5,370491.511,370808.346,,19,saw
screen,html.Screen,2_3_1_0_1_20,2022-05-02T15:21:11.828Z,,,,,,,,,,,,,,,,,2,,,,,,,,,,,,,,323.4539999522967,,response,,,,1,G,,,,,,Space,keypress(Space),,,,instrumental,,,,--- ---- ------ --- ------- ---------- ------- ----------<br>--- --------- --- ----------- ------- ----- ------- ---<br>--------- ---- -- --- what -- --------- -- ---- -------<br>-- --------- ------ --- ----- ------ ---- --- --------- --<br>------ - ---- -- --- ----------- ------- ---- ----- -----<br>--- -------- - ------ ---- -- ----- ---- --- --- -----------<br>-- -------,371133.5,371131.7999999523,370791.533,370796.40000009537,370808.346,371141.448,,20,what
screen,html.Screen,2_3_1_0_1_21,2022-05-02T15:21:12.107Z,,,,,,,,,,,,,,,,,2,,,,,,,,,,,,,,269.1520001430763,,response,,,,1,G,,,,,,Space,keypress(Space),,,,instrumental,,,,--- ---- ------ --- ------- ---------- ------- ----------<br>--- --------- --- ----------- ------- ----- ------- ---<br>--------- ---- -- --- ---- he --------- -- ---- -------<br>-- --------- ------ --- ----- ------ ---- --- --------- --<br>------ - ---- -- --- ----------- ------- ---- ----- -----<br>--- -------- - ------ ---- -- ----- ---- --- --- -----------<br>-- -------,371412.40000009537,371410.60000014305,371124.959,371133.90000009537,371141.448,371424.908,,21,he
screen,html.Screen,2_3_1_0_1_22,2022-05-02T15:21:12.363Z,,,,,,,,,,,,,,,,,2,,,,,,,,,,,,,,242.2920000476879,,response,,,,1,G,,,,,,Space,keypress(Space),,,,instrumental,,,,--- ---- ------ --- ------- ---------- ------- ----------<br>--- --------- --- ----------- ------- ----- ------- ---<br>--------- ---- -- --- ---- -- described -- ---- -------<br>-- --------- ------ --- ----- ------ ---- --- --------- --<br>------ - ---- -- --- ----------- ------- ---- ----- -----<br>--- -------- - ------ ---- -- ----- ---- --- --- -----------<br>-- -------,371668.90000009537,371667.2000000477,371408.23,371412.7000000477,371424.908,371674.793,,22,described
screen,html.Screen,2_3_1_0_1_23,2022-05-02T15:21:12.693Z,,,,,,,,,,,,,,,,,2,,,,,,,,,,,,,,322.2069999999949,,response,,,,1,G,,,,,,Space,keypress(Space),,,,instrumental,,,,--- ---- ------ --- ------- ---------- ------- ----------<br>--- --------- --- ----------- ------- ----- ------- ---<br>--------- ---- -- --- ---- -- --------- as ---- -------<br>-- --------- ------ --- ----- ------ ---- --- --------- --<br>------ - ---- -- --- ----------- ------- ---- ----- -----<br>--- -------- - ------ ---- -- ----- ---- --- --- -----------<br>-- -------,371999.10000014305,371997,371658.187,371669.2999999523,371674.793,372008.097,,23,as
screen,html.Screen,2_3_1_0_1_24,2022-05-02T15:21:12.882Z,,,,,,,,,,,,,,,,,2,,,,,,,,,,,,,,177.5030001430423,,response,,,,1,G,,,,,,Space,keypress(Space),,,,instrumental,,,,"--- ---- ------ --- ------- ---------- ------- ----------<br>--- --------- --- ----------- ------- ----- ------- ---<br>--------- ---- -- --- ---- -- --------- -- ""two -------<br>-- --------- ------ --- ----- ------ ---- --- --------- --<br>------ - ---- -- --- ----------- ------- ---- ----- -----<br>--- -------- - ------ ---- -- ----- ---- --- --- -----------<br>-- -------",372187.2999999523,372185.60000014305,371991.631,371999.5,372008.097,372191.421,,24,"""two"
screen,html.Screen,2_3_1_0_1_25,2022-05-02T15:21:13.338Z,,,,,,,,,,,,,,,,,2,,,,,,,,,,,,,,450.47900009539444,,response,,,,1,G,,,,,,Space,keypress(Space),,,,instrumental,,,,--- ---- ------ --- ------- ---------- ------- ----------<br>--- --------- --- ----------- ------- ----- ------- ---<br>--------- ---- -- --- ---- -- --------- -- ---- patches<br>-- --------- ------ --- ----- ------ ---- --- --------- --<br>------ - ---- -- --- ----------- ------- ---- ----- -----<br>--- -------- - ------ ---- -- ----- ---- --- --- -----------<br>-- -------,372643.60000014305,372641.90000009537,372174.928,372187.7000000477,372191.421,372658.215,,25,patches
screen,html.Screen,2_3_1_0_1_26,2022-05-02T15:21:13.660Z,,,,,,,,,,,,,,,,,2,,,,,,,,,,,,,,305.6850000953418,,response,,,,1,G,,,,,,Space,keypress(Space),,,,instrumental,,,,--- ---- ------ --- ------- ---------- ------- ----------<br>--- --------- --- ----------- ------- ----- ------- ---<br>--------- ---- -- --- ---- -- --------- -- ---- -------<br>of --------- ------ --- ----- ------ ---- --- --------- --<br>------ - ---- -- --- ----------- ------- ---- ----- -----<br>--- -------- - ------ ---- -- ----- ---- --- --- -----------<br>-- -------,372965.5,372963.90000009537,372641.491,372644,372658.215,372975.003,,26,of
screen,html.Screen,2_3_1_0_1_27,2022-05-02T15:21:14.006Z,,,,,,,,,,,,,,,,,2,,,,,,,,,,,,,,334.2969999522902,,response,,,,1,G,,,,,,Space,keypress(Space),,,,instrumental,,,,--- ---- ------ --- ------- ---------- ------- ----------<br>--- --------- --- ----------- ------- ----- ------- ---<br>--------- ---- -- --- ---- -- --------- -- ---- -------<br>-- intensely ------ --- ----- ------ ---- --- --------- --<br>------ - ---- -- --- ----------- ------- ---- ----- -----<br>--- -------- - ------ ---- -- ----- ---- --- --- -----------<br>-- -------,373311.40000009537,373309.2999999523,372958.187,372965.90000009537,372975.003,373324.663,,27,intensely
screen,html.Screen,2_3_1_0_1_28,2022-05-02T15:21:14.333Z,,,,,,,,,,,,,,,,,2,,,,,,,,,,,,,,312.73700009536697,,response,,,,1,G,,,,,,Space,keypress(Space),,,,instrumental,,,,--- ---- ------ --- ------- ---------- ------- ----------<br>--- --------- --- ----------- ------- ----- ------- ---<br>--------- ---- -- --- ---- -- --------- -- ---- -------<br>-- --------- bright --- ----- ------ ---- --- --------- --<br>------ - ---- -- --- ----------- ------- ---- ----- -----<br>--- -------- - ------ ---- -- ----- ---- --- --- -----------<br>-- -------,373639.2000000477,373637.40000009537,373308.192,373311.7999999523,373324.663,373662.842,,28,bright
screen,html.Screen,2_3_1_0_1_29,2022-05-02T15:21:14.821Z,,,,,,,,,,,,,,,,,2,,,,,,,,,,,,,,461.9579999523121,,response,,,,1,G,,,,,,Space,keypress(Space),,,,instrumental,,,,--- ---- ------ --- ------- ---------- ------- ----------<br>--- --------- --- ----------- ------- ----- ------- ---<br>--------- ---- -- --- ---- -- --------- -- ---- -------<br>-- --------- ------ and ----- ------ ---- --- --------- --<br>------ - ---- -- --- ----------- ------- ---- ----- -----<br>--- -------- - ------ ---- -- ----- ---- --- --- -----------<br>-- -------,374126.7000000477,374124.7999999523,373624.721,373639.60000014305,373662.842,374141.433,,29,and
screen,html.Screen,2_3_1_0_1_30,2022-05-02T15:21:15.069Z,,,,,,,,,,,,,,,,,2,,,,,,,,,,,,,,231.46700009534834,,response,,,,1,G,,,,,,Space,keypress(Space),,,,instrumental,,,,--- ---- ------ --- ------- ---------- ------- ----------<br>--- --------- --- ----------- ------- ----- ------- ---<br>--------- ---- -- --- ---- -- --------- -- ---- -------<br>-- --------- ------ --- white ------ ---- --- --------- --<br>------ - ---- -- --- ----------- ------- ---- ----- -----<br>--- -------- - ------ ---- -- ----- ---- --- --- -----------<br>-- -------,374375,374372.90000009537,374124.819,374127.10000014305,374141.433,374391.45,,30,white
screen,html.Screen,2_3_1_0_1_31,2022-05-02T15:21:15.507Z,,,,,,,,,,,,,,,,,2,,,,,,,,,,,,,,420.04999999998836,,response,,,,1,G,,,,,,Space,keypress(Space),,,,instrumental,,,,"--- ---- ------ --- ------- ---------- ------- ----------<br>--- --------- --- ----------- ------- ----- ------- ---<br>--------- ---- -- --- ---- -- --------- -- ---- -------<br>-- --------- ------ --- ----- light"" ---- --- --------- --<br>------ - ---- -- --- ----------- ------- ---- ----- -----<br>--- -------- - ------ ---- -- ----- ---- --- --- -----------<br>-- -------",374813.10000014305,374811.5,374374.69,374375.2999999523,374391.45,374824.751,,31,"light"""
screen,html.Screen,2_3_1_0_1_32,2022-05-02T15:21:15.848Z,,,,,,,,,,,,,,,,,2,,,,,,,,,,,,,,327.84900014306186,,response,,,,1,G,,,,,,Space,keypress(Space),,,,instrumental,,,,--- ---- ------ --- ------- ---------- ------- ----------<br>--- --------- --- ----------- ------- ----- ------- ---<br>--------- ---- -- --- ---- -- --------- -- ---- -------<br>-- --------- ------ --- ----- ------ over --- --------- --<br>------ - ---- -- --- ----------- ------- ---- ----- -----<br>--- -------- - ------ ---- -- ----- ---- --- --- -----------<br>-- -------,375154.2000000477,375152.60000014305,374808.088,374813.5,374824.751,375157.913,,32,over
screen,html.Screen,2_3_1_0_1_33,2022-05-02T15:21:16.193Z,,,,,,,,,,,,,,,,,2,,,,,,,,,,,,,,338.78700004768325,,response,,,,1,G,,,,,,Space,keypress(Space),,,,instrumental,,,,--- ---- ------ --- ------- ---------- ------- ----------<br>--- --------- --- ----------- ------- ----- ------- ---<br>--------- ---- -- --- ---- -- --------- -- ---- -------<br>-- --------- ------ --- ----- ------ ---- the --------- --<br>------ - ---- -- --- ----------- ------- ---- ----- -----<br>--- -------- - ------ ---- -- ----- ---- --- --- -----------<br>-- -------,375498.40000009537,375496.7000000477,375141.477,375154.40000009537,375157.913,375507.948,,33,the
screen,html.Screen,2_3_1_0_1_34,2022-05-02T15:21:16.494Z,,,,,,,,,,,,,,,,,2,,,,,,,,,,,,,,290.05200000002515,,response,,,,1,G,,,,,,Space,keypress(Space),,,,instrumental,,,,--- ---- ------ --- ------- ---------- ------- ----------<br>--- --------- --- ----------- ------- ----- ------- ---<br>--------- ---- -- --- ---- -- --------- -- ---- -------<br>-- --------- ------ --- ----- ------ ---- --- sunspots. --<br>------ - ---- -- --- ----------- ------- ---- ----- -----<br>--- -------- - ------ ---- -- ----- ---- --- --- -----------<br>-- -------,375799.7000000477,375798,375491.343,375498.7000000477,375507.948,375808.478,,34,sunspots.
screen,html.Screen,2_3_1_0_1_35,2022-05-02T15:21:16.837Z,,,,,,,,,,,,,,,,,2,,,,,,,,,,,,,,332.0219999999972,,response,,,,1,G,,,,,,Space,keypress(Space),,,,instrumental,,,,--- ---- ------ --- ------- ---------- ------- ----------<br>--- --------- --- ----------- ------- ----- ------- ---<br>--------- ---- -- --- ---- -- --------- -- ---- -------<br>-- --------- ------ --- ----- ------ ---- --- --------- He<br>------ - ---- -- --- ----------- ------- ---- ----- -----<br>--- -------- - ------ ---- -- ----- ---- --- --- -----------<br>-- -------,376142.5,376140.5,375791.314,375800,375808.478,376158.05,,35,He
screen,html.Screen,2_3_1_0_1_36,2022-05-02T15:21:17.170Z,,,,,,,,,,,,,,,,,2,,,,,,,,,,,,,,315.65000004769536,,response,,,,1,G,,,,,,Space,keypress(Space),,,,instrumental,,,,--- ---- ------ --- ------- ---------- ------- ----------<br>--- --------- --- ----------- ------- ----- ------- ---<br>--------- ---- -- --- ---- -- --------- -- ---- -------<br>-- --------- ------ --- ----- ------ ---- --- --------- --<br>jotted - ---- -- --- ----------- ------- ---- ----- -----<br>--- -------- - ------ ---- -- ----- ---- --- --- -----------<br>-- -------,376475.60000014305,376473.7000000477,376141.336,376142.90000009537,376158.05,376491.298,,36,jotted
screen,html.Screen,2_3_1_0_1_37,2022-05-02T15:21:17.507Z,,,,,,,,,,,,,,,,,2,,,,,,,,,,,,,,319.30200014304137,,response,,,,1,G,,,,,,Space,keypress(Space),,,,instrumental,,,,--- ---- ------ --- ------- ---------- ------- ----------<br>--- --------- --- ----------- ------- ----- ------- ---<br>--------- ---- -- --- ---- -- --------- -- ---- -------<br>-- --------- ------ --- ----- ------ ---- --- --------- --<br>------ a ---- -- --- ----------- ------- ---- ----- -----<br>--- -------- - ------ ---- -- ----- ---- --- --- -----------<br>-- -------,376812.40000009537,376810.60000014305,376474.674,376475.90000009537,376491.298,376824.57,,37,a
