sender,sender_type,sender_id,timestamp,meta,,Blues,Classical,Country,Dance,Electronic,Folk,Gospel,Hip-Hop,Jazz,Latin,Musical/Film,New-age,Pop,Prolific_id,Provo_ID,R&B,Rap,Reggae,Religious,Rock,Soul,Swing,Traditional,age,artist_name,correct,correctResponse,distraction,duration,education,ended_on,familiarity,gender,headphone_check_performance,item,list,music_frequency,offensiveness,pleasantness,position_correct,preference,response,response_action,snippet_file,song_name,song_rating,sound,stimulus_1,stimulus_2,stimulus_3,text,time_commit,time_end,time_render,time_run,time_show,time_switch,url,word,word_ID
Prolific ID,html.Form,0,2022-05-04T09:04:58.844Z,"{""labjs_version"":""20.2.2"",""labjs_build"":{""flavor"":""production"",""commit"":""a25486e0c714a0ae2ce03ff94b7bb6896854dcfa""},""location"":""https://run.pavlovia.org/mvasilev/prolific3_music_b/"",""userAgent"":""Mozilla/5.0 (Windows NT 10.0; Win64; x64) AppleWebKit/537.36 (KHTML, like Gecko) Chrome/101.0.4951.41 Safari/537.36 Edg/101.0.1210.32"",""platform"":""Win32"",""language"":""en-GB"",""locale"":""en-GB"",""timeZone"":""Europe/London"",""timezoneOffset"":-60,""screen_width"":1707,""screen_height"":960,""scroll_width"":1626,""scroll_height"":841,""window_innerWidth"":1626,""window_innerHeight"":889,""devicePixelRatio"":2.25}",,,,,,,,,,,,,,,6102bbdba4dd279363094fca,,,,,,,,,,,,,,,5705.284000011921,,form submission,,,,,,,,,,,,,,,,,,,,,18764.900000035763,18764.30000001192,13025.565,13033.300000011921,13059.016,18773.234,{},,
Introduction,html.Screen,1_0,2022-05-04T09:05:02.319Z,,,,,,,,,,,,,,,,,,,,,,,,,,,,,,,3465.4659999880787,,response,,,,,,,,,,,continue,click button,,,,,,,,,22239.600000023842,22238.69999998808,18756.716,18765.30000001192,18773.234,22255.223,,,
Volume calibration,html.Screen,1_1,2022-05-04T09:05:42.665Z,,,,,,,,,,,,,,,,,,,,,,,,,,,,,,,40327.377000023844,,response,,,,,,,,,,,continue,click button,,,,,,,,,62585.90000003576,62582.60000002384,22238.669,22239.80000001192,22255.223,62588.484,,,
Task instructions,html.Screen,1_2,2022-05-04T09:05:51.750Z,,,,,,,,,,,,,,,,,,,,,,,,,,,,,,,9082.215999988082,,response,,,,,,,,,,,continue,click button,,,,,,,,,71671.30000001192,71670.69999998808,62572.04,62585.90000003576,62588.484,71684.789,,,
Sounds,html.Screen,1_3_0_0,2022-05-04T09:05:56.001Z,,,,,,,,,,,,,,,,,,,,,,,,,,,,,,,4248.2119999999995,,timeout,,,,,,,,,1,,,,,,,,S,I,O,,75920.90000003576,75916.5,71668.208,71671.5,71684.789,75933.001,,,
Judgement,html.Screen,1_3_0_1,2022-05-04T09:05:56.740Z,,,,,,,,,,,,,,,,,,,,,,,,,,,,true,1,,725.899000035759,,response,,,,,,,,,1,,1,click #choice-1,,,,,S,I,O,,76659.80000001192,76658.90000003576,75916.5,75921,75933.001,76666.063,,,
Trial,flow.Sequence,1_3_0,2022-05-04T09:05:56.740Z,,,,,,,,,,,,,,,,,,,,,,,,,,,,,,,4974.1110000357585,,completion,,,,,,,,,1,,,,,,,,S,I,O,,76660.10000002384,76658.90000003576,71668.208,71671.40000003576,71684.789,76666.063,,,
Sounds,html.Screen,1_3_1_0,2022-05-04T09:06:00.979Z,,,,,,,,,,,,,,,,,,,,,,,,,,,,,,,4248.422000000006,,timeout,,,,,,,,,1,,,,,,,,S,O,I,,80899.40000003576,80897.814,76649.435,76660.19999998808,76666.063,80914.485,,,
Judgement,html.Screen,1_3_1_1,2022-05-04T09:06:01.559Z,,,,,,,,,,,,,,,,,,,,,,,,,,,,true,1,,564.1150000238413,,response,,,,,,,,,1,,1,click #choice-1,,,,,S,O,I,,81479.5,81478.60000002384,80897.814,80899.80000001192,80914.485,81480.725,,,
Trial,flow.Sequence,1_3_1,2022-05-04T09:06:01.559Z,,,,,,,,,,,,,,,,,,,,,,,,,,,,,,,4812.537000023847,,completion,,,,,,,,,1,,,,,,,,S,O,I,,81479.69999998808,81478.60000002384,76649.435,76660.19999998808,76666.063,81480.725,,,
Sounds,html.Screen,1_3_2_0,2022-05-04T09:06:05.794Z,,,,,,,,,,,,,,,,,,,,,,,,,,,,,,,4248.239999999991,,timeout,,,,,,,,,3,,,,,,,,I,O,S,,85713.69999998808,85712.3,81464.08,81479.90000003576,81480.725,85728.965,,,
Judgement,html.Screen,1_3_2_1,2022-05-04T09:06:06.243Z,,,,,,,,,,,,,,,,,,,,,,,,,,,,true,3,,433.8350000119244,,response,,,,,,,,,3,,3,click #choice-3,,,,,I,O,S,,86163.40000003576,86162.80000001192,85712.3,85714,85728.965,86178.956,,,
Trial,flow.Sequence,1_3_2,2022-05-04T09:06:06.243Z,,,,,,,,,,,,,,,,,,,,,,,,,,,,,,,4682.075000011915,,completion,,,,,,,,,3,,,,,,,,I,O,S,,86163.69999998808,86162.80000001192,81464.08,81479.80000001192,81480.725,86178.956,,,
Sounds,html.Screen,1_3_3_0,2022-05-04T09:06:10.492Z,,,,,,,,,,,,,,,,,,,,,,,,,,,,,,,4248.151999999987,,timeout,,,,,,,,,2,,,,,,,,I,S,O,,90411.90000003576,90410.363,86162.386,86163.80000001192,86178.956,90427.108,,,
Judgement,html.Screen,1_3_3_1,2022-05-04T09:06:11.555Z,,,,,,,,,,,,,,,,,,,,,,,,,,,,true,2,,1047.5919999880862,,response,,,,,,,,,2,,2,click #choice-2,,,,,I,S,O,,91475.5,91474.69999998808,90410.363,90412.10000002384,90427.108,91476.608,,,
Trial,flow.Sequence,1_3_3,2022-05-04T09:06:11.555Z,,,,,,,,,,,,,,,,,,,,,,,,,,,,,,,5295.7439999880735,,completion,,,,,,,,,2,,,,,,,,I,S,O,,91475.69999998808,91474.69999998808,86162.386,86163.69999998808,86178.956,91476.608,,,
Sounds,html.Screen,1_3_4_0,2022-05-04T09:06:15.790Z,,,,,,,,,,,,,,,,,,,,,,,,,,,,,,,4248.47600000001,,timeout,,,,,,,,,3,,,,,,,,O,I,S,,95710.19999998808,95708.361,91460.03,91475.90000003576,91476.608,95725.084,,,
Judgement,html.Screen,1_3_4_1,2022-05-04T09:06:16.183Z,,,,,,,,,,,,,,,,,,,,,,,,,,,,true,3,,377.6159999880765,,response,,,,,,,,,3,,3,click #choice-3,,,,,O,I,S,,96103.60000002384,96102.69999998808,95708.361,95710.5,95725.084,96108.049,,,
Trial,flow.Sequence,1_3_4,2022-05-04T09:06:16.184Z,,,,,,,,,,,,,,,,,,,,,,,,,,,,,,,4626.091999988086,,completion,,,,,,,,,3,,,,,,,,O,I,S,,96103.80000001192,96102.69999998808,91460.03,91475.80000001192,91476.608,96108.049,,,
Sounds,html.Screen,1_3_5_0,2022-05-04T09:06:20.421Z,,,,,,,,,,,,,,,,,,,,,,,,,,,,,,,4248.3369999999995,,timeout,,,,,,,,,2,,,,,,,,O,S,I,,100341,100339.637,96091.539,96103.90000003576,96108.049,100356.386,,,
Judgement,html.Screen,1_3_5_1,2022-05-04T09:06:20.852Z,,,,,,,,,,,,,,,,,,,,,,,,,,,,true,2,,414.31399998808047,,response,,,,,,,,,2,,2,click #choice-2,,,,,O,S,I,,100771.90000003576,100770.69999998808,100339.637,100341.30000001192,100356.386,100772.754,,,
Trial,flow.Sequence,1_3_5,2022-05-04T09:06:20.852Z,,,,,,,,,,,,,,,,,,,,,,,,,,,,,,,4662.65099998808,,completion,,,,,,,,,2,,,,,,,,O,S,I,,100772.10000002384,100770.69999998808,96091.539,96103.80000001192,96108.049,100772.754,,,
Task,flow.Loop,1_3,2022-05-04T09:06:20.856Z,,,,,,,,,,,,,,,,,,,,,,,,,,,,,,,29085.910999988075,,completion,,,1,,,,,,,,,,,,,,,,,,100776.60000002384,100770.69999998808,71668.208,71671.40000003576,71684.789,100772.754,,,
Trap,html.Screen,1_4,2022-05-04T09:06:20.857Z,,,,,,,,,,,,,,,,,,,,,,,,,,,,,,,NaN,,skipped,,,,,,,,,,,,,,,,,,,,,100777.5,100770.69999998808,,100777.40000003576,,100772.754,,,
Thanks,html.Screen,1_5,2022-05-04T09:06:29.607Z,,,,,,,,,,,,,,,,,,,,,,,,,,,,,,,8753.945999988078,,response,,,,,,,,,,,continue,click button,,,,,,,,,109527.40000003576,109526.69999998808,100756.124,100777.60000002384,100772.754,111601.631,,,
Headphone screening,flow.Sequence,1,2022-05-04T09:06:29.607Z,,,,,,,,,,,,,,,,,,,,,,,,,,,,,,,90753.46599998808,,completion,,,,,,,,,,,,,,,,,,,,,109527.60000002384,109526.69999998808,18756.716,18765.19999998808,18773.234,111601.631,,,
Instructions,html.Page,2_0,2022-05-04T09:06:42.875Z,,,,,,,,,,,,,,,,,,,,,,,,,,,,,,,11193.769000035769,,form submission,,,,,,,,,,,,,,,,,,,,,122795.60000002384,122795.40000003576,111585.081,111601,111601.631,122796.994,,,
Holding screen,html.Screen,2_1_0_0,2022-05-04T09:06:52.858Z,,,,,,,,,,,,,,,,,,,,,,,,,,,,,,,9995.959999999992,,timeout,,,,,,,,,,,,,,,,,,,,,132777.90000003576,132776.524,122780.443,122795.69999998808,122796.994,132792.954,,,
screen,html.Screen,2_1_0_1_0,2022-05-04T09:06:53.875Z,,,,,,,,,,,,,,,,,53,,,,,,,,,,,,,,994.646000023844,,response,,,,99,,,,,,,Space,keypress(Space),,,,,,,,When -- ----- -- ------ - ------- --- ----------<br>------------- ------ ------ ---- ---- ------- ----- -- ----<br>-------- ------- -- ---------- --- - --- ----- ----- ----<br>---- --- --- ----- --- ---- ---- ------- ----- ---- -------<br>--- --- -- ----- -- --- ---- -- --- ---- -- ------ ------<br>--- ----- -- ----,133795.10000002384,133787.60000002384,132776.524,132778.19999998808,132792.954,133792.543,,0,When
screen,html.Screen,2_1_0_1_1,2022-05-04T09:06:54.443Z,,,,,,,,,,,,,,,,,53,,,,,,,,,,,,,,569.9569999999949,,response,,,,99,,,,,,,Space,keypress(Space),,,,,,,,---- it ----- -- ------ - ------- --- ----------<br>------------- ------ ------ ---- ---- ------- ----- -- ----<br>-------- ------- -- ---------- --- - --- ----- ----- ----<br>---- --- --- ----- --- ---- ---- ------- ----- ---- -------<br>--- --- -- ----- -- --- ---- -- --- ---- -- ------ ------<br>--- ----- -- ----,134363.5,134362.5,133775.798,133795.40000003576,133792.543,134375.624,,1,it
screen,html.Screen,2_1_0_1_2,2022-05-04T09:06:55.110Z,,,,,,,,,,,,,,,,,53,,,,,,,,,,,,,,653.5759999880684,,response,,,,99,,,,,,,Space,keypress(Space),,,,,,,,---- -- comes -- ------ - ------- --- ----------<br>------------- ------ ------ ---- ---- ------- ----- -- ----<br>-------- ------- -- ---------- --- - --- ----- ----- ----<br>---- --- --- ----- --- ---- ---- ------- ----- ---- -------<br>--- --- -- ----- -- --- ---- -- --- ---- -- ------ ------<br>--- ----- -- ----,135030.40000003576,135029.19999998808,134358.978,134363.80000001192,134375.624,135042.122,,2,comes
screen,html.Screen,2_1_0_1_3,2022-05-04T09:06:55.949Z,,,,,,,,,,,,,,,,,53,,,,,,,,,,,,,,825.1780000119179,,response,,,,99,,,,,,,Space,keypress(Space),,,,,,,,---- -- ----- to ------ - ------- --- ----------<br>------------- ------ ------ ---- ---- ------- ----- -- ----<br>-------- ------- -- ---------- --- - --- ----- ----- ----<br>---- --- --- ----- --- ---- ---- ------- ----- ---- -------<br>--- --- -- ----- -- --- ---- -- --- ---- -- ------ ------<br>--- ----- -- ----,135869.10000002384,135867.30000001192,135025.308,135030.80000001192,135042.122,135875.014,,3,to
screen,html.Screen,2_1_0_1_4,2022-05-04T09:06:56.426Z,,,,,,,,,,,,,,,,,53,,,,,,,,,,,,,,469.8860000357672,,response,,,,99,,,,,,,Space,keypress(Space),,,,,,,,---- -- ----- -- having - ------- --- ----------<br>------------- ------ ------ ---- ---- ------- ----- -- ----<br>-------- ------- -- ---------- --- - --- ----- ----- ----<br>---- --- --- ----- --- ---- ---- ------- ----- ---- -------<br>--- --- -- ----- -- --- ---- -- --- ---- -- ------ ------<br>--- ----- -- ----,136345.90000003576,136344.90000003576,135858.368,135869.5,135875.014,136358.165,,4,having
screen,html.Screen,2_1_0_1_5,2022-05-04T09:06:56.831Z,,,,,,,,,,,,,,,,,53,,,,,,,,,,,,,,392.0349999880709,,response,,,,99,,,,,,,Space,keypress(Space),,,,,,,,---- -- ----- -- ------ a ------- --- ----------<br>------------- ------ ------ ---- ---- ------- ----- -- ----<br>-------- ------- -- ---------- --- - --- ----- ----- ----<br>---- --- --- ----- --- ---- ---- ------- ----- ---- -------<br>--- --- -- ----- -- --- ---- -- --- ---- -- ------ ------<br>--- ----- -- ----,136751.19999998808,136750.19999998808,136341.491,136346.10000002384,136358.165,136758.031,,5,a
screen,html.Screen,2_1_0_1_6,2022-05-04T09:06:57.315Z,,,,,,,,,,,,,,,,,53,,,,,,,,,,,,,,476.4690000000119,,response,,,,99,,,,,,,Space,keypress(Space),,,,,,,,---- -- ----- -- ------ - lasting --- ----------<br>------------- ------ ------ ---- ---- ------- ----- -- ----<br>-------- ------- -- ---------- --- - --- ----- ----- ----<br>---- --- --- ----- --- ---- ---- ------- ----- ---- -------<br>--- --- -- ----- -- --- ---- -- --- ---- -- ------ ------<br>--- ----- -- ----,137235.5,137234.5,136741.304,136751.5,136758.031,137241.206,,6,lasting
screen,html.Screen,2_1_0_1_7,2022-05-04T09:06:57.723Z,,,,,,,,,,,,,,,,,53,,,,,,,,,,,,,,400.39400002383627,,response,,,,99,,,,,,,Space,keypress(Space),,,,,,,,---- -- ----- -- ------ - ------- and ----------<br>------------- ------ ------ ---- ---- ------- ----- -- ----<br>-------- ------- -- ---------- --- - --- ----- ----- ----<br>---- --- --- ----- --- ---- ---- ------- ----- ---- -------<br>--- --- -- ----- -- --- ---- -- --- ---- -- ------ ------<br>--- ----- -- ----,137642.80000001192,137641.60000002384,137224.428,137235.69999998808,137241.206,137657.615,,7,and
screen,html.Screen,2_1_0_1_8,2022-05-04T09:06:58.145Z,,,,,,,,,,,,,,,,,53,,,,,,,,,,,,,,406.3850000000093,,response,,,,99,,,,,,,Space,keypress(Space),,,,,,,,---- -- ----- -- ------ - ------- --- fulfilling<br>------------- ------ ------ ---- ---- ------- ----- -- ----<br>-------- ------- -- ---------- --- - --- ----- ----- ----<br>---- --- --- ----- --- ---- ---- ------- ----- ---- -------<br>--- --- -- ----- -- --- ---- -- --- ---- -- ------ ------<br>--- ----- -- ----,138065.40000003576,138064,137640.958,137643.19999998808,137657.615,138074.064,,8,fulfilling
screen,html.Screen,2_1_0_1_9,2022-05-04T09:06:59.416Z,,,,,,,,,,,,,,,,,53,,,,,,,,,,,,,,1260.635999988066,,response,,,,99,,,,,,,Space,keypress(Space),,,,,,,,"---- -- ----- -- ------ - ------- --- ----------<br>relationship, ------ ------ ---- ---- ------- ----- -- ----<br>-------- ------- -- ---------- --- - --- ----- ----- ----<br>---- --- --- ----- --- ---- ---- ------- ----- ---- -------<br>--- --- -- ----- -- --- ---- -- --- ---- -- ------ ------<br>--- ----- -- ----",139336,139334.69999998808,138057.457,138065.60000002384,138074.064,139340.238,,9,"relationship,"
screen,html.Screen,2_1_0_1_10,2022-05-04T09:06:59.899Z,,,,,,,,,,,,,,,,,53,,,,,,,,,,,,,,477.5620000119088,,response,,,,99,,,,,,,Space,keypress(Space),,,,,,,,---- -- ----- -- ------ - ------- --- ----------<br>------------- common ------ ---- ---- ------- ----- -- ----<br>-------- ------- -- ---------- --- - --- ----- ----- ----<br>---- --- --- ----- --- ---- ---- ------- ----- ---- -------<br>--- --- -- ----- -- --- ---- -- --- ---- -- ------ ------<br>--- ----- -- ----,139819,139817.80000001192,139323.579,139336.30000001192,139340.238,139823.373,,10,common
screen,html.Screen,2_1_0_1_11,2022-05-04T09:07:00.443Z,,,,,,,,,,,,,,,,,53,,,,,,,,,,,,,,538.9270000119286,,response,,,,99,,,,,,,Space,keypress(Space),,,,,,,,---- -- ----- -- ------ - ------- --- ----------<br>------------- ------ wisdom ---- ---- ------- ----- -- ----<br>-------- ------- -- ---------- --- - --- ----- ----- ----<br>---- --- --- ----- --- ---- ---- ------- ----- ---- -------<br>--- --- -- ----- -- --- ---- -- --- ---- -- ------ ------<br>--- ----- -- ----,140363.30000001192,140362.30000001192,139806.698,139819.30000001192,139823.373,140373.195,,11,wisdom
screen,html.Screen,2_1_0_1_12,2022-05-04T09:07:01.142Z,,,,,,,,,,,,,,,,,53,,,,,,,,,,,,,,687.605000011914,,response,,,,99,,,,,,,Space,keypress(Space),,,,,,,,---- -- ----- -- ------ - ------- --- ----------<br>------------- ------ ------ says ---- ------- ----- -- ----<br>-------- ------- -- ---------- --- - --- ----- ----- ----<br>---- --- --- ----- --- ---- ---- ------- ----- ---- -------<br>--- --- -- ----- -- --- ---- -- --- ---- -- ------ ------<br>--- ----- -- ----,141062,141060.80000001192,140356.543,140363.5,140373.195,141072.906,,12,says
screen,html.Screen,2_1_0_1_13,2022-05-04T09:07:01.638Z,,,,,,,,,,,,,,,,,53,,,,,,,,,,,,,,483.5940000000119,,response,,,,99,,,,,,,Space,keypress(Space),,,,,,,,---- -- ----- -- ------ - ------- --- ----------<br>------------- ------ ------ ---- that ------- ----- -- ----<br>-------- ------- -- ---------- --- - --- ----- ----- ----<br>---- --- --- ----- --- ---- ---- ------- ----- ---- -------<br>--- --- -- ----- -- --- ---- -- --- ---- -- ------ ------<br>--- ----- -- ----,141558.10000002384,141556.5,141056.173,141062.80000001192,141072.906,141572.898,,13,that
screen,html.Screen,2_1_0_1_14,2022-05-04T09:07:02.370Z,,,,,,,,,,,,,,,,,53,,,,,,,,,,,,,,715.9020000119344,,response,,,,99,,,,,,,Space,keypress(Space),,,,,,,,---- -- ----- -- ------ - ------- --- ----------<br>------------- ------ ------ ---- ---- feeling ----- -- ----<br>-------- ------- -- ---------- --- - --- ----- ----- ----<br>---- --- --- ----- --- ---- ---- ------- ----- ---- -------<br>--- --- -- ----- -- --- ---- -- --- ---- -- ------ ------<br>--- ----- -- ----,142289.69999998808,142288.80000001192,141555.971,141558.30000001192,141572.898,142305.915,,14,feeling
screen,html.Screen,2_1_0_1_15,2022-05-04T09:07:02.935Z,,,,,,,,,,,,,,,,,53,,,,,,,,,,,,,,548.4850000357546,,response,,,,99,,,,,,,Space,keypress(Space),,,,,,,,---- -- ----- -- ------ - ------- --- ----------<br>------------- ------ ------ ---- ---- ------- close -- ----<br>-------- ------- -- ---------- --- - --- ----- ----- ----<br>---- --- --- ----- --- ---- ---- ------- ----- ---- -------<br>--- --- -- ----- -- --- ---- -- --- ---- -- ------ ------<br>--- ----- -- ----,142855.5,142854.40000003576,142289.164,142289.90000003576,142305.915,142872.157,,15,close
screen,html.Screen,2_1_0_1_16,2022-05-04T09:07:03.354Z,,,,,,,,,,,,,,,,,53,,,,,,,,,,,,,,400.8429999999935,,response,,,,99,,,,,,,Space,keypress(Space),,,,,,,,---- -- ----- -- ------ - ------- --- ----------<br>------------- ------ ------ ---- ---- ------- ----- to ----<br>-------- ------- -- ---------- --- - --- ----- ----- ----<br>---- --- --- ----- --- ---- ---- ------- ----- ---- -------<br>--- --- -- ----- -- --- ---- -- --- ---- -- ------ ------<br>--- ----- -- ----,143274.5,143273,142855.466,142855.80000001192,142872.157,143288.651,,16,to
screen,html.Screen,2_1_0_1_17,2022-05-04T09:07:03.815Z,,,,,,,,,,,,,,,,,53,,,,,,,,,,,,,,445.5489999880665,,response,,,,99,,,,,,,Space,keypress(Space),,,,,,,,---- -- ----- -- ------ - ------- --- ----------<br>------------- ------ ------ ---- ---- ------- ----- -- your<br>-------- ------- -- ---------- --- - --- ----- ----- ----<br>---- --- --- ----- --- ---- ---- ------- ----- ---- -------<br>--- --- -- ----- -- --- ---- -- --- ---- -- ------ ------<br>--- ----- -- ----,143735.10000002384,143734.19999998808,143271.939,143274.80000001192,143288.651,143738.439,,17,your
screen,html.Screen,2_1_0_1_18,2022-05-04T09:07:04.388Z,,,,,,,,,,,,,,,,,53,,,,,,,,,,,,,,568.4610000357497,,response,,,,99,,,,,,,Space,keypress(Space),,,,,,,,---- -- ----- -- ------ - ------- --- ----------<br>------------- ------ ------ ---- ---- ------- ----- -- ----<br>romantic ------- -- ---------- --- - --- ----- ----- ----<br>---- --- --- ----- --- ---- ---- ------- ----- ---- -------<br>--- --- -- ----- -- --- ---- -- --- ---- -- ------ ------<br>--- ----- -- ----,144308.10000002384,144306.90000003576,143721.77,143735.40000003576,143738.439,144321.644,,18,romantic
screen,html.Screen,2_1_0_1_19,2022-05-04T09:07:04.743Z,,,,,,,,,,,,,,,,,53,,,,,,,,,,,,,,341.05599998807884,,response,,,,99,,,,,,,Space,keypress(Space),,,,,,,,---- -- ----- -- ------ - ------- --- ----------<br>------------- ------ ------ ---- ---- ------- ----- -- ----<br>-------- partner -- ---------- --- - --- ----- ----- ----<br>---- --- --- ----- --- ---- ---- ------- ----- ---- -------<br>--- --- -- ----- -- --- ---- -- --- ---- -- ------ ------<br>--- ----- -- ----,144663.60000002384,144662.69999998808,144304.867,144308.30000001192,144321.644,144671.512,,19,partner
screen,html.Screen,2_1_0_1_20,2022-05-04T09:07:05.190Z,,,,,,,,,,,,,,,,,53,,,,,,,,,,,,,,437.4880000000121,,response,,,,99,,,,,,,Space,keypress(Space),,,,,,,,---- -- ----- -- ------ - ------- --- ----------<br>------------- ------ ------ ---- ---- ------- ----- -- ----<br>-------- ------- is ---------- --- - --- ----- ----- ----<br>---- --- --- ----- --- ---- ---- ------- ----- ---- -------<br>--- --- -- ----- -- --- ---- -- --- ---- -- ------ ------<br>--- ----- -- ----,145109.90000003576,145109,144654.775,144663.90000003576,144671.512,145121.272,,20,is
screen,html.Screen,2_1_0_1_21,2022-05-04T09:07:05.672Z,,,,,,,,,,,,,,,,,53,,,,,,,,,,,,,,469.82800002384465,,response,,,,99,,,,,,,Space,keypress(Space),,,,,,,,---- -- ----- -- ------ - ------- --- ----------<br>------------- ------ ------ ---- ---- ------- ----- -- ----<br>-------- ------- -- paramount. --- - --- ----- ----- ----<br>---- --- --- ----- --- ---- ---- ------- ----- ---- -------<br>--- --- -- ----- -- --- ---- -- --- ---- -- ------ ------<br>--- ----- -- ----,145592.40000003576,145591.10000002384,145104.701,145110.30000001192,145121.272,145604.348,,21,paramount.
screen,html.Screen,2_1_0_1_22,2022-05-04T09:07:06.609Z,,,,,,,,,,,,,,,,,53,,,,,,,,,,,,,,923.7520000238437,,response,,,,99,,,,,,,Space,keypress(Space),,,,,,,,---- -- ----- -- ------ - ------- --- ----------<br>------------- ------ ------ ---- ---- ------- ----- -- ----<br>-------- ------- -- ---------- But - --- ----- ----- ----<br>---- --- --- ----- --- ---- ---- ------- ----- ---- -------<br>--- --- -- ----- -- --- ---- -- --- ---- -- ------ ------<br>--- ----- -- ----,146529.30000001192,146528.10000002384,145587.686,145592.69999998808,145604.348,146537.286,,22,But
screen,html.Screen,2_1_0_1_23,2022-05-04T09:07:07.032Z,,,,,,,,,,,,,,,,,53,,,,,,,,,,,,,,413.7140000000072,,response,,,,99,,,,,,,Space,keypress(Space),,,,,,,,---- -- ----- -- ------ - ------- --- ----------<br>------------- ------ ------ ---- ---- ------- ----- -- ----<br>-------- ------- -- ---------- --- a --- ----- ----- ----<br>---- --- --- ----- --- ---- ---- ------- ----- ---- -------<br>--- --- -- ----- -- --- ---- -- --- ---- -- ------ ------<br>--- ----- -- ----,146952.10000002384,146951,146520.574,146529.60000002384,146537.286,146980.114,,23,a
screen,html.Screen,2_1_0_1_24,2022-05-04T09:07:07.448Z,,,,,,,,,,,,,,,,,53,,,,,,,,,,,,,,387.2860000357614,,response,,,,99,,,,,,,Space,keypress(Space),,,,,,,,---- -- ----- -- ------ - ------- --- ----------<br>------------- ------ ------ ---- ---- ------- ----- -- ----<br>-------- ------- -- ---------- --- - new ----- ----- ----<br>---- --- --- ----- --- ---- ---- ------- ----- ---- -------<br>--- --- -- ----- -- --- ---- -- --- ---- -- ------ ------<br>--- ----- -- ----,147368.5,147367.40000003576,146937.279,146952.30000001192,146980.114,147399.87,,24,new
screen,html.Screen,2_1_0_1_25,2022-05-04T09:07:07.879Z,,,,,,,,,,,,,,,,,53,,,,,,,,,,,,,,398.03000003576744,,response,,,,99,,,,,,,Space,keypress(Space),,,,,,,,---- -- ----- -- ------ - ------- --- ----------<br>------------- ------ ------ ---- ---- ------- ----- -- ----<br>-------- ------- -- ---------- --- - --- study ----- ----<br>---- --- --- ----- --- ---- ---- ------- ----- ---- -------<br>--- --- -- ----- -- --- ---- -- --- ---- -- ------ ------<br>--- ----- -- ----,147799.30000001192,147797.90000003576,147353.752,147368.69999998808,147399.87,147803.426,,25,study
screen,html.Screen,2_1_0_1_26,2022-05-04T09:07:08.292Z,,,,,,,,,,,,,,,,,53,,,,,,,,,,,,,,407.57399999999325,,response,,,,99,,,,,,,Space,keypress(Space),,,,,,,,---- -- ----- -- ------ - ------- --- ----------<br>------------- ------ ------ ---- ---- ------- ----- -- ----<br>-------- ------- -- ---------- --- - --- ----- finds ----<br>---- --- --- ----- --- ---- ---- ------- ----- ---- -------<br>--- --- -- ----- -- --- ---- -- --- ---- -- ------ ------<br>--- ----- -- ----,148212,148211,147786.949,147799.69999998808,147803.426,148219.914,,26,finds
screen,html.Screen,2_1_0_1_27,2022-05-04T09:07:09.043Z,,,,,,,,,,,,,,,,,53,,,,,,,,,,,,,,741.986000035773,,response,,,,99,,,,,,,Space,keypress(Space),,,,,,,,---- -- ----- -- ------ - ------- --- ----------<br>------------- ------ ------ ---- ---- ------- ----- -- ----<br>-------- ------- -- ---------- --- - --- ----- ----- that<br>---- --- --- ----- --- ---- ---- ------- ----- ---- -------<br>--- --- -- ----- -- --- ---- -- --- ---- -- ------ ------<br>--- ----- -- ----,148963,148961.90000003576,148203.393,148212.30000001192,148219.914,148986.345,,27,that
screen,html.Screen,2_1_0_1_28,2022-05-04T09:07:10.027Z,,,,,,,,,,,,,,,,,53,,,,,,,,,,,,,,959.2550000238407,,response,,,,99,,,,,,,Space,keypress(Space),,,,,,,,---- -- ----- -- ------ - ------- --- ----------<br>------------- ------ ------ ---- ---- ------- ----- -- ----<br>-------- ------- -- ---------- --- - --- ----- ----- ----<br>it's --- --- ----- --- ---- ---- ------- ----- ---- -------<br>--- --- -- ----- -- --- ---- -- --- ---- -- ------ ------<br>--- ----- -- ----,149946.80000001192,149945.60000002384,148952.932,148963.40000003576,148986.345,149952.56,,28,it's
screen,html.Screen,2_1_0_1_29,2022-05-04T09:07:10.415Z,,,,,,,,,,,,,,,,,53,,,,,,,,,,,,,,381.4400000000023,,response,,,,99,,,,,,,Space,keypress(Space),,,,,,,,---- -- ----- -- ------ - ------- --- ----------<br>------------- ------ ------ ---- ---- ------- ----- -- ----<br>-------- ------- -- ---------- --- - --- ----- ----- ----<br>---- not --- ----- --- ---- ---- ------- ----- ---- -------<br>--- --- -- ----- -- --- ---- -- --- ---- -- ------ ------<br>--- ----- -- ----,150335,150334,149935.83,149947,149952.56,150352.671,,29,not
screen,html.Screen,2_1_0_1_30,2022-05-04T09:07:10.775Z,,,,,,,,,,,,,,,,,53,,,,,,,,,,,,,,341.12900001191883,,response,,,,99,,,,,,,Space,keypress(Space),,,,,,,,---- -- ----- -- ------ - ------- --- ----------<br>------------- ------ ------ ---- ---- ------- ----- -- ----<br>-------- ------- -- ---------- --- - --- ----- ----- ----<br>---- --- how ----- --- ---- ---- ------- ----- ---- -------<br>--- --- -- ----- -- --- ---- -- --- ---- -- ------ ------<br>--- ----- -- ----,150695,150693.80000001192,150335.881,150335.30000001192,150352.671,150702.262,,30,how
screen,html.Screen,2_1_0_1_31,2022-05-04T09:07:11.150Z,,,,,,,,,,,,,,,,,53,,,,,,,,,,,,,,367.2380000000121,,response,,,,99,,,,,,,Space,keypress(Space),,,,,,,,---- -- ----- -- ------ - ------- --- ----------<br>------------- ------ ------ ---- ---- ------- ----- -- ----<br>-------- ------- -- ---------- --- - --- ----- ----- ----<br>---- --- --- close --- ---- ---- ------- ----- ---- -------<br>--- --- -- ----- -- --- ---- -- --- ---- -- ------ ------<br>--- ----- -- ----,151070.40000003576,151069.5,150685.725,150695.30000001192,150702.262,151085.528,,31,close
screen,html.Screen,2_1_0_1_32,2022-05-04T09:07:11.529Z,,,,,,,,,,,,,,,,,53,,,,,,,,,,,,,,361.97200000000885,,response,,,,99,,,,,,,Space,keypress(Space),,,,,,,,---- -- ----- -- ------ - ------- --- ----------<br>------------- ------ ------ ---- ---- ------- ----- -- ----<br>-------- ------- -- ---------- --- - --- ----- ----- ----<br>---- --- --- ----- you ---- ---- ------- ----- ---- -------<br>--- --- -- ----- -- --- ---- -- --- ---- -- ------ ------<br>--- ----- -- ----,151448.90000003576,151447.5,151068.857,151070.80000001192,151085.528,151451.951,,32,you
screen,html.Screen,2_1_0_1_33,2022-05-04T09:07:12.119Z,,,,,,,,,,,,,,,,,53,,,,,,,,,,,,,,585.7489999880781,,response,,,,99,,,,,,,Space,keypress(Space),,,,,,,,---- -- ----- -- ------ - ------- --- ----------<br>------------- ------ ------ ---- ---- ------- ----- -- ----<br>-------- ------- -- ---------- --- - --- ----- ----- ----<br>---- --- --- ----- --- feel ---- ------- ----- ---- -------<br>--- --- -- ----- -- --- ---- -- --- ---- -- ------ ------<br>--- ----- -- ----,152038.69999998808,152037.69999998808,151435.285,151449.19999998808,151451.951,152051.7,,33,feel
screen,html.Screen,2_1_0_1_34,2022-05-04T09:07:12.496Z,,,,,,,,,,,,,,,,,53,,,,,,,,,,,,,,363.1000000119093,,response,,,,99,,,,,,,Space,keypress(Space),,,,,,,,---- -- ----- -- ------ - ------- --- ----------<br>------------- ------ ------ ---- ---- ------- ----- -- ----<br>-------- ------- -- ---------- --- - --- ----- ----- ----<br>---- --- --- ----- --- ---- that ------- ----- ---- -------<br>--- --- -- ----- -- --- ---- -- --- ---- -- ------ ------<br>--- ----- -- ----,152416.19999998808,152414.80000001192,152035.006,152038.90000003576,152051.7,152447.112,,34,that
screen,html.Screen,2_1_0_1_35,2022-05-04T09:07:13.018Z,,,,,,,,,,,,,,,,,53,,,,,,,,,,,,,,489.58799998808536,,response,,,,99,,,,,,,Space,keypress(Space),,,,,,,,---- -- ----- -- ------ - ------- --- ----------<br>------------- ------ ------ ---- ---- ------- ----- -- ----<br>-------- ------- -- ---------- --- - --- ----- ----- ----<br>---- --- --- ----- --- ---- ---- matters ----- ---- -------<br>--- --- -- ----- -- --- ---- -- --- ---- -- ------ ------<br>--- ----- -- ----,152937.90000003576,152936.69999998808,152401.534,152416.69999998808,152447.112,152951.351,,35,matters
screen,html.Screen,2_1_0_1_36,2022-05-04T09:07:13.454Z,,,,,,,,,,,,,,,,,53,,,,,,,,,,,,,,421.74900002384675,,response,,,,99,,,,,,,Space,keypress(Space),,,,,,,,"---- -- ----- -- ------ - ------- --- ----------<br>------------- ------ ------ ---- ---- ------- ----- -- ----<br>-------- ------- -- ---------- --- - --- ----- ----- ----<br>---- --- --- ----- --- ---- ---- ------- most, ---- -------<br>--- --- -- ----- -- --- ---- -- --- ---- -- ------ ------<br>--- ----- -- ----",153374,153373.10000002384,152934.778,152938.19999998808,152951.351,153384.512,,36,"most,"
screen,html.Screen,2_1_0_1_37,2022-05-04T09:07:13.940Z,,,,,,,,,,,,,,,,,53,,,,,,,,,,,,,,474.58800002385397,,response,,,,99,,,,,,,Space,keypress(Space),,,,,,,,---- -- ----- -- ------ - ------- --- ----------<br>------------- ------ ------ ---- ---- ------- ----- -- ----<br>-------- ------- -- ---------- --- - --- ----- ----- ----<br>---- --- --- ----- --- ---- ---- ------- ----- it's -------<br>--- --- -- ----- -- --- ---- -- --- ---- -- ------ ------<br>--- ----- -- ----,153860,153859.10000002384,153367.802,153374.30000001192,153384.512,153867.584,,37,it's
screen,html.Screen,2_1_0_1_38,2022-05-04T09:07:14.679Z,,,,,,,,,,,,,,,,,53,,,,,,,,,,,,,,730.7160000119184,,response,,,,99,,,,,,,Space,keypress(Space),,,,,,,,---- -- ----- -- ------ - ------- --- ----------<br>------------- ------ ------ ---- ---- ------- ----- -- ----<br>-------- ------- -- ---------- --- - --- ----- ----- ----<br>---- --- --- ----- --- ---- ---- ------- ----- ---- whether<br>--- --- -- ----- -- --- ---- -- --- ---- -- ------ ------<br>--- ----- -- ----,154599.40000003576,154598.30000001192,153850.9,153860.30000001192,153867.584,154634.193,,38,whether
screen,html.Screen,2_1_0_1_39,2022-05-04T09:07:15.041Z,,,,,,,,,,,,,,,,,53,,,,,,,,,,,,,,326.3070000000007,,response,,,,99,,,,,,,Space,keypress(Space),,,,,,,,---- -- ----- -- ------ - ------- --- ----------<br>------------- ------ ------ ---- ---- ------- ----- -- ----<br>-------- ------- -- ---------- --- - --- ----- ----- ----<br>---- --- --- ----- --- ---- ---- ------- ----- ---- -------<br>you --- -- ----- -- --- ---- -- --- ---- -- ------ ------<br>--- ----- -- ----,154961.69999998808,154960.5,154617.459,154599.60000002384,154634.193,154967.111,,39,you
screen,html.Screen,2_1_0_1_40,2022-05-04T09:07:15.624Z,,,,,,,,,,,,,,,,,53,,,,,,,,,,,,,,575.5889999880746,,response,,,,99,,,,,,,Space,keypress(Space),,,,,,,,---- -- ----- -- ------ - ------- --- ----------<br>------------- ------ ------ ---- ---- ------- ----- -- ----<br>-------- ------- -- ---------- --- - --- ----- ----- ----<br>---- --- --- ----- --- ---- ---- ------- ----- ---- -------<br>--- are -- ----- -- --- ---- -- --- ---- -- ------ ------<br>--- ----- -- ----,155544,155542.69999998808,154950.616,154962.10000002384,154967.111,155550.196,,40,are
screen,html.Screen,2_1_0_1_41,2022-05-04T09:07:16.053Z,,,,,,,,,,,,,,,,,53,,,,,,,,,,,,,,422.10400001192465,,response,,,,99,,,,,,,Space,keypress(Space),,,,,,,,---- -- ----- -- ------ - ------- --- ----------<br>------------- ------ ------ ---- ---- ------- ----- -- ----<br>-------- ------- -- ---------- --- - --- ----- ----- ----<br>---- --- --- ----- --- ---- ---- ------- ----- ---- -------<br>--- --- as ----- -- --- ---- -- --- ---- -- ------ ------<br>--- ----- -- ----,155973,155972.30000001192,155533.654,155544.30000001192,155550.196,155983.472,,41,as
screen,html.Screen,2_1_0_1_42,2022-05-04T09:07:16.462Z,,,,,,,,,,,,,,,,,53,,,,,,,,,,,,,,397.3280000119121,,response,,,,99,,,,,,,Space,keypress(Space),,,,,,,,---- -- ----- -- ------ - ------- --- ----------<br>------------- ------ ------ ---- ---- ------- ----- -- ----<br>-------- ------- -- ---------- --- - --- ----- ----- ----<br>---- --- --- ----- --- ---- ---- ------- ----- ---- -------<br>--- --- -- close -- --- ---- -- --- ---- -- ------ ------<br>--- ----- -- ----,156382,156380.80000001192,155966.701,155973.10000002384,155983.472,156399.952,,42,close
screen,html.Screen,2_1_0_1_43,2022-05-04T09:07:16.801Z,,,,,,,,,,,,,,,,,53,,,,,,,,,,,,,,320.3480000119307,,response,,,,99,,,,,,,Space,keypress(Space),,,,,,,,---- -- ----- -- ------ - ------- --- ----------<br>------------- ------ ------ ---- ---- ------- ----- -- ----<br>-------- ------- -- ---------- --- - --- ----- ----- ----<br>---- --- --- ----- --- ---- ---- ------- ----- ---- -------<br>--- --- -- ----- as --- ---- -- --- ---- -- ------ ------<br>--- ----- -- ----,156721.40000003576,156720.30000001192,156383.244,156382.30000001192,156399.952,156733.11,,43,as
screen,html.Screen,2_1_0_1_44,2022-05-04T09:07:17.173Z,,,,,,,,,,,,,,,,,53,,,,,,,,,,,,,,358.79000003577676,,response,,,,99,,,,,,,Space,keypress(Space),,,,,,,,---- -- ----- -- ------ - ------- --- ----------<br>------------- ------ ------ ---- ---- ------- ----- -- ----<br>-------- ------- -- ---------- --- - --- ----- ----- ----<br>---- --- --- ----- --- ---- ---- ------- ----- ---- -------<br>--- --- -- ----- -- you ---- -- --- ---- -- ------ ------<br>--- ----- -- ----,157092.90000003576,157091.90000003576,156716.391,156721.69999998808,156733.11,157099.629,,44,you
screen,html.Screen,2_1_0_1_45,2022-05-04T09:07:17.564Z,,,,,,,,,,,,,,,,,53,,,,,,,,,,,,,,383.7710000357765,,response,,,,99,,,,,,,Space,keypress(Space),,,,,,,,---- -- ----- -- ------ - ------- --- ----------<br>------------- ------ ------ ---- ---- ------- ----- -- ----<br>-------- ------- -- ---------- --- - --- ----- ----- ----<br>---- --- --- ----- --- ---- ---- ------- ----- ---- -------<br>--- --- -- ----- -- --- want -- --- ---- -- ------ ------<br>--- ----- -- ----,157484.30000001192,157483.40000003576,157082.999,157093.10000002384,157099.629,157499.4,,45,want
screen,html.Screen,2_1_0_1_46,2022-05-04T09:07:17.897Z,,,,,,,,,,,,,,,,,53,,,,,,,,,,,,,,316.90000001192675,,response,,,,99,,,,,,,Space,keypress(Space),,,,,,,,---- -- ----- -- ------ - ------- --- ----------<br>------------- ------ ------ ---- ---- ------- ----- -- ----<br>-------- ------- -- ---------- --- - --- ----- ----- ----<br>---- --- --- ----- --- ---- ---- ------- ----- ---- -------<br>--- --- -- ----- -- --- ---- to --- ---- -- ------ ------<br>--- ----- -- ----,157817.60000002384,157816.30000001192,157482.795,157484.5,157499.4,157832.865,,46,to
screen,html.Screen,2_1_0_1_47,2022-05-04T09:07:18.199Z,,,,,,,,,,,,,,,,,53,,,,,,,,,,,,,,285.73500002385117,,response,,,,99,,,,,,,Space,keypress(Space),,,,,,,,"---- -- ----- -- ------ - ------- --- ----------<br>------------- ------ ------ ---- ---- ------- ----- -- ----<br>-------- ------- -- ---------- --- - --- ----- ----- ----<br>---- --- --- ----- --- ---- ---- ------- ----- ---- -------<br>--- --- -- ----- -- --- ---- -- be, ---- -- ------ ------<br>--- ----- -- ----",158119.5,158118.60000002384,157815.976,157818,157832.865,158132.799,,47,"be,"
screen,html.Screen,2_1_0_1_48,2022-05-04T09:07:18.577Z,,,,,,,,,,,,,,,,,53,,,,,,,,,,,,,,362.8010000238428,,response,,,,99,,,,,,,Space,keypress(Space),,,,,,,,---- -- ----- -- ------ - ------- --- ----------<br>------------- ------ ------ ---- ---- ------- ----- -- ----<br>-------- ------- -- ---------- --- - --- ----- ----- ----<br>---- --- --- ----- --- ---- ---- ------- ----- ---- -------<br>--- --- -- ----- -- --- ---- -- --- even -- ------ ------<br>--- ----- -- ----,158496.80000001192,158495.60000002384,158115.865,158119.80000001192,158132.799,158499.048,,48,even
screen,html.Screen,2_1_0_1_49,2022-05-04T09:07:18.951Z,,,,,,,,,,,,,,,,,53,,,,,,,,,,,,,,371.352000035753,,response,,,,99,,,,,,,Space,keypress(Space),,,,,,,,---- -- ----- -- ------ - ------- --- ----------<br>------------- ------ ------ ---- ---- ------- ----- -- ----<br>-------- ------- -- ---------- --- - --- ----- ----- ----<br>---- --- --- ----- --- ---- ---- ------- ----- ---- -------<br>--- --- -- ----- -- --- ---- -- --- ---- if ------ ------<br>--- ----- -- ----,158871.30000001192,158870.40000003576,158482.373,158497,158499.048,158882.249,,49,if
screen,html.Screen,2_1_0_1_50,2022-05-04T09:07:19.381Z,,,,,,,,,,,,,,,,,53,,,,,,,,,,,,,,417.95099998806836,,response,,,,99,,,,,,,Space,keypress(Space),,,,,,,,---- -- ----- -- ------ - ------- --- ----------<br>------------- ------ ------ ---- ---- ------- ----- -- ----<br>-------- ------- -- ---------- --- - --- ----- ----- ----<br>---- --- --- ----- --- ---- ---- ------- ----- ---- -------<br>--- --- -- ----- -- --- ---- -- --- ---- -- that's ------<br>--- ----- -- ----,159301.30000001192,159300.19999998808,158865.524,158871.5,158882.249,159315.473,,50,that's
screen,html.Screen,2_1_0_1_51,2022-05-04T09:07:19.779Z,,,,,,,,,,,,,,,,,53,,,,,,,,,,,,,,382.02700000000186,,response,,,,99,,,,,,,Space,keypress(Space),,,,,,,,---- -- ----- -- ------ - ------- --- ----------<br>------------- ------ ------ ---- ---- ------- ----- -- ----<br>-------- ------- -- ---------- --- - --- ----- ----- ----<br>---- --- --- ----- --- ---- ---- ------- ----- ---- -------<br>--- --- -- ----- -- --- ---- -- --- ---- -- ------ really<br>--- ----- -- ----,159698.80000001192,159697.5,159298.699,159301.60000002384,159315.473,159715.14,,51,really
screen,html.Screen,2_1_0_1_52,2022-05-04T09:07:20.193Z,,,,,,,,,,,,,,,,,53,,,,,,,,,,,,,,397.35999999998603,,response,,,,99,,,,,,,Space,keypress(Space),,,,,,,,---- -- ----- -- ------ - ------- --- ----------<br>------------- ------ ------ ---- ---- ------- ----- -- ----<br>-------- ------- -- ---------- --- - --- ----- ----- ----<br>---- --- --- ----- --- ---- ---- ------- ----- ---- -------<br>--- --- -- ----- -- --- ---- -- --- ---- -- ------ ------<br>not ----- -- ----,160113.10000002384,160112.5,159698.542,159699.19999998808,159715.14,160114.939,,52,not
screen,html.Screen,2_1_0_1_53,2022-05-04T09:07:20.581Z,,,,,,,,,,,,,,,,,53,,,,,,,,,,,,,,385.06099999998696,,response,,,,99,,,,,,,Space,keypress(Space),,,,,,,,---- -- ----- -- ------ - ------- --- ----------<br>------------- ------ ------ ---- ---- ------- ----- -- ----<br>-------- ------- -- ---------- --- - --- ----- ----- ----<br>---- --- --- ----- --- ---- ---- ------- ----- ---- -------<br>--- --- -- ----- -- --- ---- -- --- ---- -- ------ ------<br>--- close -- ----,160501.40000003576,160500,160098.293,160113.19999998808,160114.939,160514.96,,53,close
screen,html.Screen,2_1_0_1_54,2022-05-04T09:07:20.944Z,,,,,,,,,,,,,,,,,53,,,,,,,,,,,,,,347.7399999880872,,response,,,,99,,,,,,,Space,keypress(Space),,,,,,,,---- -- ----- -- ------ - ------- --- ----------<br>------------- ------ ------ ---- ---- ------- ----- -- ----<br>-------- ------- -- ---------- --- - --- ----- ----- ----<br>---- --- --- ----- --- ---- ---- ------- ----- ---- -------<br>--- --- -- ----- -- --- ---- -- --- ---- -- ------ ------<br>--- ----- at ----,160863.90000003576,160862.69999998808,160498.158,160501.60000002384,160514.96,160881.716,,54,at
screen,html.Screen,2_1_0_1_55,2022-05-04T09:07:21.932Z,,,,,,,,,,,,,,,,,53,,,,,,,,,,,,,,969.2840000000142,,response,,,,99,,,,,,,Space,keypress(Space),,,,,,,,---- -- ----- -- ------ - ------- --- ----------<br>------------- ------ ------ ---- ---- ------- ----- -- ----<br>-------- ------- -- ---------- --- - --- ----- ----- ----<br>---- --- --- ----- --- ---- ---- ------- ----- ---- -------<br>--- --- -- ----- -- --- ---- -- --- ---- -- ------ ------<br>--- ----- -- all.,161852,161851,160864.805,160864.10000002384,160881.716,161864.299,,55,all.
Item 99,flow.Loop,2_1_0_1,2022-05-04T09:07:21.932Z,,,,,,,,,,,,,,,,,,,,,,,,,,,,,,,29058.046000000002,,completion,,,,,B,,,,,,,,,,,silence,,,,,161852.60000002384,161851,132776.524,132778.10000002384,132792.954,161864.299,,,
Question 1,html.Screen,2_1_0_2,2022-05-04T09:07:25.283Z,,,,,,,,,,,,,,,,,,,,,,,,,,,,true,FALSE,,3338.301000023843,,response,,,,99,B,,,,,,FALSE,click #choice-2,,,,silence,,,,,165203.40000003576,165202.60000002384,161847.631,161852.80000001192,161864.299,165212.946,,,
Question 2,html.Screen,2_1_0_3,2022-05-04T09:07:37.319Z,,,,,,,,,,,,,,,,,,,,,,,,,,,,false,TRUE,,12025.954000035767,,response,,,,99,B,,,,,,FALSE,click #choice-2,,,,silence,,,,,177239.5,177238.90000003576,165196.431,165203.40000003576,165212.946,177257.919,,,
Item 99,flow.Sequence,2_1_0,2022-05-04T09:07:37.320Z,,,,,,,,,,,,,,,,,,,,,,,,,,,,,,,54441.90600003576,,completion,,,,,,,,,,,,,,,,,,,,,177239.69999998808,177238.90000003576,122780.443,122795.69999998808,122796.994,177257.919,,,
Holding screen,html.Screen,2_1_1_0,2022-05-04T09:07:47.318Z,,,,,,,,,,,,,,,,,,,,,,,,,,,,,,,9995.921999999991,,timeout,,,,,,,,,,,,,,,,,,,,,187238.60000002384,187237.174,177241.316,177239.80000001192,177257.919,187253.841,,,
screen,html.Screen,2_1_1_1_0,2022-05-04T09:07:48.252Z,,,,,,,,,,,,,,,,,54,,,,,,,,,,,,,,917.059000035777,,response,,,,100,,,,,,,Space,keypress(Space),,,,,,,,At --- ---- --- ------ ----- ------- ---- -- --- ------- --<br>------- ---------- ------ -- ----- -- ----- -- ---- ------<br>--- ----- --- --- ------ -------- ----- --- ------ ----- --<br>----- ----- ---------- --- --- ------ ------ ---- -- ------<br>------- --- ------ ----- --- ---- ------- -- ---- --- --<br>------- ------,188172.19999998808,188170.90000003576,187237.174,187239.10000002384,187253.841,188186.897,,0,At
screen,html.Screen,2_1_1_1_1,2022-05-04T09:07:48.723Z,,,,,,,,,,,,,,,,,54,,,,,,,,,,,,,,454.9030000119237,,response,,,,100,,,,,,,Space,keypress(Space),,,,,,,,-- the ---- --- ------ ----- ------- ---- -- --- ------- --<br>------- ---------- ------ -- ----- -- ----- -- ---- ------<br>--- ----- --- --- ------ -------- ----- --- ------ ----- --<br>----- ----- ---------- --- --- ------ ------ ---- -- ------<br>------- --- ------ ----- --- ---- ------- -- ---- --- --<br>------- ------,188642.69999998808,188641.80000001192,188170.094,188172.69999998808,188186.897,188653.31,,1,the
screen,html.Screen,2_1_1_1_2,2022-05-04T09:07:49.198Z,,,,,,,,,,,,,,,,,54,,,,,,,,,,,,,,463.1900000000023,,response,,,,100,,,,,,,Space,keypress(Space),,,,,,,,-- --- time --- ------ ----- ------- ---- -- --- ------- --<br>------- ---------- ------ -- ----- -- ----- -- ---- ------<br>--- ----- --- --- ------ -------- ----- --- ------ ----- --<br>----- ----- ---------- --- --- ------ ------ ---- -- ------<br>------- --- ------ ----- --- ---- ------- -- ---- --- --<br>------- ------,189117.69999998808,189116.5,188636.749,188642.90000003576,188653.31,189142.045,,2,time
screen,html.Screen,2_1_1_1_3,2022-05-04T09:07:49.637Z,,,,,,,,,,,,,,,,,54,,,,,,,,,,,,,,414.2550000119081,,response,,,,100,,,,,,,Space,keypress(Space),,,,,,,,-- --- ---- the ------ ----- ------- ---- -- --- ------- --<br>------- ---------- ------ -- ----- -- ----- -- ---- ------<br>--- ----- --- --- ------ -------- ----- --- ------ ----- --<br>----- ----- ---------- --- --- ------ ------ ---- -- ------<br>------- --- ------ ----- --- ---- ------- -- ---- --- --<br>------- ------,189557.60000002384,189556.30000001192,189103.073,189118.10000002384,189142.045,189569.542,,3,the
screen,html.Screen,2_1_1_1_4,2022-05-04T09:07:50.104Z,,,,,,,,,,,,,,,,,54,,,,,,,,,,,,,,453.65799998809234,,response,,,,100,,,,,,,Space,keypress(Space),,,,,,,,-- --- ---- --- French ----- ------- ---- -- --- ------- --<br>------- ---------- ------ -- ----- -- ----- -- ---- ------<br>--- ----- --- --- ------ -------- ----- --- ------ ----- --<br>----- ----- ---------- --- --- ------ ------ ---- -- ------<br>------- --- ------ ----- --- ---- ------- -- ---- --- --<br>------- ------,190024.30000001192,190023.19999998808,189552.869,189557.80000001192,189569.542,190036.063,,4,French
screen,html.Screen,2_1_1_1_5,2022-05-04T09:07:50.461Z,,,,,,,,,,,,,,,,,54,,,,,,,,,,,,,,344.43700000000536,,response,,,,100,,,,,,,Space,keypress(Space),,,,,,,,-- --- ---- --- ------ crown ------- ---- -- --- ------- --<br>------- ---------- ------ -- ----- -- ----- -- ---- ------<br>--- ----- --- --- ------ -------- ----- --- ------ ----- --<br>----- ----- ---------- --- --- ------ ------ ---- -- ------<br>------- --- ------ ----- --- ---- ------- -- ---- --- --<br>------- ------,190381.40000003576,190380.5,190019.382,190024.5,190036.063,190385.916,,5,crown
screen,html.Screen,2_1_1_1_6,2022-05-04T09:07:50.853Z,,,,,,,,,,,,,,,,,54,,,,,,,,,,,,,,385.8840000119235,,response,,,,100,,,,,,,Space,keypress(Space),,,,,,,,-- --- ---- --- ------ ----- secured ---- -- --- ------- --<br>------- ---------- ------ -- ----- -- ----- -- ---- ------<br>--- ----- --- --- ------ -------- ----- --- ------ ----- --<br>----- ----- ---------- --- --- ------ ------ ---- -- ------<br>------- --- ------ ----- --- ---- ------- -- ---- --- --<br>------- ------,190772.69999998808,190771.80000001192,190369.25,190381.69999998808,190385.916,190785.82,,6,secured
screen,html.Screen,2_1_1_1_7,2022-05-04T09:07:51.238Z,,,,,,,,,,,,,,,,,54,,,,,,,,,,,,,,371.179999999993,,response,,,,100,,,,,,,Space,keypress(Space),,,,,,,,-- --- ---- --- ------ ----- ------- much -- --- ------- --<br>------- ---------- ------ -- ----- -- ----- -- ---- ------<br>--- ----- --- --- ------ -------- ----- --- ------ ----- --<br>----- ----- ---------- --- --- ------ ------ ---- -- ------<br>------- --- ------ ----- --- ---- ------- -- ---- --- --<br>------- ------,191158.10000002384,191157,190769.192,190773,190785.82,191168.918,,7,much
screen,html.Screen,2_1_1_1_8,2022-05-04T09:07:51.633Z,,,,,,,,,,,,,,,,,54,,,,,,,,,,,,,,383.28199998807395,,response,,,,100,,,,,,,Space,keypress(Space),,,,,,,,-- --- ---- --- ------ ----- ------- ---- of --- ------- --<br>------- ---------- ------ -- ----- -- ----- -- ---- ------<br>--- ----- --- --- ------ -------- ----- --- ------ ----- --<br>----- ----- ---------- --- --- ------ ------ ---- -- ------<br>------- --- ------ ----- --- ---- ------- -- ---- --- --<br>------- ------,191553.10000002384,191552.19999998808,191152.372,191158.30000001192,191168.918,191568.83,,8,of
screen,html.Screen,2_1_1_1_9,2022-05-04T09:07:51.943Z,,,,,,,,,,,,,,,,,54,,,,,,,,,,,,,,292.8699999880919,,response,,,,100,,,,,,,Space,keypress(Space),,,,,,,,-- --- ---- --- ------ ----- ------- ---- -- its ------- --<br>------- ---------- ------ -- ----- -- ----- -- ---- ------<br>--- ----- --- --- ------ -------- ----- --- ------ ----- --<br>----- ----- ---------- --- --- ------ ------ ---- -- ------<br>------- --- ------ ----- --- ---- ------- -- ---- --- --<br>------- ------,191862.90000003576,191861.69999998808,191552.07,191553.40000003576,191568.83,191868.584,,9,its
screen,html.Screen,2_1_1_1_10,2022-05-04T09:07:52.334Z,,,,,,,,,,,,,,,,,54,,,,,,,,,,,,,,384.71600001191837,,response,,,,100,,,,,,,Space,keypress(Space),,,,,,,,-- --- ---- --- ------ ----- ------- ---- -- --- revenue --<br>------- ---------- ------ -- ----- -- ----- -- ---- ------<br>--- ----- --- --- ------ -------- ----- --- ------ ----- --<br>----- ----- ---------- --- --- ------ ------ ---- -- ------<br>------- --- ------ ----- --- ---- ------- -- ---- --- --<br>------- ------,192254.40000003576,192253.30000001192,191851.929,191863.10000002384,191868.584,192268.545,,10,revenue
screen,html.Screen,2_1_1_1_11,2022-05-04T09:07:53.446Z,,,,,,,,,,,,,,,,,54,,,,,,,,,,,,,,1096.2550000119081,,response,,,,100,,,,,,,Space,keypress(Space),,,,,,,,-- --- ---- --- ------ ----- ------- ---- -- --- ------- by<br>------- ---------- ------ -- ----- -- ----- -- ---- ------<br>--- ----- --- --- ------ -------- ----- --- ------ ----- --<br>----- ----- ---------- --- --- ------ ------ ---- -- ------<br>------- --- ------ ----- --- ---- ------- -- ---- --- --<br>------- ------,193365.80000001192,193364.80000001192,192251.77,192254.69999998808,192268.545,193368.117,,11,by
screen,html.Screen,2_1_1_1_12,2022-05-04T09:07:54.108Z,,,,,,,,,,,,,,,,,54,,,,,,,,,,,,,,658.3830000000016,,response,,,,100,,,,,,,Space,keypress(Space),,,,,,,,-- --- ---- --- ------ ----- ------- ---- -- --- ------- --<br>issuing ---------- ------ -- ----- -- ----- -- ---- ------<br>--- ----- --- --- ------ -------- ----- --- ------ ----- --<br>----- ----- ---------- --- --- ------ ------ ---- -- ------<br>------- --- ------ ----- --- ---- ------- -- ---- --- --<br>------- ------,194027.69999998808,194026.5,193351.283,193366.10000002384,193368.117,194034.352,,12,issuing
screen,html.Screen,2_1_1_1_13,2022-05-04T09:07:54.615Z,,,,,,,,,,,,,,,,,54,,,,,,,,,,,,,,499.9480000119074,,response,,,,100,,,,,,,Space,keypress(Space),,,,,,,,-- --- ---- --- ------ ----- ------- ---- -- --- ------- --<br>------- government ------ -- ----- -- ----- -- ---- ------<br>--- ----- --- --- ------ -------- ----- --- ------ ----- --<br>----- ----- ---------- --- --- ------ ------ ---- -- ------<br>------- --- ------ ----- --- ---- ------- -- ---- --- --<br>------- ------,194535.40000003576,194534.30000001192,194017.892,194028,194034.352,194550.856,,13,government
screen,html.Screen,2_1_1_1_14,2022-05-04T09:07:58.141Z,,,,,,,,,,,,,,,,,54,,,,,,,,,,,,,,3509.3439999880793,,response,,,,100,,,,,,,Space,keypress(Space),,,,,,,,-- --- ---- --- ------ ----- ------- ---- -- --- ------- --<br>------- ---------- bonds. -- ----- -- ----- -- ---- ------<br>--- ----- --- --- ------ -------- ----- --- ------ ----- --<br>----- ----- ---------- --- --- ------ ------ ---- -- ------<br>------- --- ------ ----- --- ---- ------- -- ---- --- --<br>------- ------,198061.30000001192,198060.19999998808,194534.114,194535.60000002384,194550.856,198066.074,,14,bonds.
screen,html.Screen,2_1_1_1_15,2022-05-04T09:07:58.569Z,,,,,,,,,,,,,,,,,54,,,,,,,,,,,,,,422.1259999880858,,response,,,,100,,,,,,,Space,keypress(Space),,,,,,,,-- --- ---- --- ------ ----- ------- ---- -- --- ------- --<br>------- ---------- ------ In ----- -- ----- -- ---- ------<br>--- ----- --- --- ------ -------- ----- --- ------ ----- --<br>----- ----- ---------- --- --- ------ ------ ---- -- ------<br>------- --- ------ ----- --- ---- ------- -- ---- --- --<br>------- ------,198489.40000003576,198488.19999998808,198049.247,198061.80000001192,198066.074,198499.207,,15,In
screen,html.Screen,2_1_1_1_16,2022-05-04T09:07:59.340Z,,,,,,,,,,,,,,,,,54,,,,,,,,,,,,,,759.6930000357679,,response,,,,100,,,,,,,Space,keypress(Space),,,,,,,,"-- --- ---- --- ------ ----- ------- ---- -- --- ------- --<br>------- ---------- ------ -- 1727, -- ----- -- ---- ------<br>--- ----- --- --- ------ -------- ----- --- ------ ----- --<br>----- ----- ---------- --- --- ------ ------ ---- -- ------<br>------- --- ------ ----- --- ---- ------- -- ---- --- --<br>------- ------",199260,199258.90000003576,198482.519,198489.69999998808,198499.207,199282.257,,16,"1727,"
screen,html.Screen,2_1_1_1_17,2022-05-04T09:07:59.981Z,,,,,,,,,,,,,,,,,54,,,,,,,,,,,,,,617.4429999880667,,response,,,,100,,,,,,,Space,keypress(Space),,,,,,,,-- --- ---- --- ------ ----- ------- ---- -- --- ------- --<br>------- ---------- ------ -- ----- in ----- -- ---- ------<br>--- ----- --- --- ------ -------- ----- --- ------ ----- --<br>----- ----- ---------- --- --- ------ ------ ---- -- ------<br>------- --- ------ ----- --- ---- ------- -- ---- --- --<br>------- ------,199901,199899.69999998808,199248.855,199260.30000001192,199282.257,199915.426,,17,in
screen,html.Screen,2_1_1_1_18,2022-05-04T09:08:00.722Z,,,,,,,,,,,,,,,,,54,,,,,,,,,,,,,,725.0739999999932,,response,,,,100,,,,,,,Space,keypress(Space),,,,,,,,-- --- ---- --- ------ ----- ------- ---- -- --- ------- --<br>------- ---------- ------ -- ----- -- order -- ---- ------<br>--- ----- --- --- ------ -------- ----- --- ------ ----- --<br>----- ----- ---------- --- --- ------ ------ ---- -- ------<br>------- --- ------ ----- --- ---- ------- -- ---- --- --<br>------- ------,200641.80000001192,200640.5,199898.624,199901.19999998808,199915.426,200648.303,,18,order
screen,html.Screen,2_1_1_1_19,2022-05-04T09:08:01.060Z,,,,,,,,,,,,,,,,,54,,,,,,,,,,,,,,330.7970000238274,,response,,,,100,,,,,,,Space,keypress(Space),,,,,,,,-- --- ---- --- ------ ----- ------- ---- -- --- ------- --<br>------- ---------- ------ -- ----- -- ----- to ---- ------<br>--- ----- --- --- ------ -------- ----- --- ------ ----- --<br>----- ----- ---------- --- --- ------ ------ ---- -- ------<br>------- --- ------ ----- --- ---- ------- -- ---- --- --<br>------- ------,200980.10000002384,200979.10000002384,200631.619,200642.19999998808,200648.303,201009.358,,19,to
screen,html.Screen,2_1_1_1_20,2022-05-04T09:08:01.440Z,,,,,,,,,,,,,,,,,54,,,,,,,,,,,,,,349.14199999999255,,response,,,,100,,,,,,,Space,keypress(Space),,,,,,,,-- --- ---- --- ------ ----- ------- ---- -- --- ------- --<br>------- ---------- ------ -- ----- -- ----- -- save ------<br>--- ----- --- --- ------ -------- ----- --- ------ ----- --<br>----- ----- ---------- --- --- ------ ------ ---- -- ------<br>------- --- ------ ----- --- ---- ------- -- ---- --- --<br>------- ------,201359.60000002384,201358.5,200964.896,200980.40000003576,201009.358,201364.659,,20,save
screen,html.Screen,2_1_1_1_21,2022-05-04T09:08:01.832Z,,,,,,,,,,,,,,,,,54,,,,,,,,,,,,,,386.3409999999858,,response,,,,100,,,,,,,Space,keypress(Space),,,,,,,,"-- --- ---- --- ------ ----- ------- ---- -- --- ------- --<br>------- ---------- ------ -- ----- -- ----- -- ---- money,<br>--- ----- --- --- ------ -------- ----- --- ------ ----- --<br>----- ----- ---------- --- --- ------ ------ ---- -- ------<br>------- --- ------ ----- --- ---- ------- -- ---- --- --<br>------- ------",201752.19999998808,201751,201348.005,201359.90000003576,201364.659,201764.631,,21,"money,"
screen,html.Screen,2_1_1_1_22,2022-05-04T09:08:02.368Z,,,,,,,,,,,,,,,,,54,,,,,,,,,,,,,,521.9690000238479,,response,,,,100,,,,,,,Space,keypress(Space),,,,,,,,-- --- ---- --- ------ ----- ------- ---- -- --- ------- --<br>------- ---------- ------ -- ----- -- ----- -- ---- ------<br>the ----- --- --- ------ -------- ----- --- ------ ----- --<br>----- ----- ---------- --- --- ------ ------ ---- -- ------<br>------- --- ------ ----- --- ---- ------- -- ---- --- --<br>------- ------,202287.80000001192,202286.60000002384,201747.826,201752.5,201764.631,202297.721,,22,the
screen,html.Screen,2_1_1_1_23,2022-05-04T09:08:02.837Z,,,,,,,,,,,,,,,,,54,,,,,,,,,,,,,,458.4789999880886,,response,,,,100,,,,,,,Space,keypress(Space),,,,,,,,-- --- ---- --- ------ ----- ------- ---- -- --- ------- --<br>------- ---------- ------ -- ----- -- ----- -- ---- ------<br>--- state --- --- ------ -------- ----- --- ------ ----- --<br>----- ----- ---------- --- --- ------ ------ ---- -- ------<br>------- --- ------ ----- --- ---- ------- -- ---- --- --<br>------- ------,202757.30000001192,202756.19999998808,202280.996,202288.10000002384,202297.721,202764.137,,23,state
screen,html.Screen,2_1_1_1_24,2022-05-04T09:08:03.193Z,,,,,,,,,,,,,,,,,54,,,,,,,,,,,,,,347.8630000000121,,response,,,,100,,,,,,,Space,keypress(Space),,,,,,,,-- --- ---- --- ------ ----- ------- ---- -- --- ------- --<br>------- ---------- ------ -- ----- -- ----- -- ---- ------<br>--- ----- cut --- ------ -------- ----- --- ------ ----- --<br>----- ----- ---------- --- --- ------ ------ ---- -- ------<br>------- --- ------ ----- --- ---- ------- -- ---- --- --<br>------- ------,203113,203112,202747.468,202757.69999998808,202764.137,203130.638,,24,cut
screen,html.Screen,2_1_1_1_25,2022-05-04T09:08:03.568Z,,,,,,,,,,,,,,,,,54,,,,,,,,,,,,,,356.7620000357565,,response,,,,100,,,,,,,Space,keypress(Space),,,,,,,,-- --- ---- --- ------ ----- ------- ---- -- --- ------- --<br>------- ---------- ------ -- ----- -- ----- -- ---- ------<br>--- ----- --- the ------ -------- ----- --- ------ ----- --<br>----- ----- ---------- --- --- ------ ------ ---- -- ------<br>------- --- ------ ----- --- ---- ------- -- ---- --- --<br>------- ------,203488.60000002384,203487.40000003576,203097.447,203113.30000001192,203130.638,203497.129,,25,the
screen,html.Screen,2_1_1_1_26,2022-05-04T09:08:03.963Z,,,,,,,,,,,,,,,,,54,,,,,,,,,,,,,,384.7710000357765,,response,,,,100,,,,,,,Space,keypress(Space),,,,,,,,-- --- ---- --- ------ ----- ------- ---- -- --- ------- --<br>------- ---------- ------ -- ----- -- ----- -- ---- ------<br>--- ----- --- --- bonds' -------- ----- --- ------ ----- --<br>----- ----- ---------- --- --- ------ ------ ---- -- ------<br>------- --- ------ ----- --- ---- ------- -- ---- --- --<br>------- ------,203882.80000001192,203881.90000003576,203480.496,203488.90000003576,203497.129,203897.024,,26,bonds'
screen,html.Screen,2_1_1_1_27,2022-05-04T09:08:04.432Z,,,,,,,,,,,,,,,,,54,,,,,,,,,,,,,,453.77600001191604,,response,,,,100,,,,,,,Space,keypress(Space),,,,,,,,-- --- ---- --- ------ ----- ------- ---- -- --- ------- --<br>------- ---------- ------ -- ----- -- ----- -- ---- ------<br>--- ----- --- --- ------ interest ----- --- ------ ----- --<br>----- ----- ---------- --- --- ------ ------ ---- -- ------<br>------- --- ------ ----- --- ---- ------- -- ---- --- --<br>------- ------,204351.90000003576,204350.80000001192,203880.3,203883.10000002384,203897.024,204363.495,,27,interest
screen,html.Screen,2_1_1_1_28,2022-05-04T09:08:04.830Z,,,,,,,,,,,,,,,,,54,,,,,,,,,,,,,,385.8050000119256,,response,,,,100,,,,,,,Space,keypress(Space),,,,,,,,-- --- ---- --- ------ ----- ------- ---- -- --- ------- --<br>------- ---------- ------ -- ----- -- ----- -- ---- ------<br>--- ----- --- --- ------ -------- rate. --- ------ ----- --<br>----- ----- ---------- --- --- ------ ------ ---- -- ------<br>------- --- ------ ----- --- ---- ------- -- ---- --- --<br>------- ------,204750.30000001192,204749.30000001192,204347.053,204352.19999998808,204363.495,204763.323,,28,rate.
screen,html.Screen,2_1_1_1_29,2022-05-04T09:08:05.610Z,,,,,,,,,,,,,,,,,54,,,,,,,,,,,,,,765.676999999996,,response,,,,100,,,,,,,Space,keypress(Space),,,,,,,,-- --- ---- --- ------ ----- ------- ---- -- --- ------- --<br>------- ---------- ------ -- ----- -- ----- -- ---- ------<br>--- ----- --- --- ------ -------- ----- The ------ ----- --<br>----- ----- ---------- --- --- ------ ------ ---- -- ------<br>------- --- ------ ----- --- ---- ------- -- ---- --- --<br>------- ------,205530.30000001192,205529,204746.604,204750.5,204763.323,205546.44,,29,The
screen,html.Screen,2_1_1_1_30,2022-05-04T09:08:06.058Z,,,,,,,,,,,,,,,,,54,,,,,,,,,,,,,,430.75999998807674,,response,,,,100,,,,,,,Space,keypress(Space),,,,,,,,-- --- ---- --- ------ ----- ------- ---- -- --- ------- --<br>------- ---------- ------ -- ----- -- ----- -- ---- ------<br>--- ----- --- --- ------ -------- ----- --- market ----- --<br>----- ----- ---------- --- --- ------ ------ ---- -- ------<br>------- --- ------ ----- --- ---- ------- -- ---- --- --<br>------- ------,205978.10000002384,205977.19999998808,205529.619,205530.69999998808,205546.44,206004.316,,30,market
screen,html.Screen,2_1_1_1_31,2022-05-04T09:08:06.402Z,,,,,,,,,,,,,,,,,54,,,,,,,,,,,,,,316.9840000119293,,response,,,,100,,,,,,,Space,keypress(Space),,,,,,,,-- --- ---- --- ------ ----- ------- ---- -- --- ------- --<br>------- ---------- ------ -- ----- -- ----- -- ---- ------<br>--- ----- --- --- ------ -------- ----- --- ------ value --<br>----- ----- ---------- --- --- ------ ------ ---- -- ------<br>------- --- ------ ----- --- ---- ------- -- ---- --- --<br>------- ------,206322.5,206321.30000001192,205962.768,205978.40000003576,206004.316,206329.338,,31,value
screen,html.Screen,2_1_1_1_32,2022-05-04T09:08:06.811Z,,,,,,,,,,,,,,,,,54,,,,,,,,,,,,,,401.1620000000112,,response,,,,100,,,,,,,Space,keypress(Space),,,,,,,,-- --- ---- --- ------ ----- ------- ---- -- --- ------- --<br>------- ---------- ------ -- ----- -- ----- -- ---- ------<br>--- ----- --- --- ------ -------- ----- --- ------ ----- of<br>----- ----- ---------- --- --- ------ ------ ---- -- ------<br>------- --- ------ ----- --- ---- ------- -- ---- --- --<br>------- ------,206731.40000003576,206730.5,206312.68,206322.90000003576,206329.338,206746.159,,32,of
screen,html.Screen,2_1_1_1_33,2022-05-04T09:08:07.180Z,,,,,,,,,,,,,,,,,54,,,,,,,,,,,,,,353.04099998806487,,response,,,,100,,,,,,,Space,keypress(Space),,,,,,,,-- --- ---- --- ------ ----- ------- ---- -- --- ------- --<br>------- ---------- ------ -- ----- -- ----- -- ---- ------<br>--- ----- --- --- ------ -------- ----- --- ------ ----- --<br>these ----- ---------- --- --- ------ ------ ---- -- ------<br>------- --- ------ ----- --- ---- ------- -- ---- --- --<br>------- ------,207100.19999998808,207099.19999998808,206729.146,206731.60000002384,206746.159,207112.34,,33,these
screen,html.Screen,2_1_1_1_34,2022-05-04T09:08:07.574Z,,,,,,,,,,,,,,,,,54,,,,,,,,,,,,,,380.9600000119244,,response,,,,100,,,,,,,Space,keypress(Space),,,,,,,,-- --- ---- --- ------ ----- ------- ---- -- --- ------- --<br>------- ---------- ------ -- ----- -- ----- -- ---- ------<br>--- ----- --- --- ------ -------- ----- --- ------ ----- --<br>----- bonds ---------- --- --- ------ ------ ---- -- ------<br>------- --- ------ ----- --- ---- ------- -- ---- --- --<br>------- ------,207494.60000002384,207493.30000001192,207095.798,207100.5,207112.34,207512.211,,34,bonds
screen,html.Screen,2_1_1_1_35,2022-05-04T09:08:07.990Z,,,,,,,,,,,,,,,,,54,,,,,,,,,,,,,,396.5890000119107,,response,,,,100,,,,,,,Space,keypress(Space),,,,,,,,"-- --- ---- --- ------ ----- ------- ---- -- --- ------- --<br>------- ---------- ------ -- ----- -- ----- -- ---- ------<br>--- ----- --- --- ------ -------- ----- --- ------ ----- --<br>----- ----- plummeted, --- --- ------ ------ ---- -- ------<br>------- --- ------ ----- --- ---- ------- -- ---- --- --<br>------- ------",207910,207908.80000001192,207495.467,207495,207512.211,207930.278,,35,"plummeted,"
screen,html.Screen,2_1_1_1_36,2022-05-04T09:08:09.172Z,,,,,,,,,,,,,,,,,54,,,,,,,,,,,,,,1161.7220000000088,,response,,,,100,,,,,,,Space,keypress(Space),,,,,,,,-- --- ---- --- ------ ----- ------- ---- -- --- ------- --<br>------- ---------- ------ -- ----- -- ----- -- ---- ------<br>--- ----- --- --- ------ -------- ----- --- ------ ----- --<br>----- ----- ---------- and --- ------ ------ ---- -- ------<br>------- --- ------ ----- --- ---- ------- -- ---- --- --<br>------- ------,209092.5,209092,207895.335,207910.30000001192,207930.278,209094.823,,36,and
screen,html.Screen,2_1_1_1_37,2022-05-04T09:08:09.520Z,,,,,,,,,,,,,,,,,54,,,,,,,,,,,,,,344.57700003575883,,response,,,,100,,,,,,,Space,keypress(Space),,,,,,,,-- --- ---- --- ------ ----- ------- ---- -- --- ------- --<br>------- ---------- ------ -- ----- -- ----- -- ---- ------<br>--- ----- --- --- ------ -------- ----- --- ------ ----- --<br>----- ----- ---------- --- the ------ ------ ---- -- ------<br>------- --- ------ ----- --- ---- ------- -- ---- --- --<br>------- ------,209440.60000002384,209439.40000003576,209078.104,209092.69999998808,209094.823,209444.762,,37,the
screen,html.Screen,2_1_1_1_38,2022-05-04T09:08:10.006Z,,,,,,,,,,,,,,,,,54,,,,,,,,,,,,,,480.2380000000121,,response,,,,100,,,,,,,Space,keypress(Space),,,,,,,,-- --- ---- --- ------ ----- ------- ---- -- --- ------- --<br>------- ---------- ------ -- ----- -- ----- -- ---- ------<br>--- ----- --- --- ------ -------- ----- --- ------ ----- --<br>----- ----- ---------- --- --- market ------ ---- -- ------<br>------- --- ------ ----- --- ---- ------- -- ---- --- --<br>------- ------,209926,209925,209428.174,209441,209444.762,209948.76,,38,market
screen,html.Screen,2_1_1_1_39,2022-05-04T09:08:10.277Z,,,,,,,,,,,,,,,,,54,,,,,,,,,,,,,,247.7399999999907,,response,,,,100,,,,,,,Space,keypress(Space),,,,,,,,-- --- ---- --- ------ ----- ------- ---- -- --- ------- --<br>------- ---------- ------ -- ----- -- ----- -- ---- ------<br>--- ----- --- --- ------ -------- ----- --- ------ ----- --<br>----- ----- ---------- --- --- ------ became ---- -- ------<br>------- --- ------ ----- --- ---- ------- -- ---- --- --<br>------- ------,210197.40000003576,210196.5,209911.165,209926.30000001192,209948.76,210211.058,,39,became
screen,html.Screen,2_1_1_1_40,2022-05-04T09:08:10.616Z,,,,,,,,,,,,,,,,,54,,,,,,,,,,,,,,324.44200000001,,response,,,,100,,,,,,,Space,keypress(Space),,,,,,,,-- --- ---- --- ------ ----- ------- ---- -- --- ------- --<br>------- ---------- ------ -- ----- -- ----- -- ---- ------<br>--- ----- --- --- ------ -------- ----- --- ------ ----- --<br>----- ----- ---------- --- --- ------ ------ wary -- ------<br>------- --- ------ ----- --- ---- ------- -- ---- --- --<br>------- ------,210536.60000002384,210535.5,210194.536,210197.5,210211.058,210544.216,,40,wary
screen,html.Screen,2_1_1_1_41,2022-05-04T09:08:11.003Z,,,,,,,,,,,,,,,,,54,,,,,,,,,,,,,,377.9839999880933,,response,,,,100,,,,,,,Space,keypress(Space),,,,,,,,-- --- ---- --- ------ ----- ------- ---- -- --- ------- --<br>------- ---------- ------ -- ----- -- ----- -- ---- ------<br>--- ----- --- --- ------ -------- ----- --- ------ ----- --<br>----- ----- ---------- --- --- ------ ------ ---- of ------<br>------- --- ------ ----- --- ---- ------- -- ---- --- --<br>------- ------,210923.19999998808,210922.19999998808,210527.588,210536.90000003576,210544.216,210927.374,,41,of
screen,html.Screen,2_1_1_1_42,2022-05-04T09:08:11.322Z,,,,,,,,,,,,,,,,,54,,,,,,,,,,,,,,313.6259999999893,,response,,,,100,,,,,,,Space,keypress(Space),,,,,,,,-- --- ---- --- ------ ----- ------- ---- -- --- ------- --<br>------- ---------- ------ -- ----- -- ----- -- ---- ------<br>--- ----- --- --- ------ -------- ----- --- ------ ----- --<br>----- ----- ---------- --- --- ------ ------ ---- -- French<br>------- --- ------ ----- --- ---- ------- -- ---- --- --<br>------- ------,211241.90000003576,211241,210910.737,210923.5,210927.374,211263.735,,42,French
screen,html.Screen,2_1_1_1_43,2022-05-04T09:08:11.675Z,,,,,,,,,,,,,,,,,54,,,,,,,,,,,,,,330.3650000238558,,response,,,,100,,,,,,,Space,keypress(Space),,,,,,,,-- --- ---- --- ------ ----- ------- ---- -- --- ------- --<br>------- ---------- ------ -- ----- -- ----- -- ---- ------<br>--- ----- --- --- ------ -------- ----- --- ------ ----- --<br>----- ----- ---------- --- --- ------ ------ ---- -- ------<br>credit. --- ------ ----- --- ---- ------- -- ---- --- --<br>------- ------,211595.40000003576,211594.10000002384,211227.28,211242.10000002384,211263.735,211610.559,,43,credit.
screen,html.Screen,2_1_1_1_44,2022-05-04T09:08:12.132Z,,,,,,,,,,,,,,,,,54,,,,,,,,,,,,,,440.24100001191255,,response,,,,100,,,,,,,Space,keypress(Space),,,,,,,,-- --- ---- --- ------ ----- ------- ---- -- --- ------- --<br>------- ---------- ------ -- ----- -- ----- -- ---- ------<br>--- ----- --- --- ------ -------- ----- --- ------ ----- --<br>----- ----- ---------- --- --- ------ ------ ---- -- ------<br>------- The ------ ----- --- ---- ------- -- ---- --- --<br>------- ------,212052.30000001192,212050.80000001192,211593.811,211595.69999998808,211610.559,212060.243,,44,The
screen,html.Screen,2_1_1_1_45,2022-05-04T09:08:12.515Z,,,,,,,,,,,,,,,,,54,,,,,,,,,,,,,,373.9569999880914,,response,,,,100,,,,,,,Space,keypress(Space),,,,,,,,-- --- ---- --- ------ ----- ------- ---- -- --- ------- --<br>------- ---------- ------ -- ----- -- ----- -- ---- ------<br>--- ----- --- --- ------ -------- ----- --- ------ ----- --<br>----- ----- ---------- --- --- ------ ------ ---- -- ------<br>------- --- French ----- --- ---- ------- -- ---- --- --<br>------- ------,212435.19999998808,212434.19999998808,212043.769,212052.69999998808,212060.243,212443.489,,45,French
screen,html.Screen,2_1_1_1_46,2022-05-04T09:08:12.832Z,,,,,,,,,,,,,,,,,54,,,,,,,,,,,,,,307.4110000357614,,response,,,,100,,,,,,,Space,keypress(Space),,,,,,,,-- --- ---- --- ------ ----- ------- ---- -- --- ------- --<br>------- ---------- ------ -- ----- -- ----- -- ---- ------<br>--- ----- --- --- ------ -------- ----- --- ------ ----- --<br>----- ----- ---------- --- --- ------ ------ ---- -- ------<br>------- --- ------ state --- ---- ------- -- ---- --- --<br>------- ------,212752.10000002384,212750.90000003576,212426.934,212435.60000002384,212443.489,212760.018,,46,state
screen,html.Screen,2_1_1_1_47,2022-05-04T09:08:13.187Z,,,,,,,,,,,,,,,,,54,,,,,,,,,,,,,,345.48199999998906,,response,,,,100,,,,,,,Space,keypress(Space),,,,,,,,-- --- ---- --- ------ ----- ------- ---- -- --- ------- --<br>------- ---------- ------ -- ----- -- ----- -- ---- ------<br>--- ----- --- --- ------ -------- ----- --- ------ ----- --<br>----- ----- ---------- --- --- ------ ------ ---- -- ------<br>------- --- ------ ----- was ---- ------- -- ---- --- --<br>------- ------,213106.80000001192,213105.5,212743.368,212752.40000003576,212760.018,213109.872,,47,was
screen,html.Screen,2_1_1_1_48,2022-05-04T09:08:13.526Z,,,,,,,,,,,,,,,,,54,,,,,,,,,,,,,,335.02800003575976,,response,,,,100,,,,,,,Space,keypress(Space),,,,,,,,-- --- ---- --- ------ ----- ------- ---- -- --- ------- --<br>------- ---------- ------ -- ----- -- ----- -- ---- ------<br>--- ----- --- --- ------ -------- ----- --- ------ ----- --<br>----- ----- ---------- --- --- ------ ------ ---- -- ------<br>------- --- ------ ----- --- left ------- -- ---- --- --<br>------- ------,213445.90000003576,213444.90000003576,213093.34,213107.10000002384,213109.872,213459.729,,48,left
screen,html.Screen,2_1_1_1_49,2022-05-04T09:08:13.931Z,,,,,,,,,,,,,,,,,54,,,,,,,,,,,,,,390.970999988087,,response,,,,100,,,,,,,Space,keypress(Space),,,,,,,,-- --- ---- --- ------ ----- ------- ---- -- --- ------- --<br>------- ---------- ------ -- ----- -- ----- -- ---- ------<br>--- ----- --- --- ------ -------- ----- --- ------ ----- --<br>----- ----- ---------- --- --- ------ ------ ---- -- ------<br>------- --- ------ ----- --- ---- without -- ---- --- --<br>------- ------,213851.60000002384,213850.69999998808,213443.164,213446.10000002384,213459.729,213859.557,,49,without
screen,html.Screen,2_1_1_1_50,2022-05-04T09:08:14.313Z,,,,,,,,,,,,,,,,,54,,,,,,,,,,,,,,372.54300002384116,,response,,,,100,,,,,,,Space,keypress(Space),,,,,,,,-- --- ---- --- ------ ----- ------- ---- -- --- ------- --<br>------- ---------- ------ -- ----- -- ----- -- ---- ------<br>--- ----- --- --- ------ -------- ----- --- ------ ----- --<br>----- ----- ---------- --- --- ------ ------ ---- -- ------<br>------- --- ------ ----- --- ---- ------- an ---- --- --<br>------- ------,214233,214232.10000002384,213842.853,213851.90000003576,213859.557,214242.782,,50,an
screen,html.Screen,2_1_1_1_51,2022-05-04T09:08:14.734Z,,,,,,,,,,,,,,,,,54,,,,,,,,,,,,,,410.11800003575627,,response,,,,100,,,,,,,Space,keypress(Space),,,,,,,,-- --- ---- --- ------ ----- ------- ---- -- --- ------- --<br>------- ---------- ------ -- ----- -- ----- -- ---- ------<br>--- ----- --- --- ------ -------- ----- --- ------ ----- --<br>----- ----- ---------- --- --- ------ ------ ---- -- ------<br>------- --- ------ ----- --- ---- ------- -- easy --- --<br>------- ------,214653.90000003576,214652.90000003576,214226.044,214233.19999998808,214242.782,214659.184,,51,easy
screen,html.Screen,2_1_1_1_52,2022-05-04T09:08:15.153Z,,,,,,,,,,,,,,,,,54,,,,,,,,,,,,,,413.3159999999916,,response,,,,100,,,,,,,Space,keypress(Space),,,,,,,,-- --- ---- --- ------ ----- ------- ---- -- --- ------- --<br>------- ---------- ------ -- ----- -- ----- -- ---- ------<br>--- ----- --- --- ------ -------- ----- --- ------ ----- --<br>----- ----- ---------- --- --- ------ ------ ---- -- ------<br>------- --- ------ ----- --- ---- ------- -- ---- way --<br>------- ------,215073.40000003576,215072.5,214642.525,214654.30000001192,214659.184,215075.716,,52,way
screen,html.Screen,2_1_1_1_53,2022-05-04T09:08:15.475Z,,,,,,,,,,,,,,,,,54,,,,,,,,,,,,,,318.684000035777,,response,,,,100,,,,,,,Space,keypress(Space),,,,,,,,-- --- ---- --- ------ ----- ------- ---- -- --- ------- --<br>------- ---------- ------ -- ----- -- ----- -- ---- ------<br>--- ----- --- --- ------ -------- ----- --- ------ ----- --<br>----- ----- ---------- --- --- ------ ------ ---- -- ------<br>------- --- ------ ----- --- ---- ------- -- ---- --- of<br>------- ------,215395.69999998808,215394.40000003576,215058.985,215073.60000002384,215075.716,215408.949,,53,of
screen,html.Screen,2_1_1_1_54,2022-05-04T09:08:15.923Z,,,,,,,,,,,,,,,,,54,,,,,,,,,,,,,,433.45100003576954,,response,,,,100,,,,,,,Space,keypress(Space),,,,,,,,-- --- ---- --- ------ ----- ------- ---- -- --- ------- --<br>------- ---------- ------ -- ----- -- ----- -- ---- ------<br>--- ----- --- --- ------ -------- ----- --- ------ ----- --<br>----- ----- ---------- --- --- ------ ------ ---- -- ------<br>------- --- ------ ----- --- ---- ------- -- ---- --- --<br>raising ------,215843.60000002384,215842.40000003576,215392.417,215396,215408.949,215858.888,,54,raising
screen,html.Screen,2_1_1_1_55,2022-05-04T09:08:17.128Z,,,,,,,,,,,,,,,,,54,,,,,,,,,,,,,,1188.5120000357565,,response,,,,100,,,,,,,Space,keypress(Space),,,,,,,,-- --- ---- --- ------ ----- ------- ---- -- --- ------- --<br>------- ---------- ------ -- ----- -- ----- -- ---- ------<br>--- ----- --- --- ------ -------- ----- --- ------ ----- --<br>----- ----- ---------- --- --- ------ ------ ---- -- ------<br>------- --- ------ ----- --- ---- ------- -- ---- --- --<br>------- money.,217048.5,217047.40000003576,215842.054,215843.90000003576,215858.888,217058.206,,55,money.
Item 100,flow.Loop,2_1_1_1,2022-05-04T09:08:17.129Z,,,,,,,,,,,,,,,,,,,,,,,,,,,,,,,29793.559000035777,,completion,,,,,B,,,,,,,,,,,silence,,,,,217049,217047.40000003576,187237.174,187239,187253.841,217058.206,,,
Question 1,html.Screen,2_1_1_2,2022-05-04T09:08:20.243Z,,,,,,,,,,,,,,,,,,,,,,,,,,,,true,TRUE,,3104.4939999880735,,response,,,,100,B,,,,,,TRUE,click #choice-1,,,,silence,,,,,220163.40000003576,220162.69999998808,217041.666,217049.10000002384,217058.206,220173.606,,,
Question 2,html.Screen,2_1_1_3,2022-05-04T09:08:22.443Z,,,,,,,,,,,,,,,,,,,,,,,,,,,,true,FALSE,,2189.194000011921,,response,,,,100,B,,,,,,FALSE,click #choice-2,,,,silence,,,,,222363.60000002384,222362.80000001192,220157.114,220163.5,220173.606,222372.704,,,
Item 100,flow.Sequence,2_1_1,2022-05-04T09:08:22.444Z,,,,,,,,,,,,,,,,,,,,,,,,,,,,,,,45104.88100001193,,completion,,,,,,,,,,,,,,,,,,,,,222363.69999998808,222362.80000001192,177241.316,177239.80000001192,177257.919,222372.704,,,
End of Practice,html.Page,2_1_2,2022-05-04T09:08:32.048Z,,,,,,,,,,,,,,,,,,,,,,,,,,,,,,,9594.896000023844,,form submission,,,,,,,,,,,,,,,,,,,,,231967.90000003576,231967.60000002384,222356.09,222363.80000001192,222372.704,231968.695,,,
Practice,flow.Sequence,2_1,2022-05-04T09:08:32.048Z,,,,,,,,,,,,,,,,,,,,,,,,,,,,,,,109170.60600002384,,completion,,,,,,,,,,,,,,,,,,,,,231968,231967.60000002384,122780.443,122795.69999998808,122796.994,231968.695,,,
Trap_instruction,html.Page,2_2_0,2022-05-04T09:08:35.307Z,,,,,,,,,,,,,,,,,,,,,,,,,,,,,,,3258.804999999993,,form submission,,,,,,,,,,,,,,,,,,,,,235227.60000002384,235227.5,231952.203,231968,231968.695,235234.055,,,
trap_trial,html.Screen,2_2_1,2022-05-04T09:08:38.731Z,,,,,,,,,,,,,,,,,,,,,,,,,,,,true,1,,3416.644999988086,,response,,,,,,,,,,,1,click #choice-1,,,,,,,,,238651.30000001192,238650.69999998808,235217.391,235227.69999998808,235234.055,238666.124,,,
end of trap trial,html.Page,2_2_2,2022-05-04T09:08:42.044Z,,,,,,,,,,,,,,,,,,,,,,,,,,,,,,,3297.776000035752,,form submission,,,,,,,,,,,,,,,,,,,,,241964.19999998808,241963.90000003576,238649.466,238651.40000003576,238666.124,241964.523,,,
Trap 1,flow.Sequence,2_2,2022-05-04T09:08:42.044Z,,,,,,,,,,,,,,,,,,,,,,,,,,,,,,,9995.205000035756,,completion,,,,,,,,,,,,,,,,,,,,,241964.40000003576,241963.90000003576,231952.203,231968,231968.695,241964.523,,,
Standby,html.Page,2_3_0,2022-05-04T09:08:50.026Z,,,,,,,,,,,,,,,,,,,,,,,,,,,,,,,7996.854000000021,,timeout,,,,,,,,,,,,,,,,,,,,,249945.90000003576,249944.666,241947.965,241964.5,241964.523,249961.377,,,
Holding screen,html.Screen,2_3_1_0_0,2022-05-04T09:08:57.022Z,,,,,,,,,,,,,,,,,,,,,,,,,,,,,,,6997.09599999999,,timeout,,,,,,,,,,,,,,,,,,,,,256943,256942.011,249944.666,249946.40000003576,249961.377,256958.473,,,
screen,html.Screen,2_3_1_0_1_0,2022-05-04T09:08:58.677Z,,,,,,,,,,,,,,,,,40,,,,,,,,,,,,,,1637.6270000238437,,response,,,,9,B,,,,,,Space,keypress(Space),,,,lyrical,,,,Police -- ------- ---- ---- ---- - -------- ----- --- --<br>----- ----- ------ -- ---- -- --- - ---- -- - ----- -----<br>------ ---- ------ ---- - -------- ------- -- --- --------<br>-------- ----------- ---- ------ ---- ------ ---- --- ---<br>-------- --- -----,258597.80000001192,258596.10000002384,256942.011,256943.19999998808,256958.473,258607.766,,0,Police
screen,html.Screen,2_3_1_0_1_1,2022-05-04T09:08:59.112Z,,,,,,,,,,,,,,,,,40,,,,,,,,,,,,,,423.23399999999674,,response,,,,9,B,,,,,,Space,keypress(Space),,,,lyrical,,,,------ in ------- ---- ---- ---- - -------- ----- --- --<br>----- ----- ------ -- ---- -- --- - ---- -- - ----- -----<br>------ ---- ------ ---- - -------- ------- -- --- --------<br>-------- ----------- ---- ------ ---- ------ ---- --- ---<br>-------- --- -----,259032.19999998808,259031,258591.159,258598.19999998808,258607.766,259040.971,,1,in
screen,html.Screen,2_3_1_0_1_2,2022-05-04T09:08:59.589Z,,,,,,,,,,,,,,,,,40,,,,,,,,,,,,,,467.8290000119305,,response,,,,9,B,,,,,,Space,keypress(Space),,,,lyrical,,,,------ -- Georgia ---- ---- ---- - -------- ----- --- --<br>----- ----- ------ -- ---- -- --- - ---- -- - ----- -----<br>------ ---- ------ ---- - -------- ------- -- --- --------<br>-------- ----------- ---- ------ ---- ------ ---- --- ---<br>-------- --- -----,259509.69999998808,259508.80000001192,259024.252,259032.5,259040.971,259524.053,,2,Georgia
screen,html.Screen,2_3_1_0_1_3,2022-05-04T09:09:00.071Z,,,,,,,,,,,,,,,,,40,,,,,,,,,,,,,,467.0470000238274,,response,,,,9,B,,,,,,Space,keypress(Space),,,,lyrical,,,,------ -- ------- have ---- ---- - -------- ----- --- --<br>----- ----- ------ -- ---- -- --- - ---- -- - ----- -----<br>------ ---- ------ ---- - -------- ------- -- --- --------<br>-------- ----------- ---- ------ ---- ------ ---- --- ---<br>-------- --- -----,259991.60000002384,259991.10000002384,259507.394,259510.10000002384,259524.053,260007.131,,3,have
screen,html.Screen,2_3_1_0_1_4,2022-05-04T09:09:00.546Z,,,,,,,,,,,,,,,,,40,,,,,,,,,,,,,,458.669000011927,,response,,,,9,B,,,,,,Space,keypress(Space),,,,lyrical,,,,------ -- ------- ---- shut ---- - -------- ----- --- --<br>----- ----- ------ -- ---- -- --- - ---- -- - ----- -----<br>------ ---- ------ ---- - -------- ------- -- --- --------<br>-------- ----------- ---- ------ ---- ------ ---- --- ---<br>-------- --- -----,260466.69999998808,260465.80000001192,259990.498,259991.90000003576,260007.131,260473.746,,4,shut
screen,html.Screen,2_3_1_0_1_5,2022-05-04T09:09:00.888Z,,,,,,,,,,,,,,,,,40,,,,,,,,,,,,,,333.45399998806533,,response,,,,9,B,,,,,,Space,keypress(Space),,,,lyrical,,,,------ -- ------- ---- ---- down - -------- ----- --- --<br>----- ----- ------ -- ---- -- --- - ---- -- - ----- -----<br>------ ---- ------ ---- - -------- ------- -- --- --------<br>-------- ----------- ---- ------ ---- ------ ---- --- ---<br>-------- --- -----,260808.69999998808,260807.19999998808,260456.956,260467,260473.746,260823.569,,5,down
screen,html.Screen,2_3_1_0_1_6,2022-05-04T09:09:01.205Z,,,,,,,,,,,,,,,,,40,,,,,,,,,,,,,,300.9310000000114,,response,,,,9,B,,,,,,Space,keypress(Space),,,,lyrical,,,,------ -- ------- ---- ---- ---- a -------- ----- --- --<br>----- ----- ------ -- ---- -- --- - ---- -- - ----- -----<br>------ ---- ------ ---- - -------- ------- -- --- --------<br>-------- ----------- ---- ------ ---- ------ ---- --- ---<br>-------- --- -----,261125.69999998808,261124.5,260806.873,260809.10000002384,260823.569,261140.126,,6,a
screen,html.Screen,2_3_1_0_1_7,2022-05-04T09:09:01.627Z,,,,,,,,,,,,,,,,,40,,,,,,,,,,,,,,405.7740000357735,,response,,,,9,B,,,,,,Space,keypress(Space),,,,lyrical,,,,------ -- ------- ---- ---- ---- - lemonade ----- --- --<br>----- ----- ------ -- ---- -- --- - ---- -- - ----- -----<br>------ ---- ------ ---- - -------- ------- -- --- --------<br>-------- ----------- ---- ------ ---- ------ ---- --- ---<br>-------- --- -----,261547.19999998808,261545.90000003576,261123.533,261126,261140.126,261556.638,,7,lemonade
screen,html.Screen,2_3_1_0_1_8,2022-05-04T09:09:01.938Z,,,,,,,,,,,,,,,,,40,,,,,,,,,,,,,,300.5619999880728,,response,,,,9,B,,,,,,Space,keypress(Space),,,,lyrical,,,,------ -- ------- ---- ---- ---- - -------- stand --- --<br>----- ----- ------ -- ---- -- --- - ---- -- - ----- -----<br>------ ---- ------ ---- - -------- ------- -- --- --------<br>-------- ----------- ---- ------ ---- ------ ---- --- ---<br>-------- --- -----,261858.60000002384,261857.19999998808,261539.864,261547.60000002384,261556.638,261873.322,,8,stand
screen,html.Screen,2_3_1_0_1_9,2022-05-04T09:09:02.432Z,,,,,,,,,,,,,,,,,40,,,,,,,,,,,,,,477.7780000238563,,response,,,,9,B,,,,,,Space,keypress(Space),,,,lyrical,,,,------ -- ------- ---- ---- ---- - -------- ----- run --<br>----- ----- ------ -- ---- -- --- - ---- -- - ----- -----<br>------ ---- ------ ---- - -------- ------- -- --- --------<br>-------- ----------- ---- ------ ---- ------ ---- --- ---<br>-------- --- -----,262352.3000000119,262351.10000002384,261856.407,261858.90000003576,261873.322,262372.86,,9,run
screen,html.Screen,2_3_1_0_1_10,2022-05-04T09:09:03.062Z,,,,,,,,,,,,,,,,,40,,,,,,,,,,,,,,608.9400000119349,,response,,,,9,B,,,,,,Space,keypress(Space),,,,lyrical,,,,------ -- ------- ---- ---- ---- - -------- ----- --- by<br>----- ----- ------ -- ---- -- --- - ---- -- - ----- -----<br>------ ---- ------ ---- - -------- ------- -- --- --------<br>-------- ----------- ---- ------ ---- ------ ---- --- ---<br>-------- --- -----,262982.6999999881,262981.8000000119,262356.419,262356,262372.86,262989.293,,10,by
screen,html.Screen,2_3_1_0_1_11,2022-05-04T09:09:03.538Z,,,,,,,,,,,,,,,,,40,,,,,,,,,,,,,,468.0070000119158,,response,,,,9,B,,,,,,Space,keypress(Space),,,,lyrical,,,,------ -- ------- ---- ---- ---- - -------- ----- --- --<br>three ----- ------ -- ---- -- --- - ---- -- - ----- -----<br>------ ---- ------ ---- - -------- ------- -- --- --------<br>-------- ----------- ---- ------ ---- ------ ---- --- ---<br>-------- --- -----,263458.8000000119,263457.3000000119,262972.599,262982.90000003576,262989.293,263472.518,,11,three
screen,html.Screen,2_3_1_0_1_12,2022-05-04T09:09:04.145Z,,,,,,,,,,,,,,,,,40,,,,,,,,,,,,,,591.4820000000182,,response,,,,9,B,,,,,,Space,keypress(Space),,,,lyrical,,,,------ -- ------- ---- ---- ---- - -------- ----- --- --<br>----- girls ------ -- ---- -- --- - ---- -- - ----- -----<br>------ ---- ------ ---- - -------- ------- -- --- --------<br>-------- ----------- ---- ------ ---- ------ ---- --- ---<br>-------- --- -----,264065.1999999881,264064,263455.685,263459.10000002384,263472.518,264072.163,,12,girls
screen,html.Screen,2_3_1_0_1_13,2022-05-04T09:09:04.777Z,,,,,,,,,,,,,,,,,40,,,,,,,,,,,,,,624.1370000119205,,response,,,,9,B,,,,,,Space,keypress(Space),,,,lyrical,,,,------ -- ------- ---- ---- ---- - -------- ----- --- --<br>----- ----- trying -- ---- -- --- - ---- -- - ----- -----<br>------ ---- ------ ---- - -------- ------- -- --- --------<br>-------- ----------- ---- ------ ---- ------ ---- --- ---<br>-------- --- -----,264697.40000003576,264696.3000000119,264055.521,264065.60000002384,264072.163,264705.26,,13,trying
screen,html.Screen,2_3_1_0_1_14,2022-05-04T09:09:05.164Z,,,,,,,,,,,,,,,,,40,,,,,,,,,,,,,,378.2399999999907,,response,,,,9,B,,,,,,Space,keypress(Space),,,,lyrical,,,,------ -- ------- ---- ---- ---- - -------- ----- --- --<br>----- ----- ------ to ---- -- --- - ---- -- - ----- -----<br>------ ---- ------ ---- - -------- ------- -- --- --------<br>-------- ----------- ---- ------ ---- ------ ---- --- ---<br>-------- --- -----,265084.5,265083.5,264688.524,264697.6999999881,264705.26,265088.404,,14,to
screen,html.Screen,2_3_1_0_1_15,2022-05-04T09:09:05.655Z,,,,,,,,,,,,,,,,,40,,,,,,,,,,,,,,485.6960000238614,,response,,,,9,B,,,,,,Space,keypress(Space),,,,lyrical,,,,------ -- ------- ---- ---- ---- - -------- ----- --- --<br>----- ----- ------ -- save -- --- - ---- -- - ----- -----<br>------ ---- ------ ---- - -------- ------- -- --- --------<br>-------- ----------- ---- ------ ---- ------ ---- --- ---<br>-------- --- -----,265575.1999999881,265574.10000002384,265071.742,265084.8000000119,265088.404,265588.249,,15,save
screen,html.Screen,2_3_1_0_1_16,2022-05-04T09:09:06.407Z,,,,,,,,,,,,,,,,,40,,,,,,,,,,,,,,738.3510000238311,,response,,,,9,B,,,,,,Space,keypress(Space),,,,lyrical,,,,------ -- ------- ---- ---- ---- - -------- ----- --- --<br>----- ----- ------ -- ---- up --- - ---- -- - ----- -----<br>------ ---- ------ ---- - -------- ------- -- --- --------<br>-------- ----------- ---- ------ ---- ------ ---- --- ---<br>-------- --- -----,266327.40000003576,266326.60000002384,265571.571,265575.6999999881,265588.249,266337.991,,16,up
screen,html.Screen,2_3_1_0_1_17,2022-05-04T09:09:06.666Z,,,,,,,,,,,,,,,,,40,,,,,,,,,,,,,,247.60900002386188,,response,,,,9,B,,,,,,Space,keypress(Space),,,,lyrical,,,,------ -- ------- ---- ---- ---- - -------- ----- --- --<br>----- ----- ------ -- ---- -- for - ---- -- - ----- -----<br>------ ---- ------ ---- - -------- ------- -- --- --------<br>-------- ----------- ---- ------ ---- ------ ---- --- ---<br>-------- --- -----,266586.5,266585.60000002384,266321.26,266327.6999999881,266337.991,266611.839,,17,for
screen,html.Screen,2_3_1_0_1_18,2022-05-04T09:09:06.999Z,,,,,,,,,,,,,,,,,40,,,,,,,,,,,,,,306.6610000000219,,response,,,,9,B,,,,,,Space,keypress(Space),,,,lyrical,,,,------ -- ------- ---- ---- ---- - -------- ----- --- --<br>----- ----- ------ -- ---- -- --- a ---- -- - ----- -----<br>------ ---- ------ ---- - -------- ------- -- --- --------<br>-------- ----------- ---- ------ ---- ------ ---- --- ---<br>-------- --- -----,266919.6999999881,266918.5,266571.125,266586.6999999881,266611.839,266937.673,,18,a
screen,html.Screen,2_3_1_0_1_19,2022-05-04T09:09:07.420Z,,,,,,,,,,,,,,,,,40,,,,,,,,,,,,,,401.8269999999902,,response,,,,9,B,,,,,,Space,keypress(Space),,,,lyrical,,,,------ -- ------- ---- ---- ---- - -------- ----- --- --<br>----- ----- ------ -- ---- -- --- - trip -- - ----- -----<br>------ ---- ------ ---- - -------- ------- -- --- --------<br>-------- ----------- ---- ------ ---- ------ ---- --- ---<br>-------- --- -----,267340.90000003576,267339.5,266904.593,266920.1999999881,266937.673,267354.194,,19,trip
screen,html.Screen,2_3_1_0_1_20,2022-05-04T09:09:07.847Z,,,,,,,,,,,,,,,,,40,,,,,,,,,,,,,,412.10600001190323,,response,,,,9,B,,,,,,Space,keypress(Space),,,,lyrical,,,,------ -- ------- ---- ---- ---- - -------- ----- --- --<br>----- ----- ------ -- ---- -- --- - ---- to - ----- -----<br>------ ---- ------ ---- - -------- ------- -- --- --------<br>-------- ----------- ---- ------ ---- ------ ---- --- ---<br>-------- --- -----,267767.40000003576,267766.3000000119,267337.461,267341.1999999881,267354.194,267770.658,,20,to
screen,html.Screen,2_3_1_0_1_21,2022-05-04T09:09:08.132Z,,,,,,,,,,,,,,,,,40,,,,,,,,,,,,,,280.6420000119251,,response,,,,9,B,,,,,,Space,keypress(Space),,,,lyrical,,,,------ -- ------- ---- ---- ---- - -------- ----- --- --<br>----- ----- ------ -- ---- -- --- - ---- -- a ----- -----<br>------ ---- ------ ---- - -------- ------- -- --- --------<br>-------- ----------- ---- ------ ---- ------ ---- --- ---<br>-------- --- -----,268052.40000003576,268051.3000000119,267753.957,267767.6999999881,267770.658,268074.424,,21,a
screen,html.Screen,2_3_1_0_1_22,2022-05-04T09:09:08.429Z,,,,,,,,,,,,,,,,,40,,,,,,,,,,,,,,274.1760000238428,,response,,,,9,B,,,,,,Space,keypress(Space),,,,lyrical,,,,------ -- ------- ---- ---- ---- - -------- ----- --- --<br>----- ----- ------ -- ---- -- --- - ---- -- - water -----<br>------ ---- ------ ---- - -------- ------- -- --- --------<br>-------- ----------- ---- ------ ---- ------ ---- --- ---<br>-------- --- -----,268349.60000002384,268348.60000002384,268037.186,268052.6999999881,268074.424,268353.701,,22,water
screen,html.Screen,2_3_1_0_1_23,2022-05-04T09:09:09.354Z,,,,,,,,,,,,,,,,,40,,,,,,,,,,,,,,919.2989999999991,,response,,,,9,B,,,,,,Space,keypress(Space),,,,lyrical,,,,"------ -- ------- ---- ---- ---- - -------- ----- --- --<br>----- ----- ------ -- ---- -- --- - ---- -- - ----- park,<br>------ ---- ------ ---- - -------- ------- -- --- --------<br>-------- ----------- ---- ------ ---- ------ ---- --- ---<br>-------- --- -----",269274.1999999881,269273,268337.121,268349.90000003576,268353.701,269286.699,,23,"park,"
screen,html.Screen,2_3_1_0_1_24,2022-05-04T09:09:09.703Z,,,,,,,,,,,,,,,,,40,,,,,,,,,,,,,,335.4010000238195,,response,,,,9,B,,,,,,Space,keypress(Space),,,,lyrical,,,,------ -- ------- ---- ---- ---- - -------- ----- --- --<br>----- ----- ------ -- ---- -- --- - ---- -- - ----- -----<br>saying ---- ------ ---- - -------- ------- -- --- --------<br>-------- ----------- ---- ------ ---- ------ ---- --- ---<br>-------- --- -----,269623.40000003576,269622.10000002384,269270.182,269274.40000003576,269286.699,269636.658,,24,saying
screen,html.Screen,2_3_1_0_1_25,2022-05-04T09:09:10.117Z,,,,,,,,,,,,,,,,,40,,,,,,,,,,,,,,400.04199998808326,,response,,,,9,B,,,,,,Space,keypress(Space),,,,lyrical,,,,------ -- ------- ---- ---- ---- - -------- ----- --- --<br>----- ----- ------ -- ---- -- --- - ---- -- - ----- -----<br>------ they ------ ---- - -------- ------- -- --- --------<br>-------- ----------- ---- ------ ---- ------ ---- --- ---<br>-------- --- -----,270038,270036.6999999881,269619.967,269623.6999999881,269636.658,270053.07,,25,they
screen,html.Screen,2_3_1_0_1_26,2022-05-04T09:09:10.481Z,,,,,,,,,,,,,,,,,40,,,,,,,,,,,,,,347.6299999880721,,response,,,,9,B,,,,,,Space,keypress(Space),,,,lyrical,,,,------ -- ------- ---- ---- ---- - -------- ----- --- --<br>----- ----- ------ -- ---- -- --- - ---- -- - ----- -----<br>------ ---- didn't ---- - -------- ------- -- --- --------<br>-------- ----------- ---- ------ ---- ------ ---- --- ---<br>-------- --- -----,270401.6999999881,270400.6999999881,270036.456,270038.5,270053.07,270419.588,,26,didn't
screen,html.Screen,2_3_1_0_1_27,2022-05-04T09:09:10.852Z,,,,,,,,,,,,,,,,,40,,,,,,,,,,,,,,352.01200002385303,,response,,,,9,B,,,,,,Space,keypress(Space),,,,lyrical,,,,------ -- ------- ---- ---- ---- - -------- ----- --- --<br>----- ----- ------ -- ---- -- --- - ---- -- - ----- -----<br>------ ---- ------ have - -------- ------- -- --- --------<br>-------- ----------- ---- ------ ---- ------ ---- --- ---<br>-------- --- -----,270772.5,270771.60000002384,270386.262,270402,270419.588,270786.336,,27,have
screen,html.Screen,2_3_1_0_1_28,2022-05-04T09:09:11.628Z,,,,,,,,,,,,,,,,,40,,,,,,,,,,,,,,760.9640000119107,,response,,,,9,B,,,,,,Space,keypress(Space),,,,lyrical,,,,------ -- ------- ---- ---- ---- - -------- ----- --- --<br>----- ----- ------ -- ---- -- --- - ---- -- - ----- -----<br>------ ---- ------ ---- a -------- ------- -- --- --------<br>-------- ----------- ---- ------ ---- ------ ---- --- ---<br>-------- --- -----,271548.60000002384,271547.3000000119,270769.437,270772.8000000119,270786.336,271552.423,,28,a
screen,html.Screen,2_3_1_0_1_29,2022-05-04T09:09:11.948Z,,,,,,,,,,,,,,,,,40,,,,,,,,,,,,,,314.1770000238321,,response,,,,9,B,,,,,,Space,keypress(Space),,,,lyrical,,,,------ -- ------- ---- ---- ---- - -------- ----- --- --<br>----- ----- ------ -- ---- -- --- - ---- -- - ----- -----<br>------ ---- ------ ---- - business ------- -- --- --------<br>-------- ----------- ---- ------ ---- ------ ---- --- ---<br>-------- --- -----,271868.40000003576,271866.60000002384,271536.006,271549,271552.423,271885.575,,29,business
screen,html.Screen,2_3_1_0_1_30,2022-05-04T09:09:12.317Z,,,,,,,,,,,,,,,,,40,,,,,,,,,,,,,,350.2250000119093,,response,,,,9,B,,,,,,Space,keypress(Space),,,,lyrical,,,,------ -- ------- ---- ---- ---- - -------- ----- --- --<br>----- ----- ------ -- ---- -- --- - ---- -- - ----- -----<br>------ ---- ------ ---- - -------- license -- --- --------<br>-------- ----------- ---- ------ ---- ------ ---- --- ---<br>-------- --- -----,272237.5,272235.8000000119,271868.934,271868.60000002384,271885.575,272252.205,,30,license
screen,html.Screen,2_3_1_0_1_31,2022-05-04T09:09:12.725Z,,,,,,,,,,,,,,,,,40,,,,,,,,,,,,,,393.2949999999837,,response,,,,9,B,,,,,,Space,keypress(Space),,,,lyrical,,,,------ -- ------- ---- ---- ---- - -------- ----- --- --<br>----- ----- ------ -- ---- -- --- - ---- -- - ----- -----<br>------ ---- ------ ---- - -------- ------- or --- --------<br>-------- ----------- ---- ------ ---- ------ ---- --- ---<br>-------- --- -----,272646.10000002384,272645.5,272235.483,272237.90000003576,272252.205,272651.929,,31,or
screen,html.Screen,2_3_1_0_1_32,2022-05-04T09:09:13.057Z,,,,,,,,,,,,,,,,,40,,,,,,,,,,,,,,325.17100002383813,,response,,,,9,B,,,,,,Space,keypress(Space),,,,lyrical,,,,------ -- ------- ---- ---- ---- - -------- ----- --- --<br>----- ----- ------ -- ---- -- --- - ---- -- - ----- -----<br>------ ---- ------ ---- - -------- ------- -- the --------<br>-------- ----------- ---- ------ ---- ------ ---- --- ---<br>-------- --- -----,272978,272977.10000002384,272635.337,272646.3000000119,272651.929,272985.194,,32,the
screen,html.Screen,2_3_1_0_1_33,2022-05-04T09:09:13.420Z,,,,,,,,,,,,,,,,,40,,,,,,,,,,,,,,354.7060000357451,,response,,,,9,B,,,,,,Space,keypress(Space),,,,lyrical,,,,------ -- ------- ---- ---- ---- - -------- ----- --- --<br>----- ----- ------ -- ---- -- --- - ---- -- - ----- -----<br>------ ---- ------ ---- - -------- ------- -- --- required<br>-------- ----------- ---- ------ ---- ------ ---- --- ---<br>-------- --- -----,273340.90000003576,273339.90000003576,272968.455,272978.10000002384,272985.194,273351.809,,33,required
screen,html.Screen,2_3_1_0_1_34,2022-05-04T09:09:13.767Z,,,,,,,,,,,,,,,,,40,,,,,,,,,,,,,,335.0910000357544,,response,,,,9,B,,,,,,Space,keypress(Space),,,,lyrical,,,,------ -- ------- ---- ---- ---- - -------- ----- --- --<br>----- ----- ------ -- ---- -- --- - ---- -- - ----- -----<br>------ ---- ------ ---- - -------- ------- -- --- --------<br>permits. ----------- ---- ------ ---- ------ ---- --- ---<br>-------- --- -----,273687.90000003576,273686.90000003576,273334.994,273341.1999999881,273351.809,273701.579,,34,permits.
screen,html.Screen,2_3_1_0_1_35,2022-05-04T09:09:14.689Z,,,,,,,,,,,,,,,,,40,,,,,,,,,,,,,,906.420999999973,,response,,,,9,B,,,,,,Space,keypress(Space),,,,lyrical,,,,------ -- ------- ---- ---- ---- - -------- ----- --- --<br>----- ----- ------ -- ---- -- --- - ---- -- - ----- -----<br>------ ---- ------ ---- - -------- ------- -- --- --------<br>-------- Morningstar ---- ------ ---- ------ ---- --- ---<br>-------- --- -----,274609.3000000119,274608,273684.906,273688.1999999881,273701.579,274617.828,,35,Morningstar
screen,html.Screen,2_3_1_0_1_36,2022-05-04T09:09:15.065Z,,,,,,,,,,,,,,,,,40,,,,,,,,,,,,,,366.6720000000205,,response,,,,9,B,,,,,,Space,keypress(Space),,,,lyrical,,,,------ -- ------- ---- ---- ---- - -------- ----- --- --<br>----- ----- ------ -- ---- -- --- - ---- -- - ----- -----<br>------ ---- ------ ---- - -------- ------- -- --- --------<br>-------- ----------- says ------ ---- ------ ---- --- ---<br>-------- --- -----,274985.8000000119,274984.5,274601.282,274609.60000002384,274617.828,275001.17,,36,says
screen,html.Screen,2_3_1_0_1_37,2022-05-04T09:09:15.391Z,,,,,,,,,,,,,,,,,40,,,,,,,,,,,,,,309.3300000000163,,response,,,,9,B,,,,,,Space,keypress(Space),,,,lyrical,,,,------ -- ------- ---- ---- ---- - -------- ----- --- --<br>----- ----- ------ -- ---- -- --- - ---- -- - ----- -----<br>------ ---- ------ ---- - -------- ------- -- --- --------<br>-------- ----------- ---- police ---- ------ ---- --- ---<br>-------- --- -----,275311.8000000119,275310.5,274984.534,274986.10000002384,275001.17,275317.546,,37,police
screen,html.Screen,2_3_1_0_1_38,2022-05-04T09:09:15.746Z,,,,,,,,,,,,,,,,,40,,,,,,,,,,,,,,347.55400002386887,,response,,,,9,B,,,,,,Space,keypress(Space),,,,lyrical,,,,------ -- ------- ---- ---- ---- - -------- ----- --- --<br>----- ----- ------ -- ---- -- --- - ---- -- - ----- -----<br>------ ---- ------ ---- - -------- ------- -- --- --------<br>-------- ----------- ---- ------ also ------ ---- --- ---<br>-------- --- -----,275666.1999999881,275665.10000002384,275301.035,275312.10000002384,275317.546,275684.082,,38,also
screen,html.Screen,2_3_1_0_1_39,2022-05-04T09:09:16.153Z,,,,,,,,,,,,,,,,,40,,,,,,,,,,,,,,388.6179999880842,,response,,,,9,B,,,,,,Space,keypress(Space),,,,lyrical,,,,------ -- ------- ---- ---- ---- - -------- ----- --- --<br>----- ----- ------ -- ---- -- --- - ---- -- - ----- -----<br>------ ---- ------ ---- - -------- ------- -- --- --------<br>-------- ----------- ---- ------ ---- didn't ---- --- ---<br>-------- --- -----,276073.6999999881,276072.6999999881,275650.871,275666.5,275684.082,276083.918,,39,didn't
screen,html.Screen,2_3_1_0_1_40,2022-05-04T09:09:16.538Z,,,,,,,,,,,,,,,,,40,,,,,,,,,,,,,,373.98200003575766,,response,,,,9,B,,,,,,Space,keypress(Space),,,,lyrical,,,,------ -- ------- ---- ---- ---- - -------- ----- --- --<br>----- ----- ------ -- ---- -- --- - ---- -- - ----- -----<br>------ ---- ------ ---- - -------- ------- -- --- --------<br>-------- ----------- ---- ------ ---- ------ know --- ---<br>-------- --- -----,276458.8000000119,276457.90000003576,276067.209,276073.90000003576,276083.918,276467.043,,40,know
screen,html.Screen,2_3_1_0_1_41,2022-05-04T09:09:16.895Z,,,,,,,,,,,,,,,,,40,,,,,,,,,,,,,,347.7570000119158,,response,,,,9,B,,,,,,Space,keypress(Space),,,,lyrical,,,,------ -- ------- ---- ---- ---- - -------- ----- --- --<br>----- ----- ------ -- ---- -- --- - ---- -- - ----- -----<br>------ ---- ------ ---- - -------- ------- -- --- --------<br>-------- ----------- ---- ------ ---- ------ ---- how ---<br>-------- --- -----,276815.90000003576,276814.8000000119,276450.384,276459.10000002384,276467.043,276850.335,,41,how
screen,html.Screen,2_3_1_0_1_42,2022-05-04T09:09:17.265Z,,,,,,,,,,,,,,,,,40,,,,,,,,,,,,,,333.8649999880581,,response,,,,9,B,,,,,,Space,keypress(Space),,,,lyrical,,,,------ -- ------- ---- ---- ---- - -------- ----- --- --<br>----- ----- ------ -- ---- -- --- - ---- -- - ----- -----<br>------ ---- ------ ---- - -------- ------- -- --- --------<br>-------- ----------- ---- ------ ---- ------ ---- --- the<br>-------- --- -----,277185.3000000119,277184.1999999881,276833.617,276816.10000002384,276850.335,277200.34,,42,the
screen,html.Screen,2_3_1_0_1_43,2022-05-04T09:09:17.690Z,,,,,,,,,,,,,,,,,40,,,,,,,,,,,,,,409.35999998805346,,response,,,,9,B,,,,,,Space,keypress(Space),,,,lyrical,,,,------ -- ------- ---- ---- ---- - -------- ----- --- --<br>----- ----- ------ -- ---- -- --- - ---- -- - ----- -----<br>------ ---- ------ ---- - -------- ------- -- --- --------<br>-------- ----------- ---- ------ ---- ------ ---- --- ---<br>lemonade --- -----,277610.8000000119,277609.6999999881,277183.443,277185.60000002384,277200.34,277616.581,,43,lemonade
screen,html.Screen,2_3_1_0_1_44,2022-05-04T09:09:18.044Z,,,,,,,,,,,,,,,,,40,,,,,,,,,,,,,,346.51900002383627,,response,,,,9,B,,,,,,Space,keypress(Space),,,,lyrical,,,,------ -- ------- ---- ---- ---- - -------- ----- --- --<br>----- ----- ------ -- ---- -- --- - ---- -- - ----- -----<br>------ ---- ------ ---- - -------- ------- -- --- --------<br>-------- ----------- ---- ------ ---- ------ ---- --- ---<br>-------- was -----,277964.40000003576,277963.10000002384,277600.211,277611.10000002384,277616.581,277997.748,,44,was
screen,html.Screen,2_3_1_0_1_45,2022-05-04T09:09:18.835Z,,,,,,,,,,,,,,,,,40,,,,,,,,,,,,,,756.2519999999786,,response,,,,9,B,,,,,,Space,keypress(Space),,,,lyrical,,,,------ -- ------- ---- ---- ---- - -------- ----- --- --<br>----- ----- ------ -- ---- -- --- - ---- -- - ----- -----<br>------ ---- ------ ---- - -------- ------- -- --- --------<br>-------- ----------- ---- ------ ---- ------ ---- --- ---<br>-------- --- made.,278755.1999999881,278754,277949.762,277964.8000000119,277997.748,278766.105,,45,made.
Item 9,flow.Loop,2_3_1_0_1,2022-05-04T09:09:18.835Z,,,,,,,,,,,,,,,,,,,,,,,,,,,,,,,21795.527000000002,,completion,,,,,,,,,,,,,,,,,,,,,278755.90000003576,278754,256942.011,256943.19999998808,256958.473,278766.105,,,
Question 1,html.Screen,2_3_1_0_2,2022-05-04T09:09:21.039Z,,,,,,,,,,,,,,,,,,,,,,,,,,,,true,FALSE,,2192.7950000357814,,response,,,,9,B,,,,,,FALSE,click #choice-2,,,,lyrical,,,,,280959.6999999881,280958.90000003576,278749.424,278756,278766.105,280965.24,,,
Question 2,html.Screen,2_3_1_0_3,2022-05-04T09:09:23.287Z,,,,,,,,,,,,,,,,,,,,,,,,,,,,true,FALSE,,2241.660000035772,,response,,,,9,B,,,,,,FALSE,click #choice-2,,,,lyrical,,,,,283207.60000002384,283206.90000003576,280948.562,280959.8000000119,280965.24,283214.254,,,
