sender,sender_type,sender_id,timestamp,meta,,Blues,Classical,Country,Dance,Electronic,Folk,Gospel,Hip-Hop,Jazz,Latin,Musical/Film,New-age,Pop,Prolific_id,Provo_ID,R&B,Rap,Reggae,Religious,Rock,Soul,Swing,Traditional,age,artist_name,correct,correctResponse,distraction,duration,education,ended_on,familiarity,gender,headphone_check_performance,item,list,music_frequency,offensiveness,pleasantness,position_correct,preference,response,response_action,snippet_file,song_name,song_rating,sound,stimulus_1,stimulus_2,stimulus_3,text,time_commit,time_end,time_render,time_run,time_show,time_switch,url,word,word_ID
Prolific ID,html.Form,0,2022-05-09T16:26:05.431Z,"{""labjs_version"":""20.2.2"",""labjs_build"":{""flavor"":""production"",""commit"":""a25486e0c714a0ae2ce03ff94b7bb6896854dcfa""},""location"":""https://run.pavlovia.org/mvasilev/prolific3_music_g/"",""userAgent"":""Mozilla/5.0 (Macintosh; Intel Mac OS X 10_15_7) AppleWebKit/537.36 (KHTML, like Gecko) Chrome/101.0.4951.54 Safari/537.36"",""platform"":""MacIntel"",""language"":""en-GB"",""locale"":""en-GB"",""timeZone"":""Europe/London"",""timezoneOffset"":-60,""screen_width"":2240,""screen_height"":1260,""scroll_width"":1767,""scroll_height"":991,""window_innerWidth"":1767,""window_innerHeight"":1039,""devicePixelRatio"":2}",,,,,,,,,,,,,,,600713a1ef06551629886703,,,,,,,,,,,,,,,4238.459,,form submission,,,,,,,,,,,,,,,,,,,,,6748.699999988079,6748,2492.875,2508.699999988079,2509.541,6759.371,{},,
Introduction,html.Screen,1_0,2022-05-09T16:26:25.857Z,,,,,,,,,,,,,,,,,,,,,,,,,,,,,,,20406.228999964238,,response,,,,,,,,,,,continue,click button,,,,,,,,,27173.80000001192,27165.599999964237,6742.705,6749.099999964237,6759.371,27175.874,,,
Volume calibration,html.Screen,1_1,2022-05-09T16:26:34.276Z,,,,,,,,,,,,,,,,,,,,,,,,,,,,,,,8414.126,,response,,,,,,,,,,,continue,click button,,,,,,,,,35592.30000001192,35590,27159.208,27174,27175.874,35592.551,,,
Task instructions,html.Screen,1_2,2022-05-09T16:26:41.901Z,,,,,,,,,,,,,,,,,,,,,,,,,,,,,,,7623.048999964238,,response,,,,,,,,,,,continue,click button,,,,,,,,,43217.89999997616,43215.59999996424,35575.885,35592.30000001192,35592.551,43225.579,,,
Sounds,html.Screen,1_3_0_0,2022-05-09T16:26:46.149Z,,,,,,,,,,,,,,,,,,,,,,,,,,,,,,,4250.231,,timeout,,,,,,,,,2,,,,,,,,O,S,I,,47465.30000001192,47459.144,43208.913,43218.39999997616,43225.579,47475.81,,,
Judgement,html.Screen,1_3_0_1,2022-05-09T16:26:47.424Z,,,,,,,,,,,,,,,,,,,,,,,,,,,,true,2,,1262.3899999880814,,response,,,,,,,,,2,,2,click #choice-2,,,,,O,S,I,,48740.80000001192,48738.19999998808,47459.144,47465.59999996424,47475.81,48742.426,,,
Trial,flow.Sequence,1_3_0,2022-05-09T16:26:47.425Z,,,,,,,,,,,,,,,,,,,,,,,,,,,,,,,5512.620999988081,,completion,,,,,,,,,2,,,,,,,,O,S,I,,48741.30000001192,48738.19999998808,43208.913,43218.30000001192,43225.579,48742.426,,,
Sounds,html.Screen,1_3_1_0,2022-05-09T16:26:51.662Z,,,,,,,,,,,,,,,,,,,,,,,,,,,,,,,4249.830000000002,,timeout,,,,,,,,,3,,,,,,,,I,O,S,,52978,52975.59,48725.76,48741.69999998808,48742.426,52992.256,,,
Judgement,html.Screen,1_3_1_1,2022-05-09T16:26:52.209Z,,,,,,,,,,,,,,,,,,,,,,,,,,,,true,3,,529.343999964236,,response,,,,,,,,,3,,3,click #choice-3,,,,,I,O,S,,53524.89999997616,53521.59999996424,52975.59,52978.39999997616,52992.256,53525.903,,,
Trial,flow.Sequence,1_3_1,2022-05-09T16:26:52.209Z,,,,,,,,,,,,,,,,,,,,,,,,,,,,,,,4779.173999964238,,completion,,,,,,,,,3,,,,,,,,I,O,S,,53525.39999997616,53521.59999996424,48725.76,48741.30000001192,48742.426,53525.903,,,
Sounds,html.Screen,1_3_2_0,2022-05-09T16:26:56.447Z,,,,,,,,,,,,,,,,,,,,,,,,,,,,,,,4249.830000000002,,timeout,,,,,,,,,2,,,,,,,,I,S,O,,57763.19999998808,57759.067,53509.237,53525.59999996424,53525.903,57775.733,,,
Judgement,html.Screen,1_3_2_1,2022-05-09T16:26:57.111Z,,,,,,,,,,,,,,,,,,,,,,,,,,,,true,2,,648.666999976158,,response,,,,,,,,,2,,2,click #choice-2,,,,,I,S,O,,58427.59999996424,58424.39999997616,57759.067,57763.39999997616,57775.733,58442.373,,,
Trial,flow.Sequence,1_3_2,2022-05-09T16:26:57.112Z,,,,,,,,,,,,,,,,,,,,,,,,,,,,,,,4898.49699997616,,completion,,,,,,,,,2,,,,,,,,I,S,O,,58428.30000001192,58424.39999997616,53509.237,53525.59999996424,53525.903,58442.373,,,
Sounds,html.Screen,1_3_3_0,2022-05-09T16:27:01.361Z,,,,,,,,,,,,,,,,,,,,,,,,,,,,,,,4249.830000000002,,timeout,,,,,,,,,1,,,,,,,,S,I,O,,62677.59999996424,62675.537,58425.707,58428.39999997616,58442.373,62692.203,,,
Judgement,html.Screen,1_3_3_1,2022-05-09T16:27:01.903Z,,,,,,,,,,,,,,,,,,,,,,,,,,,,true,1,,524.2969999999987,,response,,,,,,,,,1,,1,click #choice-1,,,,,S,I,O,,63218.80000001192,63216.5,62675.537,62677.69999998808,62692.203,63225.515,,,
Trial,flow.Sequence,1_3_3,2022-05-09T16:27:01.903Z,,,,,,,,,,,,,,,,,,,,,,,,,,,,,,,4774.127,,completion,,,,,,,,,1,,,,,,,,S,I,O,,63219.19999998808,63216.5,58425.707,58428.39999997616,58442.373,63225.515,,,
Sounds,html.Screen,1_3_4_0,2022-05-09T16:27:06.146Z,,,,,,,,,,,,,,,,,,,,,,,,,,,,,,,4249.830000000002,,timeout,,,,,,,,,3,,,,,,,,O,I,S,,67461.89999997616,67458.679,63208.849,63219.39999997616,63225.515,67475.345,,,
Judgement,html.Screen,1_3_4_1,2022-05-09T16:27:06.718Z,,,,,,,,,,,,,,,,,,,,,,,,,,,,true,3,,556.754999964236,,response,,,,,,,,,3,,3,click #choice-3,,,,,O,I,S,,68034.39999997616,68032.09999996424,67458.679,67462.39999997616,67475.345,68042.322,,,
Trial,flow.Sequence,1_3_4,2022-05-09T16:27:06.718Z,,,,,,,,,,,,,,,,,,,,,,,,,,,,,,,4806.584999964238,,completion,,,,,,,,,3,,,,,,,,O,I,S,,68034.59999996424,68032.09999996424,63208.849,63219.30000001192,63225.515,68042.322,,,
Sounds,html.Screen,1_3_5_0,2022-05-09T16:27:10.962Z,,,,,,,,,,,,,,,,,,,,,,,,,,,,,,,4249.830000000002,,timeout,,,,,,,,,1,,,,,,,,S,O,I,,72278,72275.486,68025.656,68034.59999996424,68042.322,72292.152,,,
Judgement,html.Screen,1_3_5_1,2022-05-09T16:27:11.468Z,,,,,,,,,,,,,,,,,,,,,,,,,,,,true,1,,489.7479999761563,,response,,,,,,,,,1,,1,click #choice-1,,,,,S,O,I,,72784.59999996424,72781.89999997616,72275.486,72278.39999997616,72292.152,72792.132,,,
Trial,flow.Sequence,1_3_5,2022-05-09T16:27:11.469Z,,,,,,,,,,,,,,,,,,,,,,,,,,,,,,,4739.577999976158,,completion,,,,,,,,,1,,,,,,,,S,O,I,,72784.80000001192,72781.89999997616,68025.656,68034.59999996424,68042.322,72792.132,,,
Task,flow.Loop,1_3,2022-05-09T16:27:11.474Z,,,,,,,,,,,,,,,,,,,,,,,,,,,,,,,29556.32099997616,,completion,,,1,,,,,,,,,,,,,,,,,,72790.30000001192,72781.89999997616,43208.913,43218.19999998808,43225.579,72792.132,,,
Trap,html.Screen,1_4,2022-05-09T16:27:11.475Z,,,,,,,,,,,,,,,,,,,,,,,,,,,,,,,NaN,,skipped,,,,,,,,,,,,,,,,,,,,,72791.5,72781.89999997616,,72791.39999997616,,72792.132,,,
Thanks,html.Screen,1_5,2022-05-09T16:27:16.122Z,,,,,,,,,,,,,,,,,,,,,,,,,,,,,,,4643.567999988081,,response,,,,,,,,,,,continue,click button,,,,,,,,,77438.09999996424,77435.69999998808,72775.466,72791.59999996424,72792.132,80558.85,,,
Headphone screening,flow.Sequence,1,2022-05-09T16:27:16.122Z,,,,,,,,,,,,,,,,,,,,,,,,,,,,,,,70676.32899998808,,completion,,,,,,,,,,,,,,,,,,,,,77438.30000001192,77435.69999998808,6742.705,6749,6759.371,80558.85,,,
Instructions,html.Page,2_0,2022-05-09T16:27:42.721Z,,,,,,,,,,,,,,,,,,,,,,,,,,,,,,,23477.549999976152,,form submission,,,,,,,,,,,,,,,,,,,,,104037,104036.39999997616,80542.184,80558.89999997616,80558.85,104042.197,,,
Holding screen,html.Screen,2_1_0_0,2022-05-09T16:27:52.712Z,,,,,,,,,,,,,,,,,,,,,,,,,,,,,,,9999.600000000006,,timeout,,,,,,,,,,,,,,,,,,,,,114027.69999998808,114025.131,104025.531,104037.19999998808,104042.197,114041.797,,,
screen,html.Screen,2_1_0_1_0,2022-05-09T16:27:54.068Z,,,,,,,,,,,,,,,,,53,,,,,,,,,,,,,,1332.8029999642313,,response,,,,99,,,,,,,Space,keypress(Space),,,,,,,,When -- ----- -- ------ - ------- --- ----------<br>------------- ------ ------ ---- ---- ------- ----- -- ----<br>-------- ------- -- ---------- --- - --- ----- ----- ----<br>---- --- --- ----- --- ---- ---- ------- ----- ---- -------<br>--- --- -- ----- -- --- ---- -- --- ---- -- ------ ------<br>--- ----- -- ----,115382.89999997616,115374.59999996424,114025.131,114028.09999996424,114041.797,115391.743,,0,When
screen,html.Screen,2_1_0_1_1,2022-05-09T16:27:54.582Z,,,,,,,,,,,,,,,,,53,,,,,,,,,,,,,,499.95699998807686,,response,,,,99,,,,,,,Space,keypress(Space),,,,,,,,---- it ----- -- ------ - ------- --- ----------<br>------------- ------ ------ ---- ---- ------- ----- -- ----<br>-------- ------- -- ---------- --- - --- ----- ----- ----<br>---- --- --- ----- --- ---- ---- ------- ----- ---- -------<br>--- --- -- ----- -- --- ---- -- --- ---- -- ------ ------<br>--- ----- -- ----,115897.5,115891.69999998808,115375.077,115383.09999996424,115391.743,115908.767,,1,it
screen,html.Screen,2_1_0_1_2,2022-05-09T16:27:55.133Z,,,,,,,,,,,,,,,,,53,,,,,,,,,,,,,,533.8329999642301,,response,,,,99,,,,,,,Space,keypress(Space),,,,,,,,---- -- comes -- ------ - ------- --- ----------<br>------------- ------ ------ ---- ---- ------- ----- -- ----<br>-------- ------- -- ---------- --- - --- ----- ----- ----<br>---- --- --- ----- --- ---- ---- ------- ----- ---- -------<br>--- --- -- ----- -- --- ---- -- --- ---- -- ------ ------<br>--- ----- -- ----,116447.89999997616,116442.59999996424,115892.101,115897.69999998808,115908.767,116458.745,,2,comes
screen,html.Screen,2_1_0_1_3,2022-05-09T16:27:55.638Z,,,,,,,,,,,,,,,,,53,,,,,,,,,,,,,,489.25500000000466,,response,,,,99,,,,,,,Space,keypress(Space),,,,,,,,---- -- ----- to ------ - ------- --- ----------<br>------------- ------ ------ ---- ---- ------- ----- -- ----<br>-------- ------- -- ---------- --- - --- ----- ----- ----<br>---- --- --- ----- --- ---- ---- ------- ----- ---- -------<br>--- --- -- ----- -- --- ---- -- --- ---- -- ------ ------<br>--- ----- -- ----,116953.5,116948,116442.079,116448.09999996424,116458.745,116958.725,,3,to
screen,html.Screen,2_1_0_1_4,2022-05-09T16:27:56.169Z,,,,,,,,,,,,,,,,,53,,,,,,,,,,,,,,519.7749999999942,,response,,,,99,,,,,,,Space,keypress(Space),,,,,,,,---- -- ----- -- having - ------- --- ----------<br>------------- ------ ------ ---- ---- ------- ----- -- ----<br>-------- ------- -- ---------- --- - --- ----- ----- ----<br>---- --- --- ----- --- ---- ---- ------- ----- ---- -------<br>--- --- -- ----- -- --- ---- -- --- ---- -- ------ ------<br>--- ----- -- ----,117484.5,117478.5,116942.059,116954,116958.725,117492.037,,4,having
screen,html.Screen,2_1_0_1_5,2022-05-09T16:27:56.642Z,,,,,,,,,,,,,,,,,53,,,,,,,,,,,,,,458.8629999761615,,response,,,,99,,,,,,,Space,keypress(Space),,,,,,,,---- -- ----- -- ------ a ------- --- ----------<br>------------- ------ ------ ---- ---- ------- ----- -- ----<br>-------- ------- -- ---------- --- - --- ----- ----- ----<br>---- --- --- ----- --- ---- ---- ------- ----- ---- -------<br>--- --- -- ----- -- --- ---- -- --- ---- -- ------ ------<br>--- ----- -- ----,117956.89999997616,117950.89999997616,117475.371,117484.80000001192,117492.037,117958.685,,5,a
screen,html.Screen,2_1_0_1_6,2022-05-09T16:27:57.158Z,,,,,,,,,,,,,,,,,53,,,,,,,,,,,,,,508.11500001192326,,response,,,,99,,,,,,,Space,keypress(Space),,,,,,,,---- -- ----- -- ------ - lasting --- ----------<br>------------- ------ ------ ---- ---- ------- ----- -- ----<br>-------- ------- -- ---------- --- - --- ----- ----- ----<br>---- --- --- ----- --- ---- ---- ------- ----- ---- -------<br>--- --- -- ----- -- --- ---- -- --- ---- -- ------ ------<br>--- ----- -- ----,118472.80000001192,118466.80000001192,117942.019,117957.39999997616,117958.685,118475.331,,6,lasting
screen,html.Screen,2_1_0_1_7,2022-05-09T16:27:57.632Z,,,,,,,,,,,,,,,,,53,,,,,,,,,,,,,,465.8689999880735,,response,,,,99,,,,,,,Space,keypress(Space),,,,,,,,---- -- ----- -- ------ - ------- and ----------<br>------------- ------ ------ ---- ---- ------- ----- -- ----<br>-------- ------- -- ---------- --- - --- ----- ----- ----<br>---- --- --- ----- --- ---- ---- ------- ----- ---- -------<br>--- --- -- ----- -- --- ---- -- --- ---- -- ------ ------<br>--- ----- -- ----,118946.80000001192,118941.19999998808,118458.665,118473.09999996424,118475.331,118958.645,,7,and
screen,html.Screen,2_1_0_1_8,2022-05-09T16:27:58.215Z,,,,,,,,,,,,,,,,,53,,,,,,,,,,,,,,565.8549999999959,,response,,,,99,,,,,,,Space,keypress(Space),,,,,,,,---- -- ----- -- ------ - ------- --- fulfilling<br>------------- ------ ------ ---- ---- ------- ----- -- ----<br>-------- ------- -- ---------- --- - --- ----- ----- ----<br>---- --- --- ----- --- ---- ---- ------- ----- ---- -------<br>--- --- -- ----- -- --- ---- -- --- ---- -- ------ ------<br>--- ----- -- ----,119530.09999996424,119524.5,118941.979,118947.09999996424,118958.645,119541.955,,8,fulfilling
screen,html.Screen,2_1_0_1_9,2022-05-09T16:27:58.847Z,,,,,,,,,,,,,,,,,53,,,,,,,,,,,,,,613.5449999999983,,response,,,,99,,,,,,,Space,keypress(Space),,,,,,,,"---- -- ----- -- ------ - ------- --- ----------<br>relationship, ------ ------ ---- ---- ------- ----- -- ----<br>-------- ------- -- ---------- --- - --- ----- ----- ----<br>---- --- --- ----- --- ---- ---- ------- ----- ---- -------<br>--- --- -- ----- -- --- ---- -- --- ---- -- ------ ------<br>--- ----- -- ----",120162.09999996424,120155.5,119525.289,119530.39999997616,119541.955,120175.263,,9,"relationship,"
screen,html.Screen,2_1_0_1_10,2022-05-09T16:28:00.566Z,,,,,,,,,,,,,,,,,53,,,,,,,,,,,,,,1700.336999964231,,response,,,,99,,,,,,,Space,keypress(Space),,,,,,,,---- -- ----- -- ------ - ------- --- ----------<br>------------- common ------ ---- ---- ------- ----- -- ----<br>-------- ------- -- ---------- --- - --- ----- ----- ----<br>---- --- --- ----- --- ---- ---- ------- ----- ---- -------<br>--- --- -- ----- -- --- ---- -- --- ---- -- ------ ------<br>--- ----- -- ----,121881.09999996424,121875.59999996424,120158.597,120162.5,120175.263,121891.861,,10,common
screen,html.Screen,2_1_0_1_11,2022-05-09T16:28:01.073Z,,,,,,,,,,,,,,,,,53,,,,,,,,,,,,,,490.83899998807465,,response,,,,99,,,,,,,Space,keypress(Space),,,,,,,,---- -- ----- -- ------ - ------- --- ----------<br>------------- ------ wisdom ---- ---- ------- ----- -- ----<br>-------- ------- -- ---------- --- - --- ----- ----- ----<br>---- --- --- ----- --- ---- ---- ------- ----- ---- -------<br>--- --- -- ----- -- --- ---- -- --- ---- -- ------ ------<br>--- ----- -- ----,122388.19999998808,122382.69999998808,121875.195,121881.5,121891.861,122391.841,,11,wisdom
screen,html.Screen,2_1_0_1_12,2022-05-09T16:28:01.569Z,,,,,,,,,,,,,,,,,53,,,,,,,,,,,,,,486.0589999761578,,response,,,,99,,,,,,,Space,keypress(Space),,,,,,,,---- -- ----- -- ------ - ------- --- ----------<br>------------- ------ ------ says ---- ------- ----- -- ----<br>-------- ------- -- ---------- --- - --- ----- ----- ----<br>---- --- --- ----- --- ---- ---- ------- ----- ---- -------<br>--- --- -- ----- -- --- ---- -- --- ---- -- ------ ------<br>--- ----- -- ----,122884.09999996424,122877.89999997616,122375.175,122388.5,122391.841,122891.821,,12,says
screen,html.Screen,2_1_0_1_13,2022-05-09T16:28:02.039Z,,,,,,,,,,,,,,,,,53,,,,,,,,,,,,,,457.07899997616187,,response,,,,99,,,,,,,Space,keypress(Space),,,,,,,,---- -- ----- -- ------ - ------- --- ----------<br>------------- ------ ------ ---- that ------- ----- -- ----<br>-------- ------- -- ---------- --- - --- ----- ----- ----<br>---- --- --- ----- --- ---- ---- ------- ----- ---- -------<br>--- --- -- ----- -- --- ---- -- --- ---- -- ------ ------<br>--- ----- -- ----,123354.39999997616,123348.89999997616,122875.155,122884.39999997616,122891.821,123358.469,,13,that
screen,html.Screen,2_1_0_1_14,2022-05-09T16:28:02.512Z,,,,,,,,,,,,,,,,,53,,,,,,,,,,,,,,463.1309999642399,,response,,,,99,,,,,,,Space,keypress(Space),,,,,,,,---- -- ----- -- ------ - ------- --- ----------<br>------------- ------ ------ ---- ---- feeling ----- -- ----<br>-------- ------- -- ---------- --- - --- ----- ----- ----<br>---- --- --- ----- --- ---- ---- ------- ----- ---- -------<br>--- --- -- ----- -- --- ---- -- --- ---- -- ------ ------<br>--- ----- -- ----,123827.5,123821.59999996424,123341.803,123354.89999997616,123358.469,123841.783,,14,feeling
screen,html.Screen,2_1_0_1_15,2022-05-09T16:28:02.972Z,,,,,,,,,,,,,,,,,53,,,,,,,,,,,,,,441.0170000119251,,response,,,,99,,,,,,,Space,keypress(Space),,,,,,,,---- -- ----- -- ------ - ------- --- ----------<br>------------- ------ ------ ---- ---- ------- close -- ----<br>-------- ------- -- ---------- --- - --- ----- ----- ----<br>---- --- --- ----- --- ---- ---- ------- ----- ---- -------<br>--- --- -- ----- -- --- ---- -- --- ---- -- ------ ------<br>--- ----- -- ----,124287.19999998808,124282.80000001192,123825.117,123827.89999997616,123841.783,124291.765,,15,close
screen,html.Screen,2_1_0_1_16,2022-05-09T16:28:03.391Z,,,,,,,,,,,,,,,,,53,,,,,,,,,,,,,,409.2350000000006,,response,,,,99,,,,,,,Space,keypress(Space),,,,,,,,---- -- ----- -- ------ - ------- --- ----------<br>------------- ------ ------ ---- ---- ------- ----- to ----<br>-------- ------- -- ---------- --- - --- ----- ----- ----<br>---- --- --- ----- --- ---- ---- ------- ----- ---- -------<br>--- --- -- ----- -- --- ---- -- --- ---- -- ------ ------<br>--- ----- -- ----,124706.59999996424,124701,124275.099,124287.39999997616,124291.765,124708.415,,16,to
screen,html.Screen,2_1_0_1_17,2022-05-09T16:28:03.865Z,,,,,,,,,,,,,,,,,53,,,,,,,,,,,,,,465.0850000000064,,response,,,,99,,,,,,,Space,keypress(Space),,,,,,,,---- -- ----- -- ------ - ------- --- ----------<br>------------- ------ ------ ---- ---- ------- ----- -- your<br>-------- ------- -- ---------- --- - --- ----- ----- ----<br>---- --- --- ----- --- ---- ---- ------- ----- ---- -------<br>--- --- -- ----- -- --- ---- -- --- ---- -- ------ ------<br>--- ----- -- ----,125180,125173.5,124691.749,124707,124708.415,125192.11,,17,your
screen,html.Screen,2_1_0_1_18,2022-05-09T16:28:04.356Z,,,,,,,,,,,,,,,,,53,,,,,,,,,,,,,,475.8899999999994,,response,,,,99,,,,,,,Space,keypress(Space),,,,,,,,---- -- ----- -- ------ - ------- --- ----------<br>------------- ------ ------ ---- ---- ------- ----- -- ----<br>romantic ------- -- ---------- --- - --- ----- ----- ----<br>---- --- --- ----- --- ---- ---- ------- ----- ---- -------<br>--- --- -- ----- -- --- ---- -- --- ---- -- ------ ------<br>--- ----- -- ----,125671.19999998808,125668,125175.444,125180.30000001192,125192.11,125675.424,,18,romantic
screen,html.Screen,2_1_0_1_19,2022-05-09T16:28:04.777Z,,,,,,,,,,,,,,,,,53,,,,,,,,,,,,,,410.87600001192186,,response,,,,99,,,,,,,Space,keypress(Space),,,,,,,,---- -- ----- -- ------ - ------- --- ----------<br>------------- ------ ------ ---- ---- ------- ----- -- ----<br>-------- partner -- ---------- --- - --- ----- ----- ----<br>---- --- --- ----- --- ---- ---- ------- ----- ---- -------<br>--- --- -- ----- -- --- ---- -- --- ---- -- ------ ------<br>--- ----- -- ----,126092.19999998808,126086.30000001192,125658.758,125671.19999998808,125675.424,126108.74,,19,partner
screen,html.Screen,2_1_0_1_20,2022-05-09T16:28:05.237Z,,,,,,,,,,,,,,,,,53,,,,,,,,,,,,,,437.0600000119157,,response,,,,99,,,,,,,Space,keypress(Space),,,,,,,,---- -- ----- -- ------ - ------- --- ----------<br>------------- ------ ------ ---- ---- ------- ----- -- ----<br>-------- ------- is ---------- --- - --- ----- ----- ----<br>---- --- --- ----- --- ---- ---- ------- ----- ---- -------<br>--- --- -- ----- -- --- ---- -- --- ---- -- ------ ------<br>--- ----- -- ----,126551.69999998808,126545.80000001192,126092.074,126092.30000001192,126108.74,126558.722,,20,is
screen,html.Screen,2_1_0_1_21,2022-05-09T16:28:05.651Z,,,,,,,,,,,,,,,,,53,,,,,,,,,,,,,,402.07800001192663,,response,,,,99,,,,,,,Space,keypress(Space),,,,,,,,---- -- ----- -- ------ - ------- --- ----------<br>------------- ------ ------ ---- ---- ------- ----- -- ----<br>-------- ------- -- paramount. --- - --- ----- ----- ----<br>---- --- --- ----- --- ---- ---- ------- ----- ---- -------<br>--- --- -- ----- -- --- ---- -- --- ---- -- ------ ------<br>--- ----- -- ----,126966.19999998808,126960.80000001192,126542.056,126551.89999997616,126558.722,126975.372,,21,paramount.
screen,html.Screen,2_1_0_1_22,2022-05-09T16:28:06.497Z,,,,,,,,,,,,,,,,,53,,,,,,,,,,,,,,830.4280000119179,,response,,,,99,,,,,,,Space,keypress(Space),,,,,,,,---- -- ----- -- ------ - ------- --- ----------<br>------------- ------ ------ ---- ---- ------- ----- -- ----<br>-------- ------- -- ---------- But - --- ----- ----- ----<br>---- --- --- ----- --- ---- ---- ------- ----- ---- -------<br>--- --- -- ----- -- --- ---- -- --- ---- -- ------ ------<br>--- ----- -- ----,127811.80000001192,127805.80000001192,126958.706,126966.5,126975.372,127825.338,,22,But
screen,html.Screen,2_1_0_1_23,2022-05-09T16:28:06.913Z,,,,,,,,,,,,,,,,,53,,,,,,,,,,,,,,396.76199996423384,,response,,,,99,,,,,,,Space,keypress(Space),,,,,,,,---- -- ----- -- ------ - ------- --- ----------<br>------------- ------ ------ ---- ---- ------- ----- -- ----<br>-------- ------- -- ---------- --- a --- ----- ----- ----<br>---- --- --- ----- --- ---- ---- ------- ----- ---- -------<br>--- --- -- ----- -- --- ---- -- --- ---- -- ------ ------<br>--- ----- -- ----,128228,128222.09999996424,127808.672,127812,127825.338,128241.988,,23,a
screen,html.Screen,2_1_0_1_24,2022-05-09T16:28:07.327Z,,,,,,,,,,,,,,,,,53,,,,,,,,,,,,,,394.61199996423966,,response,,,,99,,,,,,,Space,keypress(Space),,,,,,,,---- -- ----- -- ------ - ------- --- ----------<br>------------- ------ ------ ---- ---- ------- ----- -- ----<br>-------- ------- -- ---------- --- - new ----- ----- ----<br>---- --- --- ----- --- ---- ---- ------- ----- ---- -------<br>--- --- -- ----- -- --- ---- -- --- ---- -- ------ ------<br>--- ----- -- ----,128642.19999998808,128636.59999996424,128225.322,128228.39999997616,128241.988,128658.638,,24,new
screen,html.Screen,2_1_0_1_25,2022-05-09T16:28:07.713Z,,,,,,,,,,,,,,,,,53,,,,,,,,,,,,,,361.4619999642309,,response,,,,99,,,,,,,Space,keypress(Space),,,,,,,,---- -- ----- -- ------ - ------- --- ----------<br>------------- ------ ------ ---- ---- ------- ----- -- ----<br>-------- ------- -- ---------- --- - --- study ----- ----<br>---- --- --- ----- --- ---- ---- ------- ----- ---- -------<br>--- --- -- ----- -- --- ---- -- --- ---- -- ------ ------<br>--- ----- -- ----,129028,129020.09999996424,128641.972,128642.69999998808,128658.638,129041.956,,25,study
screen,html.Screen,2_1_0_1_26,2022-05-09T16:28:08.083Z,,,,,,,,,,,,,,,,,53,,,,,,,,,,,,,,350.0439999999944,,response,,,,99,,,,,,,Space,keypress(Space),,,,,,,,---- -- ----- -- ------ - ------- --- ----------<br>------------- ------ ------ ---- ---- ------- ----- -- ----<br>-------- ------- -- ---------- --- - --- ----- finds ----<br>---- --- --- ----- --- ---- ---- ------- ----- ---- -------<br>--- --- -- ----- -- --- ---- -- --- ---- -- ------ ------<br>--- ----- -- ----,129397.89999997616,129392,129025.29,129028.19999998808,129041.956,129408.608,,26,finds
screen,html.Screen,2_1_0_1_27,2022-05-09T16:28:08.545Z,,,,,,,,,,,,,,,,,53,,,,,,,,,,,,,,446.0919999880862,,response,,,,99,,,,,,,Space,keypress(Space),,,,,,,,---- -- ----- -- ------ - ------- --- ----------<br>------------- ------ ------ ---- ---- ------- ----- -- ----<br>-------- ------- -- ---------- --- - --- ----- ----- that<br>---- --- --- ----- --- ---- ---- ------- ----- ---- -------<br>--- --- -- ----- -- --- ---- -- --- ---- -- ------ ------<br>--- ----- -- ----,129860,129854.69999998808,129391.942,129398.19999998808,129408.608,129875.256,,27,that
screen,html.Screen,2_1_0_1_28,2022-05-09T16:28:08.959Z,,,,,,,,,,,,,,,,,53,,,,,,,,,,,,,,392.544000011927,,response,,,,99,,,,,,,Space,keypress(Space),,,,,,,,---- -- ----- -- ------ - ------- --- ----------<br>------------- ------ ------ ---- ---- ------- ----- -- ----<br>-------- ------- -- ---------- --- - --- ----- ----- ----<br>it's --- --- ----- --- ---- ---- ------- ----- ---- -------<br>--- --- -- ----- -- --- ---- -- --- ---- -- ------ ------<br>--- ----- -- ----,130274.19999998808,130267.80000001192,129858.59,129860.19999998808,129875.256,130291.906,,28,it's
screen,html.Screen,2_1_0_1_29,2022-05-09T16:28:09.376Z,,,,,,,,,,,,,,,,,53,,,,,,,,,,,,,,393.49399997615546,,response,,,,99,,,,,,,Space,keypress(Space),,,,,,,,---- -- ----- -- ------ - ------- --- ----------<br>------------- ------ ------ ---- ---- ------- ----- -- ----<br>-------- ------- -- ---------- --- - --- ----- ----- ----<br>---- not --- ----- --- ---- ---- ------- ----- ---- -------<br>--- --- -- ----- -- --- ---- -- --- ---- -- ------ ------<br>--- ----- -- ----,130691.5,130685.39999997616,130275.24,130274.39999997616,130291.906,130708.556,,29,not
screen,html.Screen,2_1_0_1_30,2022-05-09T16:28:09.770Z,,,,,,,,,,,,,,,,,53,,,,,,,,,,,,,,370.8439999761613,,response,,,,99,,,,,,,Space,keypress(Space),,,,,,,,---- -- ----- -- ------ - ------- --- ----------<br>------------- ------ ------ ---- ---- ------- ----- -- ----<br>-------- ------- -- ---------- --- - --- ----- ----- ----<br>---- --- how ----- --- ---- ---- ------- ----- ---- -------<br>--- --- -- ----- -- --- ---- -- --- ---- -- ------ ------<br>--- ----- -- ----,131084.59999996424,131079.39999997616,130691.89,130691.80000001192,130708.556,131091.874,,30,how
screen,html.Screen,2_1_0_1_31,2022-05-09T16:28:10.142Z,,,,,,,,,,,,,,,,,53,,,,,,,,,,,,,,359.02599997614743,,response,,,,99,,,,,,,Space,keypress(Space),,,,,,,,---- -- ----- -- ------ - ------- --- ----------<br>------------- ------ ------ ---- ---- ------- ----- -- ----<br>-------- ------- -- ---------- --- - --- ----- ----- ----<br>---- --- --- close --- ---- ---- ------- ----- ---- -------<br>--- --- -- ----- -- --- ---- -- --- ---- -- ------ ------<br>--- ----- -- ----,131456.89999997616,131450.89999997616,131075.208,131085.09999996424,131091.874,131458.526,,31,close
screen,html.Screen,2_1_0_1_32,2022-05-09T16:28:10.522Z,,,,,,,,,,,,,,,,,53,,,,,,,,,,,,,,372.87399997614557,,response,,,,99,,,,,,,Space,keypress(Space),,,,,,,,---- -- ----- -- ------ - ------- --- ----------<br>------------- ------ ------ ---- ---- ------- ----- -- ----<br>-------- ------- -- ---------- --- - --- ----- ----- ----<br>---- --- --- ----- you ---- ---- ------- ----- ---- -------<br>--- --- -- ----- -- --- ---- -- --- ---- -- ------ ------<br>--- ----- -- ----,131837.5,131831.39999997616,131441.86,131457,131458.526,131841.844,,32,you
screen,html.Screen,2_1_0_1_33,2022-05-09T16:28:10.929Z,,,,,,,,,,,,,,,,,53,,,,,,,,,,,,,,396.25599996422534,,response,,,,99,,,,,,,Space,keypress(Space),,,,,,,,---- -- ----- -- ------ - ------- --- ----------<br>------------- ------ ------ ---- ---- ------- ----- -- ----<br>-------- ------- -- ---------- --- - --- ----- ----- ----<br>---- --- --- ----- --- feel ---- ------- ----- ---- -------<br>--- --- -- ----- -- --- ---- -- --- ---- -- ------ ------<br>--- ----- -- ----,132243.5,132238.09999996424,131825.178,131837.89999997616,131841.844,132258.494,,33,feel
screen,html.Screen,2_1_0_1_34,2022-05-09T16:28:11.323Z,,,,,,,,,,,,,,,,,53,,,,,,,,,,,,,,373.705999988073,,response,,,,99,,,,,,,Space,keypress(Space),,,,,,,,---- -- ----- -- ------ - ------- --- ----------<br>------------- ------ ------ ---- ---- ------- ----- -- ----<br>-------- ------- -- ---------- --- - --- ----- ----- ----<br>---- --- --- ----- --- ---- that ------- ----- ---- -------<br>--- --- -- ----- -- --- ---- -- --- ---- -- ------ ------<br>--- ----- -- ----,132638,132632.19999998808,132241.828,132243.89999997616,132258.494,132641.812,,34,that
screen,html.Screen,2_1_0_1_35,2022-05-09T16:28:11.705Z,,,,,,,,,,,,,,,,,53,,,,,,,,,,,,,,372.9880000119156,,response,,,,99,,,,,,,Space,keypress(Space),,,,,,,,---- -- ----- -- ------ - ------- --- ----------<br>------------- ------ ------ ---- ---- ------- ----- -- ----<br>-------- ------- -- ---------- --- - --- ----- ----- ----<br>---- --- --- ----- --- ---- ---- matters ----- ---- -------<br>--- --- -- ----- -- --- ---- -- --- ---- -- ------ ------<br>--- ----- -- ----,133020,133014.80000001192,132625.146,132638.30000001192,132641.812,133025.13,,35,matters
screen,html.Screen,2_1_0_1_36,2022-05-09T16:28:12.109Z,,,,,,,,,,,,,,,,,53,,,,,,,,,,,,,,392.7699999761535,,response,,,,99,,,,,,,Space,keypress(Space),,,,,,,,"---- -- ----- -- ------ - ------- --- ----------<br>------------- ------ ------ ---- ---- ------- ----- -- ----<br>-------- ------- -- ---------- --- - --- ----- ----- ----<br>---- --- --- ----- --- ---- ---- ------- most, ---- -------<br>--- --- -- ----- -- --- ---- -- --- ---- -- ------ ------<br>--- ----- -- ----",133424,133417.89999997616,133008.464,133020.19999998808,133025.13,133441.78,,36,"most,"
screen,html.Screen,2_1_0_1_37,2022-05-09T16:28:12.559Z,,,,,,,,,,,,,,,,,53,,,,,,,,,,,,,,426.1199999761593,,response,,,,99,,,,,,,Space,keypress(Space),,,,,,,,---- -- ----- -- ------ - ------- --- ----------<br>------------- ------ ------ ---- ---- ------- ----- -- ----<br>-------- ------- -- ---------- --- - --- ----- ----- ----<br>---- --- --- ----- --- ---- ---- ------- ----- it's -------<br>--- --- -- ----- -- --- ---- -- --- ---- -- ------ ------<br>--- ----- -- ----,133873.59999996424,133867.89999997616,133425.114,133424.30000001192,133441.78,133875.096,,37,it's
screen,html.Screen,2_1_0_1_38,2022-05-09T16:28:13.009Z,,,,,,,,,,,,,,,,,53,,,,,,,,,,,,,,442.8039999761677,,response,,,,99,,,,,,,Space,keypress(Space),,,,,,,,---- -- ----- -- ------ - ------- --- ----------<br>------------- ------ ------ ---- ---- ------- ----- -- ----<br>-------- ------- -- ---------- --- - --- ----- ----- ----<br>---- --- --- ----- --- ---- ---- ------- ----- ---- whether<br>--- --- -- ----- -- --- ---- -- --- ---- -- ------ ------<br>--- ----- -- ----,134323.80000001192,134317.89999997616,133858.43,133873.89999997616,133875.096,134341.744,,38,whether
screen,html.Screen,2_1_0_1_39,2022-05-09T16:28:13.404Z,,,,,,,,,,,,,,,,,53,,,,,,,,,,,,,,371.455999988073,,response,,,,99,,,,,,,Space,keypress(Space),,,,,,,,---- -- ----- -- ------ - ------- --- ----------<br>------------- ------ ------ ---- ---- ------- ----- -- ----<br>-------- ------- -- ---------- --- - --- ----- ----- ----<br>---- --- --- ----- --- ---- ---- ------- ----- ---- -------<br>you --- -- ----- -- --- ---- -- --- ---- -- ------ ------<br>--- ----- -- ----,134718.69999998808,134713.19999998808,134325.078,134325.09999996424,134341.744,134725.062,,39,you
screen,html.Screen,2_1_0_1_40,2022-05-09T16:28:13.774Z,,,,,,,,,,,,,,,,,53,,,,,,,,,,,,,,359.53799996423186,,response,,,,99,,,,,,,Space,keypress(Space),,,,,,,,---- -- ----- -- ------ - ------- --- ----------<br>------------- ------ ------ ---- ---- ------- ----- -- ----<br>-------- ------- -- ---------- --- - --- ----- ----- ----<br>---- --- --- ----- --- ---- ---- ------- ----- ---- -------<br>--- are -- ----- -- --- ---- -- --- ---- -- ------ ------<br>--- ----- -- ----,135089.39999997616,135084.59999996424,134708.396,134718.89999997616,134725.062,135092.166,,40,are
screen,html.Screen,2_1_0_1_41,2022-05-09T16:28:14.147Z,,,,,,,,,,,,,,,,,53,,,,,,,,,,,,,,363.6340000119235,,response,,,,99,,,,,,,Space,keypress(Space),,,,,,,,---- -- ----- -- ------ - ------- --- ----------<br>------------- ------ ------ ---- ---- ------- ----- -- ----<br>-------- ------- -- ---------- --- - --- ----- ----- ----<br>---- --- --- ----- --- ---- ---- ------- ----- ---- -------<br>--- --- as ----- -- --- ---- -- --- ---- -- ------ ------<br>--- ----- -- ----,135461.69999998808,135455.80000001192,135075.5,135089.69999998808,135092.166,135475.484,,41,as
screen,html.Screen,2_1_0_1_42,2022-05-09T16:28:14.561Z,,,,,,,,,,,,,,,,,53,,,,,,,,,,,,,,394.8160000119242,,response,,,,99,,,,,,,Space,keypress(Space),,,,,,,,---- -- ----- -- ------ - ------- --- ----------<br>------------- ------ ------ ---- ---- ------- ----- -- ----<br>-------- ------- -- ---------- --- - --- ----- ----- ----<br>---- --- --- ----- --- ---- ---- ------- ----- ---- -------<br>--- --- -- close -- --- ---- -- --- ---- -- ------ ------<br>--- ----- -- ----,135876.39999997616,135870.30000001192,135458.818,135462.19999998808,135475.484,135892.134,,42,close
screen,html.Screen,2_1_0_1_43,2022-05-09T16:28:14.967Z,,,,,,,,,,,,,,,,,53,,,,,,,,,,,,,,384.66600001193,,response,,,,99,,,,,,,Space,keypress(Space),,,,,,,,---- -- ----- -- ------ - ------- --- ----------<br>------------- ------ ------ ---- ---- ------- ----- -- ----<br>-------- ------- -- ---------- --- - --- ----- ----- ----<br>---- --- --- ----- --- ---- ---- ------- ----- ---- -------<br>--- --- -- ----- as --- ---- -- --- ---- -- ------ ------<br>--- ----- -- ----,136282.39999997616,136276.80000001192,135875.468,135876.69999998808,135892.134,136292.118,,43,as
screen,html.Screen,2_1_0_1_44,2022-05-09T16:28:15.385Z,,,,,,,,,,,,,,,,,53,,,,,,,,,,,,,,401.2819999761705,,response,,,,99,,,,,,,Space,keypress(Space),,,,,,,,---- -- ----- -- ------ - ------- --- ----------<br>------------- ------ ------ ---- ---- ------- ----- -- ----<br>-------- ------- -- ---------- --- - --- ----- ----- ----<br>---- --- --- ----- --- ---- ---- ------- ----- ---- -------<br>--- --- -- ----- -- you ---- -- --- ---- -- ------ ------<br>--- ----- -- ----,136700,136693.39999997616,136275.452,136282.69999998808,136292.118,136708.768,,44,you
screen,html.Screen,2_1_0_1_45,2022-05-09T16:28:15.777Z,,,,,,,,,,,,,,,,,53,,,,,,,,,,,,,,377.33199996422627,,response,,,,99,,,,,,,Space,keypress(Space),,,,,,,,---- -- ----- -- ------ - ------- --- ----------<br>------------- ------ ------ ---- ---- ------- ----- -- ----<br>-------- ------- -- ---------- --- - --- ----- ----- ----<br>---- --- --- ----- --- ---- ---- ------- ----- ---- -------<br>--- --- -- ----- -- --- want -- --- ---- -- ------ ------<br>--- ----- -- ----,137091.89999997616,137086.09999996424,136692.102,136700.19999998808,136708.768,137108.752,,45,want
screen,html.Screen,2_1_0_1_46,2022-05-09T16:28:16.182Z,,,,,,,,,,,,,,,,,53,,,,,,,,,,,,,,382.2479999999923,,response,,,,99,,,,,,,Space,keypress(Space),,,,,,,,---- -- ----- -- ------ - ------- --- ----------<br>------------- ------ ------ ---- ---- ------- ----- -- ----<br>-------- ------- -- ---------- --- - --- ----- ----- ----<br>---- --- --- ----- --- ---- ---- ------- ----- ---- -------<br>--- --- -- ----- -- --- ---- to --- ---- -- ------ ------<br>--- ----- -- ----,137497.30000001192,137491,137092.086,137092.09999996424,137108.752,137508.736,,46,to
screen,html.Screen,2_1_0_1_47,2022-05-09T16:28:16.588Z,,,,,,,,,,,,,,,,,53,,,,,,,,,,,,,,388.0640000119165,,response,,,,99,,,,,,,Space,keypress(Space),,,,,,,,"---- -- ----- -- ------ - ------- --- ----------<br>------------- ------ ------ ---- ---- ------- ----- -- ----<br>-------- ------- -- ---------- --- - --- ----- ----- ----<br>---- --- --- ----- --- ---- ---- ------- ----- ---- -------<br>--- --- -- ----- -- --- ---- -- be, ---- -- ------ ------<br>--- ----- -- ----",137902.59999996424,137896.80000001192,137492.07,137497.80000001192,137508.736,137908.72,,47,"be,"
screen,html.Screen,2_1_0_1_48,2022-05-09T16:28:16.980Z,,,,,,,,,,,,,,,,,53,,,,,,,,,,,,,,380.27999999999884,,response,,,,99,,,,,,,Space,keypress(Space),,,,,,,,---- -- ----- -- ------ - ------- --- ----------<br>------------- ------ ------ ---- ---- ------- ----- -- ----<br>-------- ------- -- ---------- --- - --- ----- ----- ----<br>---- --- --- ----- --- ---- ---- ------- ----- ---- -------<br>--- --- -- ----- -- --- ---- -- --- even -- ------ ------<br>--- ----- -- ----,138294.69999998808,138289,137892.054,137902.89999997616,137908.72,138308.704,,48,even
screen,html.Screen,2_1_0_1_49,2022-05-09T16:28:17.351Z,,,,,,,,,,,,,,,,,53,,,,,,,,,,,,,,351.596000011923,,response,,,,99,,,,,,,Space,keypress(Space),,,,,,,,---- -- ----- -- ------ - ------- --- ----------<br>------------- ------ ------ ---- ---- ------- ----- -- ----<br>-------- ------- -- ---------- --- - --- ----- ----- ----<br>---- --- --- ----- --- ---- ---- ------- ----- ---- -------<br>--- --- -- ----- -- --- ---- -- --- ---- if ------ ------<br>--- ----- -- ----,138665.89999997616,138660.30000001192,138292.038,138295.30000001192,138308.704,138675.356,,49,if
screen,html.Screen,2_1_0_1_50,2022-05-09T16:28:17.745Z,,,,,,,,,,,,,,,,,53,,,,,,,,,,,,,,378.64400000000023,,response,,,,99,,,,,,,Space,keypress(Space),,,,,,,,---- -- ----- -- ------ - ------- --- ----------<br>------------- ------ ------ ---- ---- ------- ----- -- ----<br>-------- ------- -- ---------- --- - --- ----- ----- ----<br>---- --- --- ----- --- ---- ---- ------- ----- ---- -------<br>--- --- -- ----- -- --- ---- -- --- ---- -- that's ------<br>--- ----- -- ----,139060.09999996424,139054,138658.69,138666.39999997616,138675.356,139075.34,,50,that's
screen,html.Screen,2_1_0_1_51,2022-05-09T16:28:18.252Z,,,,,,,,,,,,,,,,,53,,,,,,,,,,,,,,486.05999997616163,,response,,,,99,,,,,,,Space,keypress(Space),,,,,,,,---- -- ----- -- ------ - ------- --- ----------<br>------------- ------ ------ ---- ---- ------- ----- -- ----<br>-------- ------- -- ---------- --- - --- ----- ----- ----<br>---- --- --- ----- --- ---- ---- ------- ----- ---- -------<br>--- --- -- ----- -- --- ---- -- --- ---- -- ------ really<br>--- ----- -- ----,139567.30000001192,139561.39999997616,139058.674,139060.39999997616,139075.34,139575.32,,51,really
screen,html.Screen,2_1_0_1_52,2022-05-09T16:28:18.713Z,,,,,,,,,,,,,,,,,53,,,,,,,,,,,,,,447.98000001191394,,response,,,,99,,,,,,,Space,keypress(Space),,,,,,,,---- -- ----- -- ------ - ------- --- ----------<br>------------- ------ ------ ---- ---- ------- ----- -- ----<br>-------- ------- -- ---------- --- - --- ----- ----- ----<br>---- --- --- ----- --- ---- ---- ------- ----- ---- -------<br>--- --- -- ----- -- --- ---- -- --- ---- -- ------ ------<br>not ----- -- ----,140028.09999996424,140023.30000001192,139558.654,139567.59999996424,139575.32,140041.968,,52,not
screen,html.Screen,2_1_0_1_53,2022-05-09T16:28:19.095Z,,,,,,,,,,,,,,,,,53,,,,,,,,,,,,,,362.33200001192745,,response,,,,99,,,,,,,Space,keypress(Space),,,,,,,,---- -- ----- -- ------ - ------- --- ----------<br>------------- ------ ------ ---- ---- ------- ----- -- ----<br>-------- ------- -- ---------- --- - --- ----- ----- ----<br>---- --- --- ----- --- ---- ---- ------- ----- ---- -------<br>--- --- -- ----- -- --- ---- -- --- ---- -- ------ ------<br>--- close -- ----,140409.89999997616,140404.30000001192,140025.302,140028.30000001192,140041.968,140425.286,,53,close
screen,html.Screen,2_1_0_1_54,2022-05-09T16:28:19.549Z,,,,,,,,,,,,,,,,,53,,,,,,,,,,,,,,432.2140000000072,,response,,,,99,,,,,,,Space,keypress(Space),,,,,,,,---- -- ----- -- ------ - ------- --- ----------<br>------------- ------ ------ ---- ---- ------- ----- -- ----<br>-------- ------- -- ---------- --- - --- ----- ----- ----<br>---- --- --- ----- --- ---- ---- ------- ----- ---- -------<br>--- --- -- ----- -- --- ---- -- --- ---- -- ------ ------<br>--- ----- at ----,140863.69999998808,140857.5,140408.62,140410.09999996424,140425.286,140875.268,,54,at
screen,html.Screen,2_1_0_1_55,2022-05-09T16:28:20.209Z,,,,,,,,,,,,,,,,,53,,,,,,,,,,,,,,642.6319999761472,,response,,,,99,,,,,,,Space,keypress(Space),,,,,,,,---- -- ----- -- ------ - ------- --- ----------<br>------------- ------ ------ ---- ---- ------- ----- -- ----<br>-------- ------- -- ---------- --- - --- ----- ----- ----<br>---- --- --- ----- --- ---- ---- ------- ----- ---- -------<br>--- --- -- ----- -- --- ---- -- --- ---- -- ------ ------<br>--- ----- -- all.,141523.89999997616,141517.89999997616,140858.602,140864.09999996424,140875.268,141541.908,,55,all.
Item 99,flow.Loop,2_1_0_1,2022-05-09T16:28:20.209Z,,,,,,,,,,,,,,,,,,,,,,,,,,,,,,,27476.102999976152,,completion,,,,,G,,,,,,,,,,,silence,,,,,141524.39999997616,141517.89999997616,114025.131,114027.89999997616,114041.797,141541.908,,,
Question 1,html.Screen,2_1_0_2,2022-05-09T16:28:28.002Z,,,,,,,,,,,,,,,,,,,,,,,,,,,,false,FALSE,,7772.791999988083,,response,,,,99,G,,,,,,TRUE,click #choice-1,,,,silence,,,,,149317.09999996424,149314.69999998808,141525.242,141524.5,141541.908,149325.143,,,
Question 2,html.Screen,2_1_0_3,2022-05-09T16:28:41.422Z,,,,,,,,,,,,,,,,,,,,,,,,,,,,false,TRUE,,13409.056999988068,,response,,,,99,G,,,,,,FALSE,click #choice-2,,,,silence,,,,,162736.89999997616,162734.19999998808,149308.477,149317.30000001192,149325.143,162741.646,,,
Item 99,flow.Sequence,2_1_0,2022-05-09T16:28:41.423Z,,,,,,,,,,,,,,,,,,,,,,,,,,,,,,,58692.00299998808,,completion,,,,,,,,,,,,,,,,,,,,,162737.30000001192,162734.19999998808,104025.531,104037.19999998808,104042.197,162741.646,,,
Holding screen,html.Screen,2_1_1_0,2022-05-09T16:28:51.413Z,,,,,,,,,,,,,,,,,,,,,,,,,,,,,,,9999.963999999978,,timeout,,,,,,,,,,,,,,,,,,,,,172727,172724.944,162724.98,162737.39999997616,162741.646,172741.61,,,
screen,html.Screen,2_1_1_1_0,2022-05-09T16:28:53.623Z,,,,,,,,,,,,,,,,,54,,,,,,,,,,,,,,2189.789999976172,,response,,,,100,,,,,,,Space,keypress(Space),,,,,,,,At --- ---- --- ------ ----- ------- ---- -- --- ------- --<br>------- ---------- ------ -- ----- -- ----- -- ---- ------<br>--- ----- --- --- ------ -------- ----- --- ------ ----- --<br>----- ----- ---------- --- --- ------ ------ ---- -- ------<br>------- --- ------ ----- --- ---- ------- -- ---- --- --<br>------- ------,174937,174931.39999997616,172724.944,172727.59999996424,172741.61,174941.522,,0,At
screen,html.Screen,2_1_1_1_1,2022-05-09T16:28:54.287Z,,,,,,,,,,,,,,,,,54,,,,,,,,,,,,,,653.7780000119237,,response,,,,100,,,,,,,Space,keypress(Space),,,,,,,,-- the ---- --- ------ ----- ------- ---- -- --- ------- --<br>------- ---------- ------ -- ----- -- ----- -- ---- ------<br>--- ----- --- --- ------ -------- ----- --- ------ ----- --<br>----- ----- ---------- --- --- ------ ------ ---- -- ------<br>------- --- ------ ----- --- ---- ------- -- ---- --- --<br>------- ------,175601.19999998808,175595.30000001192,174924.856,174937.19999998808,174941.522,175608.162,,1,the
screen,html.Screen,2_1_1_1_2,2022-05-09T16:28:54.715Z,,,,,,,,,,,,,,,,,54,,,,,,,,,,,,,,414.23799997614697,,response,,,,100,,,,,,,Space,keypress(Space),,,,,,,,-- --- time --- ------ ----- ------- ---- -- --- ------- --<br>------- ---------- ------ -- ----- -- ----- -- ---- ------<br>--- ----- --- --- ------ -------- ----- --- ------ ----- --<br>----- ----- ---------- --- --- ------ ------ ---- -- ------<br>------- --- ------ ----- --- ---- ------- -- ---- --- --<br>------- ------,176029.5,176022.39999997616,175591.496,175601.39999997616,175608.162,176041.478,,2,time
screen,html.Screen,2_1_1_1_3,2022-05-09T16:28:55.051Z,,,,,,,,,,,,,,,,,54,,,,,,,,,,,,,,318.6219999642344,,response,,,,100,,,,,,,Space,keypress(Space),,,,,,,,-- --- ---- the ------ ----- ------- ---- -- --- ------- --<br>------- ---------- ------ -- ----- -- ----- -- ---- ------<br>--- ----- --- --- ------ -------- ----- --- ------ ----- --<br>----- ----- ---------- --- --- ------ ------ ---- -- ------<br>------- --- ------ ----- --- ---- ------- -- ---- --- --<br>------- ------,176365.80000001192,176360.09999996424,176024.812,176029.69999998808,176041.478,176374.798,,3,the
screen,html.Screen,2_1_1_1_4,2022-05-09T16:28:55.423Z,,,,,,,,,,,,,,,,,54,,,,,,,,,,,,,,356.2019999999902,,response,,,,100,,,,,,,Space,keypress(Space),,,,,,,,-- --- ---- --- French ----- ------- ---- -- --- ------- --<br>------- ---------- ------ -- ----- -- ----- -- ---- ------<br>--- ----- --- --- ------ -------- ----- --- ------ ----- --<br>----- ----- ---------- --- --- ------ ------ ---- -- ------<br>------- --- ------ ----- --- ---- ------- -- ---- --- --<br>------- ------,176737.19999998808,176731,176358.132,176366,176374.798,176741.792,,4,French
screen,html.Screen,2_1_1_1_5,2022-05-09T16:28:55.827Z,,,,,,,,,,,,,,,,,54,,,,,,,,,,,,,,394.1079999761714,,response,,,,100,,,,,,,Space,keypress(Space),,,,,,,,-- --- ---- --- ------ crown ------- ---- -- --- ------- --<br>------- ---------- ------ -- ----- -- ----- -- ---- ------<br>--- ----- --- --- ------ -------- ----- --- ------ ----- --<br>----- ----- ---------- --- --- ------ ------ ---- -- ------<br>------- --- ------ ----- --- ---- ------- -- ---- --- --<br>------- ------,177141.59999996424,177135.89999997616,176725.126,176737.69999998808,176741.792,177158.442,,5,crown
screen,html.Screen,2_1_1_1_6,2022-05-09T16:28:56.233Z,,,,,,,,,,,,,,,,,54,,,,,,,,,,,,,,383.05799999999,,response,,,,100,,,,,,,Space,keypress(Space),,,,,,,,-- --- ---- --- ------ ----- secured ---- -- --- ------- --<br>------- ---------- ------ -- ----- -- ----- -- ---- ------<br>--- ----- --- --- ------ -------- ----- --- ------ ----- --<br>----- ----- ---------- --- --- ------ ------ ---- -- ------<br>------- --- ------ ----- --- ---- ------- -- ---- --- --<br>------- ------,177547,177541.5,177141.776,177142,177158.442,177558.426,,6,secured
screen,html.Screen,2_1_1_1_7,2022-05-09T16:28:56.638Z,,,,,,,,,,,,,,,,,54,,,,,,,,,,,,,,387.8740000119142,,response,,,,100,,,,,,,Space,keypress(Space),,,,,,,,-- --- ---- --- ------ ----- ------- much -- --- ------- --<br>------- ---------- ------ -- ----- -- ----- -- ---- ------<br>--- ----- --- --- ------ -------- ----- --- ------ ----- --<br>----- ----- ---------- --- --- ------ ------ ---- -- ------<br>------- --- ------ ----- --- ---- ------- -- ---- --- --<br>------- ------,177952,177946.30000001192,177541.76,177547.19999998808,177558.426,177958.41,,7,much
screen,html.Screen,2_1_1_1_8,2022-05-09T16:28:57.076Z,,,,,,,,,,,,,,,,,54,,,,,,,,,,,,,,426.6899999642337,,response,,,,100,,,,,,,Space,keypress(Space),,,,,,,,-- --- ---- --- ------ ----- ------- ---- of --- ------- --<br>------- ---------- ------ -- ----- -- ----- -- ---- ------<br>--- ----- --- --- ------ -------- ----- --- ------ ----- --<br>----- ----- ---------- --- --- ------ ------ ---- -- ------<br>------- --- ------ ----- --- ---- ------- -- ---- --- --<br>------- ------,178390.5,178385.09999996424,177941.744,177952.39999997616,177958.41,178408.392,,8,of
screen,html.Screen,2_1_1_1_9,2022-05-09T16:28:57.492Z,,,,,,,,,,,,,,,,,54,,,,,,,,,,,,,,391.5079999761656,,response,,,,100,,,,,,,Space,keypress(Space),,,,,,,,-- --- ---- --- ------ ----- ------- ---- -- its ------- --<br>------- ---------- ------ -- ----- -- ----- -- ---- ------<br>--- ----- --- --- ------ -------- ----- --- ------ ----- --<br>----- ----- ---------- --- --- ------ ------ ---- -- ------<br>------- --- ------ ----- --- ---- ------- -- ---- --- --<br>------- ------,178806.30000001192,178799.89999997616,178391.726,178390.89999997616,178408.392,178808.376,,9,its
screen,html.Screen,2_1_1_1_10,2022-05-09T16:28:57.919Z,,,,,,,,,,,,,,,,,54,,,,,,,,,,,,,,419.02399997616885,,response,,,,100,,,,,,,Space,keypress(Space),,,,,,,,-- --- ---- --- ------ ----- ------- ---- -- --- revenue --<br>------- ---------- ------ -- ----- -- ----- -- ---- ------<br>--- ----- --- --- ------ -------- ----- --- ------ ----- --<br>----- ----- ---------- --- --- ------ ------ ---- -- ------<br>------- --- ------ ----- --- ---- ------- -- ---- --- --<br>------- ------,179233.09999996424,179227.39999997616,178791.71,178806.5,178808.376,179241.692,,10,revenue
screen,html.Screen,2_1_1_1_11,2022-05-09T16:28:58.471Z,,,,,,,,,,,,,,,,,54,,,,,,,,,,,,,,537.5079999880691,,response,,,,100,,,,,,,Space,keypress(Space),,,,,,,,-- --- ---- --- ------ ----- ------- ---- -- --- ------- by<br>------- ---------- ------ -- ----- -- ----- -- ---- ------<br>--- ----- --- --- ------ -------- ----- --- ------ ----- --<br>----- ----- ---------- --- --- ------ ------ ---- -- ------<br>------- --- ------ ----- --- ---- ------- -- ---- --- --<br>------- ------,179785,179779.19999998808,179225.026,179233.39999997616,179241.692,179791.67,,11,by
screen,html.Screen,2_1_1_1_12,2022-05-09T16:28:59.293Z,,,,,,,,,,,,,,,,,54,,,,,,,,,,,,,,809.9299999642244,,response,,,,100,,,,,,,Space,keypress(Space),,,,,,,,-- --- ---- --- ------ ----- ------- ---- -- --- ------- --<br>issuing ---------- ------ -- ----- -- ----- -- ---- ------<br>--- ----- --- --- ------ -------- ----- --- ------ ----- --<br>----- ----- ---------- --- --- ------ ------ ---- -- ------<br>------- --- ------ ----- --- ---- ------- -- ---- --- --<br>------- ------,180607.59999996424,180601.59999996424,179775.004,179785.19999998808,179791.67,180624.97,,12,issuing
screen,html.Screen,2_1_1_1_13,2022-05-09T16:28:59.820Z,,,,,,,,,,,,,,,,,54,,,,,,,,,,,,,,503.52999999999884,,response,,,,100,,,,,,,Space,keypress(Space),,,,,,,,-- --- ---- --- ------ ----- ------- ---- -- --- ------- --<br>------- government ------ -- ----- -- ----- -- ---- ------<br>--- ----- --- --- ------ -------- ----- --- ------ ----- --<br>----- ----- ---------- --- --- ------ ------ ---- -- ------<br>------- --- ------ ----- --- ---- ------- -- ---- --- --<br>------- ------,181134.39999997616,181128.5,180608.304,180608,180624.97,181141.616,,13,government
screen,html.Screen,2_1_1_1_14,2022-05-09T16:29:00.259Z,,,,,,,,,,,,,,,,,54,,,,,,,,,,,,,,425.68400001191185,,response,,,,100,,,,,,,Space,keypress(Space),,,,,,,,-- --- ---- --- ------ ----- ------- ---- -- --- ------- --<br>------- ---------- bonds. -- ----- -- ----- -- ---- ------<br>--- ----- --- --- ------ -------- ----- --- ------ ----- --<br>----- ----- ---------- --- --- ------ ------ ---- -- ------<br>------- --- ------ ----- --- ---- ------- -- ---- --- --<br>------- ------,181573.30000001192,181567.30000001192,181124.95,181134.69999998808,181141.616,181574.932,,14,bonds.
screen,html.Screen,2_1_1_1_15,2022-05-09T16:29:00.743Z,,,,,,,,,,,,,,,,,54,,,,,,,,,,,,,,476.1679999642365,,response,,,,100,,,,,,,Space,keypress(Space),,,,,,,,-- --- ---- --- ------ ----- ------- ---- -- --- ------- --<br>------- ---------- ------ In ----- -- ----- -- ---- ------<br>--- ----- --- --- ------ -------- ----- --- ------ ----- --<br>----- ----- ---------- --- --- ------ ------ ---- -- ------<br>------- --- ------ ----- --- ---- ------- -- ---- --- --<br>------- ------,182056.89999997616,182051.09999996424,181558.266,181573.5,181574.932,182058.246,,15,In
screen,html.Screen,2_1_1_1_16,2022-05-09T16:29:01.171Z,,,,,,,,,,,,,,,,,54,,,,,,,,,,,,,,421.45399998806533,,response,,,,100,,,,,,,Space,keypress(Space),,,,,,,,"-- --- ---- --- ------ ----- ------- ---- -- --- ------- --<br>------- ---------- ------ -- 1727, -- ----- -- ---- ------<br>--- ----- --- --- ------ -------- ----- --- ------ ----- --<br>----- ----- ---------- --- --- ------ ------ ---- -- ------<br>------- --- ------ ----- --- ---- ------- -- ---- --- --<br>------- ------",182485.5,182479.69999998808,182041.58,182057.19999998808,182058.246,182491.562,,16,"1727,"
screen,html.Screen,2_1_1_1_17,2022-05-09T16:29:01.979Z,,,,,,,,,,,,,,,,,54,,,,,,,,,,,,,,796.9379999999946,,response,,,,100,,,,,,,Space,keypress(Space),,,,,,,,-- --- ---- --- ------ ----- ------- ---- -- --- ------- --<br>------- ---------- ------ -- ----- in ----- -- ---- ------<br>--- ----- --- --- ------ -------- ----- --- ------ ----- --<br>----- ----- ---------- --- --- ------ ------ ---- -- ------<br>------- --- ------ ----- --- ---- ------- -- ---- --- --<br>------- ------,183293.39999997616,183288.5,182474.896,182485.80000001192,182491.562,183308.196,,17,in
screen,html.Screen,2_1_1_1_18,2022-05-09T16:29:03.071Z,,,,,,,,,,,,,,,,,54,,,,,,,,,,,,,,1071.5039999880828,,response,,,,100,,,,,,,Space,keypress(Space),,,,,,,,-- --- ---- --- ------ ----- ------- ---- -- --- ------- --<br>------- ---------- ------ -- ----- -- order -- ---- ------<br>--- ----- --- --- ------ -------- ----- --- ------ ----- --<br>----- ----- ---------- --- --- ------ ------ ---- -- ------<br>------- --- ------ ----- --- ---- ------- -- ---- --- --<br>------- ------,184385.5,184379.69999998808,183291.53,183293.59999996424,183308.196,184391.486,,18,order
screen,html.Screen,2_1_1_1_19,2022-05-09T16:29:03.444Z,,,,,,,,,,,,,,,,,54,,,,,,,,,,,,,,361.3140000119165,,response,,,,100,,,,,,,Space,keypress(Space),,,,,,,,-- --- ---- --- ------ ----- ------- ---- -- --- ------- --<br>------- ---------- ------ -- ----- -- ----- to ---- ------<br>--- ----- --- --- ------ -------- ----- --- ------ ----- --<br>----- ----- ---------- --- --- ------ ------ ---- -- ------<br>------- --- ------ ----- --- ---- ------- -- ---- --- --<br>------- ------,184758.5,184752.80000001192,184374.82,184385.69999998808,184391.486,184774.804,,19,to
screen,html.Screen,2_1_1_1_20,2022-05-09T16:29:03.792Z,,,,,,,,,,,,,,,,,54,,,,,,,,,,,,,,324.89599998807535,,response,,,,100,,,,,,,Space,keypress(Space),,,,,,,,-- --- ---- --- ------ ----- ------- ---- -- --- ------- --<br>------- ---------- ------ -- ----- -- ----- -- save ------<br>--- ----- --- --- ------ -------- ----- --- ------ ----- --<br>----- ----- ---------- --- --- ------ ------ ---- -- ------<br>------- --- ------ ----- --- ---- ------- -- ---- --- --<br>------- ------,185105.80000001192,185099.69999998808,184758.138,184758.89999997616,184774.804,185108.124,,20,save
screen,html.Screen,2_1_1_1_21,2022-05-09T16:29:04.152Z,,,,,,,,,,,,,,,,,54,,,,,,,,,,,,,,351.6760000119102,,response,,,,100,,,,,,,Space,keypress(Space),,,,,,,,"-- --- ---- --- ------ ----- ------- ---- -- --- ------- --<br>------- ---------- ------ -- ----- -- ----- -- ---- money,<br>--- ----- --- --- ------ -------- ----- --- ------ ----- --<br>----- ----- ---------- --- --- ------ ------ ---- -- ------<br>------- --- ------ ----- --- ---- ------- -- ---- --- --<br>------- ------",185465.59999996424,185459.80000001192,185091.458,185105.89999997616,185108.124,185474.776,,21,"money,"
screen,html.Screen,2_1_1_1_22,2022-05-09T16:29:04.604Z,,,,,,,,,,,,,,,,,54,,,,,,,,,,,,,,437.52400001190836,,response,,,,100,,,,,,,Space,keypress(Space),,,,,,,,-- --- ---- --- ------ ----- ------- ---- -- --- ------- --<br>------- ---------- ------ -- ----- -- ----- -- ---- ------<br>the ----- --- --- ------ -------- ----- --- ------ ----- --<br>----- ----- ---------- --- --- ------ ------ ---- -- ------<br>------- --- ------ ----- --- ---- ------- -- ---- --- --<br>------- ------,185918.09999996424,185912.30000001192,185458.11,185466,185474.776,185924.758,,22,the
screen,html.Screen,2_1_1_1_23,2022-05-09T16:29:04.961Z,,,,,,,,,,,,,,,,,54,,,,,,,,,,,,,,344.94199998807744,,response,,,,100,,,,,,,Space,keypress(Space),,,,,,,,-- --- ---- --- ------ ----- ------- ---- -- --- ------- --<br>------- ---------- ------ -- ----- -- ----- -- ---- ------<br>--- state --- --- ------ -------- ----- --- ------ ----- --<br>----- ----- ---------- --- --- ------ ------ ---- -- ------<br>------- --- ------ ----- --- ---- ------- -- ---- --- --<br>------- ------,186275.5,186269.69999998808,185908.092,185918.19999998808,185924.758,186291.41,,23,state
screen,html.Screen,2_1_1_1_24,2022-05-09T16:29:05.379Z,,,,,,,,,,,,,,,,,54,,,,,,,,,,,,,,396.2899999880756,,response,,,,100,,,,,,,Space,keypress(Space),,,,,,,,-- --- ---- --- ------ ----- ------- ---- -- --- ------- --<br>------- ---------- ------ -- ----- -- ----- -- ---- ------<br>--- ----- cut --- ------ -------- ----- --- ------ ----- --<br>----- ----- ---------- --- --- ------ ------ ---- -- ------<br>------- --- ------ ----- --- ---- ------- -- ---- --- --<br>------- ------,186693.30000001192,186687.69999998808,186274.744,186276,186291.41,186708.06,,24,cut
screen,html.Screen,2_1_1_1_25,2022-05-09T16:29:05.807Z,,,,,,,,,,,,,,,,,54,,,,,,,,,,,,,,407.1399999880814,,response,,,,100,,,,,,,Space,keypress(Space),,,,,,,,-- --- ---- --- ------ ----- ------- ---- -- --- ------- --<br>------- ---------- ------ -- ----- -- ----- -- ---- ------<br>--- ----- --- the ------ -------- ----- --- ------ ----- --<br>----- ----- ---------- --- --- ------ ------ ---- -- ------<br>------- --- ------ ----- --- ---- ------- -- ---- --- --<br>------- ------,187121,187115.19999998808,186691.394,186693.5,186708.06,187125.061,,25,the
screen,html.Screen,2_1_1_1_26,2022-05-09T16:29:06.122Z,,,,,,,,,,,,,,,,,54,,,,,,,,,,,,,,304.53899996425025,,response,,,,100,,,,,,,Space,keypress(Space),,,,,,,,-- --- ---- --- ------ ----- ------- ---- -- --- ------- --<br>------- ---------- ------ -- ----- -- ----- -- ---- ------<br>--- ----- --- --- bonds' -------- ----- --- ------ ----- --<br>----- ----- ---------- --- --- ------ ------ ---- -- ------<br>------- --- ------ ----- --- ---- ------- -- ---- --- --<br>------- ------,187435.59999996424,187429.59999996424,187108.395,187121.39999997616,187125.061,187441.715,,26,bonds'
screen,html.Screen,2_1_1_1_27,2022-05-09T16:29:06.416Z,,,,,,,,,,,,,,,,,54,,,,,,,,,,,,,,281.8849999642407,,response,,,,100,,,,,,,Space,keypress(Space),,,,,,,,-- --- ---- --- ------ ----- ------- ---- -- --- ------- --<br>------- ---------- ------ -- ----- -- ----- -- ---- ------<br>--- ----- --- --- ------ interest ----- --- ------ ----- --<br>----- ----- ---------- --- --- ------ ------ ---- -- ------<br>------- --- ------ ----- --- ---- ------- -- ---- --- --<br>------- ------,187730,187723.59999996424,187425.049,187435.89999997616,187441.715,187741.703,,27,interest
screen,html.Screen,2_1_1_1_28,2022-05-09T16:29:06.930Z,,,,,,,,,,,,,,,,,54,,,,,,,,,,,,,,496.8969999642286,,response,,,,100,,,,,,,Space,keypress(Space),,,,,,,,-- --- ---- --- ------ ----- ------- ---- -- --- ------- --<br>------- ---------- ------ -- ----- -- ----- -- ---- ------<br>--- ----- --- --- ------ -------- rate. --- ------ ----- --<br>----- ----- ---------- --- --- ------ ------ ---- -- ------<br>------- --- ------ ----- --- ---- ------- -- ---- --- --<br>------- ------,188244.09999996424,188238.59999996424,187725.037,187730.39999997616,187741.703,188258.349,,28,rate.
screen,html.Screen,2_1_1_1_29,2022-05-09T16:29:07.325Z,,,,,,,,,,,,,,,,,54,,,,,,,,,,,,,,375.4510000119335,,response,,,,100,,,,,,,Space,keypress(Space),,,,,,,,-- --- ---- --- ------ ----- ------- ---- -- --- ------- --<br>------- ---------- ------ -- ----- -- ----- -- ---- ------<br>--- ----- --- --- ------ -------- ----- The ------ ----- --<br>----- ----- ---------- --- --- ------ ------ ---- -- ------<br>------- --- ------ ----- --- ---- ------- -- ---- --- --<br>------- ------,188639.5,188633.80000001192,188241.683,188244.39999997616,188258.349,188641.667,,29,The
screen,html.Screen,2_1_1_1_30,2022-05-09T16:29:07.819Z,,,,,,,,,,,,,,,,,54,,,,,,,,,,,,,,485.53299998809234,,response,,,,100,,,,,,,Space,keypress(Space),,,,,,,,-- --- ---- --- ------ ----- ------- ---- -- --- ------- --<br>------- ---------- ------ -- ----- -- ----- -- ---- ------<br>--- ----- --- --- ------ -------- ----- --- market ----- --<br>----- ----- ---------- --- --- ------ ------ ---- -- ------<br>------- --- ------ ----- --- ---- ------- -- ---- --- --<br>------- ------,189133.19999998808,189127.19999998808,188625.001,188639.59999996424,188641.667,189141.647,,30,market
screen,html.Screen,2_1_1_1_31,2022-05-09T16:29:08.316Z,,,,,,,,,,,,,,,,,54,,,,,,,,,,,,,,482.1530000119237,,response,,,,100,,,,,,,Space,keypress(Space),,,,,,,,-- --- ---- --- ------ ----- ------- ---- -- --- ------- --<br>------- ---------- ------ -- ----- -- ----- -- ---- ------<br>--- ----- --- --- ------ -------- ----- --- ------ value --<br>----- ----- ---------- --- --- ------ ------ ---- -- ------<br>------- --- ------ ----- --- ---- ------- -- ---- --- --<br>------- ------,189629.89999997616,189623.80000001192,189124.981,189133.5,189141.647,189641.627,,31,value
screen,html.Screen,2_1_1_1_32,2022-05-09T16:29:08.732Z,,,,,,,,,,,,,,,,,54,,,,,,,,,,,,,,398.5729999880714,,response,,,,100,,,,,,,Space,keypress(Space),,,,,,,,-- --- ---- --- ------ ----- ------- ---- -- --- ------- --<br>------- ---------- ------ -- ----- -- ----- -- ---- ------<br>--- ----- --- --- ------ -------- ----- --- ------ ----- of<br>----- ----- ---------- --- --- ------ ------ ---- -- ------<br>------- --- ------ ----- --- ---- ------- -- ---- --- --<br>------- ------,190045.89999997616,190040.19999998808,189624.961,189630.19999998808,189641.627,190058.277,,32,of
screen,html.Screen,2_1_1_1_33,2022-05-09T16:29:09.125Z,,,,,,,,,,,,,,,,,54,,,,,,,,,,,,,,375.6229999761563,,response,,,,100,,,,,,,Space,keypress(Space),,,,,,,,-- --- ---- --- ------ ----- ------- ---- -- --- ------- --<br>------- ---------- ------ -- ----- -- ----- -- ---- ------<br>--- ----- --- --- ------ -------- ----- --- ------ ----- --<br>these ----- ---------- --- --- ------ ------ ---- -- ------<br>------- --- ------ ----- --- ---- ------- -- ---- --- --<br>------- ------,190439.39999997616,190433.89999997616,190041.611,190046.19999998808,190058.277,190441.595,,33,these
screen,html.Screen,2_1_1_1_34,2022-05-09T16:29:09.450Z,,,,,,,,,,,,,,,,,54,,,,,,,,,,,,,,316.90499999999884,,response,,,,100,,,,,,,Space,keypress(Space),,,,,,,,-- --- ---- --- ------ ----- ------- ---- -- --- ------- --<br>------- ---------- ------ -- ----- -- ----- -- ---- ------<br>--- ----- --- --- ------ -------- ----- --- ------ ----- --<br>----- bonds ---------- --- --- ------ ------ ---- -- ------<br>------- --- ------ ----- --- ---- ------- -- ---- --- --<br>------- ------,190763.80000001192,190758.5,190424.929,190439.69999998808,190441.595,190774.915,,34,bonds
screen,html.Screen,2_1_1_1_35,2022-05-09T16:29:09.834Z,,,,,,,,,,,,,,,,,54,,,,,,,,,,,,,,368.18499996422906,,response,,,,100,,,,,,,Space,keypress(Space),,,,,,,,"-- --- ---- --- ------ ----- ------- ---- -- --- ------- --<br>------- ---------- ------ -- ----- -- ----- -- ---- ------<br>--- ----- --- --- ------ -------- ----- --- ------ ----- --<br>----- ----- plummeted, --- --- ------ ------ ---- -- ------<br>------- --- ------ ----- --- ---- ------- -- ---- --- --<br>------- ------",191148.39999997616,191143.09999996424,190758.249,190764.09999996424,190774.915,191158.233,,35,"plummeted,"
screen,html.Screen,2_1_1_1_36,2022-05-09T16:29:10.296Z,,,,,,,,,,,,,,,,,54,,,,,,,,,,,,,,446.0670000119135,,response,,,,100,,,,,,,Space,keypress(Space),,,,,,,,-- --- ---- --- ------ ----- ------- ---- -- --- ------- --<br>------- ---------- ------ -- ----- -- ----- -- ---- ------<br>--- ----- --- --- ------ -------- ----- --- ------ ----- --<br>----- ----- ---------- and --- ------ ------ ---- -- ------<br>------- --- ------ ----- --- ---- ------- -- ---- --- --<br>------- ------,191609.80000001192,191604.30000001192,191141.567,191148.59999996424,191158.233,191624.881,,36,and
screen,html.Screen,2_1_1_1_37,2022-05-09T16:29:10.643Z,,,,,,,,,,,,,,,,,54,,,,,,,,,,,,,,326.11900000000605,,response,,,,100,,,,,,,Space,keypress(Space),,,,,,,,-- --- ---- --- ------ ----- ------- ---- -- --- ------- --<br>------- ---------- ------ -- ----- -- ----- -- ---- ------<br>--- ----- --- --- ------ -------- ----- --- ------ ----- --<br>----- ----- ---------- --- the ------ ------ ---- -- ------<br>------- --- ------ ----- --- ---- ------- -- ---- --- --<br>------- ------,191957.39999997616,191951,191608.215,191610,191624.881,191958.201,,37,the
screen,html.Screen,2_1_1_1_38,2022-05-09T16:29:10.959Z,,,,,,,,,,,,,,,,,54,,,,,,,,,,,,,,309.3989999642363,,response,,,,100,,,,,,,Space,keypress(Space),,,,,,,,-- --- ---- --- ------ ----- ------- ---- -- --- ------- --<br>------- ---------- ------ -- ----- -- ----- -- ---- ------<br>--- ----- --- --- ------ -------- ----- --- ------ ----- --<br>----- ----- ---------- --- --- market ------ ---- -- ------<br>------- --- ------ ----- --- ---- ------- -- ---- --- --<br>------- ------,192273.5,192267.59999996424,191941.535,191957.59999996424,191958.201,192274.855,,38,market
screen,html.Screen,2_1_1_1_39,2022-05-09T16:29:11.318Z,,,,,,,,,,,,,,,,,54,,,,,,,,,,,,,,352.04499997614766,,response,,,,100,,,,,,,Space,keypress(Space),,,,,,,,-- --- ---- --- ------ ----- ------- ---- -- --- ------- --<br>------- ---------- ------ -- ----- -- ----- -- ---- ------<br>--- ----- --- --- ------ -------- ----- --- ------ ----- --<br>----- ----- ---------- --- --- ------ became ---- -- ------<br>------- --- ------ ----- --- ---- ------- -- ---- --- --<br>------- ------,192632.5,192626.89999997616,192258.189,192273.80000001192,192274.855,192641.507,,39,became
screen,html.Screen,2_1_1_1_40,2022-05-09T16:29:11.679Z,,,,,,,,,,,,,,,,,54,,,,,,,,,,,,,,346.0929999642249,,response,,,,100,,,,,,,Space,keypress(Space),,,,,,,,-- --- ---- --- ------ ----- ------- ---- -- --- ------- --<br>------- ---------- ------ -- ----- -- ----- -- ---- ------<br>--- ----- --- --- ------ -------- ----- --- ------ ----- --<br>----- ----- ---------- --- --- ------ ------ wary -- ------<br>------- --- ------ ----- --- ---- ------- -- ---- --- --<br>------- ------,192993.39999997616,192987.59999996424,192624.841,192632.59999996424,192641.507,193008.159,,40,wary
screen,html.Screen,2_1_1_1_41,2022-05-09T16:29:12.028Z,,,,,,,,,,,,,,,,,54,,,,,,,,,,,,,,328.1410000119067,,response,,,,100,,,,,,,Space,keypress(Space),,,,,,,,-- --- ---- --- ------ ----- ------- ---- -- --- ------- --<br>------- ---------- ------ -- ----- -- ----- -- ---- ------<br>--- ----- --- --- ------ -------- ----- --- ------ ----- --<br>----- ----- ---------- --- --- ------ ------ ---- of ------<br>------- --- ------ ----- --- ---- ------- -- ---- --- --<br>------- ------,193341.89999997616,193336.30000001192,192991.493,192993.59999996424,193008.159,193358.145,,41,of
screen,html.Screen,2_1_1_1_42,2022-05-09T16:29:12.343Z,,,,,,,,,,,,,,,,,54,,,,,,,,,,,,,,293.1550000119314,,response,,,,100,,,,,,,Space,keypress(Space),,,,,,,,-- --- ---- --- ------ ----- ------- ---- -- --- ------- --<br>------- ---------- ------ -- ----- -- ----- -- ---- ------<br>--- ----- --- --- ------ -------- ----- --- ------ ----- --<br>----- ----- ---------- --- --- ------ ------ ---- -- French<br>------- --- ------ ----- --- ---- ------- -- ---- --- --<br>------- ------,193656.89999997616,193651.30000001192,193341.479,193342.19999998808,193358.145,193658.133,,42,French
screen,html.Screen,2_1_1_1_43,2022-05-09T16:29:12.724Z,,,,,,,,,,,,,,,,,54,,,,,,,,,,,,,,374.2669999761565,,response,,,,100,,,,,,,Space,keypress(Space),,,,,,,,-- --- ---- --- ------ ----- ------- ---- -- --- ------- --<br>------- ---------- ------ -- ----- -- ----- -- ---- ------<br>--- ----- --- --- ------ -------- ----- --- ------ ----- --<br>----- ----- ---------- --- --- ------ ------ ---- -- ------<br>credit. --- ------ ----- --- ---- ------- -- ---- --- --<br>------- ------,194037.89999997616,194032.39999997616,193641.467,193657.09999996424,193658.133,194041.451,,43,credit.
screen,html.Screen,2_1_1_1_44,2022-05-09T16:29:13.107Z,,,,,,,,,,,,,,,,,54,,,,,,,,,,,,,,373.4489999761572,,response,,,,100,,,,,,,Space,keypress(Space),,,,,,,,-- --- ---- --- ------ ----- ------- ---- -- --- ------- --<br>------- ---------- ------ -- ----- -- ----- -- ---- ------<br>--- ----- --- --- ------ -------- ----- --- ------ ----- --<br>----- ----- ---------- --- --- ------ ------ ---- -- ------<br>------- The ------ ----- --- ---- ------- -- ---- --- --<br>------- ------,194420.5,194414.89999997616,194024.785,194038.09999996424,194041.451,194424.769,,44,The
screen,html.Screen,2_1_1_1_45,2022-05-09T16:29:13.421Z,,,,,,,,,,,,,,,,,54,,,,,,,,,,,,,,304.73099999999977,,response,,,,100,,,,,,,Space,keypress(Space),,,,,,,,-- --- ---- --- ------ ----- ------- ---- -- --- ------- --<br>------- ---------- ------ -- ----- -- ----- -- ---- ------<br>--- ----- --- --- ------ -------- ----- --- ------ ----- --<br>----- ----- ---------- --- --- ------ ------ ---- -- ------<br>------- --- French ----- --- ---- ------- -- ---- --- --<br>------- ------,194735.39999997616,194729.5,194408.103,194420.89999997616,194424.769,194741.423,,45,French
screen,html.Screen,2_1_1_1_46,2022-05-09T16:29:13.782Z,,,,,,,,,,,,,,,,,54,,,,,,,,,,,,,,348.17699996422743,,response,,,,100,,,,,,,Space,keypress(Space),,,,,,,,-- --- ---- --- ------ ----- ------- ---- -- --- ------- --<br>------- ---------- ------ -- ----- -- ----- -- ---- ------<br>--- ----- --- --- ------ -------- ----- --- ------ ----- --<br>----- ----- ---------- --- --- ------ ------ ---- -- ------<br>------- --- ------ state --- ---- ------- -- ---- --- --<br>------- ------,195095.69999998808,195089.59999996424,194724.757,194735.80000001192,194741.423,195108.075,,46,state
screen,html.Screen,2_1_1_1_47,2022-05-09T16:29:14.470Z,,,,,,,,,,,,,,,,,54,,,,,,,,,,,,,,669.2250000119093,,response,,,,100,,,,,,,Space,keypress(Space),,,,,,,,-- --- ---- --- ------ ----- ------- ---- -- --- ------- --<br>------- ---------- ------ -- ----- -- ----- -- ---- ------<br>--- ----- --- --- ------ -------- ----- --- ------ ----- --<br>----- ----- ---------- --- --- ------ ------ ---- -- ------<br>------- --- ------ ----- was ---- ------- -- ---- --- --<br>------- ------,195783.59999996424,195777.30000001192,195091.409,195095.89999997616,195108.075,195791.381,,47,was
screen,html.Screen,2_1_1_1_48,2022-05-09T16:29:14.873Z,,,,,,,,,,,,,,,,,54,,,,,,,,,,,,,,389.71899996424327,,response,,,,100,,,,,,,Space,keypress(Space),,,,,,,,-- --- ---- --- ------ ----- ------- ---- -- --- ------- --<br>------- ---------- ------ -- ----- -- ----- -- ---- ------<br>--- ----- --- --- ------ -------- ----- --- ------ ----- --<br>----- ----- ---------- --- --- ------ ------ ---- -- ------<br>------- --- ------ ----- --- left ------- -- ---- --- --<br>------- ------,196186.69999998808,196181.09999996424,195774.715,195783.89999997616,195791.381,196191.365,,48,left
screen,html.Screen,2_1_1_1_49,2022-05-09T16:29:15.279Z,,,,,,,,,,,,,,,,,54,,,,,,,,,,,,,,396.3349999880884,,response,,,,100,,,,,,,Space,keypress(Space),,,,,,,,-- --- ---- --- ------ ----- ------- ---- -- --- ------- --<br>------- ---------- ------ -- ----- -- ----- -- ---- ------<br>--- ----- --- --- ------ -------- ----- --- ------ ----- --<br>----- ----- ---------- --- --- ------ ------ ---- -- ------<br>------- --- ------ ----- --- ---- without -- ---- --- --<br>------- ------,196593.30000001192,196587.69999998808,196174.699,196187.09999996424,196191.365,196608.015,,49,without
screen,html.Screen,2_1_1_1_50,2022-05-09T16:29:15.605Z,,,,,,,,,,,,,,,,,54,,,,,,,,,,,,,,305.48499999998603,,response,,,,100,,,,,,,Space,keypress(Space),,,,,,,,-- --- ---- --- ------ ----- ------- ---- -- --- ------- --<br>------- ---------- ------ -- ----- -- ----- -- ---- ------<br>--- ----- --- --- ------ -------- ----- --- ------ ----- --<br>----- ----- ---------- --- --- ------ ------ ---- -- ------<br>------- --- ------ ----- --- ---- ------- an ---- --- --<br>------- ------,196919,196913.5,196591.349,196593.5,196608.015,196924.669,,50,an
screen,html.Screen,2_1_1_1_51,2022-05-09T16:29:15.943Z,,,,,,,,,,,,,,,,,54,,,,,,,,,,,,,,326.53099998808466,,response,,,,100,,,,,,,Space,keypress(Space),,,,,,,,-- --- ---- --- ------ ----- ------- ---- -- --- ------- --<br>------- ---------- ------ -- ----- -- ----- -- ---- ------<br>--- ----- --- --- ------ -------- ----- --- ------ ----- --<br>----- ----- ---------- --- --- ------ ------ ---- -- ------<br>------- --- ------ ----- --- ---- ------- -- easy --- --<br>------- ------,197256.69999998808,197251.19999998808,196908.003,196919.30000001192,196924.669,197258.273,,51,easy
screen,html.Screen,2_1_1_1_52,2022-05-09T16:29:16.327Z,,,,,,,,,,,,,,,,,54,,,,,,,,,,,,,,376.8269999642507,,response,,,,100,,,,,,,Space,keypress(Space),,,,,,,,-- --- ---- --- ------ ----- ------- ---- -- --- ------- --<br>------- ---------- ------ -- ----- -- ----- -- ---- ------<br>--- ----- --- --- ------ -------- ----- --- ------ ----- --<br>----- ----- ---------- --- --- ------ ------ ---- -- ------<br>------- --- ------ ----- --- ---- ------- -- ---- way --<br>------- ------,197640.5,197635.09999996424,197241.607,197256.89999997616,197258.273,197641.591,,52,way
screen,html.Screen,2_1_1_1_53,2022-05-09T16:29:17.011Z,,,,,,,,,,,,,,,,,54,,,,,,,,,,,,,,677.8089999761723,,response,,,,100,,,,,,,Space,keypress(Space),,,,,,,,-- --- ---- --- ------ ----- ------- ---- -- --- ------- --<br>------- ---------- ------ -- ----- -- ----- -- ---- ------<br>--- ----- --- --- ------ -------- ----- --- ------ ----- --<br>----- ----- ---------- --- --- ------ ------ ---- -- ------<br>------- --- ------ ----- --- ---- ------- -- ---- --- of<br>------- ------,198325,198319.39999997616,197624.925,197640.80000001192,197641.591,198341.563,,53,of
screen,html.Screen,2_1_1_1_54,2022-05-09T16:29:17.449Z,,,,,,,,,,,,,,,,,54,,,,,,,,,,,,,,415.7370000119263,,response,,,,100,,,,,,,Space,keypress(Space),,,,,,,,-- --- ---- --- ------ ----- ------- ---- -- --- ------- --<br>------- ---------- ------ -- ----- -- ----- -- ---- ------<br>--- ----- --- --- ------ -------- ----- --- ------ ----- --<br>----- ----- ---------- --- --- ------ ------ ---- -- ------<br>------- --- ------ ----- --- ---- ------- -- ---- --- --<br>raising ------,198762.89999997616,198757.30000001192,198324.897,198325.19999998808,198341.563,198774.879,,54,raising
screen,html.Screen,2_1_1_1_55,2022-05-09T16:29:17.968Z,,,,,,,,,,,,,,,,,54,,,,,,,,,,,,,,501.3209999880928,,response,,,,100,,,,,,,Space,keypress(Space),,,,,,,,-- --- ---- --- ------ ----- ------- ---- -- --- ------- --<br>------- ---------- ------ -- ----- -- ----- -- ---- ------<br>--- ----- --- --- ------ -------- ----- --- ------ ----- --<br>----- ----- ---------- --- --- ------ ------ ---- -- ------<br>------- --- ------ ----- --- ---- ------- -- ---- --- --<br>------- money.,199282.09999996424,199276.19999998808,198758.213,198763.19999998808,198774.879,199291.525,,55,money.
Item 100,flow.Loop,2_1_1_1,2022-05-09T16:29:17.969Z,,,,,,,,,,,,,,,,,,,,,,,,,,,,,,,26534.589999988093,,completion,,,,,G,,,,,,,,,,,silence,,,,,199282.59999996424,199276.19999998808,172724.944,172727.39999997616,172741.61,199291.525,,,
Question 1,html.Screen,2_1_1_2,2022-05-09T16:29:22.476Z,,,,,,,,,,,,,,,,,,,,,,,,,,,,false,TRUE,,4495.275000011927,,response,,,,100,G,,,,,,FALSE,click #choice-2,,,,silence,,,,,203789.59999996424,203786.80000001192,199274.859,199282.69999998808,199291.525,203791.345,,,
Question 2,html.Screen,2_1_1_3,2022-05-09T16:29:24.648Z,,,,,,,,,,,,,,,,,,,,,,,,,,,,true,FALSE,,2166.654999999999,,response,,,,100,G,,,,,,FALSE,click #choice-2,,,,silence,,,,,205961.39999997616,205958,203774.679,203789.80000001192,203791.345,205974.591,,,
Item 100,flow.Sequence,2_1_1,2022-05-09T16:29:24.648Z,,,,,,,,,,,,,,,,,,,,,,,,,,,,,,,43216.35399999999,,completion,,,,,,,,,,,,,,,,,,,,,205962,205958,162724.98,162737.39999997616,162741.646,205974.591,,,
End of Practice,html.Page,2_1_2,2022-05-09T16:29:32.770Z,,,,,,,,,,,,,,,,,,,,,,,,,,,,,,,8109.008999964251,,form submission,,,,,,,,,,,,,,,,,,,,,214084,214083.59999996424,205957.925,205962.09999996424,205974.591,214091.634,,,
Practice,flow.Sequence,2_1,2022-05-09T16:29:32.771Z,,,,,,,,,,,,,,,,,,,,,,,,,,,,,,,110041.40299996424,,completion,,,,,,,,,,,,,,,,,,,,,214084.30000001192,214083.59999996424,104025.531,104037.09999996424,104042.197,214091.634,,,
Trap_instruction,html.Page,2_2_0,2022-05-09T16:29:37.393Z,,,,,,,,,,,,,,,,,,,,,,,,,,,,,,,4614.66600001193,,form submission,,,,,,,,,,,,,,,,,,,,,218706.80000001192,218706.30000001192,214074.968,214084.5,214091.634,218708.116,,,
trap_trial,html.Screen,2_2_1,2022-05-09T16:29:42.239Z,,,,,,,,,,,,,,,,,,,,,,,,,,,,true,1,,4841.684000011912,,response,,,,,,,,,,,1,click #choice-1,,,,,,,,,223552.39999997616,223549.80000001192,218691.45,218706.89999997616,218708.116,223557.922,,,
end of trap trial,html.Page,2_2_2,2022-05-09T16:29:44.118Z,,,,,,,,,,,,,,,,,,,,,,,,,,,,,,,1873.2779999880877,,form submission,,,,,,,,,,,,,,,,,,,,,225431.59999996424,225431.19999998808,223541.256,223552.69999998808,223557.922,225441.18,,,
Trap 1,flow.Sequence,2_2,2022-05-09T16:29:44.118Z,,,,,,,,,,,,,,,,,,,,,,,,,,,,,,,11339.565999988088,,completion,,,,,,,,,,,,,,,,,,,,,225431.89999997616,225431.19999998808,214074.968,214084.39999997616,214091.634,225441.18,,,
Standby,html.Page,2_3_0,2022-05-09T16:29:52.115Z,,,,,,,,,,,,,,,,,,,,,,,,,,,,,,,8000.08600000001,,timeout,,,,,,,,,,,,,,,,,,,,,233427.69999998808,233424.6,225424.514,225433.09999996424,225441.18,233441.266,,,
Holding screen,html.Screen,2_3_1_0_0,2022-05-09T16:29:59.115Z,,,,,,,,,,,,,,,,,,,,,,,,,,,,,,,7000.070999999996,,timeout,,,,,,,,,,,,,,,,,,,,,240427.89999997616,240424.671,233424.6,233428.19999998808,233441.266,240441.337,,,
screen,html.Screen,2_3_1_0_1_0,2022-05-09T16:30:00.169Z,,,,,,,,,,,,,,,,,2,,,,,,,,,,,,,,1033.5629999761586,,response,,,,1,G,,,,,,Space,keypress(Space),,,,instrumental,,,,Two ---- ------ --- ------- ---------- ------- ----------<br>--- --------- --- ----------- ------- ----- ------- ---<br>--------- ---- -- --- ---- -- --------- -- ---- -------<br>-- --------- ------ --- ----- ------ ---- --- --------- --<br>------ - ---- -- --- ----------- ------- ---- ----- -----<br>--- -------- - ------ ---- -- ----- ---- --- --- -----------<br>-- -------,241481.69999998808,241474.89999997616,240424.671,240428.5,240441.337,241491.295,,0,Two
screen,html.Screen,2_3_1_0_1_1,2022-05-09T16:30:00.571Z,,,,,,,,,,,,,,,,,2,,,,,,,,,,,,,,386.7049999999872,,response,,,,1,G,,,,,,Space,keypress(Space),,,,instrumental,,,,--- days ------ --- ------- ---------- ------- ----------<br>--- --------- --- ----------- ------- ----- ------- ---<br>--------- ---- -- --- ---- -- --------- -- ---- -------<br>-- --------- ------ --- ----- ------ ---- --- --------- --<br>------ - ---- -- --- ----------- ------- ---- ----- -----<br>--- -------- - ------ ---- -- ----- ---- --- --- -----------<br>-- -------,241883.89999997616,241878,241474.629,241481.89999997616,241491.295,241891.279,,1,days
screen,html.Screen,2_3_1_0_1_2,2022-05-09T16:30:01.009Z,,,,,,,,,,,,,,,,,2,,,,,,,,,,,,,,426.32099996422767,,response,,,,1,G,,,,,,Space,keypress(Space),,,,instrumental,,,,"--- ---- later, --- ------- ---------- ------- ----------<br>--- --------- --- ----------- ------- ----- ------- ---<br>--------- ---- -- --- ---- -- --------- -- ---- -------<br>-- --------- ------ --- ----- ------ ---- --- --------- --<br>------ - ---- -- --- ----------- ------- ---- ----- -----<br>--- -------- - ------ ---- -- ----- ---- --- --- -----------<br>-- -------",242322.09999996424,242317.59999996424,241874.613,241884,241891.279,242324.595,,2,"later,"
screen,html.Screen,2_3_1_0_1_3,2022-05-09T16:30:01.505Z,,,,,,,,,,,,,,,,,2,,,,,,,,,,,,,,487.20500001191976,,response,,,,1,G,,,,,,Space,keypress(Space),,,,instrumental,,,,--- ---- ------ the ------- ---------- ------- ----------<br>--- --------- --- ----------- ------- ----- ------- ---<br>--------- ---- -- --- ---- -- --------- -- ---- -------<br>-- --------- ------ --- ----- ------ ---- --- --------- --<br>------ - ---- -- --- ----------- ------- ---- ----- -----<br>--- -------- - ------ ---- -- ----- ---- --- --- -----------<br>-- -------,242817.69999998808,242811.80000001192,242307.929,242322.19999998808,242324.595,242824.575,,3,the
screen,html.Screen,2_3_1_0_1_4,2022-05-09T16:30:01.920Z,,,,,,,,,,,,,,,,,2,,,,,,,,,,,,,,403.2250000119093,,response,,,,1,G,,,,,,Space,keypress(Space),,,,instrumental,,,,--- ---- ------ --- British ---------- ------- ----------<br>--- --------- --- ----------- ------- ----- ------- ---<br>--------- ---- -- --- ---- -- --------- -- ---- -------<br>-- --------- ------ --- ----- ------ ---- --- --------- --<br>------ - ---- -- --- ----------- ------- ---- ----- -----<br>--- -------- - ------ ---- -- ----- ---- --- --- -----------<br>-- -------,243233.30000001192,243227.80000001192,242807.909,242817.89999997616,242824.575,243241.225,,4,British
screen,html.Screen,2_3_1_0_1_5,2022-05-09T16:30:02.337Z,,,,,,,,,,,,,,,,,2,,,,,,,,,,,,,,404.1749999761523,,response,,,,1,G,,,,,,Space,keypress(Space),,,,instrumental,,,,--- ---- ------ --- ------- astronomer ------- ----------<br>--- --------- --- ----------- ------- ----- ------- ---<br>--------- ---- -- --- ---- -- --------- -- ---- -------<br>-- --------- ------ --- ----- ------ ---- --- --------- --<br>------ - ---- -- --- ----------- ------- ---- ----- -----<br>--- -------- - ------ ---- -- ----- ---- --- --- -----------<br>-- -------,243649.89999997616,243645.39999997616,243224.559,243233.59999996424,243241.225,243657.875,,5,astronomer
screen,html.Screen,2_3_1_0_1_6,2022-05-09T16:30:02.866Z,,,,,,,,,,,,,,,,,2,,,,,,,,,,,,,,516.3249999880791,,response,,,,1,G,,,,,,Space,keypress(Space),,,,instrumental,,,,--- ---- ------ --- ------- ---------- Richard ----------<br>--- --------- --- ----------- ------- ----- ------- ---<br>--------- ---- -- --- ---- -- --------- -- ---- -------<br>-- --------- ------ --- ----- ------ ---- --- --------- --<br>------ - ---- -- --- ----------- ------- ---- ----- -----<br>--- -------- - ------ ---- -- ----- ---- --- --- -----------<br>-- -------,244179.39999997616,244174.19999998808,243641.209,243650.09999996424,243657.875,244191.187,,6,Richard
screen,html.Screen,2_3_1_0_1_7,2022-05-09T16:30:03.283Z,,,,,,,,,,,,,,,,,2,,,,,,,,,,,,,,397.91299996423186,,response,,,,1,G,,,,,,Space,keypress(Space),,,,instrumental,,,,--- ---- ------ --- ------- ---------- ------- Carrington<br>--- --------- --- ----------- ------- ----- ------- ---<br>--------- ---- -- --- ---- -- --------- -- ---- -------<br>-- --------- ------ --- ----- ------ ---- --- --------- --<br>------ - ---- -- --- ----------- ------- ---- ----- -----<br>--- -------- - ------ ---- -- ----- ---- --- --- -----------<br>-- -------,244595.80000001192,244589.09999996424,244174.521,244179.59999996424,244191.187,244607.837,,7,Carrington
screen,html.Screen,2_3_1_0_1_8,2022-05-09T16:30:03.721Z,,,,,,,,,,,,,,,,,2,,,,,,,,,,,,,,420.2629999642377,,response,,,,1,G,,,,,,Space,keypress(Space),,,,instrumental,,,,--- ---- ------ --- ------- ---------- ------- ----------<br>was --------- --- ----------- ------- ----- ------- ---<br>--------- ---- -- --- ---- -- --------- -- ---- -------<br>-- --------- ------ --- ----- ------ ---- --- --------- --<br>------ - ---- -- --- ----------- ------- ---- ----- -----<br>--- -------- - ------ ---- -- ----- ---- --- --- -----------<br>-- -------,245034,245028.09999996424,244591.171,244596.19999998808,244607.837,245041.153,,8,was
screen,html.Screen,2_3_1_0_1_9,2022-05-09T16:30:04.126Z,,,,,,,,,,,,,,,,,2,,,,,,,,,,,,,,391.746999976167,,response,,,,1,G,,,,,,Space,keypress(Space),,,,instrumental,,,,--- ---- ------ --- ------- ---------- ------- ----------<br>--- observing --- ----------- ------- ----- ------- ---<br>--------- ---- -- --- ---- -- --------- -- ---- -------<br>-- --------- ------ --- ----- ------ ---- --- --------- --<br>------ - ---- -- --- ----------- ------- ---- ----- -----<br>--- -------- - ------ ---- -- ----- ---- --- --- -----------<br>-- -------,245438.80000001192,245432.89999997616,245024.487,245034.30000001192,245041.153,245441.137,,9,observing
screen,html.Screen,2_3_1_0_1_10,2022-05-09T16:30:04.521Z,,,,,,,,,,,,,,,,,2,,,,,,,,,,,,,,387.26299997617025,,response,,,,1,G,,,,,,Space,keypress(Space),,,,instrumental,,,,--- ---- ------ --- ------- ---------- ------- ----------<br>--- --------- the ----------- ------- ----- ------- ---<br>--------- ---- -- --- ---- -- --------- -- ---- -------<br>-- --------- ------ --- ----- ------ ---- --- --------- --<br>------ - ---- -- --- ----------- ------- ---- ----- -----<br>--- -------- - ------ ---- -- ----- ---- --- --- -----------<br>-- -------,245834.30000001192,245828.39999997616,245424.471,245438.89999997616,245441.137,245841.121,,10,the
screen,html.Screen,2_3_1_0_1_11,2022-05-09T16:30:04.903Z,,,,,,,,,,,,,,,,,2,,,,,,,,,,,,,,369.57899998806533,,response,,,,1,G,,,,,,Space,keypress(Space),,,,instrumental,,,,--- ---- ------ --- ------- ---------- ------- ----------<br>--- --------- --- interesting ------- ----- ------- ---<br>--------- ---- -- --- ---- -- --------- -- ---- -------<br>-- --------- ------ --- ----- ------ ---- --- --------- --<br>------ - ---- -- --- ----------- ------- ---- ----- -----<br>--- -------- - ------ ---- -- ----- ---- --- --- -----------<br>-- -------,246216.39999997616,246210.69999998808,245824.455,245834.5,245841.121,246224.439,,11,interesting
screen,html.Screen,2_3_1_0_1_12,2022-05-09T16:30:05.354Z,,,,,,,,,,,,,,,,,2,,,,,,,,,,,,,,436.26099998806603,,response,,,,1,G,,,,,,Space,keypress(Space),,,,instrumental,,,,--- ---- ------ --- ------- ---------- ------- ----------<br>--- --------- --- ----------- sunspot ----- ------- ---<br>--------- ---- -- --- ---- -- --------- -- ---- -------<br>-- --------- ------ --- ----- ------ ---- --- --------- --<br>------ - ---- -- --- ----------- ------- ---- ----- -----<br>--- -------- - ------ ---- -- ----- ---- --- --- -----------<br>-- -------,246666.5,246660.69999998808,246207.773,246216.69999998808,246224.439,246674.783,,12,sunspot
screen,html.Screen,2_3_1_0_1_13,2022-05-09T16:30:05.758Z,,,,,,,,,,,,,,,,,2,,,,,,,,,,,,,,391.0170000119251,,response,,,,1,G,,,,,,Space,keypress(Space),,,,instrumental,,,,--- ---- ------ --- ------- ---------- ------- ----------<br>--- --------- --- ----------- ------- group ------- ---<br>--------- ---- -- --- ---- -- --------- -- ---- -------<br>-- --------- ------ --- ----- ------ ---- --- --------- --<br>------ - ---- -- --- ----------- ------- ---- ----- -----<br>--- -------- - ------ ---- -- ----- ---- --- --- -----------<br>-- -------,247071.39999997616,247065.80000001192,246658.117,246666.69999998808,246674.783,247074.767,,13,group
screen,html.Screen,2_3_1_0_1_14,2022-05-09T16:30:06.164Z,,,,,,,,,,,,,,,,,2,,,,,,,,,,,,,,396.83299996424466,,response,,,,1,G,,,,,,Space,keypress(Space),,,,instrumental,,,,--- ---- ------ --- ------- ---------- ------- ----------<br>--- --------- --- ----------- ------- ----- through ---<br>--------- ---- -- --- ---- -- --------- -- ---- -------<br>-- --------- ------ --- ----- ------ ---- --- --------- --<br>------ - ---- -- --- ----------- ------- ---- ----- -----<br>--- -------- - ------ ---- -- ----- ---- --- --- -----------<br>-- -------,247477.39999997616,247471.59999996424,247058.101,247071.59999996424,247074.767,247491.417,,14,through
screen,html.Screen,2_3_1_0_1_15,2022-05-09T16:30:06.602Z,,,,,,,,,,,,,,,,,2,,,,,,,,,,,,,,417.28299998809234,,response,,,,1,G,,,,,,Space,keypress(Space),,,,instrumental,,,,--- ---- ------ --- ------- ---------- ------- ----------<br>--- --------- --- ----------- ------- ----- ------- his<br>--------- ---- -- --- ---- -- --------- -- ---- -------<br>-- --------- ------ --- ----- ------ ---- --- --------- --<br>------ - ---- -- --- ----------- ------- ---- ----- -----<br>--- -------- - ------ ---- -- ----- ---- --- --- -----------<br>-- -------,247914.5,247908.69999998808,247474.751,247477.59999996424,247491.417,247924.733,,15,his
screen,html.Screen,2_3_1_0_1_16,2022-05-09T16:30:07.017Z,,,,,,,,,,,,,,,,,2,,,,,,,,,,,,,,399.4669999880716,,response,,,,1,G,,,,,,Space,keypress(Space),,,,instrumental,,,,--- ---- ------ --- ------- ---------- ------- ----------<br>--- --------- --- ----------- ------- ----- ------- ---<br>telescope ---- -- --- ---- -- --------- -- ---- -------<br>-- --------- ------ --- ----- ------ ---- --- --------- --<br>------ - ---- -- --- ----------- ------- ---- ----- -----<br>--- -------- - ------ ---- -- ----- ---- --- --- -----------<br>-- -------,248329.59999996424,248324.19999998808,247908.067,247914.80000001192,247924.733,248341.383,,16,telescope
screen,html.Screen,2_3_1_0_1_17,2022-05-09T16:30:07.422Z,,,,,,,,,,,,,,,,,2,,,,,,,,,,,,,,387.61699999999837,,response,,,,1,G,,,,,,Space,keypress(Space),,,,instrumental,,,,--- ---- ------ --- ------- ---------- ------- ----------<br>--- --------- --- ----------- ------- ----- ------- ---<br>--------- when -- --- ---- -- --------- -- ---- -------<br>-- --------- ------ --- ----- ------ ---- --- --------- --<br>------ - ---- -- --- ----------- ------- ---- ----- -----<br>--- -------- - ------ ---- -- ----- ---- --- --- -----------<br>-- -------,248734.80000001192,248729,248324.717,248329.89999997616,248341.383,248741.367,,17,when
screen,html.Screen,2_3_1_0_1_18,2022-05-09T16:30:07.860Z,,,,,,,,,,,,,,,,,2,,,,,,,,,,,,,,426.8329999880807,,response,,,,1,G,,,,,,Space,keypress(Space),,,,instrumental,,,,--- ---- ------ --- ------- ---------- ------- ----------<br>--- --------- --- ----------- ------- ----- ------- ---<br>--------- ---- he --- ---- -- --------- -- ---- -------<br>-- --------- ------ --- ----- ------ ---- --- --------- --<br>------ - ---- -- --- ----------- ------- ---- ----- -----<br>--- -------- - ------ ---- -- ----- ---- --- --- -----------<br>-- -------,249173.39999997616,249168.19999998808,248724.701,248735.09999996424,248741.367,249174.683,,18,he
screen,html.Screen,2_3_1_0_1_19,2022-05-09T16:30:08.211Z,,,,,,,,,,,,,,,,,2,,,,,,,,,,,,,,343.71699997616815,,response,,,,1,G,,,,,,Space,keypress(Space),,,,instrumental,,,,--- ---- ------ --- ------- ---------- ------- ----------<br>--- --------- --- ----------- ------- ----- ------- ---<br>--------- ---- -- saw ---- -- --------- -- ---- -------<br>-- --------- ------ --- ----- ------ ---- --- --------- --<br>------ - ---- -- --- ----------- ------- ---- ----- -----<br>--- -------- - ------ ---- -- ----- ---- --- --- -----------<br>-- -------,249523.89999997616,249518.39999997616,249158.017,249173.5,249174.683,249541.335,,19,saw
screen,html.Screen,2_3_1_0_1_20,2022-05-09T16:30:08.616Z,,,,,,,,,,,,,,,,,2,,,,,,,,,,,,,,382.16500000000815,,response,,,,1,G,,,,,,Space,keypress(Space),,,,instrumental,,,,--- ---- ------ --- ------- ---------- ------- ----------<br>--- --------- --- ----------- ------- ----- ------- ---<br>--------- ---- -- --- what -- --------- -- ---- -------<br>-- --------- ------ --- ----- ------ ---- --- --------- --<br>------ - ---- -- --- ----------- ------- ---- ----- -----<br>--- -------- - ------ ---- -- ----- ---- --- --- -----------<br>-- -------,249929.39999997616,249923.5,249524.669,249524.30000001192,249541.335,249941.319,,20,what
screen,html.Screen,2_3_1_0_1_21,2022-05-09T16:30:08.976Z,,,,,,,,,,,,,,,,,2,,,,,,,,,,,,,,341.8809999880905,,response,,,,1,G,,,,,,Space,keypress(Space),,,,instrumental,,,,--- ---- ------ --- ------- ---------- ------- ----------<br>--- --------- --- ----------- ------- ----- ------- ---<br>--------- ---- -- --- ---- he --------- -- ---- -------<br>-- --------- ------ --- ----- ------ ---- --- --------- --<br>------ - ---- -- --- ----------- ------- ---- ----- -----<br>--- -------- - ------ ---- -- ----- ---- --- --- -----------<br>-- -------,250289.19999998808,250283.19999998808,249924.653,249929.59999996424,249941.319,250291.305,,21,he
screen,html.Screen,2_3_1_0_1_22,2022-05-09T16:30:09.381Z,,,,,,,,,,,,,,,,,2,,,,,,,,,,,,,,396.5949999761651,,response,,,,1,G,,,,,,Space,keypress(Space),,,,instrumental,,,,--- ---- ------ --- ------- ---------- ------- ----------<br>--- --------- --- ----------- ------- ----- ------- ---<br>--------- ---- -- --- ---- -- described -- ---- -------<br>-- --------- ------ --- ----- ------ ---- --- --------- --<br>------ - ---- -- --- ----------- ------- ---- ----- -----<br>--- -------- - ------ ---- -- ----- ---- --- --- -----------<br>-- -------,250693.80000001192,250687.89999997616,250274.639,250289.39999997616,250291.305,250707.955,,22,described
screen,html.Screen,2_3_1_0_1_23,2022-05-09T16:30:09.739Z,,,,,,,,,,,,,,,,,2,,,,,,,,,,,,,,339.94499997617095,,response,,,,1,G,,,,,,Space,keypress(Space),,,,instrumental,,,,--- ---- ------ --- ------- ---------- ------- ----------<br>--- --------- --- ----------- ------- ----- ------- ---<br>--------- ---- -- --- ---- -- --------- as ---- -------<br>-- --------- ------ --- ----- ------ ---- --- --------- --<br>------ - ---- -- --- ----------- ------- ---- ----- -----<br>--- -------- - ------ ---- -- ----- ---- --- --- -----------<br>-- -------,251052.39999997616,251047.89999997616,250691.289,250694.09999996424,250707.955,251057.941,,23,as
screen,html.Screen,2_3_1_0_1_24,2022-05-09T16:30:10.088Z,,,,,,,,,,,,,,,,,2,,,,,,,,,,,,,,337.4589999761665,,response,,,,1,G,,,,,,Space,keypress(Space),,,,instrumental,,,,"--- ---- ------ --- ------- ---------- ------- ----------<br>--- --------- --- ----------- ------- ----- ------- ---<br>--------- ---- -- --- ---- -- --------- -- ""two -------<br>-- --------- ------ --- ----- ------ ---- --- --------- --<br>------ - ---- -- --- ----------- ------- ---- ----- -----<br>--- -------- - ------ ---- -- ----- ---- --- --- -----------<br>-- -------",251401.39999997616,251395.39999997616,251041.275,251052.69999998808,251057.941,251407.927,,24,"""two"
screen,html.Screen,2_3_1_0_1_25,2022-05-09T16:30:10.585Z,,,,,,,,,,,,,,,,,2,,,,,,,,,,,,,,483.67299996424117,,response,,,,1,G,,,,,,Space,keypress(Space),,,,instrumental,,,,--- ---- ------ --- ------- ---------- ------- ----------<br>--- --------- --- ----------- ------- ----- ------- ---<br>--------- ---- -- --- ---- -- --------- -- ---- patches<br>-- --------- ------ --- ----- ------ ---- --- --------- --<br>------ - ---- -- --- ----------- ------- ---- ----- -----<br>--- -------- - ------ ---- -- ----- ---- --- --- -----------<br>-- -------,251897.69999998808,251891.59999996424,251391.261,251401.59999996424,251407.927,251907.907,,25,patches
screen,html.Screen,2_3_1_0_1_26,2022-05-09T16:30:10.911Z,,,,,,,,,,,,,,,,,2,,,,,,,,,,,,,,309.9929999761516,,response,,,,1,G,,,,,,Space,keypress(Space),,,,instrumental,,,,--- ---- ------ --- ------- ---------- ------- ----------<br>--- --------- --- ----------- ------- ----- ------- ---<br>--------- ---- -- --- ---- -- --------- -- ---- -------<br>of --------- ------ --- ----- ------ ---- --- --------- --<br>------ - ---- -- --- ----------- ------- ---- ----- -----<br>--- -------- - ------ ---- -- ----- ---- --- --- -----------<br>-- -------,252223.69999998808,252217.89999997616,251891.241,251898.09999996424,251907.907,252241.227,,26,of
screen,html.Screen,2_3_1_0_1_27,2022-05-09T16:30:11.293Z,,,,,,,,,,,,,,,,,2,,,,,,,,,,,,,,358.3729999642237,,response,,,,1,G,,,,,,Space,keypress(Space),,,,instrumental,,,,--- ---- ------ --- ------- ---------- ------- ----------<br>--- --------- --- ----------- ------- ----- ------- ---<br>--------- ---- -- --- ---- -- --------- -- ---- -------<br>-- intensely ------ --- ----- ------ ---- --- --------- --<br>------ - ---- -- --- ----------- ------- ---- ----- -----<br>--- -------- - ------ ---- -- ----- ---- --- --- -----------<br>-- -------,252605.5,252599.59999996424,252224.561,252224.09999996424,252241.227,252607.879,,27,intensely
screen,html.Screen,2_3_1_0_1_28,2022-05-09T16:30:11.689Z,,,,,,,,,,,,,,,,,2,,,,,,,,,,,,,,388.12100000001374,,response,,,,1,G,,,,,,Space,keypress(Space),,,,instrumental,,,,--- ---- ------ --- ------- ---------- ------- ----------<br>--- --------- --- ----------- ------- ----- ------- ---<br>--------- ---- -- --- ---- -- --------- -- ---- -------<br>-- --------- bright --- ----- ------ ---- --- --------- --<br>------ - ---- -- --- ----------- ------- ---- ----- -----<br>--- -------- - ------ ---- -- ----- ---- --- --- -----------<br>-- -------,253002,252996,252591.213,252605.69999998808,252607.879,253007.863,,28,bright
screen,html.Screen,2_3_1_0_1_29,2022-05-09T16:30:12.102Z,,,,,,,,,,,,,,,,,2,,,,,,,,,,,,,,401.83699998806696,,response,,,,1,G,,,,,,Space,keypress(Space),,,,instrumental,,,,--- ---- ------ --- ------- ---------- ------- ----------<br>--- --------- --- ----------- ------- ----- ------- ---<br>--------- ---- -- --- ---- -- --------- -- ---- -------<br>-- --------- ------ and ----- ------ ---- --- --------- --<br>------ - ---- -- --- ----------- ------- ---- ----- -----<br>--- -------- - ------ ---- -- ----- ---- --- --- -----------<br>-- -------,253414.69999998808,253409.69999998808,252991.197,253002.30000001192,253007.863,253424.513,,29,and
screen,html.Screen,2_3_1_0_1_30,2022-05-09T16:30:12.497Z,,,,,,,,,,,,,,,,,2,,,,,,,,,,,,,,379.9869999999937,,response,,,,1,G,,,,,,Space,keypress(Space),,,,instrumental,,,,--- ---- ------ --- ------- ---------- ------- ----------<br>--- --------- --- ----------- ------- ----- ------- ---<br>--------- ---- -- --- ---- -- --------- -- ---- -------<br>-- --------- ------ --- white ------ ---- --- --------- --<br>------ - ---- -- --- ----------- ------- ---- ----- -----<br>--- -------- - ------ ---- -- ----- ---- --- --- -----------<br>-- -------,253810.09999996424,253804.5,253407.847,253414.89999997616,253424.513,253824.497,,30,white
screen,html.Screen,2_3_1_0_1_31,2022-05-09T16:30:12.867Z,,,,,,,,,,,,,,,,,2,,,,,,,,,,,,,,349.9029999761551,,response,,,,1,G,,,,,,Space,keypress(Space),,,,instrumental,,,,"--- ---- ------ --- ------- ---------- ------- ----------<br>--- --------- --- ----------- ------- ----- ------- ---<br>--------- ---- -- --- ---- -- --------- -- ---- -------<br>-- --------- ------ --- ----- light"" ---- --- --------- --<br>------ - ---- -- --- ----------- ------- ---- ----- -----<br>--- -------- - ------ ---- -- ----- ---- --- --- -----------<br>-- -------",254179.80000001192,254174.39999997616,253807.831,253810.59999996424,253824.497,254191.149,,31,"light"""
screen,html.Screen,2_3_1_0_1_32,2022-05-09T16:30:13.296Z,,,,,,,,,,,,,,,,,2,,,,,,,,,,,,,,412.15100001191604,,response,,,,1,G,,,,,,Space,keypress(Space),,,,instrumental,,,,--- ---- ------ --- ------- ---------- ------- ----------<br>--- --------- --- ----------- ------- ----- ------- ---<br>--------- ---- -- --- ---- -- --------- -- ---- -------<br>-- --------- ------ --- ----- ------ over --- --------- --<br>------ - ---- -- --- ----------- ------- ---- ----- -----<br>--- -------- - ------ ---- -- ----- ---- --- --- -----------<br>-- -------,254609.19999998808,254603.30000001192,254174.483,254180.09999996424,254191.149,254624.465,,32,over
screen,html.Screen,2_3_1_0_1_33,2022-05-09T16:30:13.703Z,,,,,,,,,,,,,,,,,2,,,,,,,,,,,,,,385.6349999642407,,response,,,,1,G,,,,,,Space,keypress(Space),,,,instrumental,,,,--- ---- ------ --- ------- ---------- ------- ----------<br>--- --------- --- ----------- ------- ----- ------- ---<br>--------- ---- -- --- ---- -- --------- -- ---- -------<br>-- --------- ------ --- ----- ------ ---- the --------- --<br>------ - ---- -- --- ----------- ------- ---- ----- -----<br>--- -------- - ------ ---- -- ----- ---- --- --- -----------<br>-- -------,255015.89999997616,255010.09999996424,254607.799,254609.39999997616,254624.465,255024.449,,33,the
screen,html.Screen,2_3_1_0_1_34,2022-05-09T16:30:14.297Z,,,,,,,,,,,,,,,,,2,,,,,,,,,,,,,,579.3510000119277,,response,,,,1,G,,,,,,Space,keypress(Space),,,,instrumental,,,,--- ---- ------ --- ------- ---------- ------- ----------<br>--- --------- --- ----------- ------- ----- ------- ---<br>--------- ---- -- --- ---- -- --------- -- ---- -------<br>-- --------- ------ --- ----- ------ ---- --- sunspots. --<br>------ - ---- -- --- ----------- ------- ---- ----- -----<br>--- -------- - ------ ---- -- ----- ---- --- --- -----------<br>-- -------,255609.39999997616,255603.80000001192,255007.783,255016.39999997616,255024.449,255624.425,,34,sunspots.
screen,html.Screen,2_3_1_0_1_35,2022-05-09T16:30:15.005Z,,,,,,,,,,,,,,,,,2,,,,,,,,,,,,,,687.5750000000116,,response,,,,1,G,,,,,,Space,keypress(Space),,,,instrumental,,,,--- ---- ------ --- ------- ---------- ------- ----------<br>--- --------- --- ----------- ------- ----- ------- ---<br>--------- ---- -- --- ---- -- --------- -- ---- -------<br>-- --------- ------ --- ----- ------ ---- --- --------- He<br>------ - ---- -- --- ----------- ------- ---- ----- -----<br>--- -------- - ------ ---- -- ----- ---- --- --- -----------<br>-- -------,256317.80000001192,256312,255607.759,255609.59999996424,255624.425,256324.397,,35,He
screen,html.Screen,2_3_1_0_1_36,2022-05-09T16:30:15.411Z,,,,,,,,,,,,,,,,,2,,,,,,,,,,,,,,393.70299996424,,response,,,,1,G,,,,,,Space,keypress(Space),,,,instrumental,,,,--- ---- ------ --- ------- ---------- ------- ----------<br>--- --------- --- ----------- ------- ----- ------- ---<br>--------- ---- -- --- ---- -- --------- -- ---- -------<br>-- --------- ------ --- ----- ------ ---- --- --------- --<br>jotted - ---- -- --- ----------- ------- ---- ----- -----<br>--- -------- - ------ ---- -- ----- ---- --- --- -----------<br>-- -------,256723.59999996424,256718.09999996424,256307.731,256318.09999996424,256324.397,256741.047,,36,jotted
screen,html.Screen,2_3_1_0_1_37,2022-05-09T16:30:15.760Z,,,,,,,,,,,,,,,,,2,,,,,,,,,,,,,,325.9530000000086,,response,,,,1,G,,,,,,Space,keypress(Space),,,,instrumental,,,,--- ---- ------ --- ------- ---------- ------- ----------<br>--- --------- --- ----------- ------- ----- ------- ---<br>--------- ---- -- --- ---- -- --------- -- ---- -------<br>-- --------- ------ --- ----- ------ ---- --- --------- --<br>------ a ---- -- --- ----------- ------- ---- ----- -----<br>--- -------- - ------ ---- -- ----- ---- --- --- -----------<br>-- -------,257072.69999998808,257067,256724.381,256723.80000001192,256741.047,257074.734,,37,a
