sender,sender_type,sender_id,timestamp,meta,,Blues,Classical,Country,Dance,Electronic,Folk,Gospel,Hip-Hop,Jazz,Latin,Musical/Film,New-age,Pop,Prolific_id,Provo_ID,R&B,Rap,Reggae,Religious,Rock,Soul,Swing,Traditional,age,artist_name,correct,correctResponse,distraction,duration,education,ended_on,familiarity,gender,headphone_check_performance,item,list,music_frequency,offensiveness,pleasantness,position_correct,preference,response,response_action,snippet_file,song_name,song_rating,sound,stimulus_1,stimulus_2,stimulus_3,text,time_commit,time_end,time_render,time_run,time_show,time_switch,url,word,word_ID
Prolific ID,html.Form,0,2022-05-12T10:52:51.891Z,"{""labjs_version"":""20.2.2"",""labjs_build"":{""flavor"":""production"",""commit"":""a25486e0c714a0ae2ce03ff94b7bb6896854dcfa""},""location"":""https://run.pavlovia.org/mvasilev/prolific3_music_d/"",""userAgent"":""Mozilla/5.0 (X11; Ubuntu; Linux x86_64; rv:100.0) Gecko/20100101 Firefox/100.0"",""platform"":""Linux x86_64"",""language"":""en-GB"",""locale"":""en-GB"",""timeZone"":""Europe/London"",""timezoneOffset"":-60,""screen_width"":1920,""screen_height"":1080,""scroll_width"":1853,""scroll_height"":920,""window_innerWidth"":1853,""window_innerHeight"":968,""devicePixelRatio"":1}",,,,,,,,,,,,,,,5784d25070c76a00012427e0,,,,,,,,,,,,,,,4871.639999999999,,form submission,,,,,,,,,,,,,,,,,,,,,29341,29340,24467.78,24467,24468.36,29351,{},,
Introduction,html.Screen,1_0,2022-05-12T10:53:00.991Z,,,,,,,,,,,,,,,,,,,,,,,,,,,,,,,9084,,response,,,,,,,,,,,continue,click button,,,,,,,,,38440,38435,29334.32,29341,29351,38449.56,,,
Volume calibration,html.Screen,1_1,2022-05-12T10:53:29.843Z,,,,,,,,,,,,,,,,,,,,,,,,,,,,,,,28839.440000000002,,response,,,,,,,,,,,continue,click button,,,,,,,,,67292,67289,38437.52,38440,38449.56,67295.2,,,
Task instructions,html.Screen,1_2,2022-05-12T10:53:35.092Z,,,,,,,,,,,,,,,,,,,,,,,,,,,,,,,5241.800000000003,,response,,,,,,,,,,,continue,click button,,,,,,,,,72540,72537,67288.04,67293,67295.2,72544.38,,,
Sounds,html.Screen,1_3_0_0,2022-05-12T10:53:39.331Z,,,,,,,,,,,,,,,,,,,,,,,,,,,,,,,4249.440000000002,,timeout,,,,,,,,,2,,,,,,,,O,S,I,,76780,76777.22,72536.04,72544,72544.38,76793.82,,,
Judgement,html.Screen,1_3_0_1,2022-05-12T10:53:40.573Z,,,,,,,,,,,,,,,,,,,,,,,,,,,,true,2,,1223.179999999993,,response,,,,,,,,,2,,2,click #choice-2,,,,,O,S,I,,78022,78017,76777.22,76782,76793.82,78026.88,,,
Trial,flow.Sequence,1_3_0,2022-05-12T10:53:40.575Z,,,,,,,,,,,,,,,,,,,,,,,,,,,,,,,5472.619999999995,,completion,,,,,,,,,2,,,,,,,,O,S,I,,78025,78017,72536.04,72543,72544.38,78026.88,,,
Sounds,html.Screen,1_3_1_0,2022-05-12T10:53:44.812Z,,,,,,,,,,,,,,,,,,,,,,,,,,,,,,,4249.399999999994,,timeout,,,,,,,,,3,,,,,,,,I,O,S,,82261,82259.64,78020.1,78026,78026.88,82276.28,,,
Judgement,html.Screen,1_3_1_1,2022-05-12T10:53:45.293Z,,,,,,,,,,,,,,,,,,,,,,,,,,,,true,3,,461.72000000000116,,response,,,,,,,,,3,,3,click #choice-3,,,,,I,O,S,,82742,82738,82259.64,82262,82276.28,82742.84,,,
Trial,flow.Sequence,1_3_1,2022-05-12T10:53:45.296Z,,,,,,,,,,,,,,,,,,,,,,,,,,,,,,,4711.119999999995,,completion,,,,,,,,,3,,,,,,,,I,O,S,,82744,82738,78020.1,78025,78026.88,82742.84,,,
Sounds,html.Screen,1_3_2_0,2022-05-12T10:53:49.529Z,,,,,,,,,,,,,,,,,,,,,,,,,,,,,,,4249.400000000009,,timeout,,,,,,,,,3,,,,,,,,O,I,S,,86978,86975.64,82740.28,82746,82742.84,86992.24,,,
Judgement,html.Screen,1_3_2_1,2022-05-12T10:53:50.389Z,,,,,,,,,,,,,,,,,,,,,,,,,,,,true,3,,841.7599999999948,,response,,,,,,,,,3,,3,click #choice-3,,,,,O,I,S,,87838,87834,86975.64,86980,86992.24,87842.08,,,
Trial,flow.Sequence,1_3_2,2022-05-12T10:53:50.390Z,,,,,,,,,,,,,,,,,,,,,,,,,,,,,,,5091.1600000000035,,completion,,,,,,,,,3,,,,,,,,O,I,S,,87839,87834,82740.28,82745,82742.84,87842.08,,,
Sounds,html.Screen,1_3_3_0,2022-05-12T10:53:54.627Z,,,,,,,,,,,,,,,,,,,,,,,,,,,,,,,4249.319999999992,,timeout,,,,,,,,,1,,,,,,,,S,I,O,,92076,92074.78,87835.86,87840,87842.08,92091.4,,,
Judgement,html.Screen,1_3_3_1,2022-05-12T10:53:55.124Z,,,,,,,,,,,,,,,,,,,,,,,,,,,,true,1,,476.6000000000058,,response,,,,,,,,,1,,1,click #choice-1,,,,,S,I,O,,92573,92568,92074.78,92077,92091.4,92574.66,,,
Trial,flow.Sequence,1_3_3,2022-05-12T10:53:55.124Z,,,,,,,,,,,,,,,,,,,,,,,,,,,,,,,4725.919999999998,,completion,,,,,,,,,1,,,,,,,,S,I,O,,92573,92568,87835.86,87839,87842.08,92574.66,,,
Sounds,html.Screen,1_3_4_0,2022-05-12T10:53:59.358Z,,,,,,,,,,,,,,,,,,,,,,,,,,,,,,,4249.419999999998,,timeout,,,,,,,,,2,,,,,,,,I,S,O,,96808,96807.32,92571.78,92575,92574.66,96824.08,,,
Judgement,html.Screen,1_3_4_1,2022-05-12T10:53:59.771Z,,,,,,,,,,,,,,,,,,,,,,,,,,,,true,2,,392.91999999999825,,response,,,,,,,,,2,,2,click #choice-2,,,,,I,S,O,,97220,97217,96807.32,96808,96824.08,97223.96,,,
Trial,flow.Sequence,1_3_4,2022-05-12T10:53:59.771Z,,,,,,,,,,,,,,,,,,,,,,,,,,,,,,,4642.3399999999965,,completion,,,,,,,,,2,,,,,,,,I,S,O,,97221,97217,92571.78,92574,92574.66,97223.96,,,
Sounds,html.Screen,1_3_5_0,2022-05-12T10:54:04.009Z,,,,,,,,,,,,,,,,,,,,,,,,,,,,,,,4249.319999999992,,timeout,,,,,,,,,1,,,,,,,,S,O,I,,101458,101456.74,97219.16,97222,97223.96,101473.28,,,
Judgement,html.Screen,1_3_5_1,2022-05-12T10:54:04.443Z,,,,,,,,,,,,,,,,,,,,,,,,,,,,true,1,,415.72000000000116,,response,,,,,,,,,1,,1,click #choice-1,,,,,S,O,I,,101892,101889,101456.74,101459,101473.28,101906.62,,,
Trial,flow.Sequence,1_3_5,2022-05-12T10:54:04.443Z,,,,,,,,,,,,,,,,,,,,,,,,,,,,,,,4665.039999999994,,completion,,,,,,,,,1,,,,,,,,S,O,I,,101892,101889,97219.16,97222,97223.96,101906.62,,,
Task,flow.Loop,1_3,2022-05-12T10:54:04.445Z,,,,,,,,,,,,,,,,,,,,,,,,,,,,,,,29344.619999999995,,completion,,,1,,,,,,,,,,,,,,,,,,101894,101889,72536.04,72543,72544.38,101906.62,,,
Trap,html.Screen,1_4,2022-05-12T10:54:04.450Z,,,,,,,,,,,,,,,,,,,,,,,,,,,,,,,NaN,,skipped,,,,,,,,,,,,,,,,,,,,,101900,101889,,101899,,101906.62,,,
Thanks,html.Screen,1_5,2022-05-12T10:54:07.530Z,,,,,,,,,,,,,,,,,,,,,,,,,,,,,,,3070.3800000000047,,response,,,,,,,,,,,continue,click button,,,,,,,,,104979,104977,101890.64,101900,101906.62,108039.06,,,
Headphone screening,flow.Sequence,1,2022-05-12T10:54:07.531Z,,,,,,,,,,,,,,,,,,,,,,,,,,,,,,,75626,,completion,,,,,,,,,,,,,,,,,,,,,104980,104977,29334.32,29341,29351,108039.06,,,
Instructions,html.Page,2_0,2022-05-12T10:54:21.568Z,,,,,,,,,,,,,,,,,,,,,,,,,,,,,,,10976.940000000002,,form submission,,,,,,,,,,,,,,,,,,,,,119017,119016,108022.38,108006,108039.06,119020.6,,,
Holding screen,html.Screen,2_1_0_0,2022-05-12T10:54:31.555Z,,,,,,,,,,,,,,,,,,,,,,,,,,,,,,,9998.579999999987,,timeout,,,,,,,,,,,,,,,,,,,,,129004,129002.56,119011.04,119018,119020.6,129019.18,,,
screen,html.Screen,2_1_0_1_0,2022-05-12T10:54:36.280Z,,,,,,,,,,,,,,,,,53,,,,,,,,,,,,,,4707.820000000007,,response,,,,99,,,,,,,Space,keypress(Space),,,,,,,,When -- ----- -- ------ - ------- --- ----------<br>------------- ------ ------ ---- ---- ------- ----- -- ----<br>-------- ------- -- ---------- --- - --- ----- ----- ----<br>---- --- --- ----- --- ---- ---- ------- ----- ---- -------<br>--- --- -- ----- -- --- ---- -- --- ---- -- ------ ------<br>--- ----- -- ----,133729,133727,129002.56,129005,129019.18,133735.12,,0,When
screen,html.Screen,2_1_0_1_1,2022-05-12T10:54:36.959Z,,,,,,,,,,,,,,,,,53,,,,,,,,,,,,,,670.8800000000047,,response,,,,99,,,,,,,Space,keypress(Space),,,,,,,,---- it ----- -- ------ - ------- --- ----------<br>------------- ------ ------ ---- ---- ------- ----- -- ----<br>-------- ------- -- ---------- --- - --- ----- ----- ----<br>---- --- --- ----- --- ---- ---- ------- ----- ---- -------<br>--- --- -- ----- -- --- ---- -- --- ---- -- ------ ------<br>--- ----- -- ----,134407,134406,133729.96,133730,133735.12,134418.38,,1,it
screen,html.Screen,2_1_0_1_2,2022-05-12T10:54:37.826Z,,,,,,,,,,,,,,,,,53,,,,,,,,,,,,,,856.6199999999953,,response,,,,99,,,,,,,Space,keypress(Space),,,,,,,,---- -- comes -- ------ - ------- --- ----------<br>------------- ------ ------ ---- ---- ------- ----- -- ----<br>-------- ------- -- ---------- --- - --- ----- ----- ----<br>---- --- --- ----- --- ---- ---- ------- ----- ---- -------<br>--- --- -- ----- -- --- ---- -- --- ---- -- ------ ------<br>--- ----- -- ----,135276,135275,134408.56,134408,134418.38,135284.86,,2,comes
screen,html.Screen,2_1_0_1_3,2022-05-12T10:54:38.414Z,,,,,,,,,,,,,,,,,53,,,,,,,,,,,,,,578.140000000014,,response,,,,99,,,,,,,Space,keypress(Space),,,,,,,,---- -- ----- to ------ - ------- --- ----------<br>------------- ------ ------ ---- ---- ------- ----- -- ----<br>-------- ------- -- ---------- --- - --- ----- ----- ----<br>---- --- --- ----- --- ---- ---- ------- ----- ---- -------<br>--- --- -- ----- -- --- ---- -- --- ---- -- ------ ------<br>--- ----- -- ----,135863,135863,135275.76,135276,135284.86,135868.12,,3,to
screen,html.Screen,2_1_0_1_4,2022-05-12T10:54:39.003Z,,,,,,,,,,,,,,,,,53,,,,,,,,,,,,,,582.8800000000047,,response,,,,99,,,,,,,Space,keypress(Space),,,,,,,,---- -- ----- -- having - ------- --- ----------<br>------------- ------ ------ ---- ---- ------- ----- -- ----<br>-------- ------- -- ---------- --- - --- ----- ----- ----<br>---- --- --- ----- --- ---- ---- ------- ----- ---- -------<br>--- --- -- ----- -- --- ---- -- --- ---- -- ------ ------<br>--- ----- -- ----,136452,136451,135863.54,135864,135868.12,136468.2,,4,having
screen,html.Screen,2_1_0_1_5,2022-05-12T10:54:39.606Z,,,,,,,,,,,,,,,,,53,,,,,,,,,,,,,,585.7999999999884,,response,,,,99,,,,,,,Space,keypress(Space),,,,,,,,---- -- ----- -- ------ a ------- --- ----------<br>------------- ------ ------ ---- ---- ------- ----- -- ----<br>-------- ------- -- ---------- --- - --- ----- ----- ----<br>---- --- --- ----- --- ---- ---- ------- ----- ---- -------<br>--- --- -- ----- -- --- ---- -- --- ---- -- ------ ------<br>--- ----- -- ----,137056,137054,136453.72,136453,136468.2,137067.96,,5,a
screen,html.Screen,2_1_0_1_6,2022-05-12T10:54:40.224Z,,,,,,,,,,,,,,,,,53,,,,,,,,,,,,,,604.0400000000081,,response,,,,99,,,,,,,Space,keypress(Space),,,,,,,,---- -- ----- -- ------ - lasting --- ----------<br>------------- ------ ------ ---- ---- ------- ----- -- ----<br>-------- ------- -- ---------- --- - --- ----- ----- ----<br>---- --- --- ----- --- ---- ---- ------- ----- ---- -------<br>--- --- -- ----- -- --- ---- -- --- ---- -- ------ ------<br>--- ----- -- ----,137674,137672,137056.02,137056,137067.96,137684.6,,6,lasting
screen,html.Screen,2_1_0_1_7,2022-05-12T10:54:40.765Z,,,,,,,,,,,,,,,,,53,,,,,,,,,,,,,,528.3999999999942,,response,,,,99,,,,,,,Space,keypress(Space),,,,,,,,---- -- ----- -- ------ - ------- and ----------<br>------------- ------ ------ ---- ---- ------- ----- -- ----<br>-------- ------- -- ---------- --- - --- ----- ----- ----<br>---- --- --- ----- --- ---- ---- ------- ----- ---- -------<br>--- --- -- ----- -- --- ---- -- --- ---- -- ------ ------<br>--- ----- -- ----,138214,138213,137673.94,137674,137684.6,138217.8,,7,and
screen,html.Screen,2_1_0_1_8,2022-05-12T10:54:41.383Z,,,,,,,,,,,,,,,,,53,,,,,,,,,,,,,,612.2000000000116,,response,,,,99,,,,,,,Space,keypress(Space),,,,,,,,---- -- ----- -- ------ - ------- --- fulfilling<br>------------- ------ ------ ---- ---- ------- ----- -- ----<br>-------- ------- -- ---------- --- - --- ----- ----- ----<br>---- --- --- ----- --- ---- ---- ------- ----- ---- -------<br>--- --- -- ----- -- --- ---- -- --- ---- -- ------ ------<br>--- ----- -- ----,138832,138830,138214.86,138214,138217.8,138834.36,,8,fulfilling
screen,html.Screen,2_1_0_1_9,2022-05-12T10:54:42.166Z,,,,,,,,,,,,,,,,,53,,,,,,,,,,,,,,779.640000000014,,response,,,,99,,,,,,,Space,keypress(Space),,,,,,,,"---- -- ----- -- ------ - ------- --- ----------<br>relationship, ------ ------ ---- ---- ------- ----- -- ----<br>-------- ------- -- ---------- --- - --- ----- ----- ----<br>---- --- --- ----- --- ---- ---- ------- ----- ---- -------<br>--- --- -- ----- -- --- ---- -- --- ---- -- ------ ------<br>--- ----- -- ----",139615,139614,138832.56,138832,138834.36,139617.58,,9,"relationship,"
screen,html.Screen,2_1_0_1_10,2022-05-12T10:54:43.053Z,,,,,,,,,,,,,,,,,53,,,,,,,,,,,,,,883.4200000000128,,response,,,,99,,,,,,,Space,keypress(Space),,,,,,,,---- -- ----- -- ------ - ------- --- ----------<br>------------- common ------ ---- ---- ------- ----- -- ----<br>-------- ------- -- ---------- --- - --- ----- ----- ----<br>---- --- --- ----- --- ---- ---- ------- ----- ---- -------<br>--- --- -- ----- -- --- ---- -- --- ---- -- ------ ------<br>--- ----- -- ----,140503,140501,139615.38,139616,139617.58,140517.4,,10,common
screen,html.Screen,2_1_0_1_11,2022-05-12T10:54:43.784Z,,,,,,,,,,,,,,,,,53,,,,,,,,,,,,,,714.6000000000058,,response,,,,99,,,,,,,Space,keypress(Space),,,,,,,,---- -- ----- -- ------ - ------- --- ----------<br>------------- ------ wisdom ---- ---- ------- ----- -- ----<br>-------- ------- -- ---------- --- - --- ----- ----- ----<br>---- --- --- ----- --- ---- ---- ------- ----- ---- -------<br>--- --- -- ----- -- --- ---- -- --- ---- -- ------ ------<br>--- ----- -- ----,141233,141232,140503.52,140503,140517.4,141250.6,,11,wisdom
screen,html.Screen,2_1_0_1_12,2022-05-12T10:54:44.647Z,,,,,,,,,,,,,,,,,53,,,,,,,,,,,,,,844.3999999999942,,response,,,,99,,,,,,,Space,keypress(Space),,,,,,,,---- -- ----- -- ------ - ------- --- ----------<br>------------- ------ ------ says ---- ------- ----- -- ----<br>-------- ------- -- ---------- --- - --- ----- ----- ----<br>---- --- --- ----- --- ---- ---- ------- ----- ---- -------<br>--- --- -- ----- -- --- ---- -- --- ---- -- ------ ------<br>--- ----- -- ----,142096,142095,141233.82,141234,141250.6,142100.6,,12,says
screen,html.Screen,2_1_0_1_13,2022-05-12T10:54:45.548Z,,,,,,,,,,,,,,,,,53,,,,,,,,,,,,,,894.3999999999942,,response,,,,99,,,,,,,Space,keypress(Space),,,,,,,,---- -- ----- -- ------ - ------- --- ----------<br>------------- ------ ------ ---- that ------- ----- -- ----<br>-------- ------- -- ---------- --- - --- ----- ----- ----<br>---- --- --- ----- --- ---- ---- ------- ----- ---- -------<br>--- --- -- ----- -- --- ---- -- --- ---- -- ------ ------<br>--- ----- -- ----,142997,142995,142096.72,142097,142100.6,143000.36,,13,that
screen,html.Screen,2_1_0_1_14,2022-05-12T10:54:46.097Z,,,,,,,,,,,,,,,,,53,,,,,,,,,,,,,,543.640000000014,,response,,,,99,,,,,,,Space,keypress(Space),,,,,,,,---- -- ----- -- ------ - ------- --- ----------<br>------------- ------ ------ ---- ---- feeling ----- -- ----<br>-------- ------- -- ---------- --- - --- ----- ----- ----<br>---- --- --- ----- --- ---- ---- ------- ----- ---- -------<br>--- --- -- ----- -- --- ---- -- --- ---- -- ------ ------<br>--- ----- -- ----,143546,143544,142997.58,142997,143000.36,143550.38,,14,feeling
screen,html.Screen,2_1_0_1_15,2022-05-12T10:54:46.567Z,,,,,,,,,,,,,,,,,53,,,,,,,,,,,,,,465.61999999999534,,response,,,,99,,,,,,,Space,keypress(Space),,,,,,,,---- -- ----- -- ------ - ------- --- ----------<br>------------- ------ ------ ---- ---- ------- close -- ----<br>-------- ------- -- ---------- --- - --- ----- ----- ----<br>---- --- --- ----- --- ---- ---- ------- ----- ---- -------<br>--- --- -- ----- -- --- ---- -- --- ---- -- ------ ------<br>--- ----- -- ----,144017,144016,143546.26,143546,143550.38,144033.64,,15,close
screen,html.Screen,2_1_0_1_16,2022-05-12T10:54:47.207Z,,,,,,,,,,,,,,,,,53,,,,,,,,,,,,,,620.359999999986,,response,,,,99,,,,,,,Space,keypress(Space),,,,,,,,---- -- ----- -- ------ - ------- --- ----------<br>------------- ------ ------ ---- ---- ------- ----- to ----<br>-------- ------- -- ---------- --- - --- ----- ----- ----<br>---- --- --- ----- --- ---- ---- ------- ----- ---- -------<br>--- --- -- ----- -- --- ---- -- --- ---- -- ------ ------<br>--- ----- -- ----,144656,144654,144017.14,144017,144033.64,144666.86,,16,to
screen,html.Screen,2_1_0_1_17,2022-05-12T10:54:47.788Z,,,,,,,,,,,,,,,,,53,,,,,,,,,,,,,,568.140000000014,,response,,,,99,,,,,,,Space,keypress(Space),,,,,,,,---- -- ----- -- ------ - ------- --- ----------<br>------------- ------ ------ ---- ---- ------- ----- -- your<br>-------- ------- -- ---------- --- - --- ----- ----- ----<br>---- --- --- ----- --- ---- ---- ------- ----- ---- -------<br>--- --- -- ----- -- --- ---- -- --- ---- -- ------ ------<br>--- ----- -- ----,145238,145235,144656.68,144656,144666.86,145250.08,,17,your
screen,html.Screen,2_1_0_1_18,2022-05-12T10:54:48.391Z,,,,,,,,,,,,,,,,,53,,,,,,,,,,,,,,588.9200000000128,,response,,,,99,,,,,,,Space,keypress(Space),,,,,,,,---- -- ----- -- ------ - ------- --- ----------<br>------------- ------ ------ ---- ---- ------- ----- -- ----<br>romantic ------- -- ---------- --- - --- ----- ----- ----<br>---- --- --- ----- --- ---- ---- ------- ----- ---- -------<br>--- --- -- ----- -- --- ---- -- --- ---- -- ------ ------<br>--- ----- -- ----,145839,145839,145237.86,145238,145250.08,145849.98,,18,romantic
screen,html.Screen,2_1_0_1_19,2022-05-12T10:54:48.940Z,,,,,,,,,,,,,,,,,53,,,,,,,,,,,,,,537.0199999999895,,response,,,,99,,,,,,,Space,keypress(Space),,,,,,,,---- -- ----- -- ------ - ------- --- ----------<br>------------- ------ ------ ---- ---- ------- ----- -- ----<br>-------- partner -- ---------- --- - --- ----- ----- ----<br>---- --- --- ----- --- ---- ---- ------- ----- ---- -------<br>--- --- -- ----- -- --- ---- -- --- ---- -- ------ ------<br>--- ----- -- ----,146389,146387,145840.56,145841,145849.98,146399.9,,19,partner
screen,html.Screen,2_1_0_1_20,2022-05-12T10:54:49.447Z,,,,,,,,,,,,,,,,,53,,,,,,,,,,,,,,495.1000000000058,,response,,,,99,,,,,,,Space,keypress(Space),,,,,,,,---- -- ----- -- ------ - ------- --- ----------<br>------------- ------ ------ ---- ---- ------- ----- -- ----<br>-------- ------- is ---------- --- - --- ----- ----- ----<br>---- --- --- ----- --- ---- ---- ------- ----- ---- -------<br>--- --- -- ----- -- --- ---- -- --- ---- -- ------ ------<br>--- ----- -- ----,146896,146895,146389.58,146390,146399.9,146899.8,,20,is
screen,html.Screen,2_1_0_1_21,2022-05-12T10:54:50.217Z,,,,,,,,,,,,,,,,,53,,,,,,,,,,,,,,764.2000000000116,,response,,,,99,,,,,,,Space,keypress(Space),,,,,,,,---- -- ----- -- ------ - ------- --- ----------<br>------------- ------ ------ ---- ---- ------- ----- -- ----<br>-------- ------- -- paramount. --- - --- ----- ----- ----<br>---- --- --- ----- --- ---- ---- ------- ----- ---- -------<br>--- --- -- ----- -- --- ---- -- --- ---- -- ------ ------<br>--- ----- -- ----,147666,147664,146896.9,146897,146899.8,147682.94,,21,paramount.
screen,html.Screen,2_1_0_1_22,2022-05-12T10:54:50.732Z,,,,,,,,,,,,,,,,,53,,,,,,,,,,,,,,497.0599999999977,,response,,,,99,,,,,,,Space,keypress(Space),,,,,,,,---- -- ----- -- ------ - ------- --- ----------<br>------------- ------ ------ ---- ---- ------- ----- -- ----<br>-------- ------- -- ---------- But - --- ----- ----- ----<br>---- --- --- ----- --- ---- ---- ------- ----- ---- -------<br>--- --- -- ----- -- --- ---- -- --- ---- -- ------ ------<br>--- ----- -- ----,148181,148180,147666.46,147666,147682.94,148182.94,,22,But
screen,html.Screen,2_1_0_1_23,2022-05-12T10:54:51.194Z,,,,,,,,,,,,,,,,,53,,,,,,,,,,,,,,460.0599999999977,,response,,,,99,,,,,,,Space,keypress(Space),,,,,,,,---- -- ----- -- ------ - ------- --- ----------<br>------------- ------ ------ ---- ---- ------- ----- -- ----<br>-------- ------- -- ---------- --- a --- ----- ----- ----<br>---- --- --- ----- --- ---- ---- ------- ----- ---- -------<br>--- --- -- ----- -- --- ---- -- --- ---- -- ------ ------<br>--- ----- -- ----,148644,148643,148181.14,148181,148182.94,148649.54,,23,a
screen,html.Screen,2_1_0_1_24,2022-05-12T10:54:51.568Z,,,,,,,,,,,,,,,,,53,,,,,,,,,,,,,,366.45999999999185,,response,,,,99,,,,,,,Space,keypress(Space),,,,,,,,---- -- ----- -- ------ - ------- --- ----------<br>------------- ------ ------ ---- ---- ------- ----- -- ----<br>-------- ------- -- ---------- --- - new ----- ----- ----<br>---- --- --- ----- --- ---- ---- ------- ----- ---- -------<br>--- --- -- ----- -- --- ---- -- --- ---- -- ------ ------<br>--- ----- -- ----,149017,149016,148643.68,148644,148649.54,149032.9,,24,new
screen,html.Screen,2_1_0_1_25,2022-05-12T10:54:51.977Z,,,,,,,,,,,,,,,,,53,,,,,,,,,,,,,,393.1000000000058,,response,,,,99,,,,,,,Space,keypress(Space),,,,,,,,---- -- ----- -- ------ - ------- --- ----------<br>------------- ------ ------ ---- ---- ------- ----- -- ----<br>-------- ------- -- ---------- --- - --- study ----- ----<br>---- --- --- ----- --- ---- ---- ------- ----- ---- -------<br>--- --- -- ----- -- --- ---- -- --- ---- -- ------ ------<br>--- ----- -- ----,149426,149426,149017.68,149018,149032.9,149432.8,,25,study
screen,html.Screen,2_1_0_1_26,2022-05-12T10:54:52.452Z,,,,,,,,,,,,,,,,,53,,,,,,,,,,,,,,468.20000000001164,,response,,,,99,,,,,,,Space,keypress(Space),,,,,,,,---- -- ----- -- ------ - ------- --- ----------<br>------------- ------ ------ ---- ---- ------- ----- -- ----<br>-------- ------- -- ---------- --- - --- ----- finds ----<br>---- --- --- ----- --- ---- ---- ------- ----- ---- -------<br>--- --- -- ----- -- --- ---- -- --- ---- -- ------ ------<br>--- ----- -- ----,149902,149901,149426.84,149427,149432.8,149916,,26,finds
screen,html.Screen,2_1_0_1_27,2022-05-12T10:54:52.865Z,,,,,,,,,,,,,,,,,53,,,,,,,,,,,,,,397,,response,,,,99,,,,,,,Space,keypress(Space),,,,,,,,---- -- ----- -- ------ - ------- --- ----------<br>------------- ------ ------ ---- ---- ------- ----- -- ----<br>-------- ------- -- ---------- --- - --- ----- ----- that<br>---- --- --- ----- --- ---- ---- ------- ----- ---- -------<br>--- --- -- ----- -- --- ---- -- --- ---- -- ------ ------<br>--- ----- -- ----,150313,150313,149902.04,149902,149916,150315.86,,27,that
screen,html.Screen,2_1_0_1_28,2022-05-12T10:54:53.644Z,,,,,,,,,,,,,,,,,53,,,,,,,,,,,,,,777.140000000014,,response,,,,99,,,,,,,Space,keypress(Space),,,,,,,,---- -- ----- -- ------ - ------- --- ----------<br>------------- ------ ------ ---- ---- ------- ----- -- ----<br>-------- ------- -- ---------- --- - --- ----- ----- ----<br>it's --- --- ----- --- ---- ---- ------- ----- ---- -------<br>--- --- -- ----- -- --- ---- -- --- ---- -- ------ ------<br>--- ----- -- ----,151094,151093,150313.74,150314,150315.86,151099.16,,28,it's
screen,html.Screen,2_1_0_1_29,2022-05-12T10:54:54.158Z,,,,,,,,,,,,,,,,,53,,,,,,,,,,,,,,507.8399999999965,,response,,,,99,,,,,,,Space,keypress(Space),,,,,,,,---- -- ----- -- ------ - ------- --- ----------<br>------------- ------ ------ ---- ---- ------- ----- -- ----<br>-------- ------- -- ---------- --- - --- ----- ----- ----<br>---- not --- ----- --- ---- ---- ------- ----- ---- -------<br>--- --- -- ----- -- --- ---- -- --- ---- -- ------ ------<br>--- ----- -- ----,151608,151607,151093.6,151094,151099.16,151615.72,,29,not
screen,html.Screen,2_1_0_1_30,2022-05-12T10:54:54.656Z,,,,,,,,,,,,,,,,,53,,,,,,,,,,,,,,488.27999999999884,,response,,,,99,,,,,,,Space,keypress(Space),,,,,,,,---- -- ----- -- ------ - ------- --- ----------<br>------------- ------ ------ ---- ---- ------- ----- -- ----<br>-------- ------- -- ---------- --- - --- ----- ----- ----<br>---- --- how ----- --- ---- ---- ------- ----- ---- -------<br>--- --- -- ----- -- --- ---- -- --- ---- -- ------ ------<br>--- ----- -- ----,152106,152104,151608.34,151608,151615.72,152115.58,,30,how
screen,html.Screen,2_1_0_1_31,2022-05-12T10:54:55.171Z,,,,,,,,,,,,,,,,,53,,,,,,,,,,,,,,503.4200000000128,,response,,,,99,,,,,,,Space,keypress(Space),,,,,,,,---- -- ----- -- ------ - ------- --- ----------<br>------------- ------ ------ ---- ---- ------- ----- -- ----<br>-------- ------- -- ---------- --- - --- ----- ----- ----<br>---- --- --- close --- ---- ---- ------- ----- ---- -------<br>--- --- -- ----- -- --- ---- -- --- ---- -- ------ ------<br>--- ----- -- ----,152620,152619,152105.84,152106,152115.58,152632.22,,31,close
screen,html.Screen,2_1_0_1_32,2022-05-12T10:54:55.631Z,,,,,,,,,,,,,,,,,53,,,,,,,,,,,,,,446.77999999999884,,response,,,,99,,,,,,,Space,keypress(Space),,,,,,,,---- -- ----- -- ------ - ------- --- ----------<br>------------- ------ ------ ---- ---- ------- ----- -- ----<br>-------- ------- -- ---------- --- - --- ----- ----- ----<br>---- --- --- ----- you ---- ---- ------- ----- ---- -------<br>--- --- -- ----- -- --- ---- -- --- ---- -- ------ ------<br>--- ----- -- ----,153080,153079,152620.8,152621,152632.22,153082.26,,32,you
screen,html.Screen,2_1_0_1_33,2022-05-12T10:54:56.163Z,,,,,,,,,,,,,,,,,53,,,,,,,,,,,,,,529.7399999999907,,response,,,,99,,,,,,,Space,keypress(Space),,,,,,,,---- -- ----- -- ------ - ------- --- ----------<br>------------- ------ ------ ---- ---- ------- ----- -- ----<br>-------- ------- -- ---------- --- - --- ----- ----- ----<br>---- --- --- ----- --- feel ---- ------- ----- ---- -------<br>--- --- -- ----- -- --- ---- -- --- ---- -- ------ ------<br>--- ----- -- ----,153613,153612,153081.3,153081,153082.26,153615.44,,33,feel
screen,html.Screen,2_1_0_1_34,2022-05-12T10:54:56.916Z,,,,,,,,,,,,,,,,,53,,,,,,,,,,,,,,748.5599999999977,,response,,,,99,,,,,,,Space,keypress(Space),,,,,,,,---- -- ----- -- ------ - ------- --- ----------<br>------------- ------ ------ ---- ---- ------- ----- -- ----<br>-------- ------- -- ---------- --- - --- ----- ----- ----<br>---- --- --- ----- --- ---- that ------- ----- ---- -------<br>--- --- -- ----- -- --- ---- -- --- ---- -- ------ ------<br>--- ----- -- ----,154365,154364,153613.02,153613,153615.44,154382.02,,34,that
screen,html.Screen,2_1_0_1_35,2022-05-12T10:54:57.507Z,,,,,,,,,,,,,,,,,53,,,,,,,,,,,,,,573.9800000000105,,response,,,,99,,,,,,,Space,keypress(Space),,,,,,,,---- -- ----- -- ------ - ------- --- ----------<br>------------- ------ ------ ---- ---- ------- ----- -- ----<br>-------- ------- -- ---------- --- - --- ----- ----- ----<br>---- --- --- ----- --- ---- ---- matters ----- ---- -------<br>--- --- -- ----- -- --- ---- -- --- ---- -- ------ ------<br>--- ----- -- ----,154956,154956,154365.28,154365,154382.02,154965.22,,35,matters
screen,html.Screen,2_1_0_1_36,2022-05-12T10:54:58.074Z,,,,,,,,,,,,,,,,,53,,,,,,,,,,,,,,556.7799999999988,,response,,,,99,,,,,,,Space,keypress(Space),,,,,,,,"---- -- ----- -- ------ - ------- --- ----------<br>------------- ------ ------ ---- ---- ------- ----- -- ----<br>-------- ------- -- ---------- --- - --- ----- ----- ----<br>---- --- --- ----- --- ---- ---- ------- most, ---- -------<br>--- --- -- ----- -- --- ---- -- --- ---- -- ------ ------<br>--- ----- -- ----",155523,155522,154956.24,154956,154965.22,155531.76,,36,"most,"
screen,html.Screen,2_1_0_1_37,2022-05-12T10:54:58.592Z,,,,,,,,,,,,,,,,,53,,,,,,,,,,,,,,508.2399999999907,,response,,,,99,,,,,,,Space,keypress(Space),,,,,,,,---- -- ----- -- ------ - ------- --- ----------<br>------------- ------ ------ ---- ---- ------- ----- -- ----<br>-------- ------- -- ---------- --- - --- ----- ----- ----<br>---- --- --- ----- --- ---- ---- ------- ----- it's -------<br>--- --- -- ----- -- --- ---- -- --- ---- -- ------ ------<br>--- ----- -- ----,156041,156040,155523.6,155524,155531.76,156048.36,,37,it's
screen,html.Screen,2_1_0_1_38,2022-05-12T10:54:59.132Z,,,,,,,,,,,,,,,,,53,,,,,,,,,,,,,,532.640000000014,,response,,,,99,,,,,,,Space,keypress(Space),,,,,,,,---- -- ----- -- ------ - ------- --- ----------<br>------------- ------ ------ ---- ---- ------- ----- -- ----<br>-------- ------- -- ---------- --- - --- ----- ----- ----<br>---- --- --- ----- --- ---- ---- ------- ----- ---- whether<br>--- --- -- ----- -- --- ---- -- --- ---- -- ------ ------<br>--- ----- -- ----,156581,156581,156040.98,156041,156048.36,156598.32,,38,whether
screen,html.Screen,2_1_0_1_39,2022-05-12T10:54:59.615Z,,,,,,,,,,,,,,,,,53,,,,,,,,,,,,,,464.679999999993,,response,,,,99,,,,,,,Space,keypress(Space),,,,,,,,---- -- ----- -- ------ - ------- --- ----------<br>------------- ------ ------ ---- ---- ------- ----- -- ----<br>-------- ------- -- ---------- --- - --- ----- ----- ----<br>---- --- --- ----- --- ---- ---- ------- ----- ---- -------<br>you --- -- ----- -- --- ---- -- --- ---- -- ------ ------<br>--- ----- -- ----,157064,157063,156581.52,156581,156598.32,157081.68,,39,you
screen,html.Screen,2_1_0_1_40,2022-05-12T10:55:00.078Z,,,,,,,,,,,,,,,,,53,,,,,,,,,,,,,,444.320000000007,,response,,,,99,,,,,,,Space,keypress(Space),,,,,,,,---- -- ----- -- ------ - ------- --- ----------<br>------------- ------ ------ ---- ---- ------- ----- -- ----<br>-------- ------- -- ---------- --- - --- ----- ----- ----<br>---- --- --- ----- --- ---- ---- ------- ----- ---- -------<br>--- are -- ----- -- --- ---- -- --- ---- -- ------ ------<br>--- ----- -- ----,157527,157526,157065,157065,157081.68,157531.5,,40,are
screen,html.Screen,2_1_0_1_41,2022-05-12T10:55:00.511Z,,,,,,,,,,,,,,,,,53,,,,,,,,,,,,,,428.5,,response,,,,99,,,,,,,Space,keypress(Space),,,,,,,,---- -- ----- -- ------ - ------- --- ----------<br>------------- ------ ------ ---- ---- ------- ----- -- ----<br>-------- ------- -- ---------- --- - --- ----- ----- ----<br>---- --- --- ----- --- ---- ---- ------- ----- ---- -------<br>--- --- as ----- -- --- ---- -- --- ---- -- ------ ------<br>--- ----- -- ----,157961,157960,157527.26,157527,157531.5,157964.7,,41,as
screen,html.Screen,2_1_0_1_42,2022-05-12T10:55:00.926Z,,,,,,,,,,,,,,,,,53,,,,,,,,,,,,,,409.29999999998836,,response,,,,99,,,,,,,Space,keypress(Space),,,,,,,,---- -- ----- -- ------ - ------- --- ----------<br>------------- ------ ------ ---- ---- ------- ----- -- ----<br>-------- ------- -- ---------- --- - --- ----- ----- ----<br>---- --- --- ----- --- ---- ---- ------- ----- ---- -------<br>--- --- -- close -- --- ---- -- --- ---- -- ------ ------<br>--- ----- -- ----,158375,158374,157960.86,157961,157964.7,158381.44,,42,close
screen,html.Screen,2_1_0_1_43,2022-05-12T10:55:01.543Z,,,,,,,,,,,,,,,,,53,,,,,,,,,,,,,,610.5599999999977,,response,,,,99,,,,,,,Space,keypress(Space),,,,,,,,---- -- ----- -- ------ - ------- --- ----------<br>------------- ------ ------ ---- ---- ------- ----- -- ----<br>-------- ------- -- ---------- --- - --- ----- ----- ----<br>---- --- --- ----- --- ---- ---- ------- ----- ---- -------<br>--- --- -- ----- as --- ---- -- --- ---- -- ------ ------<br>--- ----- -- ----,158993,158992,158375.64,158375,158381.44,158998,,43,as
screen,html.Screen,2_1_0_1_44,2022-05-12T10:55:01.977Z,,,,,,,,,,,,,,,,,53,,,,,,,,,,,,,,427,,response,,,,99,,,,,,,Space,keypress(Space),,,,,,,,---- -- ----- -- ------ - ------- --- ----------<br>------------- ------ ------ ---- ---- ------- ----- -- ----<br>-------- ------- -- ---------- --- - --- ----- ----- ----<br>---- --- --- ----- --- ---- ---- ------- ----- ---- -------<br>--- --- -- ----- -- you ---- -- --- ---- -- ------ ------<br>--- ----- -- ----,159426,159425,158993,158993,158998,159431.24,,44,you
screen,html.Screen,2_1_0_1_45,2022-05-12T10:55:02.514Z,,,,,,,,,,,,,,,,,53,,,,,,,,,,,,,,530.7600000000093,,response,,,,99,,,,,,,Space,keypress(Space),,,,,,,,---- -- ----- -- ------ - ------- --- ----------<br>------------- ------ ------ ---- ---- ------- ----- -- ----<br>-------- ------- -- ---------- --- - --- ----- ----- ----<br>---- --- --- ----- --- ---- ---- ------- ----- ---- -------<br>--- --- -- ----- -- --- want -- --- ---- -- ------ ------<br>--- ----- -- ----,159963,159962,159426.96,159427,159431.24,159964.42,,45,want
screen,html.Screen,2_1_0_1_46,2022-05-12T10:55:02.998Z,,,,,,,,,,,,,,,,,53,,,,,,,,,,,,,,481.5799999999872,,response,,,,99,,,,,,,Space,keypress(Space),,,,,,,,---- -- ----- -- ------ - ------- --- ----------<br>------------- ------ ------ ---- ---- ------- ----- -- ----<br>-------- ------- -- ---------- --- - --- ----- ----- ----<br>---- --- --- ----- --- ---- ---- ------- ----- ---- -------<br>--- --- -- ----- -- --- ---- to --- ---- -- ------ ------<br>--- ----- -- ----,160447,160446,159963.58,159964,159964.42,160464.42,,46,to
screen,html.Screen,2_1_0_1_47,2022-05-12T10:55:03.805Z,,,,,,,,,,,,,,,,,53,,,,,,,,,,,,,,789.5799999999872,,response,,,,99,,,,,,,Space,keypress(Space),,,,,,,,"---- -- ----- -- ------ - ------- --- ----------<br>------------- ------ ------ ---- ---- ------- ----- -- ----<br>-------- ------- -- ---------- --- - --- ----- ----- ----<br>---- --- --- ----- --- ---- ---- ------- ----- ---- -------<br>--- --- -- ----- -- --- ---- -- be, ---- -- ------ ------<br>--- ----- -- ----",161255,161254,160447.4,160448,160464.42,161264.36,,47,"be,"
screen,html.Screen,2_1_0_1_48,2022-05-12T10:55:04.361Z,,,,,,,,,,,,,,,,,53,,,,,,,,,,,,,,545.640000000014,,response,,,,99,,,,,,,Space,keypress(Space),,,,,,,,---- -- ----- -- ------ - ------- --- ----------<br>------------- ------ ------ ---- ---- ------- ----- -- ----<br>-------- ------- -- ---------- --- - --- ----- ----- ----<br>---- --- --- ----- --- ---- ---- ------- ----- ---- -------<br>--- --- -- ----- -- --- ---- -- --- even -- ------ ------<br>--- ----- -- ----,161810,161810,161254.7,161255,161264.36,161814.2,,48,even
screen,html.Screen,2_1_0_1_49,2022-05-12T10:55:04.815Z,,,,,,,,,,,,,,,,,53,,,,,,,,,,,,,,449.79999999998836,,response,,,,99,,,,,,,Space,keypress(Space),,,,,,,,---- -- ----- -- ------ - ------- --- ----------<br>------------- ------ ------ ---- ---- ------- ----- -- ----<br>-------- ------- -- ---------- --- - --- ----- ----- ----<br>---- --- --- ----- --- ---- ---- ------- ----- ---- -------<br>--- --- -- ----- -- --- ---- -- --- ---- if ------ ------<br>--- ----- -- ----,162265,162264,161810.76,161811,161814.2,162280.72,,49,if
screen,html.Screen,2_1_0_1_50,2022-05-12T10:55:05.225Z,,,,,,,,,,,,,,,,,53,,,,,,,,,,,,,,392.27999999999884,,response,,,,99,,,,,,,Space,keypress(Space),,,,,,,,---- -- ----- -- ------ - ------- --- ----------<br>------------- ------ ------ ---- ---- ------- ----- -- ----<br>-------- ------- -- ---------- --- - --- ----- ----- ----<br>---- --- --- ----- --- ---- ---- ------- ----- ---- -------<br>--- --- -- ----- -- --- ---- -- --- ---- -- that's ------<br>--- ----- -- ----,162674,162673,162264.58,162265,162280.72,162680.68,,50,that's
screen,html.Screen,2_1_0_1_51,2022-05-12T10:55:05.636Z,,,,,,,,,,,,,,,,,53,,,,,,,,,,,,,,403.320000000007,,response,,,,99,,,,,,,Space,keypress(Space),,,,,,,,---- -- ----- -- ------ - ------- --- ----------<br>------------- ------ ------ ---- ---- ------- ----- -- ----<br>-------- ------- -- ---------- --- - --- ----- ----- ----<br>---- --- --- ----- --- ---- ---- ------- ----- ---- -------<br>--- --- -- ----- -- --- ---- -- --- ---- -- ------ really<br>--- ----- -- ----,163085,163084,162674.02,162674,162680.68,163097.42,,51,really
screen,html.Screen,2_1_0_1_52,2022-05-12T10:55:06.124Z,,,,,,,,,,,,,,,,,53,,,,,,,,,,,,,,474.5799999999872,,response,,,,99,,,,,,,Space,keypress(Space),,,,,,,,---- -- ----- -- ------ - ------- --- ----------<br>------------- ------ ------ ---- ---- ------- ----- -- ----<br>-------- ------- -- ---------- --- - --- ----- ----- ----<br>---- --- --- ----- --- ---- ---- ------- ----- ---- -------<br>--- --- -- ----- -- --- ---- -- --- ---- -- ------ ------<br>not ----- -- ----,163573,163572,163085.26,163085,163097.42,163580.6,,52,not
screen,html.Screen,2_1_0_1_53,2022-05-12T10:55:06.643Z,,,,,,,,,,,,,,,,,53,,,,,,,,,,,,,,511.3999999999942,,response,,,,99,,,,,,,Space,keypress(Space),,,,,,,,---- -- ----- -- ------ - ------- --- ----------<br>------------- ------ ------ ---- ---- ------- ----- -- ----<br>-------- ------- -- ---------- --- - --- ----- ----- ----<br>---- --- --- ----- --- ---- ---- ------- ----- ---- -------<br>--- --- -- ----- -- --- ---- -- --- ---- -- ------ ------<br>--- close -- ----,164093,164092,163573.8,163574,163580.6,164097.18,,53,close
screen,html.Screen,2_1_0_1_54,2022-05-12T10:55:07.070Z,,,,,,,,,,,,,,,,,53,,,,,,,,,,,,,,419.820000000007,,response,,,,99,,,,,,,Space,keypress(Space),,,,,,,,---- -- ----- -- ------ - ------- --- ----------<br>------------- ------ ------ ---- ---- ------- ----- -- ----<br>-------- ------- -- ---------- --- - --- ----- ----- ----<br>---- --- --- ----- --- ---- ---- ------- ----- ---- -------<br>--- --- -- ----- -- --- ---- -- --- ---- -- ------ ------<br>--- ----- at ----,164519,164517,164093.44,164093,164097.18,164530.46,,54,at
screen,html.Screen,2_1_0_1_55,2022-05-12T10:55:08.536Z,,,,,,,,,,,,,,,,,53,,,,,,,,,,,,,,1454.5400000000081,,response,,,,99,,,,,,,Space,keypress(Space),,,,,,,,---- -- ----- -- ------ - ------- --- ----------<br>------------- ------ ------ ---- ---- ------- ----- -- ----<br>-------- ------- -- ---------- --- - --- ----- ----- ----<br>---- --- --- ----- --- ---- ---- ------- ----- ---- -------<br>--- --- -- ----- -- --- ---- -- --- ---- -- ------ ------<br>--- ----- -- all.,165985,165985,164520.14,164520,164530.46,165996.82,,55,all.
Item 99,flow.Loop,2_1_0_1,2022-05-12T10:55:08.539Z,,,,,,,,,,,,,,,,,,,,,,,,,,,,,,,36965.82000000001,,completion,,,,,D,,,,,,,,,,,silence,,,,,165987,165985,129002.56,129005,129019.18,165996.82,,,
Question 1,html.Screen,2_1_0_2,2022-05-12T10:55:11.754Z,,,,,,,,,,,,,,,,,,,,,,,,,,,,true,FALSE,,3202.179999999993,,response,,,,99,D,,,,,,FALSE,click #choice-2,,,,silence,,,,,169204,169199,165988.08,165988,165996.82,169213.06,,,
Question 2,html.Screen,2_1_0_3,2022-05-12T10:55:14.657Z,,,,,,,,,,,,,,,,,,,,,,,,,,,,true,TRUE,,2889.9400000000023,,response,,,,99,D,,,,,,TRUE,click #choice-1,,,,silence,,,,,172105,172103,169201.5,169204,169213.06,172112.58,,,
Item 99,flow.Sequence,2_1_0,2022-05-12T10:55:14.657Z,,,,,,,,,,,,,,,,,,,,,,,,,,,,,,,53082.399999999994,,completion,,,,,,,,,,,,,,,,,,,,,172106,172103,119011.04,119018,119020.6,172112.58,,,
Holding screen,html.Screen,2_1_1_0,2022-05-12T10:55:24.647Z,,,,,,,,,,,,,,,,,,,,,,,,,,,,,,,9998.580000000016,,timeout,,,,,,,,,,,,,,,,,,,,,182096,182094.64,172104.42,172106,172112.58,182111.16,,,
screen,html.Screen,2_1_1_1_0,2022-05-12T10:55:25.375Z,,,,,,,,,,,,,,,,,54,,,,,,,,,,,,,,712.8399999999965,,response,,,,100,,,,,,,Space,keypress(Space),,,,,,,,At --- ---- --- ------ ----- ------- ---- -- --- ------- --<br>------- ---------- ------ -- ----- -- ----- -- ---- ------<br>--- ----- --- --- ------ -------- ----- --- ------ ----- --<br>----- ----- ---------- --- --- ------ ------ ---- -- ------<br>------- --- ------ ----- --- ---- ------- -- ---- --- --<br>------- ------,182825,182824,182094.64,182097,182111.16,182827.64,,0,At
screen,html.Screen,2_1_1_1_1,2022-05-12T10:55:25.782Z,,,,,,,,,,,,,,,,,54,,,,,,,,,,,,,,402.35999999998603,,response,,,,100,,,,,,,Space,keypress(Space),,,,,,,,-- the ---- --- ------ ----- ------- ---- -- --- ------- --<br>------- ---------- ------ -- ----- -- ----- -- ---- ------<br>--- ----- --- --- ------ -------- ----- --- ------ ----- --<br>----- ----- ---------- --- --- ------ ------ ---- -- ------<br>------- --- ------ ----- --- ---- ------- -- ---- --- --<br>------- ------,183231,183230,182824.84,182825,182827.64,183244.26,,1,the
screen,html.Screen,2_1_1_1_2,2022-05-12T10:55:26.191Z,,,,,,,,,,,,,,,,,54,,,,,,,,,,,,,,394.7399999999907,,response,,,,100,,,,,,,Space,keypress(Space),,,,,,,,-- --- time --- ------ ----- ------- ---- -- --- ------- --<br>------- ---------- ------ -- ----- -- ----- -- ---- ------<br>--- ----- --- --- ------ -------- ----- --- ------ ----- --<br>----- ----- ---------- --- --- ------ ------ ---- -- ------<br>------- --- ------ ----- --- ---- ------- -- ---- --- --<br>------- ------,183640,183639,183232.14,183232,183244.26,183644.3,,2,time
screen,html.Screen,2_1_1_1_3,2022-05-12T10:55:26.619Z,,,,,,,,,,,,,,,,,54,,,,,,,,,,,,,,422.70000000001164,,response,,,,100,,,,,,,Space,keypress(Space),,,,,,,,-- --- ---- the ------ ----- ------- ---- -- --- ------- --<br>------- ---------- ------ -- ----- -- ----- -- ---- ------<br>--- ----- --- --- ------ -------- ----- --- ------ ----- --<br>----- ----- ---------- --- --- ------ ------ ---- -- ------<br>------- --- ------ ----- --- ---- ------- -- ---- --- --<br>------- ------,184068,184067,183640.92,183641,183644.3,184077.6,,3,the
screen,html.Screen,2_1_1_1_4,2022-05-12T10:55:26.958Z,,,,,,,,,,,,,,,,,54,,,,,,,,,,,,,,328.3999999999942,,response,,,,100,,,,,,,Space,keypress(Space),,,,,,,,-- --- ---- --- French ----- ------- ---- -- --- ------- --<br>------- ---------- ------ -- ----- -- ----- -- ---- ------<br>--- ----- --- --- ------ -------- ----- --- ------ ----- --<br>----- ----- ---------- --- --- ------ ------ ---- -- ------<br>------- --- ------ ----- --- ---- ------- -- ---- --- --<br>------- ------,184407,184406,184068.44,184068,184077.6,184410.8,,4,French
screen,html.Screen,2_1_1_1_5,2022-05-12T10:55:27.445Z,,,,,,,,,,,,,,,,,54,,,,,,,,,,,,,,481.20000000001164,,response,,,,100,,,,,,,Space,keypress(Space),,,,,,,,-- --- ---- --- ------ crown ------- ---- -- --- ------- --<br>------- ---------- ------ -- ----- -- ----- -- ---- ------<br>--- ----- --- --- ------ -------- ----- --- ------ ----- --<br>----- ----- ---------- --- --- ------ ------ ---- -- ------<br>------- --- ------ ----- --- ---- ------- -- ---- --- --<br>------- ------,184893,184892,184407.88,184408,184410.8,184910.68,,5,crown
screen,html.Screen,2_1_1_1_6,2022-05-12T10:55:27.835Z,,,,,,,,,,,,,,,,,54,,,,,,,,,,,,,,372.320000000007,,response,,,,100,,,,,,,Space,keypress(Space),,,,,,,,-- --- ---- --- ------ ----- secured ---- -- --- ------- --<br>------- ---------- ------ -- ----- -- ----- -- ---- ------<br>--- ----- --- --- ------ -------- ----- --- ------ ----- --<br>----- ----- ---------- --- --- ------ ------ ---- -- ------<br>------- --- ------ ----- --- ---- ------- -- ---- --- --<br>------- ------,185285,185283,184894.18,184895,184910.68,185294.06,,6,secured
screen,html.Screen,2_1_1_1_7,2022-05-12T10:55:28.354Z,,,,,,,,,,,,,,,,,54,,,,,,,,,,,,,,507.9400000000023,,response,,,,100,,,,,,,Space,keypress(Space),,,,,,,,-- --- ---- --- ------ ----- ------- much -- --- ------- --<br>------- ---------- ------ -- ----- -- ----- -- ---- ------<br>--- ----- --- --- ------ -------- ----- --- ------ ----- --<br>----- ----- ---------- --- --- ------ ------ ---- -- ------<br>------- --- ------ ----- --- ---- ------- -- ---- --- --<br>------- ------,185803,185802,185285.42,185285,185294.06,185810.54,,7,much
screen,html.Screen,2_1_1_1_8,2022-05-12T10:55:28.805Z,,,,,,,,,,,,,,,,,54,,,,,,,,,,,,,,442.45999999999185,,response,,,,100,,,,,,,Space,keypress(Space),,,,,,,,-- --- ---- --- ------ ----- ------- ---- of --- ------- --<br>------- ---------- ------ -- ----- -- ----- -- ---- ------<br>--- ----- --- --- ------ -------- ----- --- ------ ----- --<br>----- ----- ---------- --- --- ------ ------ ---- -- ------<br>------- --- ------ ----- --- ---- ------- -- ---- --- --<br>------- ------,186255,186253,185803.9,185804,185810.54,186260.5,,8,of
screen,html.Screen,2_1_1_1_9,2022-05-12T10:55:29.176Z,,,,,,,,,,,,,,,,,54,,,,,,,,,,,,,,364.5,,response,,,,100,,,,,,,Space,keypress(Space),,,,,,,,-- --- ---- --- ------ ----- ------- ---- -- its ------- --<br>------- ---------- ------ -- ----- -- ----- -- ---- ------<br>--- ----- --- --- ------ -------- ----- --- ------ ----- --<br>----- ----- ---------- --- --- ------ ------ ---- -- ------<br>------- --- ------ ----- --- ---- ------- -- ---- --- --<br>------- ------,186625,186625,186254.32,186255,186260.5,186627.04,,9,its
screen,html.Screen,2_1_1_1_10,2022-05-12T10:55:29.595Z,,,,,,,,,,,,,,,,,54,,,,,,,,,,,,,,414.95999999999185,,response,,,,100,,,,,,,Space,keypress(Space),,,,,,,,-- --- ---- --- ------ ----- ------- ---- -- --- revenue --<br>------- ---------- ------ -- ----- -- ----- -- ---- ------<br>--- ----- --- --- ------ -------- ----- --- ------ ----- --<br>----- ----- ---------- --- --- ------ ------ ---- -- ------<br>------- --- ------ ----- --- ---- ------- -- ---- --- --<br>------- ------,187044,187042,186625.76,186626,186627.04,187060.42,,10,revenue
screen,html.Screen,2_1_1_1_11,2022-05-12T10:55:30.076Z,,,,,,,,,,,,,,,,,54,,,,,,,,,,,,,,463.5799999999872,,response,,,,100,,,,,,,Space,keypress(Space),,,,,,,,-- --- ---- --- ------ ----- ------- ---- -- --- ------- by<br>------- ---------- ------ -- ----- -- ----- -- ---- ------<br>--- ----- --- --- ------ -------- ----- --- ------ ----- --<br>----- ----- ---------- --- --- ------ ------ ---- -- ------<br>------- --- ------ ----- --- ---- ------- -- ---- --- --<br>------- ------,187525,187524,187045.04,187045,187060.42,187526.94,,11,by
screen,html.Screen,2_1_1_1_12,2022-05-12T10:55:30.548Z,,,,,,,,,,,,,,,,,54,,,,,,,,,,,,,,470.0599999999977,,response,,,,100,,,,,,,Space,keypress(Space),,,,,,,,-- --- ---- --- ------ ----- ------- ---- -- --- ------- --<br>issuing ---------- ------ -- ----- -- ----- -- ---- ------<br>--- ----- --- --- ------ -------- ----- --- ------ ----- --<br>----- ----- ---------- --- --- ------ ------ ---- -- ------<br>------- --- ------ ----- --- ---- ------- -- ---- --- --<br>------- ------,187997,187997,187525.56,187525,187526.94,188010.22,,12,issuing
screen,html.Screen,2_1_1_1_13,2022-05-12T10:55:30.996Z,,,,,,,,,,,,,,,,,54,,,,,,,,,,,,,,433.77999999999884,,response,,,,100,,,,,,,Space,keypress(Space),,,,,,,,-- --- ---- --- ------ ----- ------- ---- -- --- ------- --<br>------- government ------ -- ----- -- ----- -- ---- ------<br>--- ----- --- --- ------ -------- ----- --- ------ ----- --<br>----- ----- ---------- --- --- ------ ------ ---- -- ------<br>------- --- ------ ----- --- ---- ------- -- ---- --- --<br>------- ------,188445,188444,187997.32,187997,188010.22,188460.18,,13,government
screen,html.Screen,2_1_1_1_14,2022-05-12T10:55:31.910Z,,,,,,,,,,,,,,,,,54,,,,,,,,,,,,,,898.820000000007,,response,,,,100,,,,,,,Space,keypress(Space),,,,,,,,-- --- ---- --- ------ ----- ------- ---- -- --- ------- --<br>------- ---------- bonds. -- ----- -- ----- -- ---- ------<br>--- ----- --- --- ------ -------- ----- --- ------ ----- --<br>----- ----- ---------- --- --- ------ ------ ---- -- ------<br>------- --- ------ ----- --- ---- ------- -- ---- --- --<br>------- ------,189360,189359,188445.82,188445,188460.18,189376.7,,14,bonds.
screen,html.Screen,2_1_1_1_15,2022-05-12T10:55:32.244Z,,,,,,,,,,,,,,,,,54,,,,,,,,,,,,,,315.29999999998836,,response,,,,100,,,,,,,Space,keypress(Space),,,,,,,,-- --- ---- --- ------ ----- ------- ---- -- --- ------- --<br>------- ---------- ------ In ----- -- ----- -- ---- ------<br>--- ----- --- --- ------ -------- ----- --- ------ ----- --<br>----- ----- ---------- --- --- ------ ------ ---- -- ------<br>------- --- ------ ----- --- ---- ------- -- ---- --- --<br>------- ------,189694,189692,189360.32,189360,189376.7,189709.92,,15,In
screen,html.Screen,2_1_1_1_16,2022-05-12T10:55:32.629Z,,,,,,,,,,,,,,,,,54,,,,,,,,,,,,,,367.0799999999872,,response,,,,100,,,,,,,Space,keypress(Space),,,,,,,,"-- --- ---- --- ------ ----- ------- ---- -- --- ------- --<br>------- ---------- ------ -- 1727, -- ----- -- ---- ------<br>--- ----- --- --- ------ -------- ----- --- ------ ----- --<br>----- ----- ---------- --- --- ------ ------ ---- -- ------<br>------- --- ------ ----- --- ---- ------- -- ---- --- --<br>------- ------",190078,190077,189694.34,189694,189709.92,190093.24,,16,"1727,"
screen,html.Screen,2_1_1_1_17,2022-05-12T10:55:33.352Z,,,,,,,,,,,,,,,,,54,,,,,,,,,,,,,,707.7600000000093,,response,,,,100,,,,,,,Space,keypress(Space),,,,,,,,-- --- ---- --- ------ ----- ------- ---- -- --- ------- --<br>------- ---------- ------ -- ----- in ----- -- ---- ------<br>--- ----- --- --- ------ -------- ----- --- ------ ----- --<br>----- ----- ---------- --- --- ------ ------ ---- -- ------<br>------- --- ------ ----- --- ---- ------- -- ---- --- --<br>------- ------,190802,190801,190077.94,190078,190093.24,190809.84,,17,in
screen,html.Screen,2_1_1_1_18,2022-05-12T10:55:33.872Z,,,,,,,,,,,,,,,,,54,,,,,,,,,,,,,,510.1600000000035,,response,,,,100,,,,,,,Space,keypress(Space),,,,,,,,-- --- ---- --- ------ ----- ------- ---- -- --- ------- --<br>------- ---------- ------ -- ----- -- order -- ---- ------<br>--- ----- --- --- ------ -------- ----- --- ------ ----- --<br>----- ----- ---------- --- --- ------ ------ ---- -- ------<br>------- --- ------ ----- --- ---- ------- -- ---- --- --<br>------- ------,191321,191320,190802.28,190802,190809.84,191326.44,,18,order
screen,html.Screen,2_1_1_1_19,2022-05-12T10:55:34.360Z,,,,,,,,,,,,,,,,,54,,,,,,,,,,,,,,480.5599999999977,,response,,,,100,,,,,,,Space,keypress(Space),,,,,,,,-- --- ---- --- ------ ----- ------- ---- -- --- ------- --<br>------- ---------- ------ -- ----- -- ----- to ---- ------<br>--- ----- --- --- ------ -------- ----- --- ------ ----- --<br>----- ----- ---------- --- --- ------ ------ ---- -- ------<br>------- --- ------ ----- --- ---- ------- -- ---- --- --<br>------- ------,191808,191807,191321.56,191322,191326.44,191826.46,,19,to
screen,html.Screen,2_1_1_1_20,2022-05-12T10:55:34.733Z,,,,,,,,,,,,,,,,,54,,,,,,,,,,,,,,354.54000000000815,,response,,,,100,,,,,,,Space,keypress(Space),,,,,,,,-- --- ---- --- ------ ----- ------- ---- -- --- ------- --<br>------- ---------- ------ -- ----- -- ----- -- save ------<br>--- ----- --- --- ------ -------- ----- --- ------ ----- --<br>----- ----- ---------- --- --- ------ ------ ---- -- ------<br>------- --- ------ ----- --- ---- ------- -- ---- --- --<br>------- ------,192182,192181,191809.24,191809,191826.46,192192.96,,20,save
screen,html.Screen,2_1_1_1_21,2022-05-12T10:55:35.133Z,,,,,,,,,,,,,,,,,54,,,,,,,,,,,,,,387.04000000000815,,response,,,,100,,,,,,,Space,keypress(Space),,,,,,,,"-- --- ---- --- ------ ----- ------- ---- -- --- ------- --<br>------- ---------- ------ -- ----- -- ----- -- ---- money,<br>--- ----- --- --- ------ -------- ----- --- ------ ----- --<br>----- ----- ---------- --- --- ------ ------ ---- -- ------<br>------- --- ------ ----- --- ---- ------- -- ---- --- --<br>------- ------",192581,192580,192182.78,192183,192192.96,192592.92,,21,"money,"
screen,html.Screen,2_1_1_1_22,2022-05-12T10:55:35.593Z,,,,,,,,,,,,,,,,,54,,,,,,,,,,,,,,448.0799999999872,,response,,,,100,,,,,,,Space,keypress(Space),,,,,,,,-- --- ---- --- ------ ----- ------- ---- -- --- ------- --<br>------- ---------- ------ -- ----- -- ----- -- ---- ------<br>the ----- --- --- ------ -------- ----- --- ------ ----- --<br>----- ----- ---------- --- --- ------ ------ ---- -- ------<br>------- --- ------ ----- --- ---- ------- -- ---- --- --<br>------- ------,193042,193041,192581.92,192582,192592.92,193076.12,,22,the
screen,html.Screen,2_1_1_1_23,2022-05-12T10:55:35.991Z,,,,,,,,,,,,,,,,,54,,,,,,,,,,,,,,362.88000000000466,,response,,,,100,,,,,,,Space,keypress(Space),,,,,,,,-- --- ---- --- ------ ----- ------- ---- -- --- ------- --<br>------- ---------- ------ -- ----- -- ----- -- ---- ------<br>--- state --- --- ------ -------- ----- --- ------ ----- --<br>----- ----- ---------- --- --- ------ ------ ---- -- ------<br>------- --- ------ ----- --- ---- ------- -- ---- --- --<br>------- ------,193440,193439,193042.44,193042,193076.12,193442.7,,23,state
screen,html.Screen,2_1_1_1_24,2022-05-12T10:55:36.444Z,,,,,,,,,,,,,,,,,54,,,,,,,,,,,,,,449.29999999998836,,response,,,,100,,,,,,,Space,keypress(Space),,,,,,,,-- --- ---- --- ------ ----- ------- ---- -- --- ------- --<br>------- ---------- ------ -- ----- -- ----- -- ---- ------<br>--- ----- cut --- ------ -------- ----- --- ------ ----- --<br>----- ----- ---------- --- --- ------ ------ ---- -- ------<br>------- --- ------ ----- --- ---- ------- -- ---- --- --<br>------- ------,193893,193892,193440.6,193440,193442.7,193909.4,,24,cut
screen,html.Screen,2_1_1_1_25,2022-05-12T10:55:36.954Z,,,,,,,,,,,,,,,,,54,,,,,,,,,,,,,,493.6000000000058,,response,,,,100,,,,,,,Space,keypress(Space),,,,,,,,-- --- ---- --- ------ ----- ------- ---- -- --- ------- --<br>------- ---------- ------ -- ----- -- ----- -- ---- ------<br>--- ----- --- the ------ -------- ----- --- ------ ----- --<br>----- ----- ---------- --- --- ------ ------ ---- -- ------<br>------- --- ------ ----- --- ---- ------- -- ---- --- --<br>------- ------,194404,194403,193892.94,193893,193909.4,194409.2,,25,the
screen,html.Screen,2_1_1_1_26,2022-05-12T10:55:37.433Z,,,,,,,,,,,,,,,,,54,,,,,,,,,,,,,,471.79999999998836,,response,,,,100,,,,,,,Space,keypress(Space),,,,,,,,-- --- ---- --- ------ ----- ------- ---- -- --- ------- --<br>------- ---------- ------ -- ----- -- ----- -- ---- ------<br>--- ----- --- --- bonds' -------- ----- --- ------ ----- --<br>----- ----- ---------- --- --- ------ ------ ---- -- ------<br>------- --- ------ ----- --- ---- ------- -- ---- --- --<br>------- ------,194882,194881,194404.26,194404,194409.2,194892.62,,26,bonds'
screen,html.Screen,2_1_1_1_27,2022-05-12T10:55:37.864Z,,,,,,,,,,,,,,,,,54,,,,,,,,,,,,,,418.38000000000466,,response,,,,100,,,,,,,Space,keypress(Space),,,,,,,,-- --- ---- --- ------ ----- ------- ---- -- --- ------- --<br>------- ---------- ------ -- ----- -- ----- -- ---- ------<br>--- ----- --- --- ------ interest ----- --- ------ ----- --<br>----- ----- ---------- --- --- ------ ------ ---- -- ------<br>------- --- ------ ----- --- ---- ------- -- ---- --- --<br>------- ------,195312,195311,194882.62,194882,194892.62,195325.8,,27,interest
screen,html.Screen,2_1_1_1_28,2022-05-12T10:55:38.299Z,,,,,,,,,,,,,,,,,54,,,,,,,,,,,,,,421.20000000001164,,response,,,,100,,,,,,,Space,keypress(Space),,,,,,,,-- --- ---- --- ------ ----- ------- ---- -- --- ------- --<br>------- ---------- ------ -- ----- -- ----- -- ---- ------<br>--- ----- --- --- ------ -------- rate. --- ------ ----- --<br>----- ----- ---------- --- --- ------ ------ ---- -- ------<br>------- --- ------ ----- --- ---- ------- -- ---- --- --<br>------- ------,195749,195747,195312.88,195313,195325.8,195759.14,,28,rate.
screen,html.Screen,2_1_1_1_29,2022-05-12T10:55:38.831Z,,,,,,,,,,,,,,,,,54,,,,,,,,,,,,,,519.859999999986,,response,,,,100,,,,,,,Space,keypress(Space),,,,,,,,-- --- ---- --- ------ ----- ------- ---- -- --- ------- --<br>------- ---------- ------ -- ----- -- ----- -- ---- ------<br>--- ----- --- --- ------ -------- ----- The ------ ----- --<br>----- ----- ---------- --- --- ------ ------ ---- -- ------<br>------- --- ------ ----- --- ---- ------- -- ---- --- --<br>------- ------,196280,196279,195748.74,195749,195759.14,196292.3,,29,The
screen,html.Screen,2_1_1_1_30,2022-05-12T10:55:39.281Z,,,,,,,,,,,,,,,,,54,,,,,,,,,,,,,,436.70000000001164,,response,,,,100,,,,,,,Space,keypress(Space),,,,,,,,-- --- ---- --- ------ ----- ------- ---- -- --- ------- --<br>------- ---------- ------ -- ----- -- ----- -- ---- ------<br>--- ----- --- --- ------ -------- ----- --- market ----- --<br>----- ----- ---------- --- --- ------ ------ ---- -- ------<br>------- --- ------ ----- --- ---- ------- -- ---- --- --<br>------- ------,196730,196729,196280.36,196280,196292.3,196742.2,,30,market
screen,html.Screen,2_1_1_1_31,2022-05-12T10:55:39.686Z,,,,,,,,,,,,,,,,,54,,,,,,,,,,,,,,390.79999999998836,,response,,,,100,,,,,,,Space,keypress(Space),,,,,,,,-- --- ---- --- ------ ----- ------- ---- -- --- ------- --<br>------- ---------- ------ -- ----- -- ----- -- ---- ------<br>--- ----- --- --- ------ -------- ----- --- ------ value --<br>----- ----- ---------- --- --- ------ ------ ---- -- ------<br>------- --- ------ ----- --- ---- ------- -- ---- --- --<br>------- ------,197135,197133,196730.66,196730,196742.2,197142.28,,31,value
screen,html.Screen,2_1_1_1_32,2022-05-12T10:55:40.121Z,,,,,,,,,,,,,,,,,54,,,,,,,,,,,,,,427.72000000000116,,response,,,,100,,,,,,,Space,keypress(Space),,,,,,,,-- --- ---- --- ------ ----- ------- ---- -- --- ------- --<br>------- ---------- ------ -- ----- -- ----- -- ---- ------<br>--- ----- --- --- ------ -------- ----- --- ------ ----- of<br>----- ----- ---------- --- --- ------ ------ ---- -- ------<br>------- --- ------ ----- --- ---- ------- -- ---- --- --<br>------- ------,197571,197570,197135.84,197135,197142.28,197575.48,,32,of
screen,html.Screen,2_1_1_1_33,2022-05-12T10:55:40.584Z,,,,,,,,,,,,,,,,,54,,,,,,,,,,,,,,456.5199999999895,,response,,,,100,,,,,,,Space,keypress(Space),,,,,,,,-- --- ---- --- ------ ----- ------- ---- -- --- ------- --<br>------- ---------- ------ -- ----- -- ----- -- ---- ------<br>--- ----- --- --- ------ -------- ----- --- ------ ----- --<br>these ----- ---------- --- --- ------ ------ ---- -- ------<br>------- --- ------ ----- --- ---- ------- -- ---- --- --<br>------- ------,198033,198032,197570.94,197571,197575.48,198042.1,,33,these
screen,html.Screen,2_1_1_1_34,2022-05-12T10:55:41.001Z,,,,,,,,,,,,,,,,,54,,,,,,,,,,,,,,405.8999999999942,,response,,,,100,,,,,,,Space,keypress(Space),,,,,,,,-- --- ---- --- ------ ----- ------- ---- -- --- ------- --<br>------- ---------- ------ -- ----- -- ----- -- ---- ------<br>--- ----- --- --- ------ -------- ----- --- ------ ----- --<br>----- bonds ---------- --- --- ------ ------ ---- -- ------<br>------- --- ------ ----- --- ---- ------- -- ---- --- --<br>------- ------,198449,198448,198033.44,198033,198042.1,198458.68,,34,bonds
screen,html.Screen,2_1_1_1_35,2022-05-12T10:55:41.564Z,,,,,,,,,,,,,,,,,54,,,,,,,,,,,,,,554.320000000007,,response,,,,100,,,,,,,Space,keypress(Space),,,,,,,,"-- --- ---- --- ------ ----- ------- ---- -- --- ------- --<br>------- ---------- ------ -- ----- -- ----- -- ---- ------<br>--- ----- --- --- ------ -------- ----- --- ------ ----- --<br>----- ----- plummeted, --- --- ------ ------ ---- -- ------<br>------- --- ------ ----- --- ---- ------- -- ---- --- --<br>------- ------",199014,199013,198449.8,198450,198458.68,199025.26,,35,"plummeted,"
screen,html.Screen,2_1_1_1_36,2022-05-12T10:55:42.046Z,,,,,,,,,,,,,,,,,54,,,,,,,,,,,,,,468.7399999999907,,response,,,,100,,,,,,,Space,keypress(Space),,,,,,,,-- --- ---- --- ------ ----- ------- ---- -- --- ------- --<br>------- ---------- ------ -- ----- -- ----- -- ---- ------<br>--- ----- --- --- ------ -------- ----- --- ------ ----- --<br>----- ----- ---------- and --- ------ ------ ---- -- ------<br>------- --- ------ ----- --- ---- ------- -- ---- --- --<br>------- ------,199495,199494,199014.26,199014,199025.26,199508.5,,36,and
screen,html.Screen,2_1_1_1_37,2022-05-12T10:55:42.417Z,,,,,,,,,,,,,,,,,54,,,,,,,,,,,,,,356.5,,response,,,,100,,,,,,,Space,keypress(Space),,,,,,,,-- --- ---- --- ------ ----- ------- ---- -- --- ------- --<br>------- ---------- ------ -- ----- -- ----- -- ---- ------<br>--- ----- --- --- ------ -------- ----- --- ------ ----- --<br>----- ----- ---------- --- the ------ ------ ---- -- ------<br>------- --- ------ ----- --- ---- ------- -- ---- --- --<br>------- ------,199867,199865,199495.22,199495,199508.5,199875.2,,37,the
screen,html.Screen,2_1_1_1_38,2022-05-12T10:55:42.757Z,,,,,,,,,,,,,,,,,54,,,,,,,,,,,,,,328.79999999998836,,response,,,,100,,,,,,,Space,keypress(Space),,,,,,,,-- --- ---- --- ------ ----- ------- ---- -- --- ------- --<br>------- ---------- ------ -- ----- -- ----- -- ---- ------<br>--- ----- --- --- ------ -------- ----- --- ------ ----- --<br>----- ----- ---------- --- --- market ------ ---- -- ------<br>------- --- ------ ----- --- ---- ------- -- ---- --- --<br>------- ------,200205,200204,199866.78,199867,199875.2,200208.42,,38,market
screen,html.Screen,2_1_1_1_39,2022-05-12T10:55:43.236Z,,,,,,,,,,,,,,,,,54,,,,,,,,,,,,,,476.5799999999872,,response,,,,100,,,,,,,Space,keypress(Space),,,,,,,,-- --- ---- --- ------ ----- ------- ---- -- --- ------- --<br>------- ---------- ------ -- ----- -- ----- -- ---- ------<br>--- ----- --- --- ------ -------- ----- --- ------ ----- --<br>----- ----- ---------- --- --- ------ became ---- -- ------<br>------- --- ------ ----- --- ---- ------- -- ---- --- --<br>------- ------,200686,200685,200206.36,200206,200208.42,200691.66,,39,became
screen,html.Screen,2_1_1_1_40,2022-05-12T10:55:43.657Z,,,,,,,,,,,,,,,,,54,,,,,,,,,,,,,,413.3399999999965,,response,,,,100,,,,,,,Space,keypress(Space),,,,,,,,-- --- ---- --- ------ ----- ------- ---- -- --- ------- --<br>------- ---------- ------ -- ----- -- ----- -- ---- ------<br>--- ----- --- --- ------ -------- ----- --- ------ ----- --<br>----- ----- ---------- --- --- ------ ------ wary -- ------<br>------- --- ------ ----- --- ---- ------- -- ---- --- --<br>------- ------,201106,201105,200686.3,200686,200691.66,201108.34,,40,wary
screen,html.Screen,2_1_1_1_41,2022-05-12T10:55:44.108Z,,,,,,,,,,,,,,,,,54,,,,,,,,,,,,,,448.6600000000035,,response,,,,100,,,,,,,Space,keypress(Space),,,,,,,,-- --- ---- --- ------ ----- ------- ---- -- --- ------- --<br>------- ---------- ------ -- ----- -- ----- -- ---- ------<br>--- ----- --- --- ------ -------- ----- --- ------ ----- --<br>----- ----- ---------- --- --- ------ ------ ---- of ------<br>------- --- ------ ----- --- ---- ------- -- ---- --- --<br>------- ------,201558,201557,201107.06,201107,201108.34,201574.92,,41,of
screen,html.Screen,2_1_1_1_42,2022-05-12T10:55:44.564Z,,,,,,,,,,,,,,,,,54,,,,,,,,,,,,,,436.0799999999872,,response,,,,100,,,,,,,Space,keypress(Space),,,,,,,,-- --- ---- --- ------ ----- ------- ---- -- --- ------- --<br>------- ---------- ------ -- ----- -- ----- -- ---- ------<br>--- ----- --- --- ------ -------- ----- --- ------ ----- --<br>----- ----- ---------- --- --- ------ ------ ---- -- French<br>------- --- ------ ----- --- ---- ------- -- ---- --- --<br>------- ------,202012,202011,201557.94,201558,201574.92,202024.9,,42,French
screen,html.Screen,2_1_1_1_43,2022-05-12T10:55:45.378Z,,,,,,,,,,,,,,,,,54,,,,,,,,,,,,,,801.1000000000058,,response,,,,100,,,,,,,Space,keypress(Space),,,,,,,,-- --- ---- --- ------ ----- ------- ---- -- --- ------- --<br>------- ---------- ------ -- ----- -- ----- -- ---- ------<br>--- ----- --- --- ------ -------- ----- --- ------ ----- --<br>----- ----- ---------- --- --- ------ ------ ---- -- ------<br>credit. --- ------ ----- --- ---- ------- -- ---- --- --<br>------- ------,202827,202826,202012.94,202013,202024.9,202841.44,,43,credit.
screen,html.Screen,2_1_1_1_44,2022-05-12T10:55:45.772Z,,,,,,,,,,,,,,,,,54,,,,,,,,,,,,,,378.5599999999977,,response,,,,100,,,,,,,Space,keypress(Space),,,,,,,,-- --- ---- --- ------ ----- ------- ---- -- --- ------- --<br>------- ---------- ------ -- ----- -- ----- -- ---- ------<br>--- ----- --- --- ------ -------- ----- --- ------ ----- --<br>----- ----- ---------- --- --- ------ ------ ---- -- ------<br>------- The ------ ----- --- ---- ------- -- ---- --- --<br>------- ------,203221,203220,202827.2,202827,202841.44,203224.66,,44,The
screen,html.Screen,2_1_1_1_45,2022-05-12T10:55:46.184Z,,,,,,,,,,,,,,,,,54,,,,,,,,,,,,,,407.3399999999965,,response,,,,100,,,,,,,Space,keypress(Space),,,,,,,,-- --- ---- --- ------ ----- ------- ---- -- --- ------- --<br>------- ---------- ------ -- ----- -- ----- -- ---- ------<br>--- ----- --- --- ------ -------- ----- --- ------ ----- --<br>----- ----- ---------- --- --- ------ ------ ---- -- ------<br>------- --- French ----- --- ---- ------- -- ---- --- --<br>------- ------,203633,203632,203221.42,203221,203224.66,203641.22,,45,French
screen,html.Screen,2_1_1_1_46,2022-05-12T10:55:46.656Z,,,,,,,,,,,,,,,,,54,,,,,,,,,,,,,,462.77999999999884,,response,,,,100,,,,,,,Space,keypress(Space),,,,,,,,-- --- ---- --- ------ ----- ------- ---- -- --- ------- --<br>------- ---------- ------ -- ----- -- ----- -- ---- ------<br>--- ----- --- --- ------ -------- ----- --- ------ ----- --<br>----- ----- ---------- --- --- ------ ------ ---- -- ------<br>------- --- ------ state --- ---- ------- -- ---- --- --<br>------- ------,204105,204104,203633.4,203634,203641.22,204107.82,,46,state
screen,html.Screen,2_1_1_1_47,2022-05-12T10:55:47.048Z,,,,,,,,,,,,,,,,,54,,,,,,,,,,,,,,387.179999999993,,response,,,,100,,,,,,,Space,keypress(Space),,,,,,,,-- --- ---- --- ------ ----- ------- ---- -- --- ------- --<br>------- ---------- ------ -- ----- -- ----- -- ---- ------<br>--- ----- --- --- ------ -------- ----- --- ------ ----- --<br>----- ----- ---------- --- --- ------ ------ ---- -- ------<br>------- --- ------ ----- was ---- ------- -- ---- --- --<br>------- ------,204497,204495,204106.04,204106,204107.82,204507.76,,47,was
screen,html.Screen,2_1_1_1_48,2022-05-12T10:55:47.432Z,,,,,,,,,,,,,,,,,54,,,,,,,,,,,,,,373.2399999999907,,response,,,,100,,,,,,,Space,keypress(Space),,,,,,,,-- --- ---- --- ------ ----- ------- ---- -- --- ------- --<br>------- ---------- ------ -- ----- -- ----- -- ---- ------<br>--- ----- --- --- ------ -------- ----- --- ------ ----- --<br>----- ----- ---------- --- --- ------ ------ ---- -- ------<br>------- --- ------ ----- --- left ------- -- ---- --- --<br>------- ------,204882,204881,204497.72,204498,204507.76,204891.02,,48,left
screen,html.Screen,2_1_1_1_49,2022-05-12T10:55:47.839Z,,,,,,,,,,,,,,,,,54,,,,,,,,,,,,,,394.9800000000105,,response,,,,100,,,,,,,Space,keypress(Space),,,,,,,,-- --- ---- --- ------ ----- ------- ---- -- --- ------- --<br>------- ---------- ------ -- ----- -- ----- -- ---- ------<br>--- ----- --- --- ------ -------- ----- --- ------ ----- --<br>----- ----- ---------- --- --- ------ ------ ---- -- ------<br>------- --- ------ ----- --- ---- without -- ---- --- --<br>------- ------,205287,205286,204882.08,204882,204891.02,205290.94,,49,without
screen,html.Screen,2_1_1_1_50,2022-05-12T10:55:48.324Z,,,,,,,,,,,,,,,,,54,,,,,,,,,,,,,,481.0599999999977,,response,,,,100,,,,,,,Space,keypress(Space),,,,,,,,-- --- ---- --- ------ ----- ------- ---- -- --- ------- --<br>------- ---------- ------ -- ----- -- ----- -- ---- ------<br>--- ----- --- --- ------ -------- ----- --- ------ ----- --<br>----- ----- ---------- --- --- ------ ------ ---- -- ------<br>------- --- ------ ----- --- ---- ------- an ---- --- --<br>------- ------,205773,205772,205287.98,205288,205290.94,205807.56,,50,an
screen,html.Screen,2_1_1_1_51,2022-05-12T10:55:48.726Z,,,,,,,,,,,,,,,,,54,,,,,,,,,,,,,,366.4400000000023,,response,,,,100,,,,,,,Space,keypress(Space),,,,,,,,-- --- ---- --- ------ ----- ------- ---- -- --- ------- --<br>------- ---------- ------ -- ----- -- ----- -- ---- ------<br>--- ----- --- --- ------ -------- ----- --- ------ ----- --<br>----- ----- ---------- --- --- ------ ------ ---- -- ------<br>------- --- ------ ----- --- ---- ------- -- easy --- --<br>------- ------,206175,206174,205773.48,205773,205807.56,206190.94,,51,easy
screen,html.Screen,2_1_1_1_52,2022-05-12T10:55:49.106Z,,,,,,,,,,,,,,,,,54,,,,,,,,,,,,,,363.0599999999977,,response,,,,100,,,,,,,Space,keypress(Space),,,,,,,,-- --- ---- --- ------ ----- ------- ---- -- --- ------- --<br>------- ---------- ------ -- ----- -- ----- -- ---- ------<br>--- ----- --- --- ------ -------- ----- --- ------ ----- --<br>----- ----- ---------- --- --- ------ ------ ---- -- ------<br>------- --- ------ ----- --- ---- ------- -- ---- way --<br>------- ------,206555,206554,206175.68,206176,206190.94,206557.42,,52,way
screen,html.Screen,2_1_1_1_53,2022-05-12T10:55:49.598Z,,,,,,,,,,,,,,,,,54,,,,,,,,,,,,,,489.5799999999872,,response,,,,100,,,,,,,Space,keypress(Space),,,,,,,,-- --- ---- --- ------ ----- ------- ---- -- --- ------- --<br>------- ---------- ------ -- ----- -- ----- -- ---- ------<br>--- ----- --- --- ------ -------- ----- --- ------ ----- --<br>----- ----- ---------- --- --- ------ ------ ---- -- ------<br>------- --- ------ ----- --- ---- ------- -- ---- --- of<br>------- ------,207048,207047,206555.32,206555,206557.42,207057.4,,53,of
screen,html.Screen,2_1_1_1_54,2022-05-12T10:55:49.979Z,,,,,,,,,,,,,,,,,54,,,,,,,,,,,,,,369.6000000000058,,response,,,,100,,,,,,,Space,keypress(Space),,,,,,,,-- --- ---- --- ------ ----- ------- ---- -- --- ------- --<br>------- ---------- ------ -- ----- -- ----- -- ---- ------<br>--- ----- --- --- ------ -------- ----- --- ------ ----- --<br>----- ----- ---------- --- --- ------ ------ ---- -- ------<br>------- --- ------ ----- --- ---- ------- -- ---- --- --<br>raising ------,207428,207427,207048.02,207048,207057.4,207440.72,,54,raising
screen,html.Screen,2_1_1_1_55,2022-05-12T10:55:50.735Z,,,,,,,,,,,,,,,,,54,,,,,,,,,,,,,,742.2799999999988,,response,,,,100,,,,,,,Space,keypress(Space),,,,,,,,-- --- ---- --- ------ ----- ------- ---- -- --- ------- --<br>------- ---------- ------ -- ----- -- ----- -- ---- ------<br>--- ----- --- --- ------ -------- ----- --- ------ ----- --<br>----- ----- ---------- --- --- ------ ------ ---- -- ------<br>------- --- ------ ----- --- ---- ------- -- ---- --- --<br>------- money.,208185,208183,207428.36,207428,207440.72,208190.62,,55,money.
Item 100,flow.Loop,2_1_1_1,2022-05-12T10:55:50.736Z,,,,,,,,,,,,,,,,,,,,,,,,,,,,,,,26071.839999999997,,completion,,,,,D,,,,,,,,,,,silence,,,,,208186,208183,182094.64,182097,182111.16,208190.62,,,
Question 1,html.Screen,2_1_1_2,2022-05-12T10:55:52.599Z,,,,,,,,,,,,,,,,,,,,,,,,,,,,true,TRUE,,1855.3800000000047,,response,,,,100,D,,,,,,TRUE,click #choice-1,,,,silence,,,,,210049,210046,208185.84,208186,208190.62,210056.92,,,
Question 2,html.Screen,2_1_1_3,2022-05-12T10:55:54.464Z,,,,,,,,,,,,,,,,,,,,,,,,,,,,true,FALSE,,1852.0799999999872,,response,,,,100,D,,,,,,FALSE,click #choice-2,,,,silence,,,,,211913,211909,210047.52,210049,210056.92,211923.26,,,
Item 100,flow.Sequence,2_1_1,2022-05-12T10:55:54.465Z,,,,,,,,,,,,,,,,,,,,,,,,,,,,,,,39796.42000000001,,completion,,,,,,,,,,,,,,,,,,,,,211913,211909,172104.42,172106,172112.58,211923.26,,,
End of Practice,html.Page,2_1_2,2022-05-12T10:55:58.853Z,,,,,,,,,,,,,,,,,,,,,,,,,,,,,,,4377.739999999991,,form submission,,,,,,,,,,,,,,,,,,,,,216302,216301,211912.18,211914,211923.26,216305.94,,,
Practice,flow.Sequence,2_1,2022-05-12T10:55:58.854Z,,,,,,,,,,,,,,,,,,,,,,,,,,,,,,,97280.4,,completion,,,,,,,,,,,,,,,,,,,,,216302,216301,119011.04,119018,119020.6,216305.94,,,
Trap_instruction,html.Page,2_2_0,2022-05-12T10:56:01.955Z,,,,,,,,,,,,,,,,,,,,,,,,,,,,,,,3098.0599999999977,,form submission,,,,,,,,,,,,,,,,,,,,,219404,219404,216296.22,216303,216305.94,219422.08,,,
trap_trial,html.Screen,2_2_1,2022-05-12T10:56:04.822Z,,,,,,,,,,,,,,,,,,,,,,,,,,,,true,1,,2846.920000000013,,response,,,,,,,,,,,1,click #choice-1,,,,,,,,,222271,222269,219399.74,219404,219422.08,222271.66,,,
end of trap trial,html.Page,2_2_2,2022-05-12T10:56:06.491Z,,,,,,,,,,,,,,,,,,,,,,,,,,,,,,,1668.3399999999965,,form submission,,,,,,,,,,,,,,,,,,,,,223940,223940,222270.54,222271,222271.66,223938.14,,,
Trap 1,flow.Sequence,2_2,2022-05-12T10:56:06.491Z,,,,,,,,,,,,,,,,,,,,,,,,,,,,,,,7634.059999999998,,completion,,,,,,,,,,,,,,,,,,,,,223941,223940,216296.22,216303,216305.94,223938.14,,,
Standby,html.Page,2_3_0,2022-05-12T10:56:14.472Z,,,,,,,,,,,,,,,,,,,,,,,,,,,,,,,7998.859999999986,,timeout,,,,,,,,,,,,,,,,,,,,,231921,231920.36,223935.7,223941,223938.14,231937,,,
Holding screen,html.Screen,2_3_1_0_0,2022-05-12T10:56:21.471Z,,,,,,,,,,,,,,,,,,,,,,,,,,,,,,,6998.940000000002,,timeout,,,,,,,,,,,,,,,,,,,,,238920,238919.18,231920.36,231922,231937,238935.94,,,
screen,html.Screen,2_3_1_0_1_0,2022-05-12T10:56:22.737Z,,,,,,,,,,,,,,,,,51,,,,,,,,,,,,,,1248.0599999999977,,response,,,,13,D,,,,,,Space,keypress(Space),,,,speech,,,,American -------- --- --- ---- --- --- ------ -- --------<br>---- --------- --- ------- ------------ ---------- ---------<br>--- ---------- ------- ---------- ------- -- -------- ----<br>---- --- ------ ----- ------ -- ---- --- ----- -- - -------<br>-------- -- --- --- -- ----- ----------- ----- -----------<br>---- --- ---------- --- ---- --- -- ----------,240186,240184,238919.18,238920,238935.94,240202.38,,0,American
screen,html.Screen,2_3_1_0_1_1,2022-05-12T10:56:23.278Z,,,,,,,,,,,,,,,,,51,,,,,,,,,,,,,,523.6199999999953,,response,,,,13,D,,,,,,Space,keypress(Space),,,,speech,,,,-------- industry --- --- ---- --- --- ------ -- --------<br>---- --------- --- ------- ------------ ---------- ---------<br>--- ---------- ------- ---------- ------- -- -------- ----<br>---- --- ------ ----- ------ -- ---- --- ----- -- - -------<br>-------- -- --- --- -- ----- ----------- ----- -----------<br>---- --- ---------- --- ---- --- -- ----------,240727,240726,240186.68,240187,240202.38,240735.66,,1,industry
screen,html.Screen,2_3_1_0_1_2,2022-05-12T10:56:23.763Z,,,,,,,,,,,,,,,,,51,,,,,,,,,,,,,,474.3399999999965,,response,,,,13,D,,,,,,Space,keypress(Space),,,,speech,,,,-------- -------- may --- ---- --- --- ------ -- --------<br>---- --------- --- ------- ------------ ---------- ---------<br>--- ---------- ------- ---------- ------- -- -------- ----<br>---- --- ------ ----- ------ -- ---- --- ----- -- - -------<br>-------- -- --- --- -- ----- ----------- ----- -----------<br>---- --- ---------- --- ---- --- -- ----------,241212,241210,240727.68,240727,240735.66,241218.86,,2,may
screen,html.Screen,2_3_1_0_1_3,2022-05-12T10:56:24.310Z,,,,,,,,,,,,,,,,,51,,,,,,,,,,,,,,539.140000000014,,response,,,,13,D,,,,,,Space,keypress(Space),,,,speech,,,,-------- -------- --- not ---- --- --- ------ -- --------<br>---- --------- --- ------- ------------ ---------- ---------<br>--- ---------- ------- ---------- ------- -- -------- ----<br>---- --- ------ ----- ------ -- ---- --- ----- -- - -------<br>-------- -- --- --- -- ----- ----------- ----- -----------<br>---- --- ---------- --- ---- --- -- ----------,241759,241758,241212.54,241212,241218.86,241768.74,,3,not
screen,html.Screen,2_3_1_0_1_4,2022-05-12T10:56:24.692Z,,,,,,,,,,,,,,,,,51,,,,,,,,,,,,,,370.2600000000093,,response,,,,13,D,,,,,,Space,keypress(Space),,,,speech,,,,-------- -------- --- --- know --- --- ------ -- --------<br>---- --------- --- ------- ------------ ---------- ---------<br>--- ---------- ------- ---------- ------- -- -------- ----<br>---- --- ------ ----- ------ -- ---- --- ----- -- - -------<br>-------- -- --- --- -- ----- ----------- ----- -----------<br>---- --- ---------- --- ---- --- -- ----------,242141,242139,241759.42,241759,241768.74,242152.08,,4,know
screen,html.Screen,2_3_1_0_1_5,2022-05-12T10:56:25.174Z,,,,,,,,,,,,,,,,,51,,,,,,,,,,,,,,469.9200000000128,,response,,,,13,D,,,,,,Space,keypress(Space),,,,speech,,,,"-------- -------- --- --- ---- it, --- ------ -- --------<br>---- --------- --- ------- ------------ ---------- ---------<br>--- ---------- ------- ---------- ------- -- -------- ----<br>---- --- ------ ----- ------ -- ---- --- ----- -- - -------<br>-------- -- --- --- -- ----- ----------- ----- -----------<br>---- --- ---------- --- ---- --- -- ----------",242622,242622,242141.82,242141,242152.08,242635.32,,5,"it,"
screen,html.Screen,2_3_1_0_1_6,2022-05-12T10:56:25.600Z,,,,,,,,,,,,,,,,,51,,,,,,,,,,,,,,412.679999999993,,response,,,,13,D,,,,,,Space,keypress(Space),,,,speech,,,,-------- -------- --- --- ---- --- but ------ -- --------<br>---- --------- --- ------- ------------ ---------- ---------<br>--- ---------- ------- ---------- ------- -- -------- ----<br>---- --- ------ ----- ------ -- ---- --- ----- -- - -------<br>-------- -- --- --- -- ----- ----------- ----- -----------<br>---- --- ---------- --- ---- --- -- ----------,243049,243048,242622.54,242623,242635.32,243051.96,,6,but
screen,html.Screen,2_3_1_0_1_7,2022-05-12T10:56:25.993Z,,,,,,,,,,,,,,,,,51,,,,,,,,,,,,,,388.04000000000815,,response,,,,13,D,,,,,,Space,keypress(Space),,,,speech,,,,-------- -------- --- --- ---- --- --- debate -- --------<br>---- --------- --- ------- ------------ ---------- ---------<br>--- ---------- ------- ---------- ------- -- -------- ----<br>---- --- ------ ----- ------ -- ---- --- ----- -- - -------<br>-------- -- --- --- -- ----- ----------- ----- -----------<br>---- --- ---------- --- ---- --- -- ----------,243442,243440,243049.68,243049,243051.96,243451.88,,7,debate
screen,html.Screen,2_3_1_0_1_8,2022-05-12T10:56:26.452Z,,,,,,,,,,,,,,,,,51,,,,,,,,,,,,,,448.11999999999534,,response,,,,13,D,,,,,,Space,keypress(Space),,,,speech,,,,-------- -------- --- --- ---- --- --- ------ in --------<br>---- --------- --- ------- ------------ ---------- ---------<br>--- ---------- ------- ---------- ------- -- -------- ----<br>---- --- ------ ----- ------ -- ---- --- ----- -- - -------<br>-------- -- --- --- -- ----- ----------- ----- -----------<br>---- --- ---------- --- ---- --- -- ----------,243902,243900,243442.32,243443,243451.88,243918.44,,8,in
screen,html.Screen,2_3_1_0_1_9,2022-05-12T10:56:27.023Z,,,,,,,,,,,,,,,,,51,,,,,,,,,,,,,,551.5599999999977,,response,,,,13,D,,,,,,Space,keypress(Space),,,,speech,,,,-------- -------- --- --- ---- --- --- ------ -- Congress<br>---- --------- --- ------- ------------ ---------- ---------<br>--- ---------- ------- ---------- ------- -- -------- ----<br>---- --- ------ ----- ------ -- ---- --- ----- -- - -------<br>-------- -- --- --- -- ----- ----------- ----- -----------<br>---- --- ---------- --- ---- --- -- ----------,244472,244470,243902.38,243902,243918.44,244485.18,,9,Congress
screen,html.Screen,2_3_1_0_1_10,2022-05-12T10:56:27.620Z,,,,,,,,,,,,,,,,,51,,,,,,,,,,,,,,582.820000000007,,response,,,,13,D,,,,,,Space,keypress(Space),,,,speech,,,,-------- -------- --- --- ---- --- --- ------ -- --------<br>over --------- --- ------- ------------ ---------- ---------<br>--- ---------- ------- ---------- ------- -- -------- ----<br>---- --- ------ ----- ------ -- ---- --- ----- -- - -------<br>-------- -- --- --- -- ----- ----------- ----- -----------<br>---- --- ---------- --- ---- --- -- ----------,245068,245068,244472.7,244472,244485.18,245084.96,,10,over
screen,html.Screen,2_3_1_0_1_11,2022-05-12T10:56:28.068Z,,,,,,,,,,,,,,,,,51,,,,,,,,,,,,,,432.04000000000815,,response,,,,13,D,,,,,,Space,keypress(Space),,,,speech,,,,-------- -------- --- --- ---- --- --- ------ -- --------<br>---- reforming --- ------- ------------ ---------- ---------<br>--- ---------- ------- ---------- ------- -- -------- ----<br>---- --- ------ ----- ------ -- ---- --- ----- -- - -------<br>-------- -- --- --- -- ----- ----------- ----- -----------<br>---- --- ---------- --- ---- --- -- ----------,245518,245517,245069.04,245068,245084.96,245534.9,,11,reforming
screen,html.Screen,2_3_1_0_1_12,2022-05-12T10:56:28.787Z,,,,,,,,,,,,,,,,,51,,,,,,,,,,,,,,700.1000000000058,,response,,,,13,D,,,,,,Space,keypress(Space),,,,speech,,,,-------- -------- --- --- ---- --- --- ------ -- --------<br>---- --------- the ------- ------------ ---------- ---------<br>--- ---------- ------- ---------- ------- -- -------- ----<br>---- --- ------ ----- ------ -- ---- --- ----- -- - -------<br>-------- -- --- --- -- ----- ----------- ----- -----------<br>---- --- ---------- --- ---- --- -- ----------,246235,246235,245518.24,245518,245534.9,246251.38,,12,the
screen,html.Screen,2_3_1_0_1_13,2022-05-12T10:56:29.495Z,,,,,,,,,,,,,,,,,51,,,,,,,,,,,,,,690.6199999999953,,response,,,,13,D,,,,,,Space,keypress(Space),,,,speech,,,,-------- -------- --- --- ---- --- --- ------ -- --------<br>---- --------- --- federal ------------ ---------- ---------<br>--- ---------- ------- ---------- ------- -- -------- ----<br>---- --- ------ ----- ------ -- ---- --- ----- -- - -------<br>-------- -- --- --- -- ----- ----------- ----- -----------<br>---- --- ---------- --- ---- --- -- ----------,246944,246942,246236.48,246237,246251.38,246951.38,,13,federal
screen,html.Screen,2_3_1_0_1_14,2022-05-12T10:56:29.985Z,,,,,,,,,,,,,,,,,51,,,,,,,,,,,,,,481.61999999999534,,response,,,,13,D,,,,,,Space,keypress(Space),,,,speech,,,,-------- -------- --- --- ---- --- --- ------ -- --------<br>---- --------- --- ------- government's ---------- ---------<br>--- ---------- ------- ---------- ------- -- -------- ----<br>---- --- ------ ----- ------ -- ---- --- ----- -- - -------<br>-------- -- --- --- -- ----- ----------- ----- -----------<br>---- --- ---------- --- ---- --- -- ----------,247434,247433,246944.42,246944,246951.38,247451.32,,14,government's
screen,html.Screen,2_3_1_0_1_15,2022-05-12T10:56:30.489Z,,,,,,,,,,,,,,,,,51,,,,,,,,,,,,,,485.679999999993,,response,,,,13,D,,,,,,Space,keypress(Space),,,,speech,,,,-------- -------- --- --- ---- --- --- ------ -- --------<br>---- --------- --- ------- ------------ regulatory ---------<br>--- ---------- ------- ---------- ------- -- -------- ----<br>---- --- ------ ----- ------ -- ---- --- ----- -- - -------<br>-------- -- --- --- -- ----- ----------- ----- -----------<br>---- --- ---------- --- ---- --- -- ----------,247939,247937,247434.34,247434,247451.32,247951.2,,15,regulatory
screen,html.Screen,2_3_1_0_1_16,2022-05-12T10:56:31.185Z,,,,,,,,,,,,,,,,,51,,,,,,,,,,,,,,680.7999999999884,,response,,,,13,D,,,,,,Space,keypress(Space),,,,speech,,,,-------- -------- --- --- ---- --- --- ------ -- --------<br>---- --------- --- ------- ------------ ---------- apparatus<br>--- ---------- ------- ---------- ------- -- -------- ----<br>---- --- ------ ----- ------ -- ---- --- ----- -- - -------<br>-------- -- --- --- -- ----- ----------- ----- -----------<br>---- --- ---------- --- ---- --- -- ----------,248633,248632,247939.2,247940,247951.2,248651.1,,16,apparatus
screen,html.Screen,2_3_1_0_1_17,2022-05-12T10:56:31.916Z,,,,,,,,,,,,,,,,,51,,,,,,,,,,,,,,713.8999999999942,,response,,,,13,D,,,,,,Space,keypress(Space),,,,speech,,,,-------- -------- --- --- ---- --- --- ------ -- --------<br>---- --------- --- ------- ------------ ---------- ---------<br>may ---------- ------- ---------- ------- -- -------- ----<br>---- --- ------ ----- ------ -- ---- --- ----- -- - -------<br>-------- -- --- --- -- ----- ----------- ----- -----------<br>---- --- ---------- --- ---- --- -- ----------,249365,249365,248633.98,248634,248651.1,249367.6,,17,may
screen,html.Screen,2_3_1_0_1_18,2022-05-12T10:56:32.471Z,,,,,,,,,,,,,,,,,51,,,,,,,,,,,,,,551.3999999999942,,response,,,,13,D,,,,,,Space,keypress(Space),,,,speech,,,,-------- -------- --- --- ---- --- --- ------ -- --------<br>---- --------- --- ------- ------------ ---------- ---------<br>--- profoundly ------- ---------- ------- -- -------- ----<br>---- --- ------ ----- ------ -- ---- --- ----- -- - -------<br>-------- -- --- --- -- ----- ----------- ----- -----------<br>---- --- ---------- --- ---- --- -- ----------,249920,249919,249365.74,249365,249367.6,249934.24,,18,profoundly
screen,html.Screen,2_3_1_0_1_19,2022-05-12T10:56:32.998Z,,,,,,,,,,,,,,,,,51,,,,,,,,,,,,,,511.7600000000093,,response,,,,13,D,,,,,,Space,keypress(Space),,,,speech,,,,-------- -------- --- --- ---- --- --- ------ -- --------<br>---- --------- --- ------- ------------ ---------- ---------<br>--- ---------- improve ---------- ------- -- -------- ----<br>---- --- ------ ----- ------ -- ---- --- ----- -- - -------<br>-------- -- --- --- -- ----- ----------- ----- -----------<br>---- --- ---------- --- ---- --- -- ----------,250448,250446,249920.72,249921,249934.24,250450.82,,19,improve
screen,html.Screen,2_3_1_0_1_20,2022-05-12T10:56:33.610Z,,,,,,,,,,,,,,,,,51,,,,,,,,,,,,,,607.179999999993,,response,,,,13,D,,,,,,Space,keypress(Space),,,,speech,,,,-------- -------- --- --- ---- --- --- ------ -- --------<br>---- --------- --- ------- ------------ ---------- ---------<br>--- ---------- ------- companies' ------- -- -------- ----<br>---- --- ------ ----- ------ -- ---- --- ----- -- - -------<br>-------- -- --- --- -- ----- ----------- ----- -----------<br>---- --- ---------- --- ---- --- -- ----------,251059,251058,250448.18,250448,250450.82,251067.5,,20,companies'
screen,html.Screen,2_3_1_0_1_21,2022-05-12T10:56:34.247Z,,,,,,,,,,,,,,,,,51,,,,,,,,,,,,,,627.5,,response,,,,13,D,,,,,,Space,keypress(Space),,,,speech,,,,-------- -------- --- --- ---- --- --- ------ -- --------<br>---- --------- --- ------- ------------ ---------- ---------<br>--- ---------- ------- ---------- ability -- -------- ----<br>---- --- ------ ----- ------ -- ---- --- ----- -- - -------<br>-------- -- --- --- -- ----- ----------- ----- -----------<br>---- --- ---------- --- ---- --- -- ----------,251696,251695,251059.22,251059,251067.5,251700.68,,21,ability
screen,html.Screen,2_3_1_0_1_22,2022-05-12T10:56:34.629Z,,,,,,,,,,,,,,,,,51,,,,,,,,,,,,,,376.320000000007,,response,,,,13,D,,,,,,Space,keypress(Space),,,,speech,,,,-------- -------- --- --- ---- --- --- ------ -- --------<br>---- --------- --- ------- ------------ ---------- ---------<br>--- ---------- ------- ---------- ------- to -------- ----<br>---- --- ------ ----- ------ -- ---- --- ----- -- - -------<br>-------- -- --- --- -- ----- ----------- ----- -----------<br>---- --- ---------- --- ---- --- -- ----------,252079,252077,251696.78,251697,251700.68,252083.86,,22,to
screen,html.Screen,2_3_1_0_1_23,2022-05-12T10:56:35.529Z,,,,,,,,,,,,,,,,,51,,,,,,,,,,,,,,893.140000000014,,response,,,,13,D,,,,,,Space,keypress(Space),,,,speech,,,,-------- -------- --- --- ---- --- --- ------ -- --------<br>---- --------- --- ------- ------------ ---------- ---------<br>--- ---------- ------- ---------- ------- -- survive. ----<br>---- --- ------ ----- ------ -- ---- --- ----- -- - -------<br>-------- -- --- --- -- ----- ----------- ----- -----------<br>---- --- ---------- --- ---- --- -- ----------,252978,252977,252079.82,252079,252083.86,252983.78,,23,survive.
screen,html.Screen,2_3_1_0_1_24,2022-05-12T10:56:36.019Z,,,,,,,,,,,,,,,,,51,,,,,,,,,,,,,,482.22000000000116,,response,,,,13,D,,,,,,Space,keypress(Space),,,,speech,,,,-------- -------- --- --- ---- --- --- ------ -- --------<br>---- --------- --- ------- ------------ ---------- ---------<br>--- ---------- ------- ---------- ------- -- -------- This<br>---- --- ------ ----- ------ -- ---- --- ----- -- - -------<br>-------- -- --- --- -- ----- ----------- ----- -----------<br>---- --- ---------- --- ---- --- -- ----------,253467,253466,252978.06,252978,252983.78,253483.64,,24,This
screen,html.Screen,2_3_1_0_1_25,2022-05-12T10:56:36.613Z,,,,,,,,,,,,,,,,,51,,,,,,,,,,,,,,576.359999999986,,response,,,,13,D,,,,,,Space,keypress(Space),,,,speech,,,,-------- -------- --- --- ---- --- --- ------ -- --------<br>---- --------- --- ------- ------------ ---------- ---------<br>--- ---------- ------- ---------- ------- -- -------- ----<br>week --- ------ ----- ------ -- ---- --- ----- -- - -------<br>-------- -- --- --- -- ----- ----------- ----- -----------<br>---- --- ---------- --- ---- --- -- ----------,254062,254060,253468.52,253469,253483.64,254066.96,,25,week
screen,html.Screen,2_3_1_0_1_26,2022-05-12T10:56:37.003Z,,,,,,,,,,,,,,,,,51,,,,,,,,,,,,,,384.04000000000815,,response,,,,13,D,,,,,,Space,keypress(Space),,,,speech,,,,-------- -------- --- --- ---- --- --- ------ -- --------<br>---- --------- --- ------- ------------ ---------- ---------<br>--- ---------- ------- ---------- ------- -- -------- ----<br>---- the ------ ----- ------ -- ---- --- ----- -- - -------<br>-------- -- --- --- -- ----- ----------- ----- -----------<br>---- --- ---------- --- ---- --- -- ----------,254452,254451,254062.72,254063,254066.96,254466.9,,26,the
screen,html.Screen,2_3_1_0_1_27,2022-05-12T10:56:37.576Z,,,,,,,,,,,,,,,,,51,,,,,,,,,,,,,,558.1000000000058,,response,,,,13,D,,,,,,Space,keypress(Space),,,,speech,,,,-------- -------- --- --- ---- --- --- ------ -- --------<br>---- --------- --- ------- ------------ ---------- ---------<br>--- ---------- ------- ---------- ------- -- -------- ----<br>---- --- Senate ----- ------ -- ---- --- ----- -- - -------<br>-------- -- --- --- -- ----- ----------- ----- -----------<br>---- --- ---------- --- ---- --- -- ----------,255025,255025,254452.82,254452,254466.9,255033.38,,27,Senate
screen,html.Screen,2_3_1_0_1_28,2022-05-12T10:56:38.088Z,,,,,,,,,,,,,,,,,51,,,,,,,,,,,,,,502.61999999999534,,response,,,,13,D,,,,,,Space,keypress(Space),,,,speech,,,,-------- -------- --- --- ---- --- --- ------ -- --------<br>---- --------- --- ------- ------------ ---------- ---------<br>--- ---------- ------- ---------- ------- -- -------- ----<br>---- --- ------ seems ------ -- ---- --- ----- -- - -------<br>-------- -- --- --- -- ----- ----------- ----- -----------<br>---- --- ---------- --- ---- --- -- ----------,255537,255536,255025.72,255025,255033.38,255550.06,,28,seems
screen,html.Screen,2_3_1_0_1_29,2022-05-12T10:56:38.920Z,,,,,,,,,,,,,,,,,51,,,,,,,,,,,,,,817.9400000000023,,response,,,,13,D,,,,,,Space,keypress(Space),,,,speech,,,,-------- -------- --- --- ---- --- --- ------ -- --------<br>---- --------- --- ------- ------------ ---------- ---------<br>--- ---------- ------- ---------- ------- -- -------- ----<br>---- --- ------ ----- poised -- ---- --- ----- -- - -------<br>-------- -- --- --- -- ----- ----------- ----- -----------<br>---- --- ---------- --- ---- --- -- ----------,256369,256368,255537.32,255537,255550.06,256383.28,,29,poised
screen,html.Screen,2_3_1_0_1_30,2022-05-12T10:56:39.386Z,,,,,,,,,,,,,,,,,51,,,,,,,,,,,,,,450.72000000000116,,response,,,,13,D,,,,,,Space,keypress(Space),,,,speech,,,,-------- -------- --- --- ---- --- --- ------ -- --------<br>---- --------- --- ------- ------------ ---------- ---------<br>--- ---------- ------- ---------- ------- -- -------- ----<br>---- --- ------ ----- ------ to ---- --- ----- -- - -------<br>-------- -- --- --- -- ----- ----------- ----- -----------<br>---- --- ---------- --- ---- --- -- ----------,256835,256834,256369.6,256369,256383.28,256849.82,,30,to
screen,html.Screen,2_3_1_0_1_31,2022-05-12T10:56:40.393Z,,,,,,,,,,,,,,,,,51,,,,,,,,,,,,,,990.179999999993,,response,,,,13,D,,,,,,Space,keypress(Space),,,,speech,,,,-------- -------- --- --- ---- --- --- ------ -- --------<br>---- --------- --- ------- ------------ ---------- ---------<br>--- ---------- ------- ---------- ------- -- -------- ----<br>---- --- ------ ----- ------ -- join --- ----- -- - -------<br>-------- -- --- --- -- ----- ----------- ----- -----------<br>---- --- ---------- --- ---- --- -- ----------,257842,257840,256835.18,256835,256849.82,257849.66,,31,join
screen,html.Screen,2_3_1_0_1_32,2022-05-12T10:56:40.786Z,,,,,,,,,,,,,,,,,51,,,,,,,,,,,,,,383.3399999999965,,response,,,,13,D,,,,,,Space,keypress(Space),,,,speech,,,,-------- -------- --- --- ---- --- --- ------ -- --------<br>---- --------- --- ------- ------------ ---------- ---------<br>--- ---------- ------- ---------- ------- -- -------- ----<br>---- --- ------ ----- ------ -- ---- the ----- -- - -------<br>-------- -- --- --- -- ----- ----------- ----- -----------<br>---- --- ---------- --- ---- --- -- ----------,258235,258233,257842.36,257842,257849.66,258249.64,,32,the
screen,html.Screen,2_3_1_0_1_33,2022-05-12T10:56:41.173Z,,,,,,,,,,,,,,,,,51,,,,,,,,,,,,,,370.35999999998603,,response,,,,13,D,,,,,,Space,keypress(Space),,,,speech,,,,-------- -------- --- --- ---- --- --- ------ -- --------<br>---- --------- --- ------- ------------ ---------- ---------<br>--- ---------- ------- ---------- ------- -- -------- ----<br>---- --- ------ ----- ------ -- ---- --- House -- - -------<br>-------- -- --- --- -- ----- ----------- ----- -----------<br>---- --- ---------- --- ---- --- -- ----------,258623,258620,258235.78,258236,258249.64,258633.02,,33,House
screen,html.Screen,2_3_1_0_1_34,2022-05-12T10:56:41.593Z,,,,,,,,,,,,,,,,,51,,,,,,,,,,,,,,407.9800000000105,,response,,,,13,D,,,,,,Space,keypress(Space),,,,speech,,,,-------- -------- --- --- ---- --- --- ------ -- --------<br>---- --------- --- ------- ------------ ---------- ---------<br>--- ---------- ------- ---------- ------- -- -------- ----<br>---- --- ------ ----- ------ -- ---- --- ----- in - -------<br>-------- -- --- --- -- ----- ----------- ----- -----------<br>---- --- ---------- --- ---- --- -- ----------,259042,259041,258623.02,258623,258633.02,259049.54,,34,in
screen,html.Screen,2_3_1_0_1_35,2022-05-12T10:56:42.111Z,,,,,,,,,,,,,,,,,51,,,,,,,,,,,,,,509.45999999999185,,response,,,,13,D,,,,,,Space,keypress(Space),,,,speech,,,,-------- -------- --- --- ---- --- --- ------ -- --------<br>---- --------- --- ------- ------------ ---------- ---------<br>--- ---------- ------- ---------- ------- -- -------- ----<br>---- --- ------ ----- ------ -- ---- --- ----- -- a -------<br>-------- -- --- --- -- ----- ----------- ----- -----------<br>---- --- ---------- --- ---- --- -- ----------,259561,259559,259042.18,259042,259049.54,259566.18,,35,a
screen,html.Screen,2_3_1_0_1_36,2022-05-12T10:56:42.574Z,,,,,,,,,,,,,,,,,51,,,,,,,,,,,,,,454.820000000007,,response,,,,13,D,,,,,,Space,keypress(Space),,,,speech,,,,-------- -------- --- --- ---- --- --- ------ -- --------<br>---- --------- --- ------- ------------ ---------- ---------<br>--- ---------- ------- ---------- ------- -- -------- ----<br>---- --- ------ ----- ------ -- ---- --- ----- -- - massive<br>-------- -- --- --- -- ----- ----------- ----- -----------<br>---- --- ---------- --- ---- --- -- ----------,260023,260021,259561.08,259561,259566.18,260032.7,,36,massive
screen,html.Screen,2_3_1_0_1_37,2022-05-12T10:56:43.153Z,,,,,,,,,,,,,,,,,51,,,,,,,,,,,,,,567.2999999999884,,response,,,,13,D,,,,,,Space,keypress(Space),,,,speech,,,,-------- -------- --- --- ---- --- --- ------ -- --------<br>---- --------- --- ------- ------------ ---------- ---------<br>--- ---------- ------- ---------- ------- -- -------- ----<br>---- --- ------ ----- ------ -- ---- --- ----- -- - -------<br>overhaul -- --- --- -- ----- ----------- ----- -----------<br>---- --- ---------- --- ---- --- -- ----------,260602,260600,260023.24,260023,260032.7,260615.92,,37,overhaul
screen,html.Screen,2_3_1_0_1_38,2022-05-12T10:56:43.645Z,,,,,,,,,,,,,,,,,51,,,,,,,,,,,,,,477.0799999999872,,response,,,,13,D,,,,,,Space,keypress(Space),,,,speech,,,,-------- -------- --- --- ---- --- --- ------ -- --------<br>---- --------- --- ------- ------------ ---------- ---------<br>--- ---------- ------- ---------- ------- -- -------- ----<br>---- --- ------ ----- ------ -- ---- --- ----- -- - -------<br>-------- of --- --- -- ----- ----------- ----- -----------<br>---- --- ---------- --- ---- --- -- ----------,261093,261093,260602.62,260603,260615.92,261099.16,,38,of
screen,html.Screen,2_3_1_0_1_39,2022-05-12T10:56:43.990Z,,,,,,,,,,,,,,,,,51,,,,,,,,,,,,,,337.8399999999965,,response,,,,13,D,,,,,,Space,keypress(Space),,,,speech,,,,-------- -------- --- --- ---- --- --- ------ -- --------<br>---- --------- --- ------- ------------ ---------- ---------<br>--- ---------- ------- ---------- ------- -- -------- ----<br>---- --- ------ ----- ------ -- ---- --- ----- -- - -------<br>-------- -- the --- -- ----- ----------- ----- -----------<br>---- --- ---------- --- ---- --- -- ----------,261438,261437,261093.72,261094,261099.16,261449.24,,39,the
screen,html.Screen,2_3_1_0_1_40,2022-05-12T10:56:44.376Z,,,,,,,,,,,,,,,,,51,,,,,,,,,,,,,,373.7600000000093,,response,,,,13,D,,,,,,Space,keypress(Space),,,,speech,,,,-------- -------- --- --- ---- --- --- ------ -- --------<br>---- --------- --- ------- ------------ ---------- ---------<br>--- ---------- ------- ---------- ------- -- -------- ----<br>---- --- ------ ----- ------ -- ---- --- ----- -- - -------<br>-------- -- --- way -- ----- ----------- ----- -----------<br>---- --- ---------- --- ---- --- -- ----------,261825,261823,261439.2,261439,261449.24,261832.44,,40,way
screen,html.Screen,2_3_1_0_1_41,2022-05-12T10:56:44.753Z,,,,,,,,,,,,,,,,,51,,,,,,,,,,,,,,368.5599999999977,,response,,,,13,D,,,,,,Space,keypress(Space),,,,speech,,,,-------- -------- --- --- ---- --- --- ------ -- --------<br>---- --------- --- ------- ------------ ---------- ---------<br>--- ---------- ------- ---------- ------- -- -------- ----<br>---- --- ------ ----- ------ -- ---- --- ----- -- - -------<br>-------- -- --- --- in ----- ----------- ----- -----------<br>---- --- ---------- --- ---- --- -- ----------,262202,262201,261825.24,261825,261832.44,262215.7,,41,in
screen,html.Screen,2_3_1_0_1_42,2022-05-12T10:56:45.136Z,,,,,,,,,,,,,,,,,51,,,,,,,,,,,,,,369.29999999998836,,response,,,,13,D,,,,,,Space,keypress(Space),,,,speech,,,,-------- -------- --- --- ---- --- --- ------ -- --------<br>---- --------- --- ------- ------------ ---------- ---------<br>--- ---------- ------- ---------- ------- -- -------- ----<br>---- --- ------ ----- ------ -- ---- --- ----- -- - -------<br>-------- -- --- --- -- which ----------- ----- -----------<br>---- --- ---------- --- ---- --- -- ----------,262586,262585,262202.9,262203,262215.7,262599.08,,42,which
screen,html.Screen,2_3_1_0_1_43,2022-05-12T10:56:45.628Z,,,,,,,,,,,,,,,,,51,,,,,,,,,,,,,,476.9199999999837,,response,,,,13,D,,,,,,Space,keypress(Space),,,,speech,,,,-------- -------- --- --- ---- --- --- ------ -- --------<br>---- --------- --- ------- ------------ ---------- ---------<br>--- ---------- ------- ---------- ------- -- -------- ----<br>---- --- ------ ----- ------ -- ---- --- ----- -- - -------<br>-------- -- --- --- -- ----- bureaucrats ----- -----------<br>---- --- ---------- --- ---- --- -- ----------,263078,263076,262586.12,262586,262599.08,263082.26,,43,bureaucrats
screen,html.Screen,2_3_1_0_1_44,2022-05-12T10:56:46.131Z,,,,,,,,,,,,,,,,,51,,,,,,,,,,,,,,496.7399999999907,,response,,,,13,D,,,,,,Space,keypress(Space),,,,speech,,,,-------- -------- --- --- ---- --- --- ------ -- --------<br>---- --------- --- ------- ------------ ---------- ---------<br>--- ---------- ------- ---------- ------- -- -------- ----<br>---- --- ------ ----- ------ -- ---- --- ----- -- - -------<br>-------- -- --- --- -- ----- ----------- enact -----------<br>---- --- ---------- --- ---- --- -- ----------,263580,263579,263077.58,263078,263082.26,263582.22,,44,enact
screen,html.Screen,2_3_1_0_1_45,2022-05-12T10:56:46.662Z,,,,,,,,,,,,,,,,,51,,,,,,,,,,,,,,527.7800000000279,,response,,,,13,D,,,,,,Space,keypress(Space),,,,speech,,,,-------- -------- --- --- ---- --- --- ------ -- --------<br>---- --------- --- ------- ------------ ---------- ---------<br>--- ---------- ------- ---------- ------- -- -------- ----<br>---- --- ------ ----- ------ -- ---- --- ----- -- - -------<br>-------- -- --- --- -- ----- ----------- ----- regulations<br>---- --- ---------- --- ---- --- -- ----------,264111,264110,263580.66,263581,263582.22,264115.42,,45,regulations
screen,html.Screen,2_3_1_0_1_46,2022-05-12T10:56:47.266Z,,,,,,,,,,,,,,,,,51,,,,,,,,,,,,,,598.5800000000163,,response,,,,13,D,,,,,,Space,keypress(Space),,,,speech,,,,-------- -------- --- --- ---- --- --- ------ -- --------<br>---- --------- --- ------- ------------ ---------- ---------<br>--- ---------- ------- ---------- ------- -- -------- ----<br>---- --- ------ ----- ------ -- ---- --- ----- -- - -------<br>-------- -- --- --- -- ----- ----------- ----- -----------<br>that --- ---------- --- ---- --- -- ----------,264715,264714,264111.28,264111,264115.42,264732.02,,46,that
screen,html.Screen,2_3_1_0_1_47,2022-05-12T10:56:47.640Z,,,,,,,,,,,,,,,,,51,,,,,,,,,,,,,,355.9799999999814,,response,,,,13,D,,,,,,Space,keypress(Space),,,,speech,,,,-------- -------- --- --- ---- --- --- ------ -- --------<br>---- --------- --- ------- ------------ ---------- ---------<br>--- ---------- ------- ---------- ------- -- -------- ----<br>---- --- ------ ----- ------ -- ---- --- ----- -- - -------<br>-------- -- --- --- -- ----- ----------- ----- -----------<br>---- are ---------- --- ---- --- -- ----------,265089,265088,264715.26,264716,264732.02,265098.7,,47,are
screen,html.Screen,2_3_1_0_1_48,2022-05-12T10:56:48.107Z,,,,,,,,,,,,,,,,,51,,,,,,,,,,,,,,456.29999999998836,,response,,,,13,D,,,,,,Space,keypress(Space),,,,speech,,,,-------- -------- --- --- ---- --- --- ------ -- --------<br>---- --------- --- ------- ------------ ---------- ---------<br>--- ---------- ------- ---------- ------- -- -------- ----<br>---- --- ------ ----- ------ -- ---- --- ----- -- - -------<br>-------- -- --- --- -- ----- ----------- ----- -----------<br>---- --- strangling --- ---- --- -- ----------,265556,265555,265089.28,265090,265098.7,265565.22,,48,strangling
screen,html.Screen,2_3_1_0_1_49,2022-05-12T10:56:48.659Z,,,,,,,,,,,,,,,,,51,,,,,,,,,,,,,,541.7800000000279,,response,,,,13,D,,,,,,Space,keypress(Space),,,,speech,,,,-------- -------- --- --- ---- --- --- ------ -- --------<br>---- --------- --- ------- ------------ ---------- ---------<br>--- ---------- ------- ---------- ------- -- -------- ----<br>---- --- ------ ----- ------ -- ---- --- ----- -- - -------<br>-------- -- --- --- -- ----- ----------- ----- -----------<br>---- --- ---------- the ---- --- -- ----------,266108,266107,265556.8,265557,265565.22,266115.14,,49,the
screen,html.Screen,2_3_1_0_1_50,2022-05-12T10:56:49.039Z,,,,,,,,,,,,,,,,,51,,,,,,,,,,,,,,372.85999999998603,,response,,,,13,D,,,,,,Space,keypress(Space),,,,speech,,,,-------- -------- --- --- ---- --- --- ------ -- --------<br>---- --------- --- ------- ------------ ---------- ---------<br>--- ---------- ------- ---------- ------- -- -------- ----<br>---- --- ------ ----- ------ -- ---- --- ----- -- - -------<br>-------- -- --- --- -- ----- ----------- ----- -----------<br>---- --- ---------- --- life --- -- ----------,266489,266488,266108.98,266109,266115.14,266498.46,,50,life
