sender,sender_type,sender_id,timestamp,meta,,Blues,Classical,Country,Dance,Electronic,Folk,Gospel,Hip-Hop,Jazz,Latin,Musical/Film,New-age,Pop,Prolific_id,Provo_ID,R&B,Rap,Reggae,Religious,Rock,Soul,Swing,Traditional,age,artist_name,correct,correctResponse,distraction,duration,education,ended_on,familiarity,gender,headphone_check_performance,item,list,music_frequency,offensiveness,pleasantness,position_correct,preference,response,response_action,snippet_file,song_name,song_rating,sound,stimulus_1,stimulus_2,stimulus_3,text,time_commit,time_end,time_render,time_run,time_show,time_switch,url,word,word_ID
Prolific ID,html.Form,0,2022-05-11T11:15:02.062Z,"{""labjs_version"":""20.2.2"",""labjs_build"":{""flavor"":""production"",""commit"":""a25486e0c714a0ae2ce03ff94b7bb6896854dcfa""},""location"":""https://run.pavlovia.org/mvasilev/prolific3_music_c/"",""userAgent"":""Mozilla/5.0 (Windows NT 10.0; Win64; x64) AppleWebKit/537.36 (KHTML, like Gecko) Chrome/102.0.9999.0 Safari/537.36"",""platform"":""Win32"",""language"":""en-US"",""locale"":""en-US"",""timeZone"":""Europe/London"",""timezoneOffset"":-60,""screen_width"":1366,""screen_height"":768,""scroll_width"":1366,""scroll_height"":601,""window_innerWidth"":1366,""window_innerHeight"":649,""devicePixelRatio"":1}",,,,,,,,,,,,,,,6078a81cf8cca30168a09a59,,,,,,,,,,,,,,,7278.998999856949,,form submission,,,,,,,,,,,,,,,,,,,,,19930.099999904633,19929.39999985695,12633.121,12641.199999809265,12650.401,19943.226,{},,
Introduction,html.Screen,1_0,2022-05-11T11:15:05.878Z,,,,,,,,,,,,,,,,,,,,,,,,,,,,,,,3799.7740000000013,,response,,,,,,,,,,,continue,click button,,,,,,,,,23746.199999809265,23743,19910.011,19930.5,19943.226,23756.202,,,
Volume calibration,html.Screen,1_1,2022-05-11T11:15:25.200Z,,,,,,,,,,,,,,,,,,,,,,,,,,,,,,,19306.697999856948,,response,,,,,,,,,,,continue,click button,,,,,,,,,43068.199999809265,43062.89999985695,23739.592,23746.39999985695,23756.202,43070.587,,,
Task instructions,html.Screen,1_2,2022-05-11T11:15:33.131Z,,,,,,,,,,,,,,,,,,,,,,,,,,,,,,,7927.312999856949,,response,,,,,,,,,,,continue,click button,,,,,,,,,50998.89999985695,50997.89999985695,43054.004,43068.299999952316,43070.587,51012.813,,,
Sounds,html.Screen,1_3_0_0,2022-05-11T11:15:37.381Z,,,,,,,,,,,,,,,,,,,,,,,,,,,,,,,4245.9360000000015,,timeout,,,,,,,,,2,,,,,,,,O,S,I,,55248.5,55242.087,50996.259,50999.09999990463,51012.813,55258.749,,,
Judgement,html.Screen,1_3_0_1,2022-05-11T11:15:39.379Z,,,,,,,,,,,,,,,,,,,,,,,,,,,,true,2,,1987.0509999523128,,response,,,,,,,,,2,,2,click #choice-2,,,,,O,S,I,,57246.89999985695,57245.799999952316,55242.087,55248.799999952316,55258.749,57256.866,,,
Trial,flow.Sequence,1_3_0,2022-05-11T11:15:39.379Z,,,,,,,,,,,,,,,,,,,,,,,,,,,,,,,6232.986999952314,,completion,,,,,,,,,2,,,,,,,,O,S,I,,57247.199999809265,57245.799999952316,50996.259,50999,51012.813,57256.866,,,
Sounds,html.Screen,1_3_1_0,2022-05-11T11:15:43.620Z,,,,,,,,,,,,,,,,,,,,,,,,,,,,,,,4245.847000000002,,timeout,,,,,,,,,1,,,,,,,,S,O,I,,61487.39999985695,61486.109,57240.211,57247.39999985695,57256.866,61502.713,,,
Judgement,html.Screen,1_3_1_1,2022-05-11T11:15:44.580Z,,,,,,,,,,,,,,,,,,,,,,,,,,,,true,1,,943.4869998092618,,response,,,,,,,,,1,,1,click #choice-1,,,,,S,O,I,,62447.5,62446.199999809265,61486.109,61487.699999809265,61502.713,62451.562,,,
Trial,flow.Sequence,1_3_1,2022-05-11T11:15:44.580Z,,,,,,,,,,,,,,,,,,,,,,,,,,,,,,,5189.333999809263,,completion,,,,,,,,,1,,,,,,,,S,O,I,,62447.799999952316,62446.199999809265,57240.211,57247.299999952316,57256.866,62451.562,,,
Sounds,html.Screen,1_3_2_0,2022-05-11T11:15:48.815Z,,,,,,,,,,,,,,,,,,,,,,,,,,,,,,,4246.046999999999,,timeout,,,,,,,,,3,,,,,,,,I,O,S,,66682.39999985695,66680.909,62435.065,62448,62451.562,66697.609,,,
Judgement,html.Screen,1_3_2_1,2022-05-11T11:15:49.708Z,,,,,,,,,,,,,,,,,,,,,,,,,,,,true,3,,876.8910000000033,,response,,,,,,,,,3,,3,click #choice-3,,,,,I,O,S,,67575.39999985695,67574.5,66680.909,66682.69999980927,66697.609,67579.93,,,
Trial,flow.Sequence,1_3_2,2022-05-11T11:15:49.708Z,,,,,,,,,,,,,,,,,,,,,,,,,,,,,,,5122.938000000002,,completion,,,,,,,,,3,,,,,,,,I,O,S,,67575.69999980927,67574.5,62435.065,62447.89999985695,62451.562,67579.93,,,
Sounds,html.Screen,1_3_3_0,2022-05-11T11:15:53.950Z,,,,,,,,,,,,,,,,,,,,,,,,,,,,,,,4246.034000000014,,timeout,,,,,,,,,1,,,,,,,,S,I,O,,71810.79999995232,71809.362,67563.534,67575.89999985695,67579.93,71825.964,,,
Judgement,html.Screen,1_3_3_1,2022-05-11T11:15:54.857Z,,,,,,,,,,,,,,,,,,,,,,,,,,,,true,1,,890.9359998569416,,response,,,,,,,,,1,,1,click #choice-1,,,,,S,I,O,,72717.89999985695,72716.89999985695,71809.362,71811.09999990463,71825.964,72724.826,,,
Trial,flow.Sequence,1_3_3,2022-05-11T11:15:54.857Z,,,,,,,,,,,,,,,,,,,,,,,,,,,,,,,5136.969999856956,,completion,,,,,,,,,1,,,,,,,,S,I,O,,72718.09999990463,72716.89999985695,67563.534,67575.79999995232,67579.93,72724.826,,,
Sounds,html.Screen,1_3_4_0,2022-05-11T11:15:59.095Z,,,,,,,,,,,,,,,,,,,,,,,,,,,,,,,4246.059999999998,,timeout,,,,,,,,,2,,,,,,,,I,S,O,,76955.69999980927,76954.104,72708.486,72718.29999995232,72724.826,76970.886,,,
Judgement,html.Screen,1_3_4_1,2022-05-11T11:16:00.014Z,,,,,,,,,,,,,,,,,,,,,,,,,,,,true,2,,902.9139999523177,,response,,,,,,,,,2,,2,click #choice-2,,,,,I,S,O,,77875,77873.79999995232,76954.104,76956,76970.886,77886.477,,,
Trial,flow.Sequence,1_3_4,2022-05-11T11:16:00.014Z,,,,,,,,,,,,,,,,,,,,,,,,,,,,,,,5148.973999952315,,completion,,,,,,,,,2,,,,,,,,I,S,O,,77875.29999995232,77873.79999995232,72708.486,72718.19999980927,72724.826,77886.477,,,
Sounds,html.Screen,1_3_5_0,2022-05-11T11:16:04.256Z,,,,,,,,,,,,,,,,,,,,,,,,,,,,,,,4246.073000000004,,timeout,,,,,,,,,3,,,,,,,,O,I,S,,82117.19999980927,82115.865,77870.035,77875.5,77886.477,82132.55,,,
Judgement,html.Screen,1_3_5_1,2022-05-11T11:16:05.403Z,,,,,,,,,,,,,,,,,,,,,,,,,,,,true,3,,1130.349999856946,,response,,,,,,,,,3,,3,click #choice-3,,,,,O,I,S,,83263.89999985695,83262.89999985695,82115.865,82117.5,82132.55,83281.751,,,
Trial,flow.Sequence,1_3_5,2022-05-11T11:16:05.403Z,,,,,,,,,,,,,,,,,,,,,,,,,,,,,,,5376.42299985695,,completion,,,,,,,,,3,,,,,,,,O,I,S,,83264.09999990463,83262.89999985695,77870.035,77875.29999995232,77886.477,83281.751,,,
Task,flow.Loop,1_3,2022-05-11T11:16:05.410Z,,,,,,,,,,,,,,,,,,,,,,,,,,,,,,,32250.086999856947,,completion,,,1,,,,,,,,,,,,,,,,,,83271.09999990463,83262.89999985695,50996.259,50999,51012.813,83281.751,,,
Trap,html.Screen,1_4,2022-05-11T11:16:05.412Z,,,,,,,,,,,,,,,,,,,,,,,,,,,,,,,NaN,,skipped,,,,,,,,,,,,,,,,,,,,,83272.59999990463,83262.89999985695,,83272.39999985695,,83281.751,,,
Thanks,html.Screen,1_5,2022-05-11T11:16:09.809Z,,,,,,,,,,,,,,,,,,,,,,,,,,,,,,,4387.648999856945,,response,,,,,,,,,,,continue,click button,,,,,,,,,87670.29999995232,87669.39999985695,83248.137,83272.69999980927,83281.751,92538.773,,,
Headphone screening,flow.Sequence,1,2022-05-11T11:16:09.809Z,,,,,,,,,,,,,,,,,,,,,,,,,,,,,,,67726.17399985695,,completion,,,,,,,,,,,,,,,,,,,,,87670.5,87669.39999985695,19910.011,19930.39999985695,19943.226,92538.773,,,
Instructions,html.Page,2_0,2022-05-11T11:16:36.801Z,,,,,,,,,,,,,,,,,,,,,,,,,,,,,,,22122.626999856948,,form submission,,,,,,,,,,,,,,,,,,,,,114661.79999995232,114661.39999985695,92522.086,92542,92538.773,114667.721,,,
Holding screen,html.Screen,2_1_0_0,2022-05-11T11:16:46.797Z,,,,,,,,,,,,,,,,,,,,,,,,,,,,,,,10022.955000000002,,timeout,,,,,,,,,,,,,,,,,,,,,124658.5,124657.465,114650.543,114662,114667.721,124690.676,,,
screen,html.Screen,2_1_0_1_0,2022-05-11T11:16:47.713Z,,,,,,,,,,,,,,,,,53,,,,,,,,,,,,,,878.0239998092584,,response,,,,99,,,,,,,Space,keypress(Space),,,,,,,,When -- ----- -- ------ - ------- --- ----------<br>------------- ------ ------ ---- ---- ------- ----- -- ----<br>-------- ------- -- ---------- --- - --- ----- ----- ----<br>---- --- --- ----- --- ---- ---- ------- ----- ---- -------<br>--- --- -- ----- -- --- ---- -- --- ---- -- ------ ------<br>--- ----- -- ----,125574.29999995232,125568.69999980927,124657.465,124658.89999985695,124690.676,125573.098,,0,When
screen,html.Screen,2_1_0_1_1,2022-05-11T11:16:48.086Z,,,,,,,,,,,,,,,,,53,,,,,,,,,,,,,,372.8019998569507,,response,,,,99,,,,,,,Space,keypress(Space),,,,,,,,---- it ----- -- ------ - ------- --- ----------<br>------------- ------ ------ ---- ---- ------- ----- -- ----<br>-------- ------- -- ---------- --- - --- ----- ----- ----<br>---- --- --- ----- --- ---- ---- ------- ----- ---- -------<br>--- --- -- ----- -- --- ---- -- --- ---- -- ------ ------<br>--- ----- -- ----,125947,125945.89999985695,125556.797,125574.59999990463,125573.098,125956.06,,1,it
screen,html.Screen,2_1_0_1_2,2022-05-11T11:16:48.441Z,,,,,,,,,,,,,,,,,53,,,,,,,,,,,,,,344.4400000000023,,response,,,,99,,,,,,,Space,keypress(Space),,,,,,,,---- -- comes -- ------ - ------- --- ----------<br>------------- ------ ------ ---- ---- ------- ----- -- ----<br>-------- ------- -- ---------- --- - --- ----- ----- ----<br>---- --- --- ----- --- ---- ---- ------- ----- ---- -------<br>--- --- -- ----- -- --- ---- -- --- ---- -- ------ ------<br>--- ----- -- ----,126301.59999990463,126300.5,125939.589,125949.89999985695,125956.06,126305.703,,2,comes
screen,html.Screen,2_1_0_1_3,2022-05-11T11:16:48.825Z,,,,,,,,,,,,,,,,,53,,,,,,,,,,,,,,379.0969999523222,,response,,,,99,,,,,,,Space,keypress(Space),,,,,,,,---- -- ----- to ------ - ------- --- ----------<br>------------- ------ ------ ---- ---- ------- ----- -- ----<br>-------- ------- -- ---------- --- - --- ----- ----- ----<br>---- --- --- ----- --- ---- ---- ------- ----- ---- -------<br>--- --- -- ----- -- --- ---- -- --- ---- -- ------ ------<br>--- ----- -- ----,126685.79999995232,126684.79999995232,126289.244,126301.89999985695,126305.703,126688.689,,3,to
screen,html.Screen,2_1_0_1_4,2022-05-11T11:16:49.188Z,,,,,,,,,,,,,,,,,53,,,,,,,,,,,,,,359.21099985695037,,response,,,,99,,,,,,,Space,keypress(Space),,,,,,,,---- -- ----- -- having - ------- --- ----------<br>------------- ------ ------ ---- ---- ------- ----- -- ----<br>-------- ------- -- ---------- --- - --- ----- ----- ----<br>---- --- --- ----- --- ---- ---- ------- ----- ---- -------<br>--- --- -- ----- -- --- ---- -- --- ---- -- ------ ------<br>--- ----- -- ----,127048.89999985695,127047.89999985695,126672.135,126686,126688.689,127055,,4,having
screen,html.Screen,2_1_0_1_5,2022-05-11T11:16:49.518Z,,,,,,,,,,,,,,,,,53,,,,,,,,,,,,,,322.7999999523163,,response,,,,99,,,,,,,Space,keypress(Space),,,,,,,,---- -- ----- -- ------ a ------- --- ----------<br>------------- ------ ------ ---- ---- ------- ----- -- ----<br>-------- ------- -- ---------- --- - --- ----- ----- ----<br>---- --- --- ----- --- ---- ---- ------- ----- ---- -------<br>--- --- -- ----- -- --- ---- -- --- ---- -- ------ ------<br>--- ----- -- ----,127378.89999985695,127377.79999995232,127038.294,127049.09999990463,127055,127387.995,,5,a
screen,html.Screen,2_1_0_1_6,2022-05-11T11:16:49.848Z,,,,,,,,,,,,,,,,,53,,,,,,,,,,,,,,319.9049998569535,,response,,,,99,,,,,,,Space,keypress(Space),,,,,,,,---- -- ----- -- ------ - lasting --- ----------<br>------------- ------ ------ ---- ---- ------- ----- -- ----<br>-------- ------- -- ---------- --- - --- ----- ----- ----<br>---- --- --- ----- --- ---- ---- ------- ----- ---- -------<br>--- --- -- ----- -- --- ---- -- --- ---- -- ------ ------<br>--- ----- -- ----,127709,127707.89999985695,127371.533,127379.09999990463,127387.995,127721.187,,6,lasting
screen,html.Screen,2_1_0_1_7,2022-05-11T11:16:50.156Z,,,,,,,,,,,,,,,,,53,,,,,,,,,,,,,,295.4129999046272,,response,,,,99,,,,,,,Space,keypress(Space),,,,,,,,---- -- ----- -- ------ - ------- and ----------<br>------------- ------ ------ ---- ---- ------- ----- -- ----<br>-------- ------- -- ---------- --- - --- ----- ----- ----<br>---- --- --- ----- --- ---- ---- ------- ----- ---- -------<br>--- --- -- ----- -- --- ---- -- --- ---- -- ------ ------<br>--- ----- -- ----,128017.39999985695,128016.59999990463,127704.486,127709.19999980927,127721.187,128020.73,,7,and
screen,html.Screen,2_1_0_1_8,2022-05-11T11:16:50.441Z,,,,,,,,,,,,,,,,,53,,,,,,,,,,,,,,280.4699998092692,,response,,,,99,,,,,,,Space,keypress(Space),,,,,,,,---- -- ----- -- ------ - ------- --- fulfilling<br>------------- ------ ------ ---- ---- ------- ----- -- ----<br>-------- ------- -- ---------- --- - --- ----- ----- ----<br>---- --- --- ----- --- ---- ---- ------- ----- ---- -------<br>--- --- -- ----- -- --- ---- -- --- ---- -- ------ ------<br>--- ----- -- ----,128302.39999985695,128301.19999980927,128004.269,128017.79999995232,128020.73,128320.503,,8,fulfilling
screen,html.Screen,2_1_0_1_9,2022-05-11T11:16:50.802Z,,,,,,,,,,,,,,,,,53,,,,,,,,,,,,,,341.19699980926816,,response,,,,99,,,,,,,Space,keypress(Space),,,,,,,,"---- -- ----- -- ------ - ------- --- ----------<br>relationship, ------ ------ ---- ---- ------- ----- -- ----<br>-------- ------- -- ---------- --- - --- ----- ----- ----<br>---- --- --- ----- --- ---- ---- ------- ----- ---- -------<br>--- --- -- ----- -- --- ---- -- --- ---- -- ------ ------<br>--- ----- -- ----",128663,128661.69999980927,128287.262,128302.79999995232,128320.503,128670.079,,9,"relationship,"
screen,html.Screen,2_1_0_1_10,2022-05-11T11:16:51.260Z,,,,,,,,,,,,,,,,,53,,,,,,,,,,,,,,449.7209999523184,,response,,,,99,,,,,,,Space,keypress(Space),,,,,,,,---- -- ----- -- ------ - ------- --- ----------<br>------------- common ------ ---- ---- ------- ----- -- ----<br>-------- ------- -- ---------- --- - --- ----- ----- ----<br>---- --- --- ----- --- ---- ---- ------- ----- ---- -------<br>--- --- -- ----- -- --- ---- -- --- ---- -- ------ ------<br>--- ----- -- ----,129120.79999995232,129119.79999995232,128653.579,128663.19999980927,128670.079,129136.332,,10,common
screen,html.Screen,2_1_0_1_11,2022-05-11T11:16:51.599Z,,,,,,,,,,,,,,,,,53,,,,,,,,,,,,,,322.9679999523214,,response,,,,99,,,,,,,Space,keypress(Space),,,,,,,,---- -- ----- -- ------ - ------- --- ----------<br>------------- ------ wisdom ---- ---- ------- ----- -- ----<br>-------- ------- -- ---------- --- - --- ----- ----- ----<br>---- --- --- ----- --- ---- ---- ------- ----- ---- -------<br>--- --- -- ----- -- --- ---- -- --- ---- -- ------ ------<br>--- ----- -- ----,129460.39999985695,129459.29999995232,129119.701,129121.09999990463,129136.332,129469.298,,11,wisdom
screen,html.Screen,2_1_0_1_12,2022-05-11T11:16:51.841Z,,,,,,,,,,,,,,,,,53,,,,,,,,,,,,,,231.70200000000477,,response,,,,99,,,,,,,Space,keypress(Space),,,,,,,,---- -- ----- -- ------ - ------- --- ----------<br>------------- ------ ------ says ---- ------- ----- -- ----<br>-------- ------- -- ---------- --- - --- ----- ----- ----<br>---- --- --- ----- --- ---- ---- ------- ----- ---- -------<br>--- --- -- ----- -- --- ---- -- --- ---- -- ------ ------<br>--- ----- -- ----,129702,129701,129452.775,129460.59999990463,129469.298,129719.258,,12,says
screen,html.Screen,2_1_0_1_13,2022-05-11T11:16:52.173Z,,,,,,,,,,,,,,,,,53,,,,,,,,,,,,,,313.6419998569472,,response,,,,99,,,,,,,Space,keypress(Space),,,,,,,,---- -- ----- -- ------ - ------- --- ----------<br>------------- ------ ------ ---- that ------- ----- -- ----<br>-------- ------- -- ---------- --- - --- ----- ----- ----<br>---- --- --- ----- --- ---- ---- ------- ----- ---- -------<br>--- --- -- ----- -- --- ---- -- --- ---- -- ------ ------<br>--- ----- -- ----,130033.89999985695,130032.89999985695,129702.641,129702.29999995232,129719.258,130052.276,,13,that
screen,html.Screen,2_1_0_1_14,2022-05-11T11:16:52.507Z,,,,,,,,,,,,,,,,,53,,,,,,,,,,,,,,315.02399995231826,,response,,,,99,,,,,,,Space,keypress(Space),,,,,,,,---- -- ----- -- ------ - ------- --- ----------<br>------------- ------ ------ ---- ---- feeling ----- -- ----<br>-------- ------- -- ---------- --- - --- ----- ----- ----<br>---- --- --- ----- --- ---- ---- ------- ----- ---- -------<br>--- --- -- ----- -- --- ---- -- --- ---- -- ------ ------<br>--- ----- -- ----,130368.39999985695,130367.29999995232,130019.001,130034.29999995232,130052.276,130385.301,,14,feeling
screen,html.Screen,2_1_0_1_15,2022-05-11T11:16:52.763Z,,,,,,,,,,,,,,,,,53,,,,,,,,,,,,,,236.99899995230953,,response,,,,99,,,,,,,Space,keypress(Space),,,,,,,,---- -- ----- -- ------ - ------- --- ----------<br>------------- ------ ------ ---- ---- ------- close -- ----<br>-------- ------- -- ---------- --- - --- ----- ----- ----<br>---- --- --- ----- --- ---- ---- ------- ----- ---- -------<br>--- --- -- ----- -- --- ---- -- --- ---- -- ------ ------<br>--- ----- -- ----,130623.59999990463,130622.29999995232,130368.679,130368.69999980927,130385.301,130634.882,,15,close
screen,html.Screen,2_1_0_1_16,2022-05-11T11:16:53.091Z,,,,,,,,,,,,,,,,,53,,,,,,,,,,,,,,316.51799985695106,,response,,,,99,,,,,,,Space,keypress(Space),,,,,,,,---- -- ----- -- ------ - ------- --- ----------<br>------------- ------ ------ ---- ---- ------- ----- to ----<br>-------- ------- -- ---------- --- - --- ----- ----- ----<br>---- --- --- ----- --- ---- ---- ------- ----- ---- -------<br>--- --- -- ----- -- --- ---- -- --- ---- -- ------ ------<br>--- ----- -- ----,130952.39999985695,130951.39999985695,130618.216,130623.89999985695,130634.882,130968.031,,16,to
screen,html.Screen,2_1_0_1_17,2022-05-11T11:16:53.332Z,,,,,,,,,,,,,,,,,53,,,,,,,,,,,,,,223.5689999046299,,response,,,,99,,,,,,,Space,keypress(Space),,,,,,,,---- -- ----- -- ------ - ------- --- ----------<br>------------- ------ ------ ---- ---- ------- ----- -- your<br>-------- ------- -- ---------- --- - --- ----- ----- ----<br>---- --- --- ----- --- ---- ---- ------- ----- ---- -------<br>--- --- -- ----- -- --- ---- -- --- ---- -- ------ ------<br>--- ----- -- ----,131192.59999990463,131191.59999990463,130951.225,130952.69999980927,130968.031,131200.938,,17,your
screen,html.Screen,2_1_0_1_18,2022-05-11T11:16:53.797Z,,,,,,,,,,,,,,,,,53,,,,,,,,,,,,,,456.56200000000536,,response,,,,99,,,,,,,Space,keypress(Space),,,,,,,,---- -- ----- -- ------ - ------- --- ----------<br>------------- ------ ------ ---- ---- ------- ----- -- ----<br>romantic ------- -- ---------- --- - --- ----- ----- ----<br>---- --- --- ----- --- ---- ---- ------- ----- ---- -------<br>--- --- -- ----- -- --- ---- -- --- ---- -- ------ ------<br>--- ----- -- ----,131658.5,131657.5,131184.552,131192.89999985695,131200.938,131667.143,,18,romantic
screen,html.Screen,2_1_0_1_19,2022-05-11T11:16:54.140Z,,,,,,,,,,,,,,,,,53,,,,,,,,,,,,,,332.9569999046216,,response,,,,99,,,,,,,Space,keypress(Space),,,,,,,,---- -- ----- -- ------ - ------- --- ----------<br>------------- ------ ------ ---- ---- ------- ----- -- ----<br>-------- partner -- ---------- --- - --- ----- ----- ----<br>---- --- --- ----- --- ---- ---- ------- ----- ---- -------<br>--- --- -- ----- -- --- ---- -- --- ---- -- ------ ------<br>--- ----- -- ----,132001.19999980927,132000.09999990463,131650.662,131658.79999995232,131667.143,132017,,19,partner
screen,html.Screen,2_1_0_1_20,2022-05-11T11:16:54.344Z,,,,,,,,,,,,,,,,,53,,,,,,,,,,,,,,187.19999980926514,,response,,,,99,,,,,,,Space,keypress(Space),,,,,,,,---- -- ----- -- ------ - ------- --- ----------<br>------------- ------ ------ ---- ---- ------- ----- -- ----<br>-------- ------- is ---------- --- - --- ----- ----- ----<br>---- --- --- ----- --- ---- ---- ------- ----- ---- -------<br>--- --- -- ----- -- --- ---- -- --- ---- -- ------ ------<br>--- ----- -- ----,132205.19999980927,132204.19999980927,132000.379,132001.39999985695,132017,132216.662,,20,is
screen,html.Screen,2_1_0_1_21,2022-05-11T11:16:54.699Z,,,,,,,,,,,,,,,,,53,,,,,,,,,,,,,,342.2379998569377,,response,,,,99,,,,,,,Space,keypress(Space),,,,,,,,---- -- ----- -- ------ - ------- --- ----------<br>------------- ------ ------ ---- ---- ------- ----- -- ----<br>-------- ------- -- paramount. --- - --- ----- ----- ----<br>---- --- --- ----- --- ---- ---- ------- ----- ---- -------<br>--- --- -- ----- -- --- ---- -- --- ---- -- ------ ------<br>--- ----- -- ----,132560,132558.89999985695,132200.131,132205.39999985695,132216.662,132566.305,,21,paramount.
screen,html.Screen,2_1_0_1_22,2022-05-11T11:16:55.078Z,,,,,,,,,,,,,,,,,53,,,,,,,,,,,,,,371.695000000007,,response,,,,99,,,,,,,Space,keypress(Space),,,,,,,,---- -- ----- -- ------ - ------- --- ----------<br>------------- ------ ------ ---- ---- ------- ----- -- ----<br>-------- ------- -- ---------- But - --- ----- ----- ----<br>---- --- --- ----- --- ---- ---- ------- ----- ---- -------<br>--- --- -- ----- -- --- ---- -- --- ---- -- ------ ------<br>--- ----- -- ----,132939,132938,132549.669,132560.19999980927,132566.305,132949.209,,22,But
screen,html.Screen,2_1_0_1_23,2022-05-11T11:16:55.419Z,,,,,,,,,,,,,,,,,53,,,,,,,,,,,,,,329.6909998569463,,response,,,,99,,,,,,,Space,keypress(Space),,,,,,,,---- -- ----- -- ------ - ------- --- ----------<br>------------- ------ ------ ---- ---- ------- ----- -- ----<br>-------- ------- -- ---------- --- a --- ----- ----- ----<br>---- --- --- ----- --- ---- ---- ------- ----- ---- -------<br>--- --- -- ----- -- --- ---- -- --- ---- -- ------ ------<br>--- ----- -- ----,133280,133278.89999985695,132932.622,132939.19999980927,132949.209,133282.203,,23,a
screen,html.Screen,2_1_0_1_24,2022-05-11T11:16:55.734Z,,,,,,,,,,,,,,,,,53,,,,,,,,,,,,,,312.19699985694024,,response,,,,99,,,,,,,Space,keypress(Space),,,,,,,,---- -- ----- -- ------ - ------- --- ----------<br>------------- ------ ------ ---- ---- ------- ----- -- ----<br>-------- ------- -- ---------- --- - new ----- ----- ----<br>---- --- --- ----- --- ---- ---- ------- ----- ---- -------<br>--- --- -- ----- -- --- ---- -- --- ---- -- ------ ------<br>--- ----- -- ----,133595.39999985695,133594.39999985695,133265.825,133280.09999990463,133282.203,133598.572,,24,new
screen,html.Screen,2_1_0_1_25,2022-05-11T11:16:55.917Z,,,,,,,,,,,,,,,,,53,,,,,,,,,,,,,,178.12799980927957,,response,,,,99,,,,,,,Space,keypress(Space),,,,,,,,---- -- ----- -- ------ - ------- --- ----------<br>------------- ------ ------ ---- ---- ------- ----- -- ----<br>-------- ------- -- ---------- --- - --- study ----- ----<br>---- --- --- ----- --- ---- ---- ------- ----- ---- -------<br>--- --- -- ----- -- --- ---- -- --- ---- -- ------ ------<br>--- ----- -- ----,133778.19999980927,133776.69999980927,133582.06,133595.59999990463,133598.572,133781.747,,25,study
screen,html.Screen,2_1_0_1_26,2022-05-11T11:16:56.300Z,,,,,,,,,,,,,,,,,53,,,,,,,,,,,,,,378.55299995231326,,response,,,,99,,,,,,,Space,keypress(Space),,,,,,,,---- -- ----- -- ------ - ------- --- ----------<br>------------- ------ ------ ---- ---- ------- ----- -- ----<br>-------- ------- -- ---------- --- - --- ----- finds ----<br>---- --- --- ----- --- ---- ---- ------- ----- ---- -------<br>--- --- -- ----- -- --- ---- -- --- ---- -- ------ ------<br>--- ----- -- ----,134161.29999995232,134160.29999995232,133765.295,133778.5,133781.747,134164.638,,26,finds
screen,html.Screen,2_1_0_1_27,2022-05-11T11:16:56.571Z,,,,,,,,,,,,,,,,,53,,,,,,,,,,,,,,266.76199985694257,,response,,,,99,,,,,,,Space,keypress(Space),,,,,,,,---- -- ----- -- ------ - ------- --- ----------<br>------------- ------ ------ ---- ---- ------- ----- -- ----<br>-------- ------- -- ---------- --- - --- ----- ----- that<br>---- --- --- ----- --- ---- ---- ------- ----- ---- -------<br>--- --- -- ----- -- --- ---- -- --- ---- -- ------ ------<br>--- ----- -- ----,134432.39999985695,134431.39999985695,134148.189,134161.5,134164.638,134447.959,,27,that
screen,html.Screen,2_1_0_1_28,2022-05-11T11:16:56.907Z,,,,,,,,,,,,,,,,,53,,,,,,,,,,,,,,319.3409999523137,,response,,,,99,,,,,,,Space,keypress(Space),,,,,,,,---- -- ----- -- ------ - ------- --- ----------<br>------------- ------ ------ ---- ---- ------- ----- -- ----<br>-------- ------- -- ---------- --- - --- ----- ----- ----<br>it's --- --- ----- --- ---- ---- ------- ----- ---- -------<br>--- --- -- ----- -- --- ---- -- --- ---- -- ------ ------<br>--- ----- -- ----,134768.39999985695,134767.29999995232,134431.257,134432.59999990463,134447.959,134780.909,,28,it's
screen,html.Screen,2_1_0_1_29,2022-05-11T11:16:57.105Z,,,,,,,,,,,,,,,,,53,,,,,,,,,,,,,,184.0909999999858,,response,,,,99,,,,,,,Space,keypress(Space),,,,,,,,---- -- ----- -- ------ - ------- --- ----------<br>------------- ------ ------ ---- ---- ------- ----- -- ----<br>-------- ------- -- ---------- --- - --- ----- ----- ----<br>---- not --- ----- --- ---- ---- ------- ----- ---- -------<br>--- --- -- ----- -- --- ---- -- --- ---- -- ------ ------<br>--- ----- -- ----,134966.09999990463,134965,134764.318,134768.59999990463,134780.909,134980.844,,29,not
screen,html.Screen,2_1_0_1_30,2022-05-11T11:16:57.464Z,,,,,,,,,,,,,,,,,53,,,,,,,,,,,,,,343.055999856937,,response,,,,99,,,,,,,Space,keypress(Space),,,,,,,,---- -- ----- -- ------ - ------- --- ----------<br>------------- ------ ------ ---- ---- ------- ----- -- ----<br>-------- ------- -- ---------- --- - --- ----- ----- ----<br>---- --- how ----- --- ---- ---- ------- ----- ---- -------<br>--- --- -- ----- -- --- ---- -- --- ---- -- ------ ------<br>--- ----- -- ----,135325.19999980927,135323.89999985695,134964.152,134966.29999995232,134980.844,135330.27,,30,how
screen,html.Screen,2_1_0_1_31,2022-05-11T11:16:57.713Z,,,,,,,,,,,,,,,,,53,,,,,,,,,,,,,,243.23000000001048,,response,,,,99,,,,,,,Space,keypress(Space),,,,,,,,---- -- ----- -- ------ - ------- --- ----------<br>------------- ------ ------ ---- ---- ------- ----- -- ----<br>-------- ------- -- ---------- --- - --- ----- ----- ----<br>---- --- --- close --- ---- ---- ------- ----- ---- -------<br>--- --- -- ----- -- --- ---- -- --- ---- -- ------ ------<br>--- ----- -- ----,135574.39999985695,135573.5,135313.66,135325.39999985695,135330.27,135579.967,,31,close
screen,html.Screen,2_1_0_1_32,2022-05-11T11:16:57.945Z,,,,,,,,,,,,,,,,,53,,,,,,,,,,,,,,225.13299990462838,,response,,,,99,,,,,,,Space,keypress(Space),,,,,,,,---- -- ----- -- ------ - ------- --- ----------<br>------------- ------ ------ ---- ---- ------- ----- -- ----<br>-------- ------- -- ---------- --- - --- ----- ----- ----<br>---- --- --- ----- you ---- ---- ------- ----- ---- -------<br>--- --- -- ----- -- --- ---- -- --- ---- -- ------ ------<br>--- ----- -- ----,135806.29999995232,135805.09999990463,135563.474,135574.59999990463,135579.967,135813.113,,32,you
screen,html.Screen,2_1_0_1_33,2022-05-11T11:16:58.273Z,,,,,,,,,,,,,,,,,53,,,,,,,,,,,,,,320.08699980925303,,response,,,,99,,,,,,,Space,keypress(Space),,,,,,,,---- -- ----- -- ------ - ------- --- ----------<br>------------- ------ ------ ---- ---- ------- ----- -- ----<br>-------- ------- -- ---------- --- - --- ----- ----- ----<br>---- --- --- ----- --- feel ---- ------- ----- ---- -------<br>--- --- -- ----- -- --- ---- -- --- ---- -- ------ ------<br>--- ----- -- ----,136134.29999995232,136133.19999980927,135796.624,135806.5,135813.113,136146.091,,33,feel
screen,html.Screen,2_1_0_1_34,2022-05-11T11:16:58.647Z,,,,,,,,,,,,,,,,,53,,,,,,,,,,,,,,360.9090000000142,,response,,,,99,,,,,,,Space,keypress(Space),,,,,,,,---- -- ----- -- ------ - ------- --- ----------<br>------------- ------ ------ ---- ---- ------- ----- -- ----<br>-------- ------- -- ---------- --- - --- ----- ----- ----<br>---- --- --- ----- --- ---- that ------- ----- ---- -------<br>--- --- -- ----- -- --- ---- -- --- ---- -- ------ ------<br>--- ----- -- ----,136508.39999985695,136507,136129.569,136134.59999990463,136146.091,136512.416,,34,that
screen,html.Screen,2_1_0_1_35,2022-05-11T11:16:58.876Z,,,,,,,,,,,,,,,,,53,,,,,,,,,,,,,,223.9839998569514,,response,,,,99,,,,,,,Space,keypress(Space),,,,,,,,---- -- ----- -- ------ - ------- --- ----------<br>------------- ------ ------ ---- ---- ------- ----- -- ----<br>-------- ------- -- ---------- --- - --- ----- ----- ----<br>---- --- --- ----- --- ---- ---- matters ----- ---- -------<br>--- --- -- ----- -- --- ---- -- --- ---- -- ------ ------<br>--- ----- -- ----,136737.59999990463,136736.39999985695,136495.806,136508.89999985695,136512.416,136745.449,,35,matters
screen,html.Screen,2_1_0_1_36,2022-05-11T11:16:59.252Z,,,,,,,,,,,,,,,,,53,,,,,,,,,,,,,,367.05100000000675,,response,,,,99,,,,,,,Space,keypress(Space),,,,,,,,"---- -- ----- -- ------ - ------- --- ----------<br>------------- ------ ------ ---- ---- ------- ----- -- ----<br>-------- ------- -- ---------- --- - --- ----- ----- ----<br>---- --- --- ----- --- ---- ---- ------- most, ---- -------<br>--- --- -- ----- -- --- ---- -- --- ---- -- ------ ------<br>--- ----- -- ----",137113.39999985695,137112.5,136728.903,136739.89999985695,136745.449,137128.626,,36,"most,"
screen,html.Screen,2_1_0_1_37,2022-05-11T11:16:59.530Z,,,,,,,,,,,,,,,,,53,,,,,,,,,,,,,,261.77399985695956,,response,,,,99,,,,,,,Space,keypress(Space),,,,,,,,---- -- ----- -- ------ - ------- --- ----------<br>------------- ------ ------ ---- ---- ------- ----- -- ----<br>-------- ------- -- ---------- --- - --- ----- ----- ----<br>---- --- --- ----- --- ---- ---- ------- ----- it's -------<br>--- --- -- ----- -- --- ---- -- --- ---- -- ------ ------<br>--- ----- -- ----,137391.19999980927,137390.39999985695,137111.916,137113.69999980927,137128.626,137394.872,,37,it's
screen,html.Screen,2_1_0_1_38,2022-05-11T11:16:59.785Z,,,,,,,,,,,,,,,,,53,,,,,,,,,,,,,,250.52799985694583,,response,,,,99,,,,,,,Space,keypress(Space),,,,,,,,---- -- ----- -- ------ - ------- --- ----------<br>------------- ------ ------ ---- ---- ------- ----- -- ----<br>-------- ------- -- ---------- --- - --- ----- ----- ----<br>---- --- --- ----- --- ---- ---- ------- ----- ---- whether<br>--- --- -- ----- -- --- ---- -- --- ---- -- ------ ------<br>--- ----- -- ----,137646.39999985695,137645.39999985695,137378.376,137391.39999985695,137394.872,137661.307,,38,whether
screen,html.Screen,2_1_0_1_39,2022-05-11T11:17:00.279Z,,,,,,,,,,,,,,,,,53,,,,,,,,,,,,,,477.59299985694815,,response,,,,99,,,,,,,Space,keypress(Space),,,,,,,,---- -- ----- -- ------ - ------- --- ----------<br>------------- ------ ------ ---- ---- ------- ----- -- ----<br>-------- ------- -- ---------- --- - --- ----- ----- ----<br>---- --- --- ----- --- ---- ---- ------- ----- ---- -------<br>you --- -- ----- -- --- ---- -- --- ---- -- ------ ------<br>--- ----- -- ----,138139.79999995232,138138.89999985695,137644.612,137646.59999990463,137661.307,138144.133,,39,you
screen,html.Screen,2_1_0_1_40,2022-05-11T11:17:00.474Z,,,,,,,,,,,,,,,,,53,,,,,,,,,,,,,,190.26699985694722,,response,,,,99,,,,,,,Space,keypress(Space),,,,,,,,---- -- ----- -- ------ - ------- --- ----------<br>------------- ------ ------ ---- ---- ------- ----- -- ----<br>-------- ------- -- ---------- --- - --- ----- ----- ----<br>---- --- --- ----- --- ---- ---- ------- ----- ---- -------<br>--- are -- ----- -- --- ---- -- --- ---- -- ------ ------<br>--- ----- -- ----,138335.29999995232,138334.39999985695,138127.529,138140,138144.133,138344.08,,40,are
screen,html.Screen,2_1_0_1_41,2022-05-11T11:17:00.799Z,,,,,,,,,,,,,,,,,53,,,,,,,,,,,,,,315.61999980927794,,response,,,,99,,,,,,,Space,keypress(Space),,,,,,,,---- -- ----- -- ------ - ------- --- ----------<br>------------- ------ ------ ---- ---- ------- ----- -- ----<br>-------- ------- -- ---------- --- - --- ----- ----- ----<br>---- --- --- ----- --- ---- ---- ------- ----- ---- -------<br>--- --- as ----- -- --- ---- -- --- ---- -- ------ ------<br>--- ----- -- ----,138660.69999980927,138659.69999980927,138327.56,138335.59999990463,138344.08,138676.971,,41,as
screen,html.Screen,2_1_0_1_42,2022-05-11T11:17:01.692Z,,,,,,,,,,,,,,,,,53,,,,,,,,,,,,,,875.3289999523258,,response,,,,99,,,,,,,Space,keypress(Space),,,,,,,,---- -- ----- -- ------ - ------- --- ----------<br>------------- ------ ------ ---- ---- ------- ----- -- ----<br>-------- ------- -- ---------- --- - --- ----- ----- ----<br>---- --- --- ----- --- ---- ---- ------- ----- ---- -------<br>--- --- -- close -- --- ---- -- --- ---- -- ------ ------<br>--- ----- -- ----,139553.39999985695,139552.29999995232,138660.433,138661.09999990463,138676.971,139559.399,,42,close
screen,html.Screen,2_1_0_1_43,2022-05-11T11:17:02.071Z,,,,,,,,,,,,,,,,,53,,,,,,,,,,,,,,372.00099985694396,,response,,,,99,,,,,,,Space,keypress(Space),,,,,,,,---- -- ----- -- ------ - ------- --- ----------<br>------------- ------ ------ ---- ---- ------- ----- -- ----<br>-------- ------- -- ---------- --- - --- ----- ----- ----<br>---- --- --- ----- --- ---- ---- ------- ----- ---- -------<br>--- --- -- ----- as --- ---- -- --- ---- -- ------ ------<br>--- ----- -- ----,139932.39999985695,139931.39999985695,139542.578,139553.59999990463,139559.399,139942.365,,43,as
screen,html.Screen,2_1_0_1_44,2022-05-11T11:17:02.311Z,,,,,,,,,,,,,,,,,53,,,,,,,,,,,,,,229.23499990464188,,response,,,,99,,,,,,,Space,keypress(Space),,,,,,,,---- -- ----- -- ------ - ------- --- ----------<br>------------- ------ ------ ---- ---- ------- ----- -- ----<br>-------- ------- -- ---------- --- - --- ----- ----- ----<br>---- --- --- ----- --- ---- ---- ------- ----- ---- -------<br>--- --- -- ----- -- you ---- -- --- ---- -- ------ ------<br>--- ----- -- ----,140172.59999990463,140171.59999990463,139925.852,139932.59999990463,139942.365,140175.493,,44,you
screen,html.Screen,2_1_0_1_45,2022-05-11T11:17:02.536Z,,,,,,,,,,,,,,,,,53,,,,,,,,,,,,,,220.4069998569612,,response,,,,99,,,,,,,Space,keypress(Space),,,,,,,,---- -- ----- -- ------ - ------- --- ----------<br>------------- ------ ------ ---- ---- ------- ----- -- ----<br>-------- ------- -- ---------- --- - --- ----- ----- ----<br>---- --- --- ----- --- ---- ---- ------- ----- ---- -------<br>--- --- -- ----- -- --- want -- --- ---- -- ------ ------<br>--- ----- -- ----,140396.79999995232,140395.89999985695,140159.054,140172.79999995232,140175.493,140408.59,,45,want
screen,html.Screen,2_1_0_1_46,2022-05-11T11:17:02.816Z,,,,,,,,,,,,,,,,,53,,,,,,,,,,,,,,267.2099999523198,,response,,,,99,,,,,,,Space,keypress(Space),,,,,,,,---- -- ----- -- ------ - ------- --- ----------<br>------------- ------ ------ ---- ---- ------- ----- -- ----<br>-------- ------- -- ---------- --- - --- ----- ----- ----<br>---- --- --- ----- --- ---- ---- ------- ----- ---- -------<br>--- --- -- ----- -- --- ---- to --- ---- -- ------ ------<br>--- ----- -- ----,140676.69999980927,140675.79999995232,140392.091,140397,140408.59,140691.832,,46,to
screen,html.Screen,2_1_0_1_47,2022-05-11T11:17:03.099Z,,,,,,,,,,,,,,,,,53,,,,,,,,,,,,,,267.567999856954,,response,,,,99,,,,,,,Space,keypress(Space),,,,,,,,"---- -- ----- -- ------ - ------- --- ----------<br>------------- ------ ------ ---- ---- ------- ----- -- ----<br>-------- ------- -- ---------- --- - --- ----- ----- ----<br>---- --- --- ----- --- ---- ---- ------- ----- ---- -------<br>--- --- -- ----- -- --- ---- -- be, ---- -- ------ ------<br>--- ----- -- ----",140960.39999985695,140959.39999985695,140675.277,140676.89999985695,140691.832,140974.802,,47,"be,"
screen,html.Screen,2_1_0_1_48,2022-05-11T11:17:03.318Z,,,,,,,,,,,,,,,,,53,,,,,,,,,,,,,,203.79799990463653,,response,,,,99,,,,,,,Space,keypress(Space),,,,,,,,---- -- ----- -- ------ - ------- --- ----------<br>------------- ------ ------ ---- ---- ------- ----- -- ----<br>-------- ------- -- ---------- --- - --- ----- ----- ----<br>---- --- --- ----- --- ---- ---- ------- ----- ---- -------<br>--- --- -- ----- -- --- ---- -- --- even -- ------ ------<br>--- ----- -- ----,141179.5,141178.59999990463,140958.055,140960.5,140974.802,141191.33,,48,even
screen,html.Screen,2_1_0_1_49,2022-05-11T11:17:03.669Z,,,,,,,,,,,,,,,,,53,,,,,,,,,,,,,,337.36999980927794,,response,,,,99,,,,,,,Space,keypress(Space),,,,,,,,---- -- ----- -- ------ - ------- --- ----------<br>------------- ------ ------ ---- ---- ------- ----- -- ----<br>-------- ------- -- ---------- --- - --- ----- ----- ----<br>---- --- --- ----- --- ---- ---- ------- ----- ---- -------<br>--- --- -- ----- -- --- ---- -- --- ---- if ------ ------<br>--- ----- -- ----,141529.79999995232,141528.69999980927,141174.732,141179.79999995232,141191.33,141540.796,,49,if
screen,html.Screen,2_1_0_1_50,2022-05-11T11:17:03.879Z,,,,,,,,,,,,,,,,,53,,,,,,,,,,,,,,197.60399985694676,,response,,,,99,,,,,,,Space,keypress(Space),,,,,,,,---- -- ----- -- ------ - ------- --- ----------<br>------------- ------ ------ ---- ---- ------- ----- -- ----<br>-------- ------- -- ---------- --- - --- ----- ----- ----<br>---- --- --- ----- --- ---- ---- ------- ----- ---- -------<br>--- --- -- ----- -- --- ---- -- --- ---- -- that's ------<br>--- ----- -- ----,141739.69999980927,141738.39999985695,141524.414,141530,141540.796,141757.344,,50,that's
screen,html.Screen,2_1_0_1_51,2022-05-11T11:17:04.103Z,,,,,,,,,,,,,,,,,53,,,,,,,,,,,,,,205.55599985693698,,response,,,,99,,,,,,,Space,keypress(Space),,,,,,,,---- -- ----- -- ------ - ------- --- ----------<br>------------- ------ ------ ---- ---- ------- ----- -- ----<br>-------- ------- -- ---------- --- - --- ----- ----- ----<br>---- --- --- ----- --- ---- ---- ------- ----- ---- -------<br>--- --- -- ----- -- --- ---- -- --- ---- -- ------ really<br>--- ----- -- ----,141963.89999985695,141962.89999985695,141740.643,141740.09999990463,141757.344,141973.736,,51,really
screen,html.Screen,2_1_0_1_52,2022-05-11T11:17:04.492Z,,,,,,,,,,,,,,,,,53,,,,,,,,,,,,,,378.7639999999956,,response,,,,99,,,,,,,Space,keypress(Space),,,,,,,,---- -- ----- -- ------ - ------- --- ----------<br>------------- ------ ------ ---- ---- ------- ----- -- ----<br>-------- ------- -- ---------- --- - --- ----- ----- ----<br>---- --- --- ----- --- ---- ---- ------- ----- ---- -------<br>--- --- -- ----- -- --- ---- -- --- ---- -- ------ ------<br>not ----- -- ----,142353.39999985695,142352.5,141957.092,141964.19999980927,141973.736,142356.656,,52,not
screen,html.Screen,2_1_0_1_53,2022-05-11T11:17:04.803Z,,,,,,,,,,,,,,,,,53,,,,,,,,,,,,,,307.043999809277,,response,,,,99,,,,,,,Space,keypress(Space),,,,,,,,---- -- ----- -- ------ - ------- --- ----------<br>------------- ------ ------ ---- ---- ------- ----- -- ----<br>-------- ------- -- ---------- --- - --- ----- ----- ----<br>---- --- --- ----- --- ---- ---- ------- ----- ---- -------<br>--- --- -- ----- -- --- ---- -- --- ---- -- ------ ------<br>--- close -- ----,142664.5,142663.69999980927,142340.188,142353.69999980927,142356.656,142673.029,,53,close
screen,html.Screen,2_1_0_1_54,2022-05-11T11:17:05.061Z,,,,,,,,,,,,,,,,,53,,,,,,,,,,,,,,248.3709998569393,,response,,,,99,,,,,,,Space,keypress(Space),,,,,,,,---- -- ----- -- ------ - ------- --- ----------<br>------------- ------ ------ ---- ---- ------- ----- -- ----<br>-------- ------- -- ---------- --- - --- ----- ----- ----<br>---- --- --- ----- --- ---- ---- ------- ----- ---- -------<br>--- --- -- ----- -- --- ---- -- --- ---- -- ------ ------<br>--- ----- at ----,142922.5,142921.39999985695,142656.389,142664.69999980927,142673.029,142939.649,,54,at
screen,html.Screen,2_1_0_1_55,2022-05-11T11:17:05.525Z,,,,,,,,,,,,,,,,,53,,,,,,,,,,,,,,445.75099985694396,,response,,,,99,,,,,,,Space,keypress(Space),,,,,,,,---- -- ----- -- ------ - ------- --- ----------<br>------------- ------ ------ ---- ---- ------- ----- -- ----<br>-------- ------- -- ---------- --- - --- ----- ----- ----<br>---- --- --- ----- --- ---- ---- ------- ----- ---- -------<br>--- --- -- ----- -- --- ---- -- --- ---- -- ------ ------<br>--- ----- -- all.,143386.59999990463,143385.39999985695,142922.886,142922.69999980927,142939.649,143414.937,,55,all.
Item 99,flow.Loop,2_1_0_1,2022-05-11T11:17:05.526Z,,,,,,,,,,,,,,,,,,,,,,,,,,,,,,,18694.723999856942,,completion,,,,,C,,,,,,,,,,,silence,,,,,143387.09999990463,143385.39999985695,124657.465,124658.79999995232,124690.676,143414.937,,,
Question 1,html.Screen,2_1_0_2,2022-05-11T11:17:10.463Z,,,,,,,,,,,,,,,,,,,,,,,,,,,,true,FALSE,,4908.4629998569435,,response,,,,99,C,,,,,,FALSE,click #choice-2,,,,silence,,,,,148324.39999985695,148323.39999985695,143372.57,143387.29999995232,143414.937,148334.13,,,
Question 2,html.Screen,2_1_0_3,2022-05-11T11:17:15.522Z,,,,,,,,,,,,,,,,,,,,,,,,,,,,true,TRUE,,5048.0699998092605,,response,,,,99,C,,,,,,TRUE,click #choice-1,,,,silence,,,,,153383.09999990463,153382.19999980927,148317.565,148324.5,148334.13,153412.477,,,
Item 99,flow.Sequence,2_1_0,2022-05-11T11:17:15.522Z,,,,,,,,,,,,,,,,,,,,,,,,,,,,,,,38714.47899980926,,completion,,,,,,,,,,,,,,,,,,,,,153383.19999980927,153382.19999980927,114650.543,114662,114667.721,153412.477,,,
Holding screen,html.Screen,2_1_1_0,2022-05-11T11:17:25.544Z,,,,,,,,,,,,,,,,,,,,,,,,,,,,,,,10006.915999999997,,timeout,,,,,,,,,,,,,,,,,,,,,163404.79999995232,163402.742,153395.94,153383.29999995232,153412.477,163419.393,,,
screen,html.Screen,2_1_1_1_0,2022-05-11T11:17:27.514Z,,,,,,,,,,,,,,,,,54,,,,,,,,,,,,,,1954.4069999523053,,response,,,,100,,,,,,,Space,keypress(Space),,,,,,,,At --- ---- --- ------ ----- ------- ---- -- --- ------- --<br>------- ---------- ------ -- ----- -- ----- -- ---- ------<br>--- ----- --- --- ------ -------- ----- --- ------ ----- --<br>----- ----- ---------- --- --- ------ ------ ---- -- ------<br>------- --- ------ ----- --- ---- ------- -- ---- --- --<br>------- ------,165375.09999990463,165373.79999995232,163402.742,163405.09999990463,163419.393,165384.079,,0,At
screen,html.Screen,2_1_1_1_1,2022-05-11T11:17:28.497Z,,,,,,,,,,,,,,,,,54,,,,,,,,,,,,,,973.0209999046347,,response,,,,100,,,,,,,Space,keypress(Space),,,,,,,,-- the ---- --- ------ ----- ------- ---- -- --- ------- --<br>------- ---------- ------ -- ----- -- ----- -- ---- ------<br>--- ----- --- --- ------ -------- ----- --- ------ ----- --<br>----- ----- ---------- --- --- ------ ------ ---- -- ------<br>------- --- ------ ----- --- ---- ------- -- ---- --- --<br>------- ------,166358.09999990463,166357.09999990463,165367.487,165375.39999985695,165384.079,166366.499,,1,the
screen,html.Screen,2_1_1_1_2,2022-05-11T11:17:28.841Z,,,,,,,,,,,,,,,,,54,,,,,,,,,,,,,,334.5009999999893,,response,,,,100,,,,,,,Space,keypress(Space),,,,,,,,-- --- time --- ------ ----- ------- ---- -- --- ------- --<br>------- ---------- ------ -- ----- -- ----- -- ---- ------<br>--- ----- --- --- ------ -------- ----- --- ------ ----- --<br>----- ----- ---------- --- --- ------ ------ ---- -- ------<br>------- --- ------ ----- --- ---- ------- -- ---- --- --<br>------- ------,166701.89999985695,166701,166349.995,166358.29999995232,166366.499,166716.335,,2,time
screen,html.Screen,2_1_1_1_3,2022-05-11T11:17:29.126Z,,,,,,,,,,,,,,,,,54,,,,,,,,,,,,,,269.564999856957,,response,,,,100,,,,,,,Space,keypress(Space),,,,,,,,-- --- ---- the ------ ----- ------- ---- -- --- ------- --<br>------- ---------- ------ -- ----- -- ----- -- ---- ------<br>--- ----- --- --- ------ -------- ----- --- ------ ----- --<br>----- ----- ---------- --- --- ------ ------ ---- -- ------<br>------- --- ------ ----- --- ---- ------- -- ---- --- --<br>------- ------,166987,166985.89999985695,166699.578,166702.09999990463,166716.335,166999.22,,3,the
screen,html.Screen,2_1_1_1_4,2022-05-11T11:17:29.425Z,,,,,,,,,,,,,,,,,54,,,,,,,,,,,,,,286.27999999999884,,response,,,,100,,,,,,,Space,keypress(Space),,,,,,,,-- --- ---- --- French ----- ------- ---- -- --- ------- --<br>------- ---------- ------ -- ----- -- ----- -- ---- ------<br>--- ----- --- --- ------ -------- ----- --- ------ ----- --<br>----- ----- ---------- --- --- ------ ------ ---- -- ------<br>------- --- ------ ----- --- ---- ------- -- ---- --- --<br>------- ------,167286.59999990463,167285.5,166982.69,166987.19999980927,166999.22,167298.875,,4,French
screen,html.Screen,2_1_1_1_5,2022-05-11T11:17:29.734Z,,,,,,,,,,,,,,,,,54,,,,,,,,,,,,,,295.9249999523163,,response,,,,100,,,,,,,Space,keypress(Space),,,,,,,,-- --- ---- --- ------ crown ------- ---- -- --- ------- --<br>------- ---------- ------ -- ----- -- ----- -- ---- ------<br>--- ----- --- --- ------ -------- ----- --- ------ ----- --<br>----- ----- ---------- --- --- ------ ------ ---- -- ------<br>------- --- ------ ----- --- ---- ------- -- ---- --- --<br>------- ------,167595.59999990463,167594.79999995232,167282.343,167286.89999985695,167298.875,167598.612,,5,crown
screen,html.Screen,2_1_1_1_6,2022-05-11T11:17:30.010Z,,,,,,,,,,,,,,,,,54,,,,,,,,,,,,,,271.0879998092714,,response,,,,100,,,,,,,Space,keypress(Space),,,,,,,,-- --- ---- --- ------ ----- secured ---- -- --- ------- --<br>------- ---------- ------ -- ----- -- ----- -- ---- ------<br>--- ----- --- --- ------ -------- ----- --- ------ ----- --<br>----- ----- ---------- --- --- ------ ------ ---- -- ------<br>------- --- ------ ----- --- ---- ------- -- ---- --- --<br>------- ------,167870.89999985695,167869.69999980927,167582.065,167595.79999995232,167598.612,167881.682,,6,secured
screen,html.Screen,2_1_1_1_7,2022-05-11T11:17:30.319Z,,,,,,,,,,,,,,,,,54,,,,,,,,,,,,,,297.51799980926444,,response,,,,100,,,,,,,Space,keypress(Space),,,,,,,,-- --- ---- --- ------ ----- ------- much -- --- ------- --<br>------- ---------- ------ -- ----- -- ----- -- ---- ------<br>--- ----- --- --- ------ -------- ----- --- ------ ----- --<br>----- ----- ---------- --- --- ------ ------ ---- -- ------<br>------- --- ------ ----- --- ---- ------- -- ---- --- --<br>------- ------,168180.39999985695,168179.19999980927,167865.261,167871.09999990463,167881.682,168214.7,,7,much
screen,html.Screen,2_1_1_1_8,2022-05-11T11:17:30.698Z,,,,,,,,,,,,,,,,,54,,,,,,,,,,,,,,343.1999998569372,,response,,,,100,,,,,,,Space,keypress(Space),,,,,,,,-- --- ---- --- ------ ----- ------- ---- of --- ------- --<br>------- ---------- ------ -- ----- -- ----- -- ---- ------<br>--- ----- --- --- ------ -------- ----- --- ------ ----- --<br>----- ----- ---------- --- --- ------ ------ ---- -- ------<br>------- --- ------ ----- --- ---- ------- -- ---- --- --<br>------- ------,168559.09999990463,168557.89999985695,168197.985,168180.59999990463,168214.7,168564.322,,8,of
screen,html.Screen,2_1_1_1_9,2022-05-11T11:17:30.953Z,,,,,,,,,,,,,,,,,54,,,,,,,,,,,,,,248.47799995233072,,response,,,,100,,,,,,,Space,keypress(Space),,,,,,,,-- --- ---- --- ------ ----- ------- ---- -- its ------- --<br>------- ---------- ------ -- ----- -- ----- -- ---- ------<br>--- ----- --- --- ------ -------- ----- --- ------ ----- --<br>----- ----- ---------- --- --- ------ ------ ---- -- ------<br>------- --- ------ ----- --- ---- ------- -- ---- --- --<br>------- ------,168814,168812.79999995232,168547.896,168559.29999995232,168564.322,168830.769,,9,its
screen,html.Screen,2_1_1_1_10,2022-05-11T11:17:31.267Z,,,,,,,,,,,,,,,,,54,,,,,,,,,,,,,,296.33099990463234,,response,,,,100,,,,,,,Space,keypress(Space),,,,,,,,-- --- ---- --- ------ ----- ------- ---- -- --- revenue --<br>------- ---------- ------ -- ----- -- ----- -- ---- ------<br>--- ----- --- --- ------ -------- ----- --- ------ ----- --<br>----- ----- ---------- --- --- ------ ------ ---- -- ------<br>------- --- ------ ----- --- ---- ------- -- ---- --- --<br>------- ------,169128.39999985695,169127.09999990463,168814.19,168814.19999980927,168830.769,169154.589,,10,revenue
screen,html.Screen,2_1_1_1_11,2022-05-11T11:17:31.576Z,,,,,,,,,,,,,,,,,54,,,,,,,,,,,,,,282.01099990462535,,response,,,,100,,,,,,,Space,keypress(Space),,,,,,,,-- --- ---- --- ------ ----- ------- ---- -- --- ------- by<br>------- ---------- ------ -- ----- -- ----- -- ---- ------<br>--- ----- --- --- ------ -------- ----- --- ------ ----- --<br>----- ----- ---------- --- --- ------ ------ ---- -- ------<br>------- --- ------ ----- --- ---- ------- -- ---- --- --<br>------- ------,169437.69999980927,169436.59999990463,169113.85,169128.59999990463,169154.589,169446.785,,11,by
screen,html.Screen,2_1_1_1_12,2022-05-11T11:17:31.991Z,,,,,,,,,,,,,,,,,54,,,,,,,,,,,,,,404.3149999046291,,response,,,,100,,,,,,,Space,keypress(Space),,,,,,,,-- --- ---- --- ------ ----- ------- ---- -- --- ------- --<br>issuing ---------- ------ -- ----- -- ----- -- ---- ------<br>--- ----- --- --- ------ -------- ----- --- ------ ----- --<br>----- ----- ---------- --- --- ------ ------ ---- -- ------<br>------- --- ------ ----- --- ---- ------- -- ---- --- --<br>------- ------,169852,169851.09999990463,169430.394,169437.89999985695,169446.785,169863.078,,12,issuing
screen,html.Screen,2_1_1_1_13,2022-05-11T11:17:32.456Z,,,,,,,,,,,,,,,,,54,,,,,,,,,,,,,,452.82199985694024,,response,,,,100,,,,,,,Space,keypress(Space),,,,,,,,-- --- ---- --- ------ ----- ------- ---- -- --- ------- --<br>------- government ------ -- ----- -- ----- -- ---- ------<br>--- ----- --- --- ------ -------- ----- --- ------ ----- --<br>----- ----- ---------- --- --- ------ ------ ---- -- ------<br>------- --- ------ ----- --- ---- ------- -- ---- --- --<br>------- ------,170317.19999980927,170315.89999985695,169846.453,169852.29999995232,169863.078,170329.256,,13,government
screen,html.Screen,2_1_1_1_14,2022-05-11T11:17:32.849Z,,,,,,,,,,,,,,,,,54,,,,,,,,,,,,,,380.24400000000605,,response,,,,100,,,,,,,Space,keypress(Space),,,,,,,,-- --- ---- --- ------ ----- ------- ---- -- --- ------- --<br>------- ---------- bonds. -- ----- -- ----- -- ---- ------<br>--- ----- --- --- ------ -------- ----- --- ------ ----- --<br>----- ----- ---------- --- --- ------ ------ ---- -- ------<br>------- --- ------ ----- --- ---- ------- -- ---- --- --<br>------- ------,170710.59999990463,170709.5,170312.851,170317.39999985695,170329.256,170729.04,,14,bonds.
screen,html.Screen,2_1_1_1_15,2022-05-11T11:17:33.283Z,,,,,,,,,,,,,,,,,54,,,,,,,,,,,,,,414.3599998569407,,response,,,,100,,,,,,,Space,keypress(Space),,,,,,,,-- --- ---- --- ------ ----- ------- ---- -- --- ------- --<br>------- ---------- ------ In ----- -- ----- -- ---- ------<br>--- ----- --- --- ------ -------- ----- --- ------ ----- --<br>----- ----- ---------- --- --- ------ ------ ---- -- ------<br>------- --- ------ ----- --- ---- ------- -- ---- --- --<br>------- ------,171144.5,171143.39999985695,170695.793,170710.89999985695,170729.04,171161.804,,15,In
screen,html.Screen,2_1_1_1_16,2022-05-11T11:17:33.573Z,,,,,,,,,,,,,,,,,54,,,,,,,,,,,,,,271.3959998092614,,response,,,,100,,,,,,,Space,keypress(Space),,,,,,,,"-- --- ---- --- ------ ----- ------- ---- -- --- ------- --<br>------- ---------- ------ -- 1727, -- ----- -- ---- ------<br>--- ----- --- --- ------ -------- ----- --- ------ ----- --<br>----- ----- ---------- --- --- ------ ------ ---- -- ------<br>------- --- ------ ----- --- ---- ------- -- ---- --- --<br>------- ------",171434.29999995232,171433.19999980927,171145.361,171144.79999995232,171161.804,171444.809,,16,"1727,"
screen,html.Screen,2_1_1_1_17,2022-05-11T11:17:34.337Z,,,,,,,,,,,,,,,,,54,,,,,,,,,,,,,,751.8909998092568,,response,,,,100,,,,,,,Space,keypress(Space),,,,,,,,-- --- ---- --- ------ ----- ------- ---- -- --- ------- --<br>------- ---------- ------ -- ----- in ----- -- ---- ------<br>--- ----- --- --- ------ -------- ----- --- ------ ----- --<br>----- ----- ---------- --- --- ------ ------ ---- -- ------<br>------- --- ------ ----- --- ---- ------- -- ---- --- --<br>------- ------,172197.69999980927,172196.69999980927,171428.307,171434.59999990463,171444.809,172210.93,,17,in
screen,html.Screen,2_1_1_1_18,2022-05-11T11:17:34.780Z,,,,,,,,,,,,,,,,,54,,,,,,,,,,,,,,429.070000000007,,response,,,,100,,,,,,,Space,keypress(Space),,,,,,,,-- --- ---- --- ------ ----- ------- ---- -- --- ------- --<br>------- ---------- ------ -- ----- -- order -- ---- ------<br>--- ----- --- --- ------ -------- ----- --- ------ ----- --<br>----- ----- ---------- --- --- ------ ------ ---- -- ------<br>------- --- ------ ----- --- ---- ------- -- ---- --- --<br>------- ------,172641.09999990463,172640,172194.14,172198,172210.93,172643.647,,18,order
screen,html.Screen,2_1_1_1_19,2022-05-11T11:17:35.225Z,,,,,,,,,,,,,,,,,54,,,,,,,,,,,,,,441.6529999523191,,response,,,,100,,,,,,,Space,keypress(Space),,,,,,,,-- --- ---- --- ------ ----- ------- ---- -- --- ------- --<br>------- ---------- ------ -- ----- -- ----- to ---- ------<br>--- ----- --- --- ------ -------- ----- --- ------ ----- --<br>----- ----- ---------- --- --- ------ ------ ---- -- ------<br>------- --- ------ ----- --- ---- ------- -- ---- --- --<br>------- ------,173086.19999980927,173085.29999995232,172627.157,172641.29999995232,172643.647,173093.155,,19,to
screen,html.Screen,2_1_1_1_20,2022-05-11T11:17:35.586Z,,,,,,,,,,,,,,,,,54,,,,,,,,,,,,,,352.84500000000116,,response,,,,100,,,,,,,Space,keypress(Space),,,,,,,,-- --- ---- --- ------ ----- ------- ---- -- --- ------- --<br>------- ---------- ------ -- ----- -- ----- -- save ------<br>--- ----- --- --- ------ -------- ----- --- ------ ----- --<br>----- ----- ---------- --- --- ------ ------ ---- -- ------<br>------- --- ------ ----- --- ---- ------- -- ---- --- --<br>------- ------,173447.09999990463,173446,173076.783,173086.39999985695,173093.155,173459.689,,20,save
screen,html.Screen,2_1_1_1_21,2022-05-11T11:17:35.811Z,,,,,,,,,,,,,,,,,54,,,,,,,,,,,,,,211.41099990461953,,response,,,,100,,,,,,,Space,keypress(Space),,,,,,,,"-- --- ---- --- ------ ----- ------- ---- -- --- ------- --<br>------- ---------- ------ -- ----- -- ----- -- ---- money,<br>--- ----- --- --- ------ -------- ----- --- ------ ----- --<br>----- ----- ---------- --- --- ------ ------ ---- -- ------<br>------- --- ------ ----- --- ---- ------- -- ---- --- --<br>------- ------",173672.19999980927,173671.09999990463,173442.94,173447.39999985695,173459.689,173675.996,,21,"money,"
screen,html.Screen,2_1_1_1_22,2022-05-11T11:17:36.374Z,,,,,,,,,,,,,,,,,54,,,,,,,,,,,,,,558.2039998092514,,response,,,,100,,,,,,,Space,keypress(Space),,,,,,,,-- --- ---- --- ------ ----- ------- ---- -- --- ------- --<br>------- ---------- ------ -- ----- -- ----- -- ---- ------<br>the ----- --- --- ------ -------- ----- --- ------ ----- --<br>----- ----- ---------- --- --- ------ ------ ---- -- ------<br>------- --- ------ ----- --- ---- ------- -- ---- --- --<br>------- ------,174235.09999990463,174234.19999980927,173659.397,173672.5,173675.996,174242.117,,22,the
screen,html.Screen,2_1_1_1_23,2022-05-11T11:17:36.697Z,,,,,,,,,,,,,,,,,54,,,,,,,,,,,,,,315.58299980926677,,response,,,,100,,,,,,,Space,keypress(Space),,,,,,,,-- --- ---- --- ------ ----- ------- ---- -- --- ------- --<br>------- ---------- ------ -- ----- -- ----- -- ---- ------<br>--- state --- --- ------ -------- ----- --- ------ ----- --<br>----- ----- ---------- --- --- ------ ------ ---- -- ------<br>------- --- ------ ----- --- ---- ------- -- ---- --- --<br>------- ------,174558.5,174557.69999980927,174225.697,174235.29999995232,174242.117,174575.283,,23,state
screen,html.Screen,2_1_1_1_24,2022-05-11T11:17:37.067Z,,,,,,,,,,,,,,,,,54,,,,,,,,,,,,,,351.81699990463676,,response,,,,100,,,,,,,Space,keypress(Space),,,,,,,,-- --- ---- --- ------ ----- ------- ---- -- --- ------- --<br>------- ---------- ------ -- ----- -- ----- -- ---- ------<br>--- ----- cut --- ------ -------- ----- --- ------ ----- --<br>----- ----- ---------- --- --- ------ ------ ---- -- ------<br>------- --- ------ ----- --- ---- ------- -- ---- --- --<br>------- ------,174928.29999995232,174927.09999990463,174558.554,174558.79999995232,174575.283,174941.556,,24,cut
screen,html.Screen,2_1_1_1_25,2022-05-11T11:17:37.478Z,,,,,,,,,,,,,,,,,54,,,,,,,,,,,,,,396.84399985693744,,response,,,,100,,,,,,,Space,keypress(Space),,,,,,,,-- --- ---- --- ------ ----- ------- ---- -- --- ------- --<br>------- ---------- ------ -- ----- -- ----- -- ---- ------<br>--- ----- --- the ------ -------- ----- --- ------ ----- --<br>----- ----- ---------- --- --- ------ ------ ---- -- ------<br>------- --- ------ ----- --- ---- ------- -- ---- --- --<br>------- ------,175339.5,175338.39999985695,174924.978,174928.5,174941.556,175366.133,,25,the
screen,html.Screen,2_1_1_1_26,2022-05-11T11:17:37.896Z,,,,,,,,,,,,,,,,,54,,,,,,,,,,,,,,390.2669998569472,,response,,,,100,,,,,,,Space,keypress(Space),,,,,,,,-- --- ---- --- ------ ----- ------- ---- -- --- ------- --<br>------- ---------- ------ -- ----- -- ----- -- ---- ------<br>--- ----- --- --- bonds' -------- ----- --- ------ ----- --<br>----- ----- ---------- --- --- ------ ------ ---- -- ------<br>------- --- ------ ----- --- ---- ------- -- ---- --- --<br>------- ------,175757.5,175756.39999985695,175324.368,175339.69999980927,175366.133,175774.081,,26,bonds'
screen,html.Screen,2_1_1_1_27,2022-05-11T11:17:38.380Z,,,,,,,,,,,,,,,,,54,,,,,,,,,,,,,,465.81899985694326,,response,,,,100,,,,,,,Space,keypress(Space),,,,,,,,-- --- ---- --- ------ ----- ------- ---- -- --- ------- --<br>------- ---------- ------ -- ----- -- ----- -- ---- ------<br>--- ----- --- --- ------ interest ----- --- ------ ----- --<br>----- ----- ---------- --- --- ------ ------ ---- -- ------<br>------- --- ------ ----- --- ---- ------- -- ---- --- --<br>------- ------,176240.79999995232,176239.89999985695,175757.425,175757.89999985695,175774.081,176256.819,,27,interest
screen,html.Screen,2_1_1_1_28,2022-05-11T11:17:38.830Z,,,,,,,,,,,,,,,,,54,,,,,,,,,,,,,,433.4809999523277,,response,,,,100,,,,,,,Space,keypress(Space),,,,,,,,-- --- ---- --- ------ ----- ------- ---- -- --- ------- --<br>------- ---------- ------ -- ----- -- ----- -- ---- ------<br>--- ----- --- --- ------ -------- rate. --- ------ ----- --<br>----- ----- ---------- --- --- ------ ------ ---- -- ------<br>------- --- ------ ----- --- ---- ------- -- ---- --- --<br>------- ------,176691.39999985695,176690.29999995232,176240.297,176241.09999990463,176256.819,176706.547,,28,rate.
screen,html.Screen,2_1_1_1_29,2022-05-11T11:17:39.273Z,,,,,,,,,,,,,,,,,54,,,,,,,,,,,,,,426.9530000000086,,response,,,,100,,,,,,,Space,keypress(Space),,,,,,,,-- --- ---- --- ------ ----- ------- ---- -- --- ------- --<br>------- ---------- ------ -- ----- -- ----- -- ---- ------<br>--- ----- --- --- ------ -------- ----- The ------ ----- --<br>----- ----- ---------- --- --- ------ ------ ---- -- ------<br>------- --- ------ ----- --- ---- ------- -- ---- --- --<br>------- ------,177134.5,177133.5,176689.797,176691.69999980927,176706.547,177139.263,,29,The
screen,html.Screen,2_1_1_1_30,2022-05-11T11:17:39.503Z,,,,,,,,,,,,,,,,,54,,,,,,,,,,,,,,223.93699980925885,,response,,,,100,,,,,,,Space,keypress(Space),,,,,,,,-- --- ---- --- ------ ----- ------- ---- -- --- ------- --<br>------- ---------- ------ -- ----- -- ----- -- ---- ------<br>--- ----- --- --- ------ -------- ----- --- market ----- --<br>----- ----- ---------- --- --- ------ ------ ---- -- ------<br>------- --- ------ ----- --- ---- ------- -- ---- --- --<br>------- ------,177364.29999995232,177363.19999980927,177122.748,177134.79999995232,177139.263,177372.334,,30,market
screen,html.Screen,2_1_1_1_31,2022-05-11T11:17:39.962Z,,,,,,,,,,,,,,,,,54,,,,,,,,,,,,,,450.16599999999744,,response,,,,100,,,,,,,Space,keypress(Space),,,,,,,,-- --- ---- --- ------ ----- ------- ---- -- --- ------- --<br>------- ---------- ------ -- ----- -- ----- -- ---- ------<br>--- ----- --- --- ------ -------- ----- --- ------ value --<br>----- ----- ---------- --- --- ------ ------ ---- -- ------<br>------- --- ------ ----- --- ---- ------- -- ---- --- --<br>------- ------,177823.39999985695,177822.5,177355.878,177364.59999990463,177372.334,177838.625,,31,value
screen,html.Screen,2_1_1_1_32,2022-05-11T11:17:40.235Z,,,,,,,,,,,,,,,,,54,,,,,,,,,,,,,,256.07499980926514,,response,,,,100,,,,,,,Space,keypress(Space),,,,,,,,-- --- ---- --- ------ ----- ------- ---- -- --- ------- --<br>------- ---------- ------ -- ----- -- ----- -- ---- ------<br>--- ----- --- --- ------ -------- ----- --- ------ ----- of<br>----- ----- ---------- --- --- ------ ------ ---- -- ------<br>------- --- ------ ----- --- ---- ------- -- ---- --- --<br>------- ------,178095.79999995232,178094.69999980927,177821.953,177823.5,177838.625,178104.976,,32,of
screen,html.Screen,2_1_1_1_33,2022-05-11T11:17:40.716Z,,,,,,,,,,,,,,,,,54,,,,,,,,,,,,,,471.62399990463746,,response,,,,100,,,,,,,Space,keypress(Space),,,,,,,,-- --- ---- --- ------ ----- ------- ---- -- --- ------- --<br>------- ---------- ------ -- ----- -- ----- -- ---- ------<br>--- ----- --- --- ------ -------- ----- --- ------ ----- --<br>these ----- ---------- --- --- ------ ------ ---- -- ------<br>------- --- ------ ----- --- ---- ------- -- ---- --- --<br>------- ------,178577.39999985695,178576.59999990463,178088.529,178096.09999990463,178104.976,178587.994,,33,these
screen,html.Screen,2_1_1_1_34,2022-05-11T11:17:41.134Z,,,,,,,,,,,,,,,,,54,,,,,,,,,,,,,,406.00599999999395,,response,,,,100,,,,,,,Space,keypress(Space),,,,,,,,-- --- ---- --- ------ ----- ------- ---- -- --- ------- --<br>------- ---------- ------ -- ----- -- ----- -- ---- ------<br>--- ----- --- --- ------ -------- ----- --- ------ ----- --<br>----- bonds ---------- --- --- ------ ------ ---- -- ------<br>------- --- ------ ----- --- ---- ------- -- ---- --- --<br>------- ------,178995.29999995232,178994,178571.304,178577.59999990463,178587.994,179004.065,,34,bonds
screen,html.Screen,2_1_1_1_35,2022-05-11T11:17:41.604Z,,,,,,,,,,,,,,,,,54,,,,,,,,,,,,,,460.4349999999977,,response,,,,100,,,,,,,Space,keypress(Space),,,,,,,,"-- --- ---- --- ------ ----- ------- ---- -- --- ------- --<br>------- ---------- ------ -- ----- -- ----- -- ---- ------<br>--- ----- --- --- ------ -------- ----- --- ------ ----- --<br>----- ----- plummeted, --- --- ------ ------ ---- -- ------<br>------- --- ------ ----- --- ---- ------- -- ---- --- --<br>------- ------",179465.39999985695,179464.5,178987.588,178995.5,179004.065,179470.282,,35,"plummeted,"
screen,html.Screen,2_1_1_1_36,2022-05-11T11:17:42.070Z,,,,,,,,,,,,,,,,,54,,,,,,,,,,,,,,459.61799985694233,,response,,,,100,,,,,,,Space,keypress(Space),,,,,,,,-- --- ---- --- ------ ----- ------- ---- -- --- ------- --<br>------- ---------- ------ -- ----- -- ----- -- ---- ------<br>--- ----- --- --- ------ -------- ----- --- ------ ----- --<br>----- ----- ---------- and --- ------ ------ ---- -- ------<br>------- --- ------ ----- --- ---- ------- -- ---- --- --<br>------- ------,179931.19999980927,179929.89999985695,179453.785,179465.69999980927,179470.282,179936.525,,36,and
screen,html.Screen,2_1_1_1_37,2022-05-11T11:17:42.473Z,,,,,,,,,,,,,,,,,54,,,,,,,,,,,,,,396.4750000000058,,response,,,,100,,,,,,,Space,keypress(Space),,,,,,,,-- --- ---- --- ------ ----- ------- ---- -- --- ------- --<br>------- ---------- ------ -- ----- -- ----- -- ---- ------<br>--- ----- --- --- ------ -------- ----- --- ------ ----- --<br>----- ----- ---------- --- the ------ ------ ---- -- ------<br>------- --- ------ ----- --- ---- ------- -- ---- --- --<br>------- ------,180334,180333,179919.957,179931.39999985695,179936.525,180336.099,,37,the
screen,html.Screen,2_1_1_1_38,2022-05-11T11:17:42.733Z,,,,,,,,,,,,,,,,,54,,,,,,,,,,,,,,256.8009998569614,,response,,,,100,,,,,,,Space,keypress(Space),,,,,,,,-- --- ---- --- ------ ----- ------- ---- -- --- ------- --<br>------- ---------- ------ -- ----- -- ----- -- ---- ------<br>--- ----- --- --- ------ -------- ----- --- ------ ----- --<br>----- ----- ---------- --- --- market ------ ---- -- ------<br>------- --- ------ ----- --- ---- ------- -- ---- --- --<br>------- ------,180594.19999980927,180592.89999985695,180319.722,180334.19999980927,180336.099,180602.531,,38,market
screen,html.Screen,2_1_1_1_39,2022-05-11T11:17:43.176Z,,,,,,,,,,,,,,,,,54,,,,,,,,,,,,,,433.668999809277,,response,,,,100,,,,,,,Space,keypress(Space),,,,,,,,-- --- ---- --- ------ ----- ------- ---- -- --- ------- --<br>------- ---------- ------ -- ----- -- ----- -- ---- ------<br>--- ----- --- --- ------ -------- ----- --- ------ ----- --<br>----- ----- ---------- --- --- ------ became ---- -- ------<br>------- --- ------ ----- --- ---- ------- -- ---- --- --<br>------- ------,181037.29999995232,181036.19999980927,180586.068,180594.5,180602.531,181052.098,,39,became
screen,html.Screen,2_1_1_1_40,2022-05-11T11:17:43.592Z,,,,,,,,,,,,,,,,,54,,,,,,,,,,,,,,400.40200000000186,,response,,,,100,,,,,,,Space,keypress(Space),,,,,,,,-- --- ---- --- ------ ----- ------- ---- -- --- ------- --<br>------- ---------- ------ -- ----- -- ----- -- ---- ------<br>--- ----- --- --- ------ -------- ----- --- ------ ----- --<br>----- ----- ---------- --- --- ------ ------ wary -- ------<br>------- --- ------ ----- --- ---- ------- -- ---- --- --<br>------- ------,181453.59999990463,181452.5,181035.41,181037.5,181052.098,181468.394,,40,wary
screen,html.Screen,2_1_1_1_41,2022-05-11T11:17:44.005Z,,,,,,,,,,,,,,,,,54,,,,,,,,,,,,,,397.20599990463234,,response,,,,100,,,,,,,Space,keypress(Space),,,,,,,,-- --- ---- --- ------ ----- ------- ---- -- --- ------- --<br>------- ---------- ------ -- ----- -- ----- -- ---- ------<br>--- ----- --- --- ------ -------- ----- --- ------ ----- --<br>----- ----- ---------- --- --- ------ ------ ---- of ------<br>------- --- ------ ----- --- ---- ------- -- ---- --- --<br>------- ------,181866.59999990463,181865.59999990463,181451.864,181453.79999995232,181468.394,181898.867,,41,of
screen,html.Screen,2_1_1_1_42,2022-05-11T11:17:44.241Z,,,,,,,,,,,,,,,,,54,,,,,,,,,,,,,,201.53299985695048,,response,,,,100,,,,,,,Space,keypress(Space),,,,,,,,-- --- ---- --- ------ ----- ------- ---- -- --- ------- --<br>------- ---------- ------ -- ----- -- ----- -- ---- ------<br>--- ----- --- --- ------ -------- ----- --- ------ ----- --<br>----- ----- ---------- --- --- ------ ------ ---- -- French<br>------- --- ------ ----- --- ---- ------- -- ---- --- --<br>------- ------,182101.69999980927,182100.39999985695,181851.288,181866.79999995232,181898.867,182117.771,,42,French
screen,html.Screen,2_1_1_1_43,2022-05-11T11:17:44.692Z,,,,,,,,,,,,,,,,,54,,,,,,,,,,,,,,434.2289999999921,,response,,,,100,,,,,,,Space,keypress(Space),,,,,,,,-- --- ---- --- ------ ----- ------- ---- -- --- ------- --<br>------- ---------- ------ -- ----- -- ----- -- ---- ------<br>--- ----- --- --- ------ -------- ----- --- ------ ----- --<br>----- ----- ---------- --- --- ------ ------ ---- -- ------<br>credit. --- ------ ----- --- ---- ------- -- ---- --- --<br>------- ------,182553.09999990463,182552,182101.08,182102,182117.771,182567.257,,43,credit.
screen,html.Screen,2_1_1_1_44,2022-05-11T11:17:45.119Z,,,,,,,,,,,,,,,,,54,,,,,,,,,,,,,,412.24299999998766,,response,,,,100,,,,,,,Space,keypress(Space),,,,,,,,-- --- ---- --- ------ ----- ------- ---- -- --- ------- --<br>------- ---------- ------ -- ----- -- ----- -- ---- ------<br>--- ----- --- --- ------ -------- ----- --- ------ ----- --<br>----- ----- ---------- --- --- ------ ------ ---- -- ------<br>------- The ------ ----- --- ---- ------- -- ---- --- --<br>------- ------,182980.39999985695,182979.5,182550.845,182553.29999995232,182567.257,182983.488,,44,The
screen,html.Screen,2_1_1_1_45,2022-05-11T11:17:45.453Z,,,,,,,,,,,,,,,,,54,,,,,,,,,,,,,,329.21199980925303,,response,,,,100,,,,,,,Space,keypress(Space),,,,,,,,-- --- ---- --- ------ ----- ------- ---- -- --- ------- --<br>------- ---------- ------ -- ----- -- ----- -- ---- ------<br>--- ----- --- --- ------ -------- ----- --- ------ ----- --<br>----- ----- ---------- --- --- ------ ------ ---- -- ------<br>------- --- French ----- --- ---- ------- -- ---- --- --<br>------- ------,183313.89999985695,183312.69999980927,182967.122,182980.59999990463,182983.488,183316.496,,45,French
screen,html.Screen,2_1_1_1_46,2022-05-11T11:17:45.782Z,,,,,,,,,,,,,,,,,54,,,,,,,,,,,,,,326.10399990461883,,response,,,,100,,,,,,,Space,keypress(Space),,,,,,,,-- --- ---- --- ------ ----- ------- ---- -- --- ------- --<br>------- ---------- ------ -- ----- -- ----- -- ---- ------<br>--- ----- --- --- ------ -------- ----- --- ------ ----- --<br>----- ----- ---------- --- --- ------ ------ ---- -- ------<br>------- --- ------ state --- ---- ------- -- ---- --- --<br>------- ------,183643.29999995232,183642.59999990463,183299.947,183314.19999980927,183316.496,183649.477,,46,state
screen,html.Screen,2_1_1_1_47,2022-05-11T11:17:46.122Z,,,,,,,,,,,,,,,,,54,,,,,,,,,,,,,,332.62299990461906,,response,,,,100,,,,,,,Space,keypress(Space),,,,,,,,-- --- ---- --- ------ ----- ------- ---- -- --- ------- --<br>------- ---------- ------ -- ----- -- ----- -- ---- ------<br>--- ----- --- --- ------ -------- ----- --- ------ ----- --<br>----- ----- ---------- --- --- ------ ------ ---- -- ------<br>------- --- ------ ----- was ---- ------- -- ---- --- --<br>------- ------,183983.09999990463,183982.09999990463,183632.888,183643.5,183649.477,183999.138,,47,was
screen,html.Screen,2_1_1_1_48,2022-05-11T11:17:46.450Z,,,,,,,,,,,,,,,,,54,,,,,,,,,,,,,,311.4619999046263,,response,,,,100,,,,,,,Space,keypress(Space),,,,,,,,-- --- ---- --- ------ ----- ------- ---- -- --- ------- --<br>------- ---------- ------ -- ----- -- ----- -- ---- ------<br>--- ----- --- --- ------ -------- ----- --- ------ ----- --<br>----- ----- ---------- --- --- ------ ------ ---- -- ------<br>------- --- ------ ----- --- left ------- -- ---- --- --<br>------- ------,184311.09999990463,184310.59999990463,183982.507,183983.19999980927,183999.138,184315.464,,48,left
screen,html.Screen,2_1_1_1_49,2022-05-11T11:17:46.660Z,,,,,,,,,,,,,,,,,54,,,,,,,,,,,,,,205.13599990462535,,response,,,,100,,,,,,,Space,keypress(Space),,,,,,,,-- --- ---- --- ------ ----- ------- ---- -- --- ------- --<br>------- ---------- ------ -- ----- -- ----- -- ---- ------<br>--- ----- --- --- ------ -------- ----- --- ------ ----- --<br>----- ----- ---------- --- --- ------ ------ ---- -- ------<br>------- --- ------ ----- --- ---- without -- ---- --- --<br>------- ------,184521.59999990463,184520.59999990463,184298.873,184311.19999980927,184315.464,184532,,49,without
screen,html.Screen,2_1_1_1_50,2022-05-11T11:17:47.047Z,,,,,,,,,,,,,,,,,54,,,,,,,,,,,,,,375.2999999523163,,response,,,,100,,,,,,,Space,keypress(Space),,,,,,,,-- --- ---- --- ------ ----- ------- ---- -- --- ------- --<br>------- ---------- ------ -- ----- -- ----- -- ---- ------<br>--- ----- --- --- ------ -------- ----- --- ------ ----- --<br>----- ----- ---------- --- --- ------ ------ ---- -- ------<br>------- --- ------ ----- --- ---- ------- an ---- --- --<br>------- ------,184908.09999990463,184907.29999995232,184515.289,184521.69999980927,184532,184914.982,,50,an
screen,html.Screen,2_1_1_1_51,2022-05-11T11:17:47.380Z,,,,,,,,,,,,,,,,,54,,,,,,,,,,,,,,324.8179999523272,,response,,,,100,,,,,,,Space,keypress(Space),,,,,,,,-- --- ---- --- ------ ----- ------- ---- -- --- ------- --<br>------- ---------- ------ -- ----- -- ----- -- ---- ------<br>--- ----- --- --- ------ -------- ----- --- ------ ----- --<br>----- ----- ---------- --- --- ------ ------ ---- -- ------<br>------- --- ------ ----- --- ---- ------- -- easy --- --<br>------- ------,185240.79999995232,185239.79999995232,184898.244,184908.39999985695,184914.982,185247.952,,51,easy
screen,html.Screen,2_1_1_1_52,2022-05-11T11:17:47.658Z,,,,,,,,,,,,,,,,,54,,,,,,,,,,,,,,270.7479998092749,,response,,,,100,,,,,,,Space,keypress(Space),,,,,,,,-- --- ---- --- ------ ----- ------- ---- -- --- ------- --<br>------- ---------- ------ -- ----- -- ----- -- ---- ------<br>--- ----- --- --- ------ -------- ----- --- ------ ----- --<br>----- ----- ---------- --- --- ------ ------ ---- -- ------<br>------- --- ------ ----- --- ---- ------- -- ---- way --<br>------- ------,185519.59999990463,185518.69999980927,185231.298,185241,185247.952,185531.018,,52,way
screen,html.Screen,2_1_1_1_53,2022-05-11T11:17:48.019Z,,,,,,,,,,,,,,,,,54,,,,,,,,,,,,,,347.8819998569379,,response,,,,100,,,,,,,Space,keypress(Space),,,,,,,,-- --- ---- --- ------ ----- ------- ---- -- --- ------- --<br>------- ---------- ------ -- ----- -- ----- -- ---- ------<br>--- ----- --- --- ------ -------- ----- --- ------ ----- --<br>----- ----- ---------- --- --- ------ ------ ---- -- ------<br>------- --- ------ ----- --- ---- ------- -- ---- --- of<br>------- ------,185879.69999980927,185878.89999985695,185514.318,185519.69999980927,185531.018,185897.299,,53,of
screen,html.Screen,2_1_1_1_54,2022-05-11T11:17:48.328Z,,,,,,,,,,,,,,,,,54,,,,,,,,,,,,,,290.90099980926607,,response,,,,100,,,,,,,Space,keypress(Space),,,,,,,,-- --- ---- --- ------ ----- ------- ---- -- --- ------- --<br>------- ---------- ------ -- ----- -- ----- -- ---- ------<br>--- ----- --- --- ------ -------- ----- --- ------ ----- --<br>----- ----- ---------- --- --- ------ ------ ---- -- ------<br>------- --- ------ ----- --- ---- ------- -- ---- --- --<br>raising ------,186188.89999985695,186188.19999980927,185864.069,185879.89999985695,185897.299,186196.996,,54,raising
screen,html.Screen,2_1_1_1_55,2022-05-11T11:17:48.846Z,,,,,,,,,,,,,,,,,54,,,,,,,,,,,,,,509.60399990461883,,response,,,,100,,,,,,,Space,keypress(Space),,,,,,,,-- --- ---- --- ------ ----- ------- ---- -- --- ------- --<br>------- ---------- ------ -- ----- -- ----- -- ---- ------<br>--- ----- --- --- ------ -------- ----- --- ------ ----- --<br>----- ----- ---------- --- --- ------ ------ ---- -- ------<br>------- --- ------ ----- --- ---- ------- -- ---- --- --<br>------- money.,186707.19999980927,186706.59999990463,186180.419,186189.09999990463,186196.996,186713.151,,55,money.
Item 100,flow.Loop,2_1_1_1,2022-05-11T11:17:48.846Z,,,,,,,,,,,,,,,,,,,,,,,,,,,,,,,23287.20699990462,,completion,,,,,C,,,,,,,,,,,silence,,,,,186707.29999995232,186706.59999990463,163402.742,163405,163419.393,186713.151,,,
Question 1,html.Screen,2_1_1_2,2022-05-11T11:17:52.346Z,,,,,,,,,,,,,,,,,,,,,,,,,,,,true,TRUE,,3492.8489999999874,,response,,,,100,C,,,,,,TRUE,click #choice-1,,,,silence,,,,,190207.09999990463,190206,186696.436,186707.5,186713.151,190209.706,,,
Question 2,html.Screen,2_1_1_3,2022-05-11T11:17:55.549Z,,,,,,,,,,,,,,,,,,,,,,,,,,,,true,FALSE,,3199.393999904627,,response,,,,100,C,,,,,,FALSE,click #choice-2,,,,silence,,,,,193409.89999985695,193409.09999990463,190193.148,190207.29999995232,190209.706,193423.443,,,
Item 100,flow.Sequence,2_1_1,2022-05-11T11:17:55.549Z,,,,,,,,,,,,,,,,,,,,,,,,,,,,,,,39996.62299990462,,completion,,,,,,,,,,,,,,,,,,,,,193410.19999980927,193409.09999990463,153395.94,153383.29999995232,153412.477,193423.443,,,
End of Practice,html.Page,2_1_2,2022-05-11T11:18:00.115Z,,,,,,,,,,,,,,,,,,,,,,,,,,,,,,,4552.156999904633,,form submission,,,,,,,,,,,,,,,,,,,,,197976,197975.59999990463,193406.862,193410.19999980927,193423.443,197985.482,,,
Practice,flow.Sequence,2_1,2022-05-11T11:18:00.115Z,,,,,,,,,,,,,,,,,,,,,,,,,,,,,,,83307.87899990463,,completion,,,,,,,,,,,,,,,,,,,,,197976.19999980927,197975.59999990463,114650.543,114661.89999985695,114667.721,197985.482,,,
Trap_instruction,html.Page,2_2_0,2022-05-11T11:18:04.111Z,,,,,,,,,,,,,,,,,,,,,,,,,,,,,,,3986.817999952327,,form submission,,,,,,,,,,,,,,,,,,,,,201972.59999990463,201972.29999995232,197968.863,197976.29999995232,197985.482,201981.534,,,
trap_trial,html.Screen,2_2_1,2022-05-11T11:18:08.436Z,,,,,,,,,,,,,,,,,,,,,,,,,,,,true,1,,4313.765999952302,,response,,,,,,,,,,,1,click #choice-1,,,,,,,,,206297.09999990463,206295.29999995232,201964.911,201972.69999980927,201981.534,206310.734,,,
end of trap trial,html.Page,2_2_2,2022-05-11T11:18:10.906Z,,,,,,,,,,,,,,,,,,,,,,,,,,,,,,,2456.165999856952,,form submission,,,,,,,,,,,,,,,,,,,,,208767.09999990463,208766.89999985695,206294.085,206297.39999985695,206310.734,208774.907,,,
Trap 1,flow.Sequence,2_2,2022-05-11T11:18:10.906Z,,,,,,,,,,,,,,,,,,,,,,,,,,,,,,,10781.41799985696,,completion,,,,,,,,,,,,,,,,,,,,,208767.29999995232,208766.89999985695,197968.863,197976.29999995232,197985.482,208774.907,,,
Standby,html.Page,2_3_0,2022-05-11T11:18:18.891Z,,,,,,,,,,,,,,,,,,,,,,,,,,,,,,,7992.185999999987,,timeout,,,,,,,,,,,,,,,,,,,,,216752,216750.661,208758.499,208767.5,208774.907,216767.093,,,
Holding screen,html.Screen,2_3_1_0_0,2022-05-11T11:18:25.884Z,,,,,,,,,,,,,,,,,,,,,,,,,,,,,,,6993.164000000019,,timeout,,,,,,,,,,,,,,,,,,,,,223745.09999990463,223743.793,216750.661,216752.29999995232,216767.093,223760.257,,,
screen,html.Screen,2_3_1_0_1_0,2022-05-11T11:18:26.738Z,,,,,,,,,,,,,,,,,2,,,,,,,,,,,,,,837.3429999046202,,response,,,,1,C,,,,,,Space,keypress(Space),,,,instrumental,,,,Two ---- ------ --- ------- ---------- ------- ----------<br>--- --------- --- ----------- ------- ----- ------- ---<br>--------- ---- -- --- ---- -- --------- -- ---- -------<br>-- --------- ------ --- ----- ------ ---- --- --------- --<br>------ - ---- -- --- ----------- ------- ---- ----- -----<br>--- -------- - ------ ---- -- ----- ---- --- --- -----------<br>-- -------,224599.09999990463,224597.59999990463,223743.793,223745.69999980927,223760.257,224609.394,,0,Two
screen,html.Screen,2_3_1_0_1_1,2022-05-11T11:18:27.109Z,,,,,,,,,,,,,,,,,2,,,,,,,,,,,,,,359.90599995231605,,response,,,,1,C,,,,,,Space,keypress(Space),,,,instrumental,,,,--- days ------ --- ------- ---------- ------- ----------<br>--- --------- --- ----------- ------- ----- ------- ---<br>--------- ---- -- --- ---- -- --------- -- ---- -------<br>-- --------- ------ --- ----- ------ ---- --- --------- --<br>------ - ---- -- --- ----------- ------- ---- ----- -----<br>--- -------- - ------ ---- -- ----- ---- --- --- -----------<br>-- -------,224970.39999985695,224969.29999995232,224592.773,224599.5,224609.394,224975.734,,1,days
screen,html.Screen,2_3_1_0_1_2,2022-05-11T11:18:27.455Z,,,,,,,,,,,,,,,,,2,,,,,,,,,,,,,,338.76600000000326,,response,,,,1,C,,,,,,Space,keypress(Space),,,,instrumental,,,,"--- ---- later, --- ------- ---------- ------- ----------<br>--- --------- --- ----------- ------- ----- ------- ---<br>--------- ---- -- --- ---- -- --------- -- ---- -------<br>-- --------- ------ --- ----- ------ ---- --- --------- --<br>------ - ---- -- --- ----------- ------- ---- ----- -----<br>--- -------- - ------ ---- -- ----- ---- --- --- -----------<br>-- -------",225316.09999990463,225314.5,224959.252,224970.59999990463,224975.734,225325.413,,2,"later,"
screen,html.Screen,2_3_1_0_1_3,2022-05-11T11:18:27.843Z,,,,,,,,,,,,,,,,,2,,,,,,,,,,,,,,377.6869999046321,,response,,,,1,C,,,,,,Space,keypress(Space),,,,instrumental,,,,--- ---- ------ the ------- ---------- ------- ----------<br>--- --------- --- ----------- ------- ----- ------- ---<br>--------- ---- -- --- ---- -- --------- -- ---- -------<br>-- --------- ------ --- ----- ------ ---- --- --------- --<br>------ - ---- -- --- ----------- ------- ---- ----- -----<br>--- -------- - ------ ---- -- ----- ---- --- --- -----------<br>-- -------,225704.09999990463,225703.09999990463,225308.874,225316.39999985695,225325.413,225708.324,,3,the
screen,html.Screen,2_3_1_0_1_4,2022-05-11T11:18:28.083Z,,,,,,,,,,,,,,,,,2,,,,,,,,,,,,,,235.3759998092719,,response,,,,1,C,,,,,,Space,keypress(Space),,,,instrumental,,,,--- ---- ------ --- British ---------- ------- ----------<br>--- --------- --- ----------- ------- ----- ------- ---<br>--------- ---- -- --- ---- -- --------- -- ---- -------<br>-- --------- ------ --- ----- ------ ---- --- --------- --<br>------ - ---- -- --- ----------- ------- ---- ----- -----<br>--- -------- - ------ ---- -- ----- ---- --- --- -----------<br>-- -------,225944.79999995232,225943.69999980927,225691.828,225704.29999995232,225708.324,225958.22,,4,British
screen,html.Screen,2_3_1_0_1_5,2022-05-11T11:18:28.447Z,,,,,,,,,,,,,,,,,2,,,,,,,,,,,,,,348.6799998569477,,response,,,,1,C,,,,,,Space,keypress(Space),,,,instrumental,,,,--- ---- ------ --- ------- astronomer ------- ----------<br>--- --------- --- ----------- ------- ----- ------- ---<br>--------- ---- -- --- ---- -- --------- -- ---- -------<br>-- --------- ------ --- ----- ------ ---- --- --------- --<br>------ - ---- -- --- ----------- ------- ---- ----- -----<br>--- -------- - ------ ---- -- ----- ---- --- --- -----------<br>-- -------,226308.09999990463,226306.89999985695,225941.656,225945,225958.22,226324.534,,5,astronomer
screen,html.Screen,2_3_1_0_1_6,2022-05-11T11:18:28.851Z,,,,,,,,,,,,,,,,,2,,,,,,,,,,,,,,387.06599990461837,,response,,,,1,C,,,,,,Space,keypress(Space),,,,instrumental,,,,--- ---- ------ --- ------- ---------- Richard ----------<br>--- --------- --- ----------- ------- ----- ------- ---<br>--------- ---- -- --- ---- -- --------- -- ---- -------<br>-- --------- ------ --- ----- ------ ---- --- --------- --<br>------ - ---- -- --- ----------- ------- ---- ----- -----<br>--- -------- - ------ ---- -- ----- ---- --- --- -----------<br>-- -------,226712.69999980927,226711.59999990463,226307.939,226308.29999995232,226324.534,226724.011,,6,Richard
screen,html.Screen,2_3_1_0_1_7,2022-05-11T11:18:29.247Z,,,,,,,,,,,,,,,,,2,,,,,,,,,,,,,,383.18899980926653,,response,,,,1,C,,,,,,Space,keypress(Space),,,,instrumental,,,,--- ---- ------ --- ------- ---------- ------- Carrington<br>--- --------- --- ----------- ------- ----- ------- ---<br>--------- ---- -- --- ---- -- --------- -- ---- -------<br>-- --------- ------ --- ----- ------ ---- --- --------- --<br>------ - ---- -- --- ----------- ------- ---- ----- -----<br>--- -------- - ------ ---- -- ----- ---- --- --- -----------<br>-- -------,227108.39999985695,227107.19999980927,226707.553,226712.89999985695,226724.011,227123.789,,7,Carrington
screen,html.Screen,2_3_1_0_1_8,2022-05-11T11:18:29.785Z,,,,,,,,,,,,,,,,,2,,,,,,,,,,,,,,521.4109998092754,,response,,,,1,C,,,,,,Space,keypress(Space),,,,instrumental,,,,--- ---- ------ --- ------- ---------- ------- ----------<br>was --------- --- ----------- ------- ----- ------- ---<br>--------- ---- -- --- ---- -- --------- -- ---- -------<br>-- --------- ------ --- ----- ------ ---- --- --------- --<br>------ - ---- -- --- ----------- ------- ---- ----- -----<br>--- -------- - ------ ---- -- ----- ---- --- --- -----------<br>-- -------,227646.29999995232,227645.19999980927,227107.041,227108.59999990463,227123.789,227656.413,,8,was
screen,html.Screen,2_3_1_0_1_9,2022-05-11T11:18:30.025Z,,,,,,,,,,,,,,,,,2,,,,,,,,,,,,,,228.4869998569484,,response,,,,1,C,,,,,,Space,keypress(Space),,,,instrumental,,,,--- ---- ------ --- ------- ---------- ------- ----------<br>--- observing --- ----------- ------- ----- ------- ---<br>--------- ---- -- --- ---- -- --------- -- ---- -------<br>-- --------- ------ --- ----- ------ ---- --- --------- --<br>------ - ---- -- --- ----------- ------- ---- ----- -----<br>--- -------- - ------ ---- -- ----- ---- --- --- -----------<br>-- -------,227886.19999980927,227884.89999985695,227639.92,227646.5,227656.413,227889.533,,9,observing
screen,html.Screen,2_3_1_0_1_10,2022-05-11T11:18:30.479Z,,,,,,,,,,,,,,,,,2,,,,,,,,,,,,,,449.56699990463676,,response,,,,1,C,,,,,,Space,keypress(Space),,,,instrumental,,,,--- ---- ------ --- ------- ---------- ------- ----------<br>--- --------- the ----------- ------- ----- ------- ---<br>--------- ---- -- --- ---- -- --------- -- ---- -------<br>-- --------- ------ --- ----- ------ ---- --- --------- --<br>------ - ---- -- --- ----------- ------- ---- ----- -----<br>--- -------- - ------ ---- -- ----- ---- --- --- -----------<br>-- -------,228340.09999990463,228339.09999990463,227873.031,227886.39999985695,227889.533,228355.898,,10,the
screen,html.Screen,2_3_1_0_1_11,2022-05-11T11:18:30.823Z,,,,,,,,,,,,,,,,,2,,,,,,,,,,,,,,327.6020000000135,,response,,,,1,C,,,,,,Space,keypress(Space),,,,instrumental,,,,--- ---- ------ --- ------- ---------- ------- ----------<br>--- --------- --- interesting ------- ----- ------- ---<br>--------- ---- -- --- ---- -- --------- -- ---- -------<br>-- --------- ------ --- ----- ------ ---- --- --------- --<br>------ - ---- -- --- ----------- ------- ---- ----- -----<br>--- -------- - ------ ---- -- ----- ---- --- --- -----------<br>-- -------,228684.79999995232,228683.5,228339.288,228340.29999995232,228355.898,228688.733,,11,interesting
screen,html.Screen,2_3_1_0_1_12,2022-05-11T11:18:31.193Z,,,,,,,,,,,,,,,,,2,,,,,,,,,,,,,,364.1669998569414,,response,,,,1,C,,,,,,Space,keypress(Space),,,,instrumental,,,,--- ---- ------ --- ------- ---------- ------- ----------<br>--- --------- --- ----------- sunspot ----- ------- ---<br>--------- ---- -- --- ---- -- --------- -- ---- -------<br>-- --------- ------ --- ----- ------ ---- --- --------- --<br>------ - ---- -- --- ----------- ------- ---- ----- -----<br>--- -------- - ------ ---- -- ----- ---- --- --- -----------<br>-- -------,229054,229052.89999985695,228672.164,228685,228688.733,229088.494,,12,sunspot
screen,html.Screen,2_3_1_0_1_13,2022-05-11T11:18:31.742Z,,,,,,,,,,,,,,,,,2,,,,,,,,,,,,,,513.6059999046265,,response,,,,1,C,,,,,,Space,keypress(Space),,,,instrumental,,,,--- ---- ------ --- ------- ---------- ------- ----------<br>--- --------- --- ----------- ------- group ------- ---<br>--------- ---- -- --- ---- -- --------- -- ---- -------<br>-- --------- ------ --- ----- ------ ---- --- --------- --<br>------ - ---- -- --- ----------- ------- ---- ----- -----<br>--- -------- - ------ ---- -- ----- ---- --- --- -----------<br>-- -------,229603.29999995232,229602.09999990463,229071.856,229054.19999980927,229088.494,229637.958,,13,group
screen,html.Screen,2_3_1_0_1_14,2022-05-11T11:18:32.119Z,,,,,,,,,,,,,,,,,2,,,,,,,,,,,,,,341.04199999998673,,response,,,,1,C,,,,,,Space,keypress(Space),,,,instrumental,,,,--- ---- ------ --- ------- ---------- ------- ----------<br>--- --------- --- ----------- ------- ----- through ---<br>--------- ---- -- --- ---- -- --------- -- ---- -------<br>-- --------- ------ --- ----- ------ ---- --- --------- --<br>------ - ---- -- --- ----------- ------- ---- ----- -----<br>--- -------- - ------ ---- -- ----- ---- --- --- -----------<br>-- -------,229980,229979,229621.197,229603.59999990463,229637.958,229987.486,,14,through
screen,html.Screen,2_3_1_0_1_15,2022-05-11T11:18:32.421Z,,,,,,,,,,,,,,,,,2,,,,,,,,,,,,,,293.41399985694443,,response,,,,1,C,,,,,,Space,keypress(Space),,,,instrumental,,,,--- ---- ------ --- ------- ---------- ------- ----------<br>--- --------- --- ----------- ------- ----- ------- his<br>--------- ---- -- --- ---- -- --------- -- ---- -------<br>-- --------- ------ --- ----- ------ ---- --- --------- --<br>------ - ---- -- --- ----------- ------- ---- ----- -----<br>--- -------- - ------ ---- -- ----- ---- --- --- -----------<br>-- -------,230281.89999985695,230280.89999985695,229971.013,229980.29999995232,229987.486,230287.172,,15,his
screen,html.Screen,2_3_1_0_1_16,2022-05-11T11:18:32.856Z,,,,,,,,,,,,,,,,,2,,,,,,,,,,,,,,429.1279999523249,,response,,,,1,C,,,,,,Space,keypress(Space),,,,instrumental,,,,--- ---- ------ --- ------- ---------- ------- ----------<br>--- --------- --- ----------- ------- ----- ------- ---<br>telescope ---- -- --- ---- -- --------- -- ---- -------<br>-- --------- ------ --- ----- ------ ---- --- --------- --<br>------ - ---- -- --- ----------- ------- ---- ----- -----<br>--- -------- - ------ ---- -- ----- ---- --- --- -----------<br>-- -------,230717.59999990463,230716.29999995232,230270.716,230282.19999980927,230287.172,230720.106,,16,telescope
screen,html.Screen,2_3_1_0_1_17,2022-05-11T11:18:33.432Z,,,,,,,,,,,,,,,,,2,,,,,,,,,,,,,,571.5939998092654,,response,,,,1,C,,,,,,Space,keypress(Space),,,,instrumental,,,,--- ---- ------ --- ------- ---------- ------- ----------<br>--- --------- --- ----------- ------- ----- ------- ---<br>--------- when -- --- ---- -- --------- -- ---- -------<br>-- --------- ------ --- ----- ------ ---- --- --------- --<br>------ - ---- -- --- ----------- ------- ---- ----- -----<br>--- -------- - ------ ---- -- ----- ---- --- --- -----------<br>-- -------,231293.09999990463,231291.69999980927,230703.522,230717.89999985695,230720.106,231302.851,,17,when
screen,html.Screen,2_3_1_0_1_18,2022-05-11T11:18:33.829Z,,,,,,,,,,,,,,,,,2,,,,,,,,,,,,,,385.9489999523212,,response,,,,1,C,,,,,,Space,keypress(Space),,,,instrumental,,,,--- ---- ------ --- ------- ---------- ------- ----------<br>--- --------- --- ----------- ------- ----- ------- ---<br>--------- ---- he --- ---- -- --------- -- ---- -------<br>-- --------- ------ --- ----- ------ ---- --- --------- --<br>------ - ---- -- --- ----------- ------- ---- ----- -----<br>--- -------- - ------ ---- -- ----- ---- --- --- -----------<br>-- -------,231689.89999985695,231688.79999995232,231286.384,231293.39999985695,231302.851,231702.482,,18,he
screen,html.Screen,2_3_1_0_1_19,2022-05-11T11:18:34.175Z,,,,,,,,,,,,,,,,,2,,,,,,,,,,,,,,333.01800000001094,,response,,,,1,C,,,,,,Space,keypress(Space),,,,instrumental,,,,--- ---- ------ --- ------- ---------- ------- ----------<br>--- --------- --- ----------- ------- ----- ------- ---<br>--------- ---- -- saw ---- -- --------- -- ---- -------<br>-- --------- ------ --- ----- ------ ---- --- --------- --<br>------ - ---- -- --- ----------- ------- ---- ----- -----<br>--- -------- - ------ ---- -- ----- ---- --- --- -----------<br>-- -------,232036.59999990463,232035.5,231685.77,231690.09999990463,231702.482,232052.301,,19,saw
screen,html.Screen,2_3_1_0_1_20,2022-05-11T11:18:34.495Z,,,,,,,,,,,,,,,,,2,,,,,,,,,,,,,,303.49899995230953,,response,,,,1,C,,,,,,Space,keypress(Space),,,,instrumental,,,,--- ---- ------ --- ------- ---------- ------- ----------<br>--- --------- --- ----------- ------- ----- ------- ---<br>--------- ---- -- --- what -- --------- -- ---- -------<br>-- --------- ------ --- ----- ------ ---- --- --------- --<br>------ - ---- -- --- ----------- ------- ---- ----- -----<br>--- -------- - ------ ---- -- ----- ---- --- --- -----------<br>-- -------,232356.89999985695,232355.79999995232,232035.496,232036.79999995232,232052.301,232368.507,,20,what
screen,html.Screen,2_3_1_0_1_21,2022-05-11T11:18:34.865Z,,,,,,,,,,,,,,,,,2,,,,,,,,,,,,,,356.29299995230394,,response,,,,1,C,,,,,,Space,keypress(Space),,,,instrumental,,,,--- ---- ------ --- ------- ---------- ------- ----------<br>--- --------- --- ----------- ------- ----- ------- ---<br>--------- ---- -- --- ---- he --------- -- ---- -------<br>-- --------- ------ --- ----- ------ ---- --- --------- --<br>------ - ---- -- --- ----------- ------- ---- ----- -----<br>--- -------- - ------ ---- -- ----- ---- --- --- -----------<br>-- -------,232726,232724.79999995232,232351.936,232357.09999990463,232368.507,232734.776,,21,he
screen,html.Screen,2_3_1_0_1_22,2022-05-11T11:18:35.189Z,,,,,,,,,,,,,,,,,2,,,,,,,,,,,,,,313.82399990462,,response,,,,1,C,,,,,,Space,keypress(Space),,,,instrumental,,,,--- ---- ------ --- ------- ---------- ------- ----------<br>--- --------- --- ----------- ------- ----- ------- ---<br>--------- ---- -- --- ---- -- described -- ---- -------<br>-- --------- ------ --- ----- ------ ---- --- --------- --<br>------ - ---- -- --- ----------- ------- ---- ----- -----<br>--- -------- - ------ ---- -- ----- ---- --- --- -----------<br>-- -------,233050.09999990463,233048.59999990463,232718.194,232726.19999980927,232734.776,233067.802,,22,described
screen,html.Screen,2_3_1_0_1_23,2022-05-11T11:18:35.588Z,,,,,,,,,,,,,,,,,2,,,,,,,,,,,,,,380.49799995232024,,response,,,,1,C,,,,,,Space,keypress(Space),,,,instrumental,,,,--- ---- ------ --- ------- ---------- ------- ----------<br>--- --------- --- ----------- ------- ----- ------- ---<br>--------- ---- -- --- ---- -- --------- as ---- -------<br>-- --------- ------ --- ----- ------ ---- --- --------- --<br>------ - ---- -- --- ----------- ------- ---- ----- -----<br>--- -------- - ------ ---- -- ----- ---- --- --- -----------<br>-- -------,233449.39999985695,233448.29999995232,233051.336,233050.5,233067.802,233467.38,,23,as
screen,html.Screen,2_3_1_0_1_24,2022-05-11T11:18:35.813Z,,,,,,,,,,,,,,,,,2,,,,,,,,,,,,,,206.11999999999534,,response,,,,1,C,,,,,,Space,keypress(Space),,,,instrumental,,,,"--- ---- ------ --- ------- ---------- ------- ----------<br>--- --------- --- ----------- ------- ----- ------- ---<br>--------- ---- -- --- ---- -- --------- -- ""two -------<br>-- --------- ------ --- ----- ------ ---- --- --------- --<br>------ - ---- -- --- ----------- ------- ---- ----- -----<br>--- -------- - ------ ---- -- ----- ---- --- --- -----------<br>-- -------",233674.69999980927,233673.5,233434.319,233449.59999990463,233467.38,233683.838,,24,"""two"
screen,html.Screen,2_3_1_0_1_25,2022-05-11T11:18:36.103Z,,,,,,,,,,,,,,,,,2,,,,,,,,,,,,,,279.3619998092763,,response,,,,1,C,,,,,,Space,keypress(Space),,,,instrumental,,,,--- ---- ------ --- ------- ---------- ------- ----------<br>--- --------- --- ----------- ------- ----- ------- ---<br>--------- ---- -- --- ---- -- --------- -- ---- patches<br>-- --------- ------ --- ----- ------ ---- --- --------- --<br>------ - ---- -- --- ----------- ------- ---- ----- -----<br>--- -------- - ------ ---- -- ----- ---- --- --- -----------<br>-- -------,233964.29999995232,233963.19999980927,233667.376,233675,233683.838,233966.899,,25,patches
screen,html.Screen,2_3_1_0_1_26,2022-05-11T11:18:36.533Z,,,,,,,,,,,,,,,,,2,,,,,,,,,,,,,,426.80099980926025,,response,,,,1,C,,,,,,Space,keypress(Space),,,,instrumental,,,,--- ---- ------ --- ------- ---------- ------- ----------<br>--- --------- --- ----------- ------- ----- ------- ---<br>--------- ---- -- --- ---- -- --------- -- ---- -------<br>of --------- ------ --- ----- ------ ---- --- --------- --<br>------ - ---- -- --- ----------- ------- ---- ----- -----<br>--- -------- - ------ ---- -- ----- ---- --- --- -----------<br>-- -------,234394.79999995232,234393.69999980927,233950.232,233964.5,233966.899,234399.829,,26,of
screen,html.Screen,2_3_1_0_1_27,2022-05-11T11:18:36.929Z,,,,,,,,,,,,,,,,,2,,,,,,,,,,,,,,389.1710000000021,,response,,,,1,C,,,,,,Space,keypress(Space),,,,instrumental,,,,--- ---- ------ --- ------- ---------- ------- ----------<br>--- --------- --- ----------- ------- ----- ------- ---<br>--------- ---- -- --- ---- -- --------- -- ---- -------<br>-- intensely ------ --- ----- ------ ---- --- --------- --<br>------ - ---- -- --- ----------- ------- ---- ----- -----<br>--- -------- - ------ ---- -- ----- ---- --- --- -----------<br>-- -------,234790.29999995232,234789,234383.339,234395,234399.829,234799.391,,27,intensely
screen,html.Screen,2_3_1_0_1_28,2022-05-11T11:18:37.441Z,,,,,,,,,,,,,,,,,2,,,,,,,,,,,,,,501.8089998092619,,response,,,,1,C,,,,,,Space,keypress(Space),,,,instrumental,,,,--- ---- ------ --- ------- ---------- ------- ----------<br>--- --------- --- ----------- ------- ----- ------- ---<br>--------- ---- -- --- ---- -- --------- -- ---- -------<br>-- --------- bright --- ----- ------ ---- --- --------- --<br>------ - ---- -- --- ----------- ------- ---- ----- -----<br>--- -------- - ------ ---- -- ----- ---- --- --- -----------<br>-- -------,235302.19999980927,235301.19999980927,234782.944,234790.59999990463,234799.391,235315.72,,28,bright
screen,html.Screen,2_3_1_0_1_29,2022-05-11T11:18:37.714Z,,,,,,,,,,,,,,,,,2,,,,,,,,,,,,,,259.0799999523151,,response,,,,1,C,,,,,,Space,keypress(Space),,,,instrumental,,,,--- ---- ------ --- ------- ---------- ------- ----------<br>--- --------- --- ----------- ------- ----- ------- ---<br>--------- ---- -- --- ---- -- --------- -- ---- -------<br>-- --------- ------ and ----- ------ ---- --- --------- --<br>------ - ---- -- --- ----------- ------- ---- ----- -----<br>--- -------- - ------ ---- -- ----- ---- --- --- -----------<br>-- -------,235575.79999995232,235574.79999995232,235299.182,235302.5,235315.72,235581.967,,29,and
screen,html.Screen,2_3_1_0_1_30,2022-05-11T11:18:37.929Z,,,,,,,,,,,,,,,,,2,,,,,,,,,,,,,,207.0329999999958,,response,,,,1,C,,,,,,Space,keypress(Space),,,,instrumental,,,,--- ---- ------ --- ------- ---------- ------- ----------<br>--- --------- --- ----------- ------- ----- ------- ---<br>--------- ---- -- --- ---- -- --------- -- ---- -------<br>-- --------- ------ --- white ------ ---- --- --------- --<br>------ - ---- -- --- ----------- ------- ---- ----- -----<br>--- -------- - ------ ---- -- ----- ---- --- --- -----------<br>-- -------,235790.09999990463,235789,235565.438,235576.19999980927,235581.967,235798.393,,30,white
screen,html.Screen,2_3_1_0_1_31,2022-05-11T11:18:38.229Z,,,,,,,,,,,,,,,,,2,,,,,,,,,,,,,,290.5069998569379,,response,,,,1,C,,,,,,Space,keypress(Space),,,,instrumental,,,,"--- ---- ------ --- ------- ---------- ------- ----------<br>--- --------- --- ----------- ------- ----- ------- ---<br>--------- ---- -- --- ---- -- --------- -- ---- -------<br>-- --------- ------ --- ----- light"" ---- --- --------- --<br>------ - ---- -- --- ----------- ------- ---- ----- -----<br>--- -------- - ------ ---- -- ----- ---- --- --- -----------<br>-- -------",236090,236088.89999985695,235781.861,235790.29999995232,235798.393,236098.141,,31,"light"""
screen,html.Screen,2_3_1_0_1_32,2022-05-11T11:18:38.438Z,,,,,,,,,,,,,,,,,2,,,,,,,,,,,,,,200.4589999046293,,response,,,,1,C,,,,,,Space,keypress(Space),,,,instrumental,,,,--- ---- ------ --- ------- ---------- ------- ----------<br>--- --------- --- ----------- ------- ----- ------- ---<br>--------- ---- -- --- ---- -- --------- -- ---- -------<br>-- --------- ------ --- ----- ------ over --- --------- --<br>------ - ---- -- --- ----------- ------- ---- ----- -----<br>--- -------- - ------ ---- -- ----- ---- --- --- -----------<br>-- -------,236299.59999990463,236298.59999990463,236081.578,236090.29999995232,236098.141,236314.626,,32,over
screen,html.Screen,2_3_1_0_1_33,2022-05-11T11:18:38.879Z,,,,,,,,,,,,,,,,,2,,,,,,,,,,,,,,424.673999952327,,response,,,,1,C,,,,,,Space,keypress(Space),,,,instrumental,,,,--- ---- ------ --- ------- ---------- ------- ----------<br>--- --------- --- ----------- ------- ----- ------- ---<br>--------- ---- -- --- ---- -- --------- -- ---- -------<br>-- --------- ------ --- ----- ------ ---- the --------- --<br>------ - ---- -- --- ----------- ------- ---- ----- -----<br>--- -------- - ------ ---- -- ----- ---- --- --- -----------<br>-- -------,236740.5,236739.29999995232,236298.037,236299.89999985695,236314.626,236747.484,,33,the
screen,html.Screen,2_3_1_0_1_34,2022-05-11T11:18:39.184Z,,,,,,,,,,,,,,,,,2,,,,,,,,,,,,,,296.81599995231954,,response,,,,1,C,,,,,,Space,keypress(Space),,,,instrumental,,,,--- ---- ------ --- ------- ---------- ------- ----------<br>--- --------- --- ----------- ------- ----- ------- ---<br>--------- ---- -- --- ---- -- --------- -- ---- -------<br>-- --------- ------ --- ----- ------ ---- --- sunspots. --<br>------ - ---- -- --- ----------- ------- ---- ----- -----<br>--- -------- - ------ ---- -- ----- ---- --- --- -----------<br>-- -------,237045.29999995232,237044.29999995232,236730.888,236740.79999995232,236747.484,237075.545,,34,sunspots.
screen,html.Screen,2_3_1_0_1_35,2022-05-11T11:18:39.467Z,,,,,,,,,,,,,,,,,2,,,,,,,,,,,,,,251.4549999999872,,response,,,,1,C,,,,,,Space,keypress(Space),,,,instrumental,,,,--- ---- ------ --- ------- ---------- ------- ----------<br>--- --------- --- ----------- ------- ----- ------- ---<br>--------- ---- -- --- ---- -- --------- -- ---- -------<br>-- --------- ------ --- ----- ------ ---- --- --------- He<br>------ - ---- -- --- ----------- ------- ---- ----- -----<br>--- -------- - ------ ---- -- ----- ---- --- --- -----------<br>-- -------,237328.19999980927,237327,237030.54,237045.5,237075.545,237365.963,,35,He
screen,html.Screen,2_3_1_0_1_36,2022-05-11T11:18:40.051Z,,,,,,,,,,,,,,,,,2,,,,,,,,,,,,,,544.93699985696,,response,,,,1,C,,,,,,Space,keypress(Space),,,,instrumental,,,,--- ---- ------ --- ------- ---------- ------- ----------<br>--- --------- --- ----------- ------- ----- ------- ---<br>--------- ---- -- --- ---- -- --------- -- ---- -------<br>-- --------- ------ --- ----- ------ ---- --- --------- --<br>jotted - ---- -- --- ----------- ------- ---- ----- -----<br>--- -------- - ------ ---- -- ----- ---- --- --- -----------<br>-- -------,237912.19999980927,237910.89999985695,237313.717,237328.5,237365.963,237929.756,,36,jotted
screen,html.Screen,2_3_1_0_1_37,2022-05-11T11:18:40.276Z,,,,,,,,,,,,,,,,,2,,,,,,,,,,,,,,205.84399990463862,,response,,,,1,C,,,,,,Space,keypress(Space),,,,instrumental,,,,--- ---- ------ --- ------- ---------- ------- ----------<br>--- --------- --- ----------- ------- ----- ------- ---<br>--------- ---- -- --- ---- -- --------- -- ---- -------<br>-- --------- ------ --- ----- ------ ---- --- --------- --<br>------ a ---- -- --- ----------- ------- ---- ----- -----<br>--- -------- - ------ ---- -- ----- ---- --- --- -----------<br>-- -------,238137,238135.59999990463,237913.139,237912.69999980927,237929.756,238146.152,,37,a
