sender,sender_type,sender_id,timestamp,meta,,Blues,Classical,Country,Dance,Electronic,Folk,Gospel,Hip-Hop,Jazz,Latin,Musical/Film,New-age,Pop,Prolific_id,Provo_ID,R&B,Rap,Reggae,Religious,Rock,Soul,Swing,Traditional,age,artist_name,correct,correctResponse,distraction,duration,education,ended_on,familiarity,gender,headphone_check_performance,item,list,music_frequency,offensiveness,pleasantness,position_correct,preference,response,response_action,snippet_file,song_name,song_rating,sound,stimulus_1,stimulus_2,stimulus_3,text,time_commit,time_end,time_render,time_run,time_show,time_switch,url,word,word_ID
Prolific ID,html.Form,0,2022-05-03T18:54:26.353Z,"{""labjs_version"":""20.2.2"",""labjs_build"":{""flavor"":""production"",""commit"":""a25486e0c714a0ae2ce03ff94b7bb6896854dcfa""},""location"":""https://run.pavlovia.org/mvasilev/prolific3_music_a/"",""userAgent"":""Mozilla/5.0 (Macintosh; Intel Mac OS X 10_13_6) AppleWebKit/537.36 (KHTML, like Gecko) Chrome/100.0.4896.127 Safari/537.36"",""platform"":""MacIntel"",""language"":""en-GB"",""locale"":""en-GB"",""timeZone"":""Europe/London"",""timezoneOffset"":-60,""screen_width"":1440,""screen_height"":900,""scroll_width"":1440,""scroll_height"":692,""window_innerWidth"":1440,""window_innerHeight"":740,""devicePixelRatio"":1}",,,,,,,,,,,,,,,5fbc18d75845f309a94d9141,,,,,,,,,,,,,,,7749.129000286102,,form submission,,,,,,,,,,,,,,,,,,,,,14373.5,14372.200000286102,6589.737,6596.10000038147,6623.071,14373.709,{},,
Introduction,html.Screen,1_0,2022-05-03T18:54:33.574Z,,,,,,,,,,,,,,,,,,,,,,,,,,,,,,,7215.191000095367,,response,,,,,,,,,,,continue,click button,,,,,,,,,21594.10000038147,21588.900000095367,14357.042,14374.900000095367,14373.709,21607.187,,,
Volume calibration,html.Screen,1_1,2022-05-03T18:54:52.183Z,,,,,,,,,,,,,,,,,,,,,,,,,,,,,,,18586.113000190733,,response,,,,,,,,,,,continue,click button,,,,,,,,,40202.40000009537,40193.300000190735,21590.52,21594.400000095367,21607.187,40208.494,,,
Task instructions,html.Screen,1_2,2022-05-03T18:55:04.362Z,,,,,,,,,,,,,,,,,,,,,,,,,,,,,,,12170.006000000001,,response,,,,,,,,,,,continue,click button,,,,,,,,,52380.800000190735,52378.5,40191.827,40202.5,40208.494,52392.071,,,
Sounds,html.Screen,1_3_0_0,2022-05-03T18:55:08.612Z,,,,,,,,,,,,,,,,,,,,,,,,,,,,,,,4251.065999999999,,timeout,,,,,,,,,1,,,,,,,,S,I,O,,56631.10000038147,56626.47,52375.404,52381.2000002861,52392.071,56643.137,,,
Judgement,html.Screen,1_3_0_1,2022-05-03T18:55:10.156Z,,,,,,,,,,,,,,,,,,,,,,,,,,,,true,1,,1528.6630001907324,,response,,,,,,,,,1,,1,click #choice-1,,,,,S,I,O,,58174.40000009537,58171.800000190735,56626.47,56631.300000190735,56643.137,58176.501,,,
Trial,flow.Sequence,1_3_0,2022-05-03T18:55:10.156Z,,,,,,,,,,,,,,,,,,,,,,,,,,,,,,,5779.729000190731,,completion,,,,,,,,,1,,,,,,,,S,I,O,,58174.90000009537,58171.800000190735,52375.404,52381.10000038147,52392.071,58176.501,,,
Sounds,html.Screen,1_3_1_0,2022-05-03T18:55:14.394Z,,,,,,,,,,,,,,,,,,,,,,,,,,,,,,,4250.085000000006,,timeout,,,,,,,,,1,,,,,,,,S,O,I,,62412.40000009537,62409.919,58159.834,58175.10000038147,58176.501,62426.586,,,
Judgement,html.Screen,1_3_1_1,2022-05-03T18:55:15.839Z,,,,,,,,,,,,,,,,,,,,,,,,,,,,true,1,,1428.913999999997,,response,,,,,,,,,1,,1,click #choice-1,,,,,S,O,I,,63858,63855.5,62409.919,62412.60000038147,62426.586,63860.588,,,
Trial,flow.Sequence,1_3_1,2022-05-03T18:55:15.840Z,,,,,,,,,,,,,,,,,,,,,,,,,,,,,,,5678.999000000003,,completion,,,,,,,,,1,,,,,,,,S,O,I,,63858.40000009537,63855.5,58159.834,58175,58176.501,63860.588,,,
Sounds,html.Screen,1_3_2_0,2022-05-03T18:55:20.077Z,,,,,,,,,,,,,,,,,,,,,,,,,,,,,,,4250.084999999992,,timeout,,,,,,,,,3,,,,,,,,O,I,S,,68095.7000002861,68094.006,63843.921,63858.7000002861,63860.588,68110.673,,,
Judgement,html.Screen,1_3_2_1,2022-05-03T18:55:20.789Z,,,,,,,,,,,,,,,,,,,,,,,,,,,,true,3,,694.3270000000048,,response,,,,,,,,,3,,3,click #choice-3,,,,,O,I,S,,68807.5,68805,68094.006,68095.90000009537,68110.673,68810.687,,,
Trial,flow.Sequence,1_3_2,2022-05-03T18:55:20.789Z,,,,,,,,,,,,,,,,,,,,,,,,,,,,,,,4944.411999999997,,completion,,,,,,,,,3,,,,,,,,O,I,S,,68807.90000009537,68805,63843.921,63858.60000038147,63860.588,68810.687,,,
Sounds,html.Screen,1_3_3_0,2022-05-03T18:55:25.028Z,,,,,,,,,,,,,,,,,,,,,,,,,,,,,,,4250.084999999992,,timeout,,,,,,,,,3,,,,,,,,I,O,S,,73046.7000002861,73044.105,68794.02,68808.10000038147,68810.687,73060.772,,,
Judgement,html.Screen,1_3_3_1,2022-05-03T18:55:25.464Z,,,,,,,,,,,,,,,,,,,,,,,,,,,,true,3,,419.2280000000028,,response,,,,,,,,,3,,3,click #choice-3,,,,,I,O,S,,73482.40000009537,73480,73044.105,73047,73060.772,73494.114,,,
Trial,flow.Sequence,1_3_3,2022-05-03T18:55:25.464Z,,,,,,,,,,,,,,,,,,,,,,,,,,,,,,,4669.312999999995,,completion,,,,,,,,,3,,,,,,,,I,O,S,,73482.80000019073,73480,68794.02,68808.10000038147,68810.687,73494.114,,,
Sounds,html.Screen,1_3_4_0,2022-05-03T18:55:29.712Z,,,,,,,,,,,,,,,,,,,,,,,,,,,,,,,4250.581999999995,,timeout,,,,,,,,,2,,,,,,,,O,S,I,,77730.30000019073,77728.029,73477.447,73483,73494.114,77744.696,,,
Judgement,html.Screen,1_3_4_1,2022-05-03T18:55:30.200Z,,,,,,,,,,,,,,,,,,,,,,,,,,,,true,2,,470.90400038147345,,response,,,,,,,,,2,,2,click #choice-2,,,,,O,S,I,,78218.2000002861,78215.60000038147,77728.029,77730.40000009537,77744.696,78228.039,,,
Trial,flow.Sequence,1_3_4,2022-05-03T18:55:30.200Z,,,,,,,,,,,,,,,,,,,,,,,,,,,,,,,4721.486000381468,,completion,,,,,,,,,2,,,,,,,,O,S,I,,78218.5,78215.60000038147,73477.447,73482.90000009537,73494.114,78228.039,,,
Sounds,html.Screen,1_3_5_0,2022-05-03T18:55:34.446Z,,,,,,,,,,,,,,,,,,,,,,,,,,,,,,,4250.084999999992,,timeout,,,,,,,,,2,,,,,,,,I,S,O,,82464,82461.457,78211.372,78218.7000002861,78228.039,82478.124,,,
Judgement,html.Screen,1_3_5_1,2022-05-03T18:55:35.916Z,,,,,,,,,,,,,,,,,,,,,,,,,,,,true,2,,1453.3760000000038,,response,,,,,,,,,2,,2,click #choice-2,,,,,I,S,O,,83933.90000009537,83931.5,82461.457,82464.2000002861,82478.124,83944.82,,,
Trial,flow.Sequence,1_3_5,2022-05-03T18:55:35.916Z,,,,,,,,,,,,,,,,,,,,,,,,,,,,,,,5703.460999999996,,completion,,,,,,,,,2,,,,,,,,I,S,O,,83934.10000038147,83931.5,78211.372,78218.7000002861,78228.039,83944.82,,,
Task,flow.Loop,1_3,2022-05-03T18:55:35.924Z,,,,,,,,,,,,,,,,,,,,,,,,,,,,,,,31539.428999999996,,completion,,,1,,,,,,,,,,,,,,,,,,83942.2000002861,83931.5,52375.404,52381.10000038147,52392.071,83944.82,,,
Trap,html.Screen,1_4,2022-05-03T18:55:35.926Z,,,,,,,,,,,,,,,,,,,,,,,,,,,,,,,NaN,,skipped,,,,,,,,,,,,,,,,,,,,,83943.7000002861,83931.5,,83943.5,,83944.82,,,
Thanks,html.Screen,1_5,2022-05-03T18:55:39.753Z,,,,,,,,,,,,,,,,,,,,,,,,,,,,,,,3823.7800003814627,,response,,,,,,,,,,,continue,click button,,,,,,,,,87771,87768.60000038147,83928.153,83943.90000009537,83944.82,89495.47,,,
Headphone screening,flow.Sequence,1,2022-05-03T18:55:39.753Z,,,,,,,,,,,,,,,,,,,,,,,,,,,,,,,73394.89100038147,,completion,,,,,,,,,,,,,,,,,,,,,87771.30000019073,87768.60000038147,14357.042,14374.800000190735,14373.709,89495.47,,,
Instructions,html.Page,2_0,2022-05-03T18:55:56.091Z,,,,,,,,,,,,,,,,,,,,,,,,,,,,,,,14611.529999999999,,form submission,,,,,,,,,,,,,,,,,,,,,104108.2000002861,104107,89478.803,89491.7000002861,89495.47,104112.429,,,
Holding screen,html.Screen,2_1_0_0,2022-05-03T18:56:06.081Z,,,,,,,,,,,,,,,,,,,,,,,,,,,,,,,10001.12999999999,,timeout,,,,,,,,,,,,,,,,,,,,,114097.90000009537,114096.892,104095.762,104108.90000009537,104112.429,114113.559,,,
screen,html.Screen,2_1_0_1_0,2022-05-03T18:56:07.051Z,,,,,,,,,,,,,,,,,53,,,,,,,,,,,,,,948.8410000953736,,response,,,,99,,,,,,,Space,keypress(Space),,,,,,,,When -- ----- -- ------ - ------- --- ----------<br>------------- ------ ------ ---- ---- ------- ----- -- ----<br>-------- ------- -- ---------- --- - --- ----- ----- ----<br>---- --- --- ----- --- ---- ---- ------- ----- ---- -------<br>--- --- -- ----- -- --- ---- -- --- ---- -- ------ ------<br>--- ----- -- ----,115068.2000002861,115062.40000009537,114096.892,114098.2000002861,114113.559,115080.764,,0,When
screen,html.Screen,2_1_0_1_1,2022-05-03T18:56:07.670Z,,,,,,,,,,,,,,,,,53,,,,,,,,,,,,,,603.5360001907393,,response,,,,99,,,,,,,Space,keypress(Space),,,,,,,,---- it ----- -- ------ - ------- --- ----------<br>------------- ------ ------ ---- ---- ------- ----- -- ----<br>-------- ------- -- ---------- --- - --- ----- ----- ----<br>---- --- --- ----- --- ---- ---- ------- ----- ---- -------<br>--- --- -- ----- -- --- ---- -- --- ---- -- ------ ------<br>--- ----- -- ----,115687.60000038147,115684.30000019073,115064.097,115068.30000019073,115080.764,115697.443,,1,it
screen,html.Screen,2_1_0_1_2,2022-05-03T18:56:08.303Z,,,,,,,,,,,,,,,,,53,,,,,,,,,,,,,,619.9570000953681,,response,,,,99,,,,,,,Space,keypress(Space),,,,,,,,---- -- comes -- ------ - ------- --- ----------<br>------------- ------ ------ ---- ---- ------- ----- -- ----<br>-------- ------- -- ---------- --- - --- ----- ----- ----<br>---- --- --- ----- --- ---- ---- ------- ----- ---- -------<br>--- --- -- ----- -- --- ---- -- --- ---- -- ------ ------<br>--- ----- -- ----,116320.30000019073,116317.40000009537,115680.776,115687.80000019073,115697.443,116330.789,,2,comes
screen,html.Screen,2_1_0_1_3,2022-05-03T18:56:08.904Z,,,,,,,,,,,,,,,,,53,,,,,,,,,,,,,,587.5110001907306,,response,,,,99,,,,,,,Space,keypress(Space),,,,,,,,---- -- ----- to ------ - ------- --- ----------<br>------------- ------ ------ ---- ---- ------- ----- -- ----<br>-------- ------- -- ---------- --- - --- ----- ----- ----<br>---- --- --- ----- --- ---- ---- ------- ----- ---- -------<br>--- --- -- ----- -- --- ---- -- --- ---- -- ------ ------<br>--- ----- -- ----,116921.40000009537,116918.30000019073,116314.122,116320.5,116330.789,116930.801,,3,to
screen,html.Screen,2_1_0_1_4,2022-05-03T18:56:09.485Z,,,,,,,,,,,,,,,,,53,,,,,,,,,,,,,,568.4990001907281,,response,,,,99,,,,,,,Space,keypress(Space),,,,,,,,---- -- ----- -- having - ------- --- ----------<br>------------- ------ ------ ---- ---- ------- ----- -- ----<br>-------- ------- -- ---------- --- - --- ----- ----- ----<br>---- --- --- ----- --- ---- ---- ------- ----- ---- -------<br>--- --- -- ----- -- --- ---- -- --- ---- -- ------ ------<br>--- ----- -- ----,117502.5,117499.30000019073,116914.134,116921.7000002861,116930.801,117514.146,,4,having
screen,html.Screen,2_1_0_1_5,2022-05-03T18:56:10.040Z,,,,,,,,,,,,,,,,,53,,,,,,,,,,,,,,540.0540002861089,,response,,,,99,,,,,,,Space,keypress(Space),,,,,,,,---- -- ----- -- ------ a ------- --- ----------<br>------------- ------ ------ ---- ---- ------- ----- -- ----<br>-------- ------- -- ---------- --- - --- ----- ----- ----<br>---- --- --- ----- --- ---- ---- ------- ----- ---- -------<br>--- --- -- ----- -- --- ---- -- --- ---- -- ------ ------<br>--- ----- -- ----,118057.40000009537,118054.2000002861,117497.479,117503.7000002861,117514.146,118064.157,,5,a
screen,html.Screen,2_1_0_1_6,2022-05-03T18:56:10.589Z,,,,,,,,,,,,,,,,,53,,,,,,,,,,,,,,539.0430002860958,,response,,,,99,,,,,,,Space,keypress(Space),,,,,,,,---- -- ----- -- ------ - lasting --- ----------<br>------------- ------ ------ ---- ---- ------- ----- -- ----<br>-------- ------- -- ---------- --- - --- ----- ----- ----<br>---- --- --- ----- --- ---- ---- ------- ----- ---- -------<br>--- --- -- ----- -- --- ---- -- --- ---- -- ------ ------<br>--- ----- -- ----,118606.40000009537,118603.2000002861,118047.49,118057.60000038147,118064.157,118614.168,,6,lasting
screen,html.Screen,2_1_0_1_7,2022-05-03T18:56:11.099Z,,,,,,,,,,,,,,,,,53,,,,,,,,,,,,,,499.0320002860972,,response,,,,99,,,,,,,Space,keypress(Space),,,,,,,,---- -- ----- -- ------ - ------- and ----------<br>------------- ------ ------ ---- ---- ------- ----- -- ----<br>-------- ------- -- ---------- --- - --- ----- ----- ----<br>---- --- --- ----- --- ---- ---- ------- ----- ---- -------<br>--- --- -- ----- -- --- ---- -- --- ---- -- ------ ------<br>--- ----- -- ----,119116.40000009537,119113.2000002861,118597.501,118606.5,118614.168,119130.845,,7,and
screen,html.Screen,2_1_0_1_8,2022-05-03T18:56:11.656Z,,,,,,,,,,,,,,,,,53,,,,,,,,,,,,,,539.3550002861011,,response,,,,99,,,,,,,Space,keypress(Space),,,,,,,,---- -- ----- -- ------ - ------- --- fulfilling<br>------------- ------ ------ ---- ---- ------- ----- -- ----<br>-------- ------- -- ---------- --- - --- ----- ----- ----<br>---- --- --- ----- --- ---- ---- ------- ----- ---- -------<br>--- --- -- ----- -- --- ---- -- --- ---- -- ------ ------<br>--- ----- -- ----,119673.2000002861,119670.2000002861,119114.178,119116.60000038147,119130.845,119680.856,,8,fulfilling
screen,html.Screen,2_1_0_1_9,2022-05-03T18:56:12.207Z,,,,,,,,,,,,,,,,,53,,,,,,,,,,,,,,540.24400038147,,response,,,,99,,,,,,,Space,keypress(Space),,,,,,,,"---- -- ----- -- ------ - ------- --- ----------<br>relationship, ------ ------ ---- ---- ------- ----- -- ----<br>-------- ------- -- ---------- --- - --- ----- ----- ----<br>---- --- --- ----- --- ---- ---- ------- ----- ---- -------<br>--- --- -- ----- -- --- ---- -- --- ---- -- ------ ------<br>--- ----- -- ----",120224.40000009537,120221.10000038147,119664.189,119673.40000009537,119680.856,120230.867,,9,"relationship,"
screen,html.Screen,2_1_0_1_10,2022-05-03T18:56:12.783Z,,,,,,,,,,,,,,,,,53,,,,,,,,,,,,,,566.1330000000016,,response,,,,99,,,,,,,Space,keypress(Space),,,,,,,,---- -- ----- -- ------ - ------- --- ----------<br>------------- common ------ ---- ---- ------- ----- -- ----<br>-------- ------- -- ---------- --- - --- ----- ----- ----<br>---- --- --- ----- --- ---- ---- ------- ----- ---- -------<br>--- --- -- ----- -- --- ---- -- --- ---- -- ------ ------<br>--- ----- -- ----,120800.30000019073,120797,120214.2,120224.60000038147,120230.867,120814.212,,10,common
screen,html.Screen,2_1_0_1_11,2022-05-03T18:56:13.304Z,,,,,,,,,,,,,,,,,53,,,,,,,,,,,,,,503.78800000000047,,response,,,,99,,,,,,,Space,keypress(Space),,,,,,,,---- -- ----- -- ------ - ------- --- ----------<br>------------- ------ wisdom ---- ---- ------- ----- -- ----<br>-------- ------- -- ---------- --- - --- ----- ----- ----<br>---- --- --- ----- --- ---- ---- ------- ----- ---- -------<br>--- --- -- ----- -- --- ---- -- --- ---- -- ------ ------<br>--- ----- -- ----,121321.2000002861,121318,120797.545,120800.5,120814.212,121330.889,,11,wisdom
screen,html.Screen,2_1_0_1_12,2022-05-03T18:56:13.878Z,,,,,,,,,,,,,,,,,53,,,,,,,,,,,,,,561.1110000000044,,response,,,,99,,,,,,,Space,keypress(Space),,,,,,,,---- -- ----- -- ------ - ------- --- ----------<br>------------- ------ ------ says ---- ------- ----- -- ----<br>-------- ------- -- ---------- --- - --- ----- ----- ----<br>---- --- --- ----- --- ---- ---- ------- ----- ---- -------<br>--- --- -- ----- -- --- ---- -- --- ---- -- ------ ------<br>--- ----- -- ----,121895.10000038147,121892,121314.222,121321.40000009537,121330.889,121897.567,,12,says
screen,html.Screen,2_1_0_1_13,2022-05-03T18:56:14.421Z,,,,,,,,,,,,,,,,,53,,,,,,,,,,,,,,537.4330000000045,,response,,,,99,,,,,,,Space,keypress(Space),,,,,,,,---- -- ----- -- ------ - ------- --- ----------<br>------------- ------ ------ ---- that ------- ----- -- ----<br>-------- ------- -- ---------- --- - --- ----- ----- ----<br>---- --- --- ----- --- ---- ---- ------- ----- ---- -------<br>--- --- -- ----- -- --- ---- -- --- ---- -- ------ ------<br>--- ----- -- ----,122438,122435,121880.9,121895.30000019073,121897.567,122447.578,,13,that
screen,html.Screen,2_1_0_1_14,2022-05-03T18:56:14.958Z,,,,,,,,,,,,,,,,,53,,,,,,,,,,,,,,524.4220000000059,,response,,,,99,,,,,,,Space,keypress(Space),,,,,,,,---- -- ----- -- ------ - ------- --- ----------<br>------------- ------ ------ ---- ---- feeling ----- -- ----<br>-------- ------- -- ---------- --- - --- ----- ----- ----<br>---- --- --- ----- --- ---- ---- ------- ----- ---- -------<br>--- --- -- ----- -- --- ---- -- --- ---- -- ------ ------<br>--- ----- -- ----,122975.10000038147,122972,122430.911,122438.2000002861,122447.578,122980.922,,14,feeling
screen,html.Screen,2_1_0_1_15,2022-05-03T18:56:15.533Z,,,,,,,,,,,,,,,,,53,,,,,,,,,,,,,,565.9780000953615,,response,,,,99,,,,,,,Space,keypress(Space),,,,,,,,---- -- ----- -- ------ - ------- --- ----------<br>------------- ------ ------ ---- ---- ------- close -- ----<br>-------- ------- -- ---------- --- - --- ----- ----- ----<br>---- --- --- ----- --- ---- ---- ------- ----- ---- -------<br>--- --- -- ----- -- --- ---- -- --- ---- -- ------ ------<br>--- ----- -- ----,123550,123546.90000009537,122964.255,122975.2000002861,122980.922,123564.267,,15,close
screen,html.Screen,2_1_0_1_16,2022-05-03T18:56:16.069Z,,,,,,,,,,,,,,,,,53,,,,,,,,,,,,,,518.5330001907278,,response,,,,99,,,,,,,Space,keypress(Space),,,,,,,,---- -- ----- -- ------ - ------- --- ----------<br>------------- ------ ------ ---- ---- ------- ----- to ----<br>-------- ------- -- ---------- --- - --- ----- ----- ----<br>---- --- --- ----- --- ---- ---- ------- ----- ---- -------<br>--- --- -- ----- -- --- ---- -- --- ---- -- ------ ------<br>--- ----- -- ----,124085.90000009537,124082.80000019073,123547.6,123550.2000002861,123564.267,124097.611,,16,to
screen,html.Screen,2_1_0_1_17,2022-05-03T18:56:16.593Z,,,,,,,,,,,,,,,,,53,,,,,,,,,,,,,,509.18900019073044,,response,,,,99,,,,,,,Space,keypress(Space),,,,,,,,---- -- ----- -- ------ - ------- --- ----------<br>------------- ------ ------ ---- ---- ------- ----- -- your<br>-------- ------- -- ---------- --- - --- ----- ----- ----<br>---- --- --- ----- --- ---- ---- ------- ----- ---- -------<br>--- --- -- ----- -- --- ---- -- --- ---- -- ------ ------<br>--- ----- -- ----,124609.80000019073,124606.80000019073,124080.944,124086.10000038147,124097.611,124614.792,,17,your
screen,html.Screen,2_1_0_1_18,2022-05-03T18:56:17.111Z,,,,,,,,,,,,,,,,,53,,,,,,,,,,,,,,510.0080001907336,,response,,,,99,,,,,,,Space,keypress(Space),,,,,,,,---- -- ----- -- ------ - ------- --- ----------<br>------------- ------ ------ ---- ---- ------- ----- -- ----<br>romantic ------- -- ---------- --- - --- ----- ----- ----<br>---- --- --- ----- --- ---- ---- ------- ----- ---- -------<br>--- --- -- ----- -- --- ---- -- --- ---- -- ------ ------<br>--- ----- -- ----,125128.10000038147,125124.80000019073,124598.125,124610,124614.792,125131.469,,18,romantic
screen,html.Screen,2_1_0_1_19,2022-05-03T18:56:17.630Z,,,,,,,,,,,,,,,,,53,,,,,,,,,,,,,,512.3310001907375,,response,,,,99,,,,,,,Space,keypress(Space),,,,,,,,---- -- ----- -- ------ - ------- --- ----------<br>------------- ------ ------ ---- ---- ------- ----- -- ----<br>-------- partner -- ---------- --- - --- ----- ----- ----<br>---- --- --- ----- --- ---- ---- ------- ----- ---- -------<br>--- --- -- ----- -- --- ---- -- --- ---- -- ------ ------<br>--- ----- -- ----,125646.80000019073,125643.80000019073,125114.802,125128.30000019073,125131.469,125648.146,,19,partner
screen,html.Screen,2_1_0_1_20,2022-05-03T18:56:18.169Z,,,,,,,,,,,,,,,,,53,,,,,,,,,,,,,,534.5540002861089,,response,,,,99,,,,,,,Space,keypress(Space),,,,,,,,---- -- ----- -- ------ - ------- --- ----------<br>------------- ------ ------ ---- ---- ------- ----- -- ----<br>-------- ------- is ---------- --- - --- ----- ----- ----<br>---- --- --- ----- --- ---- ---- ------- ----- ---- -------<br>--- --- -- ----- -- --- ---- -- --- ---- -- ------ ------<br>--- ----- -- ----,126185.7000002861,126182.7000002861,125631.479,125646.90000009537,125648.146,126198.157,,20,is
screen,html.Screen,2_1_0_1_21,2022-05-03T18:56:18.686Z,,,,,,,,,,,,,,,,,53,,,,,,,,,,,,,,501.5430002860958,,response,,,,99,,,,,,,Space,keypress(Space),,,,,,,,---- -- ----- -- ------ - ------- --- ----------<br>------------- ------ ------ ---- ---- ------- ----- -- ----<br>-------- ------- -- paramount. --- - --- ----- ----- ----<br>---- --- --- ----- --- ---- ---- ------- ----- ---- -------<br>--- --- -- ----- -- --- ---- -- --- ---- -- ------ ------<br>--- ----- -- ----,126702.7000002861,126699.7000002861,126181.49,126185.90000009537,126198.157,126714.834,,21,paramount.
screen,html.Screen,2_1_0_1_22,2022-05-03T18:56:19.233Z,,,,,,,,,,,,,,,,,53,,,,,,,,,,,,,,531.8660002860997,,response,,,,99,,,,,,,Space,keypress(Space),,,,,,,,---- -- ----- -- ------ - ------- --- ----------<br>------------- ------ ------ ---- ---- ------- ----- -- ----<br>-------- ------- -- ---------- But - --- ----- ----- ----<br>---- --- --- ----- --- ---- ---- ------- ----- ---- -------<br>--- --- -- ----- -- --- ---- -- --- ---- -- ------ ------<br>--- ----- -- ----,127249.80000019073,127246.7000002861,126698.167,126702.90000009537,126714.834,127264.845,,22,But
screen,html.Screen,2_1_0_1_23,2022-05-03T18:56:19.757Z,,,,,,,,,,,,,,,,,53,,,,,,,,,,,,,,505.85500028610113,,response,,,,99,,,,,,,Space,keypress(Space),,,,,,,,---- -- ----- -- ------ - ------- --- ----------<br>------------- ------ ------ ---- ---- ------- ----- -- ----<br>-------- ------- -- ---------- --- a --- ----- ----- ----<br>---- --- --- ----- --- ---- ---- ------- ----- ---- -------<br>--- --- -- ----- -- --- ---- -- --- ---- -- ------ ------<br>--- ----- -- ----,127773.7000002861,127770.7000002861,127248.178,127250,127264.845,127781.522,,23,a
screen,html.Screen,2_1_0_1_24,2022-05-03T18:56:20.276Z,,,,,,,,,,,,,,,,,53,,,,,,,,,,,,,,508.0780003814725,,response,,,,99,,,,,,,Space,keypress(Space),,,,,,,,---- -- ----- -- ------ - ------- --- ----------<br>------------- ------ ------ ---- ---- ------- ----- -- ----<br>-------- ------- -- ---------- --- - new ----- ----- ----<br>---- --- --- ----- --- ---- ---- ------- ----- ---- -------<br>--- --- -- ----- -- --- ---- -- --- ---- -- ------ ------<br>--- ----- -- ----,128292.80000019073,128289.60000038147,127764.855,127773.80000019073,127781.522,128298.199,,24,new
screen,html.Screen,2_1_0_1_25,2022-05-03T18:56:20.781Z,,,,,,,,,,,,,,,,,53,,,,,,,,,,,,,,496.4010003814765,,response,,,,99,,,,,,,Space,keypress(Space),,,,,,,,---- -- ----- -- ------ - ------- --- ----------<br>------------- ------ ------ ---- ---- ------- ----- -- ----<br>-------- ------- -- ---------- --- - --- study ----- ----<br>---- --- --- ----- --- ---- ---- ------- ----- ---- -------<br>--- --- -- ----- -- --- ---- -- --- ---- -- ------ ------<br>--- ----- -- ----,128797.60000038147,128794.60000038147,128281.532,128293,128298.199,128814.876,,25,study
screen,html.Screen,2_1_0_1_26,2022-05-03T18:56:21.577Z,,,,,,,,,,,,,,,,,53,,,,,,,,,,,,,,775.6239999999962,,response,,,,99,,,,,,,Space,keypress(Space),,,,,,,,---- -- ----- -- ------ - ------- --- ----------<br>------------- ------ ------ ---- ---- ------- ----- -- ----<br>-------- ------- -- ---------- --- - --- ----- finds ----<br>---- --- --- ----- --- ---- ---- ------- ----- ---- -------<br>--- --- -- ----- -- --- ---- -- --- ---- -- ------ ------<br>--- ----- -- ----,129593.7000002861,129590.5,128798.209,128797.80000019073,128814.876,129598.225,,26,finds
screen,html.Screen,2_1_0_1_27,2022-05-03T18:56:21.995Z,,,,,,,,,,,,,,,,,53,,,,,,,,,,,,,,410.2749999999942,,response,,,,99,,,,,,,Space,keypress(Space),,,,,,,,---- -- ----- -- ------ - ------- --- ----------<br>------------- ------ ------ ---- ---- ------- ----- -- ----<br>-------- ------- -- ---------- --- - --- ----- ----- that<br>---- --- --- ----- --- ---- ---- ------- ----- ---- -------<br>--- --- -- ----- -- --- ---- -- --- ---- -- ------ ------<br>--- ----- -- ----,130011.5,130008.5,129581.558,129593.80000019073,129598.225,130014.9,,27,that
screen,html.Screen,2_1_0_1_28,2022-05-03T18:56:22.431Z,,,,,,,,,,,,,,,,,53,,,,,,,,,,,,,,429.50000009537325,,response,,,,99,,,,,,,Space,keypress(Space),,,,,,,,---- -- ----- -- ------ - ------- --- ----------<br>------------- ------ ------ ---- ---- ------- ----- -- ----<br>-------- ------- -- ---------- --- - --- ----- ----- ----<br>it's --- --- ----- --- ---- ---- ------- ----- ---- -------<br>--- --- -- ----- -- --- ---- -- --- ---- -- ------ ------<br>--- ----- -- ----,130447.40000009537,130444.40000009537,129998.233,130011.7000002861,130014.9,130464.909,,28,it's
screen,html.Screen,2_1_0_1_29,2022-05-03T18:56:22.865Z,,,,,,,,,,,,,,,,,53,,,,,,,,,,,,,,413.59100000000035,,response,,,,99,,,,,,,Space,keypress(Space),,,,,,,,---- -- ----- -- ------ - ------- --- ----------<br>------------- ------ ------ ---- ---- ------- ----- -- ----<br>-------- ------- -- ---------- --- - --- ----- ----- ----<br>---- not --- ----- --- ---- ---- ------- ----- ---- -------<br>--- --- -- ----- -- --- ---- -- --- ---- -- ------ ------<br>--- ----- -- ----,130881.60000038147,130878.5,130448.242,130447.7000002861,130464.909,130898.251,,29,not
screen,html.Screen,2_1_0_1_30,2022-05-03T18:56:23.227Z,,,,,,,,,,,,,,,,,53,,,,,,,,,,,,,,342.1490000953636,,response,,,,99,,,,,,,Space,keypress(Space),,,,,,,,---- -- ----- -- ------ - ------- --- ----------<br>------------- ------ ------ ---- ---- ------- ----- -- ----<br>-------- ------- -- ---------- --- - --- ----- ----- ----<br>---- --- how ----- --- ---- ---- ------- ----- ---- -------<br>--- --- -- ----- -- --- ---- -- --- ---- -- ------ ------<br>--- ----- -- ----,131243.5,131240.40000009537,130881.584,130881.80000019073,130898.251,131248.258,,30,how
screen,html.Screen,2_1_0_1_31,2022-05-03T18:56:23.602Z,,,,,,,,,,,,,,,,,53,,,,,,,,,,,,,,367.04200019073323,,response,,,,99,,,,,,,Space,keypress(Space),,,,,,,,---- -- ----- -- ------ - ------- --- ----------<br>------------- ------ ------ ---- ---- ------- ----- -- ----<br>-------- ------- -- ---------- --- - --- ----- ----- ----<br>---- --- --- close --- ---- ---- ------- ----- ---- -------<br>--- --- -- ----- -- --- ---- -- --- ---- -- ------ ------<br>--- ----- -- ----,131618.60000038147,131615.30000019073,131231.591,131243.80000019073,131248.258,131631.599,,31,close
screen,html.Screen,2_1_0_1_32,2022-05-03T18:56:23.961Z,,,,,,,,,,,,,,,,,53,,,,,,,,,,,,,,342.80100009538,,response,,,,99,,,,,,,Space,keypress(Space),,,,,,,,---- -- ----- -- ------ - ------- --- ----------<br>------------- ------ ------ ---- ---- ------- ----- -- ----<br>-------- ------- -- ---------- --- - --- ----- ----- ----<br>---- --- --- ----- you ---- ---- ------- ----- ---- -------<br>--- --- -- ----- -- --- ---- -- --- ---- -- ------ ------<br>--- ----- -- ----,131977.5,131974.40000009537,131614.932,131618.80000019073,131631.599,131981.606,,32,you
screen,html.Screen,2_1_0_1_33,2022-05-03T18:56:24.352Z,,,,,,,,,,,,,,,,,53,,,,,,,,,,,,,,383.79400009536766,,response,,,,99,,,,,,,Space,keypress(Space),,,,,,,,---- -- ----- -- ------ - ------- --- ----------<br>------------- ------ ------ ---- ---- ------- ----- -- ----<br>-------- ------- -- ---------- --- - --- ----- ----- ----<br>---- --- --- ----- --- feel ---- ------- ----- ---- -------<br>--- --- -- ----- -- --- ---- -- --- ---- -- ------ ------<br>--- ----- -- ----,132368.5,132365.40000009537,131964.939,131977.60000038147,131981.606,132381.614,,33,feel
screen,html.Screen,2_1_0_1_34,2022-05-03T18:56:24.720Z,,,,,,,,,,,,,,,,,53,,,,,,,,,,,,,,351.5860002861009,,response,,,,99,,,,,,,Space,keypress(Space),,,,,,,,---- -- ----- -- ------ - ------- --- ----------<br>------------- ------ ------ ---- ---- ------- ----- -- ----<br>-------- ------- -- ---------- --- - --- ----- ----- ----<br>---- --- --- ----- --- ---- that ------- ----- ---- -------<br>--- --- -- ----- -- --- ---- -- --- ---- -- ------ ------<br>--- ----- -- ----,132736.40000009537,132733.2000002861,132364.947,132368.7000002861,132381.614,132748.288,,34,that
screen,html.Screen,2_1_0_1_35,2022-05-03T18:56:25.074Z,,,,,,,,,,,,,,,,,53,,,,,,,,,,,,,,338.91200028610183,,response,,,,99,,,,,,,Space,keypress(Space),,,,,,,,---- -- ----- -- ------ - ------- --- ----------<br>------------- ------ ------ ---- ---- ------- ----- -- ----<br>-------- ------- -- ---------- --- - --- ----- ----- ----<br>---- --- --- ----- --- ---- ---- matters ----- ---- -------<br>--- --- -- ----- -- --- ---- -- --- ---- -- ------ ------<br>--- ----- -- ----,133090.40000009537,133087.2000002861,132731.621,132736.60000038147,132748.288,133098.295,,35,matters
screen,html.Screen,2_1_0_1_36,2022-05-03T18:56:25.449Z,,,,,,,,,,,,,,,,,53,,,,,,,,,,,,,,364.1050000953546,,response,,,,99,,,,,,,Space,keypress(Space),,,,,,,,"---- -- ----- -- ------ - ------- --- ----------<br>------------- ------ ------ ---- ---- ------- ----- -- ----<br>-------- ------- -- ---------- --- - --- ----- ----- ----<br>---- --- --- ----- --- ---- ---- ------- most, ---- -------<br>--- --- -- ----- -- --- ---- -- --- ---- -- ------ ------<br>--- ----- -- ----",133465.5,133462.40000009537,133081.628,133090.5,133098.295,133481.636,,36,"most,"
screen,html.Screen,2_1_0_1_37,2022-05-03T18:56:25.821Z,,,,,,,,,,,,,,,,,53,,,,,,,,,,,,,,352.66400019073626,,response,,,,99,,,,,,,Space,keypress(Space),,,,,,,,---- -- ----- -- ------ - ------- --- ----------<br>------------- ------ ------ ---- ---- ------- ----- -- ----<br>-------- ------- -- ---------- --- - --- ----- ----- ----<br>---- --- --- ----- --- ---- ---- ------- ----- it's -------<br>--- --- -- ----- -- --- ---- -- --- ---- -- ------ ------<br>--- ----- -- ----,133837.30000019073,133834.30000019073,133464.969,133465.60000038147,133481.636,133848.31,,37,it's
screen,html.Screen,2_1_0_1_38,2022-05-03T18:56:26.223Z,,,,,,,,,,,,,,,,,53,,,,,,,,,,,,,,387.8900002861046,,response,,,,99,,,,,,,Space,keypress(Space),,,,,,,,---- -- ----- -- ------ - ------- --- ----------<br>------------- ------ ------ ---- ---- ------- ----- -- ----<br>-------- ------- -- ---------- --- - --- ----- ----- ----<br>---- --- --- ----- --- ---- ---- ------- ----- ---- whether<br>--- --- -- ----- -- --- ---- -- --- ---- -- ------ ------<br>--- ----- -- ----,134239.40000009537,134236.2000002861,133831.643,133837.40000009537,133848.31,134248.318,,38,whether
screen,html.Screen,2_1_0_1_39,2022-05-03T18:56:26.589Z,,,,,,,,,,,,,,,,,53,,,,,,,,,,,,,,353.882000286103,,response,,,,99,,,,,,,Space,keypress(Space),,,,,,,,---- -- ----- -- ------ - ------- --- ----------<br>------------- ------ ------ ---- ---- ------- ----- -- ----<br>-------- ------- -- ---------- --- - --- ----- ----- ----<br>---- --- --- ----- --- ---- ---- ------- ----- ---- -------<br>you --- -- ----- -- --- ---- -- --- ---- -- ------ ------<br>--- ----- -- ----,134605.40000009537,134602.2000002861,134231.651,134239.60000038147,134248.318,134615.467,,39,you
screen,html.Screen,2_1_0_1_40,2022-05-03T18:56:26.968Z,,,,,,,,,,,,,,,,,53,,,,,,,,,,,,,,365.8330001907307,,response,,,,99,,,,,,,Space,keypress(Space),,,,,,,,---- -- ----- -- ------ - ------- --- ----------<br>------------- ------ ------ ---- ---- ------- ----- -- ----<br>-------- ------- -- ---------- --- - --- ----- ----- ----<br>---- --- --- ----- --- ---- ---- ------- ----- ---- -------<br>--- are -- ----- -- --- ---- -- --- ---- -- ------ ------<br>--- ----- -- ----,134984.40000009537,134981.30000019073,134598.8,134605.5,134615.467,134998.808,,40,are
screen,html.Screen,2_1_0_1_41,2022-05-03T18:56:27.350Z,,,,,,,,,,,,,,,,,53,,,,,,,,,,,,,,364.3920002861123,,response,,,,99,,,,,,,Space,keypress(Space),,,,,,,,---- -- ----- -- ------ - ------- --- ----------<br>------------- ------ ------ ---- ---- ------- ----- -- ----<br>-------- ------- -- ---------- --- - --- ----- ----- ----<br>---- --- --- ----- --- ---- ---- ------- ----- ---- -------<br>--- --- as ----- -- --- ---- -- --- ---- -- ------ ------<br>--- ----- -- ----,135366.5,135363.2000002861,134982.141,134984.60000038147,134998.808,135382.149,,41,as
screen,html.Screen,2_1_0_1_42,2022-05-03T18:56:27.740Z,,,,,,,,,,,,,,,,,53,,,,,,,,,,,,,,371.0510002860974,,response,,,,99,,,,,,,Space,keypress(Space),,,,,,,,---- -- ----- -- ------ - ------- --- ----------<br>------------- ------ ------ ---- ---- ------- ----- -- ----<br>-------- ------- -- ---------- --- - --- ----- ----- ----<br>---- --- --- ----- --- ---- ---- ------- ----- ---- -------<br>--- --- -- close -- --- ---- -- --- ---- -- ------ ------<br>--- ----- -- ----,135756.2000002861,135753.2000002861,135365.482,135366.7000002861,135382.149,135765.49,,42,close
screen,html.Screen,2_1_0_1_43,2022-05-03T18:56:28.069Z,,,,,,,,,,,,,,,,,53,,,,,,,,,,,,,,316.7100002861116,,response,,,,99,,,,,,,Space,keypress(Space),,,,,,,,---- -- ----- -- ------ - ------- --- ----------<br>------------- ------ ------ ---- ---- ------- ----- -- ----<br>-------- ------- -- ---------- --- - --- ----- ----- ----<br>---- --- --- ----- --- ---- ---- ------- ----- ---- -------<br>--- --- -- ----- as --- ---- -- --- ---- -- ------ ------<br>--- ----- -- ----,136085.30000019073,136082.2000002861,135748.823,135756.40000009537,135765.49,136098.83,,43,as
screen,html.Screen,2_1_0_1_44,2022-05-03T18:56:28.472Z,,,,,,,,,,,,,,,,,53,,,,,,,,,,,,,,386.27000038148253,,response,,,,99,,,,,,,Space,keypress(Space),,,,,,,,---- -- ----- -- ------ - ------- --- ----------<br>------------- ------ ------ ---- ---- ------- ----- -- ----<br>-------- ------- -- ---------- --- - --- ----- ----- ----<br>---- --- --- ----- --- ---- ---- ------- ----- ---- -------<br>--- --- -- ----- -- you ---- -- --- ---- -- ------ ------<br>--- ----- -- ----,136488.10000038147,136485.10000038147,136082.163,136085.5,136098.83,136498.838,,44,you
screen,html.Screen,2_1_0_1_45,2022-05-03T18:56:28.802Z,,,,,,,,,,,,,,,,,53,,,,,,,,,,,,,,316.2620003814809,,response,,,,99,,,,,,,Space,keypress(Space),,,,,,,,---- -- ----- -- ------ - ------- --- ----------<br>------------- ------ ------ ---- ---- ------- ----- -- ----<br>-------- ------- -- ---------- --- - --- ----- ----- ----<br>---- --- --- ----- --- ---- ---- ------- ----- ---- -------<br>--- --- -- ----- -- --- want -- --- ---- -- ------ ------<br>--- ----- -- ----,136818.30000019073,136815.10000038147,136482.171,136488.40000009537,136498.838,136832.178,,45,want
screen,html.Screen,2_1_0_1_46,2022-05-03T18:56:29.213Z,,,,,,,,,,,,,,,,,53,,,,,,,,,,,,,,393.9220003814553,,response,,,,99,,,,,,,Space,keypress(Space),,,,,,,,---- -- ----- -- ------ - ------- --- ----------<br>------------- ------ ------ ---- ---- ------- ----- -- ----<br>-------- ------- -- ---------- --- - --- ----- ----- ----<br>---- --- --- ----- --- ---- ---- ------- ----- ---- -------<br>--- --- -- ----- -- --- ---- to --- ---- -- ------ ------<br>--- ----- -- ----,137229,137226.10000038147,136815.511,136818.40000009537,136832.178,137232.186,,46,to
screen,html.Screen,2_1_0_1_47,2022-05-03T18:56:29.641Z,,,,,,,,,,,,,,,,,53,,,,,,,,,,,,,,421.81400000001304,,response,,,,99,,,,,,,Space,keypress(Space),,,,,,,,"---- -- ----- -- ------ - ------- --- ----------<br>------------- ------ ------ ---- ---- ------- ----- -- ----<br>-------- ------- -- ---------- --- - --- ----- ----- ----<br>---- --- --- ----- --- ---- ---- ------- ----- ---- -------<br>--- --- -- ----- -- --- ---- -- be, ---- -- ------ ------<br>--- ----- -- ----",137657.10000038147,137654,137215.519,137229.2000002861,137232.186,137665.528,,47,"be,"
screen,html.Screen,2_1_0_1_48,2022-05-03T18:56:30.021Z,,,,,,,,,,,,,,,,,53,,,,,,,,,,,,,,368.47200000000885,,response,,,,99,,,,,,,Space,keypress(Space),,,,,,,,---- -- ----- -- ------ - ------- --- ----------<br>------------- ------ ------ ---- ---- ------- ----- -- ----<br>-------- ------- -- ---------- --- - --- ----- ----- ----<br>---- --- --- ----- --- ---- ---- ------- ----- ---- -------<br>--- --- -- ----- -- --- ---- -- --- even -- ------ ------<br>--- ----- -- ----,138037.10000038147,138034,137648.861,137657.10000038147,137665.528,138048.869,,48,even
screen,html.Screen,2_1_0_1_49,2022-05-03T18:56:30.431Z,,,,,,,,,,,,,,,,,53,,,,,,,,,,,,,,395.13099999999395,,response,,,,99,,,,,,,Space,keypress(Space),,,,,,,,---- -- ----- -- ------ - ------- --- ----------<br>------------- ------ ------ ---- ---- ------- ----- -- ----<br>-------- ------- -- ---------- --- - --- ----- ----- ----<br>---- --- --- ----- --- ---- ---- ------- ----- ---- -------<br>--- --- -- ----- -- --- ---- -- --- ---- if ------ ------<br>--- ----- -- ----,138447.2000002861,138444,138032.202,138037.2000002861,138048.869,138448.877,,49,if
screen,html.Screen,2_1_0_1_50,2022-05-03T18:56:30.794Z,,,,,,,,,,,,,,,,,53,,,,,,,,,,,,,,358.1229999999923,,response,,,,99,,,,,,,Space,keypress(Space),,,,,,,,---- -- ----- -- ------ - ------- --- ----------<br>------------- ------ ------ ---- ---- ------- ----- -- ----<br>-------- ------- -- ---------- --- - --- ----- ----- ----<br>---- --- --- ----- --- ---- ---- ------- ----- ---- -------<br>--- --- -- ----- -- --- ---- -- --- ---- -- that's ------<br>--- ----- -- ----,138810.10000038147,138807,138432.21,138447.40000009537,138448.877,138815.551,,50,that's
screen,html.Screen,2_1_0_1_51,2022-05-03T18:56:31.177Z,,,,,,,,,,,,,,,,,53,,,,,,,,,,,,,,374.44899999999325,,response,,,,99,,,,,,,Space,keypress(Space),,,,,,,,---- -- ----- -- ------ - ------- --- ----------<br>------------- ------ ------ ---- ---- ------- ----- -- ----<br>-------- ------- -- ---------- --- - --- ----- ----- ----<br>---- --- --- ----- --- ---- ---- ------- ----- ---- -------<br>--- --- -- ----- -- --- ---- -- --- ---- -- ------ really<br>--- ----- -- ----,139192.90000009537,139190,138798.884,138810.30000019073,138815.551,139198.892,,51,really
screen,html.Screen,2_1_0_1_52,2022-05-03T18:56:31.578Z,,,,,,,,,,,,,,,,,53,,,,,,,,,,,,,,392.0080000953749,,response,,,,99,,,,,,,Space,keypress(Space),,,,,,,,---- -- ----- -- ------ - ------- --- ----------<br>------------- ------ ------ ---- ---- ------- ----- -- ----<br>-------- ------- -- ---------- --- - --- ----- ----- ----<br>---- --- --- ----- --- ---- ---- ------- ----- ---- -------<br>--- --- -- ----- -- --- ---- -- --- ---- -- ------ ------<br>not ----- -- ----,139594,139590.90000009537,139182.225,139193.10000038147,139198.892,139598.9,,52,not
screen,html.Screen,2_1_0_1_53,2022-05-03T18:56:31.979Z,,,,,,,,,,,,,,,,,53,,,,,,,,,,,,,,393.1000000000058,,response,,,,99,,,,,,,Space,keypress(Space),,,,,,,,---- -- ----- -- ------ - ------- --- ----------<br>------------- ------ ------ ---- ---- ------- ----- -- ----<br>-------- ------- -- ---------- --- - --- ----- ----- ----<br>---- --- --- ----- --- ---- ---- ------- ----- ---- -------<br>--- --- -- ----- -- --- ---- -- --- ---- -- ------ ------<br>--- close -- ----,139995,139992,139582.233,139594.10000038147,139598.9,139998.908,,53,close
screen,html.Screen,2_1_0_1_54,2022-05-03T18:56:32.376Z,,,,,,,,,,,,,,,,,53,,,,,,,,,,,,,,390.89200019073905,,response,,,,99,,,,,,,Space,keypress(Space),,,,,,,,---- -- ----- -- ------ - ------- --- ----------<br>------------- ------ ------ ---- ---- ------- ----- -- ----<br>-------- ------- -- ---------- --- - --- ----- ----- ----<br>---- --- --- ----- --- ---- ---- ------- ----- ---- -------<br>--- --- -- ----- -- --- ---- -- --- ---- -- ------ ------<br>--- ----- at ----,140392.80000019073,140389.80000019073,139982.241,139995.2000002861,139998.908,140398.916,,54,at
screen,html.Screen,2_1_0_1_55,2022-05-03T18:56:33.102Z,,,,,,,,,,,,,,,,,53,,,,,,,,,,,,,,716.8840001907374,,response,,,,99,,,,,,,Space,keypress(Space),,,,,,,,---- -- ----- -- ------ - ------- --- ----------<br>------------- ------ ------ ---- ---- ------- ----- -- ----<br>-------- ------- -- ---------- --- - --- ----- ----- ----<br>---- --- --- ----- --- ---- ---- ------- ----- ---- -------<br>--- --- -- ----- -- --- ---- -- --- ---- -- ------ ------<br>--- ----- -- all.,141118.7000002861,141115.80000019073,140382.249,140393,140398.916,141132.264,,55,all.
Item 99,flow.Loop,2_1_0_1,2022-05-03T18:56:33.103Z,,,,,,,,,,,,,,,,,,,,,,,,,,,,,,,27002.24100019074,,completion,,,,,A,,,,,,,,,,,silence,,,,,141119.10000038147,141115.80000019073,114096.892,114098.10000038147,114113.559,141132.264,,,
Question 1,html.Screen,2_1_0_2,2022-05-03T18:56:36.563Z,,,,,,,,,,,,,,,,,,,,,,,,,,,,true,FALSE,,3444.5360001907393,,response,,,,99,A,,,,,,FALSE,click #choice-2,,,,silence,,,,,144579.10000038147,144576.80000019073,141115.597,141119.30000019073,141132.264,144582.858,,,
Question 2,html.Screen,2_1_0_3,2022-05-03T18:56:41.572Z,,,,,,,,,,,,,,,,,,,,,,,,,,,,true,TRUE,,5002.742000381462,,response,,,,99,A,,,,,,TRUE,click #choice-1,,,,silence,,,,,149587.90000009537,149585.60000038147,144566.191,144579.30000019073,144582.858,149616.292,,,
Item 99,flow.Sequence,2_1_0,2022-05-03T18:56:41.572Z,,,,,,,,,,,,,,,,,,,,,,,,,,,,,,,45473.171000381466,,completion,,,,,,,,,,,,,,,,,,,,,149588,149585.60000038147,104095.762,104108.80000019073,104112.429,149616.292,,,
Holding screen,html.Screen,2_1_1_0,2022-05-03T18:56:51.589Z,,,,,,,,,,,,,,,,,,,,,,,,,,,,,,,10000.617000000027,,timeout,,,,,,,,,,,,,,,,,,,,,159605,159600.242,149599.625,149588.30000019073,149616.292,159616.909,,,
screen,html.Screen,2_1_1_1_0,2022-05-03T18:57:05.514Z,,,,,,,,,,,,,,,,,54,,,,,,,,,,,,,,13908.090999999986,,response,,,,100,,,,,,,Space,keypress(Space),,,,,,,,At --- ---- --- ------ ----- ------- ---- -- --- ------- --<br>------- ---------- ------ -- ----- -- ----- -- ---- ------<br>--- ----- --- --- ------ -------- ----- --- ------ ----- --<br>----- ----- ---------- --- --- ------ ------ ---- -- ------<br>------- --- ------ ----- --- ---- ------- -- ---- --- --<br>------- ------,173529.2000002861,173525,159600.242,159605.2000002861,159616.909,173533.854,,0,At
screen,html.Screen,2_1_1_1_1,2022-05-03T18:57:05.904Z,,,,,,,,,,,,,,,,,54,,,,,,,,,,,,,,381.9460001907428,,response,,,,100,,,,,,,Space,keypress(Space),,,,,,,,-- the ---- --- ------ ----- ------- ---- -- --- ------- --<br>------- ---------- ------ -- ----- -- ----- -- ---- ------<br>--- ----- --- --- ------ -------- ----- --- ------ ----- --<br>----- ----- ---------- --- --- ------ ------ ---- -- ------<br>------- --- ------ ----- --- ---- ------- -- ---- --- --<br>------- ------,173919,173915.80000019073,173517.187,173529.40000009537,173533.854,173933.862,,1,the
screen,html.Screen,2_1_1_1_2,2022-05-03T18:57:06.299Z,,,,,,,,,,,,,,,,,54,,,,,,,,,,,,,,376.93800019074115,,response,,,,100,,,,,,,Space,keypress(Space),,,,,,,,-- --- time --- ------ ----- ------- ---- -- --- ------- --<br>------- ---------- ------ -- ----- -- ----- -- ---- ------<br>--- ----- --- --- ------ -------- ----- --- ------ ----- --<br>----- ----- ---------- --- --- ------ ------ ---- -- ------<br>------- --- ------ ----- --- ---- ------- -- ---- --- --<br>------- ------,174313.90000009537,174310.80000019073,173917.195,173919.2000002861,173933.862,174318.211,,2,time
screen,html.Screen,2_1_1_1_3,2022-05-03T18:57:06.668Z,,,,,,,,,,,,,,,,,54,,,,,,,,,,,,,,362.5890001907246,,response,,,,100,,,,,,,Space,keypress(Space),,,,,,,,-- --- ---- the ------ ----- ------- ---- -- --- ------- --<br>------- ---------- ------ -- ----- -- ----- -- ---- ------<br>--- ----- --- --- ------ -------- ----- --- ------ ----- --<br>----- ----- ---------- --- --- ------ ------ ---- -- ------<br>------- --- ------ ----- --- ---- ------- -- ---- --- --<br>------- ------,174683.80000019073,174680.80000019073,174301.544,174314.10000038147,174318.211,174684.885,,3,the
screen,html.Screen,2_1_1_1_4,2022-05-03T18:57:07.080Z,,,,,,,,,,,,,,,,,54,,,,,,,,,,,,,,406.815000286093,,response,,,,100,,,,,,,Space,keypress(Space),,,,,,,,-- --- ---- --- French ----- ------- ---- -- --- ------- --<br>------- ---------- ------ -- ----- -- ----- -- ---- ------<br>--- ----- --- --- ------ -------- ----- --- ------ ----- --<br>----- ----- ---------- --- --- ------ ------ ---- -- ------<br>------- --- ------ ----- --- ---- ------- -- ---- --- --<br>------- ------,175094.80000019073,175091.7000002861,174668.218,174683.90000009537,174684.885,175101.56,,4,French
screen,html.Screen,2_1_1_1_5,2022-05-03T18:57:07.458Z,,,,,,,,,,,,,,,,,54,,,,,,,,,,,,,,369.04000038147205,,response,,,,100,,,,,,,Space,keypress(Space),,,,,,,,-- --- ---- --- ------ crown ------- ---- -- --- ------- --<br>------- ---------- ------ -- ----- -- ----- -- ---- ------<br>--- ----- --- --- ------ -------- ----- --- ------ ----- --<br>----- ----- ---------- --- --- ------ ------ ---- -- ------<br>------- --- ------ ----- --- ---- ------- -- ---- --- --<br>------- ------,175473.60000038147,175470.60000038147,175084.893,175095,175101.56,175484.901,,5,crown
screen,html.Screen,2_1_1_1_6,2022-05-03T18:57:07.856Z,,,,,,,,,,,,,,,,,54,,,,,,,,,,,,,,382.7990002860897,,response,,,,100,,,,,,,Space,keypress(Space),,,,,,,,-- --- ---- --- ------ ----- secured ---- -- --- ------- --<br>------- ---------- ------ -- ----- -- ----- -- ---- ------<br>--- ----- --- --- ------ -------- ----- --- ------ ----- --<br>----- ----- ---------- --- --- ------ ------ ---- -- ------<br>------- --- ------ ----- --- ---- ------- -- ---- --- --<br>------- ------,175870.90000009537,175867.7000002861,175468.234,175473.80000019073,175484.901,175884.909,,6,secured
screen,html.Screen,2_1_1_1_7,2022-05-03T18:57:08.290Z,,,,,,,,,,,,,,,,,54,,,,,,,,,,,,,,416.7910002860881,,response,,,,100,,,,,,,Space,keypress(Space),,,,,,,,-- --- ---- --- ------ ----- ------- much -- --- ------- --<br>------- ---------- ------ -- ----- -- ----- -- ---- ------<br>--- ----- --- --- ------ -------- ----- --- ------ ----- --<br>----- ----- ---------- --- --- ------ ------ ---- -- ------<br>------- --- ------ ----- --- ---- ------- -- ---- --- --<br>------- ------,176304.80000019073,176301.7000002861,175868.242,175871,175884.909,176318.251,,7,much
screen,html.Screen,2_1_1_1_8,2022-05-03T18:57:08.667Z,,,,,,,,,,,,,,,,,54,,,,,,,,,,,,,,361.34900038148044,,response,,,,100,,,,,,,Space,keypress(Space),,,,,,,,-- --- ---- --- ------ ----- ------- ---- of --- ------- --<br>------- ---------- ------ -- ----- -- ----- -- ---- ------<br>--- ----- --- --- ------ -------- ----- --- ------ ----- --<br>----- ----- ---------- --- --- ------ ------ ---- -- ------<br>------- --- ------ ----- --- ---- ------- -- ---- --- --<br>------- ------,176682.60000038147,176679.60000038147,176301.584,176304.90000009537,176318.251,176684.925,,8,of
screen,html.Screen,2_1_1_1_9,2022-05-03T18:57:09.104Z,,,,,,,,,,,,,,,,,54,,,,,,,,,,,,,,430.67500038148137,,response,,,,100,,,,,,,Space,keypress(Space),,,,,,,,-- --- ---- --- ------ ----- ------- ---- -- its ------- --<br>------- ---------- ------ -- ----- -- ----- -- ---- ------<br>--- ----- --- --- ------ -------- ----- --- ------ ----- --<br>----- ----- ---------- --- --- ------ ------ ---- -- ------<br>------- --- ------ ----- --- ---- ------- -- ---- --- --<br>------- ------,177118.7000002861,177115.60000038147,176668.258,176682.7000002861,176684.925,177134.934,,9,its
screen,html.Screen,2_1_1_1_10,2022-05-03T18:57:09.470Z,,,,,,,,,,,,,,,,,54,,,,,,,,,,,,,,347.66600038146134,,response,,,,100,,,,,,,Space,keypress(Space),,,,,,,,-- --- ---- --- ------ ----- ------- ---- -- --- revenue --<br>------- ---------- ------ -- ----- -- ----- -- ---- ------<br>--- ----- --- --- ------ -------- ----- --- ------ ----- --<br>----- ----- ---------- --- --- ------ ------ ---- -- ------<br>------- --- ------ ----- --- ---- ------- -- ---- --- --<br>------- ------,177485.7000002861,177482.60000038147,177118.267,177118.90000009537,177134.934,177501.608,,10,revenue
screen,html.Screen,2_1_1_1_11,2022-05-03T18:57:09.842Z,,,,,,,,,,,,,,,,,54,,,,,,,,,,,,,,352.9920003814623,,response,,,,100,,,,,,,Space,keypress(Space),,,,,,,,-- --- ---- --- ------ ----- ------- ---- -- --- ------- by<br>------- ---------- ------ -- ----- -- ----- -- ---- ------<br>--- ----- --- --- ------ -------- ----- --- ------ ----- --<br>----- ----- ---------- --- --- ------ ------ ---- -- ------<br>------- --- ------ ----- --- ---- ------- -- ---- --- --<br>------- ------,177857.60000038147,177854.60000038147,177484.941,177485.80000019073,177501.608,177868.282,,11,by
screen,html.Screen,2_1_1_1_12,2022-05-03T18:57:10.244Z,,,,,,,,,,,,,,,,,54,,,,,,,,,,,,,,388.2179999999935,,response,,,,100,,,,,,,Space,keypress(Space),,,,,,,,-- --- ---- --- ------ ----- ------- ---- -- --- ------- --<br>issuing ---------- ------ -- ----- -- ----- -- ---- ------<br>--- ----- --- --- ------ -------- ----- --- ------ ----- --<br>----- ----- ---------- --- --- ------ ------ ---- -- ------<br>------- --- ------ ----- --- ---- ------- -- ---- --- --<br>------- ------,178259.40000009537,178256.5,177851.615,177857.80000019073,177868.282,178268.29,,12,issuing
screen,html.Screen,2_1_1_1_13,2022-05-03T18:57:10.698Z,,,,,,,,,,,,,,,,,54,,,,,,,,,,,,,,442.3100003814616,,response,,,,100,,,,,,,Space,keypress(Space),,,,,,,,-- --- ---- --- ------ ----- ------- ---- -- --- ------- --<br>------- government ------ -- ----- -- ----- -- ---- ------<br>--- ----- --- --- ------ -------- ----- --- ------ ----- --<br>----- ----- ---------- --- --- ------ ------ ---- -- ------<br>------- --- ------ ----- --- ---- ------- -- ---- --- --<br>------- ------,178713.60000038147,178710.60000038147,178251.623,178259.7000002861,178268.29,178718.299,,13,government
screen,html.Screen,2_1_1_1_14,2022-05-03T18:57:11.162Z,,,,,,,,,,,,,,,,,54,,,,,,,,,,,,,,456.20100000000093,,response,,,,100,,,,,,,Space,keypress(Space),,,,,,,,-- --- ---- --- ------ ----- ------- ---- -- --- ------- --<br>------- ---------- bonds. -- ----- -- ----- -- ---- ------<br>--- ----- --- --- ------ -------- ----- --- ------ ----- --<br>----- ----- ---------- --- --- ------ ------ ---- -- ------<br>------- --- ------ ----- --- ---- ------- -- ---- --- --<br>------- ------,179177.5,179174.5,178701.632,178713.80000019073,178718.299,179184.975,,14,bonds.
screen,html.Screen,2_1_1_1_15,2022-05-03T18:57:11.632Z,,,,,,,,,,,,,,,,,54,,,,,,,,,,,,,,459.5249999999942,,response,,,,100,,,,,,,Space,keypress(Space),,,,,,,,-- --- ---- --- ------ ----- ------- ---- -- --- ------- --<br>------- ---------- ------ In ----- -- ----- -- ---- ------<br>--- ----- --- --- ------ -------- ----- --- ------ ----- --<br>----- ----- ---------- --- --- ------ ------ ---- -- ------<br>------- --- ------ ----- --- ---- ------- -- ---- --- --<br>------- ------,179647.60000038147,179644.5,179168.308,179177.7000002861,179184.975,179651.651,,15,In
screen,html.Screen,2_1_1_1_16,2022-05-03T18:57:12.055Z,,,,,,,,,,,,,,,,,54,,,,,,,,,,,,,,415.74900009535486,,response,,,,100,,,,,,,Space,keypress(Space),,,,,,,,"-- --- ---- --- ------ ----- ------- ---- -- --- ------- --<br>------- ---------- ------ -- 1727, -- ----- -- ---- ------<br>--- ----- --- --- ------ -------- ----- --- ------ ----- --<br>----- ----- ---------- --- --- ------ ------ ---- -- ------<br>------- --- ------ ----- --- ---- ------- -- ---- --- --<br>------- ------",180070.60000038147,180067.40000009537,179634.984,179647.80000019073,179651.651,180084.993,,16,"1727,"
screen,html.Screen,2_1_1_1_17,2022-05-03T18:57:12.506Z,,,,,,,,,,,,,,,,,54,,,,,,,,,,,,,,433.4070000953798,,response,,,,100,,,,,,,Space,keypress(Space),,,,,,,,-- --- ---- --- ------ ----- ------- ---- -- --- ------- --<br>------- ---------- ------ -- ----- in ----- -- ---- ------<br>--- ----- --- --- ------ -------- ----- --- ------ ----- --<br>----- ----- ---------- --- --- ------ ------ ---- -- ------<br>------- --- ------ ----- --- ---- ------- -- ---- --- --<br>------- ------,180521.5,180518.40000009537,180068.326,180070.7000002861,180084.993,180535.002,,17,in
screen,html.Screen,2_1_1_1_18,2022-05-03T18:57:12.896Z,,,,,,,,,,,,,,,,,54,,,,,,,,,,,,,,373.4979999999923,,response,,,,100,,,,,,,Space,keypress(Space),,,,,,,,-- --- ---- --- ------ ----- ------- ---- -- --- ------- --<br>------- ---------- ------ -- ----- -- order -- ---- ------<br>--- ----- --- --- ------ -------- ----- --- ------ ----- --<br>----- ----- ---------- --- --- ------ ------ ---- -- ------<br>------- --- ------ ----- --- ---- ------- -- ---- --- --<br>------- ------,180911.40000009537,180908.5,180518.335,180521.7000002861,180535.002,180918.343,,18,order
screen,html.Screen,2_1_1_1_19,2022-05-03T18:57:13.364Z,,,,,,,,,,,,,,,,,54,,,,,,,,,,,,,,458.05700009537395,,response,,,,100,,,,,,,Space,keypress(Space),,,,,,,,-- --- ---- --- ------ ----- ------- ---- -- --- ------- --<br>------- ---------- ------ -- ----- -- ----- to ---- ------<br>--- ----- --- --- ------ -------- ----- --- ------ ----- --<br>----- ----- ---------- --- --- ------ ------ ---- -- ------<br>------- --- ------ ----- --- ---- ------- -- ---- --- --<br>------- ------,181379.5,181376.40000009537,180901.676,180911.5,180918.343,181385.019,,19,to
screen,html.Screen,2_1_1_1_20,2022-05-03T18:57:13.787Z,,,,,,,,,,,,,,,,,54,,,,,,,,,,,,,,414.3810000953672,,response,,,,100,,,,,,,Space,keypress(Space),,,,,,,,-- --- ---- --- ------ ----- ------- ---- -- --- ------- --<br>------- ---------- ------ -- ----- -- ----- -- save ------<br>--- ----- --- --- ------ -------- ----- --- ------ ----- --<br>----- ----- ---------- --- --- ------ ------ ---- -- ------<br>------- --- ------ ----- --- ---- ------- -- ---- --- --<br>------- ------,181802.40000009537,181799.40000009537,181368.352,181379.60000038147,181385.019,181818.361,,20,save
screen,html.Screen,2_1_1_1_21,2022-05-03T18:57:14.166Z,,,,,,,,,,,,,,,,,54,,,,,,,,,,,,,,359.93900019073044,,response,,,,100,,,,,,,Space,keypress(Space),,,,,,,,"-- --- ---- --- ------ ----- ------- ---- -- --- ------- --<br>------- ---------- ------ -- ----- -- ----- -- ---- money,<br>--- ----- --- --- ------ -------- ----- --- ------ ----- --<br>----- ----- ---------- --- --- ------ ------ ---- -- ------<br>------- --- ------ ----- --- ---- ------- -- ---- --- --<br>------- ------",182181.40000009537,182178.30000019073,181801.694,181802.60000038147,181818.361,182185.035,,21,"money,"
screen,html.Screen,2_1_1_1_22,2022-05-03T18:57:14.569Z,,,,,,,,,,,,,,,,,54,,,,,,,,,,,,,,396.36500009536394,,response,,,,100,,,,,,,Space,keypress(Space),,,,,,,,-- --- ---- --- ------ ----- ------- ---- -- --- ------- --<br>------- ---------- ------ -- ----- -- ----- -- ---- ------<br>the ----- --- --- ------ -------- ----- --- ------ ----- --<br>----- ----- ---------- --- --- ------ ------ ---- -- ------<br>------- --- ------ ----- --- ---- ------- -- ---- --- --<br>------- ------,182584.40000009537,182581.40000009537,182168.368,182181.60000038147,182185.035,182585.043,,22,the
screen,html.Screen,2_1_1_1_23,2022-05-03T18:57:14.996Z,,,,,,,,,,,,,,,,,54,,,,,,,,,,,,,,423.25700019072974,,response,,,,100,,,,,,,Space,keypress(Space),,,,,,,,-- --- ---- --- ------ ----- ------- ---- -- --- ------- --<br>------- ---------- ------ -- ----- -- ----- -- ---- ------<br>--- state --- --- ------ -------- ----- --- ------ ----- --<br>----- ----- ---------- --- --- ------ ------ ---- -- ------<br>------- --- ------ ----- --- ---- ------- -- ---- --- --<br>------- ------,183011.40000009537,183008.30000019073,182568.376,182584.5,182585.043,183018.385,,23,state
screen,html.Screen,2_1_1_1_24,2022-05-03T18:57:15.380Z,,,,,,,,,,,,,,,,,54,,,,,,,,,,,,,,373.815000286093,,response,,,,100,,,,,,,Space,keypress(Space),,,,,,,,-- --- ---- --- ------ ----- ------- ---- -- --- ------- --<br>------- ---------- ------ -- ----- -- ----- -- ---- ------<br>--- ----- cut --- ------ -------- ----- --- ------ ----- --<br>----- ----- ---------- --- --- ------ ------ ---- -- ------<br>------- --- ------ ----- --- ---- ------- -- ---- --- --<br>------- ------,183395.5,183392.2000002861,183001.718,183011.5,183018.385,183401.726,,24,cut
screen,html.Screen,2_1_1_1_25,2022-05-03T18:57:15.758Z,,,,,,,,,,,,,,,,,54,,,,,,,,,,,,,,367.4740002861072,,response,,,,100,,,,,,,Space,keypress(Space),,,,,,,,-- --- ---- --- ------ ----- ------- ---- -- --- ------- --<br>------- ---------- ------ -- ----- -- ----- -- ---- ------<br>--- ----- --- the ------ -------- ----- --- ------ ----- --<br>----- ----- ---------- --- --- ------ ------ ---- -- ------<br>------- --- ------ ----- --- ---- ------- -- ---- --- --<br>------- ------,183772.60000038147,183769.2000002861,183385.059,183395.60000038147,183401.726,183785.067,,25,the
screen,html.Screen,2_1_1_1_26,2022-05-03T18:57:16.123Z,,,,,,,,,,,,,,,,,54,,,,,,,,,,,,,,350.1330002860923,,response,,,,100,,,,,,,Space,keypress(Space),,,,,,,,-- --- ---- --- ------ ----- ------- ---- -- --- ------- --<br>------- ---------- ------ -- ----- -- ----- -- ---- ------<br>--- ----- --- --- bonds' -------- ----- --- ------ ----- --<br>----- ----- ---------- --- --- ------ ------ ---- -- ------<br>------- --- ------ ----- --- ---- ------- -- ---- --- --<br>------- ------,184138.30000019073,184135.2000002861,183768.4,183772.7000002861,183785.067,184151.741,,26,bonds'
screen,html.Screen,2_1_1_1_27,2022-05-03T18:57:16.532Z,,,,,,,,,,,,,,,,,54,,,,,,,,,,,,,,392.4590002860932,,response,,,,100,,,,,,,Space,keypress(Space),,,,,,,,-- --- ---- --- ------ ----- ------- ---- -- --- ------- --<br>------- ---------- ------ -- ----- -- ----- -- ---- ------<br>--- ----- --- --- ------ interest ----- --- ------ ----- --<br>----- ----- ---------- --- --- ------ ------ ---- -- ------<br>------- --- ------ ----- --- ---- ------- -- ---- --- --<br>------- ------,184547.30000019073,184544.2000002861,184135.074,184138.5,184151.741,184552.246,,27,interest
screen,html.Screen,2_1_1_1_28,2022-05-03T18:57:16.989Z,,,,,,,,,,,,,,,,,54,,,,,,,,,,,,,,448.854000381456,,response,,,,100,,,,,,,Space,keypress(Space),,,,,,,,-- --- ---- --- ------ ----- ------- ---- -- --- ------- --<br>------- ---------- ------ -- ----- -- ----- -- ---- ------<br>--- ----- --- --- ------ -------- rate. --- ------ ----- --<br>----- ----- ---------- --- --- ------ ------ ---- -- ------<br>------- --- ------ ----- --- ---- ------- -- ---- --- --<br>------- ------,185004.30000019073,185001.10000038147,184535.579,184547.40000009537,184552.246,185018.922,,28,rate.
screen,html.Screen,2_1_1_1_29,2022-05-03T18:57:17.389Z,,,,,,,,,,,,,,,,,54,,,,,,,,,,,,,,382.17800038147834,,response,,,,100,,,,,,,Space,keypress(Space),,,,,,,,-- --- ---- --- ------ ----- ------- ---- -- --- ------- --<br>------- ---------- ------ -- ----- -- ----- -- ---- ------<br>--- ----- --- --- ------ -------- ----- The ------ ----- --<br>----- ----- ---------- --- --- ------ ------ ---- -- ------<br>------- --- ------ ----- --- ---- ------- -- ---- --- --<br>------- ------,185404.30000019073,185401.10000038147,185002.255,185004.5,185018.922,185418.93,,29,The
screen,html.Screen,2_1_1_1_30,2022-05-03T18:57:17.834Z,,,,,,,,,,,,,,,,,54,,,,,,,,,,,,,,427.1700003814767,,response,,,,100,,,,,,,Space,keypress(Space),,,,,,,,-- --- ---- --- ------ ----- ------- ---- -- --- ------- --<br>------- ---------- ------ -- ----- -- ----- -- ---- ------<br>--- ----- --- --- ------ -------- ----- --- market ----- --<br>----- ----- ---------- --- --- ------ ------ ---- -- ------<br>------- --- ------ ----- --- ---- ------- -- ---- --- --<br>------- ------,185849.40000009537,185846.10000038147,185402.263,185404.5,185418.93,185852.272,,30,market
screen,html.Screen,2_1_1_1_31,2022-05-03T18:57:18.227Z,,,,,,,,,,,,,,,,,54,,,,,,,,,,,,,,386.9280002861051,,response,,,,100,,,,,,,Space,keypress(Space),,,,,,,,-- --- ---- --- ------ ----- ------- ---- -- --- ------- --<br>------- ---------- ------ -- ----- -- ----- -- ---- ------<br>--- ----- --- --- ------ -------- ----- --- ------ value --<br>----- ----- ---------- --- --- ------ ------ ---- -- ------<br>------- --- ------ ----- --- ---- ------- -- ---- --- --<br>------- ------,186242.2000002861,186239.2000002861,185835.605,185849.5,185852.272,186252.28,,31,value
screen,html.Screen,2_1_1_1_32,2022-05-03T18:57:18.648Z,,,,,,,,,,,,,,,,,54,,,,,,,,,,,,,,407.72000000000116,,response,,,,100,,,,,,,Space,keypress(Space),,,,,,,,-- --- ---- --- ------ ----- ------- ---- -- --- ------- --<br>------- ---------- ------ -- ----- -- ----- -- ---- ------<br>--- ----- --- --- ------ -------- ----- --- ------ ----- of<br>----- ----- ---------- --- --- ------ ------ ---- -- ------<br>------- --- ------ ----- --- ---- ------- -- ---- --- --<br>------- ------,186663.10000038147,186660,186235.613,186242.30000019073,186252.28,186668.955,,32,of
screen,html.Screen,2_1_1_1_33,2022-05-03T18:57:19.092Z,,,,,,,,,,,,,,,,,54,,,,,,,,,,,,,,435.0450000000128,,response,,,,100,,,,,,,Space,keypress(Space),,,,,,,,-- --- ---- --- ------ ----- ------- ---- -- --- ------- --<br>------- ---------- ------ -- ----- -- ----- -- ---- ------<br>--- ----- --- --- ------ -------- ----- --- ------ ----- --<br>these ----- ---------- --- --- ------ ------ ---- -- ------<br>------- --- ------ ----- --- ---- ------- -- ---- --- --<br>------- ------,187107.10000038147,187104,186652.288,186663.30000019073,186668.955,187118.964,,33,these
screen,html.Screen,2_1_1_1_34,2022-05-03T18:57:19.512Z,,,,,,,,,,,,,,,,,54,,,,,,,,,,,,,,405.0359999999928,,response,,,,100,,,,,,,Space,keypress(Space),,,,,,,,-- --- ---- --- ------ ----- ------- ---- -- --- ------- --<br>------- ---------- ------ -- ----- -- ----- -- ---- ------<br>--- ----- --- --- ------ -------- ----- --- ------ ----- --<br>----- bonds ---------- --- --- ------ ------ ---- -- ------<br>------- --- ------ ----- --- ---- ------- -- ---- --- --<br>------- ------,187527,187524,187102.297,187107.2000002861,187118.964,187535.639,,34,bonds
screen,html.Screen,2_1_1_1_35,2022-05-03T18:57:19.961Z,,,,,,,,,,,,,,,,,54,,,,,,,,,,,,,,437.3610000000044,,response,,,,100,,,,,,,Space,keypress(Space),,,,,,,,"-- --- ---- --- ------ ----- ------- ---- -- --- ------- --<br>------- ---------- ------ -- ----- -- ----- -- ---- ------<br>--- ----- --- --- ------ -------- ----- --- ------ ----- --<br>----- ----- plummeted, --- --- ------ ------ ---- -- ------<br>------- --- ------ ----- --- ---- ------- -- ---- --- --<br>------- ------",187975.90000009537,187973,187518.972,187527.2000002861,187535.639,187985.648,,35,"plummeted,"
screen,html.Screen,2_1_1_1_36,2022-05-03T18:57:20.368Z,,,,,,,,,,,,,,,,,54,,,,,,,,,,,,,,394.15200019074837,,response,,,,100,,,,,,,Space,keypress(Space),,,,,,,,-- --- ---- --- ------ ----- ------- ---- -- --- ------- --<br>------- ---------- ------ -- ----- -- ----- -- ---- ------<br>--- ----- --- --- ------ -------- ----- --- ------ ----- --<br>----- ----- ---------- and --- ------ ------ ---- -- ------<br>------- --- ------ ----- --- ---- ------- -- ---- --- --<br>------- ------,188382.80000019073,188379.80000019073,187968.981,187976.10000038147,187985.648,188385.656,,36,and
screen,html.Screen,2_1_1_1_37,2022-05-03T18:57:20.809Z,,,,,,,,,,,,,,,,,54,,,,,,,,,,,,,,435.2440000953793,,response,,,,100,,,,,,,Space,keypress(Space),,,,,,,,-- --- ---- --- ------ ----- ------- ---- -- --- ------- --<br>------- ---------- ------ -- ----- -- ----- -- ---- ------<br>--- ----- --- --- ------ -------- ----- --- ------ ----- --<br>----- ----- ---------- --- the ------ ------ ---- -- ------<br>------- --- ------ ----- --- ---- ------- -- ---- --- --<br>------- ------,188823.90000009537,188820.90000009537,188368.989,188383,188385.656,188835.665,,37,the
screen,html.Screen,2_1_1_1_38,2022-05-03T18:57:21.195Z,,,,,,,,,,,,,,,,,54,,,,,,,,,,,,,,371.33499999999185,,response,,,,100,,,,,,,Space,keypress(Space),,,,,,,,-- --- ---- --- ------ ----- ------- ---- -- --- ------- --<br>------- ---------- ------ -- ----- -- ----- -- ---- ------<br>--- ----- --- --- ------ -------- ----- --- ------ ----- --<br>----- ----- ---------- --- --- market ------ ---- -- ------<br>------- --- ------ ----- --- ---- ------- -- ---- --- --<br>------- ------,189209.90000009537,189207,188818.998,188824,188835.665,189219.006,,38,market
screen,html.Screen,2_1_1_1_39,2022-05-03T18:57:21.588Z,,,,,,,,,,,,,,,,,54,,,,,,,,,,,,,,380.8940000953735,,response,,,,100,,,,,,,Space,keypress(Space),,,,,,,,-- --- ---- --- ------ ----- ------- ---- -- --- ------- --<br>------- ---------- ------ -- ----- -- ----- -- ---- ------<br>--- ----- --- --- ------ -------- ----- --- ------ ----- --<br>----- ----- ---------- --- --- ------ became ---- -- ------<br>------- --- ------ ----- --- ---- ------- -- ---- --- --<br>------- ------,189602.90000009537,189599.90000009537,189202.339,189210.10000038147,189219.006,189619.014,,39,became
screen,html.Screen,2_1_1_1_40,2022-05-03T18:57:22.050Z,,,,,,,,,,,,,,,,,54,,,,,,,,,,,,,,442.88600009537186,,response,,,,100,,,,,,,Space,keypress(Space),,,,,,,,-- --- ---- --- ------ ----- ------- ---- -- --- ------- --<br>------- ---------- ------ -- ----- -- ----- -- ---- ------<br>--- ----- --- --- ------ -------- ----- --- ------ ----- --<br>----- ----- ---------- --- --- ------ ------ wary -- ------<br>------- --- ------ ----- --- ---- ------- -- ---- --- --<br>------- ------,190064.90000009537,190061.90000009537,189602.347,189603.10000038147,189619.014,190069.023,,40,wary
screen,html.Screen,2_1_1_1_41,2022-05-03T18:57:22.404Z,,,,,,,,,,,,,,,,,54,,,,,,,,,,,,,,346.87700009538094,,response,,,,100,,,,,,,Space,keypress(Space),,,,,,,,-- --- ---- --- ------ ----- ------- ---- -- --- ------- --<br>------- ---------- ------ -- ----- -- ----- -- ---- ------<br>--- ----- --- --- ------ -------- ----- --- ------ ----- --<br>----- ----- ---------- --- --- ------ ------ ---- of ------<br>------- --- ------ ----- --- ---- ------- -- ---- --- --<br>------- ------,190418.90000009537,190415.90000009537,190052.356,190065.10000038147,190069.023,190435.697,,41,of
screen,html.Screen,2_1_1_1_42,2022-05-03T18:57:22.835Z,,,,,,,,,,,,,,,,,54,,,,,,,,,,,,,,411.00300028611673,,response,,,,100,,,,,,,Space,keypress(Space),,,,,,,,-- --- ---- --- ------ ----- ------- ---- -- --- ------- --<br>------- ---------- ------ -- ----- -- ----- -- ---- ------<br>--- ----- --- --- ------ -------- ----- --- ------ ----- --<br>----- ----- ---------- --- --- ------ ------ ---- -- French<br>------- --- ------ ----- --- ---- ------- -- ---- --- --<br>------- ------,190849.80000019073,190846.7000002861,190419.03,190419.10000038147,190435.697,190852.372,,42,French
screen,html.Screen,2_1_1_1_43,2022-05-03T18:57:23.266Z,,,,,,,,,,,,,,,,,54,,,,,,,,,,,,,,425.42800019073184,,response,,,,100,,,,,,,Space,keypress(Space),,,,,,,,-- --- ---- --- ------ ----- ------- ---- -- --- ------- --<br>------- ---------- ------ -- ----- -- ----- -- ---- ------<br>--- ----- --- --- ------ -------- ----- --- ------ ----- --<br>----- ----- ---------- --- --- ------ ------ ---- -- ------<br>credit. --- ------ ----- --- ---- ------- -- ---- --- --<br>------- ------,191280.90000009537,191277.80000019073,190835.705,190850,190852.372,191285.714,,43,credit.
screen,html.Screen,2_1_1_1_44,2022-05-03T18:57:23.681Z,,,,,,,,,,,,,,,,,54,,,,,,,,,,,,,,406.9860002860951,,response,,,,100,,,,,,,Space,keypress(Space),,,,,,,,-- --- ---- --- ------ ----- ------- ---- -- --- ------- --<br>------- ---------- ------ -- ----- -- ----- -- ---- ------<br>--- ----- --- --- ------ -------- ----- --- ------ ----- --<br>----- ----- ---------- --- --- ------ ------ ---- -- ------<br>------- The ------ ----- --- ---- ------- -- ---- --- --<br>------- ------,191695.80000019073,191692.7000002861,191269.047,191280.90000009537,191285.714,191702.389,,44,The
screen,html.Screen,2_1_1_1_45,2022-05-03T18:57:24.157Z,,,,,,,,,,,,,,,,,54,,,,,,,,,,,,,,466.4110001907393,,response,,,,100,,,,,,,Space,keypress(Space),,,,,,,,-- --- ---- --- ------ ----- ------- ---- -- --- ------- --<br>------- ---------- ------ -- ----- -- ----- -- ---- ------<br>--- ----- --- --- ------ -------- ----- --- ------ ----- --<br>----- ----- ---------- --- --- ------ ------ ---- -- ------<br>------- --- French ----- --- ---- ------- -- ---- --- --<br>------- ------,192172,192168.80000019073,191685.722,191696,191702.389,192185.732,,45,French
screen,html.Screen,2_1_1_1_46,2022-05-03T18:57:24.565Z,,,,,,,,,,,,,,,,,54,,,,,,,,,,,,,,390.96800028611324,,response,,,,100,,,,,,,Space,keypress(Space),,,,,,,,-- --- ---- --- ------ ----- ------- ---- -- --- ------- --<br>------- ---------- ------ -- ----- -- ----- -- ---- ------<br>--- ----- --- --- ------ -------- ----- --- ------ ----- --<br>----- ----- ---------- --- --- ------ ------ ---- -- ------<br>------- --- ------ state --- ---- ------- -- ---- --- --<br>------- ------,192579.80000019073,192576.7000002861,192169.065,192172.10000038147,192185.732,192585.74,,46,state
screen,html.Screen,2_1_1_1_47,2022-05-03T18:57:25.003Z,,,,,,,,,,,,,,,,,54,,,,,,,,,,,,,,428.9600002861116,,response,,,,100,,,,,,,Space,keypress(Space),,,,,,,,-- --- ---- --- ------ ----- ------- ---- -- --- ------- --<br>------- ---------- ------ -- ----- -- ----- -- ---- ------<br>--- ----- --- --- ------ -------- ----- --- ------ ----- --<br>----- ----- ---------- --- --- ------ ------ ---- -- ------<br>------- --- ------ ----- was ---- ------- -- ---- --- --<br>------- ------,193017.80000019073,193014.7000002861,192569.073,192579.90000009537,192585.74,193019.082,,47,was
screen,html.Screen,2_1_1_1_48,2022-05-03T18:57:25.384Z,,,,,,,,,,,,,,,,,54,,,,,,,,,,,,,,376.4180000000051,,response,,,,100,,,,,,,Space,keypress(Space),,,,,,,,-- --- ---- --- ------ ----- ------- ---- -- --- ------- --<br>------- ---------- ------ -- ----- -- ----- -- ---- ------<br>--- ----- --- --- ------ -------- ----- --- ------ ----- --<br>----- ----- ---------- --- --- ------ ------ ---- -- ------<br>------- --- ------ ----- --- left ------- -- ---- --- --<br>------- ------,193398.7000002861,193395.5,193002.415,193017.90000009537,193019.082,193402.423,,48,left
screen,html.Screen,2_1_1_1_49,2022-05-03T18:57:25.798Z,,,,,,,,,,,,,,,,,54,,,,,,,,,,,,,,407.2770002860925,,response,,,,100,,,,,,,Space,keypress(Space),,,,,,,,-- --- ---- --- ------ ----- ------- ---- -- --- ------- --<br>------- ---------- ------ -- ----- -- ----- -- ---- ------<br>--- ----- --- --- ------ -------- ----- --- ------ ----- --<br>----- ----- ---------- --- --- ------ ------ ---- -- ------<br>------- --- ------ ----- --- ---- without -- ---- --- --<br>------- ------,193813,193809.7000002861,193385.756,193398.80000019073,193402.423,193819.098,,49,without
screen,html.Screen,2_1_1_1_50,2022-05-03T18:57:26.203Z,,,,,,,,,,,,,,,,,54,,,,,,,,,,,,,,395.60200028610416,,response,,,,100,,,,,,,Space,keypress(Space),,,,,,,,-- --- ---- --- ------ ----- ------- ---- -- --- ------- --<br>------- ---------- ------ -- ----- -- ----- -- ---- ------<br>--- ----- --- --- ------ -------- ----- --- ------ ----- --<br>----- ----- ---------- --- --- ------ ------ ---- -- ------<br>------- --- ------ ----- --- ---- ------- an ---- --- --<br>------- ------,194217.60000038147,194214.7000002861,193802.431,193813.10000038147,193819.098,194219.106,,50,an
screen,html.Screen,2_1_1_1_51,2022-05-03T18:57:26.564Z,,,,,,,,,,,,,,,,,54,,,,,,,,,,,,,,356.5940002861025,,response,,,,100,,,,,,,Space,keypress(Space),,,,,,,,-- --- ---- --- ------ ----- ------- ---- -- --- ------- --<br>------- ---------- ------ -- ----- -- ----- -- ---- ------<br>--- ----- --- --- ------ -------- ----- --- ------ ----- --<br>----- ----- ---------- --- --- ------ ------ ---- -- ------<br>------- --- ------ ----- --- ---- ------- -- easy --- --<br>------- ------,194578.5,194575.7000002861,194202.439,194217.80000019073,194219.106,194586.289,,51,easy
screen,html.Screen,2_1_1_1_52,2022-05-03T18:57:26.957Z,,,,,,,,,,,,,,,,,54,,,,,,,,,,,,,,381.31100038147997,,response,,,,100,,,,,,,Space,keypress(Space),,,,,,,,-- --- ---- --- ------ ----- ------- ---- -- --- ------- --<br>------- ---------- ------ -- ----- -- ----- -- ---- ------<br>--- ----- --- --- ------ -------- ----- --- ------ ----- --<br>----- ----- ---------- --- --- ------ ------ ---- -- ------<br>------- --- ------ ----- --- ---- ------- -- ---- way --<br>------- ------,194971.7000002861,194967.60000038147,194569.622,194578.7000002861,194586.289,194986.297,,52,way
screen,html.Screen,2_1_1_1_53,2022-05-03T18:57:27.312Z,,,,,,,,,,,,,,,,,54,,,,,,,,,,,,,,337.30300038147834,,response,,,,100,,,,,,,Space,keypress(Space),,,,,,,,-- --- ---- --- ------ ----- ------- ---- -- --- ------- --<br>------- ---------- ------ -- ----- -- ----- -- ---- ------<br>--- ----- --- --- ------ -------- ----- --- ------ ----- --<br>----- ----- ---------- --- --- ------ ------ ---- -- ------<br>------- --- ------ ----- --- ---- ------- -- ---- --- of<br>------- ------,195326.60000038147,195323.60000038147,194969.63,194971.80000019073,194986.297,195336.304,,53,of
screen,html.Screen,2_1_1_1_54,2022-05-03T18:57:27.732Z,,,,,,,,,,,,,,,,,54,,,,,,,,,,,,,,407.296000381466,,response,,,,100,,,,,,,Space,keypress(Space),,,,,,,,-- --- ---- --- ------ ----- ------- ---- -- --- ------- --<br>------- ---------- ------ -- ----- -- ----- -- ---- ------<br>--- ----- --- --- ------ -------- ----- --- ------ ----- --<br>----- ----- ---------- --- --- ------ ------ ---- -- ------<br>------- --- ------ ----- --- ---- ------- -- ---- --- --<br>raising ------,195746.5,195743.60000038147,195319.637,195326.7000002861,195336.304,195752.979,,54,raising
screen,html.Screen,2_1_1_1_55,2022-05-03T18:57:28.090Z,,,,,,,,,,,,,,,,,54,,,,,,,,,,,,,,348.5210000000079,,response,,,,100,,,,,,,Space,keypress(Space),,,,,,,,-- --- ---- --- ------ ----- ------- ---- -- --- ------- --<br>------- ---------- ------ -- ----- -- ----- -- ---- ------<br>--- ----- --- --- ------ -------- ----- --- ------ ----- --<br>----- ----- ---------- --- --- ------ ------ ---- -- ------<br>------- --- ------ ----- --- ---- ------- -- ---- --- --<br>------- money.,196104.7000002861,196101.5,195736.312,195746.60000038147,195752.979,196119.653,,55,money.
Item 100,flow.Loop,2_1_1_1,2022-05-03T18:57:28.090Z,,,,,,,,,,,,,,,,,,,,,,,,,,,,,,,36484.590999999986,,completion,,,,,A,,,,,,,,,,,silence,,,,,196105,196101.5,159600.242,159605.2000002861,159616.909,196119.653,,,
Question 1,html.Screen,2_1_1_2,2022-05-03T18:57:30.245Z,,,,,,,,,,,,,,,,,,,,,,,,,,,,true,TRUE,,2137.347000000009,,response,,,,100,A,,,,,,TRUE,click #choice-1,,,,silence,,,,,198259.30000019073,198257,196102.986,196105.2000002861,196119.653,198269.696,,,
Question 2,html.Screen,2_1_1_3,2022-05-03T18:57:31.856Z,,,,,,,,,,,,,,,,,,,,,,,,,,,,false,FALSE,,1598.1040001907386,,response,,,,100,A,,,,,,TRUE,click #choice-1,,,,silence,,,,,199870.2000002861,199867.80000019073,198253.029,198259.5,198269.696,199886.395,,,
Item 100,flow.Sequence,2_1_1,2022-05-03T18:57:31.856Z,,,,,,,,,,,,,,,,,,,,,,,,,,,,,,,50251.50800019075,,completion,,,,,,,,,,,,,,,,,,,,,199870.60000038147,199867.80000019073,149599.625,149588.2000002861,149616.292,199886.395,,,
End of Practice,html.Page,2_1_2,2022-05-03T18:57:34.770Z,,,,,,,,,,,,,,,,,,,,,,,,,,,,,,,2897.3050002861128,,form submission,,,,,,,,,,,,,,,,,,,,,202784.2000002861,202783.7000002861,199869.728,199870.7000002861,199886.395,202786.453,,,
Practice,flow.Sequence,2_1,2022-05-03T18:57:34.770Z,,,,,,,,,,,,,,,,,,,,,,,,,,,,,,,98671.2710002861,,completion,,,,,,,,,,,,,,,,,,,,,202784.40000009537,202783.7000002861,104095.762,104108.7000002861,104112.429,202786.453,,,
Trap_instruction,html.Page,2_2_0,2022-05-03T18:57:37.383Z,,,,,,,,,,,,,,,,,,,,,,,,,,,,,,,2610.147000381461,,form submission,,,,,,,,,,,,,,,,,,,,,205397,205396.60000038147,202769.786,202784.60000038147,202786.453,205403.172,,,
trap_trial,html.Screen,2_2_1,2022-05-03T18:57:40.720Z,,,,,,,,,,,,,,,,,,,,,,,,,,,,true,1,,3329.028000286111,,response,,,,,,,,,,,1,click #choice-1,,,,,,,,,208734.5,208732.2000002861,205386.505,205397.10000038147,205403.172,208737.155,,,
end of trap trial,html.Page,2_2_2,2022-05-03T18:57:42.268Z,,,,,,,,,,,,,,,,,,,,,,,,,,,,,,,1545.145000190736,,form submission,,,,,,,,,,,,,,,,,,,,,210282.7000002861,210282.30000019073,208720.488,208734.60000038147,208737.155,210287.186,,,
Trap 1,flow.Sequence,2_2,2022-05-03T18:57:42.269Z,,,,,,,,,,,,,,,,,,,,,,,,,,,,,,,7495.847000190726,,completion,,,,,,,,,,,,,,,,,,,,,210282.90000009537,210282.30000019073,202769.786,202784.5,202786.453,210287.186,,,
Standby,html.Page,2_3_0,2022-05-03T18:57:50.259Z,,,,,,,,,,,,,,,,,,,,,,,,,,,,,,,8000.1600000000035,,timeout,,,,,,,,,,,,,,,,,,,,,218273.40000009537,218270.679,210270.519,210283,210287.186,218287.346,,,
Holding screen,html.Screen,2_3_1_0_0,2022-05-03T18:57:57.259Z,,,,,,,,,,,,,,,,,,,,,,,,,,,,,,,7000.699000000022,,timeout,,,,,,,,,,,,,,,,,,,,,225273.2000002861,225271.378,218270.679,218273.7000002861,218287.346,225288.045,,,
screen,html.Screen,2_3_1_0_1_0,2022-05-03T18:58:03.513Z,,,,,,,,,,,,,,,,,12,,,,,,,,,,,,,,6234.6550002860895,,response,,,,5,A,,,,,,Space,keypress(Space),,,,silence,,,,Some ------ ------ ------- ------ --- ------- -----------<br>-- ----- --- ---- -- --- ------ ---- - ---- -- ----------<br>-- ------ ---- --- ---- --- --- --- ----- -- -------- ---<br>------ ------- -------- --- ---- -- ------- ------------ --<br>------ -- ---- -- --- ---- -- -------- -- --- ------ ------,231527,231522.7000002861,225271.378,225273.40000009537,225288.045,231538.17,,0,Some
screen,html.Screen,2_3_1_0_1_1,2022-05-03T18:58:03.886Z,,,,,,,,,,,,,,,,,12,,,,,,,,,,,,,,358.3299999999872,,response,,,,5,A,,,,,,Space,keypress(Space),,,,silence,,,,---- months ------ ------- ------ --- ------- -----------<br>-- ----- --- ---- -- --- ------ ---- - ---- -- ----------<br>-- ------ ---- --- ---- --- --- --- ----- -- -------- ---<br>------ ------- -------- --- ---- -- ------- ------------ --<br>------ -- ---- -- --- ---- -- -------- -- --- ------ ------,231899.60000038147,231896.5,231521.503,231527.30000019073,231538.17,231904.844,,1,months
screen,html.Screen,2_3_1_0_1_2,2022-05-03T18:58:04.299Z,,,,,,,,,,,,,,,,,12,,,,,,,,,,,,,,404.6559999999881,,response,,,,5,A,,,,,,Space,keypress(Space),,,,silence,,,,"---- ------ later, ------- ------ --- ------- -----------<br>-- ----- --- ---- -- --- ------ ---- - ---- -- ----------<br>-- ------ ---- --- ---- --- --- --- ----- -- -------- ---<br>------ ------- -------- --- ---- -- ------- ------------ --<br>------ -- ---- -- --- ---- -- -------- -- --- ------ ------",232312.7000002861,232309.5,231888.177,231899.7000002861,231904.844,232322.208,,2,"later,"
screen,html.Screen,2_3_1_0_1_3,2022-05-03T18:58:04.769Z,,,,,,,,,,,,,,,,,12,,,,,,,,,,,,,,457.29199999998673,,response,,,,5,A,,,,,,Space,keypress(Space),,,,silence,,,,---- ------ ------ Michael ------ --- ------- -----------<br>-- ----- --- ---- -- --- ------ ---- - ---- -- ----------<br>-- ------ ---- --- ---- --- --- --- ----- -- -------- ---<br>------ ------- -------- --- ---- -- ------- ------------ --<br>------ -- ---- -- --- ---- -- -------- -- --- ------ ------,232782.60000038147,232779.5,232305.541,232312.80000019073,232322.208,232788.884,,3,Michael
screen,html.Screen,2_3_1_0_1_4,2022-05-03T18:58:05.198Z,,,,,,,,,,,,,,,,,12,,,,,,,,,,,,,,419.5160000953765,,response,,,,5,A,,,,,,Space,keypress(Space),,,,silence,,,,---- ------ ------ ------- Larson --- ------- -----------<br>-- ----- --- ---- -- --- ------ ---- - ---- -- ----------<br>-- ------ ---- --- ---- --- --- --- ----- -- -------- ---<br>------ ------- -------- --- ---- -- ------- ------------ --<br>------ -- ---- -- --- ---- -- -------- -- --- ------ ------,233212,233208.40000009537,232772.217,232782.80000019073,232788.884,233222.226,,4,Larson
screen,html.Screen,2_3_1_0_1_5,2022-05-03T18:58:05.646Z,,,,,,,,,,,,,,,,,12,,,,,,,,,,,,,,434.1740000953723,,response,,,,5,A,,,,,,Space,keypress(Space),,,,silence,,,,---- ------ ------ ------- ------ saw ------- -----------<br>-- ----- --- ---- -- --- ------ ---- - ---- -- ----------<br>-- ------ ---- --- ---- --- --- --- ----- -- -------- ---<br>------ ------- -------- --- ---- -- ------- ------------ --<br>------ -- ---- -- --- ---- -- -------- -- --- ------ ------,233659.5,233656.40000009537,233205.559,233212.10000038147,233222.226,233672.235,,5,saw
screen,html.Screen,2_3_1_0_1_6,2022-05-03T18:58:06.074Z,,,,,,,,,,,,,,,,,12,,,,,,,,,,,,,,412.1650000953814,,response,,,,5,A,,,,,,Space,keypress(Space),,,,silence,,,,---- ------ ------ ------- ------ --- another -----------<br>-- ----- --- ---- -- --- ------ ---- - ---- -- ----------<br>-- ------ ---- --- ---- --- --- --- ----- -- -------- ---<br>------ ------- -------- --- ---- -- ------- ------------ --<br>------ -- ---- -- --- ---- -- -------- -- --- ------ ------,234087.5,234084.40000009537,233655.568,233659.60000038147,233672.235,234088.91,,6,another
screen,html.Screen,2_3_1_0_1_7,2022-05-03T18:58:06.547Z,,,,,,,,,,,,,,,,,12,,,,,,,,,,,,,,468.39000019073137,,response,,,,5,A,,,,,,Space,keypress(Space),,,,silence,,,,---- ------ ------ ------- ------ --- ------- opportunity<br>-- ----- --- ---- -- --- ------ ---- - ---- -- ----------<br>-- ------ ---- --- ---- --- --- --- ----- -- -------- ---<br>------ ------- -------- --- ---- -- ------- ------------ --<br>------ -- ---- -- --- ---- -- -------- -- --- ------ ------,234560.60000038147,234557.30000019073,234072.243,234087.7000002861,234088.91,234572.253,,7,opportunity
screen,html.Screen,2_3_1_0_1_8,2022-05-03T18:58:06.977Z,,,,,,,,,,,,,,,,,12,,,,,,,,,,,,,,415.14700009537046,,response,,,,5,A,,,,,,Space,keypress(Space),,,,silence,,,,---- ------ ------ ------- ------ --- ------- -----------<br>to ----- --- ---- -- --- ------ ---- - ---- -- ----------<br>-- ------ ---- --- ---- --- --- --- ----- -- -------- ---<br>------ ------- -------- --- ---- -- ------- ------------ --<br>------ -- ---- -- --- ---- -- -------- -- --- ------ ------,234990.60000038147,234987.40000009537,234555.586,234560.60000038147,234572.253,235005.595,,8,to
screen,html.Screen,2_3_1_0_1_9,2022-05-03T18:58:07.431Z,,,,,,,,,,,,,,,,,12,,,,,,,,,,,,,,435.7050001907337,,response,,,,5,A,,,,,,Space,keypress(Space),,,,silence,,,,---- ------ ------ ------- ------ --- ------- -----------<br>-- stack --- ---- -- --- ------ ---- - ---- -- ----------<br>-- ------ ---- --- ---- --- --- --- ----- -- -------- ---<br>------ ------- -------- --- ---- -- ------- ------------ --<br>------ -- ---- -- --- ---- -- -------- -- --- ------ ------,235444.30000019073,235441.30000019073,234988.928,234990.7000002861,235005.595,235455.604,,9,stack
screen,html.Screen,2_3_1_0_1_10,2022-05-03T18:58:07.869Z,,,,,,,,,,,,,,,,,12,,,,,,,,,,,,,,423.6960001907428,,response,,,,5,A,,,,,,Space,keypress(Space),,,,silence,,,,---- ------ ------ ------- ------ --- ------- -----------<br>-- ----- the ---- -- --- ------ ---- - ---- -- ----------<br>-- ------ ---- --- ---- --- --- --- ----- -- -------- ---<br>------ ------- -------- --- ---- -- ------- ------------ --<br>------ -- ---- -- --- ---- -- -------- -- --- ------ ------,235882.40000009537,235879.30000019073,235438.937,235444.5,235455.604,235888.946,,10,the
screen,html.Screen,2_3_1_0_1_11,2022-05-03T18:58:08.316Z,,,,,,,,,,,,,,,,,12,,,,,,,,,,,,,,437.3540001907386,,response,,,,5,A,,,,,,Space,keypress(Space),,,,silence,,,,---- ------ ------ ------- ------ --- ------- -----------<br>-- ----- --- odds -- --- ------ ---- - ---- -- ----------<br>-- ------ ---- --- ---- --- --- --- ----- -- -------- ---<br>------ ------- -------- --- ---- -- ------- ------------ --<br>------ -- ---- -- --- ---- -- -------- -- --- ------ ------,236329.30000019073,236326.30000019073,235872.279,235882.5,235888.946,236338.955,,11,odds
screen,html.Screen,2_3_1_0_1_12,2022-05-03T18:58:08.759Z,,,,,,,,,,,,,,,,,12,,,,,,,,,,,,,,430.2450002861151,,response,,,,5,A,,,,,,Space,keypress(Space),,,,silence,,,,---- ------ ------ ------- ------ --- ------- -----------<br>-- ----- --- ---- in --- ------ ---- - ---- -- ----------<br>-- ------ ---- --- ---- --- --- --- ----- -- -------- ---<br>------ ------- -------- --- ---- -- ------- ------------ --<br>------ -- ---- -- --- ---- -- -------- -- --- ------ ------,236772.2000002861,236769.2000002861,236322.288,236329.40000009537,236338.955,236788.964,,12,in
screen,html.Screen,2_3_1_0_1_13,2022-05-03T18:58:09.233Z,,,,,,,,,,,,,,,,,12,,,,,,,,,,,,,,454.2360002860951,,response,,,,5,A,,,,,,Space,keypress(Space),,,,silence,,,,---- ------ ------ ------- ------ --- ------- -----------<br>-- ----- --- ---- -- his ------ ---- - ---- -- ----------<br>-- ------ ---- --- ---- --- --- --- ----- -- -------- ---<br>------ ------- -------- --- ---- -- ------- ------------ --<br>------ -- ---- -- --- ---- -- -------- -- --- ------ ------,237246.30000019073,237243.2000002861,236772.297,236772.30000019073,236788.964,237255.64,,13,his
screen,html.Screen,2_3_1_0_1_14,2022-05-03T18:58:09.673Z,,,,,,,,,,,,,,,,,12,,,,,,,,,,,,,,427.5600002860883,,response,,,,5,A,,,,,,Space,keypress(Space),,,,silence,,,,---- ------ ------ ------- ------ --- ------- -----------<br>-- ----- --- ---- -- --- favour ---- - ---- -- ----------<br>-- ------ ---- --- ---- --- --- --- ----- -- -------- ---<br>------ ------- -------- --- ---- -- ------- ------------ --<br>------ -- ---- -- --- ---- -- -------- -- --- ------ ------,237686.30000019073,237683.2000002861,237238.973,237246.30000019073,237255.64,237688.982,,14,favour
screen,html.Screen,2_3_1_0_1_15,2022-05-03T18:58:10.144Z,,,,,,,,,,,,,,,,,12,,,,,,,,,,,,,,465.11800038148067,,response,,,,5,A,,,,,,Space,keypress(Space),,,,silence,,,,---- ------ ------ ------- ------ --- ------- -----------<br>-- ----- --- ---- -- --- ------ with - ---- -- ----------<br>-- ------ ---- --- ---- --- --- --- ----- -- -------- ---<br>------ ------- -------- --- ---- -- ------- ------------ --<br>------ -- ---- -- --- ---- -- -------- -- --- ------ ------,238157.30000019073,238154.10000038147,237672.315,237686.5,237688.982,238172.325,,15,with
screen,html.Screen,2_3_1_0_1_16,2022-05-03T18:58:10.555Z,,,,,,,,,,,,,,,,,12,,,,,,,,,,,,,,392.87500028609065,,response,,,,5,A,,,,,,Space,keypress(Space),,,,silence,,,,---- ------ ------ ------- ------ --- ------- -----------<br>-- ----- --- ---- -- --- ------ ---- a ---- -- ----------<br>-- ------ ---- --- ---- --- --- --- ----- -- -------- ---<br>------ ------- -------- --- ---- -- ------- ------------ --<br>------ -- ---- -- --- ---- -- -------- -- --- ------ ------,238568.2000002861,238565.2000002861,238155.658,238157.5,238172.325,238572.333,,16,a
screen,html.Screen,2_3_1_0_1_17,2022-05-03T18:58:11.003Z,,,,,,,,,,,,,,,,,12,,,,,,,,,,,,,,440.76700038145646,,response,,,,5,A,,,,,,Space,keypress(Space),,,,silence,,,,---- ------ ------ ------- ------ --- ------- -----------<br>-- ----- --- ---- -- --- ------ ---- - dash -- ----------<br>-- ------ ---- --- ---- --- --- --- ----- -- -------- ---<br>------ ------- -------- --- ---- -- ------- ------------ --<br>------ -- ---- -- --- ---- -- -------- -- --- ------ ------,239016.30000019073,239013.10000038147,238555.666,238568.30000019073,238572.333,239022.342,,17,dash
screen,html.Screen,2_3_1_0_1_18,2022-05-03T18:58:11.392Z,,,,,,,,,,,,,,,,,12,,,,,,,,,,,,,,378.75800038146554,,response,,,,5,A,,,,,,Space,keypress(Space),,,,silence,,,,---- ------ ------ ------- ------ --- ------- -----------<br>-- ----- --- ---- -- --- ------ ---- - ---- of ----------<br>-- ------ ---- --- ---- --- --- --- ----- -- -------- ---<br>------ ------- -------- --- ---- -- ------- ------------ --<br>------ -- ---- -- --- ---- -- -------- -- --- ------ ------,239405.2000002861,239401.10000038147,239005.675,239016.40000009537,239022.342,239422.35,,18,of
screen,html.Screen,2_3_1_0_1_19,2022-05-03T18:58:11.799Z,,,,,,,,,,,,,,,,,12,,,,,,,,,,,,,,386.7500003814639,,response,,,,5,A,,,,,,Space,keypress(Space),,,,silence,,,,---- ------ ------ ------- ------ --- ------- -----------<br>-- ----- --- ---- -- --- ------ ---- - ---- -- ingenuity.<br>-- ------ ---- --- ---- --- --- --- ----- -- -------- ---<br>------ ------- -------- --- ---- -- ------- ------------ --<br>------ -- ---- -- --- ---- -- -------- -- --- ------ ------,239812,239809.10000038147,239405.683,239405.30000019073,239422.35,239822.358,,19,ingenuity.
screen,html.Screen,2_3_1_0_1_20,2022-05-03T18:58:12.658Z,,,,,,,,,,,,,,,,,12,,,,,,,,,,,,,,845.6419999999925,,response,,,,5,A,,,,,,Space,keypress(Space),,,,silence,,,,---- ------ ------ ------- ------ --- ------- -----------<br>-- ----- --- ---- -- --- ------ ---- - ---- -- ----------<br>He ------ ---- --- ---- --- --- --- ----- -- -------- ---<br>------ ------- -------- --- ---- -- ------- ------------ --<br>------ -- ---- -- --- ---- -- -------- -- --- ------ ------,240671,240668,239805.691,239812.2000002861,239822.358,240672.375,,20,He
screen,html.Screen,2_3_1_0_1_21,2022-05-03T18:58:13.076Z,,,,,,,,,,,,,,,,,12,,,,,,,,,,,,,,413.625,,response,,,,5,A,,,,,,Space,keypress(Space),,,,silence,,,,---- ------ ------ ------- ------ --- ------- -----------<br>-- ----- --- ---- -- --- ------ ---- - ---- -- ----------<br>-- walked ---- --- ---- --- --- --- ----- -- -------- ---<br>------ ------- -------- --- ---- -- ------- ------------ --<br>------ -- ---- -- --- ---- -- -------- -- --- ------ ------,241089.10000038147,241086,240655.708,240671.2000002861,240672.375,241105.717,,21,walked
screen,html.Screen,2_3_1_0_1_22,2022-05-03T18:58:13.473Z,,,,,,,,,,,,,,,,,12,,,,,,,,,,,,,,377.2829999999958,,response,,,,5,A,,,,,,Space,keypress(Space),,,,silence,,,,---- ------ ------ ------- ------ --- ------- -----------<br>-- ----- --- ---- -- --- ------ ---- - ---- -- ----------<br>-- ------ into --- ---- --- --- --- ----- -- -------- ---<br>------ ------- -------- --- ---- -- ------- ------------ --<br>------ -- ---- -- --- ---- -- -------- -- --- ------ ------,241486,241483,241089.05,241089.2000002861,241105.717,241489.058,,22,into
screen,html.Screen,2_3_1_0_1_23,2022-05-03T18:58:13.939Z,,,,,,,,,,,,,,,,,12,,,,,,,,,,,,,,459.84200009537744,,response,,,,5,A,,,,,,Space,keypress(Space),,,,silence,,,,---- ------ ------ ------- ------ --- ------- -----------<br>-- ----- --- ---- -- --- ------ ---- - ---- -- ----------<br>-- ------ ---- his ---- --- --- --- ----- -- -------- ---<br>------ ------- -------- --- ---- -- ------- ------------ --<br>------ -- ---- -- --- ---- -- -------- -- --- ------ ------,241952.2000002861,241948.90000009537,241472.391,241486.10000038147,241489.058,241955.734,,23,his
screen,html.Screen,2_3_1_0_1_24,2022-05-03T18:58:14.377Z,,,,,,,,,,,,,,,,,12,,,,,,,,,,,,,,431.1660000953707,,response,,,,5,A,,,,,,Space,keypress(Space),,,,silence,,,,---- ------ ------ ------- ------ --- ------- -----------<br>-- ----- --- ---- -- --- ------ ---- - ---- -- ----------<br>-- ------ ---- --- bank --- --- --- ----- -- -------- ---<br>------ ------- -------- --- ---- -- ------- ------------ --<br>------ -- ---- -- --- ---- -- -------- -- --- ------ ------,242390,242386.90000009537,241939.067,241952.40000009537,241955.734,242405.743,,24,bank
screen,html.Screen,2_3_1_0_1_25,2022-05-03T18:58:14.826Z,,,,,,,,,,,,,,,,,12,,,,,,,,,,,,,,430.1570000953798,,response,,,,5,A,,,,,,Space,keypress(Space),,,,silence,,,,---- ------ ------ ------- ------ --- ------- -----------<br>-- ----- --- ---- -- --- ------ ---- - ---- -- ----------<br>-- ------ ---- --- ---- one --- --- ----- -- -------- ---<br>------ ------- -------- --- ---- -- ------- ------------ --<br>------ -- ---- -- --- ---- -- -------- -- --- ------ ------,242839,242835.90000009537,242389.076,242390.10000038147,242405.743,242856.281,,25,one
screen,html.Screen,2_3_1_0_1_26,2022-05-03T18:58:15.263Z,,,,,,,,,,,,,,,,,12,,,,,,,,,,,,,,416.51900019074674,,response,,,,5,A,,,,,,Space,keypress(Space),,,,silence,,,,---- ------ ------ ------- ------ --- ------- -----------<br>-- ----- --- ---- -- --- ------ ---- - ---- -- ----------<br>-- ------ ---- --- ---- --- day --- ----- -- -------- ---<br>------ ------- -------- --- ---- -- ------- ------------ --<br>------ -- ---- -- --- ---- -- -------- -- --- ------ ------,243276.10000038147,243272.80000019073,242839.614,242839.10000038147,242856.281,243289.623,,26,day
screen,html.Screen,2_3_1_0_1_27,2022-05-03T18:58:15.710Z,,,,,,,,,,,,,,,,,12,,,,,,,,,,,,,,430.2770000953751,,response,,,,5,A,,,,,,Space,keypress(Space),,,,silence,,,,---- ------ ------ ------- ------ --- ------- -----------<br>-- ----- --- ---- -- --- ------ ---- - ---- -- ----------<br>-- ------ ---- --- ---- --- --- and ----- -- -------- ---<br>------ ------- -------- --- ---- -- ------- ------------ --<br>------ -- ---- -- --- ---- -- -------- -- --- ------ ------,243723,243719.90000009537,243272.956,243276.2000002861,243289.623,243739.632,,27,and
screen,html.Screen,2_3_1_0_1_28,2022-05-03T18:58:16.162Z,,,,,,,,,,,,,,,,,12,,,,,,,,,,,,,,431.9680003814574,,response,,,,5,A,,,,,,Space,keypress(Space),,,,silence,,,,---- ------ ------ ------- ------ --- ------- -----------<br>-- ----- --- ---- -- --- ------ ---- - ---- -- ----------<br>-- ------ ---- --- ---- --- --- --- asked -- -------- ---<br>------ ------- -------- --- ---- -- ------- ------------ --<br>------ -- ---- -- --- ---- -- -------- -- --- ------ ------,244174.80000019073,244171.60000038147,243722.965,243723.10000038147,243739.632,244189.641,,28,asked
screen,html.Screen,2_3_1_0_1_29,2022-05-03T18:58:16.573Z,,,,,,,,,,,,,,,,,12,,,,,,,,,,,,,,393.95900038146647,,response,,,,5,A,,,,,,Space,keypress(Space),,,,silence,,,,---- ------ ------ ------- ------ --- ------- -----------<br>-- ----- --- ---- -- --- ------ ---- - ---- -- ----------<br>-- ------ ---- --- ---- --- --- --- ----- to -------- ---<br>------ ------- -------- --- ---- -- ------- ------------ --<br>------ -- ---- -- --- ---- -- -------- -- --- ------ ------,244586.60000038147,244583.60000038147,244172.974,244174.90000009537,244189.641,244589.649,,29,to
screen,html.Screen,2_3_1_0_1_30,2022-05-03T18:58:17.011Z,,,,,,,,,,,,,,,,,12,,,,,,,,,,,,,,431.15100019073,,response,,,,5,A,,,,,,Space,keypress(Space),,,,silence,,,,---- ------ ------ ------- ------ --- ------- -----------<br>-- ----- --- ---- -- --- ------ ---- - ---- -- ----------<br>-- ------ ---- --- ---- --- --- --- ----- -- withdraw ---<br>------ ------- -------- --- ---- -- ------- ------------ --<br>------ -- ---- -- --- ---- -- -------- -- --- ------ ------,245023.80000019073,245020.80000019073,244572.982,244586.80000019073,244589.649,245039.658,,30,withdraw
screen,html.Screen,2_3_1_0_1_31,2022-05-03T18:58:17.406Z,,,,,,,,,,,,,,,,,12,,,,,,,,,,,,,,376.2420000953716,,response,,,,5,A,,,,,,Space,keypress(Space),,,,silence,,,,---- ------ ------ ------- ------ --- ------- -----------<br>-- ----- --- ---- -- --- ------ ---- - ---- -- ----------<br>-- ------ ---- --- ---- --- --- --- ----- -- -------- his<br>------ ------- -------- --- ---- -- ------- ------------ --<br>------ -- ---- -- --- ---- -- -------- -- --- ------ ------,245418.90000009537,245415.90000009537,245022.991,245023.90000009537,245039.658,245422.999,,31,his
screen,html.Screen,2_3_1_0_1_32,2022-05-03T18:58:17.832Z,,,,,,,,,,,,,,,,,12,,,,,,,,,,,,,,418.7010002860916,,response,,,,5,A,,,,,,Space,keypress(Space),,,,silence,,,,---- ------ ------ ------- ------ --- ------- -----------<br>-- ----- --- ---- -- --- ------ ---- - ---- -- ----------<br>-- ------ ---- --- ---- --- --- --- ----- -- -------- ---<br>entire ------- -------- --- ---- -- ------- ------------ --<br>------ -- ---- -- --- ---- -- -------- -- --- ------ ------,245844.80000019073,245841.7000002861,245406.332,245419.10000038147,245422.999,245856.341,,32,entire
screen,html.Screen,2_3_1_0_1_33,2022-05-03T18:58:18.270Z,,,,,,,,,,,,,,,,,12,,,,,,,,,,,,,,423.3590002861165,,response,,,,5,A,,,,,,Space,keypress(Space),,,,silence,,,,---- ------ ------ ------- ------ --- ------- -----------<br>-- ----- --- ---- -- --- ------ ---- - ---- -- ----------<br>-- ------ ---- --- ---- --- --- --- ----- -- -------- ---<br>------ account -------- --- ---- -- ------- ------------ --<br>------ -- ---- -- --- ---- -- -------- -- --- ------ ------,246282.7000002861,246279.7000002861,245839.674,245844.90000009537,245856.341,246289.683,,33,account
screen,html.Screen,2_3_1_0_1_34,2022-05-03T18:58:18.712Z,,,,,,,,,,,,,,,,,12,,,,,,,,,,,,,,432.0170002861123,,response,,,,5,A,,,,,,Space,keypress(Space),,,,silence,,,,"---- ------ ------ ------- ------ --- ------- -----------<br>-- ----- --- ---- -- --- ------ ---- - ---- -- ----------<br>-- ------ ---- --- ---- --- --- --- ----- -- -------- ---<br>------ ------- balance, --- ---- -- ------- ------------ --<br>------ -- ---- -- --- ---- -- -------- -- --- ------ ------",246724.90000009537,246721.7000002861,246273.016,246282.90000009537,246289.683,246739.692,,34,"balance,"
screen,html.Screen,2_3_1_0_1_35,2022-05-03T18:58:19.130Z,,,,,,,,,,,,,,,,,12,,,,,,,,,,,,,,400.0080002860923,,response,,,,5,A,,,,,,Space,keypress(Space),,,,silence,,,,---- ------ ------ ------- ------ --- ------- -----------<br>-- ----- --- ---- -- --- ------ ---- - ---- -- ----------<br>-- ------ ---- --- ---- --- --- --- ----- -- -------- ---<br>------ ------- -------- but ---- -- ------- ------------ --<br>------ -- ---- -- --- ---- -- -------- -- --- ------ ------,247142.7000002861,247139.7000002861,246723.025,246725,246739.692,247156.367,,35,but
screen,html.Screen,2_3_1_0_1_36,2022-05-03T18:58:19.562Z,,,,,,,,,,,,,,,,,12,,,,,,,,,,,,,,415.23300038147136,,response,,,,5,A,,,,,,Space,keypress(Space),,,,silence,,,,---- ------ ------ ------- ------ --- ------- -----------<br>-- ----- --- ---- -- --- ------ ---- - ---- -- ----------<br>-- ------ ---- --- ---- --- --- --- ----- -- -------- ---<br>------ ------- -------- --- with -- ------- ------------ --<br>------ -- ---- -- --- ---- -- -------- -- --- ------ ------,247574.7000002861,247571.60000038147,247139.7,247142.80000019073,247156.367,247589.709,,36,with
screen,html.Screen,2_3_1_0_1_37,2022-05-03T18:58:19.966Z,,,,,,,,,,,,,,,,,12,,,,,,,,,,,,,,386.89100038146717,,response,,,,5,A,,,,,,Space,keypress(Space),,,,silence,,,,---- ------ ------ ------- ------ --- ------- -----------<br>-- ----- --- ---- -- --- ------ ---- - ---- -- ----------<br>-- ------ ---- --- ---- --- --- --- ----- -- -------- ---<br>------ ------- -------- --- ---- an ------- ------------ --<br>------ -- ---- -- --- ---- -- -------- -- --- ------ ------,247979.5,247976.60000038147,247573.042,247574.90000009537,247589.709,247989.717,,37,an
screen,html.Screen,2_3_1_0_1_38,2022-05-03T18:58:20.407Z,,,,,,,,,,,,,,,,,12,,,,,,,,,,,,,,426.7829999999958,,response,,,,5,A,,,,,,Space,keypress(Space),,,,silence,,,,---- ------ ------ ------- ------ --- ------- -----------<br>-- ----- --- ---- -- --- ------ ---- - ---- -- ----------<br>-- ------ ---- --- ---- --- --- --- ----- -- -------- ---<br>------ ------- -------- --- ---- -- unusual ------------ --<br>------ -- ---- -- --- ---- -- -------- -- --- ------ ------,248420,248416.5,247973.05,247979.7000002861,247989.717,248423.059,,38,unusual
screen,html.Screen,2_3_1_0_1_39,2022-05-03T18:58:20.808Z,,,,,,,,,,,,,,,,,12,,,,,,,,,,,,,,395.54100038146134,,response,,,,5,A,,,,,,Space,keypress(Space),,,,silence,,,,---- ------ ------ ------- ------ --- ------- -----------<br>-- ----- --- ---- -- --- ------ ---- - ---- -- ----------<br>-- ------ ---- --- ---- --- --- --- ----- -- -------- ---<br>------ ------- -------- --- ---- -- ------- stipulation: --<br>------ -- ---- -- --- ---- -- -------- -- --- ------ ------,248821.60000038147,248818.60000038147,248406.392,248420.10000038147,248423.059,248823.067,,39,stipulation:
screen,html.Screen,2_3_1_0_1_40,2022-05-03T18:58:21.253Z,,,,,,,,,,,,,,,,,12,,,,,,,,,,,,,,440.5330003814597,,response,,,,5,A,,,,,,Space,keypress(Space),,,,silence,,,,---- ------ ------ ------- ------ --- ------- -----------<br>-- ----- --- ---- -- --- ------ ---- - ---- -- ----------<br>-- ------ ---- --- ---- --- --- --- ----- -- -------- ---<br>------ ------- -------- --- ---- -- ------- ------------ He<br>------ -- ---- -- --- ---- -- -------- -- --- ------ ------,249266.5,249263.60000038147,248806.4,248821.7000002861,248823.067,249273.076,,40,He
screen,html.Screen,2_3_1_0_1_41,2022-05-03T18:58:21.697Z,,,,,,,,,,,,,,,,,12,,,,,,,,,,,,,,433.42399999999907,,response,,,,5,A,,,,,,Space,keypress(Space),,,,silence,,,,---- ------ ------ ------- ------ --- ------- -----------<br>-- ----- --- ---- -- --- ------ ---- - ---- -- ----------<br>-- ------ ---- --- ---- --- --- --- ----- -- -------- ---<br>------ ------- -------- --- ---- -- ------- ------------ --<br>wanted -- ---- -- --- ---- -- -------- -- --- ------ ------,249709.7000002861,249706.5,249256.409,249266.60000038147,249273.076,249723.085,,41,wanted
screen,html.Screen,2_3_1_0_1_42,2022-05-03T18:58:22.114Z,,,,,,,,,,,,,,,,,12,,,,,,,,,,,,,,400.41500000000815,,response,,,,5,A,,,,,,Space,keypress(Space),,,,silence,,,,---- ------ ------ ------- ------ --- ------- -----------<br>-- ----- --- ---- -- --- ------ ---- - ---- -- ----------<br>-- ------ ---- --- ---- --- --- --- ----- -- -------- ---<br>------ ------- -------- --- ---- -- ------- ------------ --<br>------ as ---- -- --- ---- -- -------- -- --- ------ ------,250126.60000038147,250123.5,249706.418,249709.80000019073,249723.085,250139.76,,42,as
screen,html.Screen,2_3_1_0_1_43,2022-05-03T18:58:22.536Z,,,,,,,,,,,,,,,,,12,,,,,,,,,,,,,,406.6400000953581,,response,,,,5,A,,,,,,Space,keypress(Space),,,,silence,,,,---- ------ ------ ------- ------ --- ------- -----------<br>-- ----- --- ---- -- --- ------ ---- - ---- -- ----------<br>-- ------ ---- --- ---- --- --- --- ----- -- -------- ---<br>------ ------- -------- --- ---- -- ------- ------------ --<br>------ -- much -- --- ---- -- -------- -- --- ------ ------,250549.40000009537,250546.40000009537,250123.093,250126.7000002861,250139.76,250556.435,,43,much
