sender,sender_type,sender_id,timestamp,meta,,Blues,Classical,Country,Dance,Electronic,Folk,Gospel,Hip-Hop,Jazz,Latin,Musical/Film,New-age,Pop,Prolific_id,Provo_ID,R&B,Rap,Reggae,Religious,Rock,Soul,Swing,Traditional,age,artist_name,correct,correctResponse,distraction,duration,education,ended_on,familiarity,gender,headphone_check_performance,item,list,music_frequency,offensiveness,pleasantness,position_correct,preference,response,response_action,snippet_file,song_name,song_rating,sound,stimulus_1,stimulus_2,stimulus_3,text,time_commit,time_end,time_render,time_run,time_show,time_switch,url,word,word_ID
Prolific ID,html.Form,0,2022-05-12T15:31:34.329Z,"{""labjs_version"":""20.2.2"",""labjs_build"":{""flavor"":""production"",""commit"":""a25486e0c714a0ae2ce03ff94b7bb6896854dcfa""},""location"":""https://run.pavlovia.org/mvasilev/prolific3_music_f/"",""userAgent"":""Mozilla/5.0 (Windows NT 10.0; Win64; x64) AppleWebKit/537.36 (KHTML, like Gecko) Chrome/101.0.4951.54 Safari/537.36"",""platform"":""Win32"",""language"":""en-GB"",""locale"":""en-GB"",""timeZone"":""Europe/London"",""timezoneOffset"":-60,""screen_width"":1920,""screen_height"":1080,""scroll_width"":1920,""scroll_height"":881,""window_innerWidth"":1920,""window_innerHeight"":929,""devicePixelRatio"":1}",,,,,,,,,,,,,,,61f2abc1a09e72f23cbaf47f,,,,,,,,,,,,,,,10171.22000002384,,form submission,,,,,,,,,,,,,,,,,,,,,31475.90000000596,31475.600000023842,21287.533,21292.600000023842,21304.38,31486.984,{},,
Introduction,html.Screen,1_0,2022-05-12T15:31:41.210Z,,,,,,,,,,,,,,,,,,,,,,,,,,,,,,,6867.91600000596,,response,,,,,,,,,,,continue,click button,,,,,,,,,38357,38354.90000000596,31467.376,31476.100000023842,31486.984,38369.353,,,
Volume calibration,html.Screen,1_1,2022-05-12T15:32:17.010Z,,,,,,,,,,,,,,,,,,,,,,,,,,,,,,,35784.54700000596,,response,,,,,,,,,,,continue,click button,,,,,,,,,74156.60000002384,74153.90000000596,38352.859,38357.10000002384,38369.353,74165.744,,,
Task instructions,html.Screen,1_2,2022-05-12T15:32:24.012Z,,,,,,,,,,,,,,,,,,,,,,,,,,,,,,,6991.856000023836,,response,,,,,,,,,,,continue,click button,,,,,,,,,81158.20000001788,81157.60000002384,74149.18,74156.70000001788,74165.744,81165.163,,,
Sounds,html.Screen,1_3_0_0,2022-05-12T15:32:28.258Z,,,,,,,,,,,,,,,,,,,,,,,,,,,,,,,4249.523000000001,,timeout,,,,,,,,,2,,,,,,,,O,S,I,,85404.20000001788,85398.469,81148.701,81158.40000000596,81165.163,85414.686,,,
Judgement,html.Screen,1_3_0_1,2022-05-12T15:32:29.081Z,,,,,,,,,,,,,,,,,,,,,,,,,,,,true,2,,812.6140000119194,,response,,,,,,,,,2,,2,click #choice-2,,,,,O,S,I,,86227.90000000596,86227.30000001192,85398.469,85404.5,85414.686,86231.282,,,
Trial,flow.Sequence,1_3_0,2022-05-12T15:32:29.081Z,,,,,,,,,,,,,,,,,,,,,,,,,,,,,,,5062.1370000119205,,completion,,,,,,,,,2,,,,,,,,O,S,I,,86228.10000002384,86227.30000001192,81148.701,81158.40000000596,81165.163,86231.282,,,
Sounds,html.Screen,1_3_1_0,2022-05-12T15:32:33.318Z,,,,,,,,,,,,,,,,,,,,,,,,,,,,,,,4249.925999999992,,timeout,,,,,,,,,3,,,,,,,,I,O,S,,90465.20000001788,90464.452,86214.39,86228.30000001192,86231.282,90481.208,,,
Judgement,html.Screen,1_3_1_1,2022-05-12T15:32:33.832Z,,,,,,,,,,,,,,,,,,,,,,,,,,,,true,3,,496.5920000119222,,response,,,,,,,,,3,,3,click #choice-3,,,,,I,O,S,,90978.5,90977.80000001192,90464.452,90465.20000001788,90481.208,90980.836,,,
Trial,flow.Sequence,1_3_1,2022-05-12T15:32:33.832Z,,,,,,,,,,,,,,,,,,,,,,,,,,,,,,,4746.518000011914,,completion,,,,,,,,,3,,,,,,,,I,O,S,,90978.70000001788,90977.80000001192,86214.39,86228.20000001788,86231.282,90980.836,,,
Sounds,html.Screen,1_3_2_0,2022-05-12T15:32:38.068Z,,,,,,,,,,,,,,,,,,,,,,,,,,,,,,,4249.874000000011,,timeout,,,,,,,,,2,,,,,,,,I,S,O,,95214.70000001788,95213.763,90964.196,90978.80000001192,90980.836,95230.71,,,
Judgement,html.Screen,1_3_2_1,2022-05-12T15:32:38.504Z,,,,,,,,,,,,,,,,,,,,,,,,,,,,true,2,,419.5900000119145,,response,,,,,,,,,2,,2,click #choice-2,,,,,I,S,O,,95650.90000000596,95650.30000001192,95213.763,95214.90000000596,95230.71,95664.165,,,
Trial,flow.Sequence,1_3_2,2022-05-12T15:32:38.504Z,,,,,,,,,,,,,,,,,,,,,,,,,,,,,,,4669.464000011925,,completion,,,,,,,,,2,,,,,,,,I,S,O,,95651.20000001788,95650.30000001192,90964.196,90978.80000001192,90980.836,95664.165,,,
Sounds,html.Screen,1_3_3_0,2022-05-12T15:32:42.751Z,,,,,,,,,,,,,,,,,,,,,,,,,,,,,,,4249.112000000008,,timeout,,,,,,,,,1,,,,,,,,S,I,O,,99898.20000001788,99896.885,95647.266,95651.20000001788,95664.165,99913.277,,,
Judgement,html.Screen,1_3_3_1,2022-05-12T15:32:43.261Z,,,,,,,,,,,,,,,,,,,,,,,,,,,,true,1,,494.02300001191907,,response,,,,,,,,,1,,1,click #choice-1,,,,,S,I,O,,100407.90000000596,100407.30000001192,99896.885,99898.40000000596,99913.277,100413.168,,,
Trial,flow.Sequence,1_3_3,2022-05-12T15:32:43.261Z,,,,,,,,,,,,,,,,,,,,,,,,,,,,,,,4743.135000011927,,completion,,,,,,,,,1,,,,,,,,S,I,O,,100408.10000002384,100407.30000001192,95647.266,95651.20000001788,95664.165,100413.168,,,
Sounds,html.Screen,1_3_4_0,2022-05-12T15:32:47.501Z,,,,,,,,,,,,,,,,,,,,,,,,,,,,,,,4249.661999999997,,timeout,,,,,,,,,1,,,,,,,,S,O,I,,104647.5,104646.176,100396.659,100408.20000001788,100413.168,104662.83,,,
Judgement,html.Screen,1_3_4_1,2022-05-12T15:32:48.060Z,,,,,,,,,,,,,,,,,,,,,,,,,,,,true,1,,542.9700000119192,,response,,,,,,,,,1,,1,click #choice-1,,,,,S,O,I,,105206.40000000596,105205.80000001192,104646.176,104647.80000001192,104662.83,105212.732,,,
Trial,flow.Sequence,1_3_4,2022-05-12T15:32:48.060Z,,,,,,,,,,,,,,,,,,,,,,,,,,,,,,,4792.632000011916,,completion,,,,,,,,,1,,,,,,,,S,O,I,,105206.5,105205.80000001192,100396.659,100408.10000002384,100413.168,105212.732,,,
Sounds,html.Screen,1_3_5_0,2022-05-12T15:32:52.301Z,,,,,,,,,,,,,,,,,,,,,,,,,,,,,,,4249.5929999999935,,timeout,,,,,,,,,3,,,,,,,,O,I,S,,109447.20000001788,109445.687,105196.304,105206.60000002384,105212.732,109462.325,,,
Judgement,html.Screen,1_3_5_1,2022-05-12T15:32:52.795Z,,,,,,,,,,,,,,,,,,,,,,,,,,,,true,3,,478.3750000178843,,response,,,,,,,,,3,,3,click #choice-3,,,,,O,I,S,,109941.40000000596,109940.70000001788,109445.687,109447.5,109462.325,109945.588,,,
Trial,flow.Sequence,1_3_5,2022-05-12T15:32:52.795Z,,,,,,,,,,,,,,,,,,,,,,,,,,,,,,,4727.968000017878,,completion,,,,,,,,,3,,,,,,,,O,I,S,,109941.60000002384,109940.70000001788,105196.304,105206.60000002384,105212.732,109945.588,,,
Task,flow.Loop,1_3,2022-05-12T15:32:52.799Z,,,,,,,,,,,,,,,,,,,,,,,,,,,,,,,28775.53700001788,,completion,,,1,,,,,,,,,,,,,,,,,,109946,109940.70000001788,81148.701,81158.30000001192,81165.163,109945.588,,,
Trap,html.Screen,1_4,2022-05-12T15:32:52.800Z,,,,,,,,,,,,,,,,,,,,,,,,,,,,,,,NaN,,skipped,,,,,,,,,,,,,,,,,,,,,109947.10000002384,109940.70000001788,,109947,,109945.588,,,
Thanks,html.Screen,1_5,2022-05-12T15:32:56.368Z,,,,,,,,,,,,,,,,,,,,,,,,,,,,,,,3568.9119999999966,,response,,,,,,,,,,,continue,click button,,,,,,,,,113515,113514.5,109929.314,109947.10000002384,109945.588,118128.041,,,
Headphone screening,flow.Sequence,1,2022-05-12T15:32:56.368Z,,,,,,,,,,,,,,,,,,,,,,,,,,,,,,,82027.516,,completion,,,,,,,,,,,,,,,,,,,,,113515.20000001788,113514.5,31467.376,31476,31486.984,118128.041,,,
Instructions,html.Page,2_0,2022-05-12T15:33:13.014Z,,,,,,,,,,,,,,,,,,,,,,,,,,,,,,,12032.259000011923,,form submission,,,,,,,,,,,,,,,,,,,,,130160.60000002384,130160.30000001192,118111.4,118116,118128.041,130191.111,,,
Holding screen,html.Screen,2_1_0_0,2022-05-12T15:33:23.030Z,,,,,,,,,,,,,,,,,,,,,,,,,,,,,,,10018.098999999987,,timeout,,,,,,,,,,,,,,,,,,,,,140177.10000002384,140176.318,130143.843,130161.10000002384,130191.111,140209.21,,,
screen,html.Screen,2_1_0_1_0,2022-05-12T15:33:24.494Z,,,,,,,,,,,,,,,,,53,,,,,,,,,,,,,,1426.6900000059686,,response,,,,99,,,,,,,Space,keypress(Space),,,,,,,,When -- ----- -- ------ - ------- --- ----------<br>------------- ------ ------ ---- ---- ------- ----- -- ----<br>-------- ------- -- ---------- --- - --- ----- ----- ----<br>---- --- --- ----- --- ---- ---- ------- ----- ---- -------<br>--- --- -- ----- -- --- ---- -- --- ---- -- ------ ------<br>--- ----- -- ----,141641.10000002384,141635.90000000596,140176.318,140177.10000002384,140209.21,141668.195,,0,When
screen,html.Screen,2_1_0_1_1,2022-05-12T15:33:24.916Z,,,,,,,,,,,,,,,,,53,,,,,,,,,,,,,,393.304999999993,,response,,,,99,,,,,,,Space,keypress(Space),,,,,,,,---- it ----- -- ------ - ------- --- ----------<br>------------- ------ ------ ---- ---- ------- ----- -- ----<br>-------- ------- -- ---------- --- - --- ----- ----- ----<br>---- --- --- ----- --- ---- ---- ------- ----- ---- -------<br>--- --- -- ----- -- --- ---- -- --- ---- -- ------ ------<br>--- ----- -- ----,142062.30000001192,142061.5,141625.825,141641.40000000596,141668.195,142076.063,,1,it
screen,html.Screen,2_1_0_1_2,2022-05-12T15:33:25.281Z,,,,,,,,,,,,,,,,,53,,,,,,,,,,,,,,350.13700001788675,,response,,,,99,,,,,,,Space,keypress(Space),,,,,,,,---- -- comes -- ------ - ------- --- ----------<br>------------- ------ ------ ---- ---- ------- ----- -- ----<br>-------- ------- -- ---------- --- - --- ----- ----- ----<br>---- --- --- ----- --- ---- ---- ------- ----- ---- -------<br>--- --- -- ----- -- --- ---- -- --- ---- -- ------ ------<br>--- ----- -- ----,142427.10000002384,142426.20000001788,142059.439,142062.5,142076.063,142442.497,,2,comes
screen,html.Screen,2_1_0_1_3,2022-05-12T15:33:25.614Z,,,,,,,,,,,,,,,,,53,,,,,,,,,,,,,,317.40300000595744,,response,,,,99,,,,,,,Space,keypress(Space),,,,,,,,---- -- ----- to ------ - ------- --- ----------<br>------------- ------ ------ ---- ---- ------- ----- -- ----<br>-------- ------- -- ---------- --- - --- ----- ----- ----<br>---- --- --- ----- --- ---- ---- ------- ----- ---- -------<br>--- --- -- ----- -- --- ---- -- --- ---- -- ------ ------<br>--- ----- -- ----,142760.30000001192,142759.90000000596,142425.998,142427.40000000596,142442.497,142775.96,,3,to
screen,html.Screen,2_1_0_1_4,2022-05-12T15:33:25.948Z,,,,,,,,,,,,,,,,,53,,,,,,,,,,,,,,317.8400000119291,,response,,,,99,,,,,,,Space,keypress(Space),,,,,,,,---- -- ----- -- having - ------- --- ----------<br>------------- ------ ------ ---- ---- ------- ----- -- ----<br>-------- ------- -- ---------- --- - --- ----- ----- ----<br>---- --- --- ----- --- ---- ---- ------- ----- ---- -------<br>--- --- -- ----- -- --- ---- -- --- ---- -- ------ ------<br>--- ----- -- ----,143094.70000001788,143093.80000001192,142759.037,142760.40000000596,142775.96,143109.069,,4,having
screen,html.Screen,2_1_0_1_5,2022-05-12T15:33:26.311Z,,,,,,,,,,,,,,,,,53,,,,,,,,,,,,,,347.53100002385327,,response,,,,99,,,,,,,Space,keypress(Space),,,,,,,,---- -- ----- -- ------ a ------- --- ----------<br>------------- ------ ------ ---- ---- ------- ----- -- ----<br>-------- ------- -- ---------- --- - --- ----- ----- ----<br>---- --- --- ----- --- ---- ---- ------- ----- ---- -------<br>--- --- -- ----- -- --- ---- -- --- ---- -- ------ ------<br>--- ----- -- ----,143457.5,143456.60000002384,143092.306,143095,143109.069,143483.105,,5,a
screen,html.Screen,2_1_0_1_6,2022-05-12T15:33:26.731Z,,,,,,,,,,,,,,,,,53,,,,,,,,,,,,,,393.29500000595,,response,,,,99,,,,,,,Space,keypress(Space),,,,,,,,---- -- ----- -- ------ - lasting --- ----------<br>------------- ------ ------ ---- ---- ------- ----- -- ----<br>-------- ------- -- ---------- --- - --- ----- ----- ----<br>---- --- --- ----- --- ---- ---- ------- ----- ---- -------<br>--- --- -- ----- -- --- ---- -- --- ---- -- ------ ------<br>--- ----- -- ----,143877.5,143876.40000000596,143442.313,143457.90000000596,143483.105,143892.33,,6,lasting
screen,html.Screen,2_1_0_1_7,2022-05-12T15:33:27.073Z,,,,,,,,,,,,,,,,,53,,,,,,,,,,,,,,326.6700000000128,,response,,,,99,,,,,,,Space,keypress(Space),,,,,,,,---- -- ----- -- ------ - ------- and ----------<br>------------- ------ ------ ---- ---- ------- ----- -- ----<br>-------- ------- -- ---------- --- - --- ----- ----- ----<br>---- --- --- ----- --- ---- ---- ------- ----- ---- -------<br>--- --- -- ----- -- --- ---- -- --- ---- -- ------ ------<br>--- ----- -- ----,144220,144219,143875.793,143877.70000001788,143892.33,144225.48,,7,and
screen,html.Screen,2_1_0_1_8,2022-05-12T15:33:27.460Z,,,,,,,,,,,,,,,,,53,,,,,,,,,,,,,,380.42000000595,,response,,,,99,,,,,,,Space,keypress(Space),,,,,,,,---- -- ----- -- ------ - ------- --- fulfilling<br>------------- ------ ------ ---- ---- ------- ----- -- ----<br>-------- ------- -- ---------- --- - --- ----- ----- ----<br>---- --- --- ----- --- ---- ---- ------- ----- ---- -------<br>--- --- -- ----- -- --- ---- -- --- ---- -- ------ ------<br>--- ----- -- ----,144606.90000000596,144605.90000000596,144209.075,144220.30000001192,144225.48,144608.848,,8,fulfilling
screen,html.Screen,2_1_0_1_9,2022-05-12T15:33:27.874Z,,,,,,,,,,,,,,,,,53,,,,,,,,,,,,,,411.0520000059623,,response,,,,99,,,,,,,Space,keypress(Space),,,,,,,,"---- -- ----- -- ------ - ------- --- ----------<br>relationship, ------ ------ ---- ---- ------- ----- -- ----<br>-------- ------- -- ---------- --- - --- ----- ----- ----<br>---- --- --- ----- --- ---- ---- ------- ----- ---- -------<br>--- --- -- ----- -- --- ---- -- --- ---- -- ------ ------<br>--- ----- -- ----",145020.60000002384,145019.90000000596,144592.086,144607.10000002384,144608.848,145025.457,,9,"relationship,"
screen,html.Screen,2_1_0_1_10,2022-05-12T15:33:28.243Z,,,,,,,,,,,,,,,,,53,,,,,,,,,,,,,,363.5430000000051,,response,,,,99,,,,,,,Space,keypress(Space),,,,,,,,---- -- ----- -- ------ - ------- --- ----------<br>------------- common ------ ---- ---- ------- ----- -- ----<br>-------- ------- -- ---------- --- - --- ----- ----- ----<br>---- --- --- ----- --- ---- ---- ------- ----- ---- -------<br>--- --- -- ----- -- --- ---- -- --- ---- -- ------ ------<br>--- ----- -- ----,145389.70000001788,145389,145009.156,145020.80000001192,145025.457,145392.033,,10,common
screen,html.Screen,2_1_0_1_11,2022-05-12T15:33:28.600Z,,,,,,,,,,,,,,,,,53,,,,,,,,,,,,,,353.86700000596466,,response,,,,99,,,,,,,Space,keypress(Space),,,,,,,,---- -- ----- -- ------ - ------- --- ----------<br>------------- ------ wisdom ---- ---- ------- ----- -- ----<br>-------- ------- -- ---------- --- - --- ----- ----- ----<br>---- --- --- ----- --- ---- ---- ------- ----- ---- -------<br>--- --- -- ----- -- --- ---- -- --- ---- -- ------ ------<br>--- ----- -- ----,145746.30000001192,145745.90000000596,145375.408,145389.80000001192,145392.033,145758.76,,11,wisdom
screen,html.Screen,2_1_0_1_12,2022-05-12T15:33:28.956Z,,,,,,,,,,,,,,,,,53,,,,,,,,,,,,,,343.64000000595115,,response,,,,99,,,,,,,Space,keypress(Space),,,,,,,,---- -- ----- -- ------ - ------- --- ----------<br>------------- ------ ------ says ---- ------- ----- -- ----<br>-------- ------- -- ---------- --- - --- ----- ----- ----<br>---- --- --- ----- --- ---- ---- ------- ----- ---- -------<br>--- --- -- ----- -- --- ---- -- --- ---- -- ------ ------<br>--- ----- -- ----,146102.80000001192,146102.40000000596,145742.287,145746.40000000596,145758.76,146108.696,,12,says
screen,html.Screen,2_1_0_1_13,2022-05-12T15:33:29.252Z,,,,,,,,,,,,,,,,,53,,,,,,,,,,,,,,288.9040000238456,,response,,,,99,,,,,,,Space,keypress(Space),,,,,,,,---- -- ----- -- ------ - ------- --- ----------<br>------------- ------ ------ ---- that ------- ----- -- ----<br>-------- ------- -- ---------- --- - --- ----- ----- ----<br>---- --- --- ----- --- ---- ---- ------- ----- ---- -------<br>--- --- -- ----- -- --- ---- -- --- ---- -- ------ ------<br>--- ----- -- ----,146398.60000002384,146397.60000002384,146092.397,146102.90000000596,146108.696,146408.945,,13,that
screen,html.Screen,2_1_0_1_14,2022-05-12T15:33:29.605Z,,,,,,,,,,,,,,,,,53,,,,,,,,,,,,,,342.054999999993,,response,,,,99,,,,,,,Space,keypress(Space),,,,,,,,---- -- ----- -- ------ - ------- --- ----------<br>------------- ------ ------ ---- ---- feeling ----- -- ----<br>-------- ------- -- ---------- --- - --- ----- ----- ----<br>---- --- --- ----- --- ---- ---- ------- ----- ---- -------<br>--- --- -- ----- -- --- ---- -- --- ---- -- ------ ------<br>--- ----- -- ----,146751.90000000596,146751,146392.271,146398.90000000596,146408.945,146758.637,,14,feeling
screen,html.Screen,2_1_0_1_15,2022-05-12T15:33:29.916Z,,,,,,,,,,,,,,,,,53,,,,,,,,,,,,,,302.8630000000121,,response,,,,99,,,,,,,Space,keypress(Space),,,,,,,,---- -- ----- -- ------ - ------- --- ----------<br>------------- ------ ------ ---- ---- ------- close -- ----<br>-------- ------- -- ---------- --- - --- ----- ----- ----<br>---- --- --- ----- --- ---- ---- ------- ----- ---- -------<br>--- --- -- ----- -- --- ---- -- --- ---- -- ------ ------<br>--- ----- -- ----,147062.60000002384,147061.5,146742.199,146752.20000001788,146758.637,147075.535,,15,close
screen,html.Screen,2_1_0_1_16,2022-05-12T15:33:30.225Z,,,,,,,,,,,,,,,,,53,,,,,,,,,,,,,,295.06500002383837,,response,,,,99,,,,,,,Space,keypress(Space),,,,,,,,---- -- ----- -- ------ - ------- --- ----------<br>------------- ------ ------ ---- ---- ------- ----- to ----<br>-------- ------- -- ---------- --- - --- ----- ----- ----<br>---- --- --- ----- --- ---- ---- ------- ----- ---- -------<br>--- --- -- ----- -- --- ---- -- --- ---- -- ------ ------<br>--- ----- -- ----,147371.60000002384,147370.60000002384,147058.726,147062.80000001192,147075.535,147375.254,,16,to
screen,html.Screen,2_1_0_1_17,2022-05-12T15:33:30.567Z,,,,,,,,,,,,,,,,,53,,,,,,,,,,,,,,337.74600000001374,,response,,,,99,,,,,,,Space,keypress(Space),,,,,,,,---- -- ----- -- ------ - ------- --- ----------<br>------------- ------ ------ ---- ---- ------- ----- -- your<br>-------- ------- -- ---------- --- - --- ----- ----- ----<br>---- --- --- ----- --- ---- ---- ------- ----- ---- -------<br>--- --- -- ----- -- --- ---- -- --- ---- -- ------ ------<br>--- ----- -- ----,147713.40000000596,147713,147358.827,147371.90000000596,147375.254,147725.511,,17,your
screen,html.Screen,2_1_0_1_18,2022-05-12T15:33:30.948Z,,,,,,,,,,,,,,,,,53,,,,,,,,,,,,,,368.08900002384325,,response,,,,99,,,,,,,Space,keypress(Space),,,,,,,,---- -- ----- -- ------ - ------- --- ----------<br>------------- ------ ------ ---- ---- ------- ----- -- ----<br>romantic ------- -- ---------- --- - --- ----- ----- ----<br>---- --- --- ----- --- ---- ---- ------- ----- ---- -------<br>--- --- -- ----- -- --- ---- -- --- ---- -- ------ ------<br>--- ----- -- ----,148094.60000002384,148093.60000002384,147708.726,147713.5,147725.511,148108.459,,18,romantic
screen,html.Screen,2_1_0_1_19,2022-05-12T15:33:31.292Z,,,,,,,,,,,,,,,,,53,,,,,,,,,,,,,,329.4410000059579,,response,,,,99,,,,,,,Space,keypress(Space),,,,,,,,---- -- ----- -- ------ - ------- --- ----------<br>------------- ------ ------ ---- ---- ------- ----- -- ----<br>-------- partner -- ---------- --- - --- ----- ----- ----<br>---- --- --- ----- --- ---- ---- ------- ----- ---- -------<br>--- --- -- ----- -- --- ---- -- --- ---- -- ------ ------<br>--- ----- -- ----,148438.90000000596,148437.90000000596,148091.858,148094.80000001192,148108.459,148441.801,,19,partner
screen,html.Screen,2_1_0_1_20,2022-05-12T15:33:31.619Z,,,,,,,,,,,,,,,,,53,,,,,,,,,,,,,,322.89900001787464,,response,,,,99,,,,,,,Space,keypress(Space),,,,,,,,---- -- ----- -- ------ - ------- --- ----------<br>------------- ------ ------ ---- ---- ------- ----- -- ----<br>-------- ------- is ---------- --- - --- ----- ----- ----<br>---- --- --- ----- --- ---- ---- ------- ----- ---- -------<br>--- --- -- ----- -- --- ---- -- --- ---- -- ------ ------<br>--- ----- -- ----,148765.70000001788,148764.70000001788,148425.086,148439.20000001788,148441.801,148775.16,,20,is
screen,html.Screen,2_1_0_1_21,2022-05-12T15:33:32.137Z,,,,,,,,,,,,,,,,,53,,,,,,,,,,,,,,507.14000001191744,,response,,,,99,,,,,,,Space,keypress(Space),,,,,,,,---- -- ----- -- ------ - ------- --- ----------<br>------------- ------ ------ ---- ---- ------- ----- -- ----<br>-------- ------- -- paramount. --- - --- ----- ----- ----<br>---- --- --- ----- --- ---- ---- ------- ----- ---- -------<br>--- --- -- ----- -- --- ---- -- --- ---- -- ------ ------<br>--- ----- -- ----,149283.40000000596,149282.30000001192,148758.348,148766.10000002384,148775.16,149291.751,,21,paramount.
screen,html.Screen,2_1_0_1_22,2022-05-12T15:33:32.527Z,,,,,,,,,,,,,,,,,53,,,,,,,,,,,,,,381.34900002385257,,response,,,,99,,,,,,,Space,keypress(Space),,,,,,,,---- -- ----- -- ------ - ------- --- ----------<br>------------- ------ ------ ---- ---- ------- ----- -- ----<br>-------- ------- -- ---------- But - --- ----- ----- ----<br>---- --- --- ----- --- ---- ---- ------- ----- ---- -------<br>--- --- -- ----- -- --- ---- -- --- ---- -- ------ ------<br>--- ----- -- ----,149674,149673.10000002384,149275.251,149283.70000001788,149291.751,149708.28,,22,But
screen,html.Screen,2_1_0_1_23,2022-05-12T15:33:32.850Z,,,,,,,,,,,,,,,,,53,,,,,,,,,,,,,,287.72000000000116,,response,,,,99,,,,,,,Space,keypress(Space),,,,,,,,---- -- ----- -- ------ - ------- --- ----------<br>------------- ------ ------ ---- ---- ------- ----- -- ----<br>-------- ------- -- ---------- --- a --- ----- ----- ----<br>---- --- --- ----- --- ---- ---- ------- ----- ---- -------<br>--- --- -- ----- -- --- ---- -- --- ---- -- ------ ------<br>--- ----- -- ----,149996.90000000596,149996,149691.935,149674.40000000596,149708.28,150008.292,,23,a
screen,html.Screen,2_1_0_1_24,2022-05-12T15:33:33.148Z,,,,,,,,,,,,,,,,,53,,,,,,,,,,,,,,285.30800002385513,,response,,,,99,,,,,,,Space,keypress(Space),,,,,,,,---- -- ----- -- ------ - ------- --- ----------<br>------------- ------ ------ ---- ---- ------- ----- -- ----<br>-------- ------- -- ---------- --- - new ----- ----- ----<br>---- --- --- ----- --- ---- ---- ------- ----- ---- -------<br>--- --- -- ----- -- --- ---- -- --- ---- -- ------ ------<br>--- ----- -- ----,150294.70000001788,150293.60000002384,149991.682,149997.20000001788,150008.292,150308.553,,24,new
screen,html.Screen,2_1_0_1_25,2022-05-12T15:33:33.508Z,,,,,,,,,,,,,,,,,53,,,,,,,,,,,,,,345.2470000119065,,response,,,,99,,,,,,,Space,keypress(Space),,,,,,,,---- -- ----- -- ------ - ------- --- ----------<br>------------- ------ ------ ---- ---- ------- ----- -- ----<br>-------- ------- -- ---------- --- - --- study ----- ----<br>---- --- --- ----- --- ---- ---- ------- ----- ---- -------<br>--- --- -- ----- -- --- ---- -- --- ---- -- ------ ------<br>--- ----- -- ----,150654.90000000596,150653.80000001192,150291.91,150295,150308.553,150658.276,,25,study
screen,html.Screen,2_1_0_1_26,2022-05-12T15:33:33.855Z,,,,,,,,,,,,,,,,,53,,,,,,,,,,,,,,342.6240000059479,,response,,,,99,,,,,,,Space,keypress(Space),,,,,,,,---- -- ----- -- ------ - ------- --- ----------<br>------------- ------ ------ ---- ---- ------- ----- -- ----<br>-------- ------- -- ---------- --- - --- ----- finds ----<br>---- --- --- ----- --- ---- ---- ------- ----- ---- -------<br>--- --- -- ----- -- --- ---- -- --- ---- -- ------ ------<br>--- ----- -- ----,151001.60000002384,151000.90000000596,150641.635,150655.20000001788,150658.276,151008.206,,26,finds
screen,html.Screen,2_1_0_1_27,2022-05-12T15:33:34.185Z,,,,,,,,,,,,,,,,,53,,,,,,,,,,,,,,322.39400002383627,,response,,,,99,,,,,,,Space,keypress(Space),,,,,,,,---- -- ----- -- ------ - ------- --- ----------<br>------------- ------ ------ ---- ---- ------- ----- -- ----<br>-------- ------- -- ---------- --- - --- ----- ----- that<br>---- --- --- ----- --- ---- ---- ------- ----- ---- -------<br>--- --- -- ----- -- --- ---- -- --- ---- -- ------ ------<br>--- ----- -- ----,151331.60000002384,151330.60000002384,150991.816,151001.80000001192,151008.206,151341.543,,27,that
screen,html.Screen,2_1_0_1_28,2022-05-12T15:33:34.521Z,,,,,,,,,,,,,,,,,53,,,,,,,,,,,,,,325.4569999999949,,response,,,,99,,,,,,,Space,keypress(Space),,,,,,,,---- -- ----- -- ------ - ------- --- ----------<br>------------- ------ ------ ---- ---- ------- ----- -- ----<br>-------- ------- -- ---------- --- - --- ----- ----- ----<br>it's --- --- ----- --- ---- ---- ------- ----- ---- -------<br>--- --- -- ----- -- --- ---- -- --- ---- -- ------ ------<br>--- ----- -- ----,151668,151667,151325.17,151331.90000000596,151341.543,151674.796,,28,it's
screen,html.Screen,2_1_0_1_29,2022-05-12T15:33:34.803Z,,,,,,,,,,,,,,,,,53,,,,,,,,,,,,,,273.80400002383976,,response,,,,99,,,,,,,Space,keypress(Space),,,,,,,,---- -- ----- -- ------ - ------- --- ----------<br>------------- ------ ------ ---- ---- ------- ----- -- ----<br>-------- ------- -- ---------- --- - --- ----- ----- ----<br>---- not --- ----- --- ---- ---- ------- ----- ---- -------<br>--- --- -- ----- -- --- ---- -- --- ---- -- ------ ------<br>--- ----- -- ----,151949.60000002384,151948.60000002384,151658.393,151668.30000001192,151674.796,151958.099,,29,not
screen,html.Screen,2_1_0_1_30,2022-05-12T15:33:35.123Z,,,,,,,,,,,,,,,,,53,,,,,,,,,,,,,,310.7010000119335,,response,,,,99,,,,,,,Space,keypress(Space),,,,,,,,---- -- ----- -- ------ - ------- --- ----------<br>------------- ------ ------ ---- ---- ------- ----- -- ----<br>-------- ------- -- ---------- --- - --- ----- ----- ----<br>---- --- how ----- --- ---- ---- ------- ----- ---- -------<br>--- --- -- ----- -- --- ---- -- --- ---- -- ------ ------<br>--- ----- -- ----,152269.20000001788,152268.80000001192,151941.657,151949.80000001192,151958.099,152275.049,,30,how
screen,html.Screen,2_1_0_1_31,2022-05-12T15:33:35.417Z,,,,,,,,,,,,,,,,,53,,,,,,,,,,,,,,287.45100000000093,,response,,,,99,,,,,,,Space,keypress(Space),,,,,,,,---- -- ----- -- ------ - ------- --- ----------<br>------------- ------ ------ ---- ---- ------- ----- -- ----<br>-------- ------- -- ---------- --- - --- ----- ----- ----<br>---- --- --- close --- ---- ---- ------- ----- ---- -------<br>--- --- -- ----- -- --- ---- -- --- ---- -- ------ ------<br>--- ----- -- ----,152563.40000000596,152562.5,152258.067,152269.30000001192,152275.049,152574.941,,31,close
screen,html.Screen,2_1_0_1_32,2022-05-12T15:33:35.765Z,,,,,,,,,,,,,,,,,53,,,,,,,,,,,,,,335.2590000178898,,response,,,,99,,,,,,,Space,keypress(Space),,,,,,,,---- -- ----- -- ------ - ------- --- ----------<br>------------- ------ ------ ---- ---- ------- ----- -- ----<br>-------- ------- -- ---------- --- - --- ----- ----- ----<br>---- --- --- ----- you ---- ---- ------- ----- ---- -------<br>--- --- -- ----- -- --- ---- -- --- ---- -- ------ ------<br>--- ----- -- ----,152911.10000002384,152910.20000001788,152558.308,152563.60000002384,152574.941,152924.773,,32,you
screen,html.Screen,2_1_0_1_33,2022-05-12T15:33:36.072Z,,,,,,,,,,,,,,,,,53,,,,,,,,,,,,,,293.52700001193443,,response,,,,99,,,,,,,Space,keypress(Space),,,,,,,,---- -- ----- -- ------ - ------- --- ----------<br>------------- ------ ------ ---- ---- ------- ----- -- ----<br>-------- ------- -- ---------- --- - --- ----- ----- ----<br>---- --- --- ----- --- feel ---- ------- ----- ---- -------<br>--- --- -- ----- -- --- ---- -- --- ---- -- ------ ------<br>--- ----- -- ----,153218.90000000596,153218.30000001192,152908.292,152911.5,152924.773,153224.606,,33,feel
screen,html.Screen,2_1_0_1_34,2022-05-12T15:33:36.447Z,,,,,,,,,,,,,,,,,53,,,,,,,,,,,,,,367.89400000000023,,response,,,,99,,,,,,,Space,keypress(Space),,,,,,,,---- -- ----- -- ------ - ------- --- ----------<br>------------- ------ ------ ---- ---- ------- ----- -- ----<br>-------- ------- -- ---------- --- - --- ----- ----- ----<br>---- --- --- ----- --- ---- that ------- ----- ---- -------<br>--- --- -- ----- -- --- ---- -- --- ---- -- ------ ------<br>--- ----- -- ----,153593.40000000596,153592.5,153208.234,153219,153224.606,153608.096,,34,that
screen,html.Screen,2_1_0_1_35,2022-05-12T15:33:36.774Z,,,,,,,,,,,,,,,,,53,,,,,,,,,,,,,,311.7040000119305,,response,,,,99,,,,,,,Space,keypress(Space),,,,,,,,---- -- ----- -- ------ - ------- --- ----------<br>------------- ------ ------ ---- ---- ------- ----- -- ----<br>-------- ------- -- ---------- --- - --- ----- ----- ----<br>---- --- --- ----- --- ---- ---- matters ----- ---- -------<br>--- --- -- ----- -- --- ---- -- --- ---- -- ------ ------<br>--- ----- -- ----,153920.70000001788,153919.80000001192,153591.567,153593.70000001788,153608.096,153924.615,,35,matters
screen,html.Screen,2_1_0_1_36,2022-05-12T15:33:37.179Z,,,,,,,,,,,,,,,,,53,,,,,,,,,,,,,,400.3850000000093,,response,,,,99,,,,,,,Space,keypress(Space),,,,,,,,"---- -- ----- -- ------ - ------- --- ----------<br>------------- ------ ------ ---- ---- ------- ----- -- ----<br>-------- ------- -- ---------- --- - --- ----- ----- ----<br>---- --- --- ----- --- ---- ---- ------- most, ---- -------<br>--- --- -- ----- -- --- ---- -- --- ---- -- ------ ------<br>--- ----- -- ----",154326,154325,153908.251,153921,153924.615,154341.63,,36,"most,"
screen,html.Screen,2_1_0_1_37,2022-05-12T15:33:37.612Z,,,,,,,,,,,,,,,,,53,,,,,,,,,,,,,,416.36999999999534,,response,,,,99,,,,,,,Space,keypress(Space),,,,,,,,---- -- ----- -- ------ - ------- --- ----------<br>------------- ------ ------ ---- ---- ------- ----- -- ----<br>-------- ------- -- ---------- --- - --- ----- ----- ----<br>---- --- --- ----- --- ---- ---- ------- ----- it's -------<br>--- --- -- ----- -- --- ---- -- --- ---- -- ------ ------<br>--- ----- -- ----,154759,154758,154324.875,154326.30000001192,154341.63,154774.611,,37,it's
screen,html.Screen,2_1_0_1_38,2022-05-12T15:33:37.960Z,,,,,,,,,,,,,,,,,53,,,,,,,,,,,,,,330.78900000595604,,response,,,,99,,,,,,,Space,keypress(Space),,,,,,,,---- -- ----- -- ------ - ------- --- ----------<br>------------- ------ ------ ---- ---- ------- ----- -- ----<br>-------- ------- -- ---------- --- - --- ----- ----- ----<br>---- --- --- ----- --- ---- ---- ------- ----- ---- whether<br>--- --- -- ----- -- --- ---- -- --- ---- -- ------ ------<br>--- ----- -- ----,155106.40000000596,155105.40000000596,154757.845,154759.20000001788,154774.611,155130.319,,38,whether
screen,html.Screen,2_1_0_1_39,2022-05-12T15:33:38.298Z,,,,,,,,,,,,,,,,,53,,,,,,,,,,,,,,313.48100001193234,,response,,,,99,,,,,,,Space,keypress(Space),,,,,,,,---- -- ----- -- ------ - ------- --- ----------<br>------------- ------ ------ ---- ---- ------- ----- -- ----<br>-------- ------- -- ---------- --- - --- ----- ----- ----<br>---- --- --- ----- --- ---- ---- ------- ----- ---- -------<br>you --- -- ----- -- --- ---- -- --- ---- -- ------ ------<br>--- ----- -- ----,155444.10000002384,155443.80000001192,155091.147,155106.70000001788,155130.319,155458.134,,39,you
screen,html.Screen,2_1_0_1_40,2022-05-12T15:33:38.574Z,,,,,,,,,,,,,,,,,53,,,,,,,,,,,,,,261.5660000178905,,response,,,,99,,,,,,,Space,keypress(Space),,,,,,,,---- -- ----- -- ------ - ------- --- ----------<br>------------- ------ ------ ---- ---- ------- ----- -- ----<br>-------- ------- -- ---------- --- - --- ----- ----- ----<br>---- --- --- ----- --- ---- ---- ------- ----- ---- -------<br>--- are -- ----- -- --- ---- -- --- ---- -- ------ ------<br>--- ----- -- ----,155720.20000001788,155719.70000001788,155441.335,155444.20000001788,155458.134,155724.392,,40,are
screen,html.Screen,2_1_0_1_41,2022-05-12T15:33:38.895Z,,,,,,,,,,,,,,,,,53,,,,,,,,,,,,,,316.10800000000745,,response,,,,99,,,,,,,Space,keypress(Space),,,,,,,,---- -- ----- -- ------ - ------- --- ----------<br>------------- ------ ------ ---- ---- ------- ----- -- ----<br>-------- ------- -- ---------- --- - --- ----- ----- ----<br>---- --- --- ----- --- ---- ---- ------- ----- ---- -------<br>--- --- as ----- -- --- ---- -- --- ---- -- ------ ------<br>--- ----- -- ----,156041.40000000596,156040.5,155707.835,155720.30000001192,155724.392,156058.003,,41,as
screen,html.Screen,2_1_0_1_42,2022-05-12T15:33:39.241Z,,,,,,,,,,,,,,,,,53,,,,,,,,,,,,,,329.497000000003,,response,,,,99,,,,,,,Space,keypress(Space),,,,,,,,---- -- ----- -- ------ - ------- --- ----------<br>------------- ------ ------ ---- ---- ------- ----- -- ----<br>-------- ------- -- ---------- --- - --- ----- ----- ----<br>---- --- --- ----- --- ---- ---- ------- ----- ---- -------<br>--- --- -- close -- --- ---- -- --- ---- -- ------ ------<br>--- ----- -- ----,156387.90000000596,156387.5,156041.059,156041.70000001788,156058.003,156391.041,,42,close
screen,html.Screen,2_1_0_1_43,2022-05-12T15:33:39.565Z,,,,,,,,,,,,,,,,,53,,,,,,,,,,,,,,319.859000005963,,response,,,,99,,,,,,,Space,keypress(Space),,,,,,,,---- -- ----- -- ------ - ------- --- ----------<br>------------- ------ ------ ---- ---- ------- ----- -- ----<br>-------- ------- -- ---------- --- - --- ----- ----- ----<br>---- --- --- ----- --- ---- ---- ------- ----- ---- -------<br>--- --- -- ----- as --- ---- -- --- ---- -- ------ ------<br>--- ----- -- ----,156711.90000000596,156710.90000000596,156374.347,156388,156391.041,156724.664,,43,as
screen,html.Screen,2_1_0_1_44,2022-05-12T15:33:39.892Z,,,,,,,,,,,,,,,,,53,,,,,,,,,,,,,,313.03600001789164,,response,,,,99,,,,,,,Space,keypress(Space),,,,,,,,---- -- ----- -- ------ - ------- --- ----------<br>------------- ------ ------ ---- ---- ------- ----- -- ----<br>-------- ------- -- ---------- --- - --- ----- ----- ----<br>---- --- --- ----- --- ---- ---- ------- ----- ---- -------<br>--- --- -- ----- -- you ---- -- --- ---- -- ------ ------<br>--- ----- -- ----,157038.20000001788,157037.70000001788,156707.59,156712.20000001788,156724.664,157040.933,,44,you
screen,html.Screen,2_1_0_1_45,2022-05-12T15:33:40.223Z,,,,,,,,,,,,,,,,,53,,,,,,,,,,,,,,327.86700001193094,,response,,,,99,,,,,,,Space,keypress(Space),,,,,,,,---- -- ----- -- ------ - ------- --- ----------<br>------------- ------ ------ ---- ---- ------- ----- -- ----<br>-------- ------- -- ---------- --- - --- ----- ----- ----<br>---- --- --- ----- --- ---- ---- ------- ----- ---- -------<br>--- --- -- ----- -- --- want -- --- ---- -- ------ ------<br>--- ----- -- ----,157369.70000001788,157368.80000001192,157024.488,157038.40000000596,157040.933,157374.2,,45,want
screen,html.Screen,2_1_0_1_46,2022-05-12T15:33:40.548Z,,,,,,,,,,,,,,,,,53,,,,,,,,,,,,,,319.9000000238302,,response,,,,99,,,,,,,Space,keypress(Space),,,,,,,,---- -- ----- -- ------ - ------- --- ----------<br>------------- ------ ------ ---- ---- ------- ----- -- ----<br>-------- ------- -- ---------- --- - --- ----- ----- ----<br>---- --- --- ----- --- ---- ---- ------- ----- ---- -------<br>--- --- -- ----- -- --- ---- to --- ---- -- ------ ------<br>--- ----- -- ----,157694.40000000596,157694.10000002384,157357.756,157369.90000000596,157374.2,157707.937,,46,to
screen,html.Screen,2_1_0_1_47,2022-05-12T15:33:40.869Z,,,,,,,,,,,,,,,,,53,,,,,,,,,,,,,,307.6630000238365,,response,,,,99,,,,,,,Space,keypress(Space),,,,,,,,"---- -- ----- -- ------ - ------- --- ----------<br>------------- ------ ------ ---- ---- ------- ----- -- ----<br>-------- ------- -- ---------- --- - --- ----- ----- ----<br>---- --- --- ----- --- ---- ---- ------- ----- ---- -------<br>--- --- -- ----- -- --- ---- -- be, ---- -- ------ ------<br>--- ----- -- ----",158016.10000002384,158015.60000002384,157691.176,157694.60000002384,157707.937,158024.558,,47,"be,"
screen,html.Screen,2_1_0_1_48,2022-05-12T15:33:41.264Z,,,,,,,,,,,,,,,,,53,,,,,,,,,,,,,,385.3420000059705,,response,,,,99,,,,,,,Space,keypress(Space),,,,,,,,---- -- ----- -- ------ - ------- --- ----------<br>------------- ------ ------ ---- ---- ------- ----- -- ----<br>-------- ------- -- ---------- --- - --- ----- ----- ----<br>---- --- --- ----- --- ---- ---- ------- ----- ---- -------<br>--- --- -- ----- -- --- ---- -- --- even -- ------ ------<br>--- ----- -- ----,158410.80000001192,158409.90000000596,158007.854,158016.20000001788,158024.558,158424.524,,48,even
screen,html.Screen,2_1_0_1_49,2022-05-12T15:33:41.567Z,,,,,,,,,,,,,,,,,53,,,,,,,,,,,,,,288.27600001191604,,response,,,,99,,,,,,,Space,keypress(Space),,,,,,,,---- -- ----- -- ------ - ------- --- ----------<br>------------- ------ ------ ---- ---- ------- ----- -- ----<br>-------- ------- -- ---------- --- - --- ----- ----- ----<br>---- --- --- ----- --- ---- ---- ------- ----- ---- -------<br>--- --- -- ----- -- --- ---- -- --- ---- if ------ ------<br>--- ----- -- ----,158713.90000000596,158712.80000001192,158407.759,158411.10000002384,158424.524,158724.192,,49,if
screen,html.Screen,2_1_0_1_50,2022-05-12T15:33:41.940Z,,,,,,,,,,,,,,,,,53,,,,,,,,,,,,,,361.90800002383185,,response,,,,99,,,,,,,Space,keypress(Space),,,,,,,,---- -- ----- -- ------ - ------- --- ----------<br>------------- ------ ------ ---- ---- ------- ----- -- ----<br>-------- ------- -- ---------- --- - --- ----- ----- ----<br>---- --- --- ----- --- ---- ---- ------- ----- ---- -------<br>--- --- -- ----- -- --- ---- -- --- ---- -- that's ------<br>--- ----- -- ----,159086.5,159086.10000002384,158707.844,158714.10000002384,158724.192,159090.731,,50,that's
screen,html.Screen,2_1_0_1_51,2022-05-12T15:33:42.268Z,,,,,,,,,,,,,,,,,53,,,,,,,,,,,,,,323.1690000059607,,response,,,,99,,,,,,,Space,keypress(Space),,,,,,,,---- -- ----- -- ------ - ------- --- ----------<br>------------- ------ ------ ---- ---- ------- ----- -- ----<br>-------- ------- -- ---------- --- - --- ----- ----- ----<br>---- --- --- ----- --- ---- ---- ------- ----- ---- -------<br>--- --- -- ----- -- --- ---- -- --- ---- -- ------ really<br>--- ----- -- ----,159414.40000000596,159413.90000000596,159074.099,159086.60000002384,159090.731,159424.349,,51,really
screen,html.Screen,2_1_0_1_52,2022-05-12T15:33:42.574Z,,,,,,,,,,,,,,,,,53,,,,,,,,,,,,,,295.25100002385443,,response,,,,99,,,,,,,Space,keypress(Space),,,,,,,,---- -- ----- -- ------ - ------- --- ----------<br>------------- ------ ------ ---- ---- ------- ----- -- ----<br>-------- ------- -- ---------- --- - --- ----- ----- ----<br>---- --- --- ----- --- ---- ---- ------- ----- ---- -------<br>--- --- -- ----- -- --- ---- -- --- ---- -- ------ ------<br>not ----- -- ----,159720.30000001192,159719.60000002384,159407.347,159414.40000000596,159424.349,159723.988,,52,not
screen,html.Screen,2_1_0_1_53,2022-05-12T15:33:42.906Z,,,,,,,,,,,,,,,,,53,,,,,,,,,,,,,,327.5119999999879,,response,,,,99,,,,,,,Space,keypress(Space),,,,,,,,---- -- ----- -- ------ - ------- --- ----------<br>------------- ------ ------ ---- ---- ------- ----- -- ----<br>-------- ------- -- ---------- --- - --- ----- ----- ----<br>---- --- --- ----- --- ---- ---- ------- ----- ---- -------<br>--- --- -- ----- -- --- ---- -- --- ---- -- ------ ------<br>--- close -- ----,160052.30000001192,160051.5,159707.267,159720.5,159723.988,160057.302,,53,close
screen,html.Screen,2_1_0_1_54,2022-05-12T15:33:43.250Z,,,,,,,,,,,,,,,,,53,,,,,,,,,,,,,,338.4980000119249,,response,,,,99,,,,,,,Space,keypress(Space),,,,,,,,---- -- ----- -- ------ - ------- --- ----------<br>------------- ------ ------ ---- ---- ------- ----- -- ----<br>-------- ------- -- ---------- --- - --- ----- ----- ----<br>---- --- --- ----- --- ---- ---- ------- ----- ---- -------<br>--- --- -- ----- -- --- ---- -- --- ---- -- ------ ------<br>--- ----- at ----,160396.10000002384,160395.80000001192,160040.889,160052.5,160057.302,160407.217,,54,at
screen,html.Screen,2_1_0_1_55,2022-05-12T15:33:43.624Z,,,,,,,,,,,,,,,,,53,,,,,,,,,,,,,,361.9830000178772,,response,,,,99,,,,,,,Space,keypress(Space),,,,,,,,---- -- ----- -- ------ - ------- --- ----------<br>------------- ------ ------ ---- ---- ------- ----- -- ----<br>-------- ------- -- ---------- --- - --- ----- ----- ----<br>---- --- --- ----- --- ---- ---- ------- ----- ---- -------<br>--- --- -- ----- -- --- ---- -- --- ---- -- ------ ------<br>--- ----- -- all.,160770.10000002384,160769.20000001788,160390.934,160396.10000002384,160407.217,160773.904,,55,all.
Item 99,flow.Loop,2_1_0_1,2022-05-12T15:33:43.624Z,,,,,,,,,,,,,,,,,,,,,,,,,,,,,,,20559.99000001789,,completion,,,,,F,,,,,,,,,,,silence,,,,,160770.70000001788,160769.20000001788,140176.318,140177.10000002384,140209.21,160773.904,,,
Question 1,html.Screen,2_1_0_2,2022-05-12T15:33:46.665Z,,,,,,,,,,,,,,,,,,,,,,,,,,,,true,FALSE,,3037.5959999999905,,response,,,,99,F,,,,,,FALSE,click #choice-2,,,,silence,,,,,163812.10000002384,163811.5,160757.544,160771,160773.904,163840.543,,,
Question 2,html.Screen,2_1_0_3,2022-05-12T15:33:51.251Z,,,,,,,,,,,,,,,,,,,,,,,,,,,,true,TRUE,,4556.956999999995,,response,,,,99,F,,,,,,TRUE,click #choice-1,,,,silence,,,,,168398.10000002384,168397.5,163823.572,163812.20000001788,163840.543,168406.729,,,
Item 99,flow.Sequence,2_1_0,2022-05-12T15:33:51.252Z,,,,,,,,,,,,,,,,,,,,,,,,,,,,,,,38206.388999999996,,completion,,,,,,,,,,,,,,,,,,,,,168398.20000001788,168397.5,130143.843,130161.10000002384,130191.111,168406.729,,,
Holding screen,html.Screen,2_1_1_0,2022-05-12T15:34:01.243Z,,,,,,,,,,,,,,,,,,,,,,,,,,,,,,,9998.709000000003,,timeout,,,,,,,,,,,,,,,,,,,,,178389.70000001788,178389.185,168389.815,168398.30000001192,168406.729,178405.438,,,
screen,html.Screen,2_1_1_1_0,2022-05-12T15:34:02.280Z,,,,,,,,,,,,,,,,,54,,,,,,,,,,,,,,1020.9620000059658,,response,,,,100,,,,,,,Space,keypress(Space),,,,,,,,At --- ---- --- ------ ----- ------- ---- -- --- ------- --<br>------- ---------- ------ -- ----- -- ----- -- ---- ------<br>--- ----- --- --- ------ -------- ----- --- ------ ----- --<br>----- ----- ---------- --- --- ------ ------ ---- -- ------<br>------- --- ------ ----- --- ---- ------- -- ---- --- --<br>------- ------,179426.70000001788,179426.40000000596,178389.185,178389.80000001192,178405.438,179455.717,,0,At
screen,html.Screen,2_1_1_1_1,2022-05-12T15:34:02.629Z,,,,,,,,,,,,,,,,,54,,,,,,,,,,,,,,319.08300001191674,,response,,,,100,,,,,,,Space,keypress(Space),,,,,,,,-- the ---- --- ------ ----- ------- ---- -- --- ------- --<br>------- ---------- ------ -- ----- -- ----- -- ---- ------<br>--- ----- --- --- ------ -------- ----- --- ------ ----- --<br>----- ----- ---------- --- --- ------ ------ ---- -- ------<br>------- --- ------ ----- --- ---- ------- -- ---- --- --<br>------- ------,179775.80000001192,179774.80000001192,179438.962,179426.80000001192,179455.717,179788.718,,1,the
screen,html.Screen,2_1_1_1_2,2022-05-12T15:34:02.891Z,,,,,,,,,,,,,,,,,54,,,,,,,,,,,,,,248.58200001192745,,response,,,,100,,,,,,,Space,keypress(Space),,,,,,,,-- --- time --- ------ ----- ------- ---- -- --- ------- --<br>------- ---------- ------ -- ----- -- ----- -- ---- ------<br>--- ----- --- --- ------ -------- ----- --- ------ ----- --<br>----- ----- ---------- --- --- ------ ------ ---- -- ------<br>------- --- ------ ----- --- ---- ------- -- ---- --- --<br>------- ------,180037.90000000596,180037.30000001192,179772.112,179776,179788.718,180067.235,,2,time
screen,html.Screen,2_1_1_1_3,2022-05-12T15:34:03.235Z,,,,,,,,,,,,,,,,,54,,,,,,,,,,,,,,313.8650000238558,,response,,,,100,,,,,,,Space,keypress(Space),,,,,,,,-- --- ---- the ------ ----- ------- ---- -- --- ------- --<br>------- ---------- ------ -- ----- -- ----- -- ---- ------<br>--- ----- --- --- ------ -------- ----- --- ------ ----- --<br>----- ----- ---------- --- --- ------ ------ ---- -- ------<br>------- --- ------ ----- --- ---- ------- -- ---- --- --<br>------- ------,180381.40000000596,180381.10000002384,180022.042,180038,180067.235,180388.856,,3,the
screen,html.Screen,2_1_1_1_4,2022-05-12T15:34:03.611Z,,,,,,,,,,,,,,,,,54,,,,,,,,,,,,,,368.64400000000023,,response,,,,100,,,,,,,Space,keypress(Space),,,,,,,,-- --- ---- --- French ----- ------- ---- -- --- ------- --<br>------- ---------- ------ -- ----- -- ----- -- ---- ------<br>--- ----- --- --- ------ -------- ----- --- ------ ----- --<br>----- ----- ---------- --- --- ------ ------ ---- -- ------<br>------- --- ------ ----- --- ---- ------- -- ---- --- --<br>------- ------,180758.10000002384,180757.5,180372.3,180381.5,180388.856,180772.151,,4,French
screen,html.Screen,2_1_1_1_5,2022-05-12T15:34:04.035Z,,,,,,,,,,,,,,,,,54,,,,,,,,,,,,,,408.9490000238293,,response,,,,100,,,,,,,Space,keypress(Space),,,,,,,,-- --- ---- --- ------ crown ------- ---- -- --- ------- --<br>------- ---------- ------ -- ----- -- ----- -- ---- ------<br>--- ----- --- --- ------ -------- ----- --- ------ ----- --<br>----- ----- ---------- --- --- ------ ------ ---- -- ------<br>------- --- ------ ----- --- ---- ------- -- ---- --- --<br>------- ------,181181.5,181181.10000002384,180755.519,180758.20000001788,180772.151,181188.89,,5,crown
screen,html.Screen,2_1_1_1_6,2022-05-12T15:34:04.425Z,,,,,,,,,,,,,,,,,54,,,,,,,,,,,,,,382.0100000059465,,response,,,,100,,,,,,,Space,keypress(Space),,,,,,,,-- --- ---- --- ------ ----- secured ---- -- --- ------- --<br>------- ---------- ------ -- ----- -- ----- -- ---- ------<br>--- ----- --- --- ------ -------- ----- --- ------ ----- --<br>----- ----- ---------- --- --- ------ ------ ---- -- ------<br>------- --- ------ ----- --- ---- ------- -- ---- --- --<br>------- ------,181571.60000002384,181570.90000000596,181171.874,181181.60000002384,181188.89,181588.671,,6,secured
screen,html.Screen,2_1_1_1_7,2022-05-12T15:34:04.801Z,,,,,,,,,,,,,,,,,54,,,,,,,,,,,,,,358.22900000595837,,response,,,,100,,,,,,,Space,keypress(Space),,,,,,,,-- --- ---- --- ------ ----- ------- much -- --- ------- --<br>------- ---------- ------ -- ----- -- ----- -- ---- ------<br>--- ----- --- --- ------ -------- ----- --- ------ ----- --<br>----- ----- ---------- --- --- ------ ------ ---- -- ------<br>------- --- ------ ----- --- ---- ------- -- ---- --- --<br>------- ------,181947.80000001192,181946.90000000596,181572.016,181571.90000000596,181588.671,181955.086,,7,much
screen,html.Screen,2_1_1_1_8,2022-05-12T15:34:05.138Z,,,,,,,,,,,,,,,,,54,,,,,,,,,,,,,,328.3140000059502,,response,,,,100,,,,,,,Space,keypress(Space),,,,,,,,-- --- ---- --- ------ ----- ------- ---- of --- ------- --<br>------- ---------- ------ -- ----- -- ----- -- ---- ------<br>--- ----- --- --- ------ -------- ----- --- ------ ----- --<br>----- ----- ---------- --- --- ------ ------ ---- -- ------<br>------- --- ------ ----- --- ---- ------- -- ---- --- --<br>------- ------,182284.40000000596,182283.40000000596,181938.493,181948.10000002384,181955.086,182288.447,,8,of
screen,html.Screen,2_1_1_1_9,2022-05-12T15:34:05.424Z,,,,,,,,,,,,,,,,,54,,,,,,,,,,,,,,281.05300000001444,,response,,,,100,,,,,,,Space,keypress(Space),,,,,,,,-- --- ---- --- ------ ----- ------- ---- -- its ------- --<br>------- ---------- ------ -- ----- -- ----- -- ---- ------<br>--- ----- --- --- ------ -------- ----- --- ------ ----- --<br>----- ----- ---------- --- --- ------ ------ ---- -- ------<br>------- --- ------ ----- --- ---- ------- -- ---- --- --<br>------- ------,182570.30000001192,182569.5,182271.756,182284.80000001192,182288.447,182594.865,,9,its
screen,html.Screen,2_1_1_1_10,2022-05-12T15:34:05.790Z,,,,,,,,,,,,,,,,,54,,,,,,,,,,,,,,341.1350000000093,,response,,,,100,,,,,,,Space,keypress(Space),,,,,,,,-- --- ---- --- ------ ----- ------- ---- -- --- revenue --<br>------- ---------- ------ -- ----- -- ----- -- ---- ------<br>--- ----- --- --- ------ -------- ----- --- ------ ----- --<br>----- ----- ---------- --- --- ------ ------ ---- -- ------<br>------- --- ------ ----- --- ---- ------- -- ---- --- --<br>------- ------,182936.80000001192,182936,182555.399,182570.60000002384,182594.865,182968.928,,10,revenue
screen,html.Screen,2_1_1_1_11,2022-05-12T15:34:06.214Z,,,,,,,,,,,,,,,,,54,,,,,,,,,,,,,,391.27200001786696,,response,,,,100,,,,,,,Space,keypress(Space),,,,,,,,-- --- ---- --- ------ ----- ------- ---- -- --- ------- by<br>------- ---------- ------ -- ----- -- ----- -- ---- ------<br>--- ----- --- --- ------ -------- ----- --- ------ ----- --<br>----- ----- ---------- --- --- ------ ------ ---- -- ------<br>------- --- ------ ----- --- ---- ------- -- ---- --- --<br>------- ------,183360.80000001192,183360.20000001788,182921.688,182937.10000002384,182968.928,183372.062,,11,by
screen,html.Screen,2_1_1_1_12,2022-05-12T15:34:06.613Z,,,,,,,,,,,,,,,,,54,,,,,,,,,,,,,,387.13800001787604,,response,,,,100,,,,,,,Space,keypress(Space),,,,,,,,-- --- ---- --- ------ ----- ------- ---- -- --- ------- --<br>issuing ---------- ------ -- ----- -- ----- -- ---- ------<br>--- ----- --- --- ------ -------- ----- --- ------ ----- --<br>----- ----- ---------- --- --- ------ ------ ---- -- ------<br>------- --- ------ ----- --- ---- ------- -- ---- --- --<br>------- ------,183759.90000000596,183759.20000001788,183355.191,183361,183372.062,183771.626,,12,issuing
screen,html.Screen,2_1_1_1_13,2022-05-12T15:34:07.014Z,,,,,,,,,,,,,,,,,54,,,,,,,,,,,,,,388.7740000059712,,response,,,,100,,,,,,,Space,keypress(Space),,,,,,,,-- --- ---- --- ------ ----- ------- ---- -- --- ------- --<br>------- government ------ -- ----- -- ----- -- ---- ------<br>--- ----- --- --- ------ -------- ----- --- ------ ----- --<br>----- ----- ---------- --- --- ------ ------ ---- -- ------<br>------- --- ------ ----- --- ---- ------- -- ---- --- --<br>------- ------,184160.80000001192,184160.40000000596,183754.996,183760.10000002384,183771.626,184171.904,,13,government
screen,html.Screen,2_1_1_1_14,2022-05-12T15:34:07.456Z,,,,,,,,,,,,,,,,,54,,,,,,,,,,,,,,429.9960000059509,,response,,,,100,,,,,,,Space,keypress(Space),,,,,,,,-- --- ---- --- ------ ----- ------- ---- -- --- ------- --<br>------- ---------- bonds. -- ----- -- ----- -- ---- ------<br>--- ----- --- --- ------ -------- ----- --- ------ ----- --<br>----- ----- ---------- --- --- ------ ------ ---- -- ------<br>------- --- ------ ----- --- ---- ------- -- ---- --- --<br>------- ------,184602.90000000596,184601.90000000596,184154.944,184160.90000000596,184171.904,184634.918,,14,bonds.
screen,html.Screen,2_1_1_1_15,2022-05-12T15:34:07.872Z,,,,,,,,,,,,,,,,,54,,,,,,,,,,,,,,382.78200001787627,,response,,,,100,,,,,,,Space,keypress(Space),,,,,,,,-- --- ---- --- ------ ----- ------- ---- -- --- ------- --<br>------- ---------- ------ In ----- -- ----- -- ---- ------<br>--- ----- --- --- ------ -------- ----- --- ------ ----- --<br>----- ----- ---------- --- --- ------ ------ ---- -- ------<br>------- --- ------ ----- --- ---- ------- -- ---- --- --<br>------- ------,185018.20000001788,185017.70000001788,184588.22,184603.20000001788,184634.918,185021.451,,15,In
screen,html.Screen,2_1_1_1_16,2022-05-12T15:34:08.752Z,,,,,,,,,,,,,,,,,54,,,,,,,,,,,,,,876.7490000178805,,response,,,,100,,,,,,,Space,keypress(Space),,,,,,,,"-- --- ---- --- ------ ----- ------- ---- -- --- ------- --<br>------- ---------- ------ -- 1727, -- ----- -- ---- ------<br>--- ----- --- --- ------ -------- ----- --- ------ ----- --<br>----- ----- ---------- --- --- ------ ------ ---- -- ------<br>------- --- ------ ----- --- ---- ------- -- ---- --- --<br>------- ------",185898.5,185898.20000001788,185005.124,185018.30000001192,185021.451,185904.957,,16,"1727,"
screen,html.Screen,2_1_1_1_17,2022-05-12T15:34:09.078Z,,,,,,,,,,,,,,,,,54,,,,,,,,,,,,,,318.9430000059656,,response,,,,100,,,,,,,Space,keypress(Space),,,,,,,,-- --- ---- --- ------ ----- ------- ---- -- --- ------- --<br>------- ---------- ------ -- ----- in ----- -- ---- ------<br>--- ----- --- --- ------ -------- ----- --- ------ ----- --<br>----- ----- ---------- --- --- ------ ------ ---- -- ------<br>------- --- ------ ----- --- ---- ------- -- ---- --- --<br>------- ------,186224.30000001192,186223.90000000596,185888.386,185898.60000002384,185904.957,186238.361,,17,in
screen,html.Screen,2_1_1_1_18,2022-05-12T15:34:09.461Z,,,,,,,,,,,,,,,,,54,,,,,,,,,,,,,,367.73900002383743,,response,,,,100,,,,,,,Space,keypress(Space),,,,,,,,-- --- ---- --- ------ ----- ------- ---- -- --- ------- --<br>------- ---------- ------ -- ----- -- order -- ---- ------<br>--- ----- --- --- ------ -------- ----- --- ------ ----- --<br>----- ----- ---------- --- --- ------ ------ ---- -- ------<br>------- --- ------ ----- --- ---- ------- -- ---- --- --<br>------- ------,186607.30000001192,186606.10000002384,186221.683,186224.30000001192,186238.361,186621.715,,18,order
screen,html.Screen,2_1_1_1_19,2022-05-12T15:34:09.781Z,,,,,,,,,,,,,,,,,54,,,,,,,,,,,,,,305.2850000000035,,response,,,,100,,,,,,,Space,keypress(Space),,,,,,,,-- --- ---- --- ------ ----- ------- ---- -- --- ------- --<br>------- ---------- ------ -- ----- -- ----- to ---- ------<br>--- ----- --- --- ------ -------- ----- --- ------ ----- --<br>----- ----- ---------- --- --- ------ ------ ---- -- ------<br>------- --- ------ ----- --- ---- ------- -- ---- --- --<br>------- ------,186928,186927,186605.032,186607.60000002384,186621.715,186938.363,,19,to
screen,html.Screen,2_1_1_1_20,2022-05-12T15:34:10.137Z,,,,,,,,,,,,,,,,,54,,,,,,,,,,,,,,344.23700002382975,,response,,,,100,,,,,,,Space,keypress(Space),,,,,,,,-- --- ---- --- ------ ----- ------- ---- -- --- ------- --<br>------- ---------- ------ -- ----- -- ----- -- save ------<br>--- ----- --- --- ------ -------- ----- --- ------ ----- --<br>----- ----- ---------- --- --- ------ ------ ---- -- ------<br>------- --- ------ ----- --- ---- ------- -- ---- --- --<br>------- ------,187283.40000000596,187282.60000002384,186920.268,186928.20000001788,186938.363,187287.95,,20,save
screen,html.Screen,2_1_1_1_21,2022-05-12T15:34:10.470Z,,,,,,,,,,,,,,,,,54,,,,,,,,,,,,,,327.4500000059488,,response,,,,100,,,,,,,Space,keypress(Space),,,,,,,,"-- --- ---- --- ------ ----- ------- ---- -- --- ------- --<br>------- ---------- ------ -- ----- -- ----- -- ---- money,<br>--- ----- --- --- ------ -------- ----- --- ------ ----- --<br>----- ----- ---------- --- --- ------ ------ ---- -- ------<br>------- --- ------ ----- --- ---- ------- -- ---- --- --<br>------- ------",187616.20000001788,187615.40000000596,187268.225,187283.5,187287.95,187621.495,,21,"money,"
screen,html.Screen,2_1_1_1_22,2022-05-12T15:34:10.822Z,,,,,,,,,,,,,,,,,54,,,,,,,,,,,,,,346.3050000119256,,response,,,,100,,,,,,,Space,keypress(Space),,,,,,,,-- --- ---- --- ------ ----- ------- ---- -- --- ------- --<br>------- ---------- ------ -- ----- -- ----- -- ---- ------<br>the ----- --- --- ------ -------- ----- --- ------ ----- --<br>----- ----- ---------- --- --- ------ ------ ---- -- ------<br>------- --- ------ ----- --- ---- ------- -- ---- --- --<br>------- ------,187968.70000001788,187967.80000001192,187599.16,187616.40000000596,187621.495,187971.233,,22,the
screen,html.Screen,2_1_1_1_23,2022-05-12T15:34:11.140Z,,,,,,,,,,,,,,,,,54,,,,,,,,,,,,,,314.5670000119135,,response,,,,100,,,,,,,Space,keypress(Space),,,,,,,,-- --- ---- --- ------ ----- ------- ---- -- --- ------- --<br>------- ---------- ------ -- ----- -- ----- -- ---- ------<br>--- state --- --- ------ -------- ----- --- ------ ----- --<br>----- ----- ---------- --- --- ------ ------ ---- -- ------<br>------- --- ------ ----- --- ---- ------- -- ---- --- --<br>------- ------,188286.20000001788,188285.80000001192,187957.149,187969,187971.233,188287.763,,23,state
screen,html.Screen,2_1_1_1_24,2022-05-12T15:34:11.437Z,,,,,,,,,,,,,,,,,54,,,,,,,,,,,,,,294.33700002383557,,response,,,,100,,,,,,,Space,keypress(Space),,,,,,,,-- --- ---- --- ------ ----- ------- ---- -- --- ------- --<br>------- ---------- ------ -- ----- -- ----- -- ---- ------<br>--- ----- cut --- ------ -------- ----- --- ------ ----- --<br>----- ----- ---------- --- --- ------ ------ ---- -- ------<br>------- --- ------ ----- --- ---- ------- -- ---- --- --<br>------- ------,188583.10000002384,188582.10000002384,188286.046,188286.20000001788,188287.763,188587.829,,24,cut
screen,html.Screen,2_1_1_1_25,2022-05-12T15:34:11.742Z,,,,,,,,,,,,,,,,,54,,,,,,,,,,,,,,299.27100002384395,,response,,,,100,,,,,,,Space,keypress(Space),,,,,,,,-- --- ---- --- ------ ----- ------- ---- -- --- ------- --<br>------- ---------- ------ -- ----- -- ----- -- ---- ------<br>--- ----- --- the ------ -------- ----- --- ------ ----- --<br>----- ----- ---------- --- --- ------ ------ ---- -- ------<br>------- --- ------ ----- --- ---- ------- -- ---- --- --<br>------- ------,188888,188887.10000002384,188571.684,188583.30000001192,188587.829,188904.752,,25,the
screen,html.Screen,2_1_1_1_26,2022-05-12T15:34:12.103Z,,,,,,,,,,,,,,,,,54,,,,,,,,,,,,,,343.6480000059528,,response,,,,100,,,,,,,Space,keypress(Space),,,,,,,,-- --- ---- --- ------ ----- ------- ---- -- --- ------- --<br>------- ---------- ------ -- ----- -- ----- -- ---- ------<br>--- ----- --- --- bonds' -------- ----- --- ------ ----- --<br>----- ----- ---------- --- --- ------ ------ ---- -- ------<br>------- --- ------ ----- --- ---- ------- -- ---- --- --<br>------- ------,189249.30000001192,189248.40000000596,188882.339,188888.20000001788,188904.752,189254.424,,26,bonds'
screen,html.Screen,2_1_1_1_27,2022-05-12T15:34:12.418Z,,,,,,,,,,,,,,,,,54,,,,,,,,,,,,,,309.57600000000093,,response,,,,100,,,,,,,Space,keypress(Space),,,,,,,,-- --- ---- --- ------ ----- ------- ---- -- --- ------- --<br>------- ---------- ------ -- ----- -- ----- -- ---- ------<br>--- ----- --- --- ------ interest ----- --- ------ ----- --<br>----- ----- ---------- --- --- ------ ------ ---- -- ------<br>------- --- ------ ----- --- ---- ------- -- ---- --- --<br>------- ------,189564.40000000596,189564,189249.605,189249.60000002384,189254.424,189571.038,,27,interest
screen,html.Screen,2_1_1_1_28,2022-05-12T15:34:12.836Z,,,,,,,,,,,,,,,,,54,,,,,,,,,,,,,,410.76200001192046,,response,,,,100,,,,,,,Space,keypress(Space),,,,,,,,-- --- ---- --- ------ ----- ------- ---- -- --- ------- --<br>------- ---------- ------ -- ----- -- ----- -- ---- ------<br>--- ----- --- --- ------ -------- rate. --- ------ ----- --<br>----- ----- ---------- --- --- ------ ------ ---- -- ------<br>------- --- ------ ----- --- ---- ------- -- ---- --- --<br>------- ------,189982.70000001788,189981.80000001192,189561.644,189564.5,189571.038,189987.652,,28,rate.
screen,html.Screen,2_1_1_1_29,2022-05-12T15:34:13.228Z,,,,,,,,,,,,,,,,,54,,,,,,,,,,,,,,386.14800001191907,,response,,,,100,,,,,,,Space,keypress(Space),,,,,,,,-- --- ---- --- ------ ----- ------- ---- -- --- ------- --<br>------- ---------- ------ -- ----- -- ----- -- ---- ------<br>--- ----- --- --- ------ -------- ----- The ------ ----- --<br>----- ----- ---------- --- --- ------ ------ ---- -- ------<br>------- --- ------ ----- --- ---- ------- -- ---- --- --<br>------- ------,190374.70000001788,190373.80000001192,189973.672,189982.90000000596,189987.652,190387.68,,29,The
screen,html.Screen,2_1_1_1_30,2022-05-12T15:34:13.683Z,,,,,,,,,,,,,,,,,54,,,,,,,,,,,,,,440.6200000119279,,response,,,,100,,,,,,,Space,keypress(Space),,,,,,,,-- --- ---- --- ------ ----- ------- ---- -- --- ------- --<br>------- ---------- ------ -- ----- -- ----- -- ---- ------<br>--- ----- --- --- ------ -------- ----- --- market ----- --<br>----- ----- ---------- --- --- ------ ------ ---- -- ------<br>------- --- ------ ----- --- ---- ------- -- ---- --- --<br>------- ------,190829.30000001192,190828.30000001192,190372.003,190375,190387.68,190837.597,,30,market
screen,html.Screen,2_1_1_1_31,2022-05-12T15:34:14.169Z,,,,,,,,,,,,,,,,,54,,,,,,,,,,,,,,477.2030000119121,,response,,,,100,,,,,,,Space,keypress(Space),,,,,,,,-- --- ---- --- ------ ----- ------- ---- -- --- ------- --<br>------- ---------- ------ -- ----- -- ----- -- ---- ------<br>--- ----- --- --- ------ -------- ----- --- ------ value --<br>----- ----- ---------- --- --- ------ ------ ---- -- ------<br>------- --- ------ ----- --- ---- ------- -- ---- --- --<br>------- ------,191315.10000002384,191314.80000001192,190827.149,190829.5,190837.597,191321.146,,31,value
screen,html.Screen,2_1_1_1_32,2022-05-12T15:34:14.620Z,,,,,,,,,,,,,,,,,54,,,,,,,,,,,,,,444.154000011913,,response,,,,100,,,,,,,Space,keypress(Space),,,,,,,,-- --- ---- --- ------ ----- ------- ---- -- --- ------- --<br>------- ---------- ------ -- ----- -- ----- -- ---- ------<br>--- ----- --- --- ------ -------- ----- --- ------ ----- of<br>----- ----- ---------- --- --- ------ ------ ---- -- ------<br>------- --- ------ ----- --- ---- ------- -- ---- --- --<br>------- ------,191766.20000001788,191765.30000001192,191300.326,191315.20000001788,191321.146,191770.878,,32,of
screen,html.Screen,2_1_1_1_33,2022-05-12T15:34:15.021Z,,,,,,,,,,,,,,,,,54,,,,,,,,,,,,,,395.92200001192396,,response,,,,100,,,,,,,Space,keypress(Space),,,,,,,,-- --- ---- --- ------ ----- ------- ---- -- --- ------- --<br>------- ---------- ------ -- ----- -- ----- -- ---- ------<br>--- ----- --- --- ------ -------- ----- --- ------ ----- --<br>these ----- ---------- --- --- ------ ------ ---- -- ------<br>------- --- ------ ----- --- ---- ------- -- ---- --- --<br>------- ------,192167.5,192166.80000001192,191766.498,191766.5,191770.878,192170.74,,33,these
screen,html.Screen,2_1_1_1_34,2022-05-12T15:34:15.313Z,,,,,,,,,,,,,,,,,54,,,,,,,,,,,,,,288.1600000059698,,response,,,,100,,,,,,,Space,keypress(Space),,,,,,,,-- --- ---- --- ------ ----- ------- ---- -- --- ------- --<br>------- ---------- ------ -- ----- -- ----- -- ---- ------<br>--- ----- --- --- ------ -------- ----- --- ------ ----- --<br>----- bonds ---------- --- --- ------ ------ ---- -- ------<br>------- --- ------ ----- --- ---- ------- -- ---- --- --<br>------- ------,192459.70000001788,192458.90000000596,192163.533,192167.70000001788,192170.74,192471.043,,34,bonds
screen,html.Screen,2_1_1_1_35,2022-05-12T15:34:15.831Z,,,,,,,,,,,,,,,,,54,,,,,,,,,,,,,,505.4569999999949,,response,,,,100,,,,,,,Space,keypress(Space),,,,,,,,"-- --- ---- --- ------ ----- ------- ---- -- --- ------- --<br>------- ---------- ------ -- ----- -- ----- -- ---- ------<br>--- ----- --- --- ------ -------- ----- --- ------ ----- --<br>----- ----- plummeted, --- --- ------ ------ ---- -- ------<br>------- --- ------ ----- --- ---- ------- -- ---- --- --<br>------- ------",192977.40000000596,192976.5,192457.755,192459.90000000596,192471.043,193004.299,,35,"plummeted,"
screen,html.Screen,2_1_1_1_36,2022-05-12T15:34:16.227Z,,,,,,,,,,,,,,,,,54,,,,,,,,,,,,,,368.3010000238428,,response,,,,100,,,,,,,Space,keypress(Space),,,,,,,,-- --- ---- --- ------ ----- ------- ---- -- --- ------- --<br>------- ---------- ------ -- ----- -- ----- -- ---- ------<br>--- ----- --- --- ------ -------- ----- --- ------ ----- --<br>----- ----- ---------- and --- ------ ------ ---- -- ------<br>------- --- ------ ----- --- ---- ------- -- ---- --- --<br>------- ------,193373.10000002384,193372.60000002384,192987.53,192977.70000001788,193004.299,193387.59,,36,and
screen,html.Screen,2_1_1_1_37,2022-05-12T15:34:16.630Z,,,,,,,,,,,,,,,,,54,,,,,,,,,,,,,,388.1100000178849,,response,,,,100,,,,,,,Space,keypress(Space),,,,,,,,-- --- ---- --- ------ ----- ------- ---- -- --- ------- --<br>------- ---------- ------ -- ----- -- ----- -- ---- ------<br>--- ----- --- --- ------ -------- ----- --- ------ ----- --<br>----- ----- ---------- --- the ------ ------ ---- -- ------<br>------- --- ------ ----- --- ---- ------- -- ---- --- --<br>------- ------,193776.60000002384,193775.70000001788,193369.3,193373.10000002384,193387.59,193787.322,,37,the
screen,html.Screen,2_1_1_1_38,2022-05-12T15:34:17.071Z,,,,,,,,,,,,,,,,,54,,,,,,,,,,,,,,428.87800001789583,,response,,,,100,,,,,,,Space,keypress(Space),,,,,,,,-- --- ---- --- ------ ----- ------- ---- -- --- ------- --<br>------- ---------- ------ -- ----- -- ----- -- ---- ------<br>--- ----- --- --- ------ -------- ----- --- ------ ----- --<br>----- ----- ---------- --- --- market ------ ---- -- ------<br>------- --- ------ ----- --- ---- ------- -- ---- --- --<br>------- ------,194217.10000002384,194216.20000001788,193775.534,193776.90000000596,193787.322,194220.617,,38,market
screen,html.Screen,2_1_1_1_39,2022-05-12T15:34:17.502Z,,,,,,,,,,,,,,,,,54,,,,,,,,,,,,,,427.2830000059621,,response,,,,100,,,,,,,Space,keypress(Space),,,,,,,,-- --- ---- --- ------ ----- ------- ---- -- --- ------- --<br>------- ---------- ------ -- ----- -- ----- -- ---- ------<br>--- ----- --- --- ------ -------- ----- --- ------ ----- --<br>----- ----- ---------- --- --- ------ became ---- -- ------<br>------- --- ------ ----- --- ---- ------- -- ---- --- --<br>------- ------,194648.90000000596,194647.90000000596,194218.044,194217.40000000596,194220.617,194653.866,,39,became
screen,html.Screen,2_1_1_1_40,2022-05-12T15:34:17.865Z,,,,,,,,,,,,,,,,,54,,,,,,,,,,,,,,356.5340000059514,,response,,,,100,,,,,,,Space,keypress(Space),,,,,,,,-- --- ---- --- ------ ----- ------- ---- -- --- ------- --<br>------- ---------- ------ -- ----- -- ----- -- ---- ------<br>--- ----- --- --- ------ -------- ----- --- ------ ----- --<br>----- ----- ---------- --- --- ------ ------ wary -- ------<br>------- --- ------ ----- --- ---- ------- -- ---- --- --<br>------- ------,195011,195010.40000000596,194637.814,194649.20000001788,194653.866,195020.834,,40,wary
screen,html.Screen,2_1_1_1_41,2022-05-12T15:34:18.241Z,,,,,,,,,,,,,,,,,54,,,,,,,,,,,,,,365.66599999999744,,response,,,,100,,,,,,,Space,keypress(Space),,,,,,,,-- --- ---- --- ------ ----- ------- ---- -- --- ------- --<br>------- ---------- ------ -- ----- -- ----- -- ---- ------<br>--- ----- --- --- ------ -------- ----- --- ------ ----- --<br>----- ----- ---------- --- --- ------ ------ ---- of ------<br>------- --- ------ ----- --- ---- ------- -- ---- --- --<br>------- ------,195386.90000000596,195386.5,195004.465,195011.20000001788,195020.834,195404.055,,41,of
screen,html.Screen,2_1_1_1_42,2022-05-12T15:34:18.561Z,,,,,,,,,,,,,,,,,54,,,,,,,,,,,,,,302.84500000596745,,response,,,,100,,,,,,,Space,keypress(Space),,,,,,,,-- --- ---- --- ------ ----- ------- ---- -- --- ------- --<br>------- ---------- ------ -- ----- -- ----- -- ---- ------<br>--- ----- --- --- ------ -------- ----- --- ------ ----- --<br>----- ----- ---------- --- --- ------ ------ ---- -- French<br>------- --- ------ ----- --- ---- ------- -- ---- --- --<br>------- ------,195707.60000002384,195706.90000000596,195377.647,195387,195404.055,195720.674,,42,French
screen,html.Screen,2_1_1_1_43,2022-05-12T15:34:18.922Z,,,,,,,,,,,,,,,,,54,,,,,,,,,,,,,,346.7260000059614,,response,,,,100,,,,,,,Space,keypress(Space),,,,,,,,-- --- ---- --- ------ ----- ------- ---- -- --- ------- --<br>------- ---------- ------ -- ----- -- ----- -- ---- ------<br>--- ----- --- --- ------ -------- ----- --- ------ ----- --<br>----- ----- ---------- --- --- ------ ------ ---- -- ------<br>credit. --- ------ ----- --- ---- ------- -- ---- --- --<br>------- ------,196068.30000001192,196067.40000000596,195694.44,195707.70000001788,195720.674,196070.41,,43,credit.
screen,html.Screen,2_1_1_1_44,2022-05-12T15:34:19.289Z,,,,,,,,,,,,,,,,,54,,,,,,,,,,,,,,364.39000001191744,,response,,,,100,,,,,,,Space,keypress(Space),,,,,,,,-- --- ---- --- ------ ----- ------- ---- -- --- ------- --<br>------- ---------- ------ -- ----- -- ----- -- ---- ------<br>--- ----- --- --- ------ -------- ----- --- ------ ----- --<br>----- ----- ---------- --- --- ------ ------ ---- -- ------<br>------- The ------ ----- --- ---- ------- -- ---- --- --<br>------- ------,196435.60000002384,196434.80000001192,196060.65,196068.5,196070.41,196458.326,,44,The
screen,html.Screen,2_1_1_1_45,2022-05-12T15:34:19.591Z,,,,,,,,,,,,,,,,,54,,,,,,,,,,,,,,278.67399999999907,,response,,,,100,,,,,,,Space,keypress(Space),,,,,,,,-- --- ---- --- ------ ----- ------- ---- -- --- ------- --<br>------- ---------- ------ -- ----- -- ----- -- ---- ------<br>--- ----- --- --- ------ -------- ----- --- ------ ----- --<br>----- ----- ---------- --- --- ------ ------ ---- -- ------<br>------- --- French ----- --- ---- ------- -- ---- --- --<br>------- ------,196737.5,196737,196425.076,196435.90000000596,196458.326,196754.103,,45,French
screen,html.Screen,2_1_1_1_46,2022-05-12T15:34:19.949Z,,,,,,,,,,,,,,,,,54,,,,,,,,,,,,,,340.19700001191813,,response,,,,100,,,,,,,Space,keypress(Space),,,,,,,,-- --- ---- --- ------ ----- ------- ---- -- --- ------- --<br>------- ---------- ------ -- ----- -- ----- -- ---- ------<br>--- ----- --- --- ------ -------- ----- --- ------ ----- --<br>----- ----- ---------- --- --- ------ ------ ---- -- ------<br>------- --- ------ state --- ---- ------- -- ---- --- --<br>------- ------,197095.10000002384,197094.30000001192,196724.753,196737.5,196754.103,197103.659,,46,state
screen,html.Screen,2_1_1_1_47,2022-05-12T15:34:20.250Z,,,,,,,,,,,,,,,,,54,,,,,,,,,,,,,,292.74100000594626,,response,,,,100,,,,,,,Space,keypress(Space),,,,,,,,-- --- ---- --- ------ ----- ------- ---- -- --- ------- --<br>------- ---------- ------ -- ----- -- ----- -- ---- ------<br>--- ----- --- --- ------ -------- ----- --- ------ ----- --<br>----- ----- ---------- --- --- ------ ------ ---- -- ------<br>------- --- ------ ----- was ---- ------- -- ---- --- --<br>------- ------,197396.80000001192,197396.40000000596,197094.607,197095.30000001192,197103.659,197403.918,,47,was
screen,html.Screen,2_1_1_1_48,2022-05-12T15:34:20.580Z,,,,,,,,,,,,,,,,,54,,,,,,,,,,,,,,321.8820000119158,,response,,,,100,,,,,,,Space,keypress(Space),,,,,,,,-- --- ---- --- ------ ----- ------- ---- -- --- ------- --<br>------- ---------- ------ -- ----- -- ----- -- ---- ------<br>--- ----- --- --- ------ -------- ----- --- ------ ----- --<br>----- ----- ---------- --- --- ------ ------ ---- -- ------<br>------- --- ------ ----- --- left ------- -- ---- --- --<br>------- ------,197726.20000001788,197725.80000001192,197389.839,197396.80000001192,197403.918,197736.889,,48,left
screen,html.Screen,2_1_1_1_49,2022-05-12T15:34:20.953Z,,,,,,,,,,,,,,,,,54,,,,,,,,,,,,,,361.2110000238463,,response,,,,100,,,,,,,Space,keypress(Space),,,,,,,,-- --- ---- --- ------ ----- ------- ---- -- --- ------- --<br>------- ---------- ------ -- ----- -- ----- -- ---- ------<br>--- ----- --- --- ------ -------- ----- --- ------ ----- --<br>----- ----- ---------- --- --- ------ ------ ---- -- ------<br>------- --- ------ ----- --- ---- without -- ---- --- --<br>------- ------,198098.90000000596,198098.10000002384,197723.326,197726.20000001788,197736.889,198103.532,,49,without
screen,html.Screen,2_1_1_1_50,2022-05-12T15:34:21.283Z,,,,,,,,,,,,,,,,,54,,,,,,,,,,,,,,325.2680000119144,,response,,,,100,,,,,,,Space,keypress(Space),,,,,,,,-- --- ---- --- ------ ----- ------- ---- -- --- ------- --<br>------- ---------- ------ -- ----- -- ----- -- ---- ------<br>--- ----- --- --- ------ -------- ----- --- ------ ----- --<br>----- ----- ---------- --- --- ------ ------ ---- -- ------<br>------- --- ------ ----- --- ---- ------- an ---- --- --<br>------- ------,198429.70000001788,198428.80000001192,198090.613,198099.20000001788,198103.532,198436.872,,50,an
screen,html.Screen,2_1_1_1_51,2022-05-12T15:34:21.631Z,,,,,,,,,,,,,,,,,54,,,,,,,,,,,,,,339.82800001787837,,response,,,,100,,,,,,,Space,keypress(Space),,,,,,,,-- --- ---- --- ------ ----- ------- ---- -- --- ------- --<br>------- ---------- ------ -- ----- -- ----- -- ---- ------<br>--- ----- --- --- ------ -------- ----- --- ------ ----- --<br>----- ----- ---------- --- --- ------ ------ ---- -- ------<br>------- --- ------ ----- --- ---- ------- -- easy --- --<br>------- ------,198777.70000001788,198776.70000001788,198423.779,198430,198436.872,198786.859,,51,easy
screen,html.Screen,2_1_1_1_52,2022-05-12T15:34:21.905Z,,,,,,,,,,,,,,,,,54,,,,,,,,,,,,,,263.84100001788465,,response,,,,100,,,,,,,Space,keypress(Space),,,,,,,,-- --- ---- --- ------ ----- ------- ---- -- --- ------- --<br>------- ---------- ------ -- ----- -- ----- -- ---- ------<br>--- ----- --- --- ------ -------- ----- --- ------ ----- --<br>----- ----- ---------- --- --- ------ ------ ---- -- ------<br>------- --- ------ ----- --- ---- ------- -- ---- way --<br>------- ------,199051.5,199050.70000001788,198772.791,198778.10000002384,198786.859,199053.437,,52,way
screen,html.Screen,2_1_1_1_53,2022-05-12T15:34:22.191Z,,,,,,,,,,,,,,,,,54,,,,,,,,,,,,,,283.26300001787604,,response,,,,100,,,,,,,Space,keypress(Space),,,,,,,,-- --- ---- --- ------ ----- ------- ---- -- --- ------- --<br>------- ---------- ------ -- ----- -- ----- -- ---- ------<br>--- ----- --- --- ------ -------- ----- --- ------ ----- --<br>----- ----- ---------- --- --- ------ ------ ---- -- ------<br>------- --- ------ ----- --- ---- ------- -- ---- --- of<br>------- ------,199337.70000001788,199336.70000001788,199041.052,199051.70000001788,199053.437,199353.81,,53,of
screen,html.Screen,2_1_1_1_54,2022-05-12T15:34:22.504Z,,,,,,,,,,,,,,,,,54,,,,,,,,,,,,,,296.0900000059628,,response,,,,100,,,,,,,Space,keypress(Space),,,,,,,,-- --- ---- --- ------ ----- ------- ---- -- --- ------- --<br>------- ---------- ------ -- ----- -- ----- -- ---- ------<br>--- ----- --- --- ------ -------- ----- --- ------ ----- --<br>----- ----- ---------- --- --- ------ ------ ---- -- ------<br>------- --- ------ ----- --- ---- ------- -- ---- --- --<br>raising ------,199650.90000000596,199649.90000000596,199324.125,199337.90000000596,199353.81,199653.387,,54,raising
screen,html.Screen,2_1_1_1_55,2022-05-12T15:34:22.884Z,,,,,,,,,,,,,,,,,54,,,,,,,,,,,,,,376.41300001193304,,response,,,,100,,,,,,,Space,keypress(Space),,,,,,,,-- --- ---- --- ------ ----- ------- ---- -- --- ------- --<br>------- ---------- ------ -- ----- -- ----- -- ---- ------<br>--- ----- --- --- ------ -------- ----- --- ------ ----- --<br>----- ----- ---------- --- --- ------ ------ ---- -- ------<br>------- --- ------ ----- --- ---- ------- -- ---- --- --<br>------- money.,200030.10000002384,200029.80000001192,199638.318,199651.10000002384,199653.387,200036.606,,55,money.
Item 100,flow.Loop,2_1_1_1,2022-05-12T15:34:22.884Z,,,,,,,,,,,,,,,,,,,,,,,,,,,,,,,21624.362000011926,,completion,,,,,F,,,,,,,,,,,silence,,,,,200030.30000001192,200029.80000001192,178389.185,178389.80000001192,178405.438,200036.606,,,
Question 1,html.Screen,2_1_1_2,2022-05-12T15:34:25.186Z,,,,,,,,,,,,,,,,,,,,,,,,,,,,true,TRUE,,2295.0940000178816,,response,,,,100,F,,,,,,TRUE,click #choice-1,,,,silence,,,,,202332.40000000596,202331.70000001788,200021.702,200030.40000000596,200036.606,202353.406,,,
Question 2,html.Screen,2_1_1_3,2022-05-12T15:34:27.044Z,,,,,,,,,,,,,,,,,,,,,,,,,,,,true,FALSE,,1836.4940000059723,,response,,,,100,F,,,,,,FALSE,click #choice-2,,,,silence,,,,,204190.40000000596,204189.90000000596,202336.692,202332.5,202353.406,204203.258,,,
Item 100,flow.Sequence,2_1_1,2022-05-12T15:34:27.044Z,,,,,,,,,,,,,,,,,,,,,,,,,,,,,,,35783.17100000597,,completion,,,,,,,,,,,,,,,,,,,,,204190.60000002384,204189.90000000596,168389.815,168398.20000001788,168406.729,204203.258,,,
End of Practice,html.Page,2_1_2,2022-05-12T15:34:30.499Z,,,,,,,,,,,,,,,,,,,,,,,,,,,,,,,3441.7419999999984,,form submission,,,,,,,,,,,,,,,,,,,,,207645.20000001788,207645,204186.773,204190.70000001788,204203.258,207652.842,,,
Practice,flow.Sequence,2_1,2022-05-12T15:34:30.499Z,,,,,,,,,,,,,,,,,,,,,,,,,,,,,,,77453.889,,completion,,,,,,,,,,,,,,,,,,,,,207645.40000000596,207645,130143.843,130161,130191.111,207652.842,,,
Trap_instruction,html.Page,2_2_0,2022-05-12T15:34:33.814Z,,,,,,,,,,,,,,,,,,,,,,,,,,,,,,,3307.5580000059563,,form submission,,,,,,,,,,,,,,,,,,,,,210960.5,210960.40000000596,207636.231,207645.40000000596,207652.842,210968.867,,,
trap_trial,html.Screen,2_2_1,2022-05-12T15:34:41.988Z,,,,,,,,,,,,,,,,,,,,,,,,,,,,true,1,,8164.833000017883,,response,,,,,,,,,,,1,click #choice-1,,,,,,,,,219134.40000000596,219133.70000001788,210952.344,210960.60000002384,210968.867,219155.242,,,
end of trap trial,html.Page,2_2_2,2022-05-12T15:34:43.230Z,,,,,,,,,,,,,,,,,,,,,,,,,,,,,,,1221.0580000119226,,form submission,,,,,,,,,,,,,,,,,,,,,220376.5,220376.30000001192,219118.354,219134.40000000596,219155.242,220384.608,,,
Trap 1,flow.Sequence,2_2,2022-05-12T15:34:43.230Z,,,,,,,,,,,,,,,,,,,,,,,,,,,,,,,12723.458000011917,,completion,,,,,,,,,,,,,,,,,,,,,220376.60000002384,220376.30000001192,207636.231,207645.40000000596,207652.842,220384.608,,,
Standby,html.Page,2_3_0,2022-05-12T15:34:51.222Z,,,,,,,,,,,,,,,,,,,,,,,,,,,,,,,7999.218999999983,,timeout,,,,,,,,,,,,,,,,,,,,,228368.10000002384,228367.2,220367.947,220376.70000001788,220384.608,228383.827,,,
Holding screen,html.Screen,2_3_1_0_0,2022-05-12T15:34:58.221Z,,,,,,,,,,,,,,,,,,,,,,,,,,,,,,,6999.364000000001,,timeout,,,,,,,,,,,,,,,,,,,,,235367.70000001788,235366.64,228367.2,228368.5,228383.827,235383.191,,,
screen,html.Screen,2_3_1_0_1_0,2022-05-12T15:34:59.682Z,,,,,,,,,,,,,,,,,40,,,,,,,,,,,,,,1445.1090000119293,,response,,,,9,F,,,,,,Space,keypress(Space),,,,lyrical,,,,Police -- ------- ---- ---- ---- - -------- ----- --- --<br>----- ----- ------ -- ---- -- --- - ---- -- - ----- -----<br>------ ---- ------ ---- - -------- ------- -- --- --------<br>-------- ----------- ---- ------ ---- ------ ---- --- ---<br>-------- --- -----,236828.90000000596,236828.30000001192,235366.64,235368.20000001788,235383.191,236832.933,,0,Police
screen,html.Screen,2_3_1_0_1_1,2022-05-12T15:35:00.085Z,,,,,,,,,,,,,,,,,40,,,,,,,,,,,,,,398.2670000178914,,response,,,,9,F,,,,,,Space,keypress(Space),,,,lyrical,,,,------ in ------- ---- ---- ---- - -------- ----- --- --<br>----- ----- ------ -- ---- -- --- - ---- -- - ----- -----<br>------ ---- ------ ---- - -------- ------- -- --- --------<br>-------- ----------- ---- ------ ---- ------ ---- --- ---<br>-------- --- -----,237231.60000002384,237231.20000001788,236816.272,236828.90000000596,236832.933,237264.96,,1,in
screen,html.Screen,2_3_1_0_1_2,2022-05-12T15:35:00.320Z,,,,,,,,,,,,,,,,,40,,,,,,,,,,,,,,200.14000002385,,response,,,,9,F,,,,,,Space,keypress(Space),,,,lyrical,,,,------ -- Georgia ---- ---- ---- - -------- ----- --- --<br>----- ----- ------ -- ---- -- --- - ---- -- - ----- -----<br>------ ---- ------ ---- - -------- ------- -- --- --------<br>-------- ----------- ---- ------ ---- ------ ---- --- ---<br>-------- --- -----,237466,237465.10000002384,237216.267,237231.60000002384,237264.96,237482.967,,2,Georgia
screen,html.Screen,2_3_1_0_1_3,2022-05-12T15:35:00.678Z,,,,,,,,,,,,,,,,,40,,,,,,,,,,,,,,340.63300002383767,,response,,,,9,F,,,,,,Space,keypress(Space),,,,lyrical,,,,------ -- ------- have ---- ---- - -------- ----- --- --<br>----- ----- ------ -- ---- -- --- - ---- -- - ----- -----<br>------ ---- ------ ---- - -------- ------- -- --- --------<br>-------- ----------- ---- ------ ---- ------ ---- --- ---<br>-------- --- -----,237824.20000001788,237823.60000002384,237466.357,237466.30000001192,237482.967,237832.926,,3,have
screen,html.Screen,2_3_1_0_1_4,2022-05-12T15:35:00.929Z,,,,,,,,,,,,,,,,,40,,,,,,,,,,,,,,241.27400001787464,,response,,,,9,F,,,,,,Space,keypress(Space),,,,lyrical,,,,------ -- ------- ---- shut ---- - -------- ----- --- --<br>----- ----- ------ -- ---- -- --- - ---- -- - ----- -----<br>------ ---- ------ ---- - -------- ------- -- --- --------<br>-------- ----------- ---- ------ ---- ------ ---- --- ---<br>-------- --- -----,238074.90000000596,238074.20000001788,237816.188,237824.30000001192,237832.926,238083.128,,4,shut
screen,html.Screen,2_3_1_0_1_5,2022-05-12T15:35:01.179Z,,,,,,,,,,,,,,,,,40,,,,,,,,,,,,,,241.37200000000303,,response,,,,9,F,,,,,,Space,keypress(Space),,,,lyrical,,,,------ -- ------- ---- ---- down - -------- ----- --- --<br>----- ----- ------ -- ---- -- --- - ---- -- - ----- -----<br>------ ---- ------ ---- - -------- ------- -- --- --------<br>-------- ----------- ---- ------ ---- ------ ---- --- ---<br>-------- --- -----,238325.30000001192,238324.5,238066.211,238075.10000002384,238083.128,238332.888,,5,down
screen,html.Screen,2_3_1_0_1_6,2022-05-12T15:35:01.505Z,,,,,,,,,,,,,,,,,40,,,,,,,,,,,,,,318.21200002383557,,response,,,,9,F,,,,,,Space,keypress(Space),,,,lyrical,,,,------ -- ------- ---- ---- ---- a -------- ----- --- --<br>----- ----- ------ -- ---- -- --- - ---- -- - ----- -----<br>------ ---- ------ ---- - -------- ------- -- --- --------<br>-------- ----------- ---- ------ ---- ------ ---- --- ---<br>-------- --- -----,238651.80000001192,238651.10000002384,238316.209,238325.5,238332.888,238666.186,,6,a
screen,html.Screen,2_3_1_0_1_7,2022-05-12T15:35:01.849Z,,,,,,,,,,,,,,,,,40,,,,,,,,,,,,,,328.2140000059735,,response,,,,9,F,,,,,,Space,keypress(Space),,,,lyrical,,,,------ -- ------- ---- ---- ---- - lemonade ----- --- --<br>----- ----- ------ -- ---- -- --- - ---- -- - ----- -----<br>------ ---- ------ ---- - -------- ------- -- --- --------<br>-------- ----------- ---- ------ ---- ------ ---- --- ---<br>-------- --- -----,238995.20000001788,238994.40000000596,238649.461,238651.90000000596,238666.186,238999.434,,7,lemonade
screen,html.Screen,2_3_1_0_1_8,2022-05-12T15:35:02.157Z,,,,,,,,,,,,,,,,,40,,,,,,,,,,,,,,302.9660000059521,,response,,,,9,F,,,,,,Space,keypress(Space),,,,lyrical,,,,------ -- ------- ---- ---- ---- - -------- stand --- --<br>----- ----- ------ -- ---- -- --- - ---- -- - ----- -----<br>------ ---- ------ ---- - -------- ------- -- --- --------<br>-------- ----------- ---- ------ ---- ------ ---- --- ---<br>-------- --- -----,239303.20000001788,239302.40000000596,238983.006,238995.30000001192,238999.434,239316.081,,8,stand
screen,html.Screen,2_3_1_0_1_9,2022-05-12T15:35:02.406Z,,,,,,,,,,,,,,,,,40,,,,,,,,,,,,,,235.9189999999944,,response,,,,9,F,,,,,,Space,keypress(Space),,,,lyrical,,,,------ -- ------- ---- ---- ---- - -------- ----- run --<br>----- ----- ------ -- ---- -- --- - ---- -- - ----- -----<br>------ ---- ------ ---- - -------- ------- -- --- --------<br>-------- ----------- ---- ------ ---- ------ ---- --- ---<br>-------- --- -----,239552.40000000596,239552,239299.786,239303.5,239316.081,239566.458,,9,run
screen,html.Screen,2_3_1_0_1_10,2022-05-12T15:35:02.633Z,,,,,,,,,,,,,,,,,40,,,,,,,,,,,,,,211.9420000059472,,response,,,,9,F,,,,,,Space,keypress(Space),,,,lyrical,,,,------ -- ------- ---- ---- ---- - -------- ----- --- by<br>----- ----- ------ -- ---- -- --- - ---- -- - ----- -----<br>------ ---- ------ ---- - -------- ------- -- --- --------<br>-------- ----------- ---- ------ ---- ------ ---- --- ---<br>-------- --- -----,239779.30000001192,239778.40000000596,239549.507,239552.5,239566.458,239782.739,,10,by
screen,html.Screen,2_3_1_0_1_11,2022-05-12T15:35:02.960Z,,,,,,,,,,,,,,,,,40,,,,,,,,,,,,,,323.16100000595907,,response,,,,9,F,,,,,,Space,keypress(Space),,,,lyrical,,,,------ -- ------- ---- ---- ---- - -------- ----- --- --<br>three ----- ------ -- ---- -- --- - ---- -- - ----- -----<br>------ ---- ------ ---- - -------- ------- -- --- --------<br>-------- ----------- ---- ------ ---- ------ ---- --- ---<br>-------- --- -----,240106.80000001192,240105.90000000596,239766.102,239779.5,239782.739,240115.995,,11,three
screen,html.Screen,2_3_1_0_1_12,2022-05-12T15:35:03.393Z,,,,,,,,,,,,,,,,,40,,,,,,,,,,,,,,422.70500001788605,,response,,,,9,F,,,,,,Space,keypress(Space),,,,lyrical,,,,------ -- ------- ---- ---- ---- - -------- ----- --- --<br>----- girls ------ -- ---- -- --- - ---- -- - ----- -----<br>------ ---- ------ ---- - -------- ------- -- --- --------<br>-------- ----------- ---- ------ ---- ------ ---- --- ---<br>-------- --- -----,240539.30000001192,240538.70000001788,240099.411,240107.10000002384,240115.995,240549.603,,12,girls
screen,html.Screen,2_3_1_0_1_13,2022-05-12T15:35:03.692Z,,,,,,,,,,,,,,,,,40,,,,,,,,,,,,,,287.69700001191813,,response,,,,9,F,,,,,,Space,keypress(Space),,,,lyrical,,,,------ -- ------- ---- ---- ---- - -------- ----- --- --<br>----- ----- trying -- ---- -- --- - ---- -- - ----- -----<br>------ ---- ------ ---- - -------- ------- -- --- --------<br>-------- ----------- ---- ------ ---- ------ ---- --- ---<br>-------- --- -----,240838.20000001788,240837.30000001192,240532.647,240539.5,240549.603,240849.273,,13,trying
screen,html.Screen,2_3_1_0_1_14,2022-05-12T15:35:03.951Z,,,,,,,,,,,,,,,,,40,,,,,,,,,,,,,,247.82700002385536,,response,,,,9,F,,,,,,Space,keypress(Space),,,,lyrical,,,,------ -- ------- ---- ---- ---- - -------- ----- --- --<br>----- ----- ------ to ---- -- --- - ---- -- - ----- -----<br>------ ---- ------ ---- - -------- ------- -- --- --------<br>-------- ----------- ---- ------ ---- ------ ---- --- ---<br>-------- --- -----,241097.80000001192,241097.10000002384,240832.714,240838.5,240849.273,241131.128,,14,to
screen,html.Screen,2_3_1_0_1_15,2022-05-12T15:35:04.221Z,,,,,,,,,,,,,,,,,40,,,,,,,,,,,,,,235.37200000000303,,response,,,,9,F,,,,,,Space,keypress(Space),,,,lyrical,,,,------ -- ------- ---- ---- ---- - -------- ----- --- --<br>----- ----- ------ -- save -- --- - ---- -- - ----- -----<br>------ ---- ------ ---- - -------- ------- -- --- --------<br>-------- ----------- ---- ------ ---- ------ ---- --- ---<br>-------- --- -----,241367.30000001192,241366.5,241082.569,241097.90000000596,241131.128,241382.607,,15,save
screen,html.Screen,2_3_1_0_1_16,2022-05-12T15:35:04.521Z,,,,,,,,,,,,,,,,,40,,,,,,,,,,,,,,283.89300000001094,,response,,,,9,F,,,,,,Space,keypress(Space),,,,lyrical,,,,------ -- ------- ---- ---- ---- - -------- ----- --- --<br>----- ----- ------ -- ---- up --- - ---- -- - ----- -----<br>------ ---- ------ ---- - -------- ------- -- --- --------<br>-------- ----------- ---- ------ ---- ------ ---- --- ---<br>-------- --- -----,241667.5,241666.5,241366.238,241367.5,241382.607,241682.518,,16,up
screen,html.Screen,2_3_1_0_1_17,2022-05-12T15:35:04.828Z,,,,,,,,,,,,,,,,,40,,,,,,,,,,,,,,291.18200001787045,,response,,,,9,F,,,,,,Space,keypress(Space),,,,lyrical,,,,------ -- ------- ---- ---- ---- - -------- ----- --- --<br>----- ----- ------ -- ---- -- for - ---- -- - ----- -----<br>------ ---- ------ ---- - -------- ------- -- --- --------<br>-------- ----------- ---- ------ ---- ------ ---- --- ---<br>-------- --- -----,241974.30000001192,241973.70000001788,241665.845,241667.90000000596,241682.518,241982.767,,17,for
screen,html.Screen,2_3_1_0_1_18,2022-05-12T15:35:05.092Z,,,,,,,,,,,,,,,,,40,,,,,,,,,,,,,,254.43300001788884,,response,,,,9,F,,,,,,Space,keypress(Space),,,,lyrical,,,,------ -- ------- ---- ---- ---- - -------- ----- --- --<br>----- ----- ------ -- ---- -- --- a ---- -- - ----- -----<br>------ ---- ------ ---- - -------- ------- -- --- --------<br>-------- ----------- ---- ------ ---- ------ ---- --- ---<br>-------- --- -----,242238.10000002384,242237.20000001788,241965.832,241974.5,241982.767,242249.411,,18,a
screen,html.Screen,2_3_1_0_1_19,2022-05-12T15:35:05.379Z,,,,,,,,,,,,,,,,,40,,,,,,,,,,,,,,275.2890000178886,,response,,,,9,F,,,,,,Space,keypress(Space),,,,lyrical,,,,------ -- ------- ---- ---- ---- - -------- ----- --- --<br>----- ----- ------ -- ---- -- --- - trip -- - ----- -----<br>------ ---- ------ ---- - -------- ------- -- --- --------<br>-------- ----------- ---- ------ ---- ------ ---- --- ---<br>-------- --- -----,242525.30000001192,242524.70000001788,242232.437,242238.40000000596,242249.411,242532.683,,19,trip
screen,html.Screen,2_3_1_0_1_20,2022-05-12T15:35:05.648Z,,,,,,,,,,,,,,,,,40,,,,,,,,,,,,,,260.91700002385187,,response,,,,9,F,,,,,,Space,keypress(Space),,,,lyrical,,,,------ -- ------- ---- ---- ---- - -------- ----- --- --<br>----- ----- ------ -- ---- -- --- - ---- to - ----- -----<br>------ ---- ------ ---- - -------- ------- -- --- --------<br>-------- ----------- ---- ------ ---- ------ ---- --- ---<br>-------- --- -----,242794.5,242793.60000002384,242515.79,242525.40000000596,242532.683,242799.07,,20,to
screen,html.Screen,2_3_1_0_1_21,2022-05-12T15:35:05.916Z,,,,,,,,,,,,,,,,,40,,,,,,,,,,,,,,263.23000001191394,,response,,,,9,F,,,,,,Space,keypress(Space),,,,lyrical,,,,------ -- ------- ---- ---- ---- - -------- ----- --- --<br>----- ----- ------ -- ---- -- --- - ---- -- a ----- -----<br>------ ---- ------ ---- - -------- ------- -- --- --------<br>-------- ----------- ---- ------ ---- ------ ---- --- ---<br>-------- --- -----,243062.90000000596,243062.30000001192,242782.408,242794.70000001788,242799.07,243065.716,,21,a
screen,html.Screen,2_3_1_0_1_22,2022-05-12T15:35:06.255Z,,,,,,,,,,,,,,,,,40,,,,,,,,,,,,,,334.4840000178956,,response,,,,9,F,,,,,,Space,keypress(Space),,,,lyrical,,,,------ -- ------- ---- ---- ---- - -------- ----- --- --<br>----- ----- ------ -- ---- -- --- - ---- -- - water -----<br>------ ---- ------ ---- - -------- ------- -- --- --------<br>-------- ----------- ---- ------ ---- ------ ---- --- ---<br>-------- --- -----,243401.30000001192,243400.20000001788,243049.39,243063,243065.716,243415.665,,22,water
screen,html.Screen,2_3_1_0_1_23,2022-05-12T15:35:06.587Z,,,,,,,,,,,,,,,,,40,,,,,,,,,,,,,,317.1350000119128,,response,,,,9,F,,,,,,Space,keypress(Space),,,,lyrical,,,,"------ -- ------- ---- ---- ---- - -------- ----- --- --<br>----- ----- ------ -- ---- -- --- - ---- -- - ----- park,<br>------ ---- ------ ---- - -------- ------- -- --- --------<br>-------- ----------- ---- ------ ---- ------ ---- --- ---<br>-------- --- -----",243733.20000001788,243732.80000001192,243399.323,243401.5,243415.665,243749.383,,23,"park,"
screen,html.Screen,2_3_1_0_1_24,2022-05-12T15:35:06.900Z,,,,,,,,,,,,,,,,,40,,,,,,,,,,,,,,296.61699999999837,,response,,,,9,F,,,,,,Space,keypress(Space),,,,lyrical,,,,------ -- ------- ---- ---- ---- - -------- ----- --- --<br>----- ----- ------ -- ---- -- --- - ---- -- - ----- -----<br>saying ---- ------ ---- - -------- ------- -- --- --------<br>-------- ----------- ---- ------ ---- ------ ---- --- ---<br>-------- --- -----,244046.70000001788,244046,243732.361,243733.30000001192,243749.383,244049.017,,24,saying
screen,html.Screen,2_3_1_0_1_25,2022-05-12T15:35:07.219Z,,,,,,,,,,,,,,,,,40,,,,,,,,,,,,,,315.18300001788884,,response,,,,9,F,,,,,,Space,keypress(Space),,,,lyrical,,,,------ -- ------- ---- ---- ---- - -------- ----- --- --<br>----- ----- ------ -- ---- -- --- - ---- -- - ----- -----<br>------ they ------ ---- - -------- ------- -- --- --------<br>-------- ----------- ---- ------ ---- ------ ---- --- ---<br>-------- --- -----,244365,244364.20000001788,244032.255,244047,244049.017,244399.018,,25,they
screen,html.Screen,2_3_1_0_1_26,2022-05-12T15:35:07.452Z,,,,,,,,,,,,,,,,,40,,,,,,,,,,,,,,198.58200002383091,,response,,,,9,F,,,,,,Space,keypress(Space),,,,lyrical,,,,------ -- ------- ---- ---- ---- - -------- ----- --- --<br>----- ----- ------ -- ---- -- --- - ---- -- - ----- -----<br>------ ---- didn't ---- - -------- ------- -- --- --------<br>-------- ----------- ---- ------ ---- ------ ---- --- ---<br>-------- --- -----,244598,244597.60000002384,244382.282,244365.30000001192,244399.018,244626.385,,26,didn't
screen,html.Screen,2_3_1_0_1_27,2022-05-12T15:35:07.770Z,,,,,,,,,,,,,,,,,40,,,,,,,,,,,,,,289.3150000178721,,response,,,,9,F,,,,,,Space,keypress(Space),,,,lyrical,,,,------ -- ------- ---- ---- ---- - -------- ----- --- --<br>----- ----- ------ -- ---- -- --- - ---- -- - ----- -----<br>------ ---- ------ have - -------- ------- -- --- --------<br>-------- ----------- ---- ------ ---- ------ ---- --- ---<br>-------- --- -----,244916.70000001788,244915.70000001788,244582.53,244598.10000002384,244626.385,244932.412,,27,have
screen,html.Screen,2_3_1_0_1_28,2022-05-12T15:35:08.035Z,,,,,,,,,,,,,,,,,40,,,,,,,,,,,,,,248.08799999998882,,response,,,,9,F,,,,,,Space,keypress(Space),,,,lyrical,,,,------ -- ------- ---- ---- ---- - -------- ----- --- --<br>----- ----- ------ -- ---- -- --- - ---- -- - ----- -----<br>------ ---- ------ ---- a -------- ------- -- --- --------<br>-------- ----------- ---- ------ ---- ------ ---- --- ---<br>-------- --- -----,245181.5,245180.5,244915.731,244918.20000001788,244932.412,245215.602,,28,a
screen,html.Screen,2_3_1_0_1_29,2022-05-12T15:35:08.362Z,,,,,,,,,,,,,,,,,40,,,,,,,,,,,,,,292.29800000594696,,response,,,,9,F,,,,,,Space,keypress(Space),,,,lyrical,,,,------ -- ------- ---- ---- ---- - -------- ----- --- --<br>----- ----- ------ -- ---- -- --- - ---- -- - ----- -----<br>------ ---- ------ ---- - business ------- -- --- --------<br>-------- ----------- ---- ------ ---- ------ ---- --- ---<br>-------- --- -----,245508.30000001192,245507.90000000596,245199.194,245181.70000001788,245215.602,245515.531,,29,business
screen,html.Screen,2_3_1_0_1_30,2022-05-12T15:35:08.658Z,,,,,,,,,,,,,,,,,40,,,,,,,,,,,,,,287.4690000000119,,response,,,,9,F,,,,,,Space,keypress(Space),,,,lyrical,,,,------ -- ------- ---- ---- ---- - -------- ----- --- --<br>----- ----- ------ -- ---- -- --- - ---- -- - ----- -----<br>------ ---- ------ ---- - -------- license -- --- --------<br>-------- ----------- ---- ------ ---- ------ ---- --- ---<br>-------- --- -----,245803.90000000596,245803,245499.14,245508.40000000596,245515.531,245815.493,,30,license
screen,html.Screen,2_3_1_0_1_31,2022-05-12T15:35:08.959Z,,,,,,,,,,,,,,,,,40,,,,,,,,,,,,,,289.00700000001234,,response,,,,9,F,,,,,,Space,keypress(Space),,,,lyrical,,,,------ -- ------- ---- ---- ---- - -------- ----- --- --<br>----- ----- ------ -- ---- -- --- - ---- -- - ----- -----<br>------ ---- ------ ---- - -------- ------- or --- --------<br>-------- ----------- ---- ------ ---- ------ ---- --- ---<br>-------- --- -----,246105.40000000596,246104.5,245798.977,245804.20000001788,245815.493,246115.421,,31,or
screen,html.Screen,2_3_1_0_1_32,2022-05-12T15:35:09.241Z,,,,,,,,,,,,,,,,,40,,,,,,,,,,,,,,271.97900000595837,,response,,,,9,F,,,,,,Space,keypress(Space),,,,lyrical,,,,------ -- ------- ---- ---- ---- - -------- ----- --- --<br>----- ----- ------ -- ---- -- --- - ---- -- - ----- -----<br>------ ---- ------ ---- - -------- ------- -- the --------<br>-------- ----------- ---- ------ ---- ------ ---- --- ---<br>-------- --- -----,246387.80000001192,246387.40000000596,246098.968,246105.60000002384,246115.421,246399.017,,32,the
screen,html.Screen,2_3_1_0_1_33,2022-05-12T15:35:09.558Z,,,,,,,,,,,,,,,,,40,,,,,,,,,,,,,,304.5830000238493,,response,,,,9,F,,,,,,Space,keypress(Space),,,,lyrical,,,,------ -- ------- ---- ---- ---- - -------- ----- --- --<br>----- ----- ------ -- ---- -- --- - ---- -- - ----- -----<br>------ ---- ------ ---- - -------- ------- -- --- required<br>-------- ----------- ---- ------ ---- ------ ---- --- ---<br>-------- --- -----,246704.20000001788,246703.60000002384,246382.31,246387.80000001192,246399.017,246715.353,,33,required
screen,html.Screen,2_3_1_0_1_34,2022-05-12T15:35:09.855Z,,,,,,,,,,,,,,,,,40,,,,,,,,,,,,,,284.8470000178786,,response,,,,9,F,,,,,,Space,keypress(Space),,,,lyrical,,,,------ -- ------- ---- ---- ---- - -------- ----- --- --<br>----- ----- ------ -- ---- -- --- - ---- -- - ----- -----<br>------ ---- ------ ---- - -------- ------- -- --- --------<br>permits. ----------- ---- ------ ---- ------ ---- --- ---<br>-------- --- -----,247001,247000.20000001788,246698.977,246704.30000001192,246715.353,247015.311,,34,permits.
screen,html.Screen,2_3_1_0_1_35,2022-05-12T15:35:10.232Z,,,,,,,,,,,,,,,,,40,,,,,,,,,,,,,,361.88900001789443,,response,,,,9,F,,,,,,Space,keypress(Space),,,,lyrical,,,,------ -- ------- ---- ---- ---- - -------- ----- --- --<br>----- ----- ------ -- ---- -- --- - ---- -- - ----- -----<br>------ ---- ------ ---- - -------- ------- -- --- --------<br>-------- Morningstar ---- ------ ---- ------ ---- --- ---<br>-------- --- -----,247378.20000001788,247377.20000001788,246998.835,247001.20000001788,247015.311,247382.032,,35,Morningstar
screen,html.Screen,2_3_1_0_1_36,2022-05-12T15:35:10.632Z,,,,,,,,,,,,,,,,,40,,,,,,,,,,,,,,395.86800000595395,,response,,,,9,F,,,,,,Space,keypress(Space),,,,lyrical,,,,------ -- ------- ---- ---- ---- - -------- ----- --- --<br>----- ----- ------ -- ---- -- --- - ---- -- - ----- -----<br>------ ---- ------ ---- - -------- ------- -- --- --------<br>-------- ----------- says ------ ---- ------ ---- --- ---<br>-------- --- -----,247778.5,247777.90000000596,247365.473,247378.40000000596,247382.032,247781.868,,36,says
screen,html.Screen,2_3_1_0_1_37,2022-05-12T15:35:10.942Z,,,,,,,,,,,,,,,,,40,,,,,,,,,,,,,,305.0320000059728,,response,,,,9,F,,,,,,Space,keypress(Space),,,,lyrical,,,,------ -- ------- ---- ---- ---- - -------- ----- --- --<br>----- ----- ------ -- ---- -- --- - ---- -- - ----- -----<br>------ ---- ------ ---- - -------- ------- -- --- --------<br>-------- ----------- ---- police ---- ------ ---- --- ---<br>-------- --- -----,248087.80000001192,248086.90000000596,247765.264,247778.80000001192,247781.868,248098.955,,37,police
screen,html.Screen,2_3_1_0_1_38,2022-05-12T15:35:11.278Z,,,,,,,,,,,,,,,,,40,,,,,,,,,,,,,,324.94500000597327,,response,,,,9,F,,,,,,Space,keypress(Space),,,,lyrical,,,,------ -- ------- ---- ---- ---- - -------- ----- --- --<br>----- ----- ------ -- ---- -- --- - ---- -- - ----- -----<br>------ ---- ------ ---- - -------- ------- -- --- --------<br>-------- ----------- ---- ------ also ------ ---- --- ---<br>-------- --- -----,248424.30000001192,248423.90000000596,248081.876,248088,248098.955,248432.139,,38,also
screen,html.Screen,2_3_1_0_1_39,2022-05-12T15:35:11.638Z,,,,,,,,,,,,,,,,,40,,,,,,,,,,,,,,351.2610000059649,,response,,,,9,F,,,,,,Space,keypress(Space),,,,lyrical,,,,------ -- ------- ---- ---- ---- - -------- ----- --- --<br>----- ----- ------ -- ---- -- --- - ---- -- - ----- -----<br>------ ---- ------ ---- - -------- ------- -- --- --------<br>-------- ----------- ---- ------ ---- didn't ---- --- ---<br>-------- --- -----,248784.30000001192,248783.40000000596,248415.215,248424.40000000596,248432.139,248798.58,,39,didn't
screen,html.Screen,2_3_1_0_1_40,2022-05-12T15:35:11.913Z,,,,,,,,,,,,,,,,,40,,,,,,,,,,,,,,260.22000001193373,,response,,,,9,F,,,,,,Space,keypress(Space),,,,lyrical,,,,------ -- ------- ---- ---- ---- - -------- ----- --- --<br>----- ----- ------ -- ---- -- --- - ---- -- - ----- -----<br>------ ---- ------ ---- - -------- ------- -- --- --------<br>-------- ----------- ---- ------ ---- ------ know --- ---<br>-------- --- -----,249059.30000001192,249058.80000001192,248781.772,248784.5,248798.58,249065.092,,40,know
screen,html.Screen,2_3_1_0_1_41,2022-05-12T15:35:12.190Z,,,,,,,,,,,,,,,,,40,,,,,,,,,,,,,,269.9079999999958,,response,,,,9,F,,,,,,Space,keypress(Space),,,,lyrical,,,,------ -- ------- ---- ---- ---- - -------- ----- --- --<br>----- ----- ------ -- ---- -- --- - ---- -- - ----- -----<br>------ ---- ------ ---- - -------- ------- -- --- --------<br>-------- ----------- ---- ------ ---- ------ ---- how ---<br>-------- --- -----,249336.20000001788,249335,249048.78,249059.40000000596,249065.092,249348.802,,41,how
screen,html.Screen,2_3_1_0_1_42,2022-05-12T15:35:12.468Z,,,,,,,,,,,,,,,,,40,,,,,,,,,,,,,,263.9980000119249,,response,,,,9,F,,,,,,Space,keypress(Space),,,,lyrical,,,,------ -- ------- ---- ---- ---- - -------- ----- --- --<br>----- ----- ------ -- ---- -- --- - ---- -- - ----- -----<br>------ ---- ------ ---- - -------- ------- -- --- --------<br>-------- ----------- ---- ------ ---- ------ ---- --- the<br>-------- --- -----,249613.70000001788,249612.80000001192,249332.052,249336.40000000596,249348.802,249647.283,,42,the
screen,html.Screen,2_3_1_0_1_43,2022-05-12T15:35:12.761Z,,,,,,,,,,,,,,,,,40,,,,,,,,,,,,,,259.0170000119251,,response,,,,9,F,,,,,,Space,keypress(Space),,,,lyrical,,,,------ -- ------- ---- ---- ---- - -------- ----- --- --<br>----- ----- ------ -- ---- -- --- - ---- -- - ----- -----<br>------ ---- ------ ---- - -------- ------- -- --- --------<br>-------- ----------- ---- ------ ---- ------ ---- --- ---<br>lemonade --- -----,249907.10000002384,249906.30000001192,249598.381,249614,249647.283,249915.044,,43,lemonade
screen,html.Screen,2_3_1_0_1_44,2022-05-12T15:35:13.089Z,,,,,,,,,,,,,,,,,40,,,,,,,,,,,,,,319.4560000000056,,response,,,,9,F,,,,,,Space,keypress(Space),,,,lyrical,,,,------ -- ------- ---- ---- ---- - -------- ----- --- --<br>----- ----- ------ -- ---- -- --- - ---- -- - ----- -----<br>------ ---- ------ ---- - -------- ------- -- --- --------<br>-------- ----------- ---- ------ ---- ------ ---- --- ---<br>-------- was -----,250235.30000001192,250234.5,249898.422,249907.40000000596,249915.044,250248.471,,44,was
screen,html.Screen,2_3_1_0_1_45,2022-05-12T15:35:14.113Z,,,,,,,,,,,,,,,,,40,,,,,,,,,,,,,,1009.3290000119305,,response,,,,9,F,,,,,,Space,keypress(Space),,,,lyrical,,,,------ -- ------- ---- ---- ---- - -------- ----- --- --<br>----- ----- ------ -- ---- -- --- - ---- -- - ----- -----<br>------ ---- ------ ---- - -------- ------- -- --- --------<br>-------- ----------- ---- ------ ---- ------ ---- --- ---<br>-------- --- made.,251258.80000001192,251257.80000001192,250231.571,250235.40000000596,250248.471,251264.9,,45,made.
Item 9,flow.Loop,2_3_1_0_1,2022-05-12T15:35:14.113Z,,,,,,,,,,,,,,,,,,,,,,,,,,,,,,,15874.60900001193,,completion,,,,,,,,,,,,,,,,,,,,,251259.20000001788,251257.80000001192,235366.64,235368,235383.191,251264.9,,,
Question 1,html.Screen,2_3_1_0_2,2022-05-12T15:35:16.960Z,,,,,,,,,,,,,,,,,,,,,,,,,,,,true,FALSE,,2840.7000000238477,,response,,,,9,F,,,,,,FALSE,click #choice-2,,,,lyrical,,,,,254106.20000001788,254105.60000002384,251248.524,251259.40000000596,251264.9,254114.814,,,
