sender,sender_type,sender_id,timestamp,meta,,Blues,Classical,Country,Dance,Electronic,Folk,Gospel,Hip-Hop,Jazz,Latin,Musical/Film,New-age,Pop,Prolific_id,Provo_ID,R&B,Rap,Reggae,Religious,Rock,Soul,Swing,Traditional,age,artist_name,correct,correctResponse,distraction,duration,education,ended_on,familiarity,gender,headphone_check_performance,item,list,music_frequency,offensiveness,pleasantness,position_correct,preference,response,response_action,snippet_file,song_name,song_rating,sound,stimulus_1,stimulus_2,stimulus_3,text,time_commit,time_end,time_render,time_run,time_show,time_switch,url,word,word_ID
Prolific ID,html.Form,0,2022-05-03T10:05:03.339Z,"{""labjs_version"":""20.2.2"",""labjs_build"":{""flavor"":""production"",""commit"":""a25486e0c714a0ae2ce03ff94b7bb6896854dcfa""},""location"":""https://run.pavlovia.org/mvasilev/prolific3_music_h/"",""userAgent"":""Mozilla/5.0 (Windows NT 10.0; Win64; x64) AppleWebKit/537.36 (KHTML, like Gecko) Chrome/100.0.4896.127 Safari/537.36 Edg/100.0.1185.50"",""platform"":""Win32"",""language"":""en-GB"",""locale"":""en-GB"",""timeZone"":""Europe/London"",""timezoneOffset"":-60,""screen_width"":1280,""screen_height"":720,""scroll_width"":1280,""scroll_height"":553,""window_innerWidth"":1280,""window_innerHeight"":601,""devicePixelRatio"":1.5}",,,,,,,,,,,,,,,59fe29f9517dfb00013dad16,,,,,,,,,,,,,,,4522.420000190734,,form submission,,,,,,,,,,,,,,,,,,,,,25242.60000038147,25240.800000190735,20666.957,20667,20718.38,25267.758,{},,
Introduction,html.Screen,1_0,2022-05-03T10:05:10.052Z,,,,,,,,,,,,,,,,,,,,,,,,,,,,,,,6677.042000190733,,response,,,,,,,,,,,continue,click button,,,,,,,,,31955.800000190735,31944.800000190735,25234.297,25243.10000038147,25267.758,31983.541,,,
Volume calibration,html.Screen,1_1,2022-05-03T10:05:33.571Z,,,,,,,,,,,,,,,,,,,,,,,,,,,,,,,23480.459,,response,,,,,,,,,,,continue,click button,,,,,,,,,55474.800000190735,55464,31933.603,31956.300000190735,31983.541,55480.272,,,
Task instructions,html.Screen,1_2,2022-05-03T10:05:55.554Z,,,,,,,,,,,,,,,,,,,,,,,,,,,,,,,21976.828000381473,,response,,,,,,,,,,,continue,click button,,,,,,,,,77459.7000002861,77457.10000038147,55463.937,55475.300000190735,55480.272,77460.607,,,
Sounds,html.Screen,1_3_0_0,2022-05-03T10:05:59.794Z,,,,,,,,,,,,,,,,,,,,,,,,,,,,,,,4265.925999999992,,timeout,,,,,,,,,3,,,,,,,,O,I,S,,81700.10000038147,81693.301,77443.985,77460.2000002861,77460.607,81726.533,,,
Judgement,html.Screen,1_3_0_1,2022-05-03T10:06:01.061Z,,,,,,,,,,,,,,,,,,,,,,,,,,,,true,3,,1235.3670000953716,,response,,,,,,,,,3,,3,click #choice-3,,,,,O,I,S,,82967.10000038147,82961.90000009537,81693.301,81700.60000038147,81726.533,82977.152,,,
Trial,flow.Sequence,1_3_0,2022-05-03T10:06:01.062Z,,,,,,,,,,,,,,,,,,,,,,,,,,,,,,,5501.293000095364,,completion,,,,,,,,,3,,,,,,,,O,I,S,,82967.90000009537,82961.90000009537,77443.985,77460.10000038147,77460.607,82977.152,,,
Sounds,html.Screen,1_3_1_0,2022-05-03T10:06:05.306Z,,,,,,,,,,,,,,,,,,,,,,,,,,,,,,,4251.830000000002,,timeout,,,,,,,,,2,,,,,,,,O,S,I,,87211.60000038147,87209.055,82959.46,82968.30000019073,82977.152,87228.982,,,
Judgement,html.Screen,1_3_1_1,2022-05-03T10:06:06.134Z,,,,,,,,,,,,,,,,,,,,,,,,,,,,true,2,,808.1180003814661,,response,,,,,,,,,2,,2,click #choice-2,,,,,O,S,I,,88039.7000002861,88037.10000038147,87209.055,87211.80000019073,87228.982,88042.354,,,
Trial,flow.Sequence,1_3_1,2022-05-03T10:06:06.135Z,,,,,,,,,,,,,,,,,,,,,,,,,,,,,,,5059.948000381468,,completion,,,,,,,,,2,,,,,,,,O,S,I,,88040.40000009537,88037.10000038147,82959.46,82968.2000002861,82977.152,88042.354,,,
Sounds,html.Screen,1_3_2_0,2022-05-03T10:06:10.376Z,,,,,,,,,,,,,,,,,,,,,,,,,,,,,,,4257.981,,timeout,,,,,,,,,3,,,,,,,,I,O,S,,92281.90000009537,92276.168,88026.282,88040.90000009537,88042.354,92300.335,,,
Judgement,html.Screen,1_3_2_1,2022-05-03T10:06:11.288Z,,,,,,,,,,,,,,,,,,,,,,,,,,,,true,3,,889.4650001907285,,response,,,,,,,,,3,,3,click #choice-3,,,,,I,O,S,,93193.5,93189.80000019073,92276.168,92282.5,92300.335,93224.864,,,
Trial,flow.Sequence,1_3_2,2022-05-03T10:06:11.288Z,,,,,,,,,,,,,,,,,,,,,,,,,,,,,,,5147.446000190728,,completion,,,,,,,,,3,,,,,,,,I,O,S,,93194.2000002861,93189.80000019073,88026.282,88040.60000038147,88042.354,93224.864,,,
Sounds,html.Screen,1_3_3_0,2022-05-03T10:06:15.554Z,,,,,,,,,,,,,,,,,,,,,,,,,,,,,,,4249.456999999995,,timeout,,,,,,,,,2,,,,,,,,I,S,O,,97459.60000038147,97457.775,93208.559,93195.30000019073,93224.864,97474.321,,,
Judgement,html.Screen,1_3_3_1,2022-05-03T10:06:16.229Z,,,,,,,,,,,,,,,,,,,,,,,,,,,,true,2,,657.379000286106,,response,,,,,,,,,2,,2,click #choice-2,,,,,I,S,O,,98134.30000019073,98131.7000002861,97457.775,97460,97474.321,98144.914,,,
Trial,flow.Sequence,1_3_3,2022-05-03T10:06:16.229Z,,,,,,,,,,,,,,,,,,,,,,,,,,,,,,,4906.836000286101,,completion,,,,,,,,,2,,,,,,,,I,S,O,,98134.80000019073,98131.7000002861,93208.559,93195.10000038147,93224.864,98144.914,,,
Sounds,html.Screen,1_3_4_0,2022-05-03T10:06:20.470Z,,,,,,,,,,,,,,,,,,,,,,,,,,,,,,,4251.4360000000015,,timeout,,,,,,,,,1,,,,,,,,S,O,I,,102375.7000002861,102374.053,98124.236,98135.10000038147,98144.914,102396.35,,,
Judgement,html.Screen,1_3_4_1,2022-05-03T10:06:21.300Z,,,,,,,,,,,,,,,,,,,,,,,,,,,,true,1,,805.7500003814639,,response,,,,,,,,,1,,1,click #choice-1,,,,,S,O,I,,103205.7000002861,103202.10000038147,102374.053,102376,102396.35,103206.877,,,
Trial,flow.Sequence,1_3_4,2022-05-03T10:06:21.301Z,,,,,,,,,,,,,,,,,,,,,,,,,,,,,,,5057.186000381465,,completion,,,,,,,,,1,,,,,,,,S,O,I,,103206.2000002861,103202.10000038147,98124.236,98135.10000038147,98144.914,103206.877,,,
Sounds,html.Screen,1_3_5_0,2022-05-03T10:06:25.537Z,,,,,,,,,,,,,,,,,,,,,,,,,,,,,,,4249.451000000001,,timeout,,,,,,,,,1,,,,,,,,S,I,O,,107442.80000019073,107440.918,103190.48,103206.60000038147,103206.877,107456.328,,,
Judgement,html.Screen,1_3_5_1,2022-05-03T10:06:26.189Z,,,,,,,,,,,,,,,,,,,,,,,,,,,,true,1,,635.1720000000059,,response,,,,,,,,,1,,1,click #choice-1,,,,,S,I,O,,108094.5,108091.5,107440.918,107443,107456.328,108122.858,,,
Trial,flow.Sequence,1_3_5,2022-05-03T10:06:26.189Z,,,,,,,,,,,,,,,,,,,,,,,,,,,,,,,4884.623000000007,,completion,,,,,,,,,1,,,,,,,,S,I,O,,108095,108091.5,103190.48,103206.5,103206.877,108122.858,,,
Task,flow.Loop,1_3,2022-05-03T10:06:26.207Z,,,,,,,,,,,,,,,,,,,,,,,,,,,,,,,30630.892999999996,,completion,,,1,,,,,,,,,,,,,,,,,,108112.80000019073,108091.5,77443.985,77459.90000009537,77460.607,108122.858,,,
Trap,html.Screen,1_4,2022-05-03T10:06:26.211Z,,,,,,,,,,,,,,,,,,,,,,,,,,,,,,,NaN,,skipped,,,,,,,,,,,,,,,,,,,,,108117.10000038147,108091.5,,108116.7000002861,,108122.858,,,
Thanks,html.Screen,1_5,2022-05-03T10:06:29.989Z,,,,,,,,,,,,,,,,,,,,,,,,,,,,,,,3768.642000000007,,response,,,,,,,,,,,continue,click button,,,,,,,,,111894.30000019073,111891.5,108090.835,108117.40000009537,108122.858,124520.545,,,
Headphone screening,flow.Sequence,1,2022-05-03T10:06:29.989Z,,,,,,,,,,,,,,,,,,,,,,,,,,,,,,,86623.742,,completion,,,,,,,,,,,,,,,,,,,,,111894.80000019073,111891.5,25234.297,25243,25267.758,124520.545,,,
Instructions,html.Page,2_0,2022-05-03T10:07:06.396Z,,,,,,,,,,,,,,,,,,,,,,,,,,,,,,,23777.755000190737,,form submission,,,,,,,,,,,,,,,,,,,,,148299,148298.30000019073,124504.039,124521.80000019073,124520.545,148317.275,,,
Holding screen,html.Screen,2_1_0_0,2022-05-03T10:07:16.398Z,,,,,,,,,,,,,,,,,,,,,,,,,,,,,,,10031.887000000017,,timeout,,,,,,,,,,,,,,,,,,,,,158301,158299.46,148285.126,148299.60000038147,148317.275,158349.162,,,
screen,html.Screen,2_1_0_1_0,2022-05-03T10:07:17.546Z,,,,,,,,,,,,,,,,,53,,,,,,,,,,,,,,1089.7380000953563,,response,,,,99,,,,,,,Space,keypress(Space),,,,,,,,When -- ----- -- ------ - ------- --- ----------<br>------------- ------ ------ ---- ---- ------- ----- -- ----<br>-------- ------- -- ---------- --- - --- ----- ----- ----<br>---- --- --- ----- --- ---- ---- ------- ----- ---- -------<br>--- --- -- ----- -- --- ---- -- --- ---- -- ------ ------<br>--- ----- -- ----,159448.90000009537,159438.90000009537,158299.46,158301.5,158349.162,159449.025,,0,When
screen,html.Screen,2_1_0_1_1,2022-05-03T10:07:17.955Z,,,,,,,,,,,,,,,,,53,,,,,,,,,,,,,,407.6750002861081,,response,,,,99,,,,,,,Space,keypress(Space),,,,,,,,---- it ----- -- ------ - ------- --- ----------<br>------------- ------ ------ ---- ---- ------- ----- -- ----<br>-------- ------- -- ---------- --- - --- ----- ----- ----<br>---- --- --- ----- --- ---- ---- ------- ----- ---- -------<br>--- --- -- ----- -- --- ---- -- --- ---- -- ------ ------<br>--- ----- -- ----,159858.30000019073,159856.7000002861,159436.216,159450,159449.025,159865.637,,1,it
screen,html.Screen,2_1_0_1_2,2022-05-03T10:07:18.335Z,,,,,,,,,,,,,,,,,53,,,,,,,,,,,,,,370.76300009537954,,response,,,,99,,,,,,,Space,keypress(Space),,,,,,,,---- -- comes -- ------ - ------- --- ----------<br>------------- ------ ------ ---- ---- ------- ----- -- ----<br>-------- ------- -- ---------- --- - --- ----- ----- ----<br>---- --- --- ----- --- ---- ---- ------- ----- ---- -------<br>--- --- -- ----- -- --- ---- -- --- ---- -- ------ ------<br>--- ----- -- ----,160237.90000009537,160236.40000009537,159850.281,159858.5,159865.637,160248.831,,2,comes
screen,html.Screen,2_1_0_1_3,2022-05-03T10:07:18.738Z,,,,,,,,,,,,,,,,,53,,,,,,,,,,,,,,391.1689999999944,,response,,,,99,,,,,,,Space,keypress(Space),,,,,,,,---- -- ----- to ------ - ------- --- ----------<br>------------- ------ ------ ---- ---- ------- ----- -- ----<br>-------- ------- -- ---------- --- - --- ----- ----- ----<br>---- --- --- ----- --- ---- ---- ------- ----- ---- -------<br>--- --- -- ----- -- --- ---- -- --- ---- -- ------ ------<br>--- ----- -- ----,160641.40000009537,160640,160233.903,160238.2000002861,160248.831,160648.959,,3,to
screen,html.Screen,2_1_0_1_4,2022-05-03T10:07:19.149Z,,,,,,,,,,,,,,,,,53,,,,,,,,,,,,,,402.3410001907323,,response,,,,99,,,,,,,Space,keypress(Space),,,,,,,,---- -- ----- -- having - ------- --- ----------<br>------------- ------ ------ ---- ---- ------- ----- -- ----<br>-------- ------- -- ---------- --- - --- ----- ----- ----<br>---- --- --- ----- --- ---- ---- ------- ----- ---- -------<br>--- --- -- ----- -- --- ---- -- --- ---- -- ------ ------<br>--- ----- -- ----,161052.7000002861,161051.30000019073,160634.08,160641.60000038147,160648.959,161065.441,,4,having
screen,html.Screen,2_1_0_1_5,2022-05-03T10:07:19.580Z,,,,,,,,,,,,,,,,,53,,,,,,,,,,,,,,415.7590002861107,,response,,,,99,,,,,,,Space,keypress(Space),,,,,,,,---- -- ----- -- ------ a ------- --- ----------<br>------------- ------ ------ ---- ---- ------- ----- -- ----<br>-------- ------- -- ---------- --- - --- ----- ----- ----<br>---- --- --- ----- --- ---- ---- ------- ----- ---- -------<br>--- --- -- ----- -- --- ---- -- --- ---- -- ------ ------<br>--- ----- -- ----,161483.10000038147,161481.2000002861,161050.188,161053,161065.441,161499.113,,5,a
screen,html.Screen,2_1_0_1_6,2022-05-03T10:07:19.942Z,,,,,,,,,,,,,,,,,53,,,,,,,,,,,,,,344.3869999999879,,response,,,,99,,,,,,,Space,keypress(Space),,,,,,,,---- -- ----- -- ------ - lasting --- ----------<br>------------- ------ ------ ---- ---- ------- ----- -- ----<br>-------- ------- -- ---------- --- - --- ----- ----- ----<br>---- --- --- ----- --- ---- ---- ------- ----- ---- -------<br>--- --- -- ----- -- --- ---- -- --- ---- -- ------ ------<br>--- ----- -- ----,161844.90000009537,161843.5,161484.078,161483.60000038147,161499.113,161848.698,,6,lasting
screen,html.Screen,2_1_0_1_7,2022-05-03T10:07:20.302Z,,,,,,,,,,,,,,,,,53,,,,,,,,,,,,,,355.00200028609834,,response,,,,99,,,,,,,Space,keypress(Space),,,,,,,,---- -- ----- -- ------ - ------- and ----------<br>------------- ------ ------ ---- ---- ------- ----- -- ----<br>-------- ------- -- ---------- --- - --- ----- ----- ----<br>---- --- --- ----- --- ---- ---- ------- ----- ---- -------<br>--- --- -- ----- -- --- ---- -- --- ---- -- ------ ------<br>--- ----- -- ----,162205.30000019073,162203.7000002861,161833.641,161845.2000002861,161848.698,162215.306,,7,and
screen,html.Screen,2_1_0_1_8,2022-05-03T10:07:20.710Z,,,,,,,,,,,,,,,,,53,,,,,,,,,,,,,,396.1939999999886,,response,,,,99,,,,,,,Space,keypress(Space),,,,,,,,---- -- ----- -- ------ - ------- --- fulfilling<br>------------- ------ ------ ---- ---- ------- ----- -- ----<br>-------- ------- -- ---------- --- - --- ----- ----- ----<br>---- --- --- ----- --- ---- ---- ------- ----- ---- -------<br>--- --- -- ----- -- --- ---- -- --- ---- -- ------ ------<br>--- ----- -- ----,162613.60000038147,162611.5,162199.963,162205.7000002861,162215.306,162632.29,,8,fulfilling
screen,html.Screen,2_1_0_1_9,2022-05-03T10:07:21.158Z,,,,,,,,,,,,,,,,,53,,,,,,,,,,,,,,427.3100003814616,,response,,,,99,,,,,,,Space,keypress(Space),,,,,,,,"---- -- ----- -- ------ - ------- --- ----------<br>relationship, ------ ------ ---- ---- ------- ----- -- ----<br>-------- ------- -- ---------- --- - --- ----- ----- ----<br>---- --- --- ----- --- ---- ---- ------- ----- ---- -------<br>--- --- -- ----- -- --- ---- -- --- ---- -- ------ ------<br>--- ----- -- ----",163061.30000019073,163059.60000038147,162599.989,162613.90000009537,162632.29,163065.191,,9,"relationship,"
screen,html.Screen,2_1_0_1_10,2022-05-03T10:07:21.577Z,,,,,,,,,,,,,,,,,53,,,,,,,,,,,,,,413.5090002861107,,response,,,,99,,,,,,,Space,keypress(Space),,,,,,,,---- -- ----- -- ------ - ------- --- ----------<br>------------- common ------ ---- ---- ------- ----- -- ----<br>-------- ------- -- ---------- --- - --- ----- ----- ----<br>---- --- --- ----- --- ---- ---- ------- ----- ---- -------<br>--- --- -- ----- -- --- ---- -- --- ---- -- ------ ------<br>--- ----- -- ----,163480.30000019073,163478.7000002861,163050.063,163061.60000038147,163065.191,163507.718,,10,common
screen,html.Screen,2_1_0_1_11,2022-05-03T10:07:22.027Z,,,,,,,,,,,,,,,,,53,,,,,,,,,,,,,,420.7820000000065,,response,,,,99,,,,,,,Space,keypress(Space),,,,,,,,---- -- ----- -- ------ - ------- --- ----------<br>------------- ------ wisdom ---- ---- ------- ----- -- ----<br>-------- ------- -- ---------- --- - --- ----- ----- ----<br>---- --- --- ----- --- ---- ---- ------- ----- ---- -------<br>--- --- -- ----- -- --- ---- -- --- ---- -- ------ ------<br>--- ----- -- ----,163929.90000009537,163928.5,163466.92,163480.5,163507.718,163961.697,,11,wisdom
screen,html.Screen,2_1_0_1_12,2022-05-03T10:07:22.516Z,,,,,,,,,,,,,,,,,53,,,,,,,,,,,,,,456.6030001907493,,response,,,,99,,,,,,,Space,keypress(Space),,,,,,,,---- -- ----- -- ------ - ------- --- ----------<br>------------- ------ ------ says ---- ------- ----- -- ----<br>-------- ------- -- ---------- --- - --- ----- ----- ----<br>---- --- --- ----- --- ---- ---- ------- ----- ---- -------<br>--- --- -- ----- -- --- ---- -- --- ---- -- ------ ------<br>--- ----- -- ----,164419.80000019073,164418.30000019073,163916.424,163930.10000038147,163961.697,164432.217,,12,says
screen,html.Screen,2_1_0_1_13,2022-05-03T10:07:23.009Z,,,,,,,,,,,,,,,,,53,,,,,,,,,,,,,,478.2829999999958,,response,,,,99,,,,,,,Space,keypress(Space),,,,,,,,---- -- ----- -- ------ - ------- --- ----------<br>------------- ------ ------ ---- that ------- ----- -- ----<br>-------- ------- -- ---------- --- - --- ----- ----- ----<br>---- --- --- ----- --- ---- ---- ------- ----- ---- -------<br>--- --- -- ----- -- --- ---- -- --- ---- -- ------ ------<br>--- ----- -- ----,164912,164910.5,164417.181,164420.2000002861,164432.217,164914.936,,13,that
screen,html.Screen,2_1_0_1_14,2022-05-03T10:07:23.343Z,,,,,,,,,,,,,,,,,53,,,,,,,,,,,,,,330.06400000001304,,response,,,,99,,,,,,,Space,keypress(Space),,,,,,,,---- -- ----- -- ------ - ------- --- ----------<br>------------- ------ ------ ---- ---- feeling ----- -- ----<br>-------- ------- -- ---------- --- - --- ----- ----- ----<br>---- --- --- ----- --- ---- ---- ------- ----- ---- -------<br>--- --- -- ----- -- --- ---- -- --- ---- -- ------ ------<br>--- ----- -- ----,165246.40000009537,165245,164900.231,164912.30000019073,164914.936,165278.685,,14,feeling
screen,html.Screen,2_1_0_1_15,2022-05-03T10:07:23.709Z,,,,,,,,,,,,,,,,,53,,,,,,,,,,,,,,332.6150001907372,,response,,,,99,,,,,,,Space,keypress(Space),,,,,,,,---- -- ----- -- ------ - ------- --- ----------<br>------------- ------ ------ ---- ---- ------- close -- ----<br>-------- ------- -- ---------- --- - --- ----- ----- ----<br>---- --- --- ----- --- ---- ---- ------- ----- ---- -------<br>--- --- -- ----- -- --- ---- -- --- ---- -- ------ ------<br>--- ----- -- ----,165612.80000019073,165611.30000019073,165233.199,165246.7000002861,165278.685,165638.326,,15,close
screen,html.Screen,2_1_0_1_16,2022-05-03T10:07:24.097Z,,,,,,,,,,,,,,,,,53,,,,,,,,,,,,,,359.97400019073393,,response,,,,99,,,,,,,Space,keypress(Space),,,,,,,,---- -- ----- -- ------ - ------- --- ----------<br>------------- ------ ------ ---- ---- ------- ----- to ----<br>-------- ------- -- ---------- --- - --- ----- ----- ----<br>---- --- --- ----- --- ---- ---- ------- ----- ---- -------<br>--- --- -- ----- -- --- ---- -- --- ---- -- ------ ------<br>--- ----- -- ----,166000.2000002861,165998.30000019073,165599.63,165613.10000038147,165638.326,166014.809,,16,to
screen,html.Screen,2_1_0_1_17,2022-05-03T10:07:24.414Z,,,,,,,,,,,,,,,,,53,,,,,,,,,,,,,,299.59100009535905,,response,,,,99,,,,,,,Space,keypress(Space),,,,,,,,---- -- ----- -- ------ - ------- --- ----------<br>------------- ------ ------ ---- ---- ------- ----- -- your<br>-------- ------- -- ---------- --- - --- ----- ----- ----<br>---- --- --- ----- --- ---- ---- ------- ----- ---- -------<br>--- --- -- ----- -- --- ---- -- --- ---- -- ------ ------<br>--- ----- -- ----,166317.40000009537,166314.40000009537,165999.743,166000.60000038147,166014.809,166331.331,,17,your
screen,html.Screen,2_1_0_1_18,2022-05-03T10:07:24.755Z,,,,,,,,,,,,,,,,,53,,,,,,,,,,,,,,325.6689999999944,,response,,,,99,,,,,,,Space,keypress(Space),,,,,,,,---- -- ----- -- ------ - ------- --- ----------<br>------------- ------ ------ ---- ---- ------- ----- -- ----<br>romantic ------- -- ---------- --- - --- ----- ----- ----<br>---- --- --- ----- --- ---- ---- ------- ----- ---- -------<br>--- --- -- ----- -- --- ---- -- --- ---- -- ------ ------<br>--- ----- -- ----,166658.30000019073,166657,166316.373,166317.7000002861,166331.331,166666.196,,18,romantic
screen,html.Screen,2_1_0_1_19,2022-05-03T10:07:25.089Z,,,,,,,,,,,,,,,,,53,,,,,,,,,,,,,,324.6040001907386,,response,,,,99,,,,,,,Space,keypress(Space),,,,,,,,---- -- ----- -- ------ - ------- --- ----------<br>------------- ------ ------ ---- ---- ------- ----- -- ----<br>-------- partner -- ---------- --- - --- ----- ----- ----<br>---- --- --- ----- --- ---- ---- ------- ----- ---- -------<br>--- --- -- ----- -- --- ---- -- --- ---- -- ------ ------<br>--- ----- -- ----,166992.2000002861,166990.80000019073,166649.199,166658.60000038147,166666.196,167000.026,,19,partner
screen,html.Screen,2_1_0_1_20,2022-05-03T10:07:25.464Z,,,,,,,,,,,,,,,,,53,,,,,,,,,,,,,,365.37400009535486,,response,,,,99,,,,,,,Space,keypress(Space),,,,,,,,---- -- ----- -- ------ - ------- --- ----------<br>------------- ------ ------ ---- ---- ------- ----- -- ----<br>-------- ------- is ---------- --- - --- ----- ----- ----<br>---- --- --- ----- --- ---- ---- ------- ----- ---- -------<br>--- --- -- ----- -- --- ---- -- --- ---- -- ------ ------<br>--- ----- -- ----,167366.90000009537,167365.40000009537,166982.752,166992.5,167000.026,167381.184,,20,is
screen,html.Screen,2_1_0_1_21,2022-05-03T10:07:25.790Z,,,,,,,,,,,,,,,,,53,,,,,,,,,,,,,,310.6160001907265,,response,,,,99,,,,,,,Space,keypress(Space),,,,,,,,---- -- ----- -- ------ - ------- --- ----------<br>------------- ------ ------ ---- ---- ------- ----- -- ----<br>-------- ------- -- paramount. --- - --- ----- ----- ----<br>---- --- --- ----- --- ---- ---- ------- ----- ---- -------<br>--- --- -- ----- -- --- ---- -- --- ---- -- ------ ------<br>--- ----- -- ----,167693.40000009537,167691.80000019073,167366.237,167367.30000019073,167381.184,167697.881,,21,paramount.
screen,html.Screen,2_1_0_1_22,2022-05-03T10:07:26.222Z,,,,,,,,,,,,,,,,,53,,,,,,,,,,,,,,426.31900028610835,,response,,,,99,,,,,,,Space,keypress(Space),,,,,,,,---- -- ----- -- ------ - ------- --- ----------<br>------------- ------ ------ ---- ---- ------- ----- -- ----<br>-------- ------- -- ---------- But - --- ----- ----- ----<br>---- --- --- ----- --- ---- ---- ------- ----- ---- -------<br>--- --- -- ----- -- --- ---- -- --- ---- -- ------ ------<br>--- ----- -- ----,168125.7000002861,168124.2000002861,167682.628,167693.60000038147,167697.881,168131.127,,22,But
screen,html.Screen,2_1_0_1_23,2022-05-03T10:07:26.560Z,,,,,,,,,,,,,,,,,53,,,,,,,,,,,,,,330.47300038146204,,response,,,,99,,,,,,,Space,keypress(Space),,,,,,,,---- -- ----- -- ------ - ------- --- ----------<br>------------- ------ ------ ---- ---- ------- ----- -- ----<br>-------- ------- -- ---------- --- a --- ----- ----- ----<br>---- --- --- ----- --- ---- ---- ------- ----- ---- -------<br>--- --- -- ----- -- --- ---- -- --- ---- -- ------ ------<br>--- ----- -- ----,168463.2000002861,168461.60000038147,168115.979,168126.10000038147,168131.127,168481.123,,23,a
screen,html.Screen,2_1_0_1_24,2022-05-03T10:07:26.931Z,,,,,,,,,,,,,,,,,53,,,,,,,,,,,,,,351.57700028611,,response,,,,99,,,,,,,Space,keypress(Space),,,,,,,,---- -- ----- -- ------ - ------- --- ----------<br>------------- ------ ------ ---- ---- ------- ----- -- ----<br>-------- ------- -- ---------- --- - new ----- ----- ----<br>---- --- --- ----- --- ---- ---- ------- ----- ---- -------<br>--- --- -- ----- -- --- ---- -- --- ---- -- ------ ------<br>--- ----- -- ----,168834.10000038147,168832.7000002861,168449.219,168463.40000009537,168481.123,168847.755,,24,new
screen,html.Screen,2_1_0_1_25,2022-05-03T10:07:27.321Z,,,,,,,,,,,,,,,,,53,,,,,,,,,,,,,,375.6450000953628,,response,,,,99,,,,,,,Space,keypress(Space),,,,,,,,---- -- ----- -- ------ - ------- --- ----------<br>------------- ------ ------ ---- ---- ------- ----- -- ----<br>-------- ------- -- ---------- --- - --- study ----- ----<br>---- --- --- ----- --- ---- ---- ------- ----- ---- -------<br>--- --- -- ----- -- --- ---- -- --- ---- -- ------ ------<br>--- ----- -- ----,169224.7000002861,169223.40000009537,168832.736,168834.30000019073,168847.755,169231.205,,25,study
screen,html.Screen,2_1_0_1_26,2022-05-03T10:07:27.692Z,,,,,,,,,,,,,,,,,53,,,,,,,,,,,,,,361.09500019074767,,response,,,,99,,,,,,,Space,keypress(Space),,,,,,,,---- -- ----- -- ------ - ------- --- ----------<br>------------- ------ ------ ---- ---- ------- ----- -- ----<br>-------- ------- -- ---------- --- - --- ----- finds ----<br>---- --- --- ----- --- ---- ---- ------- ----- ---- -------<br>--- --- -- ----- -- --- ---- -- --- ---- -- ------ ------<br>--- ----- -- ----,169594.90000009537,169592.30000019073,169215.708,169225,169231.205,169597.612,,26,finds
screen,html.Screen,2_1_0_1_27,2022-05-03T10:07:28.033Z,,,,,,,,,,,,,,,,,53,,,,,,,,,,,,,,337.488000381476,,response,,,,99,,,,,,,Space,keypress(Space),,,,,,,,---- -- ----- -- ------ - ------- --- ----------<br>------------- ------ ------ ---- ---- ------- ----- -- ----<br>-------- ------- -- ---------- --- - --- ----- ----- that<br>---- --- --- ----- --- ---- ---- ------- ----- ---- -------<br>--- --- -- ----- -- --- ---- -- --- ---- -- ------ ------<br>--- ----- -- ----,169936.60000038147,169935.10000038147,169582.503,169595.2000002861,169597.612,169947.616,,27,that
screen,html.Screen,2_1_0_1_28,2022-05-03T10:07:28.381Z,,,,,,,,,,,,,,,,,53,,,,,,,,,,,,,,335.6840001907258,,response,,,,99,,,,,,,Space,keypress(Space),,,,,,,,---- -- ----- -- ------ - ------- --- ----------<br>------------- ------ ------ ---- ---- ------- ----- -- ----<br>-------- ------- -- ---------- --- - --- ----- ----- ----<br>it's --- --- ----- --- ---- ---- ------- ----- ---- -------<br>--- --- -- ----- -- --- ---- -- --- ---- -- ------ ------<br>--- ----- -- ----,170284.7000002861,170283.30000019073,169932.065,169936.90000009537,169947.616,170297.546,,28,it's
screen,html.Screen,2_1_0_1_29,2022-05-03T10:07:28.701Z,,,,,,,,,,,,,,,,,53,,,,,,,,,,,,,,305.85400009536534,,response,,,,99,,,,,,,Space,keypress(Space),,,,,,,,---- -- ----- -- ------ - ------- --- ----------<br>------------- ------ ------ ---- ---- ------- ----- -- ----<br>-------- ------- -- ---------- --- - --- ----- ----- ----<br>---- not --- ----- --- ---- ---- ------- ----- ---- -------<br>--- --- -- ----- -- --- ---- -- --- ---- -- ------ ------<br>--- ----- -- ----,170604.80000019073,170603.40000009537,170282.554,170285,170297.546,170614.067,,29,not
screen,html.Screen,2_1_0_1_30,2022-05-03T10:07:29.010Z,,,,,,,,,,,,,,,,,53,,,,,,,,,,,,,,297.6330002860923,,response,,,,99,,,,,,,Space,keypress(Space),,,,,,,,---- -- ----- -- ------ - ------- --- ----------<br>------------- ------ ------ ---- ---- ------- ----- -- ----<br>-------- ------- -- ---------- --- - --- ----- ----- ----<br>---- --- how ----- --- ---- ---- ------- ----- ---- -------<br>--- --- -- ----- -- --- ---- -- --- ---- -- ------ ------<br>--- ----- -- ----,170913.2000002861,170911.7000002861,170598.586,170605.10000038147,170614.067,170930.845,,30,how
screen,html.Screen,2_1_0_1_31,2022-05-03T10:07:29.340Z,,,,,,,,,,,,,,,,,53,,,,,,,,,,,,,,311.65499999999884,,response,,,,99,,,,,,,Space,keypress(Space),,,,,,,,---- -- ----- -- ------ - ------- --- ----------<br>------------- ------ ------ ---- ---- ------- ----- -- ----<br>-------- ------- -- ---------- --- - --- ----- ----- ----<br>---- --- --- close --- ---- ---- ------- ----- ---- -------<br>--- --- -- ----- -- --- ---- -- --- ---- -- ------ ------<br>--- ----- -- ----,171243.40000009537,171242.5,170898.905,170913.5,170930.845,171247.549,,31,close
screen,html.Screen,2_1_0_1_32,2022-05-03T10:07:29.696Z,,,,,,,,,,,,,,,,,53,,,,,,,,,,,,,,350.45100000000093,,response,,,,99,,,,,,,Space,keypress(Space),,,,,,,,---- -- ----- -- ------ - ------- --- ----------<br>------------- ------ ------ ---- ---- ------- ----- -- ----<br>-------- ------- -- ---------- --- - --- ----- ----- ----<br>---- --- --- ----- you ---- ---- ------- ----- ---- -------<br>--- --- -- ----- -- --- ---- -- --- ---- -- ------ ------<br>--- ----- -- ----,171599.7000002861,171598,171232.127,171243.5,171247.549,171614.357,,32,you
screen,html.Screen,2_1_0_1_33,2022-05-03T10:07:30.069Z,,,,,,,,,,,,,,,,,53,,,,,,,,,,,,,,356.4430001907458,,response,,,,99,,,,,,,Space,keypress(Space),,,,,,,,---- -- ----- -- ------ - ------- --- ----------<br>------------- ------ ------ ---- ---- ------- ----- -- ----<br>-------- ------- -- ---------- --- - --- ----- ----- ----<br>---- --- --- ----- --- feel ---- ------- ----- ---- -------<br>--- --- -- ----- -- --- ---- -- --- ---- -- ------ ------<br>--- ----- -- ----,171972.40000009537,171970.80000019073,171598.543,171600.10000038147,171614.357,171980.606,,33,feel
screen,html.Screen,2_1_0_1_34,2022-05-03T10:07:30.417Z,,,,,,,,,,,,,,,,,53,,,,,,,,,,,,,,338.49400038146996,,response,,,,99,,,,,,,Space,keypress(Space),,,,,,,,---- -- ----- -- ------ - ------- --- ----------<br>------------- ------ ------ ---- ---- ------- ----- -- ----<br>-------- ------- -- ---------- --- - --- ----- ----- ----<br>---- --- --- ----- --- ---- that ------- ----- ---- -------<br>--- --- -- ----- -- --- ---- -- --- ---- -- ------ ------<br>--- ----- -- ----,172320.10000038147,172319.10000038147,171965.302,171972.7000002861,171980.606,172330.405,,34,that
screen,html.Screen,2_1_0_1_35,2022-05-03T10:07:30.835Z,,,,,,,,,,,,,,,,,53,,,,,,,,,,,,,,406.59500000000116,,response,,,,99,,,,,,,Space,keypress(Space),,,,,,,,---- -- ----- -- ------ - ------- --- ----------<br>------------- ------ ------ ---- ---- ------- ----- -- ----<br>-------- ------- -- ---------- --- - --- ----- ----- ----<br>---- --- --- ----- --- ---- ---- matters ----- ---- -------<br>--- --- -- ----- -- --- ---- -- --- ---- -- ------ ------<br>--- ----- -- ----,172738.5,172737,172315.605,172320.30000019073,172330.405,172747.127,,35,matters
screen,html.Screen,2_1_0_1_36,2022-05-03T10:07:31.195Z,,,,,,,,,,,,,,,,,53,,,,,,,,,,,,,,349.8729999999923,,response,,,,99,,,,,,,Space,keypress(Space),,,,,,,,"---- -- ----- -- ------ - ------- --- ----------<br>------------- ------ ------ ---- ---- ------- ----- -- ----<br>-------- ------- -- ---------- --- - --- ----- ----- ----<br>---- --- --- ----- --- ---- ---- ------- most, ---- -------<br>--- --- -- ----- -- --- ---- -- --- ---- -- ------ ------<br>--- ----- -- ----",173098.80000019073,173097,172731.859,172738.7000002861,172747.127,173113.753,,36,"most,"
screen,html.Screen,2_1_0_1_37,2022-05-03T10:07:31.583Z,,,,,,,,,,,,,,,,,53,,,,,,,,,,,,,,370.84700038147275,,response,,,,99,,,,,,,Space,keypress(Space),,,,,,,,---- -- ----- -- ------ - ------- --- ----------<br>------------- ------ ------ ---- ---- ------- ----- -- ----<br>-------- ------- -- ---------- --- - --- ----- ----- ----<br>---- --- --- ----- --- ---- ---- ------- ----- it's -------<br>--- --- -- ----- -- --- ---- -- --- ---- -- ------ ------<br>--- ----- -- ----,173486,173484.60000038147,173098.867,173099.2000002861,173113.753,173496.995,,37,it's
screen,html.Screen,2_1_0_1_38,2022-05-03T10:07:31.950Z,,,,,,,,,,,,,,,,,53,,,,,,,,,,,,,,354.4050000953721,,response,,,,99,,,,,,,Space,keypress(Space),,,,,,,,---- -- ----- -- ------ - ------- --- ----------<br>------------- ------ ------ ---- ---- ------- ----- -- ----<br>-------- ------- -- ---------- --- - --- ----- ----- ----<br>---- --- --- ----- --- ---- ---- ------- ----- ---- whether<br>--- --- -- ----- -- --- ---- -- --- ---- -- ------ ------<br>--- ----- -- ----,173852.90000009537,173851.40000009537,173482.245,173486.5,173496.995,173863.647,,38,whether
screen,html.Screen,2_1_0_1_39,2022-05-03T10:07:32.274Z,,,,,,,,,,,,,,,,,53,,,,,,,,,,,,,,312.3530000000028,,response,,,,99,,,,,,,Space,keypress(Space),,,,,,,,---- -- ----- -- ------ - ------- --- ----------<br>------------- ------ ------ ---- ---- ------- ----- -- ----<br>-------- ------- -- ---------- --- - --- ----- ----- ----<br>---- --- --- ----- --- ---- ---- ------- ----- ---- -------<br>you --- -- ----- -- --- ---- -- --- ---- -- ------ ------<br>--- ----- -- ----,174177.40000009537,174176,173848.769,173853.2000002861,173863.647,174180.306,,39,you
screen,html.Screen,2_1_0_1_40,2022-05-03T10:07:32.601Z,,,,,,,,,,,,,,,,,53,,,,,,,,,,,,,,322.1939999999886,,response,,,,99,,,,,,,Space,keypress(Space),,,,,,,,---- -- ----- -- ------ - ------- --- ----------<br>------------- ------ ------ ---- ---- ------- ----- -- ----<br>-------- ------- -- ---------- --- - --- ----- ----- ----<br>---- --- --- ----- --- ---- ---- ------- ----- ---- -------<br>--- are -- ----- -- --- ---- -- --- ---- -- ------ ------<br>--- ----- -- ----,174503.90000009537,174502.5,174164.759,174177.7000002861,174180.306,174513.609,,40,are
screen,html.Screen,2_1_0_1_41,2022-05-03T10:07:32.901Z,,,,,,,,,,,,,,,,,53,,,,,,,,,,,,,,288.991000381473,,response,,,,99,,,,,,,Space,keypress(Space),,,,,,,,---- -- ----- -- ------ - ------- --- ----------<br>------------- ------ ------ ---- ---- ------- ----- -- ----<br>-------- ------- -- ---------- --- - --- ----- ----- ----<br>---- --- --- ----- --- ---- ---- ------- ----- ---- -------<br>--- --- as ----- -- --- ---- -- --- ---- -- ------ ------<br>--- ----- -- ----,174804.10000038147,174802.60000038147,174498.372,174504.2000002861,174513.609,174813.498,,41,as
screen,html.Screen,2_1_0_1_42,2022-05-03T10:07:33.221Z,,,,,,,,,,,,,,,,,53,,,,,,,,,,,,,,309.4020000953751,,response,,,,99,,,,,,,Space,keypress(Space),,,,,,,,---- -- ----- -- ------ - ------- --- ----------<br>------------- ------ ------ ---- ---- ------- ----- -- ----<br>-------- ------- -- ---------- --- - --- ----- ----- ----<br>---- --- --- ----- --- ---- ---- ------- ----- ---- -------<br>--- --- -- close -- --- ---- -- --- ---- -- ------ ------<br>--- ----- -- ----,175124.40000009537,175122.90000009537,174798.208,174804.30000019073,174813.498,175130.143,,42,close
screen,html.Screen,2_1_0_1_43,2022-05-03T10:07:33.579Z,,,,,,,,,,,,,,,,,53,,,,,,,,,,,,,,350.4570003814588,,response,,,,99,,,,,,,Space,keypress(Space),,,,,,,,---- -- ----- -- ------ - ------- --- ----------<br>------------- ------ ------ ---- ---- ------- ----- -- ----<br>-------- ------- -- ---------- --- - --- ----- ----- ----<br>---- --- --- ----- --- ---- ---- ------- ----- ---- -------<br>--- --- -- ----- as --- ---- -- --- ---- -- ------ ------<br>--- ----- -- ----,175481.90000009537,175480.60000038147,175114.945,175124.60000038147,175130.143,175497.158,,43,as
screen,html.Screen,2_1_0_1_44,2022-05-03T10:07:33.944Z,,,,,,,,,,,,,,,,,53,,,,,,,,,,,,,,348.64200019073905,,response,,,,99,,,,,,,Space,keypress(Space),,,,,,,,---- -- ----- -- ------ - ------- --- ----------<br>------------- ------ ------ ---- ---- ------- ----- -- ----<br>-------- ------- -- ---------- --- - --- ----- ----- ----<br>---- --- --- ----- --- ---- ---- ------- ----- ---- -------<br>--- --- -- ----- -- you ---- -- --- ---- -- ------ ------<br>--- ----- -- ----,175847.40000009537,175845.80000019073,175481.688,175482.2000002861,175497.158,175863.768,,44,you
screen,html.Screen,2_1_0_1_45,2022-05-03T10:07:34.289Z,,,,,,,,,,,,,,,,,53,,,,,,,,,,,,,,326.73199999998906,,response,,,,99,,,,,,,Space,keypress(Space),,,,,,,,---- -- ----- -- ------ - ------- --- ----------<br>------------- ------ ------ ---- ---- ------- ----- -- ----<br>-------- ------- -- ---------- --- - --- ----- ----- ----<br>---- --- --- ----- --- ---- ---- ------- ----- ---- -------<br>--- --- -- ----- -- --- want -- --- ---- -- ------ ------<br>--- ----- -- ----,176192.10000038147,176190.5,175848.521,175847.80000019073,175863.768,176196.669,,45,want
screen,html.Screen,2_1_0_1_46,2022-05-03T10:07:34.614Z,,,,,,,,,,,,,,,,,53,,,,,,,,,,,,,,319.63100019074045,,response,,,,99,,,,,,,Space,keypress(Space),,,,,,,,---- -- ----- -- ------ - ------- --- ----------<br>------------- ------ ------ ---- ---- ------- ----- -- ----<br>-------- ------- -- ---------- --- - --- ----- ----- ----<br>---- --- --- ----- --- ---- ---- ------- ----- ---- -------<br>--- --- -- ----- -- --- ---- to --- ---- -- ------ ------<br>--- ----- -- ----,176517.7000002861,176516.30000019073,176181.757,176192.5,176196.669,176529.956,,46,to
screen,html.Screen,2_1_0_1_47,2022-05-03T10:07:34.941Z,,,,,,,,,,,,,,,,,53,,,,,,,,,,,,,,312.94400009536184,,response,,,,99,,,,,,,Space,keypress(Space),,,,,,,,"---- -- ----- -- ------ - ------- --- ----------<br>------------- ------ ------ ---- ---- ------- ----- -- ----<br>-------- ------- -- ---------- --- - --- ----- ----- ----<br>---- --- --- ----- --- ---- ---- ------- ----- ---- -------<br>--- --- -- ----- -- --- ---- -- be, ---- -- ------ ------<br>--- ----- -- ----",176844.5,176842.90000009537,176514.748,176518,176529.956,176878.814,,47,"be,"
screen,html.Screen,2_1_0_1_48,2022-05-03T10:07:35.316Z,,,,,,,,,,,,,,,,,53,,,,,,,,,,,,,,338.88600028608926,,response,,,,99,,,,,,,Space,keypress(Space),,,,,,,,---- -- ----- -- ------ - ------- --- ----------<br>------------- ------ ------ ---- ---- ------- ----- -- ----<br>-------- ------- -- ---------- --- - --- ----- ----- ----<br>---- --- --- ----- --- ---- ---- ------- ----- ---- -------<br>--- --- -- ----- -- --- ---- -- --- even -- ------ ------<br>--- ----- -- ----,177219.10000038147,177217.7000002861,176831.381,176844.80000019073,176878.814,177229.887,,48,even
screen,html.Screen,2_1_0_1_49,2022-05-03T10:07:35.647Z,,,,,,,,,,,,,,,,,53,,,,,,,,,,,,,,319.01300009537954,,response,,,,99,,,,,,,Space,keypress(Space),,,,,,,,---- -- ----- -- ------ - ------- --- ----------<br>------------- ------ ------ ---- ---- ------- ----- -- ----<br>-------- ------- -- ---------- --- - --- ----- ----- ----<br>---- --- --- ----- --- ---- ---- ------- ----- ---- -------<br>--- --- -- ----- -- --- ---- -- --- ---- if ------ ------<br>--- ----- -- ----,177550.30000019073,177548.90000009537,177214.724,177219.40000009537,177229.887,177563.209,,49,if
screen,html.Screen,2_1_0_1_50,2022-05-03T10:07:35.948Z,,,,,,,,,,,,,,,,,53,,,,,,,,,,,,,,286.39100038146717,,response,,,,99,,,,,,,Space,keypress(Space),,,,,,,,---- -- ----- -- ------ - ------- --- ----------<br>------------- ------ ------ ---- ---- ------- ----- -- ----<br>-------- ------- -- ---------- --- - --- ----- ----- ----<br>---- --- --- ----- --- ---- ---- ------- ----- ---- -------<br>--- --- -- ----- -- --- ---- -- --- ---- -- that's ------<br>--- ----- -- ----,177851.2000002861,177849.60000038147,177548.121,177550.5,177563.209,177863.02,,50,that's
screen,html.Screen,2_1_0_1_51,2022-05-03T10:07:36.292Z,,,,,,,,,,,,,,,,,53,,,,,,,,,,,,,,330.4800000000105,,response,,,,99,,,,,,,Space,keypress(Space),,,,,,,,---- -- ----- -- ------ - ------- --- ----------<br>------------- ------ ------ ---- ---- ------- ----- -- ----<br>-------- ------- -- ---------- --- - --- ----- ----- ----<br>---- --- --- ----- --- ---- ---- ------- ----- ---- -------<br>--- --- -- ----- -- --- ---- -- --- ---- -- ------ really<br>--- ----- -- ----,178195,178193.5,177847.979,177851.5,177863.02,178213.608,,51,really
screen,html.Screen,2_1_0_1_52,2022-05-03T10:07:36.632Z,,,,,,,,,,,,,,,,,53,,,,,,,,,,,,,,320.79200009536,,response,,,,99,,,,,,,Space,keypress(Space),,,,,,,,---- -- ----- -- ------ - ------- --- ----------<br>------------- ------ ------ ---- ---- ------- ----- -- ----<br>-------- ------- -- ---------- --- - --- ----- ----- ----<br>---- --- --- ----- --- ---- ---- ------- ----- ---- -------<br>--- --- -- ----- -- --- ---- -- --- ---- -- ------ ------<br>not ----- -- ----,178535.80000019073,178534.40000009537,178181.368,178195.30000019073,178213.608,178546.369,,52,not
screen,html.Screen,2_1_0_1_53,2022-05-03T10:07:36.937Z,,,,,,,,,,,,,,,,,53,,,,,,,,,,,,,,292.5310000953614,,response,,,,99,,,,,,,Space,keypress(Space),,,,,,,,---- -- ----- -- ------ - ------- --- ----------<br>------------- ------ ------ ---- ---- ------- ----- -- ----<br>-------- ------- -- ---------- --- - --- ----- ----- ----<br>---- --- --- ----- --- ---- ---- ------- ----- ---- -------<br>--- --- -- ----- -- --- ---- -- --- ---- -- ------ ------<br>--- close -- ----,178840.40000009537,178838.90000009537,178531.13,178536.10000038147,178546.369,178846.594,,53,close
screen,html.Screen,2_1_0_1_54,2022-05-03T10:07:37.286Z,,,,,,,,,,,,,,,,,53,,,,,,,,,,,,,,341.00600038145785,,response,,,,99,,,,,,,Space,keypress(Space),,,,,,,,---- -- ----- -- ------ - ------- --- ----------<br>------------- ------ ------ ---- ---- ------- ----- -- ----<br>-------- ------- -- ---------- --- - --- ----- ----- ----<br>---- --- --- ----- --- ---- ---- ------- ----- ---- -------<br>--- --- -- ----- -- --- ---- -- --- ---- -- ------ ------<br>--- ----- at ----,179189.10000038147,179187.60000038147,178831.148,178840.7000002861,178846.594,179196.721,,54,at
screen,html.Screen,2_1_0_1_55,2022-05-03T10:07:37.762Z,,,,,,,,,,,,,,,,,53,,,,,,,,,,,,,,466.47900028611184,,response,,,,99,,,,,,,Space,keypress(Space),,,,,,,,---- -- ----- -- ------ - ------- --- ----------<br>------------- ------ ------ ---- ---- ------- ----- -- ----<br>-------- ------- -- ---------- --- - --- ----- ----- ----<br>---- --- --- ----- --- ---- ---- ------- ----- ---- -------<br>--- --- -- ----- -- --- ---- -- --- ---- -- ------ ------<br>--- ----- -- all.,179665.40000009537,179663.2000002861,179180.841,179189.30000019073,179196.721,179679.558,,55,all.
Item 99,flow.Loop,2_1_0_1,2022-05-03T10:07:37.763Z,,,,,,,,,,,,,,,,,,,,,,,,,,,,,,,21314.03800028609,,completion,,,,,H,,,,,,,,,,,silence,,,,,179666.40000009537,179663.2000002861,158299.46,158301.40000009537,158349.162,179679.558,,,
Question 1,html.Screen,2_1_0_2,2022-05-03T10:07:51.141Z,,,,,,,,,,,,,,,,,,,,,,,,,,,,true,FALSE,,13359.342000095377,,response,,,,99,H,,,,,,FALSE,click #choice-2,,,,silence,,,,,193041.5,193038.90000009537,179664.884,179666.60000038147,179679.558,193044.325,,,
Question 2,html.Screen,2_1_0_3,2022-05-03T10:07:56.368Z,,,,,,,,,,,,,,,,,,,,,,,,,,,,true,TRUE,,5222.174999999988,,response,,,,99,H,,,,,,TRUE,click #choice-1,,,,silence,,,,,198268.80000019073,198266.5,193028.909,193041.90000009537,193044.325,198276.95,,,
Item 99,flow.Sequence,2_1_0,2022-05-03T10:07:56.369Z,,,,,,,,,,,,,,,,,,,,,,,,,,,,,,,49949.225000000006,,completion,,,,,,,,,,,,,,,,,,,,,198269.2000002861,198266.5,148285.126,148299.60000038147,148317.275,198276.95,,,
Holding screen,html.Screen,2_1_1_0,2022-05-03T10:08:06.360Z,,,,,,,,,,,,,,,,,,,,,,,,,,,,,,,9998.517999999982,,timeout,,,,,,,,,,,,,,,,,,,,,208260.40000009537,208258.95,198261.232,198269.5,198276.95,208275.468,,,
screen,html.Screen,2_1_1_1_0,2022-05-03T10:08:07.022Z,,,,,,,,,,,,,,,,,54,,,,,,,,,,,,,,645.932000095374,,response,,,,100,,,,,,,Space,keypress(Space),,,,,,,,At --- ---- --- ------ ----- ------- ---- -- --- ------- --<br>------- ---------- ------ -- ----- -- ----- -- ---- ------<br>--- ----- --- --- ------ -------- ----- --- ------ ----- --<br>----- ----- ---------- --- --- ------ ------ ---- -- ------<br>------- --- ------ ----- --- ---- ------- -- ---- --- --<br>------- ------,208922.80000019073,208921.40000009537,208258.95,208260.80000019073,208275.468,208946.726,,0,At
screen,html.Screen,2_1_1_1_1,2022-05-03T10:08:07.295Z,,,,,,,,,,,,,,,,,54,,,,,,,,,,,,,,247.87400038147462,,response,,,,100,,,,,,,Space,keypress(Space),,,,,,,,-- the ---- --- ------ ----- ------- ---- -- --- ------- --<br>------- ---------- ------ -- ----- -- ----- -- ---- ------<br>--- ----- --- --- ------ -------- ----- --- ------ ----- --<br>----- ----- ---------- --- --- ------ ------ ---- -- ------<br>------- --- ------ ----- --- ---- ------- -- ---- --- --<br>------- ------,209196,209194.60000038147,208911.115,208923.2000002861,208946.726,209208.782,,1,the
screen,html.Screen,2_1_1_1_2,2022-05-03T10:08:07.610Z,,,,,,,,,,,,,,,,,54,,,,,,,,,,,,,,300.3180003814632,,response,,,,100,,,,,,,Space,keypress(Space),,,,,,,,-- --- time --- ------ ----- ------- ---- -- --- ------- --<br>------- ---------- ------ -- ----- -- ----- -- ---- ------<br>--- ----- --- --- ------ -------- ----- --- ------ ----- --<br>----- ----- ---------- --- --- ------ ------ ---- -- ------<br>------- --- ------ ----- --- ---- ------- -- ---- --- --<br>------- ------,209511,209509.10000038147,209193.227,209196.2000002861,209208.782,209525.403,,2,time
screen,html.Screen,2_1_1_1_3,2022-05-03T10:08:07.941Z,,,,,,,,,,,,,,,,,54,,,,,,,,,,,,,,314.4970000953763,,response,,,,100,,,,,,,Space,keypress(Space),,,,,,,,-- --- ---- the ------ ----- ------- ---- -- --- ------- --<br>------- ---------- ------ -- ----- -- ----- -- ---- ------<br>--- ----- --- --- ------ -------- ----- --- ------ ----- --<br>----- ----- ---------- --- --- ------ ------ ---- -- ------<br>------- --- ------ ----- --- ---- ------- -- ---- --- --<br>------- ------,209841.40000009537,209839.90000009537,209510.14,209511.5,209525.403,209859.181,,3,the
screen,html.Screen,2_1_1_1_4,2022-05-03T10:08:08.288Z,,,,,,,,,,,,,,,,,54,,,,,,,,,,,,,,328.0190002860909,,response,,,,100,,,,,,,Space,keypress(Space),,,,,,,,-- --- ---- --- French ----- ------- ---- -- --- ------- --<br>------- ---------- ------ -- ----- -- ----- -- ---- ------<br>--- ----- --- --- ------ -------- ----- --- ------ ----- --<br>----- ----- ---------- --- --- ------ ------ ---- -- ------<br>------- --- ------ ----- --- ---- ------- -- ---- --- --<br>------- ------,210188.60000038147,210187.2000002861,209827.188,209841.60000038147,209859.181,210191.922,,4,French
screen,html.Screen,2_1_1_1_5,2022-05-03T10:08:08.607Z,,,,,,,,,,,,,,,,,54,,,,,,,,,,,,,,313.8780001907435,,response,,,,100,,,,,,,Space,keypress(Space),,,,,,,,-- --- ---- --- ------ crown ------- ---- -- --- ------- --<br>------- ---------- ------ -- ----- -- ----- -- ---- ------<br>--- ----- --- --- ------ -------- ----- --- ------ ----- --<br>----- ----- ---------- --- --- ------ ------ ---- -- ------<br>------- --- ------ ----- --- ---- ------- -- ---- --- --<br>------- ------,210507.30000019073,210505.80000019073,210176.709,210188.80000019073,210191.922,210525.777,,5,crown
screen,html.Screen,2_1_1_1_6,2022-05-03T10:08:08.952Z,,,,,,,,,,,,,,,,,54,,,,,,,,,,,,,,325.023000190733,,response,,,,100,,,,,,,Space,keypress(Space),,,,,,,,-- --- ---- --- ------ ----- secured ---- -- --- ------- --<br>------- ---------- ------ -- ----- -- ----- -- ---- ------<br>--- ----- --- --- ------ -------- ----- --- ------ ----- --<br>----- ----- ---------- --- --- ------ ------ ---- -- ------<br>------- --- ------ ----- --- ---- ------- -- ---- --- --<br>------- ------,210852.2000002861,210850.80000019073,210493.299,210507.5,210525.777,210859.833,,6,secured
screen,html.Screen,2_1_1_1_7,2022-05-03T10:08:09.271Z,,,,,,,,,,,,,,,,,54,,,,,,,,,,,,,,309.9670001907216,,response,,,,100,,,,,,,Space,keypress(Space),,,,,,,,-- --- ---- --- ------ ----- ------- much -- --- ------- --<br>------- ---------- ------ -- ----- -- ----- -- ---- ------<br>--- ----- --- --- ------ -------- ----- --- ------ ----- --<br>----- ----- ---------- --- --- ------ ------ ---- -- ------<br>------- --- ------ ----- --- ---- ------- -- ---- --- --<br>------- ------,211171.2000002861,211169.80000019073,210844.205,210852.5,210859.833,211175.134,,7,much
screen,html.Screen,2_1_1_1_8,2022-05-03T10:08:09.589Z,,,,,,,,,,,,,,,,,54,,,,,,,,,,,,,,312.8660000000091,,response,,,,100,,,,,,,Space,keypress(Space),,,,,,,,-- --- ---- --- ------ ----- ------- ---- of --- ------- --<br>------- ---------- ------ -- ----- -- ----- -- ---- ------<br>--- ----- --- --- ------ -------- ----- --- ------ ----- --<br>----- ----- ---------- --- --- ------ ------ ---- -- ------<br>------- --- ------ ----- --- ---- ------- -- ---- --- --<br>------- ------,211489.40000009537,211488,211159.842,211171.5,211175.134,211515.892,,8,of
screen,html.Screen,2_1_1_1_9,2022-05-03T10:08:09.833Z,,,,,,,,,,,,,,,,,54,,,,,,,,,,,,,,216.60800000000745,,response,,,,100,,,,,,,Space,keypress(Space),,,,,,,,-- --- ---- --- ------ ----- ------- ---- -- its ------- --<br>------- ---------- ------ -- ----- -- ----- -- ---- ------<br>--- ----- --- --- ------ -------- ----- --- ------ ----- --<br>----- ----- ---------- --- --- ------ ------ ---- -- ------<br>------- --- ------ ----- --- ---- ------- -- ---- --- --<br>------- ------,211734,211732.5,211476.169,211489.7000002861,211515.892,211741.729,,9,its
screen,html.Screen,2_1_1_1_10,2022-05-03T10:08:10.175Z,,,,,,,,,,,,,,,,,54,,,,,,,,,,,,,,331.7710000000079,,response,,,,100,,,,,,,Space,keypress(Space),,,,,,,,-- --- ---- --- ------ ----- ------- ---- -- --- revenue --<br>------- ---------- ------ -- ----- -- ----- -- ---- ------<br>--- ----- --- --- ------ -------- ----- --- ------ ----- --<br>----- ----- ---------- --- --- ------ ------ ---- -- ------<br>------- --- ------ ----- --- ---- ------- -- ---- --- --<br>------- ------,212075,212073.5,211726.344,211734.30000019073,211741.729,212091.713,,10,revenue
screen,html.Screen,2_1_1_1_11,2022-05-03T10:08:10.596Z,,,,,,,,,,,,,,,,,54,,,,,,,,,,,,,,403.1870000953786,,response,,,,100,,,,,,,Space,keypress(Space),,,,,,,,-- --- ---- --- ------ ----- ------- ---- -- --- ------- by<br>------- ---------- ------ -- ----- -- ----- -- ---- ------<br>--- ----- --- --- ------ -------- ----- --- ------ ----- --<br>----- ----- ---------- --- --- ------ ------ ---- -- ------<br>------- --- ------ ----- --- ---- ------- -- ---- --- --<br>------- ------,212496.5,212494.90000009537,212076.594,212075.5,212091.713,212508.782,,11,by
screen,html.Screen,2_1_1_1_12,2022-05-03T10:08:11.016Z,,,,,,,,,,,,,,,,,54,,,,,,,,,,,,,,406.6180000953609,,response,,,,100,,,,,,,Space,keypress(Space),,,,,,,,-- --- ---- --- ------ ----- ------- ---- -- --- ------- --<br>issuing ---------- ------ -- ----- -- ----- -- ---- ------<br>--- ----- --- --- ------ -------- ----- --- ------ ----- --<br>----- ----- ---------- --- --- ------ ------ ---- -- ------<br>------- --- ------ ----- --- ---- ------- -- ---- --- --<br>------- ------,212917.10000038147,212915.40000009537,212493.107,212496.90000009537,212508.782,212925.04,,12,issuing
screen,html.Screen,2_1_1_1_13,2022-05-03T10:08:11.322Z,,,,,,,,,,,,,,,,,54,,,,,,,,,,,,,,295.66000028609415,,response,,,,100,,,,,,,Space,keypress(Space),,,,,,,,-- --- ---- --- ------ ----- ------- ---- -- --- ------- --<br>------- government ------ -- ----- -- ----- -- ---- ------<br>--- ----- --- --- ------ -------- ----- --- ------ ----- --<br>----- ----- ---------- --- --- ------ ------ ---- -- ------<br>------- --- ------ ----- --- ---- ------- -- ---- --- --<br>------- ------,213222.2000002861,213220.7000002861,212910.201,212917.30000019073,212925.04,213224.809,,13,government
screen,html.Screen,2_1_1_1_14,2022-05-03T10:08:11.620Z,,,,,,,,,,,,,,,,,54,,,,,,,,,,,,,,294.4910001907265,,response,,,,100,,,,,,,Space,keypress(Space),,,,,,,,-- --- ---- --- ------ ----- ------- ---- -- --- ------- --<br>------- ---------- bonds. -- ----- -- ----- -- ---- ------<br>--- ----- --- --- ------ -------- ----- --- ------ ----- --<br>----- ----- ---------- --- --- ------ ------ ---- -- ------<br>------- --- ------ ----- --- ---- ------- -- ---- --- --<br>------- ------,213520.90000009537,213519.30000019073,213209.152,213222.40000009537,213224.809,213524.778,,14,bonds.
screen,html.Screen,2_1_1_1_15,2022-05-03T10:08:12.204Z,,,,,,,,,,,,,,,,,54,,,,,,,,,,,,,,578.3220003814786,,response,,,,100,,,,,,,Space,keypress(Space),,,,,,,,-- --- ---- --- ------ ----- ------- ---- -- --- ------- --<br>------- ---------- ------ In ----- -- ----- -- ---- ------<br>--- ----- --- --- ------ -------- ----- --- ------ ----- --<br>----- ----- ---------- --- --- ------ ------ ---- -- ------<br>------- --- ------ ----- --- ---- ------- -- ---- --- --<br>------- ------,214104.60000038147,214103.10000038147,213509.456,213521.10000038147,213524.778,214108.056,,15,In
screen,html.Screen,2_1_1_1_16,2022-05-03T10:08:13.683Z,,,,,,,,,,,,,,,,,54,,,,,,,,,,,,,,1473.5440003814583,,response,,,,100,,,,,,,Space,keypress(Space),,,,,,,,"-- --- ---- --- ------ ----- ------- ---- -- --- ------- --<br>------- ---------- ------ -- 1727, -- ----- -- ---- ------<br>--- ----- --- --- ------ -------- ----- --- ------ ----- --<br>----- ----- ---------- --- --- ------ ------ ---- -- ------<br>------- --- ------ ----- --- ---- ------- -- ---- --- --<br>------- ------",215583.7000002861,215581.60000038147,214092.703,214104.80000019073,214108.056,215591.636,,16,"1727,"
screen,html.Screen,2_1_1_1_17,2022-05-03T10:08:14.175Z,,,,,,,,,,,,,,,,,54,,,,,,,,,,,,,,481.9640003814711,,response,,,,100,,,,,,,Space,keypress(Space),,,,,,,,-- --- ---- --- ------ ----- ------- ---- -- --- ------- --<br>------- ---------- ------ -- ----- in ----- -- ---- ------<br>--- ----- --- --- ------ -------- ----- --- ------ ----- --<br>----- ----- ---------- --- --- ------ ------ ---- -- ------<br>------- --- ------ ----- --- ---- ------- -- ---- --- --<br>------- ------,216075.30000019073,216073.60000038147,215580.416,215584.10000038147,215591.636,216091.166,,17,in
screen,html.Screen,2_1_1_1_18,2022-05-03T10:08:14.607Z,,,,,,,,,,,,,,,,,54,,,,,,,,,,,,,,414.53400028610486,,response,,,,100,,,,,,,Space,keypress(Space),,,,,,,,-- --- ---- --- ------ ----- ------- ---- -- --- ------- --<br>------- ---------- ------ -- ----- -- order -- ---- ------<br>--- ----- --- --- ------ -------- ----- --- ------ ----- --<br>----- ----- ---------- --- --- ------ ------ ---- -- ------<br>------- --- ------ ----- --- ---- ------- -- ---- --- --<br>------- ------,216507.2000002861,216505.7000002861,216075.977,216075.7000002861,216091.166,216524.405,,18,order
screen,html.Screen,2_1_1_1_19,2022-05-03T10:08:14.883Z,,,,,,,,,,,,,,,,,54,,,,,,,,,,,,,,258.09500000000116,,response,,,,100,,,,,,,Space,keypress(Space),,,,,,,,-- --- ---- --- ------ ----- ------- ---- -- --- ------- --<br>------- ---------- ------ -- ----- -- ----- to ---- ------<br>--- ----- --- --- ------ -------- ----- --- ------ ----- --<br>----- ----- ---------- --- --- ------ ------ ---- -- ------<br>------- --- ------ ----- --- ---- ------- -- ---- --- --<br>------- ------,216784,216782.5,216492.536,216507.5,216524.405,216792.014,,19,to
screen,html.Screen,2_1_1_1_20,2022-05-03T10:08:15.165Z,,,,,,,,,,,,,,,,,54,,,,,,,,,,,,,,272.7860001907393,,response,,,,100,,,,,,,Space,keypress(Space),,,,,,,,-- --- ---- --- ------ ----- ------- ---- -- --- ------- --<br>------- ---------- ------ -- ----- -- ----- -- save ------<br>--- ----- --- --- ------ -------- ----- --- ------ ----- --<br>----- ----- ---------- --- --- ------ ------ ---- -- ------<br>------- --- ------ ----- --- ---- ------- -- ---- --- --<br>------- ------,217065.80000019073,217064.80000019073,216776.388,216784.30000019073,216792.014,217074.137,,20,save
screen,html.Screen,2_1_1_1_21,2022-05-03T10:08:15.526Z,,,,,,,,,,,,,,,,,54,,,,,,,,,,,,,,350.3630000000121,,response,,,,100,,,,,,,Space,keypress(Space),,,,,,,,"-- --- ---- --- ------ ----- ------- ---- -- --- ------- --<br>------- ---------- ------ -- ----- -- ----- -- ---- money,<br>--- ----- --- --- ------ -------- ----- --- ------ ----- --<br>----- ----- ---------- --- --- ------ ------ ---- -- ------<br>------- --- ------ ----- --- ---- ------- -- ---- --- --<br>------- ------",217426.10000038147,217424.5,217058.574,217065.90000009537,217074.137,217440.96,,21,"money,"
screen,html.Screen,2_1_1_1_22,2022-05-03T10:08:15.919Z,,,,,,,,,,,,,,,,,54,,,,,,,,,,,,,,377.54000000000815,,response,,,,100,,,,,,,Space,keypress(Space),,,,,,,,-- --- ---- --- ------ ----- ------- ---- -- --- ------- --<br>------- ---------- ------ -- ----- -- ----- -- ---- ------<br>the ----- --- --- ------ -------- ----- --- ------ ----- --<br>----- ----- ---------- --- --- ------ ------ ---- -- ------<br>------- --- ------ ----- --- ---- ------- -- ---- --- --<br>------- ------,217819.90000009537,217818.5,217425.48,217426.40000009537,217440.96,217824.21,,22,the
screen,html.Screen,2_1_1_1_23,2022-05-03T10:08:16.220Z,,,,,,,,,,,,,,,,,54,,,,,,,,,,,,,,294.590000190743,,response,,,,100,,,,,,,Space,keypress(Space),,,,,,,,-- --- ---- --- ------ ----- ------- ---- -- --- ------- --<br>------- ---------- ------ -- ----- -- ----- -- ---- ------<br>--- state --- --- ------ -------- ----- --- ------ ----- --<br>----- ----- ---------- --- --- ------ ------ ---- -- ------<br>------- --- ------ ----- --- ---- ------- -- ---- --- --<br>------- ------,218120.2000002861,218118.80000019073,217808.893,217820.2000002861,217824.21,218124.163,,23,state
screen,html.Screen,2_1_1_1_24,2022-05-03T10:08:16.596Z,,,,,,,,,,,,,,,,,54,,,,,,,,,,,,,,370.83699999999953,,response,,,,100,,,,,,,Space,keypress(Space),,,,,,,,-- --- ---- --- ------ ----- ------- ---- -- --- ------- --<br>------- ---------- ------ -- ----- -- ----- -- ---- ------<br>--- ----- cut --- ------ -------- ----- --- ------ ----- --<br>----- ----- ---------- --- --- ------ ------ ---- -- ------<br>------- --- ------ ----- --- ---- ------- -- ---- --- --<br>------- ------,218496.40000009537,218495,218108.492,218120.5,218124.163,218507.371,,24,cut
screen,html.Screen,2_1_1_1_25,2022-05-03T10:08:16.914Z,,,,,,,,,,,,,,,,,54,,,,,,,,,,,,,,306.12899999998626,,response,,,,100,,,,,,,Space,keypress(Space),,,,,,,,-- --- ---- --- ------ ----- ------- ---- -- --- ------- --<br>------- ---------- ------ -- ----- -- ----- -- ---- ------<br>--- ----- --- the ------ -------- ----- --- ------ ----- --<br>----- ----- ---------- --- --- ------ ------ ---- -- ------<br>------- --- ------ ----- --- ---- ------- -- ---- --- --<br>------- ------,218815,218813.5,218492.417,218496.7000002861,218507.371,218824.016,,25,the
screen,html.Screen,2_1_1_1_26,2022-05-03T10:08:17.273Z,,,,,,,,,,,,,,,,,54,,,,,,,,,,,,,,347.7840001907316,,response,,,,100,,,,,,,Space,keypress(Space),,,,,,,,-- --- ---- --- ------ ----- ------- ---- -- --- ------- --<br>------- ---------- ------ -- ----- -- ----- -- ---- ------<br>--- ----- --- --- bonds' -------- ----- --- ------ ----- --<br>----- ----- ---------- --- --- ------ ------ ---- -- ------<br>------- --- ------ ----- --- ---- ------- -- ---- --- --<br>------- ------,219173.2000002861,219171.80000019073,218808.939,218815.30000019073,218824.016,219190.744,,26,bonds'
screen,html.Screen,2_1_1_1_27,2022-05-03T10:08:17.622Z,,,,,,,,,,,,,,,,,54,,,,,,,,,,,,,,330.0560001907288,,response,,,,100,,,,,,,Space,keypress(Space),,,,,,,,-- --- ---- --- ------ ----- ------- ---- -- --- ------- --<br>------- ---------- ------ -- ----- -- ----- -- ---- ------<br>--- ----- --- --- ------ interest ----- --- ------ ----- --<br>----- ----- ---------- --- --- ------ ------ ---- -- ------<br>------- --- ------ ----- --- ---- ------- -- ---- --- --<br>------- ------,219522.30000019073,219520.80000019073,219158.898,219173.60000038147,219190.744,219540.713,,27,interest
screen,html.Screen,2_1_1_1_28,2022-05-03T10:08:18.152Z,,,,,,,,,,,,,,,,,54,,,,,,,,,,,,,,510.58700019074604,,response,,,,100,,,,,,,Space,keypress(Space),,,,,,,,-- --- ---- --- ------ ----- ------- ---- -- --- ------- --<br>------- ---------- ------ -- ----- -- ----- -- ---- ------<br>--- ----- --- --- ------ -------- rate. --- ------ ----- --<br>----- ----- ---------- --- --- ------ ------ ---- -- ------<br>------- --- ------ ----- --- ---- ------- -- ---- --- --<br>------- ------,220052.90000009537,220051.30000019073,219508.743,219522.60000038147,219540.713,220057.229,,28,rate.
screen,html.Screen,2_1_1_1_29,2022-05-03T10:08:18.774Z,,,,,,,,,,,,,,,,,54,,,,,,,,,,,,,,615.3710003814776,,response,,,,100,,,,,,,Space,keypress(Space),,,,,,,,-- --- ---- --- ------ ----- ------- ---- -- --- ------- --<br>------- ---------- ------ -- ----- -- ----- -- ---- ------<br>--- ----- --- --- ------ -------- ----- The ------ ----- --<br>----- ----- ---------- --- --- ------ ------ ---- -- ------<br>------- --- ------ ----- --- ---- ------- -- ---- --- --<br>------- ------,220674.30000019073,220672.60000038147,220042.385,220053.2000002861,220057.229,220690.536,,29,The
screen,html.Screen,2_1_1_1_30,2022-05-03T10:08:19.113Z,,,,,,,,,,,,,,,,,54,,,,,,,,,,,,,,321.2640001907421,,response,,,,100,,,,,,,Space,keypress(Space),,,,,,,,-- --- ---- --- ------ ----- ------- ---- -- --- ------- --<br>------- ---------- ------ -- ----- -- ----- -- ---- ------<br>--- ----- --- --- ------ -------- ----- --- market ----- --<br>----- ----- ---------- --- --- ------ ------ ---- -- ------<br>------- --- ------ ----- --- ---- ------- -- ---- --- --<br>------- ------,221013.30000019073,221011.80000019073,220659.783,220674.60000038147,220690.536,221023.817,,30,market
screen,html.Screen,2_1_1_1_31,2022-05-03T10:08:19.461Z,,,,,,,,,,,,,,,,,54,,,,,,,,,,,,,,335.98300019072485,,response,,,,100,,,,,,,Space,keypress(Space),,,,,,,,-- --- ---- --- ------ ----- ------- ---- -- --- ------- --<br>------- ---------- ------ -- ----- -- ----- -- ---- ------<br>--- ----- --- --- ------ -------- ----- --- ------ value --<br>----- ----- ---------- --- --- ------ ------ ---- -- ------<br>------- --- ------ ----- --- ---- ------- -- ---- --- --<br>------- ------,221361.40000009537,221359.80000019073,221008.534,221013.60000038147,221023.817,221373.746,,31,value
screen,html.Screen,2_1_1_1_32,2022-05-03T10:08:19.790Z,,,,,,,,,,,,,,,,,54,,,,,,,,,,,,,,315.25399999998626,,response,,,,100,,,,,,,Space,keypress(Space),,,,,,,,-- --- ---- --- ------ ----- ------- ---- -- --- ------- --<br>------- ---------- ------ -- ----- -- ----- -- ---- ------<br>--- ----- --- --- ------ -------- ----- --- ------ ----- of<br>----- ----- ---------- --- --- ------ ------ ---- -- ------<br>------- --- ------ ----- --- ---- ------- -- ---- --- --<br>------- ------,221690.90000009537,221689,221358.808,221361.80000019073,221373.746,221707.107,,32,of
screen,html.Screen,2_1_1_1_33,2022-05-03T10:08:20.093Z,,,,,,,,,,,,,,,,,54,,,,,,,,,,,,,,285.09300028611324,,response,,,,100,,,,,,,Space,keypress(Space),,,,,,,,-- --- ---- --- ------ ----- ------- ---- -- --- ------- --<br>------- ---------- ------ -- ----- -- ----- -- ---- ------<br>--- ----- --- --- ------ -------- ----- --- ------ ----- --<br>these ----- ---------- --- --- ------ ------ ---- -- ------<br>------- --- ------ ----- --- ---- ------- -- ---- --- --<br>------- ------,221993.5,221992.2000002861,221691.969,221691.2000002861,221707.107,222006.985,,33,these
screen,html.Screen,2_1_1_1_34,2022-05-03T10:08:20.364Z,,,,,,,,,,,,,,,,,54,,,,,,,,,,,,,,256.01500000001397,,response,,,,100,,,,,,,Space,keypress(Space),,,,,,,,-- --- ---- --- ------ ----- ------- ---- -- --- ------- --<br>------- ---------- ------ -- ----- -- ----- -- ---- ------<br>--- ----- --- --- ------ -------- ----- --- ------ ----- --<br>----- bonds ---------- --- --- ------ ------ ---- -- ------<br>------- --- ------ ----- --- ---- ------- -- ---- --- --<br>------- ------,222264.40000009537,222263,221991.331,221993.80000019073,222006.985,222273.574,,34,bonds
screen,html.Screen,2_1_1_1_35,2022-05-03T10:08:20.764Z,,,,,,,,,,,,,,,,,54,,,,,,,,,,,,,,389.62600028610905,,response,,,,100,,,,,,,Space,keypress(Space),,,,,,,,"-- --- ---- --- ------ ----- ------- ---- -- --- ------- --<br>------- ---------- ------ -- ----- -- ----- -- ---- ------<br>--- ----- --- --- ------ -------- ----- --- ------ ----- --<br>----- ----- plummeted, --- --- ------ ------ ---- -- ------<br>------- --- ------ ----- --- ---- ------- -- ---- --- --<br>------- ------",222664.80000019073,222663.2000002861,222257.837,222264.7000002861,222273.574,222673.488,,35,"plummeted,"
screen,html.Screen,2_1_1_1_36,2022-05-03T10:08:21.245Z,,,,,,,,,,,,,,,,,54,,,,,,,,,,,,,,470.4120000953553,,response,,,,100,,,,,,,Space,keypress(Space),,,,,,,,-- --- ---- --- ------ ----- ------- ---- -- --- ------- --<br>------- ---------- ------ -- ----- -- ----- -- ---- ------<br>--- ----- --- --- ------ -------- ----- --- ------ ----- --<br>----- ----- ---------- and --- ------ ------ ---- -- ------<br>------- --- ------ ----- --- ---- ------- -- ---- --- --<br>------- ------,223145.7000002861,223143.90000009537,222658.766,222665.10000038147,222673.488,223156.721,,36,and
screen,html.Screen,2_1_1_1_37,2022-05-03T10:08:21.544Z,,,,,,,,,,,,,,,,,54,,,,,,,,,,,,,,285.679000095377,,response,,,,100,,,,,,,Space,keypress(Space),,,,,,,,-- --- ---- --- ------ ----- ------- ---- -- --- ------- --<br>------- ---------- ------ -- ----- -- ----- -- ---- ------<br>--- ----- --- --- ------ -------- ----- --- ------ ----- --<br>----- ----- ---------- --- the ------ ------ ---- -- ------<br>------- --- ------ ----- --- ---- ------- -- ---- --- --<br>------- ------,223444.2000002861,223442.40000009537,223142.072,223146,223156.721,223456.662,,37,the
screen,html.Screen,2_1_1_1_38,2022-05-03T10:08:21.857Z,,,,,,,,,,,,,,,,,54,,,,,,,,,,,,,,299.23800009535626,,response,,,,100,,,,,,,Space,keypress(Space),,,,,,,,-- --- ---- --- ------ ----- ------- ---- -- --- ------- --<br>------- ---------- ------ -- ----- -- ----- -- ---- ------<br>--- ----- --- --- ------ -------- ----- --- ------ ----- --<br>----- ----- ---------- --- --- market ------ ---- -- ------<br>------- --- ------ ----- --- ---- ------- -- ---- --- --<br>------- ------,223757.60000038147,223755.90000009537,223441.073,223444.5,223456.662,223773.731,,38,market
screen,html.Screen,2_1_1_1_39,2022-05-03T10:08:22.220Z,,,,,,,,,,,,,,,,,54,,,,,,,,,,,,,,345.0690001907351,,response,,,,100,,,,,,,Space,keypress(Space),,,,,,,,-- --- ---- --- ------ ----- ------- ---- -- --- ------- --<br>------- ---------- ------ -- ----- -- ----- -- ---- ------<br>--- ----- --- --- ------ -------- ----- --- ------ ----- --<br>----- ----- ---------- --- --- ------ became ---- -- ------<br>------- --- ------ ----- --- ---- ------- -- ---- --- --<br>------- ------,224120.2000002861,224118.80000019073,223757.544,223758.10000038147,223773.731,224123.321,,39,became
screen,html.Screen,2_1_1_1_40,2022-05-03T10:08:22.638Z,,,,,,,,,,,,,,,,,54,,,,,,,,,,,,,,413.77900038147345,,response,,,,100,,,,,,,Space,keypress(Space),,,,,,,,-- --- ---- --- ------ ----- ------- ---- -- --- ------- --<br>------- ---------- ------ -- ----- -- ----- -- ---- ------<br>--- ----- --- --- ------ -------- ----- --- ------ ----- --<br>----- ----- ---------- --- --- ------ ------ wary -- ------<br>------- --- ------ ----- --- ---- ------- -- ---- --- --<br>------- ------,224538.60000038147,224537.10000038147,224107.839,224120.5,224123.321,224556.616,,40,wary
screen,html.Screen,2_1_1_1_41,2022-05-03T10:08:23.030Z,,,,,,,,,,,,,,,,,54,,,,,,,,,,,,,,372.78400009535835,,response,,,,100,,,,,,,Space,keypress(Space),,,,,,,,-- --- ---- --- ------ ----- ------- ---- -- --- ------- --<br>------- ---------- ------ -- ----- -- ----- -- ---- ------<br>--- ----- --- --- ------ -------- ----- --- ------ ----- --<br>----- ----- ---------- --- --- ------ ------ ---- of ------<br>------- --- ------ ----- --- ---- ------- -- ---- --- --<br>------- ------,224930.80000019073,224929.40000009537,224525.224,224538.90000009537,224556.616,224939.849,,41,of
screen,html.Screen,2_1_1_1_42,2022-05-03T10:08:23.361Z,,,,,,,,,,,,,,,,,54,,,,,,,,,,,,,,319.85100028611487,,response,,,,100,,,,,,,Space,keypress(Space),,,,,,,,-- --- ---- --- ------ ----- ------- ---- -- --- ------- --<br>------- ---------- ------ -- ----- -- ----- -- ---- ------<br>--- ----- --- --- ------ -------- ----- --- ------ ----- --<br>----- ----- ---------- --- --- ------ ------ ---- -- French<br>------- --- ------ ----- --- ---- ------- -- ---- --- --<br>------- ------,225261.10000038147,225259.7000002861,224924.51,224931.10000038147,224939.849,225273.504,,42,French
screen,html.Screen,2_1_1_1_43,2022-05-03T10:08:23.704Z,,,,,,,,,,,,,,,,,54,,,,,,,,,,,,,,329.39600009538117,,response,,,,100,,,,,,,Space,keypress(Space),,,,,,,,-- --- ---- --- ------ ----- ------- ---- -- --- ------- --<br>------- ---------- ------ -- ----- -- ----- -- ---- ------<br>--- ----- --- --- ------ -------- ----- --- ------ ----- --<br>----- ----- ---------- --- --- ------ ------ ---- -- ------<br>credit. --- ------ ----- --- ---- ------- -- ---- --- --<br>------- ------,225604.80000019073,225602.90000009537,225258.447,225261.40000009537,225273.504,225623.128,,43,credit.
screen,html.Screen,2_1_1_1_44,2022-05-03T10:08:24.060Z,,,,,,,,,,,,,,,,,54,,,,,,,,,,,,,,335.27200009537046,,response,,,,100,,,,,,,Space,keypress(Space),,,,,,,,-- --- ---- --- ------ ----- ------- ---- -- --- ------- --<br>------- ---------- ------ -- ----- -- ----- -- ---- ------<br>--- ----- --- --- ------ -------- ----- --- ------ ----- --<br>----- ----- ---------- --- --- ------ ------ ---- -- ------<br>------- The ------ ----- --- ---- ------- -- ---- --- --<br>------- ------,225960.10000038147,225958.40000009537,225590.944,225605.10000038147,225623.128,225973.084,,44,The
screen,html.Screen,2_1_1_1_45,2022-05-03T10:08:24.312Z,,,,,,,,,,,,,,,,,54,,,,,,,,,,,,,,238.11600028609973,,response,,,,100,,,,,,,Space,keypress(Space),,,,,,,,-- --- ---- --- ------ ----- ------- ---- -- --- ------- --<br>------- ---------- ------ -- ----- -- ----- -- ---- ------<br>--- ----- --- --- ------ -------- ----- --- ------ ----- --<br>----- ----- ---------- --- --- ------ ------ ---- -- ------<br>------- --- French ----- --- ---- ------- -- ---- --- --<br>------- ------,226212.7000002861,226211.2000002861,225957.631,225960.40000009537,225973.084,226223.057,,45,French
screen,html.Screen,2_1_1_1_46,2022-05-03T10:08:24.616Z,,,,,,,,,,,,,,,,,54,,,,,,,,,,,,,,292.043000381469,,response,,,,100,,,,,,,Space,keypress(Space),,,,,,,,-- --- ---- --- ------ ----- ------- ---- -- --- ------- --<br>------- ---------- ------ -- ----- -- ----- -- ---- ------<br>--- ----- --- --- ------ -------- ----- --- ------ ----- --<br>----- ----- ---------- --- --- ------ ------ ---- -- ------<br>------- --- ------ state --- ---- ------- -- ---- --- --<br>------- ------,226516.5,226515.10000038147,226207.692,226213.10000038147,226223.057,226522.958,,46,state
screen,html.Screen,2_1_1_1_47,2022-05-03T10:08:24.958Z,,,,,,,,,,,,,,,,,54,,,,,,,,,,,,,,334.04199999998673,,response,,,,100,,,,,,,Space,keypress(Space),,,,,,,,-- --- ---- --- ------ ----- ------- ---- -- --- ------- --<br>------- ---------- ------ -- ----- -- ----- -- ---- ------<br>--- ----- --- --- ------ -------- ----- --- ------ ----- --<br>----- ----- ---------- --- --- ------ ------ ---- -- ------<br>------- --- ------ ----- was ---- ------- -- ---- --- --<br>------- ------,226858.7000002861,226857,226507.357,226516.80000019073,226522.958,226872.961,,47,was
screen,html.Screen,2_1_1_1_48,2022-05-03T10:08:25.233Z,,,,,,,,,,,,,,,,,54,,,,,,,,,,,,,,259.1390003814595,,response,,,,100,,,,,,,Space,keypress(Space),,,,,,,,-- --- ---- --- ------ ----- ------- ---- -- --- ------- --<br>------- ---------- ------ -- ----- -- ----- -- ---- ------<br>--- ----- --- --- ------ -------- ----- --- ------ ----- --<br>----- ----- ---------- --- --- ------ ------ ---- -- ------<br>------- --- ------ ----- --- left ------- -- ---- --- --<br>------- ------,227133.5,227132.10000038147,226857.992,226859,226872.961,227139.579,,48,left
screen,html.Screen,2_1_1_1_49,2022-05-03T10:08:25.516Z,,,,,,,,,,,,,,,,,54,,,,,,,,,,,,,,275.1210002861044,,response,,,,100,,,,,,,Space,keypress(Space),,,,,,,,-- --- ---- --- ------ ----- ------- ---- -- --- ------- --<br>------- ---------- ------ -- ----- -- ----- -- ---- ------<br>--- ----- --- --- ------ -------- ----- --- ------ ----- --<br>----- ----- ---------- --- --- ------ ------ ---- -- ------<br>------- --- ------ ----- --- ---- without -- ---- --- --<br>------- ------,227416.10000038147,227414.7000002861,227123.815,227133.80000019073,227139.579,227422.832,,49,without
screen,html.Screen,2_1_1_1_50,2022-05-03T10:08:25.836Z,,,,,,,,,,,,,,,,,54,,,,,,,,,,,,,,312.56800009537255,,response,,,,100,,,,,,,Space,keypress(Space),,,,,,,,-- --- ---- --- ------ ----- ------- ---- -- --- ------- --<br>------- ---------- ------ -- ----- -- ----- -- ---- ------<br>--- ----- --- --- ------ -------- ----- --- ------ ----- --<br>----- ----- ---------- --- --- ------ ------ ---- -- ------<br>------- --- ------ ----- --- ---- ------- an ---- --- --<br>------- ------,227736.80000019073,227735.40000009537,227407.182,227416.5,227422.832,227739.44,,50,an
screen,html.Screen,2_1_1_1_51,2022-05-03T10:08:26.160Z,,,,,,,,,,,,,,,,,54,,,,,,,,,,,,,,320.0599999999977,,response,,,,100,,,,,,,Space,keypress(Space),,,,,,,,-- --- ---- --- ------ ----- ------- ---- -- --- ------- --<br>------- ---------- ------ -- ----- -- ----- -- ---- ------<br>--- ----- --- --- ------ -------- ----- --- ------ ----- --<br>----- ----- ---------- --- --- ------ ------ ---- -- ------<br>------- --- ------ ----- --- ---- ------- -- easy --- --<br>------- ------,228060.90000009537,228059.5,227724.215,227737.10000038147,227739.44,228072.964,,51,easy
screen,html.Screen,2_1_1_1_52,2022-05-03T10:08:26.485Z,,,,,,,,,,,,,,,,,54,,,,,,,,,,,,,,311.5359999999928,,response,,,,100,,,,,,,Space,keypress(Space),,,,,,,,-- --- ---- --- ------ ----- ------- ---- -- --- ------- --<br>------- ---------- ------ -- ----- -- ----- -- ---- ------<br>--- ----- --- --- ------ -------- ----- --- ------ ----- --<br>----- ----- ---------- --- --- ------ ------ ---- -- ------<br>------- --- ------ ----- --- ---- ------- -- ---- way --<br>------- ------,228385.80000019073,228384.5,228057.557,228061.10000038147,228072.964,228389.387,,52,way
screen,html.Screen,2_1_1_1_53,2022-05-03T10:08:26.797Z,,,,,,,,,,,,,,,,,54,,,,,,,,,,,,,,306.71300038148183,,response,,,,100,,,,,,,Space,keypress(Space),,,,,,,,-- --- ---- --- ------ ----- ------- ---- -- --- ------- --<br>------- ---------- ------ -- ----- -- ----- -- ---- ------<br>--- ----- --- --- ------ -------- ----- --- ------ ----- --<br>----- ----- ---------- --- --- ------ ------ ---- -- ------<br>------- --- ------ ----- --- ---- ------- -- ---- --- of<br>------- ------,228697.5,228696.10000038147,228374.29,228386.2000002861,228389.387,228706.004,,53,of
screen,html.Screen,2_1_1_1_54,2022-05-03T10:08:27.123Z,,,,,,,,,,,,,,,,,54,,,,,,,,,,,,,,315.99600000001374,,response,,,,100,,,,,,,Space,keypress(Space),,,,,,,,-- --- ---- --- ------ ----- ------- ---- -- --- ------- --<br>------- ---------- ------ -- ----- -- ----- -- ---- ------<br>--- ----- --- --- ------ -------- ----- --- ------ ----- --<br>----- ----- ---------- --- --- ------ ------ ---- -- ------<br>------- --- ------ ----- --- ---- ------- -- ---- --- --<br>raising ------,229023.7000002861,229022,228690.719,228697.80000019073,228706.004,229039.349,,54,raising
screen,html.Screen,2_1_1_1_55,2022-05-03T10:08:27.535Z,,,,,,,,,,,,,,,,,54,,,,,,,,,,,,,,394.85100028611487,,response,,,,100,,,,,,,Space,keypress(Space),,,,,,,,-- --- ---- --- ------ ----- ------- ---- -- --- ------- --<br>------- ---------- ------ -- ----- -- ----- -- ---- ------<br>--- ----- --- --- ------ -------- ----- --- ------ ----- --<br>----- ----- ---------- --- --- ------ ------ ---- -- ------<br>------- --- ------ ----- --- ---- ------- -- ---- --- --<br>------- money.,229435.7000002861,229434.2000002861,229024.086,229024,229039.349,229439.265,,55,money.
Item 100,flow.Loop,2_1_1_1,2022-05-03T10:08:27.536Z,,,,,,,,,,,,,,,,,,,,,,,,,,,,,,,21158.73200028611,,completion,,,,,H,,,,,,,,,,,silence,,,,,229436.2000002861,229434.2000002861,208258.95,208260.7000002861,208275.468,229439.265,,,
Question 1,html.Screen,2_1_1_2,2022-05-03T10:08:30.691Z,,,,,,,,,,,,,,,,,,,,,,,,,,,,true,TRUE,,3150.035000190721,,response,,,,100,H,,,,,,TRUE,click #choice-1,,,,silence,,,,,232591.60000038147,232589.30000019073,229424.003,229436.5,229439.265,232608.7,,,
Question 2,html.Screen,2_1_1_3,2022-05-03T10:08:32.812Z,,,,,,,,,,,,,,,,,,,,,,,,,,,,true,FALSE,,2101.0000002860907,,response,,,,100,H,,,,,,FALSE,click #choice-2,,,,silence,,,,,234712.10000038147,234709.7000002861,232589.495,232592.10000038147,232608.7,234721.866,,,
Item 100,flow.Sequence,2_1_1,2022-05-03T10:08:32.812Z,,,,,,,,,,,,,,,,,,,,,,,,,,,,,,,36432.75000028609,,completion,,,,,,,,,,,,,,,,,,,,,234712.60000038147,234709.7000002861,198261.232,198269.5,198276.95,234721.866,,,
End of Practice,html.Page,2_1_2,2022-05-03T10:08:38.935Z,,,,,,,,,,,,,,,,,,,,,,,,,,,,,,,6112.834000286093,,form submission,,,,,,,,,,,,,,,,,,,,,240835.2000002861,240834.7000002861,234705.756,234712.90000009537,234721.866,240837.618,,,
Practice,flow.Sequence,2_1,2022-05-03T10:08:38.935Z,,,,,,,,,,,,,,,,,,,,,,,,,,,,,,,92517.42500028611,,completion,,,,,,,,,,,,,,,,,,,,,240835.7000002861,240834.7000002861,148285.126,148299.40000009537,148317.275,240837.618,,,
Trap_instruction,html.Page,2_2_0,2022-05-03T10:08:58.919Z,,,,,,,,,,,,,,,,,,,,,,,,,,,,,,,20080.540000000008,,timeout,,,,,,,,,,,,,,,,,,,,,260819.80000019073,260818.164,240822.113,240836.10000038147,240837.618,260918.158,,,
trap_trial,html.Screen,2_2_1,2022-05-03T10:09:02.826Z,,,,,,,,,,,,,,,,,,,,,,,,,,,,true,1,,3805.142000190739,,response,,,,,,,,,,,1,click #choice-1,,,,,,,,,264726,264723.30000019073,260818.164,260820.10000038147,260918.158,264734.273,,,
end of trap trial,html.Page,2_2_2,2022-05-03T10:09:04.994Z,,,,,,,,,,,,,,,,,,,,,,,,,,,,,,,2159.7270000000135,,form submission,,,,,,,,,,,,,,,,,,,,,266894.5,266894,264718.349,264726.5,264734.273,266900.826,,,
Trap 1,flow.Sequence,2_2,2022-05-03T10:09:04.994Z,,,,,,,,,,,,,,,,,,,,,,,,,,,,,,,26056.382000000012,,completion,,,,,,,,,,,,,,,,,,,,,266894.90000009537,266894,240822.113,240835.90000009537,240837.618,266900.826,,,
Standby,html.Page,2_3_0,2022-05-03T10:09:12.984Z,,,,,,,,,,,,,,,,,,,,,,,,,,,,,,,7998.908999999985,,timeout,,,,,,,,,,,,,,,,,,,,,274884.80000019073,274882.936,266884.047,266895.2000002861,266900.826,274899.735,,,
Holding screen,html.Screen,2_3_1_0_0,2022-05-03T10:09:19.984Z,,,,,,,,,,,,,,,,,,,,,,,,,,,,,,,6998.775000000023,,timeout,,,,,,,,,,,,,,,,,,,,,281885,281882.948,274882.936,274885.30000019073,274899.735,281898.51,,,
screen,html.Screen,2_3_1_0_1_0,2022-05-03T10:09:23.234Z,,,,,,,,,,,,,,,,,12,,,,,,,,,,,,,,3232.0900003814604,,response,,,,5,H,,,,,,Space,keypress(Space),,,,speech,,,,Some ------ ------ ------- ------ --- ------- -----------<br>-- ----- --- ---- -- --- ------ ---- - ---- -- ----------<br>-- ------ ---- --- ---- --- --- --- ----- -- -------- ---<br>------ ------- -------- --- ---- -- ------- ------------ --<br>------ -- ---- -- --- ---- -- -------- -- --- ------ ------,285134.30000019073,285130.60000038147,281882.948,281885.40000009537,281898.51,285148.175,,0,Some
screen,html.Screen,2_3_1_0_1_1,2022-05-03T10:09:23.559Z,,,,,,,,,,,,,,,,,12,,,,,,,,,,,,,,309.6250001907465,,response,,,,5,H,,,,,,Space,keypress(Space),,,,speech,,,,---- months ------ ------- ------ --- ------- -----------<br>-- ----- --- ---- -- --- ------ ---- - ---- -- ----------<br>-- ------ ---- --- ---- --- --- --- ----- -- -------- ---<br>------ ------- -------- --- ---- -- ------- ------------ --<br>------ -- ---- -- --- ---- -- -------- -- --- ------ ------,285459.10000038147,285457.80000019073,285127.135,285134.80000019073,285148.175,285464.706,,1,months
screen,html.Screen,2_3_1_0_1_2,2022-05-03T10:09:23.876Z,,,,,,,,,,,,,,,,,12,,,,,,,,,,,,,,310.5940001907293,,response,,,,5,H,,,,,,Space,keypress(Space),,,,speech,,,,"---- ------ later, ------- ------ --- ------- -----------<br>-- ----- --- ---- -- --- ------ ---- - ---- -- ----------<br>-- ------ ---- --- ---- --- --- --- ----- -- -------- ---<br>------ ------- -------- --- ---- -- ------- ------------ --<br>------ -- ---- -- --- ---- -- -------- -- --- ------ ------",285776.60000038147,285775.30000019073,285448.906,285459.40000009537,285464.706,285781.368,,2,"later,"
screen,html.Screen,2_3_1_0_1_3,2022-05-03T10:09:24.240Z,,,,,,,,,,,,,,,,,12,,,,,,,,,,,,,,357.73200038145296,,response,,,,5,H,,,,,,Space,keypress(Space),,,,speech,,,,---- ------ ------ Michael ------ --- ------- -----------<br>-- ----- --- ---- -- --- ------ ---- - ---- -- ----------<br>-- ------ ---- --- ---- --- --- --- ----- -- -------- ---<br>------ ------- -------- --- ---- -- ------- ------------ --<br>------ -- ---- -- --- ---- -- -------- -- --- ------ ------,286140.60000038147,286139.10000038147,285765.797,285777,285781.368,286148.774,,3,Michael
screen,html.Screen,2_3_1_0_1_4,2022-05-03T10:09:24.590Z,,,,,,,,,,,,,,,,,12,,,,,,,,,,,,,,340.62600009539165,,response,,,,5,H,,,,,,Space,keypress(Space),,,,speech,,,,---- ------ ------ ------- Larson --- ------- -----------<br>-- ----- --- ---- -- --- ------ ---- - ---- -- ----------<br>-- ------ ---- --- ---- --- --- --- ----- -- -------- ---<br>------ ------- -------- --- ---- -- ------- ------------ --<br>------ -- ---- -- --- ---- -- -------- -- --- ------ ------,286490.80000019073,286489.40000009537,286132.617,286140.80000019073,286148.774,286498.234,,4,Larson
screen,html.Screen,2_3_1_0_1_5,2022-05-03T10:09:24.982Z,,,,,,,,,,,,,,,,,12,,,,,,,,,,,,,,382.5660001907381,,response,,,,5,H,,,,,,Space,keypress(Space),,,,speech,,,,---- ------ ------ ------- ------ saw ------- -----------<br>-- ----- --- ---- -- --- ------ ---- - ---- -- ----------<br>-- ------ ---- --- ---- --- --- --- ----- -- -------- ---<br>------ ------- -------- --- ---- -- ------- ------------ --<br>------ -- ---- -- --- ---- -- -------- -- --- ------ ------,286882.7000002861,286880.80000019073,286482.814,286491.10000038147,286498.234,286897.931,,5,saw
screen,html.Screen,2_3_1_0_1_6,2022-05-03T10:09:25.436Z,,,,,,,,,,,,,,,,,12,,,,,,,,,,,,,,437.5690000000177,,response,,,,5,H,,,,,,Space,keypress(Space),,,,speech,,,,---- ------ ------ ------- ------ --- another -----------<br>-- ----- --- ---- -- --- ------ ---- - ---- -- ----------<br>-- ------ ---- --- ---- --- --- --- ----- -- -------- ---<br>------ ------- -------- --- ---- -- ------- ------------ --<br>------ -- ---- -- --- ---- -- -------- -- --- ------ ------,287336.90000009537,287335.5,286882.964,286883.30000019073,286897.931,287347.704,,6,another
screen,html.Screen,2_3_1_0_1_7,2022-05-03T10:09:25.751Z,,,,,,,,,,,,,,,,,12,,,,,,,,,,,,,,302.295999999973,,response,,,,5,H,,,,,,Space,keypress(Space),,,,speech,,,,---- ------ ------ ------- ------ --- ------- opportunity<br>-- ----- --- ---- -- --- ------ ---- - ---- -- ----------<br>-- ------ ---- --- ---- --- --- --- ----- -- -------- ---<br>------ ------- -------- --- ---- -- ------- ------------ --<br>------ -- ---- -- --- ---- -- -------- -- --- ------ ------,287651.40000009537,287650,287333.059,287337.30000019073,287347.704,287664.447,,7,opportunity
screen,html.Screen,2_3_1_0_1_8,2022-05-03T10:09:26.122Z,,,,,,,,,,,,,,,,,12,,,,,,,,,,,,,,356.65300038148416,,response,,,,5,H,,,,,,Space,keypress(Space),,,,speech,,,,---- ------ ------ ------- ------ --- ------- -----------<br>to ----- --- ---- -- --- ------ ---- - ---- -- ----------<br>-- ------ ---- --- ---- --- --- --- ----- -- -------- ---<br>------ ------- -------- --- ---- -- ------- ------------ --<br>------ -- ---- -- --- ---- -- -------- -- --- ------ ------,288022.60000038147,288021.10000038147,287649.177,287651.7000002861,287664.447,288031.014,,8,to
screen,html.Screen,2_3_1_0_1_9,2022-05-03T10:09:26.369Z,,,,,,,,,,,,,,,,,12,,,,,,,,,,,,,,237.58600038144505,,response,,,,5,H,,,,,,Space,keypress(Space),,,,speech,,,,---- ------ ------ ------- ------ --- ------- -----------<br>-- stack --- ---- -- --- ------ ---- - ---- -- ----------<br>-- ------ ---- --- ---- --- --- --- ----- -- -------- ---<br>------ ------- -------- --- ---- -- ------- ------------ --<br>------ -- ---- -- --- ---- -- -------- -- --- ------ ------,288270,288268.60000038147,288015.916,288022.90000009537,288031.014,288281.005,,9,stack
screen,html.Screen,2_3_1_0_1_10,2022-05-03T10:09:26.613Z,,,,,,,,,,,,,,,,,12,,,,,,,,,,,,,,230.49499999999534,,response,,,,5,H,,,,,,Space,keypress(Space),,,,speech,,,,---- ------ ------ ------- ------ --- ------- -----------<br>-- ----- the ---- -- --- ------ ---- - ---- -- ----------<br>-- ------ ---- --- ---- --- --- --- ----- -- -------- ---<br>------ ------- -------- --- ---- -- ------- ------------ --<br>------ -- ---- -- --- ---- -- -------- -- --- ------ ------,288513.10000038147,288511.5,288265.166,288270.30000019073,288281.005,288531.367,,10,the
screen,html.Screen,2_3_1_0_1_11,2022-05-03T10:09:26.869Z,,,,,,,,,,,,,,,,,12,,,,,,,,,,,,,,236.73300038144225,,response,,,,5,H,,,,,,Space,keypress(Space),,,,speech,,,,---- ------ ------ ------- ------ --- ------- -----------<br>-- ----- --- odds -- --- ------ ---- - ---- -- ----------<br>-- ------ ---- --- ---- --- --- --- ----- -- -------- ---<br>------ ------- -------- --- ---- -- ------- ------------ --<br>------ -- ---- -- --- ---- -- -------- -- --- ------ ------,288769.60000038147,288768.10000038147,288498.71,288513.40000009537,288531.367,288780.849,,11,odds
screen,html.Screen,2_3_1_0_1_12,2022-05-03T10:09:27.227Z,,,,,,,,,,,,,,,,,12,,,,,,,,,,,,,,345.6510000000126,,response,,,,5,H,,,,,,Space,keypress(Space),,,,speech,,,,---- ------ ------ ------- ------ --- ------- -----------<br>-- ----- --- ---- in --- ------ ---- - ---- -- ----------<br>-- ------ ---- --- ---- --- --- --- ----- -- -------- ---<br>------ ------- -------- --- ---- -- ------- ------------ --<br>------ -- ---- -- --- ---- -- -------- -- --- ------ ------,289128,289126.5,288765.128,288769.80000019073,288780.849,289130.847,,12,in
screen,html.Screen,2_3_1_0_1_13,2022-05-03T10:09:27.571Z,,,,,,,,,,,,,,,,,12,,,,,,,,,,,,,,339.5530000953586,,response,,,,5,H,,,,,,Space,keypress(Space),,,,speech,,,,---- ------ ------ ------- ------ --- ------- -----------<br>-- ----- --- ---- -- his ------ ---- - ---- -- ----------<br>-- ------ ---- --- ---- --- --- --- ----- -- -------- ---<br>------ ------- -------- --- ---- -- ------- ------------ --<br>------ -- ---- -- --- ---- -- -------- -- --- ------ ------,289472,289470.40000009537,289115.635,289128.30000019073,289130.847,289480.77,,13,his
screen,html.Screen,2_3_1_0_1_14,2022-05-03T10:09:27.870Z,,,,,,,,,,,,,,,,,12,,,,,,,,,,,,,,288.43000028608367,,response,,,,5,H,,,,,,Space,keypress(Space),,,,speech,,,,---- ------ ------ ------- ------ --- ------- -----------<br>-- ----- --- ---- -- --- favour ---- - ---- -- ----------<br>-- ------ ---- --- ---- --- --- --- ----- -- -------- ---<br>------ ------- -------- --- ---- -- ------- ------------ --<br>------ -- ---- -- --- ---- -- -------- -- --- ------ ------,289770.60000038147,289769.2000002861,289465.358,289472.30000019073,289480.77,289780.831,,14,favour
screen,html.Screen,2_3_1_0_1_15,2022-05-03T10:09:28.251Z,,,,,,,,,,,,,,,,,12,,,,,,,,,,,,,,368.76900038146414,,response,,,,5,H,,,,,,Space,keypress(Space),,,,speech,,,,---- ------ ------ ------- ------ --- ------- -----------<br>-- ----- --- ---- -- --- ------ with - ---- -- ----------<br>-- ------ ---- --- ---- --- --- --- ----- -- -------- ---<br>------ ------- -------- --- ---- -- ------- ------------ --<br>------ -- ---- -- --- ---- -- -------- -- --- ------ ------,290151.10000038147,290149.60000038147,289765.081,289770.90000009537,289780.831,290164.039,,15,with
screen,html.Screen,2_3_1_0_1_16,2022-05-03T10:09:28.560Z,,,,,,,,,,,,,,,,,12,,,,,,,,,,,,,,295.16100028611254,,response,,,,5,H,,,,,,Space,keypress(Space),,,,speech,,,,---- ------ ------ ------- ------ --- ------- -----------<br>-- ----- --- ---- -- --- ------ ---- a ---- -- ----------<br>-- ------ ---- --- ---- --- --- --- ----- -- -------- ---<br>------ ------- -------- --- ---- -- ------- ------------ --<br>------ -- ---- -- --- ---- -- -------- -- --- ------ ------,290460.7000002861,290459.2000002861,290148.776,290151.40000009537,290164.039,290464.043,,16,a
screen,html.Screen,2_3_1_0_1_17,2022-05-03T10:09:28.829Z,,,,,,,,,,,,,,,,,12,,,,,,,,,,,,,,263.9569999999949,,response,,,,5,H,,,,,,Space,keypress(Space),,,,speech,,,,---- ------ ------ ------- ------ --- ------- -----------<br>-- ----- --- ---- -- --- ------ ---- - dash -- ----------<br>-- ------ ---- --- ---- --- --- --- ----- -- -------- ---<br>------ ------- -------- --- ---- -- ------- ------------ --<br>------ -- ---- -- --- ---- -- -------- -- --- ------ ------,290729.60000038147,290728,290448.415,290461,290464.043,290747.703,,17,dash
screen,html.Screen,2_3_1_0_1_18,2022-05-03T10:09:29.120Z,,,,,,,,,,,,,,,,,12,,,,,,,,,,,,,,270.9970002861228,,response,,,,5,H,,,,,,Space,keypress(Space),,,,speech,,,,---- ------ ------ ------- ------ --- ------- -----------<br>-- ----- --- ---- -- --- ------ ---- - ---- of ----------<br>-- ------ ---- --- ---- --- --- --- ----- -- -------- ---<br>------ ------- -------- --- ---- -- ------- ------------ --<br>------ -- ---- -- --- ---- -- -------- -- --- ------ ------,291020.10000038147,291018.7000002861,290715.342,290729.90000009537,290747.703,291030.633,,18,of
screen,html.Screen,2_3_1_0_1_19,2022-05-03T10:09:29.407Z,,,,,,,,,,,,,,,,,12,,,,,,,,,,,,,,275.9670003814972,,response,,,,5,H,,,,,,Space,keypress(Space),,,,speech,,,,---- ------ ------ ------- ------ --- ------- -----------<br>-- ----- --- ---- -- --- ------ ---- - ---- -- ingenuity.<br>-- ------ ---- --- ---- --- --- --- ----- -- -------- ---<br>------ ------- -------- --- ---- -- ------- ------------ --<br>------ -- ---- -- --- ---- -- -------- -- --- ------ ------,291308,291306.60000038147,291015.211,291020.40000009537,291030.633,291313.891,,19,ingenuity.
screen,html.Screen,2_3_1_0_1_20,2022-05-03T10:09:29.817Z,,,,,,,,,,,,,,,,,12,,,,,,,,,,,,,,402.4090001907316,,response,,,,5,H,,,,,,Space,keypress(Space),,,,speech,,,,---- ------ ------ ------- ------ --- ------- -----------<br>-- ----- --- ---- -- --- ------ ---- - ---- -- ----------<br>He ------ ---- --- ---- --- --- --- ----- -- -------- ---<br>------ ------- -------- --- ---- -- ------- ------------ --<br>------ -- ---- -- --- ---- -- -------- -- --- ------ ------,291717.7000002861,291716.30000019073,291298.447,291308.30000019073,291313.891,291730.535,,20,He
screen,html.Screen,2_3_1_0_1_21,2022-05-03T10:09:30.052Z,,,,,,,,,,,,,,,,,12,,,,,,,,,,,,,,220.56500038149534,,response,,,,5,H,,,,,,Space,keypress(Space),,,,speech,,,,---- ------ ------ ------- ------ --- ------- -----------<br>-- ----- --- ---- -- --- ------ ---- - ---- -- ----------<br>-- walked ---- --- ---- --- --- --- ----- -- -------- ---<br>------ ------- -------- --- ---- -- ------- ------------ --<br>------ -- ---- -- --- ---- -- -------- -- --- ------ ------,291952.60000038147,291951.10000038147,291715.345,291718.10000038147,291730.535,291964.167,,21,walked
screen,html.Screen,2_3_1_0_1_22,2022-05-03T10:09:30.400Z,,,,,,,,,,,,,,,,,12,,,,,,,,,,,,,,335.33299999998417,,response,,,,5,H,,,,,,Space,keypress(Space),,,,speech,,,,---- ------ ------ ------- ------ --- ------- -----------<br>-- ----- --- ---- -- --- ------ ---- - ---- -- ----------<br>-- ------ into --- ---- --- --- --- ----- -- -------- ---<br>------ ------- -------- --- ---- -- ------- ------------ --<br>------ -- ---- -- --- ---- -- -------- -- --- ------ ------,292301,292299.5,291948.113,291952.90000009537,291964.167,292313.885,,22,into
screen,html.Screen,2_3_1_0_1_23,2022-05-03T10:09:30.706Z,,,,,,,,,,,,,,,,,12,,,,,,,,,,,,,,290.815000286093,,response,,,,5,H,,,,,,Space,keypress(Space),,,,speech,,,,---- ------ ------ ------- ------ --- ------- -----------<br>-- ----- --- ---- -- --- ------ ---- - ---- -- ----------<br>-- ------ ---- his ---- --- --- --- ----- -- -------- ---<br>------ ------- -------- --- ---- -- ------- ------------ --<br>------ -- ---- -- --- ---- -- -------- -- --- ------ ------,292606.2000002861,292604.7000002861,292298.347,292301.2000002861,292313.885,292614.103,,23,his
screen,html.Screen,2_3_1_0_1_24,2022-05-03T10:09:31.026Z,,,,,,,,,,,,,,,,,12,,,,,,,,,,,,,,310.69700019073207,,response,,,,5,H,,,,,,Space,keypress(Space),,,,speech,,,,---- ------ ------ ------- ------ --- ------- -----------<br>-- ----- --- ---- -- --- ------ ---- - ---- -- ----------<br>-- ------ ---- --- bank --- --- --- ----- -- -------- ---<br>------ ------- -------- --- ---- -- ------- ------------ --<br>------ -- ---- -- --- ---- -- -------- -- --- ------ ------,292926.30000019073,292924.80000019073,292598.085,292606.5,292614.103,292930.367,,24,bank
screen,html.Screen,2_3_1_0_1_25,2022-05-03T10:09:31.301Z,,,,,,,,,,,,,,,,,12,,,,,,,,,,,,,,269.4330001907074,,response,,,,5,H,,,,,,Space,keypress(Space),,,,speech,,,,---- ------ ------ ------- ------ --- ------- -----------<br>-- ----- --- ---- -- --- ------ ---- - ---- -- ----------<br>-- ------ ---- --- ---- one --- --- ----- -- -------- ---<br>------ ------- -------- --- ---- -- ------- ------------ --<br>------ -- ---- -- --- ---- -- -------- -- --- ------ ------,293201.30000019073,293199.80000019073,292915.074,292926.60000038147,292930.367,293213.696,,25,one
screen,html.Screen,2_3_1_0_1_26,2022-05-03T10:09:31.518Z,,,,,,,,,,,,,,,,,12,,,,,,,,,,,,,,203.30400000000373,,response,,,,5,H,,,,,,Space,keypress(Space),,,,speech,,,,---- ------ ------ ------- ------ --- ------- -----------<br>-- ----- --- ---- -- --- ------ ---- - ---- -- ----------<br>-- ------ ---- --- ---- --- day --- ----- -- -------- ---<br>------ ------- -------- --- ---- -- ------- ------------ --<br>------ -- ---- -- --- ---- -- -------- -- --- ------ ------,293418.5,293417,293197.911,293201.60000038147,293213.696,293430.431,,26,day
screen,html.Screen,2_3_1_0_1_27,2022-05-03T10:09:31.774Z,,,,,,,,,,,,,,,,,12,,,,,,,,,,,,,,243.0690000000177,,response,,,,5,H,,,,,,Space,keypress(Space),,,,speech,,,,---- ------ ------ ------- ------ --- ------- -----------<br>-- ----- --- ---- -- --- ------ ---- - ---- -- ----------<br>-- ------ ---- --- ---- --- --- and ----- -- -------- ---<br>------ ------- -------- --- ---- -- ------- ------------ --<br>------ -- ---- -- --- ---- -- -------- -- --- ------ ------,293675,293673.5,293414.645,293418.90000009537,293430.431,293680.254,,27,and
screen,html.Screen,2_3_1_0_1_28,2022-05-03T10:09:32.055Z,,,,,,,,,,,,,,,,,12,,,,,,,,,,,,,,274.24599999998463,,response,,,,5,H,,,,,,Space,keypress(Space),,,,speech,,,,---- ------ ------ ------- ------ --- ------- -----------<br>-- ----- --- ---- -- --- ------ ---- - ---- -- ----------<br>-- ------ ---- --- ---- --- --- --- asked -- -------- ---<br>------ ------- -------- --- ---- -- ------- ------------ --<br>------ -- ---- -- --- ---- -- -------- -- --- ------ ------,293956,293954.5,293664.286,293675.30000019073,293680.254,293963.488,,28,asked
screen,html.Screen,2_3_1_0_1_29,2022-05-03T10:09:32.369Z,,,,,,,,,,,,,,,,,12,,,,,,,,,,,,,,305.0119999999879,,response,,,,5,H,,,,,,Space,keypress(Space),,,,speech,,,,---- ------ ------ ------- ------ --- ------- -----------<br>-- ----- --- ---- -- --- ------ ---- - ---- -- ----------<br>-- ------ ---- --- ---- --- --- --- ----- to -------- ---<br>------ ------- -------- --- ---- -- ------- ------------ --<br>------ -- ---- -- --- ---- -- -------- -- --- ------ ------,294270,294268.5,293947.678,293956.30000019073,293963.488,294280.341,,29,to
screen,html.Screen,2_3_1_0_1_30,2022-05-03T10:09:32.659Z,,,,,,,,,,,,,,,,,12,,,,,,,,,,,,,,277.95900019071996,,response,,,,5,H,,,,,,Space,keypress(Space),,,,speech,,,,---- ------ ------ ------- ------ --- ------- -----------<br>-- ----- --- ---- -- --- ------ ---- - ---- -- ----------<br>-- ------ ---- --- ---- --- --- --- ----- -- withdraw ---<br>------ ------- -------- --- ---- -- ------- ------------ --<br>------ -- ---- -- --- ---- -- -------- -- --- ------ ------,294559.80000019073,294558.30000019073,294264.602,294270.30000019073,294280.341,294563.433,,30,withdraw
screen,html.Screen,2_3_1_0_1_31,2022-05-03T10:09:33.016Z,,,,,,,,,,,,,,,,,12,,,,,,,,,,,,,,351.96700009534834,,response,,,,5,H,,,,,,Space,keypress(Space),,,,speech,,,,---- ------ ------ ------- ------ --- ------- -----------<br>-- ----- --- ---- -- --- ------ ---- - ---- -- ----------<br>-- ------ ---- --- ---- --- --- --- ----- -- -------- his<br>------ ------- -------- --- ---- -- ------- ------------ --<br>------ -- ---- -- --- ---- -- -------- -- --- ------ ------,294916.90000009537,294915.40000009537,294548.034,294560.10000038147,294563.433,294930.102,,31,his
screen,html.Screen,2_3_1_0_1_32,2022-05-03T10:09:33.337Z,,,,,,,,,,,,,,,,,12,,,,,,,,,,,,,,305.19800019072136,,response,,,,5,H,,,,,,Space,keypress(Space),,,,speech,,,,---- ------ ------ ------- ------ --- ------- -----------<br>-- ----- --- ---- -- --- ------ ---- - ---- -- ----------<br>-- ------ ---- --- ---- --- --- --- ----- -- -------- ---<br>entire ------- -------- --- ---- -- ------- ------------ --<br>------ -- ---- -- --- ---- -- -------- -- --- ------ ------,295237.30000019073,295235.30000019073,294914.721,294917.10000038147,294930.102,295246.714,,32,entire
screen,html.Screen,2_3_1_0_1_33,2022-05-03T10:09:33.611Z,,,,,,,,,,,,,,,,,12,,,,,,,,,,,,,,263.3860003814916,,response,,,,5,H,,,,,,Space,keypress(Space),,,,speech,,,,---- ------ ------ ------- ------ --- ------- -----------<br>-- ----- --- ---- -- --- ------ ---- - ---- -- ----------<br>-- ------ ---- --- ---- --- --- --- ----- -- -------- ---<br>------ account -------- --- ---- -- ------- ------------ --<br>------ -- ---- -- --- ---- -- -------- -- --- ------ ------,295511.5,295510.10000038147,295231.037,295237.7000002861,295246.714,295531.642,,33,account
screen,html.Screen,2_3_1_0_1_34,2022-05-03T10:09:33.905Z,,,,,,,,,,,,,,,,,12,,,,,,,,,,,,,,272.85800000000745,,response,,,,5,H,,,,,,Space,keypress(Space),,,,speech,,,,"---- ------ ------ ------- ------ --- ------- -----------<br>-- ----- --- ---- -- --- ------ ---- - ---- -- ----------<br>-- ------ ---- --- ---- --- --- --- ----- -- -------- ---<br>------ ------- balance, --- ---- -- ------- ------------ --<br>------ -- ---- -- --- ---- -- -------- -- --- ------ ------",295805.90000009537,295804.5,295497.983,295511.80000019073,295531.642,295813.651,,34,"balance,"
screen,html.Screen,2_3_1_0_1_35,2022-05-03T10:09:34.223Z,,,,,,,,,,,,,,,,,12,,,,,,,,,,,,,,308.44900038145715,,response,,,,5,H,,,,,,Space,keypress(Space),,,,speech,,,,---- ------ ------ ------- ------ --- ------- -----------<br>-- ----- --- ---- -- --- ------ ---- - ---- -- ----------<br>-- ------ ---- --- ---- --- --- --- ----- -- -------- ---<br>------ ------- -------- but ---- -- ------- ------------ --<br>------ -- ---- -- --- ---- -- -------- -- --- ------ ------,296124.10000038147,296122.10000038147,295797.556,295806.30000019073,295813.651,296131.266,,35,but
screen,html.Screen,2_3_1_0_1_36,2022-05-03T10:09:34.475Z,,,,,,,,,,,,,,,,,12,,,,,,,,,,,,,,241.23399999999674,,response,,,,5,H,,,,,,Space,keypress(Space),,,,speech,,,,---- ------ ------ ------- ------ --- ------- -----------<br>-- ----- --- ---- -- --- ------ ---- - ---- -- ----------<br>-- ------ ---- --- ---- --- --- --- ----- -- -------- ---<br>------ ------- -------- --- with -- ------- ------------ --<br>------ -- ---- -- --- ---- -- -------- -- --- ------ ------,296375.60000038147,296372.5,296114.361,296124.30000019073,296131.266,296379.858,,36,with
screen,html.Screen,2_3_1_0_1_37,2022-05-03T10:09:34.676Z,,,,,,,,,,,,,,,,,12,,,,,,,,,,,,,,194.84200028609484,,response,,,,5,H,,,,,,Space,keypress(Space),,,,speech,,,,---- ------ ------ ------- ------ --- ------- -----------<br>-- ----- --- ---- -- --- ------ ---- - ---- -- ----------<br>-- ------ ---- --- ---- --- --- --- ----- -- -------- ---<br>------ ------- -------- --- ---- an ------- ------------ --<br>------ -- ---- -- --- ---- -- -------- -- --- ------ ------,296576.2000002861,296574.7000002861,296364.025,296375.80000019073,296379.858,296579.851,,37,an
screen,html.Screen,2_3_1_0_1_38,2022-05-03T10:09:34.971Z,,,,,,,,,,,,,,,,,12,,,,,,,,,,,,,,289.94900019071065,,response,,,,5,H,,,,,,Space,keypress(Space),,,,speech,,,,---- ------ ------ ------- ------ --- ------- -----------<br>-- ----- --- ---- -- --- ------ ---- - ---- -- ----------<br>-- ------ ---- --- ---- --- --- --- ----- -- -------- ---<br>------ ------- -------- --- ---- -- unusual ------------ --<br>------ -- ---- -- --- ---- -- -------- -- --- ------ ------,296871.30000019073,296869.80000019073,296564.04,296576.5,296579.851,296879.908,,38,unusual
screen,html.Screen,2_3_1_0_1_39,2022-05-03T10:09:35.279Z,,,,,,,,,,,,,,,,,12,,,,,,,,,,,,,,297.89200019073905,,response,,,,5,H,,,,,,Space,keypress(Space),,,,speech,,,,---- ------ ------ ------- ------ --- ------- -----------<br>-- ----- --- ---- -- --- ------ ---- - ---- -- ----------<br>-- ------ ---- --- ---- --- --- --- ----- -- -------- ---<br>------ ------- -------- --- ---- -- ------- stipulation: --<br>------ -- ---- -- --- ---- -- -------- -- --- ------ ------,297179.30000019073,297177.80000019073,296864.171,296871.60000038147,296879.908,297196.817,,39,stipulation:
screen,html.Screen,2_3_1_0_1_40,2022-05-03T10:09:35.701Z,,,,,,,,,,,,,,,,,12,,,,,,,,,,,,,,403.2830003814888,,response,,,,5,H,,,,,,Space,keypress(Space),,,,speech,,,,---- ------ ------ ------- ------ --- ------- -----------<br>-- ----- --- ---- -- --- ------ ---- - ---- -- ----------<br>-- ------ ---- --- ---- --- --- --- ----- -- -------- ---<br>------ ------- -------- --- ---- -- ------- ------------ He<br>------ -- ---- -- --- ---- -- -------- -- --- ------ ------,297601.60000038147,297600.10000038147,297164.459,297179.7000002861,297196.817,297612.975,,40,He
screen,html.Screen,2_3_1_0_1_41,2022-05-03T10:09:36.034Z,,,,,,,,,,,,,,,,,12,,,,,,,,,,,,,,318.82500019075815,,response,,,,5,H,,,,,,Space,keypress(Space),,,,speech,,,,---- ------ ------ ------- ------ --- ------- -----------<br>-- ----- --- ---- -- --- ------ ---- - ---- -- ----------<br>-- ------ ---- --- ---- --- --- --- ----- -- -------- ---<br>------ ------- -------- --- ---- -- ------- ------------ --<br>wanted -- ---- -- --- ---- -- -------- -- --- ------ ------,297934.2000002861,297931.80000019073,297598.283,297601.90000009537,297612.975,297946.345,,41,wanted
screen,html.Screen,2_3_1_0_1_42,2022-05-03T10:09:36.310Z,,,,,,,,,,,,,,,,,12,,,,,,,,,,,,,,263.15500000002794,,response,,,,5,H,,,,,,Space,keypress(Space),,,,speech,,,,---- ------ ------ ------- ------ --- ------- -----------<br>-- ----- --- ---- -- --- ------ ---- - ---- -- ----------<br>-- ------ ---- --- ---- --- --- --- ----- -- -------- ---<br>------ ------- -------- --- ---- -- ------- ------------ --<br>------ as ---- -- --- ---- -- -------- -- --- ------ ------,298210.90000009537,298209.5,297930.819,297934.5,297946.345,298232.177,,42,as
screen,html.Screen,2_3_1_0_1_43,2022-05-03T10:09:36.556Z,,,,,,,,,,,,,,,,,12,,,,,,,,,,,,,,223.12300019070972,,response,,,,5,H,,,,,,Space,keypress(Space),,,,speech,,,,---- ------ ------ ------- ------ --- ------- -----------<br>-- ----- --- ---- -- --- ------ ---- - ---- -- ----------<br>-- ------ ---- --- ---- --- --- --- ----- -- -------- ---<br>------ ------- -------- --- ---- -- ------- ------------ --<br>------ -- much -- --- ---- -- -------- -- --- ------ ------,298456.7000002861,298455.30000019073,298197.63,298211.2000002861,298232.177,298463.937,,43,much
