sender,sender_type,sender_id,timestamp,meta,,Blues,Classical,Country,Dance,Electronic,Folk,Gospel,Hip-Hop,Jazz,Latin,Musical/Film,New-age,Pop,Prolific_id,Provo_ID,R&B,Rap,Reggae,Religious,Rock,Soul,Swing,Traditional,age,artist_name,correct,correctResponse,distraction,duration,education,ended_on,familiarity,gender,headphone_check_performance,item,list,music_frequency,offensiveness,pleasantness,position_correct,preference,response,response_action,snippet_file,song_name,song_rating,sound,stimulus_1,stimulus_2,stimulus_3,text,time_commit,time_end,time_render,time_run,time_show,time_switch,url,word,word_ID
Prolific ID,html.Form,0,2022-05-09T13:26:03.894Z,"{""labjs_version"":""20.2.2"",""labjs_build"":{""flavor"":""production"",""commit"":""a25486e0c714a0ae2ce03ff94b7bb6896854dcfa""},""location"":""https://run.pavlovia.org/mvasilev/prolific3_music_f/"",""userAgent"":""Mozilla/5.0 (Windows NT 10.0; Win64; x64) AppleWebKit/537.36 (KHTML, like Gecko) Chrome/101.0.4951.54 Safari/537.36"",""platform"":""Win32"",""language"":""en-US"",""locale"":""en-GB"",""timeZone"":""Europe/London"",""timezoneOffset"":-60,""screen_width"":1280,""screen_height"":720,""scroll_width"":1280,""scroll_height"":569,""window_innerWidth"":1280,""window_innerHeight"":569,""devicePixelRatio"":1.5}",,,,,,,,,,,,,,,5ecd49233f464e08bf0e4c50,,,,,,,,,,,,,,,5406.320999976158,,form submission,,,,,,,,,,,,,,,,,,,,,21767.19999998808,21766.899999976158,16344.931,16345.399999976158,16360.579,21776.678,{},,
Introduction,html.Screen,1_0,2022-05-09T13:26:07.137Z,,,,,,,,,,,,,,,,,,,,,,,,,,,,,,,3232.122000011921,,response,,,,,,,,,,,continue,click button,,,,,,,,,25009.600000023842,25008.80000001192,21762.574,21767.399999976158,21776.678,25009.704,,,
Volume calibration,html.Screen,1_1,2022-05-09T13:26:27.174Z,,,,,,,,,,,,,,,,,,,,,,,,,,,,,,,20034.995999988078,,response,,,,,,,,,,,continue,click button,,,,,,,,,45047.10000002384,45044.69999998808,24993.217,25009.69999998808,25009.704,45074.364,,,
Task instructions,html.Screen,1_2,2022-05-09T13:26:30.370Z,,,,,,,,,,,,,,,,,,,,,,,,,,,,,,,3167.3359999880777,,response,,,,,,,,,,,continue,click button,,,,,,,,,48242.89999997616,48241.69999998808,45057.769,45047.19999998808,45074.364,48257.687,,,
Sounds,html.Screen,1_3_0_0,2022-05-09T13:26:34.621Z,,,,,,,,,,,,,,,,,,,,,,,,,,,,,,,4249.277999999998,,timeout,,,,,,,,,2,,,,,,,,I,S,O,,52493.5,52490.628,48241.14,48243,48257.687,52506.965,,,
Judgement,html.Screen,1_3_0_1,2022-05-09T13:26:35.337Z,,,,,,,,,,,,,,,,,,,,,,,,,,,,true,2,,702.0350000000035,,response,,,,,,,,,2,,2,click #choice-2,,,,,I,S,O,,53209.80000001192,53209,52490.628,52493.60000002384,52506.965,53223.904,,,
Trial,flow.Sequence,1_3_0,2022-05-09T13:26:35.337Z,,,,,,,,,,,,,,,,,,,,,,,,,,,,,,,4951.313000000002,,completion,,,,,,,,,2,,,,,,,,I,S,O,,53210,53209,48241.14,48243,48257.687,53223.904,,,
Sounds,html.Screen,1_3_1_0,2022-05-09T13:26:39.585Z,,,,,,,,,,,,,,,,,,,,,,,,,,,,,,,4249.508999999998,,timeout,,,,,,,,,1,,,,,,,,S,O,I,,57457.5,57456.887,53208.093,53210,53223.904,57473.413,,,
Judgement,html.Screen,1_3_1_1,2022-05-09T13:26:40.049Z,,,,,,,,,,,,,,,,,,,,,,,,,,,,true,1,,447.6870000238414,,response,,,,,,,,,1,,1,click #choice-1,,,,,S,O,I,,57922.10000002384,57921.10000002384,57456.887,57457.80000001192,57473.413,57923.083,,,
Trial,flow.Sequence,1_3_1,2022-05-09T13:26:40.049Z,,,,,,,,,,,,,,,,,,,,,,,,,,,,,,,4697.19600002384,,completion,,,,,,,,,1,,,,,,,,S,O,I,,57922.19999998808,57921.10000002384,53208.093,53210,53223.904,57923.083,,,
Sounds,html.Screen,1_3_2_0,2022-05-09T13:26:44.286Z,,,,,,,,,,,,,,,,,,,,,,,,,,,,,,,4249.845999999998,,timeout,,,,,,,,,1,,,,,,,,S,I,O,,62158.39999997616,62156.359,57907.527,57922.30000001192,57923.083,62172.929,,,
Judgement,html.Screen,1_3_2_1,2022-05-09T13:26:44.673Z,,,,,,,,,,,,,,,,,,,,,,,,,,,,true,1,,371.8710000119245,,response,,,,,,,,,1,,1,click #choice-1,,,,,S,I,O,,62545.5,62544.80000001192,62156.359,62158.60000002384,62172.929,62556.158,,,
Trial,flow.Sequence,1_3_2,2022-05-09T13:26:44.673Z,,,,,,,,,,,,,,,,,,,,,,,,,,,,,,,4621.717000011922,,completion,,,,,,,,,1,,,,,,,,S,I,O,,62545.69999998808,62544.80000001192,57907.527,57922.30000001192,57923.083,62556.158,,,
Sounds,html.Screen,1_3_3_0,2022-05-09T13:26:48.919Z,,,,,,,,,,,,,,,,,,,,,,,,,,,,,,,4249.688999999991,,timeout,,,,,,,,,2,,,,,,,,O,S,I,,66791.19999998808,66789.249,62541.495,62545.80000001192,62556.158,66805.847,,,
Judgement,html.Screen,1_3_3_1,2022-05-09T13:26:49.425Z,,,,,,,,,,,,,,,,,,,,,,,,,,,,true,2,,490.95300001192663,,response,,,,,,,,,2,,2,click #choice-2,,,,,O,S,I,,67297.80000001192,67296.80000001192,66789.249,66791.30000001192,66805.847,67305.581,,,
Trial,flow.Sequence,1_3_3,2022-05-09T13:26:49.425Z,,,,,,,,,,,,,,,,,,,,,,,,,,,,,,,4740.642000011918,,completion,,,,,,,,,2,,,,,,,,O,S,I,,67297.89999997616,67296.80000001192,62541.495,62545.69999998808,62556.158,67305.581,,,
Sounds,html.Screen,1_3_4_0,2022-05-09T13:26:53.668Z,,,,,,,,,,,,,,,,,,,,,,,,,,,,,,,4249.764999999999,,timeout,,,,,,,,,3,,,,,,,,O,I,S,,71540.19999998808,71538.472,67288.548,67297.89999997616,67305.581,71555.346,,,
Judgement,html.Screen,1_3_4_1,2022-05-09T13:26:54.009Z,,,,,,,,,,,,,,,,,,,,,,,,,,,,true,3,,325.653999999995,,response,,,,,,,,,3,,3,click #choice-3,,,,,O,I,S,,71881.80000001192,71881,71538.472,71540.30000001192,71555.346,71888.363,,,
Trial,flow.Sequence,1_3_4,2022-05-09T13:26:54.009Z,,,,,,,,,,,,,,,,,,,,,,,,,,,,,,,4575.418999999994,,completion,,,,,,,,,3,,,,,,,,O,I,S,,71882,71881,67288.548,67297.89999997616,67305.581,71888.363,,,
Sounds,html.Screen,1_3_5_0,2022-05-09T13:26:58.252Z,,,,,,,,,,,,,,,,,,,,,,,,,,,,,,,4249.801999999996,,timeout,,,,,,,,,3,,,,,,,,I,O,S,,76124.30000001192,76121.291,71872.268,71882,71888.363,76138.165,,,
Judgement,html.Screen,1_3_5_1,2022-05-09T13:26:58.641Z,,,,,,,,,,,,,,,,,,,,,,,,,,,,true,3,,374.63500001192733,,response,,,,,,,,,3,,3,click #choice-3,,,,,I,O,S,,76513.80000001192,76512.80000001192,76121.291,76124.39999997616,76138.165,76521.232,,,
Trial,flow.Sequence,1_3_5,2022-05-09T13:26:58.641Z,,,,,,,,,,,,,,,,,,,,,,,,,,,,,,,4624.437000011923,,completion,,,,,,,,,3,,,,,,,,I,O,S,,76513.89999997616,76512.80000001192,71872.268,71882,71888.363,76521.232,,,
Task,flow.Loop,1_3,2022-05-09T13:26:58.645Z,,,,,,,,,,,,,,,,,,,,,,,,,,,,,,,28255.113000011923,,completion,,,1,,,,,,,,,,,,,,,,,,76517.39999997616,76512.80000001192,48241.14,48243,48257.687,76521.232,,,
Trap,html.Screen,1_4,2022-05-09T13:26:58.645Z,,,,,,,,,,,,,,,,,,,,,,,,,,,,,,,NaN,,skipped,,,,,,,,,,,,,,,,,,,,,76518.10000002384,76512.80000001192,,76518.10000002384,,76521.232,,,
Thanks,html.Screen,1_5,2022-05-09T13:27:01.333Z,,,,,,,,,,,,,,,,,,,,,,,,,,,,,,,2683.6679999761545,,response,,,,,,,,,,,continue,click button,,,,,,,,,79205.80000001192,79204.89999997616,76507.355,76518.19999998808,76521.232,81337.442,,,
Headphone screening,flow.Sequence,1,2022-05-09T13:27:01.333Z,,,,,,,,,,,,,,,,,,,,,,,,,,,,,,,57428.22199997616,,completion,,,,,,,,,,,,,,,,,,,,,79206,79204.89999997616,21762.574,21767.399999976158,21776.678,81337.442,,,
Instructions,html.Page,2_0,2022-05-09T13:27:13.986Z,,,,,,,,,,,,,,,,,,,,,,,,,,,,,,,10520.658000023846,,form submission,,,,,,,,,,,,,,,,,,,,,91858.39999997616,91858.10000002384,81304.088,81335.30000001192,81337.442,91886.371,,,
Holding screen,html.Screen,2_1_0_0,2022-05-09T13:27:23.997Z,,,,,,,,,,,,,,,,,,,,,,,,,,,,,,,9999.241999999998,,timeout,,,,,,,,,,,,,,,,,,,,,101869.89999997616,101869.092,91869.678,91858.39999997616,91886.371,101885.613,,,
screen,html.Screen,2_1_0_1_0,2022-05-09T13:27:24.691Z,,,,,,,,,,,,,,,,,53,,,,,,,,,,,,,,676.6870000119234,,response,,,,99,,,,,,,Space,keypress(Space),,,,,,,,When -- ----- -- ------ - ------- --- ----------<br>------------- ------ ------ ---- ---- ------- ----- -- ----<br>-------- ------- -- ---------- --- - --- ----- ----- ----<br>---- --- --- ----- --- ---- ---- ------- ----- ---- -------<br>--- --- -- ----- -- --- ---- -- --- ---- -- ------ ------<br>--- ----- -- ----,102564.10000002384,102562.30000001192,101869.092,101870,101885.613,102569.001,,0,When
screen,html.Screen,2_1_0_1_1,2022-05-09T13:27:25.126Z,,,,,,,,,,,,,,,,,53,,,,,,,,,,,,,,428.99899999999616,,response,,,,99,,,,,,,Space,keypress(Space),,,,,,,,---- it ----- -- ------ - ------- --- ----------<br>------------- ------ ------ ---- ---- ------- ----- -- ----<br>-------- ------- -- ---------- --- - --- ----- ----- ----<br>---- --- --- ----- --- ---- ---- ------- ----- ---- -------<br>--- --- -- ----- -- --- ---- -- --- ---- -- ------ ------<br>--- ----- -- ----,102998.60000002384,102998,102548.171,102564.19999998808,102569.001,103001.885,,1,it
screen,html.Screen,2_1_0_1_2,2022-05-09T13:27:25.484Z,,,,,,,,,,,,,,,,,53,,,,,,,,,,,,,,354.0149999761634,,response,,,,99,,,,,,,Space,keypress(Space),,,,,,,,---- -- comes -- ------ - ------- --- ----------<br>------------- ------ ------ ---- ---- ------- ----- -- ----<br>-------- ------- -- ---------- --- - --- ----- ----- ----<br>---- --- --- ----- --- ---- ---- ------- ----- ---- -------<br>--- --- -- ----- -- --- ---- -- --- ---- -- ------ ------<br>--- ----- -- ----,103356.39999997616,103355.89999997616,102983.084,102998.69999998808,103001.885,103368.833,,2,comes
screen,html.Screen,2_1_0_1_3,2022-05-09T13:27:25.836Z,,,,,,,,,,,,,,,,,53,,,,,,,,,,,,,,339.4670000119222,,response,,,,99,,,,,,,Space,keypress(Space),,,,,,,,---- -- ----- to ------ - ------- --- ----------<br>------------- ------ ------ ---- ---- ------- ----- -- ----<br>-------- ------- -- ---------- --- - --- ----- ----- ----<br>---- --- --- ----- --- ---- ---- ------- ----- ---- -------<br>--- --- -- ----- -- --- ---- -- --- ---- -- ------ ------<br>--- ----- -- ----,103708.89999997616,103708.30000001192,103350.026,103356.60000002384,103368.833,103718.875,,3,to
screen,html.Screen,2_1_0_1_4,2022-05-09T13:27:26.162Z,,,,,,,,,,,,,,,,,53,,,,,,,,,,,,,,315.52499997615814,,response,,,,99,,,,,,,Space,keypress(Space),,,,,,,,---- -- ----- -- having - ------- --- ----------<br>------------- ------ ------ ---- ---- ------- ----- -- ----<br>-------- ------- -- ---------- --- - --- ----- ----- ----<br>---- --- --- ----- --- ---- ---- ------- ----- ---- -------<br>--- --- -- ----- -- --- ---- -- --- ---- -- ------ ------<br>--- ----- -- ----,104034.80000001192,104034.39999997616,103700.009,103708.89999997616,103718.875,104052.188,,4,having
screen,html.Screen,2_1_0_1_5,2022-05-09T13:27:26.488Z,,,,,,,,,,,,,,,,,53,,,,,,,,,,,,,,307.5119999880844,,response,,,,99,,,,,,,Space,keypress(Space),,,,,,,,---- -- ----- -- ------ a ------- --- ----------<br>------------- ------ ------ ---- ---- ------- ----- -- ----<br>-------- ------- -- ---------- --- - --- ----- ----- ----<br>---- --- --- ----- --- ---- ---- ------- ----- ---- -------<br>--- --- -- ----- -- --- ---- -- --- ---- -- ------ ------<br>--- ----- -- ----,104360.19999998808,104359.69999998808,104033.473,104034.89999997616,104052.188,104368.814,,5,a
screen,html.Screen,2_1_0_1_6,2022-05-09T13:27:26.820Z,,,,,,,,,,,,,,,,,53,,,,,,,,,,,,,,323.08599997615966,,response,,,,99,,,,,,,Space,keypress(Space),,,,,,,,---- -- ----- -- ------ - lasting --- ----------<br>------------- ------ ------ ---- ---- ------- ----- -- ----<br>-------- ------- -- ---------- --- - --- ----- ----- ----<br>---- --- --- ----- --- ---- ---- ------- ----- ---- -------<br>--- --- -- ----- -- --- ---- -- --- ---- -- ------ ------<br>--- ----- -- ----,104692.39999997616,104691.89999997616,104350.03,104360.30000001192,104368.814,104701.979,,6,lasting
screen,html.Screen,2_1_0_1_7,2022-05-09T13:27:27.147Z,,,,,,,,,,,,,,,,,53,,,,,,,,,,,,,,316.9209999761515,,response,,,,99,,,,,,,Space,keypress(Space),,,,,,,,---- -- ----- -- ------ - ------- and ----------<br>------------- ------ ------ ---- ---- ------- ----- -- ----<br>-------- ------- -- ---------- --- - --- ----- ----- ----<br>---- --- --- ----- --- ---- ---- ------- ----- ---- -------<br>--- --- -- ----- -- --- ---- -- --- ---- -- ------ ------<br>--- ----- -- ----,105019.5,105018.89999997616,104683.501,104692.5,104701.979,105035.325,,7,and
screen,html.Screen,2_1_0_1_8,2022-05-09T13:27:27.474Z,,,,,,,,,,,,,,,,,53,,,,,,,,,,,,,,310.57499997616105,,response,,,,99,,,,,,,Space,keypress(Space),,,,,,,,---- -- ----- -- ------ - ------- --- fulfilling<br>------------- ------ ------ ---- ---- ------- ----- -- ----<br>-------- ------- -- ---------- --- - --- ----- ----- ----<br>---- --- --- ----- --- ---- ---- ------- ----- ---- -------<br>--- --- -- ----- -- --- ---- -- --- ---- -- ------ ------<br>--- ----- -- ----,105346.5,105345.89999997616,105016.779,105019.5,105035.325,105351.702,,8,fulfilling
screen,html.Screen,2_1_0_1_9,2022-05-09T13:27:27.716Z,,,,,,,,,,,,,,,,,53,,,,,,,,,,,,,,235.9979999880743,,response,,,,99,,,,,,,Space,keypress(Space),,,,,,,,"---- -- ----- -- ------ - ------- --- ----------<br>relationship, ------ ------ ---- ---- ------- ----- -- ----<br>-------- ------- -- ---------- --- - --- ----- ----- ----<br>---- --- --- ----- --- ---- ---- ------- ----- ---- -------<br>--- --- -- ----- -- --- ---- -- --- ---- -- ------ ------<br>--- ----- -- ----",105588.19999998808,105587.69999998808,105333.237,105346.60000002384,105351.702,105601.684,,9,"relationship,"
screen,html.Screen,2_1_0_1_10,2022-05-09T13:27:28.011Z,,,,,,,,,,,,,,,,,53,,,,,,,,,,,,,,281.1160000119271,,response,,,,99,,,,,,,Space,keypress(Space),,,,,,,,---- -- ----- -- ------ - ------- --- ----------<br>------------- common ------ ---- ---- ------- ----- -- ----<br>-------- ------- -- ---------- --- - --- ----- ----- ----<br>---- --- --- ----- --- ---- ---- ------- ----- ---- -------<br>--- --- -- ----- -- --- ---- -- --- ---- -- ------ ------<br>--- ----- -- ----,105883.39999997616,105882.80000001192,105583.736,105588.30000001192,105601.684,105884.993,,10,common
screen,html.Screen,2_1_0_1_11,2022-05-09T13:27:28.459Z,,,,,,,,,,,,,,,,,53,,,,,,,,,,,,,,446.3070000119187,,response,,,,99,,,,,,,Space,keypress(Space),,,,,,,,---- -- ----- -- ------ - ------- --- ----------<br>------------- ------ wisdom ---- ---- ------- ----- -- ----<br>-------- ------- -- ---------- --- - --- ----- ----- ----<br>---- --- --- ----- --- ---- ---- ------- ----- ---- -------<br>--- --- -- ----- -- --- ---- -- --- ---- -- ------ ------<br>--- ----- -- ----,106331.80000001192,106331.30000001192,105883.673,105883.5,105884.993,106335.122,,11,wisdom
screen,html.Screen,2_1_0_1_12,2022-05-09T13:27:28.761Z,,,,,,,,,,,,,,,,,53,,,,,,,,,,,,,,298.07799998807604,,response,,,,99,,,,,,,Space,keypress(Space),,,,,,,,---- -- ----- -- ------ - ------- --- ----------<br>------------- ------ ------ says ---- ------- ----- -- ----<br>-------- ------- -- ---------- --- - --- ----- ----- ----<br>---- --- --- ----- --- ---- ---- ------- ----- ---- -------<br>--- --- -- ----- -- --- ---- -- --- ---- -- ------ ------<br>--- ----- -- ----,106633.69999998808,106633.19999998808,106332.079,106331.80000001192,106335.122,106652.124,,12,says
screen,html.Screen,2_1_0_1_13,2022-05-09T13:27:29.066Z,,,,,,,,,,,,,,,,,53,,,,,,,,,,,,,,285.9760000238457,,response,,,,99,,,,,,,Space,keypress(Space),,,,,,,,---- -- ----- -- ------ - ------- --- ----------<br>------------- ------ ------ ---- that ------- ----- -- ----<br>-------- ------- -- ---------- --- - --- ----- ----- ----<br>---- --- --- ----- --- ---- ---- ------- ----- ---- -------<br>--- --- -- ----- -- --- ---- -- --- ---- -- ------ ------<br>--- ----- -- ----,106938.60000002384,106938.10000002384,106633.493,106633.80000001192,106652.124,106951.913,,13,that
screen,html.Screen,2_1_0_1_14,2022-05-09T13:27:29.371Z,,,,,,,,,,,,,,,,,53,,,,,,,,,,,,,,291.08699999999953,,response,,,,99,,,,,,,Space,keypress(Space),,,,,,,,---- -- ----- -- ------ - ------- --- ----------<br>------------- ------ ------ ---- ---- feeling ----- -- ----<br>-------- ------- -- ---------- --- - --- ----- ----- ----<br>---- --- --- ----- --- ---- ---- ------- ----- ---- -------<br>--- --- -- ----- -- --- ---- -- --- ---- -- ------ ------<br>--- ----- -- ----,107243.60000002384,107243,106933.573,106938.60000002384,106951.913,107251.734,,14,feeling
screen,html.Screen,2_1_0_1_15,2022-05-09T13:27:29.663Z,,,,,,,,,,,,,,,,,53,,,,,,,,,,,,,,283.5660000119242,,response,,,,99,,,,,,,Space,keypress(Space),,,,,,,,---- -- ----- -- ------ - ------- --- ----------<br>------------- ------ ------ ---- ---- ------- close -- ----<br>-------- ------- -- ---------- --- - --- ----- ----- ----<br>---- --- --- ----- --- ---- ---- ------- ----- ---- -------<br>--- --- -- ----- -- --- ---- -- --- ---- -- ------ ------<br>--- ----- -- ----,107535.80000001192,107535.30000001192,107233.466,107243.80000001192,107251.734,107551.54,,15,close
screen,html.Screen,2_1_0_1_16,2022-05-09T13:27:29.990Z,,,,,,,,,,,,,,,,,53,,,,,,,,,,,,,,310.26000001192733,,response,,,,99,,,,,,,Space,keypress(Space),,,,,,,,---- -- ----- -- ------ - ------- --- ----------<br>------------- ------ ------ ---- ---- ------- ----- to ----<br>-------- ------- -- ---------- --- - --- ----- ----- ----<br>---- --- --- ----- --- ---- ---- ------- ----- ---- -------<br>--- --- -- ----- -- --- ---- -- --- ---- -- ------ ------<br>--- ----- -- ----,107862.30000001192,107861.80000001192,107533.143,107535.89999997616,107551.54,107868.308,,16,to
screen,html.Screen,2_1_0_1_17,2022-05-09T13:27:30.312Z,,,,,,,,,,,,,,,,,53,,,,,,,,,,,,,,316.2920000238373,,response,,,,99,,,,,,,Space,keypress(Space),,,,,,,,---- -- ----- -- ------ - ------- --- ----------<br>------------- ------ ------ ---- ---- ------- ----- -- your<br>-------- ------- -- ---------- --- - --- ----- ----- ----<br>---- --- --- ----- --- ---- ---- ------- ----- ---- -------<br>--- --- -- ----- -- --- ---- -- --- ---- -- ------ ------<br>--- ----- -- ----,108185.10000002384,108184.60000002384,107849.626,107862.30000001192,107868.308,108201.79,,17,your
screen,html.Screen,2_1_0_1_18,2022-05-09T13:27:30.528Z,,,,,,,,,,,,,,,,,53,,,,,,,,,,,,,,198.31000002384826,,response,,,,99,,,,,,,Space,keypress(Space),,,,,,,,---- -- ----- -- ------ - ------- --- ----------<br>------------- ------ ------ ---- ---- ------- ----- -- ----<br>romantic ------- -- ---------- --- - --- ----- ----- ----<br>---- --- --- ----- --- ---- ---- ------- ----- ---- -------<br>--- --- -- ----- -- --- ---- -- --- ---- -- ------ ------<br>--- ----- -- ----,108400.60000002384,108400.10000002384,108183.164,108185.19999998808,108201.79,108430.165,,18,romantic
screen,html.Screen,2_1_0_1_19,2022-05-09T13:27:30.709Z,,,,,,,,,,,,,,,,,53,,,,,,,,,,,,,,150.53499998808547,,response,,,,99,,,,,,,Space,keypress(Space),,,,,,,,---- -- ----- -- ------ - ------- --- ----------<br>------------- ------ ------ ---- ---- ------- ----- -- ----<br>-------- partner -- ---------- --- - --- ----- ----- ----<br>---- --- --- ----- --- ---- ---- ------- ----- ---- -------<br>--- --- -- ----- -- --- ---- -- --- ---- -- ------ ------<br>--- ----- -- ----,108581.19999998808,108580.69999998808,108400.257,108400.69999998808,108430.165,108584.754,,19,partner
screen,html.Screen,2_1_0_1_20,2022-05-09T13:27:31.075Z,,,,,,,,,,,,,,,,,53,,,,,,,,,,,,,,361.94599998807826,,response,,,,99,,,,,,,Space,keypress(Space),,,,,,,,---- -- ----- -- ------ - ------- --- ----------<br>------------- ------ ------ ---- ---- ------- ----- -- ----<br>-------- ------- is ---------- --- - --- ----- ----- ----<br>---- --- --- ----- --- ---- ---- ------- ----- ---- -------<br>--- --- -- ----- -- --- ---- -- --- ---- -- ------ ------<br>--- ----- -- ----,108947.39999997616,108946.69999998808,108567.551,108581.19999998808,108584.754,108951.388,,20,is
screen,html.Screen,2_1_0_1_21,2022-05-09T13:27:31.295Z,,,,,,,,,,,,,,,,,53,,,,,,,,,,,,,,216.1119999999937,,response,,,,99,,,,,,,Space,keypress(Space),,,,,,,,---- -- ----- -- ------ - ------- --- ----------<br>------------- ------ ------ ---- ---- ------- ----- -- ----<br>-------- ------- -- paramount. --- - --- ----- ----- ----<br>---- --- --- ----- --- ---- ---- ------- ----- ---- -------<br>--- --- -- ----- -- --- ---- -- --- ---- -- ------ ------<br>--- ----- -- ----,109168,109167.5,108932.872,108947.39999997616,108951.388,109184.663,,21,paramount.
screen,html.Screen,2_1_0_1_22,2022-05-09T13:27:31.684Z,,,,,,,,,,,,,,,,,53,,,,,,,,,,,,,,371.5369999880786,,response,,,,99,,,,,,,Space,keypress(Space),,,,,,,,---- -- ----- -- ------ - ------- --- ----------<br>------------- ------ ------ ---- ---- ------- ----- -- ----<br>-------- ------- -- ---------- But - --- ----- ----- ----<br>---- --- --- ----- --- ---- ---- ------- ----- ---- -------<br>--- --- -- ----- -- --- ---- -- --- ---- -- ------ ------<br>--- ----- -- ----,109556.60000002384,109556.19999998808,109166.756,109168.10000002384,109184.663,109568.3,,22,But
screen,html.Screen,2_1_0_1_23,2022-05-09T13:27:32.060Z,,,,,,,,,,,,,,,,,53,,,,,,,,,,,,,,363.89999998807616,,response,,,,99,,,,,,,Space,keypress(Space),,,,,,,,---- -- ----- -- ------ - ------- --- ----------<br>------------- ------ ------ ---- ---- ------- ----- -- ----<br>-------- ------- -- ---------- --- a --- ----- ----- ----<br>---- --- --- ----- --- ---- ---- ------- ----- ---- -------<br>--- --- -- ----- -- --- ---- -- --- ---- -- ------ ------<br>--- ----- -- ----,109932.69999998808,109932.19999998808,109549.029,109556.60000002384,109568.3,109934.572,,23,a
screen,html.Screen,2_1_0_1_24,2022-05-09T13:27:32.291Z,,,,,,,,,,,,,,,,,53,,,,,,,,,,,,,,228.82799997615803,,response,,,,99,,,,,,,Space,keypress(Space),,,,,,,,---- -- ----- -- ------ - ------- --- ----------<br>------------- ------ ------ ---- ---- ------- ----- -- ----<br>-------- ------- -- ---------- --- - new ----- ----- ----<br>---- --- --- ----- --- ---- ---- ------- ----- ---- -------<br>--- --- -- ----- -- --- ---- -- --- ---- -- ------ ------<br>--- ----- -- ----,110164,110163.39999997616,109932.722,109932.80000001192,109934.572,110167.886,,24,new
screen,html.Screen,2_1_0_1_25,2022-05-09T13:27:32.457Z,,,,,,,,,,,,,,,,,53,,,,,,,,,,,,,,161.21400002384325,,response,,,,99,,,,,,,Space,keypress(Space),,,,,,,,---- -- ----- -- ------ - ------- --- ----------<br>------------- ------ ------ ---- ---- ------- ----- -- ----<br>-------- ------- -- ---------- --- - --- study ----- ----<br>---- --- --- ----- --- ---- ---- ------- ----- ---- -------<br>--- --- -- ----- -- --- ---- -- --- ---- -- ------ ------<br>--- ----- -- ----,110329.60000002384,110329.10000002384,110150.378,110164,110167.886,110334.876,,25,study
screen,html.Screen,2_1_0_1_26,2022-05-09T13:27:32.759Z,,,,,,,,,,,,,,,,,53,,,,,,,,,,,,,,296.224000023838,,response,,,,99,,,,,,,Space,keypress(Space),,,,,,,,---- -- ----- -- ------ - ------- --- ----------<br>------------- ------ ------ ---- ---- ------- ----- -- ----<br>-------- ------- -- ---------- --- - --- ----- finds ----<br>---- --- --- ----- --- ---- ---- ------- ----- ---- -------<br>--- --- -- ----- -- --- ---- -- --- ---- -- ------ ------<br>--- ----- -- ----,110631.60000002384,110631.10000002384,110317.476,110329.60000002384,110334.876,110634.495,,26,finds
screen,html.Screen,2_1_0_1_27,2022-05-09T13:27:33.035Z,,,,,,,,,,,,,,,,,53,,,,,,,,,,,,,,272.50500000000466,,response,,,,99,,,,,,,Space,keypress(Space),,,,,,,,---- -- ----- -- ------ - ------- --- ----------<br>------------- ------ ------ ---- ---- ------- ----- -- ----<br>-------- ------- -- ---------- --- - --- ----- ----- that<br>---- --- --- ----- --- ---- ---- ------- ----- ---- -------<br>--- --- -- ----- -- --- ---- -- --- ---- -- ------ ------<br>--- ----- -- ----,110907.60000002384,110907,110616.485,110631.69999998808,110634.495,110918.173,,27,that
screen,html.Screen,2_1_0_1_28,2022-05-09T13:27:33.216Z,,,,,,,,,,,,,,,,,53,,,,,,,,,,,,,,170.22699997616292,,response,,,,99,,,,,,,Space,keypress(Space),,,,,,,,---- -- ----- -- ------ - ------- --- ----------<br>------------- ------ ------ ---- ---- ------- ----- -- ----<br>-------- ------- -- ---------- --- - --- ----- ----- ----<br>it's --- --- ----- --- ---- ---- ------- ----- ---- -------<br>--- --- -- ----- -- --- ---- -- --- ---- -- ------ ------<br>--- ----- -- ----,111088.89999997616,111088.39999997616,110899.929,110907.69999998808,110918.173,111101.377,,28,it's
screen,html.Screen,2_1_0_1_29,2022-05-09T13:27:33.491Z,,,,,,,,,,,,,,,,,53,,,,,,,,,,,,,,261.9230000119278,,response,,,,99,,,,,,,Space,keypress(Space),,,,,,,,---- -- ----- -- ------ - ------- --- ----------<br>------------- ------ ------ ---- ---- ------- ----- -- ----<br>-------- ------- -- ---------- --- - --- ----- ----- ----<br>---- not --- ----- --- ---- ---- ------- ----- ---- -------<br>--- --- -- ----- -- --- ---- -- --- ---- -- ------ ------<br>--- ----- -- ----,111363.80000001192,111363.30000001192,111084.002,111089,111101.377,111367.868,,29,not
screen,html.Screen,2_1_0_1_30,2022-05-09T13:27:33.704Z,,,,,,,,,,,,,,,,,53,,,,,,,,,,,,,,208.03199997615593,,response,,,,99,,,,,,,Space,keypress(Space),,,,,,,,---- -- ----- -- ------ - ------- --- ----------<br>------------- ------ ------ ---- ---- ------- ----- -- ----<br>-------- ------- -- ---------- --- - --- ----- ----- ----<br>---- --- how ----- --- ---- ---- ------- ----- ---- -------<br>--- --- -- ----- -- --- ---- -- --- ---- -- ------ ------<br>--- ----- -- ----,111576.30000001192,111575.89999997616,111349.963,111363.89999997616,111367.868,111584.51,,30,how
screen,html.Screen,2_1_0_1_31,2022-05-09T13:27:33.948Z,,,,,,,,,,,,,,,,,53,,,,,,,,,,,,,,236.0900000238471,,response,,,,99,,,,,,,Space,keypress(Space),,,,,,,,---- -- ----- -- ------ - ------- --- ----------<br>------------- ------ ------ ---- ---- ------- ----- -- ----<br>-------- ------- -- ---------- --- - --- ----- ----- ----<br>---- --- --- close --- ---- ---- ------- ----- ---- -------<br>--- --- -- ----- -- --- ---- -- --- ---- -- ------ ------<br>--- ----- -- ----,111821.10000002384,111820.60000002384,111566.604,111576.39999997616,111584.51,111834.714,,31,close
screen,html.Screen,2_1_0_1_32,2022-05-09T13:27:34.160Z,,,,,,,,,,,,,,,,,53,,,,,,,,,,,,,,197.48599998807185,,response,,,,99,,,,,,,Space,keypress(Space),,,,,,,,---- -- ----- -- ------ - ------- --- ----------<br>------------- ------ ------ ---- ---- ------- ----- -- ----<br>-------- ------- -- ---------- --- - --- ----- ----- ----<br>---- --- --- ----- you ---- ---- ------- ----- ---- -------<br>--- --- -- ----- -- --- ---- -- --- ---- -- ------ ------<br>--- ----- -- ----,112032.69999998808,112032.19999998808,111816.706,111821.80000001192,111834.714,112034.402,,32,you
screen,html.Screen,2_1_0_1_33,2022-05-09T13:27:34.426Z,,,,,,,,,,,,,,,,,53,,,,,,,,,,,,,,263.39800001191907,,response,,,,99,,,,,,,Space,keypress(Space),,,,,,,,---- -- ----- -- ------ - ------- --- ----------<br>------------- ------ ------ ---- ---- ------- ----- -- ----<br>-------- ------- -- ---------- --- - --- ----- ----- ----<br>---- --- --- ----- --- feel ---- ------- ----- ---- -------<br>--- --- -- ----- -- --- ---- -- --- ---- -- ------ ------<br>--- ----- -- ----,112298.39999997616,112297.80000001192,112017.086,112032.80000001192,112034.402,112301.03,,33,feel
screen,html.Screen,2_1_0_1_34,2022-05-09T13:27:34.668Z,,,,,,,,,,,,,,,,,53,,,,,,,,,,,,,,239.2700000119221,,response,,,,99,,,,,,,Space,keypress(Space),,,,,,,,---- -- ----- -- ------ - ------- --- ----------<br>------------- ------ ------ ---- ---- ------- ----- -- ----<br>-------- ------- -- ---------- --- - --- ----- ----- ----<br>---- --- --- ----- --- ---- that ------- ----- ---- -------<br>--- --- -- ----- -- --- ---- -- --- ---- -- ------ ------<br>--- ----- -- ----,112540.89999997616,112540.30000001192,112283.212,112298.39999997616,112301.03,112551.334,,34,that
screen,html.Screen,2_1_0_1_35,2022-05-09T13:27:34.840Z,,,,,,,,,,,,,,,,,53,,,,,,,,,,,,,,161.16599999999744,,response,,,,99,,,,,,,Space,keypress(Space),,,,,,,,---- -- ----- -- ------ - ------- --- ----------<br>------------- ------ ------ ---- ---- ------- ----- -- ----<br>-------- ------- -- ---------- --- - --- ----- ----- ----<br>---- --- --- ----- --- ---- ---- matters ----- ---- -------<br>--- --- -- ----- -- --- ---- -- --- ---- -- ------ ------<br>--- ----- -- ----,112712.89999997616,112712.5,112533.007,112541,112551.334,112717.906,,35,matters
screen,html.Screen,2_1_0_1_36,2022-05-09T13:27:35.044Z,,,,,,,,,,,,,,,,,53,,,,,,,,,,,,,,198.19400002383918,,response,,,,99,,,,,,,Space,keypress(Space),,,,,,,,"---- -- ----- -- ------ - ------- --- ----------<br>------------- ------ ------ ---- ---- ------- ----- -- ----<br>-------- ------- -- ---------- --- - --- ----- ----- ----<br>---- --- --- ----- --- ---- ---- ------- most, ---- -------<br>--- --- -- ----- -- --- ---- -- --- ---- -- ------ ------<br>--- ----- -- ----",112916.69999998808,112916.10000002384,112700.369,112713,112717.906,112937.655,,36,"most,"
screen,html.Screen,2_1_0_1_37,2022-05-09T13:27:35.225Z,,,,,,,,,,,,,,,,,53,,,,,,,,,,,,,,159.44500002384302,,response,,,,99,,,,,,,Space,keypress(Space),,,,,,,,---- -- ----- -- ------ - ------- --- ----------<br>------------- ------ ------ ---- ---- ------- ----- -- ----<br>-------- ------- -- ---------- --- - --- ----- ----- ----<br>---- --- --- ----- --- ---- ---- ------- ----- it's -------<br>--- --- -- ----- -- --- ---- -- --- ---- -- ------ ------<br>--- ----- -- ----,113097.60000002384,113097.10000002384,112916.814,112916.80000001192,112937.655,113101.3,,37,it's
screen,html.Screen,2_1_0_1_38,2022-05-09T13:27:35.386Z,,,,,,,,,,,,,,,,,53,,,,,,,,,,,,,,156.89999998807616,,response,,,,99,,,,,,,Space,keypress(Space),,,,,,,,---- -- ----- -- ------ - ------- --- ----------<br>------------- ------ ------ ---- ---- ------- ----- -- ----<br>-------- ------- -- ---------- --- - --- ----- ----- ----<br>---- --- --- ----- --- ---- ---- ------- ----- ---- whether<br>--- --- -- ----- -- --- ---- -- --- ---- -- ------ ------<br>--- ----- -- ----,113258.69999998808,113258.19999998808,113083.879,113097.69999998808,113101.3,113267.958,,38,whether
screen,html.Screen,2_1_0_1_39,2022-05-09T13:27:35.561Z,,,,,,,,,,,,,,,,,53,,,,,,,,,,,,,,165.44199997615942,,response,,,,99,,,,,,,Space,keypress(Space),,,,,,,,---- -- ----- -- ------ - ------- --- ----------<br>------------- ------ ------ ---- ---- ------- ----- -- ----<br>-------- ------- -- ---------- --- - --- ----- ----- ----<br>---- --- --- ----- --- ---- ---- ------- ----- ---- -------<br>you --- -- ----- -- --- ---- -- --- ---- -- ------ ------<br>--- ----- -- ----,113433.80000001192,113433.39999997616,113250.159,113258.69999998808,113267.958,113451.217,,39,you
screen,html.Screen,2_1_0_1_40,2022-05-09T13:27:35.833Z,,,,,,,,,,,,,,,,,53,,,,,,,,,,,,,,254.18299997615395,,response,,,,99,,,,,,,Space,keypress(Space),,,,,,,,---- -- ----- -- ------ - ------- --- ----------<br>------------- ------ ------ ---- ---- ------- ----- -- ----<br>-------- ------- -- ---------- --- - --- ----- ----- ----<br>---- --- --- ----- --- ---- ---- ------- ----- ---- -------<br>--- are -- ----- -- --- ---- -- --- ---- -- ------ ------<br>--- ----- -- ----,113706,113705.39999997616,113433.805,113433.89999997616,113451.217,113717.537,,40,are
screen,html.Screen,2_1_0_1_41,2022-05-09T13:27:36.069Z,,,,,,,,,,,,,,,,,53,,,,,,,,,,,,,,223.86299997616152,,response,,,,99,,,,,,,Space,keypress(Space),,,,,,,,---- -- ----- -- ------ - ------- --- ----------<br>------------- ------ ------ ---- ---- ------- ----- -- ----<br>-------- ------- -- ---------- --- - --- ----- ----- ----<br>---- --- --- ----- --- ---- ---- ------- ----- ---- -------<br>--- --- as ----- -- --- ---- -- --- ---- -- ------ ------<br>--- ----- -- ----,113941.89999997616,113941.39999997616,113699.695,113706,113717.537,113950.867,,41,as
screen,html.Screen,2_1_0_1_42,2022-05-09T13:27:36.361Z,,,,,,,,,,,,,,,,,53,,,,,,,,,,,,,,282.63300000000163,,response,,,,99,,,,,,,Space,keypress(Space),,,,,,,,---- -- ----- -- ------ - ------- --- ----------<br>------------- ------ ------ ---- ---- ------- ----- -- ----<br>-------- ------- -- ---------- --- - --- ----- ----- ----<br>---- --- --- ----- --- ---- ---- ------- ----- ---- -------<br>--- --- -- close -- --- ---- -- --- ---- -- ------ ------<br>--- ----- -- ----,114234.10000002384,114233.5,113933.022,113942,113950.867,114251.028,,42,close
screen,html.Screen,2_1_0_1_43,2022-05-09T13:27:36.568Z,,,,,,,,,,,,,,,,,53,,,,,,,,,,,,,,188.4719999999943,,response,,,,99,,,,,,,Space,keypress(Space),,,,,,,,---- -- ----- -- ------ - ------- --- ----------<br>------------- ------ ------ ---- ---- ------- ----- -- ----<br>-------- ------- -- ---------- --- - --- ----- ----- ----<br>---- --- --- ----- --- ---- ---- ------- ----- ---- -------<br>--- --- -- ----- as --- ---- -- --- ---- -- ------ ------<br>--- ----- -- ----,114440.19999998808,114439.5,114232.451,114234.10000002384,114251.028,114451.167,,43,as
screen,html.Screen,2_1_0_1_44,2022-05-09T13:27:36.799Z,,,,,,,,,,,,,,,,,53,,,,,,,,,,,,,,220.33299999999872,,response,,,,99,,,,,,,Space,keypress(Space),,,,,,,,---- -- ----- -- ------ - ------- --- ----------<br>------------- ------ ------ ---- ---- ------- ----- -- ----<br>-------- ------- -- ---------- --- - --- ----- ----- ----<br>---- --- --- ----- --- ---- ---- ------- ----- ---- -------<br>--- --- -- ----- -- you ---- -- --- ---- -- ------ ------<br>--- ----- -- ----,114672,114671.5,114433.138,114440.19999998808,114451.167,114684.165,,44,you
screen,html.Screen,2_1_0_1_45,2022-05-09T13:27:36.983Z,,,,,,,,,,,,,,,,,53,,,,,,,,,,,,,,171.3350000000064,,response,,,,99,,,,,,,Space,keypress(Space),,,,,,,,---- -- ----- -- ------ - ------- --- ----------<br>------------- ------ ------ ---- ---- ------- ----- -- ----<br>-------- ------- -- ---------- --- - --- ----- ----- ----<br>---- --- --- ----- --- ---- ---- ------- ----- ---- -------<br>--- --- -- ----- -- --- want -- --- ---- -- ------ ------<br>--- ----- -- ----,114856,114855.5,114666.251,114672.10000002384,114684.165,114867.752,,45,want
screen,html.Screen,2_1_0_1_46,2022-05-09T13:27:37.165Z,,,,,,,,,,,,,,,,,53,,,,,,,,,,,,,,169.24800000000687,,response,,,,99,,,,,,,Space,keypress(Space),,,,,,,,---- -- ----- -- ------ - ------- --- ----------<br>------------- ------ ------ ---- ---- ------- ----- -- ----<br>-------- ------- -- ---------- --- - --- ----- ----- ----<br>---- --- --- ----- --- ---- ---- ------- ----- ---- -------<br>--- --- -- ----- -- --- ---- to --- ---- -- ------ ------<br>--- ----- -- ----,115037.60000002384,115037,114850.156,114856.10000002384,114867.752,115051.089,,46,to
screen,html.Screen,2_1_0_1_47,2022-05-09T13:27:37.441Z,,,,,,,,,,,,,,,,,53,,,,,,,,,,,,,,261.9109999999928,,response,,,,99,,,,,,,Space,keypress(Space),,,,,,,,"---- -- ----- -- ------ - ------- --- ----------<br>------------- ------ ------ ---- ---- ------- ----- -- ----<br>-------- ------- -- ---------- --- - --- ----- ----- ----<br>---- --- --- ----- --- ---- ---- ------- ----- ---- -------<br>--- --- -- ----- -- --- ---- -- be, ---- -- ------ ------<br>--- ----- -- ----",115313.5,115313,115033.538,115037.69999998808,115051.089,115317.49,,47,"be,"
screen,html.Screen,2_1_0_1_48,2022-05-09T13:27:37.784Z,,,,,,,,,,,,,,,,,53,,,,,,,,,,,,,,338.4099999761529,,response,,,,99,,,,,,,Space,keypress(Space),,,,,,,,---- -- ----- -- ------ - ------- --- ----------<br>------------- ------ ------ ---- ---- ------- ----- -- ----<br>-------- ------- -- ---------- --- - --- ----- ----- ----<br>---- --- --- ----- --- ---- ---- ------- ----- ---- -------<br>--- --- -- ----- -- --- ---- -- --- even -- ------ ------<br>--- ----- -- ----,115656.39999997616,115655.89999997616,115299.686,115313.5,115317.49,115667.675,,48,even
screen,html.Screen,2_1_0_1_49,2022-05-09T13:27:38.080Z,,,,,,,,,,,,,,,,,53,,,,,,,,,,,,,,284.125000011918,,response,,,,99,,,,,,,Space,keypress(Space),,,,,,,,---- -- ----- -- ------ - ------- --- ----------<br>------------- ------ ------ ---- ---- ------- ----- -- ----<br>-------- ------- -- ---------- --- - --- ----- ----- ----<br>---- --- --- ----- --- ---- ---- ------- ----- ---- -------<br>--- --- -- ----- -- --- ---- -- --- ---- if ------ ------<br>--- ----- -- ----,115952.19999998808,115951.80000001192,115649.01,115656.39999997616,115667.675,115967.573,,49,if
screen,html.Screen,2_1_0_1_50,2022-05-09T13:27:38.271Z,,,,,,,,,,,,,,,,,53,,,,,,,,,,,,,,175.72700001191697,,response,,,,99,,,,,,,Space,keypress(Space),,,,,,,,---- -- ----- -- ------ - ------- --- ----------<br>------------- ------ ------ ---- ---- ------- ----- -- ----<br>-------- ------- -- ---------- --- - --- ----- ----- ----<br>---- --- --- ----- --- ---- ---- ------- ----- ---- -------<br>--- --- -- ----- -- --- ---- -- --- ---- -- that's ------<br>--- ----- -- ----,116143.80000001192,116143.30000001192,115948.931,115952.30000001192,115967.573,116150.74,,50,that's
screen,html.Screen,2_1_0_1_51,2022-05-09T13:27:38.516Z,,,,,,,,,,,,,,,,,53,,,,,,,,,,,,,,237.5600000119157,,response,,,,99,,,,,,,Space,keypress(Space),,,,,,,,---- -- ----- -- ------ - ------- --- ----------<br>------------- ------ ------ ---- ---- ------- ----- -- ----<br>-------- ------- -- ---------- --- - --- ----- ----- ----<br>---- --- --- ----- --- ---- ---- ------- ----- ---- -------<br>--- --- -- ----- -- --- ---- -- --- ---- -- ------ really<br>--- ----- -- ----,116388.89999997616,116388.30000001192,116133.123,116143.80000001192,116150.74,116400.886,,51,really
screen,html.Screen,2_1_0_1_52,2022-05-09T13:27:38.859Z,,,,,,,,,,,,,,,,,53,,,,,,,,,,,,,,330.1140000000014,,response,,,,99,,,,,,,Space,keypress(Space),,,,,,,,---- -- ----- -- ------ - ------- --- ----------<br>------------- ------ ------ ---- ---- ------- ----- -- ----<br>-------- ------- -- ---------- --- - --- ----- ----- ----<br>---- --- --- ----- --- ---- ---- ------- ----- ---- -------<br>--- --- -- ----- -- --- ---- -- --- ---- -- ------ ------<br>not ----- -- ----,116731.39999997616,116731,116383.089,116389,116400.886,116750.939,,52,not
screen,html.Screen,2_1_0_1_53,2022-05-09T13:27:39.155Z,,,,,,,,,,,,,,,,,53,,,,,,,,,,,,,,276.16100002384337,,response,,,,99,,,,,,,Space,keypress(Space),,,,,,,,---- -- ----- -- ------ - ------- --- ----------<br>------------- ------ ------ ---- ---- ------- ----- -- ----<br>-------- ------- -- ---------- --- - --- ----- ----- ----<br>---- --- --- ----- --- ---- ---- ------- ----- ---- -------<br>--- --- -- ----- -- --- ---- -- --- ---- -- ------ ------<br>--- close -- ----,117027.89999997616,117027.10000002384,116734.188,116731.39999997616,116750.939,117034.178,,53,close
screen,html.Screen,2_1_0_1_54,2022-05-09T13:27:39.460Z,,,,,,,,,,,,,,,,,53,,,,,,,,,,,,,,297.72199997615826,,response,,,,99,,,,,,,Space,keypress(Space),,,,,,,,---- -- ----- -- ------ - ------- --- ----------<br>------------- ------ ------ ---- ---- ------- ----- -- ----<br>-------- ------- -- ---------- --- - --- ----- ----- ----<br>---- --- --- ----- --- ---- ---- ------- ----- ---- -------<br>--- --- -- ----- -- --- ---- -- --- ---- -- ------ ------<br>--- ----- at ----,117332.39999997616,117331.89999997616,117015.982,117028,117034.178,117354.656,,54,at
screen,html.Screen,2_1_0_1_55,2022-05-09T13:27:39.934Z,,,,,,,,,,,,,,,,,53,,,,,,,,,,,,,,451.8439999999973,,response,,,,99,,,,,,,Space,keypress(Space),,,,,,,,---- -- ----- -- ------ - ------- --- ----------<br>------------- ------ ------ ---- ---- ------- ----- -- ----<br>-------- ------- -- ---------- --- - --- ----- ----- ----<br>---- --- --- ----- --- ---- ---- ------- ----- ---- -------<br>--- --- -- ----- -- --- ---- -- --- ---- -- ------ ------<br>--- ----- -- all.,117807,117806.5,117332.483,117332.5,117354.656,117817.129,,55,all.
Item 99,flow.Loop,2_1_0_1,2022-05-09T13:27:39.935Z,,,,,,,,,,,,,,,,,,,,,,,,,,,,,,,15920.887000000002,,completion,,,,,F,,,,,,,,,,,silence,,,,,117807.19999998808,117806.5,101869.092,101870,101885.613,117817.129,,,
Question 1,html.Screen,2_1_0_2,2022-05-09T13:27:43.037Z,,,,,,,,,,,,,,,,,,,,,,,,,,,,true,FALSE,,3091.7709999761573,,response,,,,99,F,,,,,,FALSE,click #choice-2,,,,silence,,,,,120909.69999998808,120908.89999997616,117797.887,117807.19999998808,117817.129,120916.816,,,
Question 2,html.Screen,2_1_0_3,2022-05-09T13:27:47.885Z,,,,,,,,,,,,,,,,,,,,,,,,,,,,true,TRUE,,4840.284000023836,,response,,,,99,F,,,,,,TRUE,click #choice-1,,,,silence,,,,,125757.80000001192,125757.10000002384,120900.101,120909.69999998808,120916.816,125766.318,,,
Item 99,flow.Sequence,2_1_0,2022-05-09T13:27:47.885Z,,,,,,,,,,,,,,,,,,,,,,,,,,,,,,,33870.72900002384,,completion,,,,,,,,,,,,,,,,,,,,,125757.89999997616,125757.10000002384,91869.678,91858.39999997616,91886.371,125766.318,,,
Holding screen,html.Screen,2_1_1_0,2022-05-09T13:27:57.876Z,,,,,,,,,,,,,,,,,,,,,,,,,,,,,,,9999.352000000014,,timeout,,,,,,,,,,,,,,,,,,,,,135749.39999997616,135748.966,125749.865,125758,125766.318,135765.67,,,
screen,html.Screen,2_1_1_1_0,2022-05-09T13:28:30.868Z,,,,,,,,,,,,,,,,,54,,,,,,,,,,,,,,32975.029999988066,,response,,,,100,,,,,,,Space,keypress(Space),,,,,,,,At --- ---- --- ------ ----- ------- ---- -- --- ------- --<br>------- ---------- ------ -- ----- -- ----- -- ---- ------<br>--- ----- --- --- ------ -------- ----- --- ------ ----- --<br>----- ----- ---------- --- --- ------ ------ ---- -- ------<br>------- --- ------ ----- --- ---- ------- -- ---- --- --<br>------- ------,168741.10000002384,168740.69999998808,135748.966,135749.60000002384,135765.67,168745.376,,0,At
screen,html.Screen,2_1_1_1_1,2022-05-09T13:28:30.937Z,,,,,,,,,,,,,,,,,54,,,,,,,,,,,,,,64.62400000001071,,response,,,,100,,,,,,,Space,keypress(Space),,,,,,,,-- the ---- --- ------ ----- ------- ---- -- --- ------- --<br>------- ---------- ------ -- ----- -- ----- -- ---- ------<br>--- ----- --- --- ------ -------- ----- --- ------ ----- --<br>----- ----- ---------- --- --- ------ ------ ---- -- ------<br>------- --- ------ ----- --- ---- ------- -- ---- --- --<br>------- ------,168810.5,168810,168732.466,168741.19999998808,168745.376,168812.027,,1,the
screen,html.Screen,2_1_1_1_2,2022-05-09T13:28:31.414Z,,,,,,,,,,,,,,,,,54,,,,,,,,,,,,,,474.07300002384,,response,,,,100,,,,,,,Space,keypress(Space),,,,,,,,-- --- time --- ------ ----- ------- ---- -- --- ------- --<br>------- ---------- ------ -- ----- -- ----- -- ---- ------<br>--- ----- --- --- ------ -------- ----- --- ------ ----- --<br>----- ----- ---------- --- --- ------ ------ ---- -- ------<br>------- --- ------ ----- --- ---- ------- -- ---- --- --<br>------- ------,169286.69999998808,169286.10000002384,168795.231,168810.5,168812.027,169295.544,,2,time
screen,html.Screen,2_1_1_1_3,2022-05-09T13:28:31.767Z,,,,,,,,,,,,,,,,,54,,,,,,,,,,,,,,343.4560000000056,,response,,,,100,,,,,,,Space,keypress(Space),,,,,,,,-- --- ---- the ------ ----- ------- ---- -- --- ------- --<br>------- ---------- ------ -- ----- -- ----- -- ---- ------<br>--- ----- --- --- ------ -------- ----- --- ------ ----- --<br>----- ----- ---------- --- --- ------ ------ ---- -- ------<br>------- --- ------ ----- --- ---- ------- -- ---- --- --<br>------- ------,169639.5,169639,169275.725,169286.80000001192,169295.544,169645.446,,3,the
screen,html.Screen,2_1_1_1_4,2022-05-09T13:28:32.145Z,,,,,,,,,,,,,,,,,54,,,,,,,,,,,,,,372.2539999880828,,response,,,,100,,,,,,,Space,keypress(Space),,,,,,,,-- --- ---- --- French ----- ------- ---- -- --- ------- --<br>------- ---------- ------ -- ----- -- ----- -- ---- ------<br>--- ----- --- --- ------ -------- ----- --- ------ ----- --<br>----- ----- ---------- --- --- ------ ------ ---- -- ------<br>------- --- ------ ----- --- ---- ------- -- ---- --- --<br>------- ------,170018,170017.69999998808,169626.945,169639.69999998808,169645.446,170028.811,,4,French
screen,html.Screen,2_1_1_1_5,2022-05-09T13:28:32.530Z,,,,,,,,,,,,,,,,,54,,,,,,,,,,,,,,373.68900000001304,,response,,,,100,,,,,,,Space,keypress(Space),,,,,,,,-- --- ---- --- ------ crown ------- ---- -- --- ------- --<br>------- ---------- ------ -- ----- -- ----- -- ---- ------<br>--- ----- --- --- ------ -------- ----- --- ------ ----- --<br>----- ----- ---------- --- --- ------ ------ ---- -- ------<br>------- --- ------ ----- --- ---- ------- -- ---- --- --<br>------- ------,170403,170402.5,170010.026,170018.10000002384,170028.811,170412.284,,5,crown
screen,html.Screen,2_1_1_1_6,2022-05-09T13:28:32.855Z,,,,,,,,,,,,,,,,,54,,,,,,,,,,,,,,315.31600002382766,,response,,,,100,,,,,,,Space,keypress(Space),,,,,,,,-- --- ---- --- ------ ----- secured ---- -- --- ------- --<br>------- ---------- ------ -- ----- -- ----- -- ---- ------<br>--- ----- --- --- ------ -------- ----- --- ------ ----- --<br>----- ----- ---------- --- --- ------ ------ ---- -- ------<br>------- --- ------ ----- --- ---- ------- -- ---- --- --<br>------- ------,170728.19999998808,170727.60000002384,170393.35,170403.10000002384,170412.284,170745.183,,6,secured
screen,html.Screen,2_1_1_1_7,2022-05-09T13:28:33.168Z,,,,,,,,,,,,,,,,,54,,,,,,,,,,,,,,295.71699997616815,,response,,,,100,,,,,,,Space,keypress(Space),,,,,,,,-- --- ---- --- ------ ----- ------- much -- --- ------- --<br>------- ---------- ------ -- ----- -- ----- -- ---- ------<br>--- ----- --- --- ------ -------- ----- --- ------ ----- --<br>----- ----- ---------- --- --- ------ ------ ---- -- ------<br>------- --- ------ ----- --- ---- ------- -- ---- --- --<br>------- ------,171041.39999997616,171040.89999997616,170726.587,170728.19999998808,170745.183,171045.223,,7,much
screen,html.Screen,2_1_1_1_8,2022-05-09T13:28:33.495Z,,,,,,,,,,,,,,,,,54,,,,,,,,,,,,,,321.97699998808093,,response,,,,100,,,,,,,Space,keypress(Space),,,,,,,,-- --- ---- --- ------ ----- ------- ---- of --- ------- --<br>------- ---------- ------ -- ----- -- ----- -- ---- ------<br>--- ----- --- --- ------ -------- ----- --- ------ ----- --<br>----- ----- ---------- --- --- ------ ------ ---- -- ------<br>------- --- ------ ----- --- ---- ------- -- ---- --- --<br>------- ------,171367.60000002384,171367.19999998808,171026.868,171041.5,171045.223,171378.719,,8,of
screen,html.Screen,2_1_1_1_9,2022-05-09T13:28:33.777Z,,,,,,,,,,,,,,,,,54,,,,,,,,,,,,,,270.2809999999881,,response,,,,100,,,,,,,Space,keypress(Space),,,,,,,,-- --- ---- --- ------ ----- ------- ---- -- its ------- --<br>------- ---------- ------ -- ----- -- ----- -- ---- ------<br>--- ----- --- --- ------ -------- ----- --- ------ ----- --<br>----- ----- ---------- --- --- ------ ------ ---- -- ------<br>------- --- ------ ----- --- ---- ------- -- ---- --- --<br>------- ------,171649.60000002384,171649,171360.192,171367.69999998808,171378.719,171662.131,,9,its
screen,html.Screen,2_1_1_1_10,2022-05-09T13:28:34.153Z,,,,,,,,,,,,,,,,,54,,,,,,,,,,,,,,363.0689999880851,,response,,,,100,,,,,,,Space,keypress(Space),,,,,,,,-- --- ---- --- ------ ----- ------- ---- -- --- revenue --<br>------- ---------- ------ -- ----- -- ----- -- ---- ------<br>--- ----- --- --- ------ -------- ----- --- ------ ----- --<br>----- ----- ---------- --- --- ------ ------ ---- -- ------<br>------- --- ------ ----- --- ---- ------- -- ---- --- --<br>------- ------,172025.69999998808,172025.19999998808,171643.853,171649.69999998808,171662.131,172028.363,,10,revenue
screen,html.Screen,2_1_1_1_11,2022-05-09T13:28:34.448Z,,,,,,,,,,,,,,,,,54,,,,,,,,,,,,,,292.53699997614603,,response,,,,100,,,,,,,Space,keypress(Space),,,,,,,,-- --- ---- --- ------ ----- ------- ---- -- --- ------- by<br>------- ---------- ------ -- ----- -- ----- -- ---- ------<br>--- ----- --- --- ------ -------- ----- --- ------ ----- --<br>----- ----- ---------- --- --- ------ ------ ---- -- ------<br>------- --- ------ ----- --- ---- ------- -- ---- --- --<br>------- ------,172321.39999997616,172320.89999997616,172026.077,172025.69999998808,172028.363,172328.579,,11,by
screen,html.Screen,2_1_1_1_12,2022-05-09T13:28:34.761Z,,,,,,,,,,,,,,,,,54,,,,,,,,,,,,,,304.52100002384395,,response,,,,100,,,,,,,Space,keypress(Space),,,,,,,,-- --- ---- --- ------ ----- ------- ---- -- --- ------- --<br>issuing ---------- ------ -- ----- -- ----- -- ---- ------<br>--- ----- --- --- ------ -------- ----- --- ------ ----- --<br>----- ----- ---------- --- --- ------ ------ ---- -- ------<br>------- --- ------ ----- --- ---- ------- -- ---- --- --<br>------- ------,172633.69999998808,172633.10000002384,172310.344,172321.5,172328.579,172644.997,,12,issuing
screen,html.Screen,2_1_1_1_13,2022-05-09T13:28:34.937Z,,,,,,,,,,,,,,,,,54,,,,,,,,,,,,,,164.3030000119179,,response,,,,100,,,,,,,Space,keypress(Space),,,,,,,,-- --- ---- --- ------ ----- ------- ---- -- --- ------- --<br>------- government ------ -- ----- -- ----- -- ---- ------<br>--- ----- --- --- ------ -------- ----- --- ------ ----- --<br>----- ----- ---------- --- --- ------ ------ ---- -- ------<br>------- --- ------ ----- --- ---- ------- -- ---- --- --<br>------- ------,172809.80000001192,172809.30000001192,172626.853,172633.80000001192,172644.997,172811.621,,13,government
screen,html.Screen,2_1_1_1_14,2022-05-09T13:28:35.229Z,,,,,,,,,,,,,,,,,54,,,,,,,,,,,,,,289.57899998806533,,response,,,,100,,,,,,,Space,keypress(Space),,,,,,,,-- --- ---- --- ------ ----- ------- ---- -- --- ------- --<br>------- ---------- bonds. -- ----- -- ----- -- ---- ------<br>--- ----- --- --- ------ -------- ----- --- ------ ----- --<br>----- ----- ---------- --- --- ------ ------ ---- -- ------<br>------- --- ------ ----- --- ---- ------- -- ---- --- --<br>------- ------,173101.80000001192,173101.19999998808,172794.534,172809.89999997616,172811.621,173111.958,,14,bonds.
screen,html.Screen,2_1_1_1_15,2022-05-09T13:28:35.675Z,,,,,,,,,,,,,,,,,54,,,,,,,,,,,,,,435.54199999998673,,response,,,,100,,,,,,,Space,keypress(Space),,,,,,,,-- --- ---- --- ------ ----- ------- ---- -- --- ------- --<br>------- ---------- ------ In ----- -- ----- -- ---- ------<br>--- ----- --- --- ------ -------- ----- --- ------ ----- --<br>----- ----- ---------- --- --- ------ ------ ---- -- ------<br>------- --- ------ ----- --- ---- ------- -- ---- --- --<br>------- ------,173548.10000002384,173547.5,173093.216,173102,173111.958,173561.95,,15,In
screen,html.Screen,2_1_1_1_16,2022-05-09T13:28:35.981Z,,,,,,,,,,,,,,,,,54,,,,,,,,,,,,,,291.6500000238302,,response,,,,100,,,,,,,Space,keypress(Space),,,,,,,,"-- --- ---- --- ------ ----- ------- ---- -- --- ------- --<br>------- ---------- ------ -- 1727, -- ----- -- ---- ------<br>--- ----- --- --- ------ -------- ----- --- ------ ----- --<br>----- ----- ---------- --- --- ------ ------ ---- -- ------<br>------- --- ------ ----- --- ---- ------- -- ---- --- --<br>------- ------",173854,173853.60000002384,173542.181,173548.19999998808,173561.95,173861.852,,16,"1727,"
screen,html.Screen,2_1_1_1_17,2022-05-09T13:28:36.377Z,,,,,,,,,,,,,,,,,54,,,,,,,,,,,,,,388.04799997614464,,response,,,,100,,,,,,,Space,keypress(Space),,,,,,,,-- --- ---- --- ------ ----- ------- ---- -- --- ------- --<br>------- ---------- ------ -- ----- in ----- -- ---- ------<br>--- ----- --- --- ------ -------- ----- --- ------ ----- --<br>----- ----- ---------- --- --- ------ ------ ---- -- ------<br>------- --- ------ ----- --- ---- ------- -- ---- --- --<br>------- ------,174250.39999997616,174249.89999997616,173845.074,173854.10000002384,173861.852,174261.954,,17,in
screen,html.Screen,2_1_1_1_18,2022-05-09T13:28:36.641Z,,,,,,,,,,,,,,,,,54,,,,,,,,,,,,,,251.84600001192302,,response,,,,100,,,,,,,Space,keypress(Space),,,,,,,,-- --- ---- --- ------ ----- ------- ---- -- --- ------- --<br>------- ---------- ------ -- ----- -- order -- ---- ------<br>--- ----- --- --- ------ -------- ----- --- ------ ----- --<br>----- ----- ---------- --- --- ------ ------ ---- -- ------<br>------- --- ------ ----- --- ---- ------- -- ---- --- --<br>------- ------,174514.30000001192,174513.80000001192,174242.514,174250.5,174261.954,174528.418,,18,order
screen,html.Screen,2_1_1_1_19,2022-05-09T13:28:36.957Z,,,,,,,,,,,,,,,,,54,,,,,,,,,,,,,,301.18200002383674,,response,,,,100,,,,,,,Space,keypress(Space),,,,,,,,-- --- ---- --- ------ ----- ------- ---- -- --- ------- --<br>------- ---------- ------ -- ----- -- ----- to ---- ------<br>--- ----- --- --- ------ -------- ----- --- ------ ----- --<br>----- ----- ---------- --- --- ------ ------ ---- -- ------<br>------- --- ------ ----- --- ---- ------- -- ---- --- --<br>------- ------,174830,174829.60000002384,174510.385,174514.30000001192,174528.418,174844.87,,19,to
screen,html.Screen,2_1_1_1_20,2022-05-09T13:28:37.168Z,,,,,,,,,,,,,,,,,54,,,,,,,,,,,,,,195.13000000000466,,response,,,,100,,,,,,,Space,keypress(Space),,,,,,,,-- --- ---- --- ------ ----- ------- ---- -- --- ------- --<br>------- ---------- ------ -- ----- -- ----- -- save ------<br>--- ----- --- --- ------ -------- ----- --- ------ ----- --<br>----- ----- ---------- --- --- ------ ------ ---- -- ------<br>------- --- ------ ----- --- ---- ------- -- ---- --- --<br>------- ------,175040.69999998808,175040,174826.444,174830.10000002384,174844.87,175044.764,,20,save
screen,html.Screen,2_1_1_1_21,2022-05-09T13:28:37.462Z,,,,,,,,,,,,,,,,,54,,,,,,,,,,,,,,290.03600001192535,,response,,,,100,,,,,,,Space,keypress(Space),,,,,,,,"-- --- ---- --- ------ ----- ------- ---- -- --- ------- --<br>------- ---------- ------ -- ----- -- ----- -- ---- money,<br>--- ----- --- --- ------ -------- ----- --- ------ ----- --<br>----- ----- ---------- --- --- ------ ------ ---- -- ------<br>------- --- ------ ----- --- ---- ------- -- ---- --- --<br>------- ------",175335.19999998808,175334.80000001192,175027.172,175040.69999998808,175044.764,175345.014,,21,"money,"
screen,html.Screen,2_1_1_1_22,2022-05-09T13:28:37.744Z,,,,,,,,,,,,,,,,,54,,,,,,,,,,,,,,271.9860000000044,,response,,,,100,,,,,,,Space,keypress(Space),,,,,,,,-- --- ---- --- ------ ----- ------- ---- -- --- ------- --<br>------- ---------- ------ -- ----- -- ----- -- ---- ------<br>the ----- --- --- ------ -------- ----- --- ------ ----- --<br>----- ----- ---------- --- --- ------ ------ ---- -- ------<br>------- --- ------ ----- --- ---- ------- -- ---- --- --<br>------- ------,175617.39999997616,175617,175326.712,175335.39999997616,175345.014,175628.386,,22,the
screen,html.Screen,2_1_1_1_23,2022-05-09T13:28:38.001Z,,,,,,,,,,,,,,,,,54,,,,,,,,,,,,,,245.41400001192233,,response,,,,100,,,,,,,Space,keypress(Space),,,,,,,,-- --- ---- --- ------ ----- ------- ---- -- --- ------- --<br>------- ---------- ------ -- ----- -- ----- -- ---- ------<br>--- state --- --- ------ -------- ----- --- ------ ----- --<br>----- ----- ---------- --- --- ------ ------ ---- -- ------<br>------- --- ------ ----- --- ---- ------- -- ---- --- --<br>------- ------,175874.39999997616,175873.80000001192,175610.101,175617.5,175628.386,175878.351,,23,state
screen,html.Screen,2_1_1_1_24,2022-05-09T13:28:38.223Z,,,,,,,,,,,,,,,,,54,,,,,,,,,,,,,,216.84899998808396,,response,,,,100,,,,,,,Space,keypress(Space),,,,,,,,-- --- ---- --- ------ ----- ------- ---- -- --- ------- --<br>------- ---------- ------ -- ----- -- ----- -- ---- ------<br>--- ----- cut --- ------ -------- ----- --- ------ ----- --<br>----- ----- ---------- --- --- ------ ------ ---- -- ------<br>------- --- ------ ----- --- ---- ------- -- ---- --- --<br>------- ------,176095.80000001192,176095.19999998808,175860.128,175874.60000002384,175878.351,176111.751,,24,cut
screen,html.Screen,2_1_1_1_25,2022-05-09T13:28:38.578Z,,,,,,,,,,,,,,,,,54,,,,,,,,,,,,,,338.54900001193164,,response,,,,100,,,,,,,Space,keypress(Space),,,,,,,,-- --- ---- --- ------ ----- ------- ---- -- --- ------- --<br>------- ---------- ------ -- ----- -- ----- -- ---- ------<br>--- ----- --- the ------ -------- ----- --- ------ ----- --<br>----- ----- ---------- --- --- ------ ------ ---- -- ------<br>------- --- ------ ----- --- ---- ------- -- ---- --- --<br>------- ------,176450.80000001192,176450.30000001192,176093.81,176095.80000001192,176111.751,176461.528,,25,the
screen,html.Screen,2_1_1_1_26,2022-05-09T13:28:38.820Z,,,,,,,,,,,,,,,,,54,,,,,,,,,,,,,,231.0720000238507,,response,,,,100,,,,,,,Space,keypress(Space),,,,,,,,-- --- ---- --- ------ ----- ------- ---- -- --- ------- --<br>------- ---------- ------ -- ----- -- ----- -- ---- ------<br>--- ----- --- --- bonds' -------- ----- --- ------ ----- --<br>----- ----- ---------- --- --- ------ ------ ---- -- ------<br>------- --- ------ ----- --- ---- ------- -- ---- --- --<br>------- ------,176692.89999997616,176692.60000002384,176442.978,176450.89999997616,176461.528,176694.619,,26,bonds'
screen,html.Screen,2_1_1_1_27,2022-05-09T13:28:38.985Z,,,,,,,,,,,,,,,,,54,,,,,,,,,,,,,,162.88099999999395,,response,,,,100,,,,,,,Space,keypress(Space),,,,,,,,-- --- ---- --- ------ ----- ------- ---- -- --- ------- --<br>------- ---------- ------ -- ----- -- ----- -- ---- ------<br>--- ----- --- --- ------ interest ----- --- ------ ----- --<br>----- ----- ---------- --- --- ------ ------ ---- -- ------<br>------- --- ------ ----- --- ---- ------- -- ---- --- --<br>------- ------,176858.10000002384,176857.5,176693.22,176693,176694.619,176861.42,,27,interest
screen,html.Screen,2_1_1_1_28,2022-05-09T13:28:39.327Z,,,,,,,,,,,,,,,,,54,,,,,,,,,,,,,,338.5799999999872,,response,,,,100,,,,,,,Space,keypress(Space),,,,,,,,-- --- ---- --- ------ ----- ------- ---- -- --- ------- --<br>------- ---------- ------ -- ----- -- ----- -- ---- ------<br>--- ----- --- --- ------ -------- rate. --- ------ ----- --<br>----- ----- ---------- --- --- ------ ------ ---- -- ------<br>------- --- ------ ----- --- ---- ------- -- ---- --- --<br>------- ------,177200.39999997616,177200,176843.782,176858.19999998808,176861.42,177211.469,,28,rate.
screen,html.Screen,2_1_1_1_29,2022-05-09T13:28:39.714Z,,,,,,,,,,,,,,,,,54,,,,,,,,,,,,,,375.0309999999881,,response,,,,100,,,,,,,Space,keypress(Space),,,,,,,,-- --- ---- --- ------ ----- ------- ---- -- --- ------- --<br>------- ---------- ------ -- ----- -- ----- -- ---- ------<br>--- ----- --- --- ------ -------- ----- The ------ ----- --<br>----- ----- ---------- --- --- ------ ------ ---- -- ------<br>------- --- ------ ----- --- ---- ------- -- ---- --- --<br>------- ------,177586.89999997616,177586.5,177192.486,177200.5,177211.469,177594.486,,29,The
screen,html.Screen,2_1_1_1_30,2022-05-09T13:28:40.243Z,,,,,,,,,,,,,,,,,54,,,,,,,,,,,,,,521.5139999999956,,response,,,,100,,,,,,,Space,keypress(Space),,,,,,,,-- --- ---- --- ------ ----- ------- ---- -- --- ------- --<br>------- ---------- ------ -- ----- -- ----- -- ---- ------<br>--- ----- --- --- ------ -------- ----- --- market ----- --<br>----- ----- ---------- --- --- ------ ------ ---- -- ------<br>------- --- ------ ----- --- ---- ------- -- ---- --- --<br>------- ------,178116.5,178116,177575.885,177587.10000002384,177594.486,178128.12,,30,market
screen,html.Screen,2_1_1_1_31,2022-05-09T13:28:40.417Z,,,,,,,,,,,,,,,,,54,,,,,,,,,,,,,,161.7799999761628,,response,,,,100,,,,,,,Space,keypress(Space),,,,,,,,-- --- ---- --- ------ ----- ------- ---- -- --- ------- --<br>------- ---------- ------ -- ----- -- ----- -- ---- ------<br>--- ----- --- --- ------ -------- ----- --- ------ value --<br>----- ----- ---------- --- --- ------ ------ ---- -- ------<br>------- --- ------ ----- --- ---- ------- -- ---- --- --<br>------- ------,178290.5,178289.89999997616,178107.789,178116.60000002384,178128.12,178294.614,,31,value
screen,html.Screen,2_1_1_1_32,2022-05-09T13:28:40.885Z,,,,,,,,,,,,,,,,,54,,,,,,,,,,,,,,463.0859999880777,,response,,,,100,,,,,,,Space,keypress(Space),,,,,,,,-- --- ---- --- ------ ----- ------- ---- -- --- ------- --<br>------- ---------- ------ -- ----- -- ----- -- ---- ------<br>--- ----- --- --- ------ -------- ----- --- ------ ----- of<br>----- ----- ---------- --- --- ------ ------ ---- -- ------<br>------- --- ------ ----- --- ---- ------- -- ---- --- --<br>------- ------,178758,178757.69999998808,178277.375,178290.60000002384,178294.614,178778.051,,32,of
screen,html.Screen,2_1_1_1_33,2022-05-09T13:28:41.098Z,,,,,,,,,,,,,,,,,54,,,,,,,,,,,,,,192.64899998807232,,response,,,,100,,,,,,,Space,keypress(Space),,,,,,,,-- --- ---- --- ------ ----- ------- ---- -- --- ------- --<br>------- ---------- ------ -- ----- -- ----- -- ---- ------<br>--- ----- --- --- ------ -------- ----- --- ------ ----- --<br>these ----- ---------- --- --- ------ ------ ---- -- ------<br>------- --- ------ ----- --- ---- ------- -- ---- --- --<br>------- ------,178971.19999998808,178970.69999998808,178761.398,178758.10000002384,178778.051,178977.872,,33,these
screen,html.Screen,2_1_1_1_34,2022-05-09T13:28:41.249Z,,,,,,,,,,,,,,,,,54,,,,,,,,,,,,,,143.9280000119179,,response,,,,100,,,,,,,Space,keypress(Space),,,,,,,,-- --- ---- --- ------ ----- ------- ---- -- --- ------- --<br>------- ---------- ------ -- ----- -- ----- -- ---- ------<br>--- ----- --- --- ------ -------- ----- --- ------ ----- --<br>----- bonds ---------- --- --- ------ ------ ---- -- ------<br>------- --- ------ ----- --- ---- ------- -- ---- --- --<br>------- ------,179122.30000001192,179121.80000001192,178960.043,178971.30000001192,178977.872,179127.972,,34,bonds
screen,html.Screen,2_1_1_1_35,2022-05-09T13:28:41.443Z,,,,,,,,,,,,,,,,,54,,,,,,,,,,,,,,187.628000023833,,response,,,,100,,,,,,,Space,keypress(Space),,,,,,,,"-- --- ---- --- ------ ----- ------- ---- -- --- ------- --<br>------- ---------- ------ -- ----- -- ----- -- ---- ------<br>--- ----- --- --- ------ -------- ----- --- ------ ----- --<br>----- ----- plummeted, --- --- ------ ------ ---- -- ------<br>------- --- ------ ----- --- ---- ------- -- ---- --- --<br>------- ------",179316,179315.60000002384,179110.312,179122.60000002384,179127.972,179328.02,,35,"plummeted,"
screen,html.Screen,2_1_1_1_36,2022-05-09T13:28:41.655Z,,,,,,,,,,,,,,,,,54,,,,,,,,,,,,,,199.67999998808955,,response,,,,100,,,,,,,Space,keypress(Space),,,,,,,,-- --- ---- --- ------ ----- ------- ---- -- --- ------- --<br>------- ---------- ------ -- ----- -- ----- -- ---- ------<br>--- ----- --- --- ------ -------- ----- --- ------ ----- --<br>----- ----- ---------- and --- ------ ------ ---- -- ------<br>------- --- ------ ----- --- ---- ------- -- ---- --- --<br>------- ------,179528.10000002384,179527.69999998808,179310.379,179316.10000002384,179328.02,179544.319,,36,and
screen,html.Screen,2_1_1_1_37,2022-05-09T13:28:42.000Z,,,,,,,,,,,,,,,,,54,,,,,,,,,,,,,,328.58099997616955,,response,,,,100,,,,,,,Space,keypress(Space),,,,,,,,-- --- ---- --- ------ ----- ------- ---- -- --- ------- --<br>------- ---------- ------ -- ----- -- ----- -- ---- ------<br>--- ----- --- --- ------ -------- ----- --- ------ ----- --<br>----- ----- ---------- --- the ------ ------ ---- -- ------<br>------- --- ------ ----- --- ---- ------- -- ---- --- --<br>------- ------,179873.39999997616,179872.89999997616,179526.931,179528.30000001192,179544.319,179877.775,,37,the
screen,html.Screen,2_1_1_1_38,2022-05-09T13:28:42.282Z,,,,,,,,,,,,,,,,,54,,,,,,,,,,,,,,276.9249999880849,,response,,,,100,,,,,,,Space,keypress(Space),,,,,,,,-- --- ---- --- ------ ----- ------- ---- -- --- ------- --<br>------- ---------- ------ -- ----- -- ----- -- ---- ------<br>--- ----- --- --- ------ -------- ----- --- ------ ----- --<br>----- ----- ---------- --- --- market ------ ---- -- ------<br>------- --- ------ ----- --- ---- ------- -- ---- --- --<br>------- ------,180155.30000001192,180154.69999998808,179859.367,179873.60000002384,179877.775,180161.129,,38,market
screen,html.Screen,2_1_1_1_39,2022-05-09T13:28:42.499Z,,,,,,,,,,,,,,,,,54,,,,,,,,,,,,,,210.77099997617188,,response,,,,100,,,,,,,Space,keypress(Space),,,,,,,,-- --- ---- --- ------ ----- ------- ---- -- --- ------- --<br>------- ---------- ------ -- ----- -- ----- -- ---- ------<br>--- ----- --- --- ------ -------- ----- --- ------ ----- --<br>----- ----- ---------- --- --- ------ became ---- -- ------<br>------- --- ------ ----- --- ---- ------- -- ---- --- --<br>------- ------,180372.30000001192,180371.89999997616,180143,180155.30000001192,180161.129,180377.76,,39,became
screen,html.Screen,2_1_1_1_40,2022-05-09T13:28:42.630Z,,,,,,,,,,,,,,,,,54,,,,,,,,,,,,,,124.54000001191162,,response,,,,100,,,,,,,Space,keypress(Space),,,,,,,,-- --- ---- --- ------ ----- ------- ---- -- --- ------- --<br>------- ---------- ------ -- ----- -- ----- -- ---- ------<br>--- ----- --- --- ------ -------- ----- --- ------ ----- --<br>----- ----- ---------- --- --- ------ ------ wary -- ------<br>------- --- ------ ----- --- ---- ------- -- ---- --- --<br>------- ------,180502.69999998808,180502.30000001192,180360.067,180372.39999997616,180377.76,180511.072,,40,wary
screen,html.Screen,2_1_1_1_41,2022-05-09T13:28:42.884Z,,,,,,,,,,,,,,,,,54,,,,,,,,,,,,,,245.92800000001444,,response,,,,100,,,,,,,Space,keypress(Space),,,,,,,,-- --- ---- --- ------ ----- ------- ---- -- --- ------- --<br>------- ---------- ------ -- ----- -- ----- -- ---- ------<br>--- ----- --- --- ------ -------- ----- --- ------ ----- --<br>----- ----- ---------- --- --- ------ ------ ---- of ------<br>------- --- ------ ----- --- ---- ------- -- ---- --- --<br>------- ------,180757.39999997616,180757,180493.929,180502.80000001192,180511.072,180761.042,,41,of
screen,html.Screen,2_1_1_1_42,2022-05-09T13:28:43.086Z,,,,,,,,,,,,,,,,,54,,,,,,,,,,,,,,197.2580000119342,,response,,,,100,,,,,,,Space,keypress(Space),,,,,,,,-- --- ---- --- ------ ----- ------- ---- -- --- ------- --<br>------- ---------- ------ -- ----- -- ----- -- ---- ------<br>--- ----- --- --- ------ -------- ----- --- ------ ----- --<br>----- ----- ---------- --- --- ------ ------ ---- -- French<br>------- --- ------ ----- --- ---- ------- -- ---- --- --<br>------- ------,180958.89999997616,180958.30000001192,180742.844,180757.5,180761.042,180960.805,,42,French
screen,html.Screen,2_1_1_1_43,2022-05-09T13:28:43.368Z,,,,,,,,,,,,,,,,,54,,,,,,,,,,,,,,279.79500002384884,,response,,,,100,,,,,,,Space,keypress(Space),,,,,,,,-- --- ---- --- ------ ----- ------- ---- -- --- ------- --<br>------- ---------- ------ -- ----- -- ----- -- ---- ------<br>--- ----- --- --- ------ -------- ----- --- ------ ----- --<br>----- ----- ---------- --- --- ------ ------ ---- -- ------<br>credit. --- ------ ----- --- ---- ------- -- ---- --- --<br>------- ------,181241.19999998808,181240.60000002384,180943.105,180959,180960.805,181244.12,,43,credit.
screen,html.Screen,2_1_1_1_44,2022-05-09T13:28:43.814Z,,,,,,,,,,,,,,,,,54,,,,,,,,,,,,,,442.7799999761628,,response,,,,100,,,,,,,Space,keypress(Space),,,,,,,,-- --- ---- --- ------ ----- ------- ---- -- --- ------- --<br>------- ---------- ------ -- ----- -- ----- -- ---- ------<br>--- ----- --- --- ------ -------- ----- --- ------ ----- --<br>----- ----- ---------- --- --- ------ ------ ---- -- ------<br>------- The ------ ----- --- ---- ------- -- ---- --- --<br>------- ------,181687.39999997616,181686.89999997616,181225.902,181241.30000001192,181244.12,181694.094,,44,The
screen,html.Screen,2_1_1_1_45,2022-05-09T13:28:44.020Z,,,,,,,,,,,,,,,,,54,,,,,,,,,,,,,,198.6059999880672,,response,,,,100,,,,,,,Space,keypress(Space),,,,,,,,-- --- ---- --- ------ ----- ------- ---- -- --- ------- --<br>------- ---------- ------ -- ----- -- ----- -- ---- ------<br>--- ----- --- --- ------ -------- ----- --- ------ ----- --<br>----- ----- ---------- --- --- ------ ------ ---- -- ------<br>------- --- French ----- --- ---- ------- -- ---- --- --<br>------- ------,181893.19999998808,181892.69999998808,181675.004,181687.5,181694.094,181919.112,,45,French
screen,html.Screen,2_1_1_1_46,2022-05-09T13:28:44.191Z,,,,,,,,,,,,,,,,,54,,,,,,,,,,,,,,144.8880000000063,,response,,,,100,,,,,,,Space,keypress(Space),,,,,,,,-- --- ---- --- ------ ----- ------- ---- -- --- ------- --<br>------- ---------- ------ -- ----- -- ----- -- ---- ------<br>--- ----- --- --- ------ -------- ----- --- ------ ----- --<br>----- ----- ---------- --- --- ------ ------ ---- -- ------<br>------- --- ------ state --- ---- ------- -- ---- --- --<br>------- ------,182064.39999997616,182064,181892.915,181893.30000001192,181919.112,182077.386,,46,state
screen,html.Screen,2_1_1_1_47,2022-05-09T13:28:44.456Z,,,,,,,,,,,,,,,,,54,,,,,,,,,,,,,,251.31399998808047,,response,,,,100,,,,,,,Space,keypress(Space),,,,,,,,-- --- ---- --- ------ ----- ------- ---- -- --- ------- --<br>------- ---------- ------ -- ----- -- ----- -- ---- ------<br>--- ----- --- --- ------ -------- ----- --- ------ ----- --<br>----- ----- ---------- --- --- ------ ------ ---- -- ------<br>------- --- ------ ----- was ---- ------- -- ---- --- --<br>------- ------,182329.19999998808,182328.69999998808,182059.905,182064.60000002384,182077.386,182344.033,,47,was
screen,html.Screen,2_1_1_1_48,2022-05-09T13:28:44.678Z,,,,,,,,,,,,,,,,,54,,,,,,,,,,,,,,206.36699997616233,,response,,,,100,,,,,,,Space,keypress(Space),,,,,,,,-- --- ---- --- ------ ----- ------- ---- -- --- ------- --<br>------- ---------- ------ -- ----- -- ----- -- ---- ------<br>--- ----- --- --- ------ -------- ----- --- ------ ----- --<br>----- ----- ---------- --- --- ------ ------ ---- -- ------<br>------- --- ------ ----- --- left ------- -- ---- --- --<br>------- ------,182551,182550.39999997616,182325.847,182329.30000001192,182344.033,182560.672,,48,left
screen,html.Screen,2_1_1_1_49,2022-05-09T13:28:44.869Z,,,,,,,,,,,,,,,,,54,,,,,,,,,,,,,,181.32800000000861,,response,,,,100,,,,,,,Space,keypress(Space),,,,,,,,-- --- ---- --- ------ ----- ------- ---- -- --- ------- --<br>------- ---------- ------ -- ----- -- ----- -- ---- ------<br>--- ----- --- --- ------ -------- ----- --- ------ ----- --<br>----- ----- ---------- --- --- ------ ------ ---- -- ------<br>------- --- ------ ----- --- ---- without -- ---- --- --<br>------- ------,182742.39999997616,182742,182542.846,182551,182560.672,182743.965,,49,without
screen,html.Screen,2_1_1_1_50,2022-05-09T13:28:45.376Z,,,,,,,,,,,,,,,,,54,,,,,,,,,,,,,,505.13500002384535,,response,,,,100,,,,,,,Space,keypress(Space),,,,,,,,-- --- ---- --- ------ ----- ------- ---- -- --- ------- --<br>------- ---------- ------ -- ----- -- ----- -- ---- ------<br>--- ----- --- --- ------ -------- ----- --- ------ ----- --<br>----- ----- ---------- --- --- ------ ------ ---- -- ------<br>------- --- ------ ----- --- ---- ------- an ---- --- --<br>------- ------,183249.5,183249.10000002384,182726.427,182742.5,182743.965,183260.605,,50,an
screen,html.Screen,2_1_1_1_51,2022-05-09T13:28:45.674Z,,,,,,,,,,,,,,,,,54,,,,,,,,,,,,,,286.0949999880686,,response,,,,100,,,,,,,Space,keypress(Space),,,,,,,,-- --- ---- --- ------ ----- ------- ---- -- --- ------- --<br>------- ---------- ------ -- ----- -- ----- -- ---- ------<br>--- ----- --- --- ------ -------- ----- --- ------ ----- --<br>----- ----- ---------- --- --- ------ ------ ---- -- ------<br>------- --- ------ ----- --- ---- ------- -- easy --- --<br>------- ------,183547.10000002384,183546.69999998808,183241.065,183249.60000002384,183260.605,183560.922,,51,easy
screen,html.Screen,2_1_1_1_52,2022-05-09T13:28:45.835Z,,,,,,,,,,,,,,,,,54,,,,,,,,,,,,,,146.87800001192954,,response,,,,100,,,,,,,Space,keypress(Space),,,,,,,,-- --- ---- --- ------ ----- ------- ---- -- --- ------- --<br>------- ---------- ------ -- ----- -- ----- -- ---- ------<br>--- ----- --- --- ------ -------- ----- --- ------ ----- --<br>----- ----- ---------- --- --- ------ ------ ---- -- ------<br>------- --- ------ ----- --- ---- ------- -- ---- way --<br>------- ------,183708.19999998808,183707.80000001192,183542.577,183547.19999998808,183560.922,183710.582,,52,way
screen,html.Screen,2_1_1_1_53,2022-05-09T13:28:45.991Z,,,,,,,,,,,,,,,,,54,,,,,,,,,,,,,,153.01800002384698,,response,,,,100,,,,,,,Space,keypress(Space),,,,,,,,-- --- ---- --- ------ ----- ------- ---- -- --- ------- --<br>------- ---------- ------ -- ----- -- ----- -- ---- ------<br>--- ----- --- --- ------ -------- ----- --- ------ ----- --<br>----- ----- ---------- --- --- ------ ------ ---- -- ------<br>------- --- ------ ----- --- ---- ------- -- ---- --- of<br>------- ------,183864,183863.60000002384,183693.188,183708.30000001192,183710.582,183877.225,,53,of
screen,html.Screen,2_1_1_1_54,2022-05-09T13:28:46.172Z,,,,,,,,,,,,,,,,,54,,,,,,,,,,,,,,167.37500002383604,,response,,,,100,,,,,,,Space,keypress(Space),,,,,,,,-- --- ---- --- ------ ----- ------- ---- -- --- ------- --<br>------- ---------- ------ -- ----- -- ----- -- ---- ------<br>--- ----- --- --- ------ -------- ----- --- ------ ----- --<br>----- ----- ---------- --- --- ------ ------ ---- -- ------<br>------- --- ------ ----- --- ---- ------- -- ---- --- --<br>raising ------,184045.10000002384,184044.60000002384,183860.18,183864.10000002384,183877.225,184060.575,,54,raising
screen,html.Screen,2_1_1_1_55,2022-05-09T13:28:46.478Z,,,,,,,,,,,,,,,,,54,,,,,,,,,,,,,,289.7250000119093,,response,,,,100,,,,,,,Space,keypress(Space),,,,,,,,-- --- ---- --- ------ ----- ------- ---- -- --- ------- --<br>------- ---------- ------ -- ----- -- ----- -- ---- ------<br>--- ----- --- --- ------ -------- ----- --- ------ ----- --<br>----- ----- ---------- --- --- ------ ------ ---- -- ------<br>------- --- ------ ----- --- ---- ------- -- ---- --- --<br>------- money.,184350.69999998808,184350.30000001192,184042.96,184045.19999998808,184060.575,184360.468,,55,money.
Item 100,flow.Loop,2_1_1_1,2022-05-09T13:28:46.478Z,,,,,,,,,,,,,,,,,,,,,,,,,,,,,,,48584.63000001191,,completion,,,,,F,,,,,,,,,,,silence,,,,,184350.89999997616,184350.30000001192,135748.966,135749.60000002384,135765.67,184360.468,,,
Question 1,html.Screen,2_1_1_2,2022-05-09T13:28:48.061Z,,,,,,,,,,,,,,,,,,,,,,,,,,,,true,TRUE,,1572.6320000238484,,response,,,,100,F,,,,,,TRUE,click #choice-1,,,,silence,,,,,185933.89999997616,185933.10000002384,184342.075,184351,184360.468,185943.768,,,
Question 2,html.Screen,2_1_1_3,2022-05-09T13:28:49.748Z,,,,,,,,,,,,,,,,,,,,,,,,,,,,true,FALSE,,1677.03200001191,,response,,,,100,F,,,,,,FALSE,click #choice-2,,,,silence,,,,,187621.39999997616,187620.80000001192,185926.613,185934,185943.768,187626.823,,,
Item 100,flow.Sequence,2_1_1,2022-05-09T13:28:49.749Z,,,,,,,,,,,,,,,,,,,,,,,,,,,,,,,61854.48200001192,,completion,,,,,,,,,,,,,,,,,,,,,187621.60000002384,187620.80000001192,125749.865,125757.89999997616,125766.318,187626.823,,,
End of Practice,html.Page,2_1_2,2022-05-09T13:28:52.718Z,,,,,,,,,,,,,,,,,,,,,,,,,,,,,,,2963.676999999996,,form submission,,,,,,,,,,,,,,,,,,,,,190590.69999998808,190590.5,187610.533,187621.60000002384,187626.823,190593.212,,,
Practice,flow.Sequence,2_1,2022-05-09T13:28:52.718Z,,,,,,,,,,,,,,,,,,,,,,,,,,,,,,,98704.129,,completion,,,,,,,,,,,,,,,,,,,,,190590.80000001192,190590.5,91869.678,91858.39999997616,91886.371,190593.212,,,
Trap_instruction,html.Page,2_2_0,2022-05-09T13:28:55.037Z,,,,,,,,,,,,,,,,,,,,,,,,,,,,,,,2316.8880000238423,,form submission,,,,,,,,,,,,,,,,,,,,,192910.30000001192,192910.10000002384,190576.734,190590.89999997616,190593.212,192942.917,,,
trap_trial,html.Screen,2_2_1,2022-05-09T13:28:59.436Z,,,,,,,,,,,,,,,,,,,,,,,,,,,,true,1,,4365.482999976171,,response,,,,,,,,,,,1,click #choice-1,,,,,,,,,197309,197308.39999997616,192926.277,192910.39999997616,192942.917,197327.859,,,
end of trap trial,html.Page,2_2_2,2022-05-09T13:29:09.437Z,,,,,,,,,,,,,,,,,,,,,,,,,,,,,,,9997.059999999998,,timeout,,,,,,,,,,,,,,,,,,,,,207309.89999997616,207308.196,197292.66,197309,197327.859,207324.919,,,
Trap 1,flow.Sequence,2_2,2022-05-09T13:29:09.437Z,,,,,,,,,,,,,,,,,,,,,,,,,,,,,,,16714.983999999997,,completion,,,,,,,,,,,,,,,,,,,,,207310.19999998808,207308.196,190576.734,190590.80000001192,190593.212,207324.919,,,
Standby,html.Page,2_3_0,2022-05-09T13:29:17.435Z,,,,,,,,,,,,,,,,,,,,,,,,,,,,,,,7999.170000000013,,timeout,,,,,,,,,,,,,,,,,,,,,215307.89999997616,215307.474,207308.196,207310.30000001192,207324.919,215324.089,,,
Holding screen,html.Screen,2_3_1_0_0,2022-05-09T13:29:24.434Z,,,,,,,,,,,,,,,,,,,,,,,,,,,,,,,6999.34599999999,,timeout,,,,,,,,,,,,,,,,,,,,,222307.5,222307.024,215307.474,215308,215324.089,222323.435,,,
screen,html.Screen,2_3_1_0_1_0,2022-05-09T13:29:31.434Z,,,,,,,,,,,,,,,,,40,,,,,,,,,,,,,,6999.42300000001,,timeout,,,,9,F,,,,,,,,,,,lyrical,,,,Police -- ------- ---- ---- ---- - -------- ----- --- --<br>----- ----- ------ -- ---- -- --- - ---- -- - ----- -----<br>------ ---- ------ ---- - -------- ------- -- --- --------<br>-------- ----------- ---- ------ ---- ------ ---- --- ---<br>-------- --- -----,229306.89999997616,229306.336,222307.024,222307.60000002384,222323.435,229322.858,,0,Police
screen,html.Screen,2_3_1_0_1_1,2022-05-09T13:29:38.433Z,,,,,,,,,,,,,,,,,40,,,,,,,,,,,,,,6999.130999999994,,timeout,,,,9,F,,,,,,,,,,,lyrical,,,,------ in ------- ---- ---- ---- - -------- ----- --- --<br>----- ----- ------ -- ---- -- --- - ---- -- - ----- -----<br>------ ---- ------ ---- - -------- ------- -- --- --------<br>-------- ----------- ---- ------ ---- ------ ---- --- ---<br>-------- --- -----,236306.10000002384,236305.594,229306.336,229307,229322.858,236321.989,,1,in
screen,html.Screen,2_3_1_0_1_2,2022-05-09T13:29:45.432Z,,,,,,,,,,,,,,,,,40,,,,,,,,,,,,,,6999.639999999985,,timeout,,,,9,F,,,,,,,,,,,lyrical,,,,------ -- Georgia ---- ---- ---- - -------- ----- --- --<br>----- ----- ------ -- ---- -- --- - ---- -- - ----- -----<br>------ ---- ------ ---- - -------- ------- -- --- --------<br>-------- ----------- ---- ------ ---- ------ ---- --- ---<br>-------- --- -----,243305.19999998808,243304.795,236305.594,236306.19999998808,236321.989,243321.629,,2,Georgia
screen,html.Screen,2_3_1_0_1_3,2022-05-09T13:29:52.432Z,,,,,,,,,,,,,,,,,40,,,,,,,,,,,,,,6999.121000000014,,timeout,,,,9,F,,,,,,,,,,,lyrical,,,,------ -- ------- have ---- ---- - -------- ----- --- --<br>----- ----- ------ -- ---- -- --- - ---- -- - ----- -----<br>------ ---- ------ ---- - -------- ------- -- --- --------<br>-------- ----------- ---- ------ ---- ------ ---- --- ---<br>-------- --- -----,250304.60000002384,250304.031,243304.795,243305.30000001192,243321.629,250320.75,,3,have
screen,html.Screen,2_3_1_0_1_4,2022-05-09T13:29:59.432Z,,,,,,,,,,,,,,,,,40,,,,,,,,,,,,,,6999.445000000007,,timeout,,,,9,F,,,,,,,,,,,lyrical,,,,------ -- ------- ---- shut ---- - -------- ----- --- --<br>----- ----- ------ -- ---- -- --- - ---- -- - ----- -----<br>------ ---- ------ ---- - -------- ------- -- --- --------<br>-------- ----------- ---- ------ ---- ------ ---- --- ---<br>-------- --- -----,257304.19999998808,257303.624,250304.031,250304.60000002384,250320.75,257320.195,,4,shut
screen,html.Screen,2_3_1_0_1_5,2022-05-09T13:30:06.431Z,,,,,,,,,,,,,,,,,40,,,,,,,,,,,,,,6999.094999999972,,timeout,,,,9,F,,,,,,,,,,,lyrical,,,,------ -- ------- ---- ---- down - -------- ----- --- --<br>----- ----- ------ -- ---- -- --- - ---- -- - ----- -----<br>------ ---- ------ ---- - -------- ------- -- --- --------<br>-------- ----------- ---- ------ ---- ------ ---- --- ---<br>-------- --- -----,264303.3000000119,264302.896,257303.624,257304.30000001192,257320.195,264319.29,,5,down
screen,html.Screen,2_3_1_0_1_6,2022-05-09T13:30:13.430Z,,,,,,,,,,,,,,,,,40,,,,,,,,,,,,,,6999.190000000002,,timeout,,,,9,F,,,,,,,,,,,lyrical,,,,------ -- ------- ---- ---- ---- a -------- ----- --- --<br>----- ----- ------ -- ---- -- --- - ---- -- - ----- -----<br>------ ---- ------ ---- - -------- ------- -- --- --------<br>-------- ----------- ---- ------ ---- ------ ---- --- ---<br>-------- --- -----,271303,271302.292,264302.896,264303.39999997616,264319.29,271318.48,,6,a
screen,html.Screen,2_3_1_0_1_7,2022-05-09T13:30:20.429Z,,,,,,,,,,,,,,,,,40,,,,,,,,,,,,,,6999.572000000044,,timeout,,,,9,F,,,,,,,,,,,lyrical,,,,------ -- ------- ---- ---- ---- - lemonade ----- --- --<br>----- ----- ------ -- ---- -- --- - ---- -- - ----- -----<br>------ ---- ------ ---- - -------- ------- -- --- --------<br>-------- ----------- ---- ------ ---- ------ ---- --- ---<br>-------- --- -----,278301.8000000119,278301.166,271302.292,271303,271318.48,278318.052,,7,lemonade
screen,html.Screen,2_3_1_0_1_8,2022-05-09T13:30:23.577Z,,,,,,,,,,,,,,,,,40,,,,,,,,,,,,,,3130.748000011896,,response,,,,9,F,,,,,,Space,keypress(Space),,,,lyrical,,,,------ -- ------- ---- ---- ---- - -------- stand --- --<br>----- ----- ------ -- ---- -- --- - ---- -- - ----- -----<br>------ ---- ------ ---- - -------- ------- -- --- --------<br>-------- ----------- ---- ------ ---- ------ ---- --- ---<br>-------- --- -----,281449.39999997616,281448.8000000119,278301.166,278301.89999997616,278318.052,281450.856,,8,stand
screen,html.Screen,2_3_1_0_1_9,2022-05-09T13:30:23.892Z,,,,,,,,,,,,,,,,,40,,,,,,,,,,,,,,313.8439999880502,,response,,,,9,F,,,,,,Space,keypress(Space),,,,lyrical,,,,------ -- ------- ---- ---- ---- - -------- ----- run --<br>----- ----- ------ -- ---- -- --- - ---- -- - ----- -----<br>------ ---- ------ ---- - -------- ------- -- --- --------<br>-------- ----------- ---- ------ ---- ------ ---- --- ---<br>-------- --- -----,281765.1999999881,281764.6999999881,281449.09,281449.39999997616,281450.856,281767.413,,9,run
screen,html.Screen,2_3_1_0_1_10,2022-05-09T13:30:24.229Z,,,,,,,,,,,,,,,,,40,,,,,,,,,,,,,,333.1870000238414,,response,,,,9,F,,,,,,Space,keypress(Space),,,,lyrical,,,,------ -- ------- ---- ---- ---- - -------- ----- --- by<br>----- ----- ------ -- ---- -- --- - ---- -- - ----- -----<br>------ ---- ------ ---- - -------- ------- -- --- --------<br>-------- ----------- ---- ------ ---- ------ ---- --- ---<br>-------- --- -----,282101.1999999881,282100.60000002384,281749.071,281765.1999999881,281767.413,282117.464,,10,by
screen,html.Screen,2_3_1_0_1_11,2022-05-09T13:30:24.551Z,,,,,,,,,,,,,,,,,40,,,,,,,,,,,,,,305.43599997618,,response,,,,9,F,,,,,,Space,keypress(Space),,,,lyrical,,,,------ -- ------- ---- ---- ---- - -------- ----- --- --<br>three ----- ------ -- ---- -- --- - ---- -- - ----- -----<br>------ ---- ------ ---- - -------- ------- -- --- --------<br>-------- ----------- ---- ------ ---- ------ ---- --- ---<br>-------- --- -----,282423.39999997616,282422.89999997616,282099.017,282101.3000000119,282117.464,282434.118,,11,three
screen,html.Screen,2_3_1_0_1_12,2022-05-09T13:30:24.878Z,,,,,,,,,,,,,,,,,40,,,,,,,,,,,,,,315.7819999761414,,response,,,,9,F,,,,,,Space,keypress(Space),,,,lyrical,,,,------ -- ------- ---- ---- ---- - -------- ----- --- --<br>----- girls ------ -- ---- -- --- - ---- -- - ----- -----<br>------ ---- ------ ---- - -------- ------- -- --- --------<br>-------- ----------- ---- ------ ---- ------ ---- --- ---<br>-------- --- -----,282750.60000002384,282749.89999997616,282415.766,282423.39999997616,282434.118,282767.695,,12,girls
screen,html.Screen,2_3_1_0_1_13,2022-05-09T13:30:25.204Z,,,,,,,,,,,,,,,,,40,,,,,,,,,,,,,,308.804999999993,,response,,,,9,F,,,,,,Space,keypress(Space),,,,lyrical,,,,------ -- ------- ---- ---- ---- - -------- ----- --- --<br>----- ----- trying -- ---- -- --- - ---- -- - ----- -----<br>------ ---- ------ ---- - -------- ------- -- --- --------<br>-------- ----------- ---- ------ ---- ------ ---- --- ---<br>-------- --- -----,283077.10000002384,283076.5,282748.798,282750.60000002384,282767.695,283084.3,,13,trying
screen,html.Screen,2_3_1_0_1_14,2022-05-09T13:30:25.527Z,,,,,,,,,,,,,,,,,40,,,,,,,,,,,,,,314.3000000238535,,response,,,,9,F,,,,,,Space,keypress(Space),,,,lyrical,,,,------ -- ------- ---- ---- ---- - -------- ----- --- --<br>----- ----- ------ to ---- -- --- - ---- -- - ----- -----<br>------ ---- ------ ---- - -------- ------- -- --- --------<br>-------- ----------- ---- ------ ---- ------ ---- --- ---<br>-------- --- -----,283399.1999999881,283398.60000002384,283065.818,283077.1999999881,283084.3,283432.154,,14,to
screen,html.Screen,2_3_1_0_1_15,2022-05-09T13:30:25.832Z,,,,,,,,,,,,,,,,,40,,,,,,,,,,,,,,272.34600000001956,,response,,,,9,F,,,,,,Space,keypress(Space),,,,lyrical,,,,------ -- ------- ---- ---- ---- - -------- ----- --- --<br>----- ----- ------ -- save -- --- - ---- -- - ----- -----<br>------ ---- ------ ---- - -------- ------- -- --- --------<br>-------- ----------- ---- ------ ---- ------ ---- --- ---<br>-------- --- -----,283704.89999997616,283704.5,283398.664,283399.3000000119,283432.154,283717.242,,15,save
screen,html.Screen,2_3_1_0_1_16,2022-05-09T13:30:26.139Z,,,,,,,,,,,,,,,,,40,,,,,,,,,,,,,,293.65799997613067,,response,,,,9,F,,,,,,Space,keypress(Space),,,,lyrical,,,,------ -- ------- ---- ---- ---- - -------- ----- --- --<br>----- ----- ------ -- ---- up --- - ---- -- - ----- -----<br>------ ---- ------ ---- - -------- ------- -- --- --------<br>-------- ----------- ---- ------ ---- ------ ---- --- ---<br>-------- --- -----,284011.39999997616,284010.89999997616,283699.177,283705,283717.242,284017.229,,16,up
screen,html.Screen,2_3_1_0_1_17,2022-05-09T13:30:26.481Z,,,,,,,,,,,,,,,,,40,,,,,,,,,,,,,,335.970999988087,,response,,,,9,F,,,,,,Space,keypress(Space),,,,lyrical,,,,------ -- ------- ---- ---- ---- - -------- ----- --- --<br>----- ----- ------ -- ---- -- for - ---- -- - ----- -----<br>------ ---- ------ ---- - -------- ------- -- --- --------<br>-------- ----------- ---- ------ ---- ------ ---- --- ---<br>-------- --- -----,284353.6999999881,284353.1999999881,283999.271,284011.5,284017.229,284367.501,,17,for
screen,html.Screen,2_3_1_0_1_18,2022-05-09T13:30:26.819Z,,,,,,,,,,,,,,,,,40,,,,,,,,,,,,,,323.09900002385257,,response,,,,9,F,,,,,,Space,keypress(Space),,,,lyrical,,,,------ -- ------- ---- ---- ---- - -------- ----- --- --<br>----- ----- ------ -- ---- -- --- a ---- -- - ----- -----<br>------ ---- ------ ---- - -------- ------- -- --- --------<br>-------- ----------- ---- ------ ---- ------ ---- --- ---<br>-------- --- -----,284691.1999999881,284690.60000002384,284348.926,284353.6999999881,284367.501,284700.875,,18,a
screen,html.Screen,2_3_1_0_1_19,2022-05-09T13:30:27.124Z,,,,,,,,,,,,,,,,,40,,,,,,,,,,,,,,295.02499997615814,,response,,,,9,F,,,,,,Space,keypress(Space),,,,lyrical,,,,------ -- ------- ---- ---- ---- - -------- ----- --- --<br>----- ----- ------ -- ---- -- --- - trip -- - ----- -----<br>------ ---- ------ ---- - -------- ------- -- --- --------<br>-------- ----------- ---- ------ ---- ------ ---- --- ---<br>-------- --- -----,284996.60000002384,284995.89999997616,284682.177,284691.3000000119,284700.875,285000.515,,19,trip
screen,html.Screen,2_3_1_0_1_20,2022-05-09T13:30:27.396Z,,,,,,,,,,,,,,,,,40,,,,,,,,,,,,,,267.3849999761442,,response,,,,9,F,,,,,,Space,keypress(Space),,,,lyrical,,,,------ -- ------- ---- ---- ---- - -------- ----- --- --<br>----- ----- ------ -- ---- -- --- - ---- to - ----- -----<br>------ ---- ------ ---- - -------- ------- -- --- --------<br>-------- ----------- ---- ------ ---- ------ ---- --- ---<br>-------- --- -----,285268.39999997616,285267.89999997616,284982.022,284996.6999999881,285000.515,285284.211,,20,to
screen,html.Screen,2_3_1_0_1_21,2022-05-09T13:30:27.672Z,,,,,,,,,,,,,,,,,40,,,,,,,,,,,,,,259.6889999761479,,response,,,,9,F,,,,,,Space,keypress(Space),,,,lyrical,,,,------ -- ------- ---- ---- ---- - -------- ----- --- --<br>----- ----- ------ -- ---- -- --- - ---- -- a ----- -----<br>------ ---- ------ ---- - -------- ------- -- --- --------<br>-------- ----------- ---- ------ ---- ------ ---- --- ---<br>-------- --- -----,285544.39999997616,285543.89999997616,285265.509,285268.5,285284.211,285550.661,,21,a
screen,html.Screen,2_3_1_0_1_22,2022-05-09T13:30:27.935Z,,,,,,,,,,,,,,,,,40,,,,,,,,,,,,,,255.8389999999781,,response,,,,9,F,,,,,,Space,keypress(Space),,,,lyrical,,,,------ -- ------- ---- ---- ---- - -------- ----- --- --<br>----- ----- ------ -- ---- -- --- - ---- -- - water -----<br>------ ---- ------ ---- - -------- ------- -- --- --------<br>-------- ----------- ---- ------ ---- ------ ---- --- ---<br>-------- --- -----,285807.1999999881,285806.5,285532.24,285544.5,285550.661,285817.357,,22,water
screen,html.Screen,2_3_1_0_1_23,2022-05-09T13:30:28.251Z,,,,,,,,,,,,,,,,,40,,,,,,,,,,,,,,305.3429999880609,,response,,,,9,F,,,,,,Space,keypress(Space),,,,lyrical,,,,"------ -- ------- ---- ---- ---- - -------- ----- --- --<br>----- ----- ------ -- ---- -- --- - ---- -- - ----- park,<br>------ ---- ------ ---- - -------- ------- -- --- --------<br>-------- ----------- ---- ------ ---- ------ ---- --- ---<br>-------- --- -----",286123.10000002384,286122.6999999881,285798.914,285807.1999999881,285817.357,286133.821,,23,"park,"
screen,html.Screen,2_3_1_0_1_24,2022-05-09T13:30:28.552Z,,,,,,,,,,,,,,,,,40,,,,,,,,,,,,,,290.8789999880828,,response,,,,9,F,,,,,,Space,keypress(Space),,,,lyrical,,,,------ -- ------- ---- ---- ---- - -------- ----- --- --<br>----- ----- ------ -- ---- -- --- - ---- -- - ----- -----<br>saying ---- ------ ---- - -------- ------- -- --- --------<br>-------- ----------- ---- ------ ---- ------ ---- --- ---<br>-------- --- -----,286425.10000002384,286424.6999999881,286115.622,286123.1999999881,286133.821,286433.929,,24,saying
screen,html.Screen,2_3_1_0_1_25,2022-05-09T13:30:28.849Z,,,,,,,,,,,,,,,,,40,,,,,,,,,,,,,,287.0709999999963,,response,,,,9,F,,,,,,Space,keypress(Space),,,,lyrical,,,,------ -- ------- ---- ---- ---- - -------- ----- --- --<br>----- ----- ------ -- ---- -- --- - ---- -- - ----- -----<br>------ they ------ ---- - -------- ------- -- --- --------<br>-------- ----------- ---- ------ ---- ------ ---- --- ---<br>-------- --- -----,286721.5,286721,286415.219,286425.1999999881,286433.929,286733.614,,25,they
screen,html.Screen,2_3_1_0_1_26,2022-05-09T13:30:29.060Z,,,,,,,,,,,,,,,,,40,,,,,,,,,,,,,,198.48600002384046,,response,,,,9,F,,,,,,Space,keypress(Space),,,,lyrical,,,,------ -- ------- ---- ---- ---- - -------- ----- --- --<br>----- ----- ------ -- ---- -- --- - ---- -- - ----- -----<br>------ ---- didn't ---- - -------- ------- -- --- --------<br>-------- ----------- ---- ------ ---- ------ ---- --- ---<br>-------- --- -----,286932.6999999881,286932.10000002384,286715.335,286721.60000002384,286733.614,286965.279,,26,didn't
screen,html.Screen,2_3_1_0_1_27,2022-05-09T13:30:29.385Z,,,,,,,,,,,,,,,,,40,,,,,,,,,,,,,,292.42099998809863,,response,,,,9,F,,,,,,Space,keypress(Space),,,,lyrical,,,,------ -- ------- ---- ---- ---- - -------- ----- --- --<br>----- ----- ------ -- ---- -- --- - ---- -- - ----- -----<br>------ ---- ------ have - -------- ------- -- --- --------<br>-------- ----------- ---- ------ ---- ------ ---- --- ---<br>-------- --- -----,287258.10000002384,287257.6999999881,286932.498,286932.6999999881,286965.279,287266.91,,27,have
screen,html.Screen,2_3_1_0_1_28,2022-05-09T13:30:29.662Z,,,,,,,,,,,,,,,,,40,,,,,,,,,,,,,,267.19000002386747,,response,,,,9,F,,,,,,Space,keypress(Space),,,,lyrical,,,,------ -- ------- ---- ---- ---- - -------- ----- --- --<br>----- ----- ------ -- ---- -- --- - ---- -- - ----- -----<br>------ ---- ------ ---- a -------- ------- -- --- --------<br>-------- ----------- ---- ------ ---- ------ ---- --- ---<br>-------- --- -----,287534.60000002384,287534.10000002384,287248.694,287258.1999999881,287266.91,287550.472,,28,a
screen,html.Screen,2_3_1_0_1_29,2022-05-09T13:30:29.936Z,,,,,,,,,,,,,,,,,40,,,,,,,,,,,,,,257.3280000119121,,response,,,,9,F,,,,,,Space,keypress(Space),,,,lyrical,,,,------ -- ------- ---- ---- ---- - -------- ----- --- --<br>----- ----- ------ -- ---- -- --- - ---- -- - ----- -----<br>------ ---- ------ ---- - business ------- -- --- --------<br>-------- ----------- ---- ------ ---- ------ ---- --- ---<br>-------- --- -----,287808.3000000119,287807.8000000119,287532.186,287534.6999999881,287550.472,287816.837,,29,business
screen,html.Screen,2_3_1_0_1_30,2022-05-09T13:30:30.160Z,,,,,,,,,,,,,,,,,40,,,,,,,,,,,,,,215.26300002384232,,response,,,,9,F,,,,,,Space,keypress(Space),,,,lyrical,,,,------ -- ------- ---- ---- ---- - -------- ----- --- --<br>----- ----- ------ -- ---- -- --- - ---- -- - ----- -----<br>------ ---- ------ ---- - -------- license -- --- --------<br>-------- ----------- ---- ------ ---- ------ ---- --- ---<br>-------- --- -----,288032.6999999881,288032.10000002384,287799.117,287808.39999997616,287816.837,288065.956,,30,license
screen,html.Screen,2_3_1_0_1_31,2022-05-09T13:30:30.432Z,,,,,,,,,,,,,,,,,40,,,,,,,,,,,,,,238.44399997615255,,response,,,,9,F,,,,,,Space,keypress(Space),,,,lyrical,,,,------ -- ------- ---- ---- ---- - -------- ----- --- --<br>----- ----- ------ -- ---- -- --- - ---- -- - ----- -----<br>------ ---- ------ ---- - -------- ------- or --- --------<br>-------- ----------- ---- ------ ---- ------ ---- --- ---<br>-------- --- -----,288304.89999997616,288304.39999997616,288032.568,288032.6999999881,288065.956,288316.883,,31,or
screen,html.Screen,2_3_1_0_1_32,2022-05-09T13:30:30.718Z,,,,,,,,,,,,,,,,,40,,,,,,,,,,,,,,273.5169999761856,,response,,,,9,F,,,,,,Space,keypress(Space),,,,lyrical,,,,------ -- ------- ---- ---- ---- - -------- ----- --- --<br>----- ----- ------ -- ---- -- --- - ---- -- - ----- -----<br>------ ---- ------ ---- - -------- ------- -- the --------<br>-------- ----------- ---- ------ ---- ------ ---- --- ---<br>-------- --- -----,288590.89999997616,288590.39999997616,288299.145,288305,288316.883,288600.084,,32,the
screen,html.Screen,2_3_1_0_1_33,2022-05-09T13:30:31.080Z,,,,,,,,,,,,,,,,,40,,,,,,,,,,,,,,352.41600000002654,,response,,,,9,F,,,,,,Space,keypress(Space),,,,lyrical,,,,------ -- ------- ---- ---- ---- - -------- ----- --- --<br>----- ----- ------ -- ---- -- --- - ---- -- - ----- -----<br>------ ---- ------ ---- - -------- ------- -- --- required<br>-------- ----------- ---- ------ ---- ------ ---- --- ---<br>-------- --- -----,288953,288952.5,288582.216,288590.89999997616,288600.084,288966.765,,33,required
screen,html.Screen,2_3_1_0_1_34,2022-05-09T13:30:31.245Z,,,,,,,,,,,,,,,,,40,,,,,,,,,,,,,,150.8350000238279,,response,,,,9,F,,,,,,Space,keypress(Space),,,,lyrical,,,,------ -- ------- ---- ---- ---- - -------- ----- --- --<br>----- ----- ------ -- ---- -- --- - ---- -- - ----- -----<br>------ ---- ------ ---- - -------- ------- -- --- --------<br>permits. ----------- ---- ------ ---- ------ ---- --- ---<br>-------- --- -----,289118,289117.60000002384,288948.288,288953,288966.765,289133.836,,34,permits.
screen,html.Screen,2_3_1_0_1_35,2022-05-09T13:30:31.508Z,,,,,,,,,,,,,,,,,40,,,,,,,,,,,,,,245.86399998806883,,response,,,,9,F,,,,,,Space,keypress(Space),,,,lyrical,,,,------ -- ------- ---- ---- ---- - -------- ----- --- --<br>----- ----- ------ -- ---- -- --- - ---- -- - ----- -----<br>------ ---- ------ ---- - -------- ------- -- --- --------<br>-------- Morningstar ---- ------ ---- ------ ---- --- ---<br>-------- --- -----,289380.1999999881,289379.6999999881,289116.219,289118.10000002384,289133.836,289383.573,,35,Morningstar
screen,html.Screen,2_3_1_0_1_36,2022-05-09T13:30:31.874Z,,,,,,,,,,,,,,,,,40,,,,,,,,,,,,,,362.8269999761833,,response,,,,9,F,,,,,,Space,keypress(Space),,,,lyrical,,,,------ -- ------- ---- ---- ---- - -------- ----- --- --<br>----- ----- ------ -- ---- -- --- - ---- -- - ----- -----<br>------ ---- ------ ---- - -------- ------- -- --- --------<br>-------- ----------- says ------ ---- ------ ---- --- ---<br>-------- --- -----,289747,289746.39999997616,289365.456,289380.1999999881,289383.573,289750.251,,36,says
screen,html.Screen,2_3_1_0_1_37,2022-05-09T13:30:32.146Z,,,,,,,,,,,,,,,,,40,,,,,,,,,,,,,,267.64899997616885,,response,,,,9,F,,,,,,Space,keypress(Space),,,,lyrical,,,,------ -- ------- ---- ---- ---- - -------- ----- --- --<br>----- ----- ------ -- ---- -- --- - ---- -- - ----- -----<br>------ ---- ------ ---- - -------- ------- -- --- --------<br>-------- ----------- ---- police ---- ------ ---- --- ---<br>-------- --- -----,290018.39999997616,290017.89999997616,289731.267,289747.10000002384,289750.251,290033.613,,37,police
screen,html.Screen,2_3_1_0_1_38,2022-05-09T13:30:32.410Z,,,,,,,,,,,,,,,,,40,,,,,,,,,,,,,,249.08699998806696,,response,,,,9,F,,,,,,Space,keypress(Space),,,,lyrical,,,,------ -- ------- ---- ---- ---- - -------- ----- --- --<br>----- ----- ------ -- ---- -- --- - ---- -- - ----- -----<br>------ ---- ------ ---- - -------- ------- -- --- --------<br>-------- ----------- ---- ------ also ------ ---- --- ---<br>-------- --- -----,290283.1999999881,290282.6999999881,290015.483,290018.5,290033.613,290299.942,,38,also
screen,html.Screen,2_3_1_0_1_39,2022-05-09T13:30:32.729Z,,,,,,,,,,,,,,,,,40,,,,,,,,,,,,,,301.15800002386095,,response,,,,9,F,,,,,,Space,keypress(Space),,,,lyrical,,,,------ -- ------- ---- ---- ---- - -------- ----- --- --<br>----- ----- ------ -- ---- -- --- - ---- -- - ----- -----<br>------ ---- ------ ---- - -------- ------- -- --- --------<br>-------- ----------- ---- ------ ---- didn't ---- --- ---<br>-------- --- -----,290601.60000002384,290601.10000002384,290281.764,290283.1999999881,290299.942,290616.676,,39,didn't
screen,html.Screen,2_3_1_0_1_40,2022-05-09T13:30:32.940Z,,,,,,,,,,,,,,,,,40,,,,,,,,,,,,,,196.02399998810142,,response,,,,9,F,,,,,,Space,keypress(Space),,,,lyrical,,,,------ -- ------- ---- ---- ---- - -------- ----- --- --<br>----- ----- ------ -- ---- -- --- - ---- -- - ----- -----<br>------ ---- ------ ---- - -------- ------- -- --- --------<br>-------- ----------- ---- ------ ---- ------ know --- ---<br>-------- --- -----,290813.10000002384,290812.6999999881,290598.039,290601.8000000119,290616.676,290816.805,,40,know
screen,html.Screen,2_3_1_0_1_41,2022-05-09T13:30:33.092Z,,,,,,,,,,,,,,,,,40,,,,,,,,,,,,,,146.9950000119279,,response,,,,9,F,,,,,,Space,keypress(Space),,,,lyrical,,,,------ -- ------- ---- ---- ---- - -------- ----- --- --<br>----- ----- ------ -- ---- -- --- - ---- -- - ----- -----<br>------ ---- ------ ---- - -------- ------- -- --- --------<br>-------- ----------- ---- ------ ---- ------ ---- how ---<br>-------- --- -----,290964.39999997616,290963.8000000119,290798.97,290813.1999999881,290816.805,290966.471,,41,how
screen,html.Screen,2_3_1_0_1_42,2022-05-09T13:30:33.396Z,,,,,,,,,,,,,,,,,40,,,,,,,,,,,,,,302.1290000238223,,response,,,,9,F,,,,,,Space,keypress(Space),,,,lyrical,,,,------ -- ------- ---- ---- ---- - -------- ----- --- --<br>----- ----- ------ -- ---- -- --- - ---- -- - ----- -----<br>------ ---- ------ ---- - -------- ------- -- --- --------<br>-------- ----------- ---- ------ ---- ------ ---- --- the<br>-------- --- -----,291269.10000002384,291268.60000002384,290949.508,290964.5,290966.471,291283.349,,42,the
screen,html.Screen,2_3_1_0_1_43,2022-05-09T13:30:33.692Z,,,,,,,,,,,,,,,,,40,,,,,,,,,,,,,,281.0509999761707,,response,,,,9,F,,,,,,Space,keypress(Space),,,,lyrical,,,,------ -- ------- ---- ---- ---- - -------- ----- --- --<br>----- ----- ------ -- ---- -- --- - ---- -- - ----- -----<br>------ ---- ------ ---- - -------- ------- -- --- --------<br>-------- ----------- ---- ------ ---- ------ ---- --- ---<br>lemonade --- -----,291564.6999999881,291564.39999997616,291265.032,291269.10000002384,291283.349,291566.444,,43,lemonade
screen,html.Screen,2_3_1_0_1_44,2022-05-09T13:30:34.075Z,,,,,,,,,,,,,,,,,40,,,,,,,,,,,,,,380.95599997614045,,response,,,,9,F,,,,,,Space,keypress(Space),,,,lyrical,,,,------ -- ------- ---- ---- ---- - -------- ----- --- --<br>----- ----- ------ -- ---- -- --- - ---- -- - ----- -----<br>------ ---- ------ ---- - -------- ------- -- --- --------<br>-------- ----------- ---- ------ ---- ------ ---- --- ---<br>-------- was -----,291947.89999997616,291947.39999997616,291565.006,291564.8000000119,291566.444,291949.744,,44,was
screen,html.Screen,2_3_1_0_1_45,2022-05-09T13:30:34.402Z,,,,,,,,,,,,,,,,,40,,,,,,,,,,,,,,324.5560000119149,,response,,,,9,F,,,,,,Space,keypress(Space),,,,lyrical,,,,------ -- ------- ---- ---- ---- - -------- ----- --- --<br>----- ----- ------ -- ---- -- --- - ---- -- - ----- -----<br>------ ---- ------ ---- - -------- ------- -- --- --------<br>-------- ----------- ---- ------ ---- ------ ---- --- ---<br>-------- --- made.,292274.8000000119,292274.3000000119,291947.707,291948,291949.744,292283.06,,45,made.
Item 9,flow.Loop,2_3_1_0_1,2022-05-09T13:30:34.402Z,,,,,,,,,,,,,,,,,,,,,,,,,,,,,,,69950.86500001192,,completion,,,,,,,,,,,,,,,,,,,,,292274.8000000119,292274.3000000119,222307.024,222307.60000002384,222323.435,292283.06,,,
Question 1,html.Screen,2_3_1_0_2,2022-05-09T13:30:36.941Z,,,,,,,,,,,,,,,,,,,,,,,,,,,,true,FALSE,,2529.9400000000023,,response,,,,9,F,,,,,,FALSE,click #choice-2,,,,lyrical,,,,,294813.60000002384,294813,292264.832,292274.89999997616,292283.06,294816.117,,,
Question 2,html.Screen,2_3_1_0_3,2022-05-09T13:30:39.041Z,,,,,,,,,,,,,,,,,,,,,,,,,,,,true,FALSE,,2096.6830000118935,,response,,,,9,F,,,,,,FALSE,click #choice-2,,,,lyrical,,,,,296913.6999999881,296912.8000000119,294800.134,294813.6999999881,294816.117,296915.908,,,
Item 9,flow.Sequence,2_3_1_0,2022-05-09T13:30:39.041Z,,,,,,,,,,,,,,,,,,,,,,,,,,,,,,,81588.71100001191,,completion,,,,,,,,,,,,,,,,,,,,,296913.8000000119,296912.8000000119,215307.474,215308,215324.089,296915.908,,,
