sender,sender_type,sender_id,timestamp,meta,,Blues,Classical,Country,Dance,Electronic,Folk,Gospel,Hip-Hop,Jazz,Latin,Musical/Film,New-age,Pop,Prolific_id,Provo_ID,R&B,Rap,Reggae,Religious,Rock,Soul,Swing,Traditional,age,artist_name,correct,correctResponse,distraction,duration,education,ended_on,familiarity,gender,headphone_check_performance,item,list,music_frequency,offensiveness,pleasantness,position_correct,preference,response,response_action,snippet_file,song_name,song_rating,sound,stimulus_1,stimulus_2,stimulus_3,text,time_commit,time_end,time_render,time_run,time_show,time_switch,url,word,word_ID
Prolific ID,html.Form,0,2022-05-02T10:15:12.679Z,"{""labjs_version"":""20.2.2"",""labjs_build"":{""flavor"":""production"",""commit"":""a25486e0c714a0ae2ce03ff94b7bb6896854dcfa""},""location"":""https://run.pavlovia.org/mvasilev/prolific3_music_e/"",""userAgent"":""Mozilla/5.0 (Windows NT 10.0; Win64; x64; rv:99.0) Gecko/20100101 Firefox/99.0"",""platform"":""Win32"",""language"":""en-US"",""locale"":""en-GB"",""timeZone"":""Europe/London"",""timezoneOffset"":-60,""screen_width"":1536,""screen_height"":864,""scroll_width"":1536,""scroll_height"":683,""window_innerWidth"":1536,""window_innerHeight"":731,""devicePixelRatio"":1.25}",,,,,,,,,,,,,,,5d920df12b679a00182bbc73,,,,,,,,,,,,,,,9259.48,,form submission,,,,,,,,,,,,,,,,,,,,,26280,26279,17001.98,17001,17019.52,26289.34,{},,
Introduction,html.Screen,1_0,2022-05-02T10:15:25.754Z,,,,,,,,,,,,,,,,,,,,,,,,,,,,,,,13053.66,,response,,,,,,,,,,,continue,click button,,,,,,,,,39355,39343,26271.34,26281,26289.34,39361.72,,,
Volume calibration,html.Screen,1_1,2022-05-02T10:15:50.162Z,,,,,,,,,,,,,,,,,,,,,,,,,,,,,,,24386.28,,response,,,,,,,,,,,continue,click button,,,,,,,,,63763,63748,39352.98,39355,39361.72,63770.56,,,
Task instructions,html.Screen,1_2,2022-05-02T10:15:56.407Z,,,,,,,,,,,,,,,,,,,,,,,,,,,,,,,6228.440000000002,,response,,,,,,,,,,,continue,click button,,,,,,,,,70008,69999,63761.82,63763,63770.56,70006.7,,,
Sounds,html.Screen,1_3_0_0,2022-05-02T10:16:00.643Z,,,,,,,,,,,,,,,,,,,,,,,,,,,,,,,4252.300000000003,,timeout,,,,,,,,,1,,,,,,,,S,O,I,,74244,74242.32,70006.22,70009,70006.7,74259,,,
Judgement,html.Screen,1_3_0_1,2022-05-02T10:16:02.261Z,,,,,,,,,,,,,,,,,,,,,,,,,,,,true,1,,1583,,response,,,,,,,,,1,,1,click #choice-1,,,,,S,O,I,,75861,75842,74242.32,74244,74259,75859.22,,,
Trial,flow.Sequence,1_3_0,2022-05-02T10:16:02.262Z,,,,,,,,,,,,,,,,,,,,,,,,,,,,,,,5835.300000000003,,completion,,,,,,,,,1,,,,,,,,S,O,I,,75862,75842,70006.22,70009,70006.7,75859.22,,,
Sounds,html.Screen,1_3_1_0,2022-05-02T10:16:06.495Z,,,,,,,,,,,,,,,,,,,,,,,,,,,,,,,4250.619999999995,,timeout,,,,,,,,,1,,,,,,,,S,I,O,,80096,80093.18,75858.9,75863,75859.22,80109.84,,,
Judgement,html.Screen,1_3_1_1,2022-05-02T10:16:07.192Z,,,,,,,,,,,,,,,,,,,,,,,,,,,,true,1,,669.1600000000035,,response,,,,,,,,,1,,1,click #choice-1,,,,,S,I,O,,80793,80779,80093.18,80096,80109.84,80793.28,,,
Trial,flow.Sequence,1_3_1,2022-05-02T10:16:07.193Z,,,,,,,,,,,,,,,,,,,,,,,,,,,,,,,4919.779999999999,,completion,,,,,,,,,1,,,,,,,,S,I,O,,80793,80779,75858.9,75863,75859.22,80793.28,,,
Sounds,html.Screen,1_3_2_0,2022-05-02T10:16:11.431Z,,,,,,,,,,,,,,,,,,,,,,,,,,,,,,,4252.380000000005,,timeout,,,,,,,,,3,,,,,,,,O,I,S,,85032,85028.98,80791.22,80795,80793.28,85045.66,,,
Judgement,html.Screen,1_3_2_1,2022-05-02T10:16:12.302Z,,,,,,,,,,,,,,,,,,,,,,,,,,,,true,3,,843.3399999999965,,response,,,,,,,,,3,,3,click #choice-3,,,,,O,I,S,,85903,85889,85028.98,85033,85045.66,85912.44,,,
Trial,flow.Sequence,1_3_2,2022-05-02T10:16:12.302Z,,,,,,,,,,,,,,,,,,,,,,,,,,,,,,,5095.720000000001,,completion,,,,,,,,,3,,,,,,,,O,I,S,,85903,85889,80791.22,80795,80793.28,85912.44,,,
Sounds,html.Screen,1_3_3_0,2022-05-02T10:16:16.550Z,,,,,,,,,,,,,,,,,,,,,,,,,,,,,,,4252.440000000002,,timeout,,,,,,,,,2,,,,,,,,O,S,I,,90151,90148.22,85901.28,85904,85912.44,90164.88,,,
Judgement,html.Screen,1_3_3_1,2022-05-02T10:16:17.502Z,,,,,,,,,,,,,,,,,,,,,,,,,,,,true,2,,928.1199999999953,,response,,,,,,,,,2,,2,click #choice-2,,,,,O,S,I,,91103,91093,90148.22,90151,90164.88,91115.02,,,
Trial,flow.Sequence,1_3_3,2022-05-02T10:16:17.503Z,,,,,,,,,,,,,,,,,,,,,,,,,,,,,,,5180.559999999998,,completion,,,,,,,,,2,,,,,,,,O,S,I,,91103,91093,85901.28,85904,85912.44,91115.02,,,
Sounds,html.Screen,1_3_4_0,2022-05-02T10:16:21.751Z,,,,,,,,,,,,,,,,,,,,,,,,,,,,,,,4250.619999999995,,timeout,,,,,,,,,3,,,,,,,,I,O,S,,95351,95348.98,91101.56,91104,91115.02,95365.64,,,
Judgement,html.Screen,1_3_4_1,2022-05-02T10:16:22.521Z,,,,,,,,,,,,,,,,,,,,,,,,,,,,true,3,,742.3600000000006,,response,,,,,,,,,3,,3,click #choice-3,,,,,I,O,S,,96122,96108,95348.98,95351,95365.64,96134.12,,,
Trial,flow.Sequence,1_3_4,2022-05-02T10:16:22.522Z,,,,,,,,,,,,,,,,,,,,,,,,,,,,,,,4992.979999999996,,completion,,,,,,,,,3,,,,,,,,I,O,S,,96122,96108,91101.56,91104,91115.02,96134.12,,,
Sounds,html.Screen,1_3_5_0,2022-05-02T10:16:26.770Z,,,,,,,,,,,,,,,,,,,,,,,,,,,,,,,4250.62000000001,,timeout,,,,,,,,,2,,,,,,,,I,S,O,,100370,100368.06,96121.08,96123,96134.12,100384.74,,,
Judgement,html.Screen,1_3_5_1,2022-05-02T10:16:27.652Z,,,,,,,,,,,,,,,,,,,,,,,,,,,,true,2,,864.2599999999948,,response,,,,,,,,,2,,2,click #choice-2,,,,,I,S,O,,101253,101249,100368.06,100371,100384.74,101251.52,,,
Trial,flow.Sequence,1_3_5,2022-05-02T10:16:27.653Z,,,,,,,,,,,,,,,,,,,,,,,,,,,,,,,5114.880000000005,,completion,,,,,,,,,2,,,,,,,,I,S,O,,101254,101249,96121.08,96123,96134.12,101251.52,,,
Task,flow.Loop,1_3,2022-05-02T10:16:27.654Z,,,,,,,,,,,,,,,,,,,,,,,,,,,,,,,31242.300000000003,,completion,,,1,,,,,,,,,,,,,,,,,,101255,101249,70006.22,70009,70006.7,101251.52,,,
Trap,html.Screen,1_4,2022-05-02T10:16:27.661Z,,,,,,,,,,,,,,,,,,,,,,,,,,,,,,,NaN,,skipped,,,,,,,,,,,,,,,,,,,,,101262,101249,,101262,,101251.52,,,
Thanks,html.Screen,1_5,2022-05-02T10:16:33.062Z,,,,,,,,,,,,,,,,,,,,,,,,,,,,,,,5403.479999999996,,response,,,,,,,,,,,continue,click button,,,,,,,,,106663,106655,101251.3,101262,101251.52,111972.8,,,
Headphone screening,flow.Sequence,1,2022-05-02T10:16:33.062Z,,,,,,,,,,,,,,,,,,,,,,,,,,,,,,,80365.66,,completion,,,,,,,,,,,,,,,,,,,,,106663,106655,26271.34,26281,26289.34,111972.8,,,
Instructions,html.Page,2_0,2022-05-02T10:16:59.606Z,,,,,,,,,,,,,,,,,,,,,,,,,,,,,,,21234.199999999997,,form submission,,,,,,,,,,,,,,,,,,,,,133207,133207,111956.12,111945,111972.8,133214.56,,,
Holding screen,html.Screen,2_1_0_0,2022-05-02T10:17:09.602Z,,,,,,,,,,,,,,,,,,,,,,,,,,,,,,,10003.01999999999,,timeout,,,,,,,,,,,,,,,,,,,,,143203,143200.92,133200.62,133208,133214.56,143217.58,,,
screen,html.Screen,2_1_0_1_0,2022-05-02T10:17:10.564Z,,,,,,,,,,,,,,,,,53,,,,,,,,,,,,,,937.4200000000128,,response,,,,99,,,,,,,Space,keypress(Space),,,,,,,,When -- ----- -- ------ - ------- --- ----------<br>------------- ------ ------ ---- ---- ------- ----- -- ----<br>-------- ------- -- ---------- --- - --- ----- ----- ----<br>---- --- --- ----- --- ---- ---- ------- ----- ---- -------<br>--- --- -- ----- -- --- ---- -- --- ---- -- ------ ------<br>--- ----- -- ----,144166,144155,143200.92,143204,143217.58,144167.72,,0,When
screen,html.Screen,2_1_0_1_1,2022-05-02T10:17:11.005Z,,,,,,,,,,,,,,,,,53,,,,,,,,,,,,,,425.27999999999884,,response,,,,99,,,,,,,Space,keypress(Space),,,,,,,,---- it ----- -- ------ - ------- --- ----------<br>------------- ------ ------ ---- ---- ------- ----- -- ----<br>-------- ------- -- ---------- --- - --- ----- ----- ----<br>---- --- --- ----- --- ---- ---- ------- ----- ---- -------<br>--- --- -- ----- -- --- ---- -- --- ---- -- ------ ------<br>--- ----- -- ----,144606,144593,144165.86,144166,144167.72,144617.78,,1,it
screen,html.Screen,2_1_0_1_2,2022-05-02T10:17:12.247Z,,,,,,,,,,,,,,,,,53,,,,,,,,,,,,,,1209.2200000000012,,response,,,,99,,,,,,,Space,keypress(Space),,,,,,,,---- -- comes -- ------ - ------- --- ----------<br>------------- ------ ------ ---- ---- ------- ----- -- ----<br>-------- ------- -- ---------- --- - --- ----- ----- ----<br>---- --- --- ----- --- ---- ---- ------- ----- ---- -------<br>--- --- -- ----- -- --- ---- -- --- ---- -- ------ ------<br>--- ----- -- ----,145848,145827,144606.8,144607,144617.78,145852.94,,2,comes
screen,html.Screen,2_1_0_1_3,2022-05-02T10:17:12.638Z,,,,,,,,,,,,,,,,,53,,,,,,,,,,,,,,379.0599999999977,,response,,,,99,,,,,,,Space,keypress(Space),,,,,,,,---- -- ----- to ------ - ------- --- ----------<br>------------- ------ ------ ---- ---- ------- ----- -- ----<br>-------- ------- -- ---------- --- - --- ----- ----- ----<br>---- --- --- ----- --- ---- ---- ------- ----- ---- -------<br>--- --- -- ----- -- --- ---- -- --- ---- -- ------ ------<br>--- ----- -- ----,146240,146232,145848.48,145849,145852.94,146253,,3,to
screen,html.Screen,2_1_0_1_4,2022-05-02T10:17:13.132Z,,,,,,,,,,,,,,,,,53,,,,,,,,,,,,,,465,,response,,,,99,,,,,,,Space,keypress(Space),,,,,,,,---- -- ----- -- having - ------- --- ----------<br>------------- ------ ------ ---- ---- ------- ----- -- ----<br>-------- ------- -- ---------- --- - --- ----- ----- ----<br>---- --- --- ----- --- ---- ---- ------- ----- ---- -------<br>--- --- -- ----- -- --- ---- -- --- ---- -- ------ ------<br>--- ----- -- ----,146733,146718,146240.34,146240,146253,146736.4,,4,having
screen,html.Screen,2_1_0_1_5,2022-05-02T10:17:13.384Z,,,,,,,,,,,,,,,,,53,,,,,,,,,,,,,,231.60000000000582,,response,,,,99,,,,,,,Space,keypress(Space),,,,,,,,---- -- ----- -- ------ a ------- --- ----------<br>------------- ------ ------ ---- ---- ------- ----- -- ----<br>-------- ------- -- ---------- --- - --- ----- ----- ----<br>---- --- --- ----- --- ---- ---- ------- ----- ---- -------<br>--- --- -- ----- -- --- ---- -- --- ---- -- ------ ------<br>--- ----- -- ----,146984,146968,146733.1,146733,146736.4,146986.44,,5,a
screen,html.Screen,2_1_0_1_6,2022-05-02T10:17:13.846Z,,,,,,,,,,,,,,,,,53,,,,,,,,,,,,,,449.5599999999977,,response,,,,99,,,,,,,Space,keypress(Space),,,,,,,,---- -- ----- -- ------ - lasting --- ----------<br>------------- ------ ------ ---- ---- ------- ----- -- ----<br>-------- ------- -- ---------- --- - --- ----- ----- ----<br>---- --- --- ----- --- ---- ---- ------- ----- ---- -------<br>--- --- -- ----- -- --- ---- -- --- ---- -- ------ ------<br>--- ----- -- ----,147447,147436,146984.92,146985,146986.44,147453.18,,6,lasting
screen,html.Screen,2_1_0_1_7,2022-05-02T10:17:14.227Z,,,,,,,,,,,,,,,,,53,,,,,,,,,,,,,,356.820000000007,,response,,,,99,,,,,,,Space,keypress(Space),,,,,,,,---- -- ----- -- ------ - ------- and ----------<br>------------- ------ ------ ---- ---- ------- ----- -- ----<br>-------- ------- -- ---------- --- - --- ----- ----- ----<br>---- --- --- ----- --- ---- ---- ------- ----- ---- -------<br>--- --- -- ----- -- --- ---- -- --- ---- -- ------ ------<br>--- ----- -- ----,147829,147810,147446.82,147447,147453.18,147836.56,,7,and
screen,html.Screen,2_1_0_1_8,2022-05-02T10:17:14.657Z,,,,,,,,,,,,,,,,,53,,,,,,,,,,,,,,412.4400000000023,,response,,,,99,,,,,,,Space,keypress(Space),,,,,,,,---- -- ----- -- ------ - ------- --- fulfilling<br>------------- ------ ------ ---- ---- ------- ----- -- ----<br>-------- ------- -- ---------- --- - --- ----- ----- ----<br>---- --- --- ----- --- ---- ---- ------- ----- ---- -------<br>--- --- -- ----- -- --- ---- -- --- ---- -- ------ ------<br>--- ----- -- ----,148257,148249,147829.02,147829,147836.56,148269.96,,8,fulfilling
screen,html.Screen,2_1_0_1_9,2022-05-02T10:17:15.060Z,,,,,,,,,,,,,,,,,53,,,,,,,,,,,,,,385.04000000000815,,response,,,,99,,,,,,,Space,keypress(Space),,,,,,,,"---- -- ----- -- ------ - ------- --- ----------<br>relationship, ------ ------ ---- ---- ------- ----- -- ----<br>-------- ------- -- ---------- --- - --- ----- ----- ----<br>---- --- --- ----- --- ---- ---- ------- ----- ---- -------<br>--- --- -- ----- -- --- ---- -- --- ---- -- ------ ------<br>--- ----- -- ----",148661,148655,148257.84,148258,148269.96,148670.02,,9,"relationship,"
screen,html.Screen,2_1_0_1_10,2022-05-02T10:17:15.455Z,,,,,,,,,,,,,,,,,53,,,,,,,,,,,,,,375.9800000000105,,response,,,,99,,,,,,,Space,keypress(Space),,,,,,,,---- -- ----- -- ------ - ------- --- ----------<br>------------- common ------ ---- ---- ------- ----- -- ----<br>-------- ------- -- ---------- --- - --- ----- ----- ----<br>---- --- --- ----- --- ---- ---- ------- ----- ---- -------<br>--- --- -- ----- -- --- ---- -- --- ---- -- ------ ------<br>--- ----- -- ----,149056,149046,148662.14,148662,148670.02,149070.08,,10,common
screen,html.Screen,2_1_0_1_11,2022-05-02T10:17:15.794Z,,,,,,,,,,,,,,,,,53,,,,,,,,,,,,,,303.9200000000128,,response,,,,99,,,,,,,Space,keypress(Space),,,,,,,,---- -- ----- -- ------ - ------- --- ----------<br>------------- ------ wisdom ---- ---- ------- ----- -- ----<br>-------- ------- -- ---------- --- - --- ----- ----- ----<br>---- --- --- ----- --- ---- ---- ------- ----- ---- -------<br>--- --- -- ----- -- --- ---- -- --- ---- -- ------ ------<br>--- ----- -- ----,149395,149374,149056.4,149056,149070.08,149403.46,,11,wisdom
screen,html.Screen,2_1_0_1_12,2022-05-02T10:17:16.126Z,,,,,,,,,,,,,,,,,53,,,,,,,,,,,,,,314.54000000000815,,response,,,,99,,,,,,,Space,keypress(Space),,,,,,,,---- -- ----- -- ------ - ------- --- ----------<br>------------- ------ ------ says ---- ------- ----- -- ----<br>-------- ------- -- ---------- --- - --- ----- ----- ----<br>---- --- --- ----- --- ---- ---- ------- ----- ---- -------<br>--- --- -- ----- -- --- ---- -- --- ---- -- ------ ------<br>--- ----- -- ----,149727,149718,149395.22,149395,149403.46,149736.84,,12,says
screen,html.Screen,2_1_0_1_13,2022-05-02T10:17:16.418Z,,,,,,,,,,,,,,,,,53,,,,,,,,,,,,,,277.1600000000035,,response,,,,99,,,,,,,Space,keypress(Space),,,,,,,,---- -- ----- -- ------ - ------- --- ----------<br>------------- ------ ------ ---- that ------- ----- -- ----<br>-------- ------- -- ---------- --- - --- ----- ----- ----<br>---- --- --- ----- --- ---- ---- ------- ----- ---- -------<br>--- --- -- ----- -- --- ---- -- --- ---- -- ------ ------<br>--- ----- -- ----,150020,150014,149727.66,149728,149736.84,150020.22,,13,that
screen,html.Screen,2_1_0_1_14,2022-05-02T10:17:17.001Z,,,,,,,,,,,,,,,,,53,,,,,,,,,,,,,,572.7799999999988,,response,,,,99,,,,,,,Space,keypress(Space),,,,,,,,---- -- ----- -- ------ - ------- --- ----------<br>------------- ------ ------ ---- ---- feeling ----- -- ----<br>-------- ------- -- ---------- --- - --- ----- ----- ----<br>---- --- --- ----- --- ---- ---- ------- ----- ---- -------<br>--- --- -- ----- -- --- ---- -- --- ---- -- ------ ------<br>--- ----- -- ----,150601,150593,150019.86,150020,150020.22,150603.64,,14,feeling
screen,html.Screen,2_1_0_1_15,2022-05-02T10:17:17.367Z,,,,,,,,,,,,,,,,,53,,,,,,,,,,,,,,348.35999999998603,,response,,,,99,,,,,,,Space,keypress(Space),,,,,,,,---- -- ----- -- ------ - ------- --- ----------<br>------------- ------ ------ ---- ---- ------- close -- ----<br>-------- ------- -- ---------- --- - --- ----- ----- ----<br>---- --- --- ----- --- ---- ---- ------- ----- ---- -------<br>--- --- -- ----- -- --- ---- -- --- ---- -- ------ ------<br>--- ----- -- ----,150969,150952,150601.94,150602,150603.64,150970.36,,15,close
screen,html.Screen,2_1_0_1_16,2022-05-02T10:17:17.657Z,,,,,,,,,,,,,,,,,53,,,,,,,,,,,,,,262.64000000001397,,response,,,,99,,,,,,,Space,keypress(Space),,,,,,,,---- -- ----- -- ------ - ------- --- ----------<br>------------- ------ ------ ---- ---- ------- ----- to ----<br>-------- ------- -- ---------- --- - --- ----- ----- ----<br>---- --- --- ----- --- ---- ---- ------- ----- ---- -------<br>--- --- -- ----- -- --- ---- -- --- ---- -- ------ ------<br>--- ----- -- ----,151258,151233,150968.52,150969,150970.36,151270.4,,16,to
screen,html.Screen,2_1_0_1_17,2022-05-02T10:17:18.145Z,,,,,,,,,,,,,,,,,53,,,,,,,,,,,,,,462.6000000000058,,response,,,,99,,,,,,,Space,keypress(Space),,,,,,,,---- -- ----- -- ------ - ------- --- ----------<br>------------- ------ ------ ---- ---- ------- ----- -- your<br>-------- ------- -- ---------- --- - --- ----- ----- ----<br>---- --- --- ----- --- ---- ---- ------- ----- ---- -------<br>--- --- -- ----- -- --- ---- -- --- ---- -- ------ ------<br>--- ----- -- ----,151746,151733,151258.12,151258,151270.4,151755.54,,17,your
screen,html.Screen,2_1_0_1_18,2022-05-02T10:17:18.583Z,,,,,,,,,,,,,,,,,53,,,,,,,,,,,,,,415.45999999999185,,response,,,,99,,,,,,,Space,keypress(Space),,,,,,,,---- -- ----- -- ------ - ------- --- ----------<br>------------- ------ ------ ---- ---- ------- ----- -- ----<br>romantic ------- -- ---------- --- - --- ----- ----- ----<br>---- --- --- ----- --- ---- ---- ------- ----- ---- -------<br>--- --- -- ----- -- --- ---- -- --- ---- -- ------ ------<br>--- ----- -- ----,152184,152171,151746.7,151747,151755.54,152188.84,,18,romantic
screen,html.Screen,2_1_0_1_19,2022-05-02T10:17:18.983Z,,,,,,,,,,,,,,,,,53,,,,,,,,,,,,,,388.1600000000035,,response,,,,99,,,,,,,Space,keypress(Space),,,,,,,,---- -- ----- -- ------ - ------- --- ----------<br>------------- ------ ------ ---- ---- ------- ----- -- ----<br>-------- partner -- ---------- --- - --- ----- ----- ----<br>---- --- --- ----- --- ---- ---- ------- ----- ---- -------<br>--- --- -- ----- -- --- ---- -- --- ---- -- ------ ------<br>--- ----- -- ----,152584,152577,152184.62,152184,152188.84,152588.9,,19,partner
screen,html.Screen,2_1_0_1_20,2022-05-02T10:17:19.725Z,,,,,,,,,,,,,,,,,53,,,,,,,,,,,,,,722.1000000000058,,response,,,,99,,,,,,,Space,keypress(Space),,,,,,,,---- -- ----- -- ------ - ------- --- ----------<br>------------- ------ ------ ---- ---- ------- ----- -- ----<br>-------- ------- is ---------- --- - --- ----- ----- ----<br>---- --- --- ----- --- ---- ---- ------- ----- ---- -------<br>--- --- -- ----- -- --- ---- -- --- ---- -- ------ ------<br>--- ----- -- ----,153325,153311,152584.26,152584,152588.9,153339,,20,is
screen,html.Screen,2_1_0_1_21,2022-05-02T10:17:20.321Z,,,,,,,,,,,,,,,,,53,,,,,,,,,,,,,,566,,response,,,,99,,,,,,,Space,keypress(Space),,,,,,,,---- -- ----- -- ------ - ------- --- ----------<br>------------- ------ ------ ---- ---- ------- ----- -- ----<br>-------- ------- -- paramount. --- - --- ----- ----- ----<br>---- --- --- ----- --- ---- ---- ------- ----- ---- -------<br>--- --- -- ----- -- --- ---- -- --- ---- -- ------ ------<br>--- ----- -- ----,153922,153905,153325.96,153325,153339,153922.42,,21,paramount.
screen,html.Screen,2_1_0_1_22,2022-05-02T10:17:20.777Z,,,,,,,,,,,,,,,,,53,,,,,,,,,,,,,,435.5799999999872,,response,,,,99,,,,,,,Space,keypress(Space),,,,,,,,---- -- ----- -- ------ - ------- --- ----------<br>------------- ------ ------ ---- ---- ------- ----- -- ----<br>-------- ------- -- ---------- But - --- ----- ----- ----<br>---- --- --- ----- --- ---- ---- ------- ----- ---- -------<br>--- --- -- ----- -- --- ---- -- --- ---- -- ------ ------<br>--- ----- -- ----,154379,154358,153922.36,153922,153922.42,154389.16,,22,But
screen,html.Screen,2_1_0_1_23,2022-05-02T10:17:21.051Z,,,,,,,,,,,,,,,,,53,,,,,,,,,,,,,,249.8399999999965,,response,,,,99,,,,,,,Space,keypress(Space),,,,,,,,---- -- ----- -- ------ - ------- --- ----------<br>------------- ------ ------ ---- ---- ------- ----- -- ----<br>-------- ------- -- ---------- --- a --- ----- ----- ----<br>---- --- --- ----- --- ---- ---- ------- ----- ---- -------<br>--- --- -- ----- -- --- ---- -- --- ---- -- ------ ------<br>--- ----- -- ----,154651,154639,154379.06,154379,154389.16,154655.86,,23,a
screen,html.Screen,2_1_0_1_24,2022-05-02T10:17:21.496Z,,,,,,,,,,,,,,,,,53,,,,,,,,,,,,,,421.14000000001397,,response,,,,99,,,,,,,Space,keypress(Space),,,,,,,,---- -- ----- -- ------ - ------- --- ----------<br>------------- ------ ------ ---- ---- ------- ----- -- ----<br>-------- ------- -- ---------- --- - new ----- ----- ----<br>---- --- --- ----- --- ---- ---- ------- ----- ---- -------<br>--- --- -- ----- -- --- ---- -- --- ---- -- ------ ------<br>--- ----- -- ----,155098,155077,154652.08,154652,154655.86,155105.92,,24,new
screen,html.Screen,2_1_0_1_25,2022-05-02T10:17:21.933Z,,,,,,,,,,,,,,,,,53,,,,,,,,,,,,,,408.0799999999872,,response,,,,99,,,,,,,Space,keypress(Space),,,,,,,,---- -- ----- -- ------ - ------- --- ----------<br>------------- ------ ------ ---- ---- ------- ----- -- ----<br>-------- ------- -- ---------- --- - --- study ----- ----<br>---- --- --- ----- --- ---- ---- ------- ----- ---- -------<br>--- --- -- ----- -- --- ---- -- --- ---- -- ------ ------<br>--- ----- -- ----,155534,155514,155098.42,155098,155105.92,155539.32,,25,study
screen,html.Screen,2_1_0_1_26,2022-05-02T10:17:22.241Z,,,,,,,,,,,,,,,,,53,,,,,,,,,,,,,,287.679999999993,,response,,,,99,,,,,,,Space,keypress(Space),,,,,,,,---- -- ----- -- ------ - ------- --- ----------<br>------------- ------ ------ ---- ---- ------- ----- -- ----<br>-------- ------- -- ---------- --- - --- ----- finds ----<br>---- --- --- ----- --- ---- ---- ------- ----- ---- -------<br>--- --- -- ----- -- --- ---- -- --- ---- -- ------ ------<br>--- ----- -- ----,155843,155827,155534.68,155534,155539.32,155856.04,,26,finds
screen,html.Screen,2_1_0_1_27,2022-05-02T10:17:22.673Z,,,,,,,,,,,,,,,,,53,,,,,,,,,,,,,,407.95999999999185,,response,,,,99,,,,,,,Space,keypress(Space),,,,,,,,---- -- ----- -- ------ - ------- --- ----------<br>------------- ------ ------ ---- ---- ------- ----- -- ----<br>-------- ------- -- ---------- --- - --- ----- ----- that<br>---- --- --- ----- --- ---- ---- ------- ----- ---- -------<br>--- --- -- ----- -- --- ---- -- --- ---- -- ------ ------<br>--- ----- -- ----,156274,156264,155842.94,155843,155856.04,156289.44,,27,that
screen,html.Screen,2_1_0_1_28,2022-05-02T10:17:23.074Z,,,,,,,,,,,,,,,,,53,,,,,,,,,,,,,,365.5599999999977,,response,,,,99,,,,,,,Space,keypress(Space),,,,,,,,---- -- ----- -- ------ - ------- --- ----------<br>------------- ------ ------ ---- ---- ------- ----- -- ----<br>-------- ------- -- ---------- --- - --- ----- ----- ----<br>it's --- --- ----- --- ---- ---- ------- ----- ---- -------<br>--- --- -- ----- -- --- ---- -- --- ---- -- ------ ------<br>--- ----- -- ----,156675,156655,156274.88,156275,156289.44,156689.48,,28,it's
screen,html.Screen,2_1_0_1_29,2022-05-02T10:17:23.387Z,,,,,,,,,,,,,,,,,53,,,,,,,,,,,,,,293.5199999999895,,response,,,,99,,,,,,,Space,keypress(Space),,,,,,,,---- -- ----- -- ------ - ------- --- ----------<br>------------- ------ ------ ---- ---- ------- ----- -- ----<br>-------- ------- -- ---------- --- - --- ----- ----- ----<br>---- not --- ----- --- ---- ---- ------- ----- ---- -------<br>--- --- -- ----- -- --- ---- -- --- ---- -- ------ ------<br>--- ----- -- ----,156987,156983,156675.92,156676,156689.48,156989.54,,29,not
screen,html.Screen,2_1_0_1_30,2022-05-02T10:17:23.772Z,,,,,,,,,,,,,,,,,53,,,,,,,,,,,,,,367.45999999999185,,response,,,,99,,,,,,,Space,keypress(Space),,,,,,,,---- -- ----- -- ------ - ------- --- ----------<br>------------- ------ ------ ---- ---- ------- ----- -- ----<br>-------- ------- -- ---------- --- - --- ----- ----- ----<br>---- --- how ----- --- ---- ---- ------- ----- ---- -------<br>--- --- -- ----- -- --- ---- -- --- ---- -- ------ ------<br>--- ----- -- ----,157372,157357,156987.98,156988,156989.54,157389.6,,30,how
screen,html.Screen,2_1_0_1_31,2022-05-02T10:17:24.190Z,,,,,,,,,,,,,,,,,53,,,,,,,,,,,,,,374.3999999999942,,response,,,,99,,,,,,,Space,keypress(Space),,,,,,,,---- -- ----- -- ------ - ------- --- ----------<br>------------- ------ ------ ---- ---- ------- ----- -- ----<br>-------- ------- -- ---------- --- - --- ----- ----- ----<br>---- --- --- close --- ---- ---- ------- ----- ---- -------<br>--- --- -- ----- -- --- ---- -- --- ---- -- ------ ------<br>--- ----- -- ----,157790,157764,157373.16,157373,157389.6,157806.32,,31,close
screen,html.Screen,2_1_0_1_32,2022-05-02T10:17:24.550Z,,,,,,,,,,,,,,,,,53,,,,,,,,,,,,,,317.679999999993,,response,,,,99,,,,,,,Space,keypress(Space),,,,,,,,---- -- ----- -- ------ - ------- --- ----------<br>------------- ------ ------ ---- ---- ------- ----- -- ----<br>-------- ------- -- ---------- --- - --- ----- ----- ----<br>---- --- --- ----- you ---- ---- ------- ----- ---- -------<br>--- --- -- ----- -- --- ---- -- --- ---- -- ------ ------<br>--- ----- -- ----,158151,158124,157790.78,157790,157806.32,158156.38,,32,you
screen,html.Screen,2_1_0_1_33,2022-05-02T10:17:24.906Z,,,,,,,,,,,,,,,,,53,,,,,,,,,,,,,,342.61999999999534,,response,,,,99,,,,,,,Space,keypress(Space),,,,,,,,---- -- ----- -- ------ - ------- --- ----------<br>------------- ------ ------ ---- ---- ------- ----- -- ----<br>-------- ------- -- ---------- --- - --- ----- ----- ----<br>---- --- --- ----- --- feel ---- ------- ----- ---- -------<br>--- --- -- ----- -- --- ---- -- --- ---- -- ------ ------<br>--- ----- -- ----,158507,158499,158151.74,158151,158156.38,158523.1,,33,feel
screen,html.Screen,2_1_0_1_34,2022-05-02T10:17:25.343Z,,,,,,,,,,,,,,,,,53,,,,,,,,,,,,,,412.8999999999942,,response,,,,99,,,,,,,Space,keypress(Space),,,,,,,,---- -- ----- -- ------ - ------- --- ----------<br>------------- ------ ------ ---- ---- ------- ----- -- ----<br>-------- ------- -- ---------- --- - --- ----- ----- ----<br>---- --- --- ----- --- ---- that ------- ----- ---- -------<br>--- --- -- ----- -- --- ---- -- --- ---- -- ------ ------<br>--- ----- -- ----,158944,158936,158507.52,158507,158523.1,158958.22,,34,that
screen,html.Screen,2_1_0_1_35,2022-05-02T10:17:25.760Z,,,,,,,,,,,,,,,,,53,,,,,,,,,,,,,,384.77999999999884,,response,,,,99,,,,,,,Space,keypress(Space),,,,,,,,---- -- ----- -- ------ - ------- --- ----------<br>------------- ------ ------ ---- ---- ------- ----- -- ----<br>-------- ------- -- ---------- --- - --- ----- ----- ----<br>---- --- --- ----- --- ---- ---- matters ----- ---- -------<br>--- --- -- ----- -- --- ---- -- --- ---- -- ------ ------<br>--- ----- -- ----,159362,159343,158944.26,158944,158958.22,159374.94,,35,matters
screen,html.Screen,2_1_0_1_36,2022-05-02T10:17:26.140Z,,,,,,,,,,,,,,,,,53,,,,,,,,,,,,,,358.0599999999977,,response,,,,99,,,,,,,Space,keypress(Space),,,,,,,,"---- -- ----- -- ------ - ------- --- ----------<br>------------- ------ ------ ---- ---- ------- ----- -- ----<br>-------- ------- -- ---------- --- - --- ----- ----- ----<br>---- --- --- ----- --- ---- ---- ------- most, ---- -------<br>--- --- -- ----- -- --- ---- -- --- ---- -- ------ ------<br>--- ----- -- ----",159740,159733,159361.56,159362,159374.94,159741.66,,36,"most,"
screen,html.Screen,2_1_0_1_37,2022-05-02T10:17:26.665Z,,,,,,,,,,,,,,,,,53,,,,,,,,,,,,,,507.3399999999965,,response,,,,99,,,,,,,Space,keypress(Space),,,,,,,,---- -- ----- -- ------ - ------- --- ----------<br>------------- ------ ------ ---- ---- ------- ----- -- ----<br>-------- ------- -- ---------- --- - --- ----- ----- ----<br>---- --- --- ----- --- ---- ---- ------- ----- it's -------<br>--- --- -- ----- -- --- ---- -- --- ---- -- ------ ------<br>--- ----- -- ----,160266,160249,159740.58,159740,159741.66,160275.06,,37,it's
screen,html.Screen,2_1_0_1_38,2022-05-02T10:17:27.126Z,,,,,,,,,,,,,,,,,53,,,,,,,,,,,,,,442.9400000000023,,response,,,,99,,,,,,,Space,keypress(Space),,,,,,,,---- -- ----- -- ------ - ------- --- ----------<br>------------- ------ ------ ---- ---- ------- ----- -- ----<br>-------- ------- -- ---------- --- - --- ----- ----- ----<br>---- --- --- ----- --- ---- ---- ------- ----- ---- whether<br>--- --- -- ----- -- --- ---- -- --- ---- -- ------ ------<br>--- ----- -- ----,160726,160718,160265.72,160266,160275.06,160741.8,,38,whether
screen,html.Screen,2_1_0_1_39,2022-05-02T10:17:27.521Z,,,,,,,,,,,,,,,,,53,,,,,,,,,,,,,,366.20000000001164,,response,,,,99,,,,,,,Space,keypress(Space),,,,,,,,---- -- ----- -- ------ - ------- --- ----------<br>------------- ------ ------ ---- ---- ------- ----- -- ----<br>-------- ------- -- ---------- --- - --- ----- ----- ----<br>---- --- --- ----- --- ---- ---- ------- ----- ---- -------<br>you --- -- ----- -- --- ---- -- --- ---- -- ------ ------<br>--- ----- -- ----,161121,161108,160727.02,160727,160741.8,161125.2,,39,you
screen,html.Screen,2_1_0_1_40,2022-05-02T10:17:27.812Z,,,,,,,,,,,,,,,,,53,,,,,,,,,,,,,,279.79999999998836,,response,,,,99,,,,,,,Space,keypress(Space),,,,,,,,---- -- ----- -- ------ - ------- --- ----------<br>------------- ------ ------ ---- ---- ------- ----- -- ----<br>-------- ------- -- ---------- --- - --- ----- ----- ----<br>---- --- --- ----- --- ---- ---- ------- ----- ---- -------<br>--- are -- ----- -- --- ---- -- --- ---- -- ------ ------<br>--- ----- -- ----,161413,161405,161121.94,161121,161125.2,161425.24,,40,are
screen,html.Screen,2_1_0_1_41,2022-05-02T10:17:28.208Z,,,,,,,,,,,,,,,,,53,,,,,,,,,,,,,,370.7600000000093,,response,,,,99,,,,,,,Space,keypress(Space),,,,,,,,---- -- ----- -- ------ - ------- --- ----------<br>------------- ------ ------ ---- ---- ------- ----- -- ----<br>-------- ------- -- ---------- --- - --- ----- ----- ----<br>---- --- --- ----- --- ---- ---- ------- ----- ---- -------<br>--- --- as ----- -- --- ---- -- --- ---- -- ------ ------<br>--- ----- -- ----,161810,161796,161413.1,161413,161425.24,161825.3,,41,as
screen,html.Screen,2_1_0_1_42,2022-05-02T10:17:28.560Z,,,,,,,,,,,,,,,,,53,,,,,,,,,,,,,,329.70000000001164,,response,,,,99,,,,,,,Space,keypress(Space),,,,,,,,---- -- ----- -- ------ - ------- --- ----------<br>------------- ------ ------ ---- ---- ------- ----- -- ----<br>-------- ------- -- ---------- --- - --- ----- ----- ----<br>---- --- --- ----- --- ---- ---- ------- ----- ---- -------<br>--- --- -- close -- --- ---- -- --- ---- -- ------ ------<br>--- ----- -- ----,162161,162155,161809.52,161810,161825.3,162175.34,,42,close
screen,html.Screen,2_1_0_1_43,2022-05-02T10:17:28.941Z,,,,,,,,,,,,,,,,,53,,,,,,,,,,,,,,354.6600000000035,,response,,,,99,,,,,,,Space,keypress(Space),,,,,,,,---- -- ----- -- ------ - ------- --- ----------<br>------------- ------ ------ ---- ---- ------- ----- -- ----<br>-------- ------- -- ---------- --- - --- ----- ----- ----<br>---- --- --- ----- --- ---- ---- ------- ----- ---- -------<br>--- --- -- ----- as --- ---- -- --- ---- -- ------ ------<br>--- ----- -- ----,162542,162530,162161.66,162161,162175.34,162558.74,,43,as
screen,html.Screen,2_1_0_1_44,2022-05-02T10:17:29.323Z,,,,,,,,,,,,,,,,,53,,,,,,,,,,,,,,346.2600000000093,,response,,,,99,,,,,,,Space,keypress(Space),,,,,,,,---- -- ----- -- ------ - ------- --- ----------<br>------------- ------ ------ ---- ---- ------- ----- -- ----<br>-------- ------- -- ---------- --- - --- ----- ----- ----<br>---- --- --- ----- --- ---- ---- ------- ----- ---- -------<br>--- --- -- ----- -- you ---- -- --- ---- -- ------ ------<br>--- ----- -- ----,162924,162905,162542.1,162542,162558.74,162925.46,,44,you
screen,html.Screen,2_1_0_1_45,2022-05-02T10:17:29.671Z,,,,,,,,,,,,,,,,,53,,,,,,,,,,,,,,338.54000000000815,,response,,,,99,,,,,,,Space,keypress(Space),,,,,,,,---- -- ----- -- ------ - ------- --- ----------<br>------------- ------ ------ ---- ---- ------- ----- -- ----<br>-------- ------- -- ---------- --- - --- ----- ----- ----<br>---- --- --- ----- --- ---- ---- ------- ----- ---- -------<br>--- --- -- ----- -- --- want -- --- ---- -- ------ ------<br>--- ----- -- ----,163272,163264,162923.78,162924,162925.46,163275.5,,45,want
screen,html.Screen,2_1_0_1_46,2022-05-02T10:17:29.912Z,,,,,,,,,,,,,,,,,53,,,,,,,,,,,,,,223.5,,response,,,,99,,,,,,,Space,keypress(Space),,,,,,,,---- -- ----- -- ------ - ------- --- ----------<br>------------- ------ ------ ---- ---- ------- ----- -- ----<br>-------- ------- -- ---------- --- - --- ----- ----- ----<br>---- --- --- ----- --- ---- ---- ------- ----- ---- -------<br>--- --- -- ----- -- --- ---- to --- ---- -- ------ ------<br>--- ----- -- ----,163512,163499,163272.62,163272,163275.5,163525.54,,46,to
screen,html.Screen,2_1_0_1_47,2022-05-02T10:17:30.489Z,,,,,,,,,,,,,,,,,53,,,,,,,,,,,,,,551.4599999999919,,response,,,,99,,,,,,,Space,keypress(Space),,,,,,,,"---- -- ----- -- ------ - ------- --- ----------<br>------------- ------ ------ ---- ---- ------- ----- -- ----<br>-------- ------- -- ---------- --- - --- ----- ----- ----<br>---- --- --- ----- --- ---- ---- ------- ----- ---- -------<br>--- --- -- ----- -- --- ---- -- be, ---- -- ------ ------<br>--- ----- -- ----",164091,164077,163512.82,163513,163525.54,164092.3,,47,"be,"
screen,html.Screen,2_1_0_1_48,2022-05-02T10:17:30.884Z,,,,,,,,,,,,,,,,,53,,,,,,,,,,,,,,375.70000000001164,,response,,,,99,,,,,,,Space,keypress(Space),,,,,,,,---- -- ----- -- ------ - ------- --- ----------<br>------------- ------ ------ ---- ---- ------- ----- -- ----<br>-------- ------- -- ---------- --- - --- ----- ----- ----<br>---- --- --- ----- --- ---- ---- ------- ----- ---- -------<br>--- --- -- ----- -- --- ---- -- --- even -- ------ ------<br>--- ----- -- ----,164484,164468,164091,164091,164092.3,164493.52,,48,even
screen,html.Screen,2_1_0_1_49,2022-05-02T10:17:31.112Z,,,,,,,,,,,,,,,,,53,,,,,,,,,,,,,,207.48000000001048,,response,,,,99,,,,,,,Space,keypress(Space),,,,,,,,---- -- ----- -- ------ - ------- --- ----------<br>------------- ------ ------ ---- ---- ------- ----- -- ----<br>-------- ------- -- ---------- --- - --- ----- ----- ----<br>---- --- --- ----- --- ---- ---- ------- ----- ---- -------<br>--- --- -- ----- -- --- ---- -- --- ---- if ------ ------<br>--- ----- -- ----,164713,164701,164484.92,164485,164493.52,164726.88,,49,if
screen,html.Screen,2_1_0_1_50,2022-05-02T10:17:31.291Z,,,,,,,,,,,,,,,,,53,,,,,,,,,,,,,,147.11999999999534,,response,,,,99,,,,,,,Space,keypress(Space),,,,,,,,---- -- ----- -- ------ - ------- --- ----------<br>------------- ------ ------ ---- ---- ------- ----- -- ----<br>-------- ------- -- ---------- --- - --- ----- ----- ----<br>---- --- --- ----- --- ---- ---- ------- ----- ---- -------<br>--- --- -- ----- -- --- ---- -- --- ---- -- that's ------<br>--- ----- -- ----,164892,164874,164714.04,164714,164726.88,164893.58,,50,that's
screen,html.Screen,2_1_0_1_51,2022-05-02T10:17:31.776Z,,,,,,,,,,,,,,,,,53,,,,,,,,,,,,,,464.4200000000128,,response,,,,99,,,,,,,Space,keypress(Space),,,,,,,,---- -- ----- -- ------ - ------- --- ----------<br>------------- ------ ------ ---- ---- ------- ----- -- ----<br>-------- ------- -- ---------- --- - --- ----- ----- ----<br>---- --- --- ----- --- ---- ---- ------- ----- ---- -------<br>--- --- -- ----- -- --- ---- -- --- ---- -- ------ really<br>--- ----- -- ----,165378,165358,164892.82,164893,164893.58,165393.66,,51,really
screen,html.Screen,2_1_0_1_52,2022-05-02T10:17:32.127Z,,,,,,,,,,,,,,,,,53,,,,,,,,,,,,,,324.3399999999965,,response,,,,99,,,,,,,Space,keypress(Space),,,,,,,,---- -- ----- -- ------ - ------- --- ----------<br>------------- ------ ------ ---- ---- ------- ----- -- ----<br>-------- ------- -- ---------- --- - --- ----- ----- ----<br>---- --- --- ----- --- ---- ---- ------- ----- ---- -------<br>--- --- -- ----- -- --- ---- -- --- ---- -- ------ ------<br>not ----- -- ----,165728,165718,165377.96,165378,165393.66,165743.7,,52,not
screen,html.Screen,2_1_0_1_53,2022-05-02T10:17:32.513Z,,,,,,,,,,,,,,,,,53,,,,,,,,,,,,,,364.29999999998836,,response,,,,99,,,,,,,Space,keypress(Space),,,,,,,,---- -- ----- -- ------ - ------- --- ----------<br>------------- ------ ------ ---- ---- ------- ----- -- ----<br>-------- ------- -- ---------- --- - --- ----- ----- ----<br>---- --- --- ----- --- ---- ---- ------- ----- ---- -------<br>--- --- -- ----- -- --- ---- -- --- ---- -- ------ ------<br>--- close -- ----,166115,166108,165728.44,165729,165743.7,166127.1,,53,close
screen,html.Screen,2_1_0_1_54,2022-05-02T10:17:32.899Z,,,,,,,,,,,,,,,,,53,,,,,,,,,,,,,,355.8999999999942,,response,,,,99,,,,,,,Space,keypress(Space),,,,,,,,---- -- ----- -- ------ - ------- --- ----------<br>------------- ------ ------ ---- ---- ------- ----- -- ----<br>-------- ------- -- ---------- --- - --- ----- ----- ----<br>---- --- --- ----- --- ---- ---- ------- ----- ---- -------<br>--- --- -- ----- -- --- ---- -- --- ---- -- ------ ------<br>--- ----- at ----,166500,166483,166114.88,166115,166127.1,166510.48,,54,at
screen,html.Screen,2_1_0_1_55,2022-05-02T10:17:33.409Z,,,,,,,,,,,,,,,,,53,,,,,,,,,,,,,,487.5199999999895,,response,,,,99,,,,,,,Space,keypress(Space),,,,,,,,---- -- ----- -- ------ - ------- --- ----------<br>------------- ------ ------ ---- ---- ------- ----- -- ----<br>-------- ------- -- ---------- --- - --- ----- ----- ----<br>---- --- --- ----- --- ---- ---- ------- ----- ---- -------<br>--- --- -- ----- -- --- ---- -- --- ---- -- ------ ------<br>--- ----- -- all.,167010,166998,166500.52,166500,166510.48,167027.22,,55,all.
Item 99,flow.Loop,2_1_0_1,2022-05-02T10:17:33.410Z,,,,,,,,,,,,,,,,,,,,,,,,,,,,,,,23780.420000000013,,completion,,,,,E,,,,,,,,,,,silence,,,,,167011,166998,143200.92,143204,143217.58,167027.22,,,
Question 1,html.Screen,2_1_0_2,2022-05-02T10:17:39.389Z,,,,,,,,,,,,,,,,,,,,,,,,,,,,true,FALSE,,5955.779999999999,,response,,,,99,E,,,,,,FALSE,click #choice-2,,,,silence,,,,,172990,172983,167011.76,167011,167027.22,172996.08,,,
Question 2,html.Screen,2_1_0_3,2022-05-02T10:17:45.538Z,,,,,,,,,,,,,,,,,,,,,,,,,,,,true,TRUE,,6127.920000000013,,response,,,,99,E,,,,,,TRUE,click #choice-1,,,,silence,,,,,179139,179124,172988.58,172990,172996.08,179148.7,,,
Item 99,flow.Sequence,2_1_0,2022-05-02T10:17:45.539Z,,,,,,,,,,,,,,,,,,,,,,,,,,,,,,,45909.44,,completion,,,,,,,,,,,,,,,,,,,,,179140,179124,133200.62,133208,133214.56,179148.7,,,
Holding screen,html.Screen,2_1_1_0,2022-05-02T10:17:55.537Z,,,,,,,,,,,,,,,,,,,,,,,,,,,,,,,10004.339999999997,,timeout,,,,,,,,,,,,,,,,,,,,,189138,189136.36,179138.22,179140,179148.7,189153.04,,,
screen,html.Screen,2_1_1_1_0,2022-05-02T10:17:56.141Z,,,,,,,,,,,,,,,,,54,,,,,,,,,,,,,,579.9599999999919,,response,,,,100,,,,,,,Space,keypress(Space),,,,,,,,At --- ---- --- ------ ----- ------- ---- -- --- ------- --<br>------- ---------- ------ -- ----- -- ----- -- ---- ------<br>--- ----- --- --- ------ -------- ----- --- ------ ----- --<br>----- ----- ---------- --- --- ------ ------ ---- -- ------<br>------- --- ------ ----- --- ---- ------- -- ---- --- --<br>------- ------,189742,189733,189136.36,189138,189153.04,189753.12,,0,At
screen,html.Screen,2_1_1_1_1,2022-05-02T10:17:56.595Z,,,,,,,,,,,,,,,,,54,,,,,,,,,,,,,,431.88000000000466,,response,,,,100,,,,,,,Space,keypress(Space),,,,,,,,-- the ---- --- ------ ----- ------- ---- -- --- ------- --<br>------- ---------- ------ -- ----- -- ----- -- ---- ------<br>--- ----- --- --- ------ -------- ----- --- ------ ----- --<br>----- ----- ---------- --- --- ------ ------ ---- -- ------<br>------- --- ------ ----- --- ---- ------- -- ---- --- --<br>------- ------,190196,190185,189742.02,189742,189753.12,190203.2,,1,the
screen,html.Screen,2_1_1_1_2,2022-05-02T10:17:56.859Z,,,,,,,,,,,,,,,,,54,,,,,,,,,,,,,,248.79999999998836,,response,,,,100,,,,,,,Space,keypress(Space),,,,,,,,-- --- time --- ------ ----- ------- ---- -- --- ------- --<br>------- ---------- ------ -- ----- -- ----- -- ---- ------<br>--- ----- --- --- ------ -------- ----- --- ------ ----- --<br>----- ----- ---------- --- --- ------ ------ ---- -- ------<br>------- --- ------ ----- --- ---- ------- -- ---- --- --<br>------- ------,190461,190452,190195.78,190196,190203.2,190469.9,,2,time
screen,html.Screen,2_1_1_1_3,2022-05-02T10:17:57.183Z,,,,,,,,,,,,,,,,,54,,,,,,,,,,,,,,294.1000000000058,,response,,,,100,,,,,,,Space,keypress(Space),,,,,,,,-- --- ---- the ------ ----- ------- ---- -- --- ------- --<br>------- ---------- ------ -- ----- -- ----- -- ---- ------<br>--- ----- --- --- ------ -------- ----- --- ------ ----- --<br>----- ----- ---------- --- --- ------ ------ ---- -- ------<br>------- --- ------ ----- --- ---- ------- -- ---- --- --<br>------- ------,190784,190764,190461,190461,190469.9,190786.62,,3,the
screen,html.Screen,2_1_1_1_4,2022-05-02T10:17:57.682Z,,,,,,,,,,,,,,,,,54,,,,,,,,,,,,,,477.38000000000466,,response,,,,100,,,,,,,Space,keypress(Space),,,,,,,,-- --- ---- --- French ----- ------- ---- -- --- ------- --<br>------- ---------- ------ -- ----- -- ----- -- ---- ------<br>--- ----- --- --- ------ -------- ----- --- ------ ----- --<br>----- ----- ---------- --- --- ------ ------ ---- -- ------<br>------- --- ------ ----- --- ---- ------- -- ---- --- --<br>------- ------,191283,191264,190783.88,190784,190786.62,191286.68,,4,French
screen,html.Screen,2_1_1_1_5,2022-05-02T10:17:57.973Z,,,,,,,,,,,,,,,,,54,,,,,,,,,,,,,,274.320000000007,,response,,,,100,,,,,,,Space,keypress(Space),,,,,,,,-- --- ---- --- ------ crown ------- ---- -- --- ------- --<br>------- ---------- ------ -- ----- -- ----- -- ---- ------<br>--- ----- --- --- ------ -------- ----- --- ------ ----- --<br>----- ----- ---------- --- --- ------ ------ ---- -- ------<br>------- --- ------ ----- --- ---- ------- -- ---- --- --<br>------- ------,191574,191561,191284.02,191284,191286.68,191586.72,,5,crown
screen,html.Screen,2_1_1_1_6,2022-05-02T10:17:58.261Z,,,,,,,,,,,,,,,,,54,,,,,,,,,,,,,,271.27999999999884,,response,,,,100,,,,,,,Space,keypress(Space),,,,,,,,-- --- ---- --- ------ ----- secured ---- -- --- ------- --<br>------- ---------- ------ -- ----- -- ----- -- ---- ------<br>--- ----- --- --- ------ -------- ----- --- ------ ----- --<br>----- ----- ---------- --- --- ------ ------ ---- -- ------<br>------- --- ------ ----- --- ---- ------- -- ---- --- --<br>------- ------,191862,191858,191574.14,191574,191586.72,191870.1,,6,secured
screen,html.Screen,2_1_1_1_7,2022-05-02T10:17:58.666Z,,,,,,,,,,,,,,,,,54,,,,,,,,,,,,,,393.8999999999942,,response,,,,100,,,,,,,Space,keypress(Space),,,,,,,,-- --- ---- --- ------ ----- ------- much -- --- ------- --<br>------- ---------- ------ -- ----- -- ----- -- ---- ------<br>--- ----- --- --- ------ -------- ----- --- ------ ----- --<br>----- ----- ---------- --- --- ------ ------ ---- -- ------<br>------- --- ------ ----- --- ---- ------- -- ---- --- --<br>------- ------,192268,192264,191862.5,191862,191870.1,192270.16,,7,much
screen,html.Screen,2_1_1_1_8,2022-05-02T10:17:59.004Z,,,,,,,,,,,,,,,,,54,,,,,,,,,,,,,,322.8399999999965,,response,,,,100,,,,,,,Space,keypress(Space),,,,,,,,-- --- ---- --- ------ ----- ------- ---- of --- ------- --<br>------- ---------- ------ -- ----- -- ----- -- ---- ------<br>--- ----- --- --- ------ -------- ----- --- ------ ----- --<br>----- ----- ---------- --- --- ------ ------ ---- -- ------<br>------- --- ------ ----- --- ---- ------- -- ---- --- --<br>------- ------,192604,192593,192267.94,192268,192270.16,192620.22,,8,of
screen,html.Screen,2_1_1_1_9,2022-05-02T10:17:59.243Z,,,,,,,,,,,,,,,,,54,,,,,,,,,,,,,,206.77999999999884,,response,,,,100,,,,,,,Space,keypress(Space),,,,,,,,-- --- ---- --- ------ ----- ------- ---- -- its ------- --<br>------- ---------- ------ -- ----- -- ----- -- ---- ------<br>--- ----- --- --- ------ -------- ----- --- ------ ----- --<br>----- ----- ---------- --- --- ------ ------ ---- -- ------<br>------- --- ------ ----- --- ---- ------- -- ---- --- --<br>------- ------,192844,192827,192605.18,192605,192620.22,192853.58,,9,its
screen,html.Screen,2_1_1_1_10,2022-05-02T10:17:59.655Z,,,,,,,,,,,,,,,,,54,,,,,,,,,,,,,,395.4200000000128,,response,,,,100,,,,,,,Space,keypress(Space),,,,,,,,-- --- ---- --- ------ ----- ------- ---- -- --- revenue --<br>------- ---------- ------ -- ----- -- ----- -- ---- ------<br>--- ----- --- --- ------ -------- ----- --- ------ ----- --<br>----- ----- ---------- --- --- ------ ------ ---- -- ------<br>------- --- ------ ----- --- ---- ------- -- ---- --- --<br>------- ------,193256,193249,192844.62,192844,192853.58,193270.3,,10,revenue
screen,html.Screen,2_1_1_1_11,2022-05-02T10:18:00.018Z,,,,,,,,,,,,,,,,,54,,,,,,,,,,,,,,336.70000000001164,,response,,,,100,,,,,,,Space,keypress(Space),,,,,,,,-- --- ---- --- ------ ----- ------- ---- -- --- ------- by<br>------- ---------- ------ -- ----- -- ----- -- ---- ------<br>--- ----- --- --- ------ -------- ----- --- ------ ----- --<br>----- ----- ---------- --- --- ------ ------ ---- -- ------<br>------- --- ------ ----- --- ---- ------- -- ---- --- --<br>------- ------,193618,193607,193256.16,193256,193270.3,193620.36,,11,by
screen,html.Screen,2_1_1_1_12,2022-05-02T10:18:00.303Z,,,,,,,,,,,,,,,,,54,,,,,,,,,,,,,,268.64000000001397,,response,,,,100,,,,,,,Space,keypress(Space),,,,,,,,-- --- ---- --- ------ ----- ------- ---- -- --- ------- --<br>issuing ---------- ------ -- ----- -- ----- -- ---- ------<br>--- ----- --- --- ------ -------- ----- --- ------ ----- --<br>----- ----- ---------- --- --- ------ ------ ---- -- ------<br>------- --- ------ ----- --- ---- ------- -- ---- --- --<br>------- ------,193904,193889,193618.9,193619,193620.36,193920.4,,12,issuing
screen,html.Screen,2_1_1_1_13,2022-05-02T10:18:00.536Z,,,,,,,,,,,,,,,,,54,,,,,,,,,,,,,,203.60000000000582,,response,,,,100,,,,,,,Space,keypress(Space),,,,,,,,-- --- ---- --- ------ ----- ------- ---- -- --- ------- --<br>------- government ------ -- ----- -- ----- -- ---- ------<br>--- ----- --- --- ------ -------- ----- --- ------ ----- --<br>----- ----- ---------- --- --- ------ ------ ---- -- ------<br>------- --- ------ ----- --- ---- ------- -- ---- --- --<br>------- ------,194138,194124,193904.2,193904,193920.4,194153.76,,13,government
screen,html.Screen,2_1_1_1_14,2022-05-02T10:18:00.950Z,,,,,,,,,,,,,,,,,54,,,,,,,,,,,,,,392.2399999999907,,response,,,,100,,,,,,,Space,keypress(Space),,,,,,,,-- --- ---- --- ------ ----- ------- ---- -- --- ------- --<br>------- ---------- bonds. -- ----- -- ----- -- ---- ------<br>--- ----- --- --- ------ -------- ----- --- ------ ----- --<br>----- ----- ---------- --- --- ------ ------ ---- -- ------<br>------- --- ------ ----- --- ---- ------- -- ---- --- --<br>------- ------,194552,194546,194138.08,194138,194153.76,194553.82,,14,bonds.
screen,html.Screen,2_1_1_1_15,2022-05-02T10:18:01.491Z,,,,,,,,,,,,,,,,,54,,,,,,,,,,,,,,523.179999999993,,response,,,,100,,,,,,,Space,keypress(Space),,,,,,,,-- --- ---- --- ------ ----- ------- ---- -- --- ------- --<br>------- ---------- ------ In ----- -- ----- -- ---- ------<br>--- ----- --- --- ------ -------- ----- --- ------ ----- --<br>----- ----- ---------- --- --- ------ ------ ---- -- ------<br>------- --- ------ ----- --- ---- ------- -- ---- --- --<br>------- ------,195092,195077,194551.34,194552,194553.82,195103.9,,15,In
screen,html.Screen,2_1_1_1_16,2022-05-02T10:18:01.757Z,,,,,,,,,,,,,,,,,54,,,,,,,,,,,,,,238.10000000000582,,response,,,,100,,,,,,,Space,keypress(Space),,,,,,,,"-- --- ---- --- ------ ----- ------- ---- -- --- ------- --<br>------- ---------- ------ -- 1727, -- ----- -- ---- ------<br>--- ----- --- --- ------ -------- ----- --- ------ ----- --<br>----- ----- ---------- --- --- ------ ------ ---- -- ------<br>------- --- ------ ----- --- ---- ------- -- ---- --- --<br>------- ------",195358,195342,195092.54,195092,195103.9,195370.62,,16,"1727,"
screen,html.Screen,2_1_1_1_17,2022-05-02T10:18:02.327Z,,,,,,,,,,,,,,,,,54,,,,,,,,,,,,,,550.3800000000047,,response,,,,100,,,,,,,Space,keypress(Space),,,,,,,,-- --- ---- --- ------ ----- ------- ---- -- --- ------- --<br>------- ---------- ------ -- ----- in ----- -- ---- ------<br>--- ----- --- --- ------ -------- ----- --- ------ ----- --<br>----- ----- ---------- --- --- ------ ------ ---- -- ------<br>------- --- ------ ----- --- ---- ------- -- ---- --- --<br>------- ------,195929,195921,195358.28,195358,195370.62,195937.36,,17,in
screen,html.Screen,2_1_1_1_18,2022-05-02T10:18:02.666Z,,,,,,,,,,,,,,,,,54,,,,,,,,,,,,,,311.64000000001397,,response,,,,100,,,,,,,Space,keypress(Space),,,,,,,,-- --- ---- --- ------ ----- ------- ---- -- --- ------- --<br>------- ---------- ------ -- ----- -- order -- ---- ------<br>--- ----- --- --- ------ -------- ----- --- ------ ----- --<br>----- ----- ---------- --- --- ------ ------ ---- -- ------<br>------- --- ------ ----- --- ---- ------- -- ---- --- --<br>------- ------,196267,196249,195928.7,195929,195937.36,196270.74,,18,order
screen,html.Screen,2_1_1_1_19,2022-05-02T10:18:02.936Z,,,,,,,,,,,,,,,,,54,,,,,,,,,,,,,,259.2600000000093,,response,,,,100,,,,,,,Space,keypress(Space),,,,,,,,-- --- ---- --- ------ ----- ------- ---- -- --- ------- --<br>------- ---------- ------ -- ----- -- ----- to ---- ------<br>--- ----- --- --- ------ -------- ----- --- ------ ----- --<br>----- ----- ---------- --- --- ------ ------ ---- -- ------<br>------- --- ------ ----- --- ---- ------- -- ---- --- --<br>------- ------,196538,196530,196267.06,196267,196270.74,196539.26,,19,to
screen,html.Screen,2_1_1_1_20,2022-05-02T10:18:03.156Z,,,,,,,,,,,,,,,,,54,,,,,,,,,,,,,,209.7399999999907,,response,,,,100,,,,,,,Space,keypress(Space),,,,,,,,-- --- ---- --- ------ ----- ------- ---- -- --- ------- --<br>------- ---------- ------ -- ----- -- ----- -- save ------<br>--- ----- --- --- ------ -------- ----- --- ------ ----- --<br>----- ----- ---------- --- --- ------ ------ ---- -- ------<br>------- --- ------ ----- --- ---- ------- -- ---- --- --<br>------- ------,196757,196749,196538.22,196538,196539.26,196772.62,,20,save
screen,html.Screen,2_1_1_1_21,2022-05-02T10:18:03.676Z,,,,,,,,,,,,,,,,,54,,,,,,,,,,,,,,491.38000000000466,,response,,,,100,,,,,,,Space,keypress(Space),,,,,,,,"-- --- ---- --- ------ ----- ------- ---- -- --- ------- --<br>------- ---------- ------ -- ----- -- ----- -- ---- money,<br>--- ----- --- --- ------ -------- ----- --- ------ ----- --<br>----- ----- ---------- --- --- ------ ------ ---- -- ------<br>------- --- ------ ----- --- ---- ------- -- ---- --- --<br>------- ------",197276,197264,196757,196757,196772.62,197289.36,,21,"money,"
screen,html.Screen,2_1_1_1_22,2022-05-02T10:18:04.091Z,,,,,,,,,,,,,,,,,54,,,,,,,,,,,,,,396.64000000001397,,response,,,,100,,,,,,,Space,keypress(Space),,,,,,,,-- --- ---- --- ------ ----- ------- ---- -- --- ------- --<br>------- ---------- ------ -- ----- -- ----- -- ---- ------<br>the ----- --- --- ------ -------- ----- --- ------ ----- --<br>----- ----- ---------- --- --- ------ ------ ---- -- ------<br>------- --- ------ ----- --- ---- ------- -- ---- --- --<br>------- ------,197692,197686,197277.08,197277,197289.36,197706.1,,22,the
screen,html.Screen,2_1_1_1_23,2022-05-02T10:18:04.348Z,,,,,,,,,,,,,,,,,54,,,,,,,,,,,,,,229.89999999999418,,response,,,,100,,,,,,,Space,keypress(Space),,,,,,,,-- --- ---- --- ------ ----- ------- ---- -- --- ------- --<br>------- ---------- ------ -- ----- -- ----- -- ---- ------<br>--- state --- --- ------ -------- ----- --- ------ ----- --<br>----- ----- ---------- --- --- ------ ------ ---- -- ------<br>------- --- ------ ----- --- ---- ------- -- ---- --- --<br>------- ------,197949,197936,197692.12,197692,197706.1,197956.12,,23,state
screen,html.Screen,2_1_1_1_24,2022-05-02T10:18:04.644Z,,,,,,,,,,,,,,,,,54,,,,,,,,,,,,,,276.88000000000466,,response,,,,100,,,,,,,Space,keypress(Space),,,,,,,,-- --- ---- --- ------ ----- ------- ---- -- --- ------- --<br>------- ---------- ------ -- ----- -- ----- -- ---- ------<br>--- ----- cut --- ------ -------- ----- --- ------ ----- --<br>----- ----- ---------- --- --- ------ ------ ---- -- ------<br>------- --- ------ ----- --- ---- ------- -- ---- --- --<br>------- ------,198245,198233,197949.08,197949,197956.12,198256.18,,24,cut
screen,html.Screen,2_1_1_1_25,2022-05-02T10:18:04.919Z,,,,,,,,,,,,,,,,,54,,,,,,,,,,,,,,257.820000000007,,response,,,,100,,,,,,,Space,keypress(Space),,,,,,,,-- --- ---- --- ------ ----- ------- ---- -- --- ------- --<br>------- ---------- ------ -- ----- -- ----- -- ---- ------<br>--- ----- --- the ------ -------- ----- --- ------ ----- --<br>----- ----- ---------- --- --- ------ ------ ---- -- ------<br>------- --- ------ ----- --- ---- ------- -- ---- --- --<br>------- ------,198520,198514,198245.2,198245,198256.18,198522.88,,25,the
screen,html.Screen,2_1_1_1_26,2022-05-02T10:18:05.319Z,,,,,,,,,,,,,,,,,54,,,,,,,,,,,,,,381.11999999999534,,response,,,,100,,,,,,,Space,keypress(Space),,,,,,,,-- --- ---- --- ------ ----- ------- ---- -- --- ------- --<br>------- ---------- ------ -- ----- -- ----- -- ---- ------<br>--- ----- --- --- bonds' -------- ----- --- ------ ----- --<br>----- ----- ---------- --- --- ------ ------ ---- -- ------<br>------- --- ------ ----- --- ---- ------- -- ---- --- --<br>------- ------,198920,198904,198521.04,198521,198522.88,198922.94,,26,bonds'
screen,html.Screen,2_1_1_1_27,2022-05-02T10:18:05.726Z,,,,,,,,,,,,,,,,,54,,,,,,,,,,,,,,388.0599999999977,,response,,,,100,,,,,,,Space,keypress(Space),,,,,,,,-- --- ---- --- ------ ----- ------- ---- -- --- ------- --<br>------- ---------- ------ -- ----- -- ----- -- ---- ------<br>--- ----- --- --- ------ interest ----- --- ------ ----- --<br>----- ----- ---------- --- --- ------ ------ ---- -- ------<br>------- --- ------ ----- --- ---- ------- -- ---- --- --<br>------- ------,199327,199311,198920.3,198920,198922.94,199339.66,,27,interest
screen,html.Screen,2_1_1_1_28,2022-05-02T10:18:06.594Z,,,,,,,,,,,,,,,,,54,,,,,,,,,,,,,,846.3399999999965,,response,,,,100,,,,,,,Space,keypress(Space),,,,,,,,-- --- ---- --- ------ ----- ------- ---- -- --- ------- --<br>------- ---------- ------ -- ----- -- ----- -- ---- ------<br>--- ----- --- --- ------ -------- rate. --- ------ ----- --<br>----- ----- ---------- --- --- ------ ------ ---- -- ------<br>------- --- ------ ----- --- ---- ------- -- ---- --- --<br>------- ------,200196,200186,199326.8,199327,199339.66,200206.46,,28,rate.
screen,html.Screen,2_1_1_1_29,2022-05-02T10:18:06.985Z,,,,,,,,,,,,,,,,,54,,,,,,,,,,,,,,370.54000000000815,,response,,,,100,,,,,,,Space,keypress(Space),,,,,,,,-- --- ---- --- ------ ----- ------- ---- -- --- ------- --<br>------- ---------- ------ -- ----- -- ----- -- ---- ------<br>--- ----- --- --- ------ -------- ----- The ------ ----- --<br>----- ----- ---------- --- --- ------ ------ ---- -- ------<br>------- --- ------ ----- --- ---- ------- -- ---- --- --<br>------- ------,200586,200577,200195.64,200196,200206.46,200589.84,,29,The
screen,html.Screen,2_1_1_1_30,2022-05-02T10:18:07.279Z,,,,,,,,,,,,,,,,,54,,,,,,,,,,,,,,284.1600000000035,,response,,,,100,,,,,,,Space,keypress(Space),,,,,,,,-- --- ---- --- ------ ----- ------- ---- -- --- ------- --<br>------- ---------- ------ -- ----- -- ----- -- ---- ------<br>--- ----- --- --- ------ -------- ----- --- market ----- --<br>----- ----- ---------- --- --- ------ ------ ---- -- ------<br>------- --- ------ ----- --- ---- ------- -- ---- --- --<br>------- ------,200880,200874,200586.72,200587,200589.84,200889.9,,30,market
screen,html.Screen,2_1_1_1_31,2022-05-02T10:18:07.484Z,,,,,,,,,,,,,,,,,54,,,,,,,,,,,,,,187.10000000000582,,response,,,,100,,,,,,,Space,keypress(Space),,,,,,,,-- --- ---- --- ------ ----- ------- ---- -- --- ------- --<br>------- ---------- ------ -- ----- -- ----- -- ---- ------<br>--- ----- --- --- ------ -------- ----- --- ------ value --<br>----- ----- ---------- --- --- ------ ------ ---- -- ------<br>------- --- ------ ----- --- ---- ------- -- ---- --- --<br>------- ------,201085,201077,200879.9,200880,200889.9,201089.92,,31,value
screen,html.Screen,2_1_1_1_32,2022-05-02T10:18:07.927Z,,,,,,,,,,,,,,,,,54,,,,,,,,,,,,,,424.0799999999872,,response,,,,100,,,,,,,Space,keypress(Space),,,,,,,,-- --- ---- --- ------ ----- ------- ---- -- --- ------- --<br>------- ---------- ------ -- ----- -- ----- -- ---- ------<br>--- ----- --- --- ------ -------- ----- --- ------ ----- of<br>----- ----- ---------- --- --- ------ ------ ---- -- ------<br>------- --- ------ ----- --- ---- ------- -- ---- --- --<br>------- ------,201528,201514,201085.4,201085,201089.92,201539.98,,32,of
screen,html.Screen,2_1_1_1_33,2022-05-02T10:18:08.309Z,,,,,,,,,,,,,,,,,54,,,,,,,,,,,,,,365.0199999999895,,response,,,,100,,,,,,,Space,keypress(Space),,,,,,,,-- --- ---- --- ------ ----- ------- ---- -- --- ------- --<br>------- ---------- ------ -- ----- -- ----- -- ---- ------<br>--- ----- --- --- ------ -------- ----- --- ------ ----- --<br>these ----- ---------- --- --- ------ ------ ---- -- ------<br>------- --- ------ ----- --- ---- ------- -- ---- --- --<br>------- ------,201909,201905,201528.64,201529,201539.98,201923.38,,33,these
screen,html.Screen,2_1_1_1_34,2022-05-02T10:18:08.773Z,,,,,,,,,,,,,,,,,54,,,,,,,,,,,,,,434.61999999999534,,response,,,,100,,,,,,,Space,keypress(Space),,,,,,,,-- --- ---- --- ------ ----- ------- ---- -- --- ------- --<br>------- ---------- ------ -- ----- -- ----- -- ---- ------<br>--- ----- --- --- ------ -------- ----- --- ------ ----- --<br>----- bonds ---------- --- --- ------ ------ ---- -- ------<br>------- --- ------ ----- --- ---- ------- -- ---- --- --<br>------- ------,202373,202358,201909.58,201909,201923.38,202390.1,,34,bonds
screen,html.Screen,2_1_1_1_35,2022-05-02T10:18:09.492Z,,,,,,,,,,,,,,,,,54,,,,,,,,,,,,,,686.8999999999942,,response,,,,100,,,,,,,Space,keypress(Space),,,,,,,,"-- --- ---- --- ------ ----- ------- ---- -- --- ------- --<br>------- ---------- ------ -- ----- -- ----- -- ---- ------<br>--- ----- --- --- ------ -------- ----- --- ------ ----- --<br>----- ----- plummeted, --- --- ------ ------ ---- -- ------<br>------- --- ------ ----- --- ---- ------- -- ---- --- --<br>------- ------",203093,203077,202374.14,202374,202390.1,203108.48,,35,"plummeted,"
screen,html.Screen,2_1_1_1_36,2022-05-02T10:18:09.768Z,,,,,,,,,,,,,,,,,54,,,,,,,,,,,,,,249.51999999998952,,response,,,,100,,,,,,,Space,keypress(Space),,,,,,,,-- --- ---- --- ------ ----- ------- ---- -- --- ------- --<br>------- ---------- ------ -- ----- -- ----- -- ---- ------<br>--- ----- --- --- ------ -------- ----- --- ------ ----- --<br>----- ----- ---------- and --- ------ ------ ---- -- ------<br>------- --- ------ ----- --- ---- ------- -- ---- --- --<br>------- ------,203370,203358,203093.96,203094,203108.48,203375.18,,36,and
screen,html.Screen,2_1_1_1_37,2022-05-02T10:18:10.009Z,,,,,,,,,,,,,,,,,54,,,,,,,,,,,,,,217.82000000000698,,response,,,,100,,,,,,,Space,keypress(Space),,,,,,,,-- --- ---- --- ------ ----- ------- ---- -- --- ------- --<br>------- ---------- ------ -- ----- -- ----- -- ---- ------<br>--- ----- --- --- ------ -------- ----- --- ------ ----- --<br>----- ----- ---------- --- the ------ ------ ---- -- ------<br>------- --- ------ ----- --- ---- ------- -- ---- --- --<br>------- ------,203610,203593,203370.06,203370,203375.18,203625.22,,37,the
screen,html.Screen,2_1_1_1_38,2022-05-02T10:18:10.248Z,,,,,,,,,,,,,,,,,54,,,,,,,,,,,,,,217.77999999999884,,response,,,,100,,,,,,,Space,keypress(Space),,,,,,,,-- --- ---- --- ------ ----- ------- ---- -- --- ------- --<br>------- ---------- ------ -- ----- -- ----- -- ---- ------<br>--- ----- --- --- ------ -------- ----- --- ------ ----- --<br>----- ----- ---------- --- --- market ------ ---- -- ------<br>------- --- ------ ----- --- ---- ------- -- ---- --- --<br>------- ------,203849,203843,203610.36,203610,203625.22,203858.58,,38,market
screen,html.Screen,2_1_1_1_39,2022-05-02T10:18:10.686Z,,,,,,,,,,,,,,,,,54,,,,,,,,,,,,,,421.4200000000128,,response,,,,100,,,,,,,Space,keypress(Space),,,,,,,,-- --- ---- --- ------ ----- ------- ---- -- --- ------- --<br>------- ---------- ------ -- ----- -- ----- -- ---- ------<br>--- ----- --- --- ------ -------- ----- --- ------ ----- --<br>----- ----- ---------- --- --- ------ became ---- -- ------<br>------- --- ------ ----- --- ---- ------- -- ---- --- --<br>------- ------,204287,204280,203849.76,203849,203858.58,204291.98,,39,became
screen,html.Screen,2_1_1_1_40,2022-05-02T10:18:11.320Z,,,,,,,,,,,,,,,,,54,,,,,,,,,,,,,,613.0199999999895,,response,,,,100,,,,,,,Space,keypress(Space),,,,,,,,-- --- ---- --- ------ ----- ------- ---- -- --- ------- --<br>------- ---------- ------ -- ----- -- ----- -- ---- ------<br>--- ----- --- --- ------ -------- ----- --- ------ ----- --<br>----- ----- ---------- --- --- ------ ------ wary -- ------<br>------- --- ------ ----- --- ---- ------- -- ---- --- --<br>------- ------,204922,204905,204287.44,204288,204291.98,204925.4,,40,wary
screen,html.Screen,2_1_1_1_41,2022-05-02T10:18:11.727Z,,,,,,,,,,,,,,,,,54,,,,,,,,,,,,,,385.6000000000058,,response,,,,100,,,,,,,Space,keypress(Space),,,,,,,,-- --- ---- --- ------ ----- ------- ---- -- --- ------- --<br>------- ---------- ------ -- ----- -- ----- -- ---- ------<br>--- ----- --- --- ------ -------- ----- --- ------ ----- --<br>----- ----- ---------- --- --- ------ ------ ---- of ------<br>------- --- ------ ----- --- ---- ------- -- ---- --- --<br>------- ------,205327,205311,204922,204922,204925.4,205342.14,,41,of
screen,html.Screen,2_1_1_1_42,2022-05-02T10:18:12.187Z,,,,,,,,,,,,,,,,,54,,,,,,,,,,,,,,437.85999999998603,,response,,,,100,,,,,,,Space,keypress(Space),,,,,,,,-- --- ---- --- ------ ----- ------- ---- -- --- ------- --<br>------- ---------- ------ -- ----- -- ----- -- ---- ------<br>--- ----- --- --- ------ -------- ----- --- ------ ----- --<br>----- ----- ---------- --- --- ------ ------ ---- -- French<br>------- --- ------ ----- --- ---- ------- -- ---- --- --<br>------- ------,205788,205780,205328.02,205328,205342.14,205792.2,,42,French
screen,html.Screen,2_1_1_1_43,2022-05-02T10:18:12.943Z,,,,,,,,,,,,,,,,,54,,,,,,,,,,,,,,737.7999999999884,,response,,,,100,,,,,,,Space,keypress(Space),,,,,,,,-- --- ---- --- ------ ----- ------- ---- -- --- ------- --<br>------- ---------- ------ -- ----- -- ----- -- ---- ------<br>--- ----- --- --- ------ -------- ----- --- ------ ----- --<br>----- ----- ---------- --- --- ------ ------ ---- -- ------<br>credit. --- ------ ----- --- ---- ------- -- ---- --- --<br>------- ------,206544,206530,205788.42,205788,205792.2,206558.98,,43,credit.
screen,html.Screen,2_1_1_1_44,2022-05-02T10:18:13.302Z,,,,,,,,,,,,,,,,,54,,,,,,,,,,,,,,330.0199999999895,,response,,,,100,,,,,,,Space,keypress(Space),,,,,,,,-- --- ---- --- ------ ----- ------- ---- -- --- ------- --<br>------- ---------- ------ -- ----- -- ----- -- ---- ------<br>--- ----- --- --- ------ -------- ----- --- ------ ----- --<br>----- ----- ---------- --- --- ------ ------ ---- -- ------<br>------- The ------ ----- --- ---- ------- -- ---- --- --<br>------- ------,206903,206889,206544.9,206544,206558.98,206909.02,,44,The
screen,html.Screen,2_1_1_1_45,2022-05-02T10:18:13.530Z,,,,,,,,,,,,,,,,,54,,,,,,,,,,,,,,214.98000000001048,,response,,,,100,,,,,,,Space,keypress(Space),,,,,,,,-- --- ---- --- ------ ----- ------- ---- -- --- ------- --<br>------- ---------- ------ -- ----- -- ----- -- ---- ------<br>--- ----- --- --- ------ -------- ----- --- ------ ----- --<br>----- ----- ---------- --- --- ------ ------ ---- -- ------<br>------- --- French ----- --- ---- ------- -- ---- --- --<br>------- ------,207131,207124,206903.66,206903,206909.02,207142.4,,45,French
screen,html.Screen,2_1_1_1_46,2022-05-02T10:18:13.968Z,,,,,,,,,,,,,,,,,54,,,,,,,,,,,,,,418.6000000000058,,response,,,,100,,,,,,,Space,keypress(Space),,,,,,,,-- --- ---- --- ------ ----- ------- ---- -- --- ------- --<br>------- ---------- ------ -- ----- -- ----- -- ---- ------<br>--- ----- --- --- ------ -------- ----- --- ------ ----- --<br>----- ----- ---------- --- --- ------ ------ ---- -- ------<br>------- --- ------ state --- ---- ------- -- ---- --- --<br>------- ------,207570,207561,207131.48,207131,207142.4,207575.8,,46,state
screen,html.Screen,2_1_1_1_47,2022-05-02T10:18:14.338Z,,,,,,,,,,,,,,,,,54,,,,,,,,,,,,,,345.20000000001164,,response,,,,100,,,,,,,Space,keypress(Space),,,,,,,,-- --- ---- --- ------ ----- ------- ---- -- --- ------- --<br>------- ---------- ------ -- ----- -- ----- -- ---- ------<br>--- ----- --- --- ------ -------- ----- --- ------ ----- --<br>----- ----- ---------- --- --- ------ ------ ---- -- ------<br>------- --- ------ ----- was ---- ------- -- ---- --- --<br>------- ------,207939,207921,207569.78,207570,207575.8,207942.52,,47,was
screen,html.Screen,2_1_1_1_48,2022-05-02T10:18:14.580Z,,,,,,,,,,,,,,,,,54,,,,,,,,,,,,,,228.48000000001048,,response,,,,100,,,,,,,Space,keypress(Space),,,,,,,,-- --- ---- --- ------ ----- ------- ---- -- --- ------- --<br>------- ---------- ------ -- ----- -- ----- -- ---- ------<br>--- ----- --- --- ------ -------- ----- --- ------ ----- --<br>----- ----- ---------- --- --- ------ ------ ---- -- ------<br>------- --- ------ ----- --- left ------- -- ---- --- --<br>------- ------,208181,208171,207939.02,207939,207942.52,208192.56,,48,left
screen,html.Screen,2_1_1_1_49,2022-05-02T10:18:15.020Z,,,,,,,,,,,,,,,,,54,,,,,,,,,,,,,,415.4400000000023,,response,,,,100,,,,,,,Space,keypress(Space),,,,,,,,-- --- ---- --- ------ ----- ------- ---- -- --- ------- --<br>------- ---------- ------ -- ----- -- ----- -- ---- ------<br>--- ----- --- --- ------ -------- ----- --- ------ ----- --<br>----- ----- ---------- --- --- ------ ------ ---- -- ------<br>------- --- ------ ----- --- ---- without -- ---- --- --<br>------- ------,208622,208608,208181.7,208181,208192.56,208625.94,,49,without
screen,html.Screen,2_1_1_1_50,2022-05-02T10:18:15.471Z,,,,,,,,,,,,,,,,,54,,,,,,,,,,,,,,435.0599999999977,,response,,,,100,,,,,,,Space,keypress(Space),,,,,,,,-- --- ---- --- ------ ----- ------- ---- -- --- ------- --<br>------- ---------- ------ -- ----- -- ----- -- ---- ------<br>--- ----- --- --- ------ -------- ----- --- ------ ----- --<br>----- ----- ---------- --- --- ------ ------ ---- -- ------<br>------- --- ------ ----- --- ---- ------- an ---- --- --<br>------- ------,209072,209061,208621.86,208622,208625.94,209076.02,,50,an
screen,html.Screen,2_1_1_1_51,2022-05-02T10:18:15.963Z,,,,,,,,,,,,,,,,,54,,,,,,,,,,,,,,469.9800000000105,,response,,,,100,,,,,,,Space,keypress(Space),,,,,,,,-- --- ---- --- ------ ----- ------- ---- -- --- ------- --<br>------- ---------- ------ -- ----- -- ----- -- ---- ------<br>--- ----- --- --- ------ -------- ----- --- ------ ----- --<br>----- ----- ---------- --- --- ------ ------ ---- -- ------<br>------- --- ------ ----- --- ---- ------- -- easy --- --<br>------- ------,209564,209546,209071.96,209072,209076.02,209576.08,,51,easy
screen,html.Screen,2_1_1_1_52,2022-05-02T10:18:16.427Z,,,,,,,,,,,,,,,,,54,,,,,,,,,,,,,,437.9200000000128,,response,,,,100,,,,,,,Space,keypress(Space),,,,,,,,-- --- ---- --- ------ ----- ------- ---- -- --- ------- --<br>------- ---------- ------ -- ----- -- ----- -- ---- ------<br>--- ----- --- --- ------ -------- ----- --- ------ ----- --<br>----- ----- ---------- --- --- ------ ------ ---- -- ------<br>------- --- ------ ----- --- ---- ------- -- ---- way --<br>------- ------,210028,210014,209564.26,209565,209576.08,210042.82,,52,way
screen,html.Screen,2_1_1_1_53,2022-05-02T10:18:16.924Z,,,,,,,,,,,,,,,,,54,,,,,,,,,,,,,,471.179999999993,,response,,,,100,,,,,,,Space,keypress(Space),,,,,,,,-- --- ---- --- ------ ----- ------- ---- -- --- ------- --<br>------- ---------- ------ -- ----- -- ----- -- ---- ------<br>--- ----- --- --- ------ -------- ----- --- ------ ----- --<br>----- ----- ---------- --- --- ------ ------ ---- -- ------<br>------- --- ------ ----- --- ---- ------- -- ---- --- of<br>------- ------,210524,210514,210028.14,210028,210042.82,210527.96,,53,of
screen,html.Screen,2_1_1_1_54,2022-05-02T10:18:17.394Z,,,,,,,,,,,,,,,,,54,,,,,,,,,,,,,,455.04000000000815,,response,,,,100,,,,,,,Space,keypress(Space),,,,,,,,-- --- ---- --- ------ ----- ------- ---- -- --- ------- --<br>------- ---------- ------ -- ----- -- ----- -- ---- ------<br>--- ----- --- --- ------ -------- ----- --- ------ ----- --<br>----- ----- ---------- --- --- ------ ------ ---- -- ------<br>------- --- ------ ----- --- ---- ------- -- ---- --- --<br>raising ------,210995,210983,210524.72,210525,210527.96,211011.38,,54,raising
screen,html.Screen,2_1_1_1_55,2022-05-02T10:18:18.031Z,,,,,,,,,,,,,,,,,54,,,,,,,,,,,,,,612.6199999999953,,response,,,,100,,,,,,,Space,keypress(Space),,,,,,,,-- --- ---- --- ------ ----- ------- ---- -- --- ------- --<br>------- ---------- ------ -- ----- -- ----- -- ---- ------<br>--- ----- --- --- ------ -------- ----- --- ------ ----- --<br>----- ----- ---------- --- --- ------ ------ ---- -- ------<br>------- --- ------ ----- --- ---- ------- -- ---- --- --<br>------- money.,211632,211624,210995.34,210995,211011.38,211644.8,,55,money.
Item 100,flow.Loop,2_1_1_1,2022-05-02T10:18:18.031Z,,,,,,,,,,,,,,,,,,,,,,,,,,,,,,,22470.959999999992,,completion,,,,,E,,,,,,,,,,,silence,,,,,211632,211624,189136.36,189138,189153.04,211644.8,,,
Question 1,html.Screen,2_1_1_2,2022-05-02T10:18:20.552Z,,,,,,,,,,,,,,,,,,,,,,,,,,,,true,TRUE,,2494.2000000000116,,response,,,,100,E,,,,,,TRUE,click #choice-1,,,,silence,,,,,214153,214139,211631.86,211632,211644.8,214161.84,,,
Question 2,html.Screen,2_1_1_3,2022-05-02T10:18:23.634Z,,,,,,,,,,,,,,,,,,,,,,,,,,,,true,FALSE,,3055.1600000000035,,response,,,,100,E,,,,,,FALSE,click #choice-2,,,,silence,,,,,217234,217217,214151.38,214153,214161.84,217247.16,,,
Item 100,flow.Sequence,2_1_1,2022-05-02T10:18:23.635Z,,,,,,,,,,,,,,,,,,,,,,,,,,,,,,,38068.29999999999,,completion,,,,,,,,,,,,,,,,,,,,,217236,217217,179138.22,179140,179148.7,217247.16,,,
End of Practice,html.Page,2_1_2,2022-05-02T10:18:28.204Z,,,,,,,,,,,,,,,,,,,,,,,,,,,,,,,4556.8399999999965,,form submission,,,,,,,,,,,,,,,,,,,,,221805,221804,217231.5,217236,217247.16,221814.5,,,
Practice,flow.Sequence,2_1,2022-05-02T10:18:28.204Z,,,,,,,,,,,,,,,,,,,,,,,,,,,,,,,88589.44,,completion,,,,,,,,,,,,,,,,,,,,,221805,221804,133200.62,133208,133214.56,221814.5,,,
Trap_instruction,html.Page,2_2_0,2022-05-02T10:18:32.284Z,,,,,,,,,,,,,,,,,,,,,,,,,,,,,,,4068.5,,form submission,,,,,,,,,,,,,,,,,,,,,225885,225883,221800.54,221806,221814.5,225900.24,,,
trap_trial,html.Screen,2_2_1,2022-05-02T10:18:35.795Z,,,,,,,,,,,,,,,,,,,,,,,,,,,,true,1,,3488.7600000000093,,response,,,,,,,,,,,1,click #choice-1,,,,,,,,,229395,229389,225880.94,225885,225900.24,229400.76,,,
end of trap trial,html.Page,2_2_2,2022-05-02T10:18:37.984Z,,,,,,,,,,,,,,,,,,,,,,,,,,,,,,,2184.2399999999907,,form submission,,,,,,,,,,,,,,,,,,,,,231585,231585,229394.94,229396,229400.76,231585.72,,,
Trap 1,flow.Sequence,2_2,2022-05-02T10:18:37.985Z,,,,,,,,,,,,,,,,,,,,,,,,,,,,,,,9770.5,,completion,,,,,,,,,,,,,,,,,,,,,231586,231585,221800.54,221806,221814.5,231585.72,,,
Standby,html.Page,2_3_0,2022-05-02T10:18:45.972Z,,,,,,,,,,,,,,,,,,,,,,,,,,,,,,,8002.899999999994,,timeout,,,,,,,,,,,,,,,,,,,,,239573,239571.94,231581.92,231587,231585.72,239588.62,,,
Holding screen,html.Screen,2_3_1_0_0,2022-05-02T10:18:52.975Z,,,,,,,,,,,,,,,,,,,,,,,,,,,,,,,7002.860000000015,,timeout,,,,,,,,,,,,,,,,,,,,,246576,246574.82,239571.94,239573,239588.62,246591.48,,,
screen,html.Screen,2_3_1_0_1_0,2022-05-02T10:18:54.297Z,,,,,,,,,,,,,,,,,12,,,,,,,,,,,,,,1282.5199999999895,,response,,,,5,E,,,,,,Space,keypress(Space),,,,silence,,,,Some ------ ------ ------- ------ --- ------- -----------<br>-- ----- --- ---- -- --- ------ ---- - ---- -- ----------<br>-- ------ ---- --- ---- --- --- --- ----- -- -------- ---<br>------ ------- -------- --- ---- -- ------- ------------ --<br>------ -- ---- -- --- ---- -- -------- -- --- ------ ------,247898,247874,246574.82,246577,246591.48,247908.34,,0,Some
screen,html.Screen,2_3_1_0_1_1,2022-05-02T10:18:54.688Z,,,,,,,,,,,,,,,,,12,,,,,,,,,,,,,,355.6600000000035,,response,,,,5,E,,,,,,Space,keypress(Space),,,,silence,,,,---- months ------ ------- ------ --- ------- -----------<br>-- ----- --- ---- -- --- ------ ---- - ---- -- ----------<br>-- ------ ---- --- ---- --- --- --- ----- -- -------- ---<br>------ ------- -------- --- ---- -- ------- ------------ --<br>------ -- ---- -- --- ---- -- -------- -- --- ------ ------,248289,248264,247898.7,247899,247908.34,248291.72,,1,months
screen,html.Screen,2_3_1_0_1_2,2022-05-02T10:18:55.077Z,,,,,,,,,,,,,,,,,12,,,,,,,,,,,,,,363.27999999999884,,response,,,,5,E,,,,,,Space,keypress(Space),,,,silence,,,,"---- ------ later, ------- ------ --- ------- -----------<br>-- ----- --- ---- -- --- ------ ---- - ---- -- ----------<br>-- ------ ---- --- ---- --- --- --- ----- -- -------- ---<br>------ ------- -------- --- ---- -- ------- ------------ --<br>------ -- ---- -- --- ---- -- -------- -- --- ------ ------",248677,248655,248288.92,248289,248291.72,248691.78,,2,"later,"
screen,html.Screen,2_3_1_0_1_3,2022-05-02T10:18:55.591Z,,,,,,,,,,,,,,,,,12,,,,,,,,,,,,,,494.22000000000116,,response,,,,5,E,,,,,,Space,keypress(Space),,,,silence,,,,---- ------ ------ Michael ------ --- ------- -----------<br>-- ----- --- ---- -- --- ------ ---- - ---- -- ----------<br>-- ------ ---- --- ---- --- --- --- ----- -- -------- ---<br>------ ------- -------- --- ---- -- ------- ------------ --<br>------ -- ---- -- --- ---- -- -------- -- --- ------ ------,249192,249186,248678.04,248678,248691.78,249208.52,,3,Michael
screen,html.Screen,2_3_1_0_1_4,2022-05-02T10:18:55.893Z,,,,,,,,,,,,,,,,,12,,,,,,,,,,,,,,274.4800000000105,,response,,,,5,E,,,,,,Space,keypress(Space),,,,silence,,,,---- ------ ------ ------- Larson --- ------- -----------<br>-- ----- --- ---- -- --- ------ ---- - ---- -- ----------<br>-- ------ ---- --- ---- --- --- --- ----- -- -------- ---<br>------ ------- -------- --- ---- -- ------- ------------ --<br>------ -- ---- -- --- ---- -- -------- -- --- ------ ------,249494,249483,249192.6,249192,249208.52,249508.58,,4,Larson
screen,html.Screen,2_3_1_0_1_5,2022-05-02T10:18:56.172Z,,,,,,,,,,,,,,,,,12,,,,,,,,,,,,,,255.4200000000128,,response,,,,5,E,,,,,,Space,keypress(Space),,,,silence,,,,---- ------ ------ ------- ------ saw ------- -----------<br>-- ----- --- ---- -- --- ------ ---- - ---- -- ----------<br>-- ------ ---- --- ---- --- --- --- ----- -- -------- ---<br>------ ------- -------- --- ---- -- ------- ------------ --<br>------ -- ---- -- --- ---- -- -------- -- --- ------ ------,249772,249764,249494.7,249494,249508.58,249775.28,,5,saw
screen,html.Screen,2_3_1_0_1_6,2022-05-02T10:18:56.413Z,,,,,,,,,,,,,,,,,12,,,,,,,,,,,,,,223.72000000000116,,response,,,,5,E,,,,,,Space,keypress(Space),,,,silence,,,,---- ------ ------ ------- ------ --- another -----------<br>-- ----- --- ---- -- --- ------ ---- - ---- -- ----------<br>-- ------ ---- --- ---- --- --- --- ----- -- -------- ---<br>------ ------- -------- --- ---- -- ------- ------------ --<br>------ -- ---- -- --- ---- -- -------- -- --- ------ ------,250014,249999,249772.72,249772,249775.28,250025.32,,6,another
screen,html.Screen,2_3_1_0_1_7,2022-05-02T10:18:56.842Z,,,,,,,,,,,,,,,,,12,,,,,,,,,,,,,,409.679999999993,,response,,,,5,E,,,,,,Space,keypress(Space),,,,silence,,,,---- ------ ------ ------- ------ --- ------- opportunity<br>-- ----- --- ---- -- --- ------ ---- - ---- -- ----------<br>-- ------ ---- --- ---- --- --- --- ----- -- -------- ---<br>------ ------- -------- --- ---- -- ------- ------------ --<br>------ -- ---- -- --- ---- -- -------- -- --- ------ ------,250444,250435,250014.56,250015,250025.32,250458.72,,7,opportunity
screen,html.Screen,2_3_1_0_1_8,2022-05-02T10:18:57.203Z,,,,,,,,,,,,,,,,,12,,,,,,,,,,,,,,337.27999999999884,,response,,,,5,E,,,,,,Space,keypress(Space),,,,silence,,,,---- ------ ------ ------- ------ --- ------- -----------<br>to ----- --- ---- -- --- ------ ---- - ---- -- ----------<br>-- ------ ---- --- ---- --- --- --- ----- -- -------- ---<br>------ ------- -------- --- ---- -- ------- ------------ --<br>------ -- ---- -- --- ---- -- -------- -- --- ------ ------,250805,250796,250444.06,250444,250458.72,250808.76,,8,to
screen,html.Screen,2_3_1_0_1_9,2022-05-02T10:18:57.401Z,,,,,,,,,,,,,,,,,12,,,,,,,,,,,,,,190.2399999999907,,response,,,,5,E,,,,,,Space,keypress(Space),,,,silence,,,,---- ------ ------ ------- ------ --- ------- -----------<br>-- stack --- ---- -- --- ------ ---- - ---- -- ----------<br>-- ------ ---- --- ---- --- --- --- ----- -- -------- ---<br>------ ------- -------- --- ---- -- ------- ------------ --<br>------ -- ---- -- --- ---- -- -------- -- --- ------ ------,251002,250999,250805.1,250805,250808.76,251008.8,,9,stack
screen,html.Screen,2_3_1_0_1_10,2022-05-02T10:18:57.630Z,,,,,,,,,,,,,,,,,12,,,,,,,,,,,,,,209.20000000001164,,response,,,,5,E,,,,,,Space,keypress(Space),,,,silence,,,,---- ------ ------ ------- ------ --- ------- -----------<br>-- ----- the ---- -- --- ------ ---- - ---- -- ----------<br>-- ------ ---- --- ---- --- --- --- ----- -- -------- ---<br>------ ------- -------- --- ---- -- ------- ------------ --<br>------ -- ---- -- --- ---- -- -------- -- --- ------ ------,251231,251218,251002.38,251002,251008.8,251242.16,,10,the
screen,html.Screen,2_3_1_0_1_11,2022-05-02T10:18:58.070Z,,,,,,,,,,,,,,,,,12,,,,,,,,,,,,,,412.8399999999965,,response,,,,5,E,,,,,,Space,keypress(Space),,,,silence,,,,---- ------ ------ ------- ------ --- ------- -----------<br>-- ----- --- odds -- --- ------ ---- - ---- -- ----------<br>-- ------ ---- --- ---- --- --- --- ----- -- -------- ---<br>------ ------- -------- --- ---- -- ------- ------------ --<br>------ -- ---- -- --- ---- -- -------- -- --- ------ ------,251671,251655,251231.7,251232,251242.16,251675.56,,11,odds
screen,html.Screen,2_3_1_0_1_12,2022-05-02T10:18:58.596Z,,,,,,,,,,,,,,,,,12,,,,,,,,,,,,,,510.4400000000023,,response,,,,5,E,,,,,,Space,keypress(Space),,,,silence,,,,---- ------ ------ ------- ------ --- ------- -----------<br>-- ----- --- ---- in --- ------ ---- - ---- -- ----------<br>-- ------ ---- --- ---- --- --- --- ----- -- -------- ---<br>------ ------- -------- --- ---- -- ------- ------------ --<br>------ -- ---- -- --- ---- -- -------- -- --- ------ ------,252197,252186,251671.2,251671,251675.56,252208.96,,12,in
screen,html.Screen,2_3_1_0_1_13,2022-05-02T10:18:58.888Z,,,,,,,,,,,,,,,,,12,,,,,,,,,,,,,,259.04000000000815,,response,,,,5,E,,,,,,Space,keypress(Space),,,,silence,,,,---- ------ ------ ------- ------ --- ------- -----------<br>-- ----- --- ---- -- his ------ ---- - ---- -- ----------<br>-- ------ ---- --- ---- --- --- --- ----- -- -------- ---<br>------ ------- -------- --- ---- -- ------- ------------ --<br>------ -- ---- -- --- ---- -- -------- -- --- ------ ------,252489,252468,252197.02,252197,252208.96,252492.34,,13,his
screen,html.Screen,2_3_1_0_1_14,2022-05-02T10:18:59.249Z,,,,,,,,,,,,,,,,,12,,,,,,,,,,,,,,334.6600000000035,,response,,,,5,E,,,,,,Space,keypress(Space),,,,silence,,,,---- ------ ------ ------- ------ --- ------- -----------<br>-- ----- --- ---- -- --- favour ---- - ---- -- ----------<br>-- ------ ---- --- ---- --- --- --- ----- -- -------- ---<br>------ ------- -------- --- ---- -- ------- ------------ --<br>------ -- ---- -- --- ---- -- -------- -- --- ------ ------,252849,252827,252489.42,252489,252492.34,252859.06,,14,favour
screen,html.Screen,2_3_1_0_1_15,2022-05-02T10:18:59.581Z,,,,,,,,,,,,,,,,,12,,,,,,,,,,,,,,311.9400000000023,,response,,,,5,E,,,,,,Space,keypress(Space),,,,silence,,,,---- ------ ------ ------- ------ --- ------- -----------<br>-- ----- --- ---- -- --- ------ with - ---- -- ----------<br>-- ------ ---- --- ---- --- --- --- ----- -- -------- ---<br>------ ------- -------- --- ---- -- ------- ------------ --<br>------ -- ---- -- --- ---- -- -------- -- --- ------ ------,253182,253171,252850.28,252850,252859.06,253194.2,,15,with
screen,html.Screen,2_3_1_0_1_16,2022-05-02T10:18:59.830Z,,,,,,,,,,,,,,,,,12,,,,,,,,,,,,,,210.79999999998836,,response,,,,5,E,,,,,,Space,keypress(Space),,,,silence,,,,---- ------ ------ ------- ------ --- ------- -----------<br>-- ----- --- ---- -- --- ------ ---- a ---- -- ----------<br>-- ------ ---- --- ---- --- --- --- ----- -- -------- ---<br>------ ------- -------- --- ---- -- ------- ------------ --<br>------ -- ---- -- --- ---- -- -------- -- --- ------ ------,253431,253405,253182.64,253183,253194.2,253444.24,,16,a
screen,html.Screen,2_3_1_0_1_17,2022-05-02T10:19:00.211Z,,,,,,,,,,,,,,,,,12,,,,,,,,,,,,,,351.7600000000093,,response,,,,5,E,,,,,,Space,keypress(Space),,,,silence,,,,---- ------ ------ ------- ------ --- ------- -----------<br>-- ----- --- ---- -- --- ------ ---- - dash -- ----------<br>-- ------ ---- --- ---- --- --- --- ----- -- -------- ---<br>------ ------- -------- --- ---- -- ------- ------------ --<br>------ -- ---- -- --- ---- -- -------- -- --- ------ ------,253812,253796,253431.4,253431,253444.24,253827.62,,17,dash
screen,html.Screen,2_3_1_0_1_18,2022-05-02T10:19:00.583Z,,,,,,,,,,,,,,,,,12,,,,,,,,,,,,,,343.38000000000466,,response,,,,5,E,,,,,,Space,keypress(Space),,,,silence,,,,---- ------ ------ ------- ------ --- ------- -----------<br>-- ----- --- ---- -- --- ------ ---- - ---- of ----------<br>-- ------ ---- --- ---- --- --- --- ----- -- -------- ---<br>------ ------- -------- --- ---- -- ------- ------------ --<br>------ -- ---- -- --- ---- -- -------- -- --- ------ ------,254184,254171,253812.14,253812,253827.62,254194.34,,18,of
screen,html.Screen,2_3_1_0_1_19,2022-05-02T10:19:01.014Z,,,,,,,,,,,,,,,,,12,,,,,,,,,,,,,,413.6600000000035,,response,,,,5,E,,,,,,Space,keypress(Space),,,,silence,,,,---- ------ ------ ------- ------ --- ------- -----------<br>-- ----- --- ---- -- --- ------ ---- - ---- -- ingenuity.<br>-- ------ ---- --- ---- --- --- --- ----- -- -------- ---<br>------ ------- -------- --- ---- -- ------- ------------ --<br>------ -- ---- -- --- ---- -- -------- -- --- ------ ------,254616,254608,254184.4,254185,254194.34,254627.74,,19,ingenuity.
screen,html.Screen,2_3_1_0_1_20,2022-05-02T10:19:01.522Z,,,,,,,,,,,,,,,,,12,,,,,,,,,,,,,,480.2600000000093,,response,,,,5,E,,,,,,Space,keypress(Space),,,,silence,,,,---- ------ ------ ------- ------ --- ------- -----------<br>-- ----- --- ---- -- --- ------ ---- - ---- -- ----------<br>He ------ ---- --- ---- --- --- --- ----- -- -------- ---<br>------ ------- -------- --- ---- -- ------- ------------ --<br>------ -- ---- -- --- ---- -- -------- -- --- ------ ------,255123,255108,254615.46,254616,254627.74,255127.82,,20,He
screen,html.Screen,2_3_1_0_1_21,2022-05-02T10:19:01.770Z,,,,,,,,,,,,,,,,,12,,,,,,,,,,,,,,230.17999999999302,,response,,,,5,E,,,,,,Space,keypress(Space),,,,silence,,,,---- ------ ------ ------- ------ --- ------- -----------<br>-- ----- --- ---- -- --- ------ ---- - ---- -- ----------<br>-- walked ---- --- ---- --- --- --- ----- -- -------- ---<br>------ ------- -------- --- ---- -- ------- ------------ --<br>------ -- ---- -- --- ---- -- -------- -- --- ------ ------,255371,255358,255122.94,255123,255127.82,255377.84,,21,walked
screen,html.Screen,2_3_1_0_1_22,2022-05-02T10:19:02.019Z,,,,,,,,,,,,,,,,,12,,,,,,,,,,,,,,230.1600000000035,,response,,,,5,E,,,,,,Space,keypress(Space),,,,silence,,,,---- ------ ------ ------- ------ --- ------- -----------<br>-- ----- --- ---- -- --- ------ ---- - ---- -- ----------<br>-- ------ into --- ---- --- --- --- ----- -- -------- ---<br>------ ------- -------- --- ---- -- ------- ------------ --<br>------ -- ---- -- --- ---- -- -------- -- --- ------ ------,255620,255608,255371.34,255371,255377.84,255627.88,,22,into
screen,html.Screen,2_3_1_0_1_23,2022-05-02T10:19:02.277Z,,,,,,,,,,,,,,,,,12,,,,,,,,,,,,,,230.11999999999534,,response,,,,5,E,,,,,,Space,keypress(Space),,,,silence,,,,---- ------ ------ ------- ------ --- ------- -----------<br>-- ----- --- ---- -- --- ------ ---- - ---- -- ----------<br>-- ------ ---- his ---- --- --- --- ----- -- -------- ---<br>------ ------- -------- --- ---- -- ------- ------------ --<br>------ -- ---- -- --- ---- -- -------- -- --- ------ ------,255878,255858,255620.72,255621,255627.88,255894.6,,23,his
screen,html.Screen,2_3_1_0_1_24,2022-05-02T10:19:02.682Z,,,,,,,,,,,,,,,,,12,,,,,,,,,,,,,,369.3999999999942,,response,,,,5,E,,,,,,Space,keypress(Space),,,,silence,,,,---- ------ ------ ------- ------ --- ------- -----------<br>-- ----- --- ---- -- --- ------ ---- - ---- -- ----------<br>-- ------ ---- --- bank --- --- --- ----- -- -------- ---<br>------ ------- -------- --- ---- -- ------- ------------ --<br>------ -- ---- -- --- ---- -- -------- -- --- ------ ------,256283,256264,255878.34,255879,255894.6,256294.64,,24,bank
screen,html.Screen,2_3_1_0_1_25,2022-05-02T10:19:03.115Z,,,,,,,,,,,,,,,,,12,,,,,,,,,,,,,,407.35999999998603,,response,,,,5,E,,,,,,Space,keypress(Space),,,,silence,,,,---- ------ ------ ------- ------ --- ------- -----------<br>-- ----- --- ---- -- --- ------ ---- - ---- -- ----------<br>-- ------ ---- --- ---- one --- --- ----- -- -------- ---<br>------ ------- -------- --- ---- -- ------- ------------ --<br>------ -- ---- -- --- ---- -- -------- -- --- ------ ------,256716,256702,256283.48,256283,256294.64,256728.04,,25,one
screen,html.Screen,2_3_1_0_1_26,2022-05-02T10:19:03.706Z,,,,,,,,,,,,,,,,,12,,,,,,,,,,,,,,566.9599999999919,,response,,,,5,E,,,,,,Space,keypress(Space),,,,silence,,,,---- ------ ------ ------- ------ --- ------- -----------<br>-- ----- --- ---- -- --- ------ ---- - ---- -- ----------<br>-- ------ ---- --- ---- --- day --- ----- -- -------- ---<br>------ ------- -------- --- ---- -- ------- ------------ --<br>------ -- ---- -- --- ---- -- -------- -- --- ------ ------,257307,257295,256716.5,256716,256728.04,257311.46,,26,day
screen,html.Screen,2_3_1_0_1_27,2022-05-02T10:19:03.986Z,,,,,,,,,,,,,,,,,12,,,,,,,,,,,,,,265.54000000000815,,response,,,,5,E,,,,,,Space,keypress(Space),,,,silence,,,,---- ------ ------ ------- ------ --- ------- -----------<br>-- ----- --- ---- -- --- ------ ---- - ---- -- ----------<br>-- ------ ---- --- ---- --- --- and ----- -- -------- ---<br>------ ------- -------- --- ---- -- ------- ------------ --<br>------ -- ---- -- --- ---- -- -------- -- --- ------ ------,257587,257577,257307.34,257307,257311.46,257594.84,,27,and
screen,html.Screen,2_3_1_0_1_28,2022-05-02T10:19:04.196Z,,,,,,,,,,,,,,,,,12,,,,,,,,,,,,,,185.1600000000035,,response,,,,5,E,,,,,,Space,keypress(Space),,,,silence,,,,---- ------ ------ ------- ------ --- ------- -----------<br>-- ----- --- ---- -- --- ------ ---- - ---- -- ----------<br>-- ------ ---- --- ---- --- --- --- asked -- -------- ---<br>------ ------- -------- --- ---- -- ------- ------------ --<br>------ -- ---- -- --- ---- -- -------- -- --- ------ ------,257798,257780,257587.26,257587,257594.84,257811.54,,28,asked
screen,html.Screen,2_3_1_0_1_29,2022-05-02T10:19:04.373Z,,,,,,,,,,,,,,,,,12,,,,,,,,,,,,,,155.45999999999185,,response,,,,5,E,,,,,,Space,keypress(Space),,,,silence,,,,---- ------ ------ ------- ------ --- ------- -----------<br>-- ----- --- ---- -- --- ------ ---- - ---- -- ----------<br>-- ------ ---- --- ---- --- --- --- ----- to -------- ---<br>------ ------- -------- --- ---- -- ------- ------------ --<br>------ -- ---- -- --- ---- -- -------- -- --- ------ ------,257974,257967,257797.76,257798,257811.54,257978.22,,29,to
screen,html.Screen,2_3_1_0_1_30,2022-05-02T10:19:04.558Z,,,,,,,,,,,,,,,,,12,,,,,,,,,,,,,,160.77999999999884,,response,,,,5,E,,,,,,Space,keypress(Space),,,,silence,,,,---- ------ ------ ------- ------ --- ------- -----------<br>-- ----- --- ---- -- --- ------ ---- - ---- -- ----------<br>-- ------ ---- --- ---- --- --- --- ----- -- withdraw ---<br>------ ------- -------- --- ---- -- ------- ------------ --<br>------ -- ---- -- --- ---- -- -------- -- --- ------ ------,258159,258139,257973.64,257974,257978.22,258161.58,,30,withdraw
screen,html.Screen,2_3_1_0_1_31,2022-05-02T10:19:05.063Z,,,,,,,,,,,,,,,,,12,,,,,,,,,,,,,,493.4200000000128,,response,,,,5,E,,,,,,Space,keypress(Space),,,,silence,,,,---- ------ ------ ------- ------ --- ------- -----------<br>-- ----- --- ---- -- --- ------ ---- - ---- -- ----------<br>-- ------ ---- --- ---- --- --- --- ----- -- -------- his<br>------ ------- -------- --- ---- -- ------- ------------ --<br>------ -- ---- -- --- ---- -- -------- -- --- ------ ------,258664,258655,258159.06,258159,258161.58,258678.34,,31,his
screen,html.Screen,2_3_1_0_1_32,2022-05-02T10:19:05.399Z,,,,,,,,,,,,,,,,,12,,,,,,,,,,,,,,304.6600000000035,,response,,,,5,E,,,,,,Space,keypress(Space),,,,silence,,,,---- ------ ------ ------- ------ --- ------- -----------<br>-- ----- --- ---- -- --- ------ ---- - ---- -- ----------<br>-- ------ ---- --- ---- --- --- --- ----- -- -------- ---<br>entire ------- -------- --- ---- -- ------- ------------ --<br>------ -- ---- -- --- ---- -- -------- -- --- ------ ------,259001,258983,258664.12,258664,258678.34,259011.72,,32,entire
screen,html.Screen,2_3_1_0_1_33,2022-05-02T10:19:05.602Z,,,,,,,,,,,,,,,,,12,,,,,,,,,,,,,,174.27999999999884,,response,,,,5,E,,,,,,Space,keypress(Space),,,,silence,,,,---- ------ ------ ------- ------ --- ------- -----------<br>-- ----- --- ---- -- --- ------ ---- - ---- -- ----------<br>-- ------ ---- --- ---- --- --- --- ----- -- -------- ---<br>------ account -------- --- ---- -- ------- ------------ --<br>------ -- ---- -- --- ---- -- -------- -- --- ------ ------,259203,259186,259001.44,259002,259011.72,259211.74,,33,account
screen,html.Screen,2_3_1_0_1_34,2022-05-02T10:19:06.057Z,,,,,,,,,,,,,,,,,12,,,,,,,,,,,,,,427.2600000000093,,response,,,,5,E,,,,,,Space,keypress(Space),,,,silence,,,,"---- ------ ------ ------- ------ --- ------- -----------<br>-- ----- --- ---- -- --- ------ ---- - ---- -- ----------<br>-- ------ ---- --- ---- --- --- --- ----- -- -------- ---<br>------ ------- balance, --- ---- -- ------- ------------ --<br>------ -- ---- -- --- ---- -- -------- -- --- ------ ------",259658,259639,259203.14,259203,259211.74,259661.8,,34,"balance,"
screen,html.Screen,2_3_1_0_1_35,2022-05-02T10:19:06.325Z,,,,,,,,,,,,,,,,,12,,,,,,,,,,,,,,259.20000000001164,,response,,,,5,E,,,,,,Space,keypress(Space),,,,silence,,,,---- ------ ------ ------- ------ --- ------- -----------<br>-- ----- --- ---- -- --- ------ ---- - ---- -- ----------<br>-- ------ ---- --- ---- --- --- --- ----- -- -------- ---<br>------ ------- -------- but ---- -- ------- ------------ --<br>------ -- ---- -- --- ---- -- -------- -- --- ------ ------,259926,259921,259658.14,259658,259661.8,259928.52,,35,but
screen,html.Screen,2_3_1_0_1_36,2022-05-02T10:19:06.528Z,,,,,,,,,,,,,,,,,12,,,,,,,,,,,,,,195.48000000001048,,response,,,,5,E,,,,,,Space,keypress(Space),,,,silence,,,,---- ------ ------ ------- ------ --- ------- -----------<br>-- ----- --- ---- -- --- ------ ---- - ---- -- ----------<br>-- ------ ---- --- ---- --- --- --- ----- -- -------- ---<br>------ ------- -------- --- with -- ------- ------------ --<br>------ -- ---- -- --- ---- -- -------- -- --- ------ ------,260129,260124,259926.9,259927,259928.52,260145.22,,36,with
screen,html.Screen,2_3_1_0_1_37,2022-05-02T10:19:06.742Z,,,,,,,,,,,,,,,,,12,,,,,,,,,,,,,,181.77999999999884,,response,,,,5,E,,,,,,Space,keypress(Space),,,,silence,,,,---- ------ ------ ------- ------ --- ------- -----------<br>-- ----- --- ---- -- --- ------ ---- - ---- -- ----------<br>-- ------ ---- --- ---- --- --- --- ----- -- -------- ---<br>------ ------- -------- --- ---- an ------- ------------ --<br>------ -- ---- -- --- ---- -- -------- -- --- ------ ------,260343,260327,260128.6,260129,260145.22,260347,,37,an
screen,html.Screen,2_3_1_0_1_38,2022-05-02T10:19:07.247Z,,,,,,,,,,,,,,,,,12,,,,,,,,,,,,,,496,,response,,,,5,E,,,,,,Space,keypress(Space),,,,silence,,,,---- ------ ------ ------- ------ --- ------- -----------<br>-- ----- --- ---- -- --- ------ ---- - ---- -- ----------<br>-- ------ ---- --- ---- --- --- --- ----- -- -------- ---<br>------ ------- -------- --- ---- -- unusual ------------ --<br>------ -- ---- -- --- ---- -- -------- -- --- ------ ------,260848,260843,260342.94,260343,260347,260863.74,,38,unusual
screen,html.Screen,2_3_1_0_1_39,2022-05-02T10:19:07.642Z,,,,,,,,,,,,,,,,,12,,,,,,,,,,,,,,369.2600000000093,,response,,,,5,E,,,,,,Space,keypress(Space),,,,silence,,,,---- ------ ------ ------- ------ --- ------- -----------<br>-- ----- --- ---- -- --- ------ ---- - ---- -- ----------<br>-- ------ ---- --- ---- --- --- --- ----- -- -------- ---<br>------ ------- -------- --- ---- -- ------- stipulation: --<br>------ -- ---- -- --- ---- -- -------- -- --- ------ ------,261242,261233,260848.42,260848,260863.74,261247.12,,39,stipulation:
screen,html.Screen,2_3_1_0_1_40,2022-05-02T10:19:08.161Z,,,,,,,,,,,,,,,,,12,,,,,,,,,,,,,,501.88000000000466,,response,,,,5,E,,,,,,Space,keypress(Space),,,,silence,,,,---- ------ ------ ------- ------ --- ------- -----------<br>-- ----- --- ---- -- --- ------ ---- - ---- -- ----------<br>-- ------ ---- --- ---- --- --- --- ----- -- -------- ---<br>------ ------- -------- --- ---- -- ------- ------------ He<br>------ -- ---- -- --- ---- -- -------- -- --- ------ ------,261762,261749,261243.28,261244,261247.12,261763.86,,40,He
screen,html.Screen,2_3_1_0_1_41,2022-05-02T10:19:08.379Z,,,,,,,,,,,,,,,,,12,,,,,,,,,,,,,,204.14000000001397,,response,,,,5,E,,,,,,Space,keypress(Space),,,,silence,,,,---- ------ ------ ------- ------ --- ------- -----------<br>-- ----- --- ---- -- --- ------ ---- - ---- -- ----------<br>-- ------ ---- --- ---- --- --- --- ----- -- -------- ---<br>------ ------- -------- --- ---- -- ------- ------------ --<br>wanted -- ---- -- --- ---- -- -------- -- --- ------ ------,261980,261968,261762.02,261762,261763.86,261980.56,,41,wanted
screen,html.Screen,2_3_1_0_1_42,2022-05-02T10:19:08.614Z,,,,,,,,,,,,,,,,,12,,,,,,,,,,,,,,221.44000000000233,,response,,,,5,E,,,,,,Space,keypress(Space),,,,silence,,,,---- ------ ------ ------- ------ --- ------- -----------<br>-- ----- --- ---- -- --- ------ ---- - ---- -- ----------<br>-- ------ ---- --- ---- --- --- --- ----- -- -------- ---<br>------ ------- -------- --- ---- -- ------- ------------ --<br>------ as ---- -- --- ---- -- -------- -- --- ------ ------,262215,262202,261979.94,261980,261980.56,262230.6,,42,as
screen,html.Screen,2_3_1_0_1_43,2022-05-02T10:19:08.833Z,,,,,,,,,,,,,,,,,12,,,,,,,,,,,,,,189.40000000002328,,response,,,,5,E,,,,,,Space,keypress(Space),,,,silence,,,,---- ------ ------ ------- ------ --- ------- -----------<br>-- ----- --- ---- -- --- ------ ---- - ---- -- ----------<br>-- ------ ---- --- ---- --- --- --- ----- -- -------- ---<br>------ ------- -------- --- ---- -- ------- ------------ --<br>------ -- much -- --- ---- -- -------- -- --- ------ ------,262434,262420,262214.88,262215,262230.6,262447.3,,43,much
screen,html.Screen,2_3_1_0_1_44,2022-05-02T10:19:09.211Z,,,,,,,,,,,,,,,,,12,,,,,,,,,,,,,,348.70000000001164,,response,,,,5,E,,,,,,Space,keypress(Space),,,,silence,,,,---- ------ ------ ------- ------ --- ------- -----------<br>-- ----- --- ---- -- --- ------ ---- - ---- -- ----------<br>-- ------ ---- --- ---- --- --- --- ----- -- -------- ---<br>------ ------- -------- --- ---- -- ------- ------------ --<br>------ -- ---- of --- ---- -- -------- -- --- ------ ------,262813,262796,262434.4,262434,262447.3,262814.02,,44,of
screen,html.Screen,2_3_1_0_1_45,2022-05-02T10:19:09.427Z,,,,,,,,,,,,,,,,,12,,,,,,,,,,,,,,199.97999999998137,,response,,,,5,E,,,,,,Space,keypress(Space),,,,silence,,,,---- ------ ------ ------- ------ --- ------- -----------<br>-- ----- --- ---- -- --- ------ ---- - ---- -- ----------<br>-- ------ ---- --- ---- --- --- --- ----- -- -------- ---<br>------ ------- -------- --- ---- -- ------- ------------ --<br>------ -- ---- -- the ---- -- -------- -- --- ------ ------,263028,263014,262812.88,262813,262814.02,263030.72,,45,the
screen,html.Screen,2_3_1_0_1_46,2022-05-02T10:19:09.642Z,,,,,,,,,,,,,,,,,12,,,,,,,,,,,,,,202.28000000002794,,response,,,,5,E,,,,,,Space,keypress(Space),,,,silence,,,,---- ------ ------ ------- ------ --- ------- -----------<br>-- ----- --- ---- -- --- ------ ---- - ---- -- ----------<br>-- ------ ---- --- ---- --- --- --- ----- -- -------- ---<br>------ ------- -------- --- ---- -- ------- ------------ --<br>------ -- ---- -- --- cash -- -------- -- --- ------ ------,263242,263233,263028.08,263028,263030.72,263247.42,,46,cash
screen,html.Screen,2_3_1_0_1_47,2022-05-02T10:19:10.010Z,,,,,,,,,,,,,,,,,12,,,,,,,,,,,,,,345.5800000000163,,response,,,,5,E,,,,,,Space,keypress(Space),,,,silence,,,,---- ------ ------ ------- ------ --- ------- -----------<br>-- ----- --- ---- -- --- ------ ---- - ---- -- ----------<br>-- ------ ---- --- ---- --- --- --- ----- -- -------- ---<br>------ ------- -------- --- ---- -- ------- ------------ --<br>------ -- ---- -- --- ---- as -------- -- --- ------ ------,263611,263593,263243.02,263243,263247.42,263614.14,,47,as
screen,html.Screen,2_3_1_0_1_48,2022-05-02T10:19:10.328Z,,,,,,,,,,,,,,,,,12,,,,,,,,,,,,,,306.85999999998603,,response,,,,5,E,,,,,,Space,keypress(Space),,,,silence,,,,---- ------ ------ ------- ------ --- ------- -----------<br>-- ----- --- ---- -- --- ------ ---- - ---- -- ----------<br>-- ------ ---- --- ---- --- --- --- ----- -- -------- ---<br>------ ------- -------- --- ---- -- ------- ------------ --<br>------ -- ---- -- --- ---- -- possible -- --- ------ ------,263930,263921,263611.02,263611,263614.14,263930.84,,48,possible
screen,html.Screen,2_3_1_0_1_49,2022-05-02T10:19:10.725Z,,,,,,,,,,,,,,,,,12,,,,,,,,,,,,,,380.1599999999744,,response,,,,5,E,,,,,,Space,keypress(Space),,,,silence,,,,---- ------ ------ ------- ------ --- ------- -----------<br>-- ----- --- ---- -- --- ------ ---- - ---- -- ----------<br>-- ------ ---- --- ---- --- --- --- ----- -- -------- ---<br>------ ------- -------- --- ---- -- ------- ------------ --<br>------ -- ---- -- --- ---- -- -------- in --- ------ ------,264326,264311,263930.02,263930,263930.84,264330.9,,49,in
screen,html.Screen,2_3_1_0_1_50,2022-05-02T10:19:11.065Z,,,,,,,,,,,,,,,,,12,,,,,,,,,,,,,,324.0999999999767,,response,,,,5,E,,,,,,Space,keypress(Space),,,,silence,,,,---- ------ ------ ------- ------ --- ------- -----------<br>-- ----- --- ---- -- --- ------ ---- - ---- -- ----------<br>-- ------ ---- --- ---- --- --- --- ----- -- -------- ---<br>------ ------- -------- --- ---- -- ------- ------------ --<br>------ -- ---- -- --- ---- -- -------- -- one ------ ------,264666,264655,264326.54,264326,264330.9,264680.96,,50,one
screen,html.Screen,2_3_1_0_1_51,2022-05-02T10:19:11.360Z,,,,,,,,,,,,,,,,,12,,,,,,,,,,,,,,271.03999999997905,,response,,,,5,E,,,,,,Space,keypress(Space),,,,silence,,,,---- ------ ------ ------- ------ --- ------- -----------<br>-- ----- --- ---- -- --- ------ ---- - ---- -- ----------<br>-- ------ ---- --- ---- --- --- --- ----- -- -------- ---<br>------ ------- -------- --- ---- -- ------- ------------ --<br>------ -- ---- -- --- ---- -- -------- -- --- dollar ------,264961,264952,264666.62,264667,264680.96,264964.34,,51,dollar
screen,html.Screen,2_3_1_0_1_52,2022-05-02T10:19:11.806Z,,,,,,,,,,,,,,,,,12,,,,,,,,,,,,,,424.6599999999744,,response,,,,5,E,,,,,,Space,keypress(Space),,,,silence,,,,---- ------ ------ ------- ------ --- ------- -----------<br>-- ----- --- ---- -- --- ------ ---- - ---- -- ----------<br>-- ------ ---- --- ---- --- --- --- ----- -- -------- ---<br>------ ------- -------- --- ---- -- ------- ------------ --<br>------ -- ---- -- --- ---- -- -------- -- --- ------ notes.,265407,265389,264961.34,264962,264964.34,265414.4,,52,notes.
Item 5,flow.Loop,2_3_1_0_1,2022-05-02T10:19:11.806Z,,,,,,,,,,,,,,,,,,,,,,,,,,,,,,,18797.51999999999,,completion,,,,,,,,,,,,,,,,,,,,,265407,265389,246574.82,246577,246591.48,265414.4,,,
Question 1,html.Screen,2_3_1_0_2,2022-05-02T10:19:14.513Z,,,,,,,,,,,,,,,,,,,,,,,,,,,,true,TRUE,,2693.5999999999767,,response,,,,5,E,,,,,,TRUE,click #choice-1,,,,silence,,,,,268115,268108,265407.34,265407,265414.4,268116.48,,,
Question 2,html.Screen,2_3_1_0_3,2022-05-02T10:19:17.475Z,,,,,,,,,,,,,,,,,,,,,,,,,,,,true,TRUE,,2944.5200000000186,,response,,,,5,E,,,,,,TRUE,click #choice-1,,,,silence,,,,,271076,271061,268113.34,268115,268116.48,271083.58,,,
Item 5,flow.Sequence,2_3_1_0,2022-05-02T10:19:17.475Z,,,,,,,,,,,,,,,,,,,,,,,,,,,,,,,31472.380000000005,,completion,,,,,,,,,,,,,,,,,,,,,271076,271061,239571.94,239573,239588.62,271083.58,,,
Holding screen,html.Screen,2_3_1_1_0,2022-05-02T10:19:24.470Z,,,,,,,,,,,,,,,,,,,,,,,,,,,,,,,7002.799999999988,,timeout,,,,,,,,,,,,,,,,,,,,,278071,278069.72,271074.76,271076,271083.58,278086.38,,,
screen,html.Screen,2_3_1_1_1_0,2022-05-02T10:19:25.293Z,,,,,,,,,,,,,,,,,40,,,,,,,,,,,,,,787.6199999999953,,response,,,,9,E,,,,,,Space,keypress(Space),,,,silence,,,,Police -- ------- ---- ---- ---- - -------- ----- --- --<br>----- ----- ------ -- ---- -- --- - ---- -- - ----- -----<br>------ ---- ------ ---- - -------- ------- -- --- --------<br>-------- ----------- ---- ------ ---- ------ ---- --- ---<br>-------- --- -----,278894,278874,278069.72,278072,278086.38,278903.18,,0,Police
