sender,sender_type,sender_id,timestamp,meta,,Blues,Classical,Country,Dance,Electronic,Folk,Gospel,Hip-Hop,Jazz,Latin,Musical/Film,New-age,Pop,Prolific_id,Provo_ID,R&B,Rap,Reggae,Religious,Rock,Soul,Swing,Traditional,age,artist_name,correct,correctResponse,distraction,duration,education,ended_on,familiarity,gender,headphone_check_performance,item,list,music_frequency,offensiveness,pleasantness,position_correct,preference,response,response_action,snippet_file,song_name,song_rating,sound,stimulus_1,stimulus_2,stimulus_3,text,time_commit,time_end,time_render,time_run,time_show,time_switch,url,word,word_ID
Prolific ID,html.Form,0,2022-05-12T21:15:51.161Z,"{""labjs_version"":""20.2.2"",""labjs_build"":{""flavor"":""production"",""commit"":""a25486e0c714a0ae2ce03ff94b7bb6896854dcfa""},""location"":""https://run.pavlovia.org/mvasilev/prolific3_music_e/"",""userAgent"":""Mozilla/5.0 (Windows NT 10.0; Win64; x64) AppleWebKit/537.36 (KHTML, like Gecko) Chrome/101.0.4951.64 Safari/537.36"",""platform"":""Win32"",""language"":""en-GB"",""locale"":""en-GB"",""timeZone"":""Europe/London"",""timezoneOffset"":-60,""screen_width"":1280,""screen_height"":720,""scroll_width"":1280,""scroll_height"":561,""window_innerWidth"":1280,""window_innerHeight"":609,""devicePixelRatio"":1.5}",,,,,,,,,,,,,,,6044bd895068a35321a661da,,,,,,,,,,,,,,,18817.78900000037,,form submission,,,,,,,,,,,,,,,,,,,,,26850.400000000373,26849.900000000373,7998.606,8010.5999999996275,8032.111,26859.094,{},,
Introduction,html.Screen,1_0,2022-05-12T21:15:55.196Z,,,,,,,,,,,,,,,,,,,,,,,,,,,,,,,4024.705999999813,,response,,,,,,,,,,,continue,click button,,,,,,,,,30886.200000000186,30883.799999999814,26842.484,26850.799999999814,26859.094,30891.056,,,
Volume calibration,html.Screen,1_1,2022-05-12T21:16:16.355Z,,,,,,,,,,,,,,,,,,,,,,,,,,,,,,,21150.144000000186,,response,,,,,,,,,,,continue,click button,,,,,,,,,52044.5,52041.200000000186,30874.404,30886.299999999814,30891.056,52050.534,,,
Task instructions,html.Screen,1_2,2022-05-12T21:16:27.884Z,,,,,,,,,,,,,,,,,,,,,,,,,,,,,,,11521.366000000373,,response,,,,,,,,,,,continue,click button,,,,,,,,,63572.700000000186,63571.90000000037,52033.949,52044.700000000186,52050.534,63580.001,,,
Sounds,html.Screen,1_3_0_0,2022-05-12T21:16:32.129Z,,,,,,,,,,,,,,,,,,,,,,,,,,,,,,,4248.60300000001,,timeout,,,,,,,,,2,,,,,,,,O,S,I,,67817.79999999981,67811.975,63563.374,63572.799999999814,63580.001,67828.604,,,
Judgement,html.Screen,1_3_0_1,2022-05-12T21:16:33.220Z,,,,,,,,,,,,,,,,,,,,,,,,,,,,true,2,,1079.195999999807,,response,,,,,,,,,2,,2,click #choice-2,,,,,O,S,I,,68908.70000000019,68907.79999999981,67811.975,67817.90000000037,67828.604,68911.529,,,
Trial,flow.Sequence,1_3_0,2022-05-12T21:16:33.220Z,,,,,,,,,,,,,,,,,,,,,,,,,,,,,,,5327.798999999817,,completion,,,,,,,,,2,,,,,,,,O,S,I,,68908.90000000037,68907.79999999981,63563.374,63572.799999999814,63580.001,68911.529,,,
Sounds,html.Screen,1_3_1_0,2022-05-12T21:16:37.456Z,,,,,,,,,,,,,,,,,,,,,,,,,,,,,,,4248.641000000003,,timeout,,,,,,,,,1,,,,,,,,S,O,I,,73145.09999999963,73143.493,68894.925,68909.09999999963,68911.529,73160.17,,,
Judgement,html.Screen,1_3_1_1,2022-05-12T21:16:38.019Z,,,,,,,,,,,,,,,,,,,,,,,,,,,,true,1,,547.3300000000017,,response,,,,,,,,,1,,1,click #choice-1,,,,,S,O,I,,73708.29999999981,73707.5,73143.493,73145.40000000037,73160.17,73709.923,,,
Trial,flow.Sequence,1_3_1,2022-05-12T21:16:38.019Z,,,,,,,,,,,,,,,,,,,,,,,,,,,,,,,4795.971000000005,,completion,,,,,,,,,1,,,,,,,,S,O,I,,73708.59999999963,73707.5,68894.925,68909.09999999963,68911.529,73709.923,,,
Sounds,html.Screen,1_3_2_0,2022-05-12T21:16:42.254Z,,,,,,,,,,,,,,,,,,,,,,,,,,,,,,,4248.611000000004,,timeout,,,,,,,,,3,,,,,,,,O,I,S,,77943.20000000019,77941.903,73693.331,73708.70000000019,73709.923,77958.534,,,
Judgement,html.Screen,1_3_2_1,2022-05-12T21:16:43.253Z,,,,,,,,,,,,,,,,,,,,,,,,,,,,true,3,,982.7659999998141,,response,,,,,,,,,3,,3,click #choice-3,,,,,O,I,S,,78942.29999999981,78941.29999999981,77941.903,77943.40000000037,77958.534,78958.138,,,
Trial,flow.Sequence,1_3_2,2022-05-12T21:16:43.253Z,,,,,,,,,,,,,,,,,,,,,,,,,,,,,,,5231.3769999998185,,completion,,,,,,,,,3,,,,,,,,O,I,S,,78942.40000000037,78941.29999999981,73693.331,73708.70000000019,73709.923,78958.138,,,
Sounds,html.Screen,1_3_3_0,2022-05-12T21:16:47.503Z,,,,,,,,,,,,,,,,,,,,,,,,,,,,,,,4248.622999999992,,timeout,,,,,,,,,3,,,,,,,,I,O,S,,83192,83190.148,78941.521,78942.5,78958.138,83206.761,,,
Judgement,html.Screen,1_3_3_1,2022-05-12T21:16:48.144Z,,,,,,,,,,,,,,,,,,,,,,,,,,,,true,3,,625.4390000001877,,response,,,,,,,,,3,,3,click #choice-3,,,,,I,O,S,,83833.09999999963,83832.20000000019,83190.148,83192.40000000037,83206.761,83839.808,,,
Trial,flow.Sequence,1_3_3,2022-05-12T21:16:48.144Z,,,,,,,,,,,,,,,,,,,,,,,,,,,,,,,4874.06200000018,,completion,,,,,,,,,3,,,,,,,,I,O,S,,83833.29999999981,83832.20000000019,78941.521,78942.5,78958.138,83839.808,,,
Sounds,html.Screen,1_3_4_0,2022-05-12T21:16:52.384Z,,,,,,,,,,,,,,,,,,,,,,,,,,,,,,,4248.542000000001,,timeout,,,,,,,,,2,,,,,,,,I,S,O,,88073,88071.813,83823.26,83833.40000000037,83839.808,88088.35,,,
Judgement,html.Screen,1_3_4_1,2022-05-12T21:16:53.119Z,,,,,,,,,,,,,,,,,,,,,,,,,,,,true,2,,718.8500000001804,,response,,,,,,,,,2,,2,click #choice-2,,,,,I,S,O,,88808.20000000019,88807.20000000019,88071.813,88073.20000000019,88088.35,88821.457,,,
Trial,flow.Sequence,1_3_4,2022-05-12T21:16:53.119Z,,,,,,,,,,,,,,,,,,,,,,,,,,,,,,,4967.392000000182,,completion,,,,,,,,,2,,,,,,,,I,S,O,,88808.40000000037,88807.20000000019,83823.26,83833.40000000037,83839.808,88821.457,,,
Sounds,html.Screen,1_3_5_0,2022-05-12T21:16:57.366Z,,,,,,,,,,,,,,,,,,,,,,,,,,,,,,,4248.635000000009,,timeout,,,,,,,,,1,,,,,,,,S,I,O,,93054.79999999981,93053.433,88804.823,88808.5,88821.457,93070.092,,,
Judgement,html.Screen,1_3_5_1,2022-05-12T21:16:58.042Z,,,,,,,,,,,,,,,,,,,,,,,,,,,,true,1,,659.8080000003683,,response,,,,,,,,,1,,1,click #choice-1,,,,,S,I,O,,93731,93729.90000000037,93053.433,93055,93070.092,93736.445,,,
Trial,flow.Sequence,1_3_5,2022-05-12T21:16:58.042Z,,,,,,,,,,,,,,,,,,,,,,,,,,,,,,,4908.443000000378,,completion,,,,,,,,,1,,,,,,,,S,I,O,,93731.20000000019,93729.90000000037,88804.823,88808.5,88821.457,93736.445,,,
Task,flow.Loop,1_3,2022-05-12T21:16:58.047Z,,,,,,,,,,,,,,,,,,,,,,,,,,,,,,,30149.899000000376,,completion,,,1,,,,,,,,,,,,,,,,,,93735.70000000019,93729.90000000037,63563.374,63572.799999999814,63580.001,93736.445,,,
Trap,html.Screen,1_4,2022-05-12T21:16:58.048Z,,,,,,,,,,,,,,,,,,,,,,,,,,,,,,,NaN,,skipped,,,,,,,,,,,,,,,,,,,,,93737.09999999963,93729.90000000037,,93736.90000000037,,93736.445,,,
Thanks,html.Screen,1_5,2022-05-12T21:17:01.994Z,,,,,,,,,,,,,,,,,,,,,,,,,,,,,,,3945.6549999996205,,response,,,,,,,,,,,continue,click button,,,,,,,,,97682.90000000037,97682.09999999963,93719.873,93737.09999999963,93736.445,100900.704,,,
Headphone screening,flow.Sequence,1,2022-05-12T21:17:01.994Z,,,,,,,,,,,,,,,,,,,,,,,,,,,,,,,70823.00599999963,,completion,,,,,,,,,,,,,,,,,,,,,97683.09999999963,97682.09999999963,26842.484,26850.700000000186,26859.094,100900.704,,,
Instructions,html.Page,2_0,2022-05-12T21:17:21.569Z,,,,,,,,,,,,,,,,,,,,,,,,,,,,,,,16356.89599999963,,form submission,,,,,,,,,,,,,,,,,,,,,117257.79999999981,117257.59999999963,100884.021,100895.90000000037,100900.704,117261.801,,,
Holding screen,html.Screen,2_1_0_0,2022-05-12T21:17:31.554Z,,,,,,,,,,,,,,,,,,,,,,,,,,,,,,,9996.62999999999,,timeout,,,,,,,,,,,,,,,,,,,,,127242.79999999981,127241.881,117245.24,117258,117261.801,127258.431,,,
screen,html.Screen,2_1_0_1_0,2022-05-12T21:17:32.687Z,,,,,,,,,,,,,,,,,53,,,,,,,,,,,,,,1112.4690000003757,,response,,,,99,,,,,,,Space,keypress(Space),,,,,,,,When -- ----- -- ------ - ------- --- ----------<br>------------- ------ ------ ---- ---- ------- ----- -- ----<br>-------- ------- -- ---------- --- - --- ----- ----- ----<br>---- --- --- ----- --- ---- ---- ------- ----- ---- -------<br>--- --- -- ----- -- --- ---- -- --- ---- -- ------ ------<br>--- ----- -- ----,128376.59999999963,128370.90000000037,127241.881,127243.20000000019,127258.431,128374.775,,0,When
screen,html.Screen,2_1_0_1_1,2022-05-12T21:17:33.218Z,,,,,,,,,,,,,,,,,53,,,,,,,,,,,,,,531.2250000000058,,response,,,,99,,,,,,,Space,keypress(Space),,,,,,,,---- it ----- -- ------ - ------- --- ----------<br>------------- ------ ------ ---- ---- ------- ----- -- ----<br>-------- ------- -- ---------- --- - --- ----- ----- ----<br>---- --- --- ----- --- ---- ---- ------- ----- ---- -------<br>--- --- -- ----- -- --- ---- -- --- ---- -- ------ ------<br>--- ----- -- ----,128907.09999999963,128906,128358.06,128376.79999999981,128374.775,128941.326,,1,it
screen,html.Screen,2_1_0_1_2,2022-05-12T21:17:33.698Z,,,,,,,,,,,,,,,,,53,,,,,,,,,,,,,,444.5740000003716,,response,,,,99,,,,,,,Space,keypress(Space),,,,,,,,---- -- comes -- ------ - ------- --- ----------<br>------------- ------ ------ ---- ---- ------- ----- -- ----<br>-------- ------- -- ---------- --- - --- ----- ----- ----<br>---- --- --- ----- --- ---- ---- ------- ----- ---- -------<br>--- --- -- ----- -- --- ---- -- --- ---- -- ------ ------<br>--- ----- -- ----,129387,129385.90000000037,128924.656,128907.29999999981,128941.326,129391.106,,2,comes
screen,html.Screen,2_1_0_1_3,2022-05-12T21:17:34.153Z,,,,,,,,,,,,,,,,,53,,,,,,,,,,,,,,450.19399999981397,,response,,,,99,,,,,,,Space,keypress(Space),,,,,,,,---- -- ----- to ------ - ------- --- ----------<br>------------- ------ ------ ---- ---- ------- ----- -- ----<br>-------- ------- -- ---------- --- - --- ----- ----- ----<br>---- --- --- ----- --- ---- ---- ------- ----- ---- -------<br>--- --- -- ----- -- --- ---- -- --- ---- -- ------ ------<br>--- ----- -- ----,129841.90000000037,129841.29999999981,129374.453,129387.29999999981,129391.106,129857.677,,3,to
screen,html.Screen,2_1_0_1_4,2022-05-12T21:17:34.619Z,,,,,,,,,,,,,,,,,53,,,,,,,,,,,,,,449.82300000000396,,response,,,,99,,,,,,,Space,keypress(Space),,,,,,,,---- -- ----- -- having - ------- --- ----------<br>------------- ------ ------ ---- ---- ------- ----- -- ----<br>-------- ------- -- ---------- --- - --- ----- ----- ----<br>---- --- --- ----- --- ---- ---- ------- ----- ---- -------<br>--- --- -- ----- -- --- ---- -- --- ---- -- ------ ------<br>--- ----- -- ----,130308.5,130307.5,129840.941,129842.09999999963,129857.677,130324.135,,4,having
screen,html.Screen,2_1_0_1_5,2022-05-12T21:17:35.007Z,,,,,,,,,,,,,,,,,53,,,,,,,,,,,,,,371.4649999996327,,response,,,,99,,,,,,,Space,keypress(Space),,,,,,,,---- -- ----- -- ------ a ------- --- ----------<br>------------- ------ ------ ---- ---- ------- ----- -- ----<br>-------- ------- -- ---------- --- - --- ----- ----- ----<br>---- --- --- ----- --- ---- ---- ------- ----- ---- -------<br>--- --- -- ----- -- --- ---- -- --- ---- -- ------ ------<br>--- ----- -- ----,130696.59999999963,130695.59999999963,130307.505,130308.79999999981,130324.135,130707.338,,5,a
screen,html.Screen,2_1_0_1_6,2022-05-12T21:17:35.593Z,,,,,,,,,,,,,,,,,53,,,,,,,,,,,,,,573.8620000001829,,response,,,,99,,,,,,,Space,keypress(Space),,,,,,,,---- -- ----- -- ------ - lasting --- ----------<br>------------- ------ ------ ---- ---- ------- ----- -- ----<br>-------- ------- -- ---------- --- - --- ----- ----- ----<br>---- --- --- ----- --- ---- ---- ------- ----- ---- -------<br>--- --- -- ----- -- --- ---- -- --- ---- -- ------ ------<br>--- ----- -- ----,131282.59999999963,131281.2000000002,130690.666,130696.90000000037,130707.338,131290.468,,6,lasting
screen,html.Screen,2_1_0_1_7,2022-05-12T21:17:36.288Z,,,,,,,,,,,,,,,,,53,,,,,,,,,,,,,,686.0320000000065,,response,,,,99,,,,,,,Space,keypress(Space),,,,,,,,---- -- ----- -- ------ - ------- and ----------<br>------------- ------ ------ ---- ---- ------- ----- -- ----<br>-------- ------- -- ---------- --- - --- ----- ----- ----<br>---- --- --- ----- --- ---- ---- ------- ----- ---- -------<br>--- --- -- ----- -- --- ---- -- --- ---- -- ------ ------<br>--- ----- -- ----,131977.5,131976.5,131273.787,131282.7999999998,131290.468,131990.234,,7,and
screen,html.Screen,2_1_0_1_8,2022-05-12T21:17:36.739Z,,,,,,,,,,,,,,,,,53,,,,,,,,,,,,,,436.565999999817,,response,,,,99,,,,,,,Space,keypress(Space),,,,,,,,---- -- ----- -- ------ - ------- --- fulfilling<br>------------- ------ ------ ---- ---- ------- ----- -- ----<br>-------- ------- -- ---------- --- - --- ----- ----- ----<br>---- --- --- ----- --- ---- ---- ------- ----- ---- -------<br>--- --- -- ----- -- --- ---- -- --- ---- -- ------ ------<br>--- ----- -- ----,132427.90000000037,132426.7999999998,131973.535,131977.7000000002,131990.234,132440.092,,8,fulfilling
screen,html.Screen,2_1_0_1_9,2022-05-12T21:17:37.391Z,,,,,,,,,,,,,,,,,53,,,,,,,,,,,,,,638.8080000003683,,response,,,,99,,,,,,,Space,keypress(Space),,,,,,,,"---- -- ----- -- ------ - ------- --- ----------<br>relationship, ------ ------ ---- ---- ------- ----- -- ----<br>-------- ------- -- ---------- --- - --- ----- ----- ----<br>---- --- --- ----- --- ---- ---- ------- ----- ---- -------<br>--- --- -- ----- -- --- ---- -- --- ---- -- ------ ------<br>--- ----- -- ----",133080.09999999963,133078.90000000037,132423.404,132428,132440.092,133089.863,,9,"relationship,"
screen,html.Screen,2_1_0_1_10,2022-05-12T21:17:37.981Z,,,,,,,,,,,,,,,,,53,,,,,,,,,,,,,,578.9369999998016,,response,,,,99,,,,,,,Space,keypress(Space),,,,,,,,---- -- ----- -- ------ - ------- --- ----------<br>------------- common ------ ---- ---- ------- ----- -- ----<br>-------- ------- -- ---------- --- - --- ----- ----- ----<br>---- --- --- ----- --- ---- ---- ------- ----- ---- -------<br>--- --- -- ----- -- --- ---- -- --- ---- -- ------ ------<br>--- ----- -- ----,133669.7999999998,133668.7999999998,133073.161,133080.2999999998,133089.863,133672.984,,10,common
screen,html.Screen,2_1_0_1_11,2022-05-12T21:17:38.468Z,,,,,,,,,,,,,,,,,53,,,,,,,,,,,,,,483.51600000000326,,response,,,,99,,,,,,,Space,keypress(Space),,,,,,,,---- -- ----- -- ------ - ------- --- ----------<br>------------- ------ wisdom ---- ---- ------- ----- -- ----<br>-------- ------- -- ---------- --- - --- ----- ----- ----<br>---- --- --- ----- --- ---- ---- ------- ----- ---- -------<br>--- --- -- ----- -- --- ---- -- --- ---- -- ------ ------<br>--- ----- -- ----,134157.5,134156.5,133656.354,133670.09999999963,133672.984,134172.842,,11,wisdom
screen,html.Screen,2_1_0_1_12,2022-05-12T21:17:38.954Z,,,,,,,,,,,,,,,,,53,,,,,,,,,,,,,,469.05800000036834,,response,,,,99,,,,,,,Space,keypress(Space),,,,,,,,---- -- ----- -- ------ - ------- --- ----------<br>------------- ------ ------ says ---- ------- ----- -- ----<br>-------- ------- -- ---------- --- - --- ----- ----- ----<br>---- --- --- ----- --- ---- ---- ------- ----- ---- -------<br>--- --- -- ----- -- --- ---- -- --- ---- -- ------ ------<br>--- ----- -- ----,134642.90000000037,134641.90000000037,134156.086,134157.7000000002,134172.842,134656.022,,12,says
screen,html.Screen,2_1_0_1_13,2022-05-12T21:17:39.409Z,,,,,,,,,,,,,,,,,53,,,,,,,,,,,,,,441.3780000003753,,response,,,,99,,,,,,,Space,keypress(Space),,,,,,,,---- -- ----- -- ------ - ------- --- ----------<br>------------- ------ ------ ---- that ------- ----- -- ----<br>-------- ------- -- ---------- --- - --- ----- ----- ----<br>---- --- --- ----- --- ---- ---- ------- ----- ---- -------<br>--- --- -- ----- -- --- ---- -- --- ---- -- ------ ------<br>--- ----- -- ----,135098.59999999963,135097.40000000037,134639.363,134643.09999999963,134656.022,135105.841,,13,that
screen,html.Screen,2_1_0_1_14,2022-05-12T21:17:39.858Z,,,,,,,,,,,,,,,,,53,,,,,,,,,,,,,,440.55900000038673,,response,,,,99,,,,,,,Space,keypress(Space),,,,,,,,---- -- ----- -- ------ - ------- --- ----------<br>------------- ------ ------ ---- ---- feeling ----- -- ----<br>-------- ------- -- ---------- --- - --- ----- ----- ----<br>---- --- --- ----- --- ---- ---- ------- ----- ---- -------<br>--- --- -- ----- -- --- ---- -- --- ---- -- ------ ------<br>--- ----- -- ----,135547.40000000037,135546.40000000037,135089.16,135098.90000000037,135105.841,135555.689,,14,feeling
screen,html.Screen,2_1_0_1_15,2022-05-12T21:17:40.252Z,,,,,,,,,,,,,,,,,53,,,,,,,,,,,,,,383.7110000003595,,response,,,,99,,,,,,,Space,keypress(Space),,,,,,,,---- -- ----- -- ------ - ------- --- ----------<br>------------- ------ ------ ---- ---- ------- close -- ----<br>-------- ------- -- ---------- --- - --- ----- ----- ----<br>---- --- --- ----- --- ---- ---- ------- ----- ---- -------<br>--- --- -- ----- -- --- ---- -- --- ---- -- ------ ------<br>--- ----- -- ----,135940.7000000002,135939.40000000037,135538.987,135547.7000000002,135555.689,135955.508,,15,close
screen,html.Screen,2_1_0_1_16,2022-05-12T21:17:40.586Z,,,,,,,,,,,,,,,,,53,,,,,,,,,,,,,,318.2919999998121,,response,,,,99,,,,,,,Space,keypress(Space),,,,,,,,---- -- ----- -- ------ - ------- --- ----------<br>------------- ------ ------ ---- ---- ------- ----- to ----<br>-------- ------- -- ---------- --- - --- ----- ----- ----<br>---- --- --- ----- --- ---- ---- ------- ----- ---- -------<br>--- --- -- ----- -- --- ---- -- --- ---- -- ------ ------<br>--- ----- -- ----,136274.90000000037,136273.7999999998,135938.868,135940.90000000037,135955.508,136288.737,,16,to
screen,html.Screen,2_1_0_1_17,2022-05-12T21:17:40.967Z,,,,,,,,,,,,,,,,,53,,,,,,,,,,,,,,366.56299999982,,response,,,,99,,,,,,,Space,keypress(Space),,,,,,,,---- -- ----- -- ------ - ------- --- ----------<br>------------- ------ ------ ---- ---- ------- ----- -- your<br>-------- ------- -- ---------- --- - --- ----- ----- ----<br>---- --- --- ----- --- ---- ---- ------- ----- ---- -------<br>--- --- -- ----- -- --- ---- -- --- ---- -- ------ ------<br>--- ----- -- ----,136656.2999999998,136655.2999999998,136272.038,136275.2000000002,136288.737,136671.994,,17,your
screen,html.Screen,2_1_0_1_18,2022-05-12T21:17:41.396Z,,,,,,,,,,,,,,,,,53,,,,,,,,,,,,,,412.00599999999395,,response,,,,99,,,,,,,Space,keypress(Space),,,,,,,,---- -- ----- -- ------ - ------- --- ----------<br>------------- ------ ------ ---- ---- ------- ----- -- ----<br>romantic ------- -- ---------- --- - --- ----- ----- ----<br>---- --- --- ----- --- ---- ---- ------- ----- ---- -------<br>--- --- -- ----- -- --- ---- -- --- ---- -- ------ ------<br>--- ----- -- ----,137085.09999999963,137084,136655.299,136656.5,136671.994,137088.502,,18,romantic
screen,html.Screen,2_1_0_1_19,2022-05-12T21:17:41.844Z,,,,,,,,,,,,,,,,,53,,,,,,,,,,,,,,443.79799999980605,,response,,,,99,,,,,,,Space,keypress(Space),,,,,,,,---- -- ----- -- ------ - ------- --- ----------<br>------------- ------ ------ ---- ---- ------- ----- -- ----<br>-------- partner -- ---------- --- - --- ----- ----- ----<br>---- --- --- ----- --- ---- ---- ------- ----- ---- -------<br>--- --- -- ----- -- --- ---- -- --- ---- -- ------ ------<br>--- ----- -- ----,137533.40000000037,137532.2999999998,137071.835,137085.2999999998,137088.502,137538.358,,19,partner
screen,html.Screen,2_1_0_1_20,2022-05-12T21:17:42.294Z,,,,,,,,,,,,,,,,,53,,,,,,,,,,,,,,444.14199999999255,,response,,,,99,,,,,,,Space,keypress(Space),,,,,,,,---- -- ----- -- ------ - ------- --- ----------<br>------------- ------ ------ ---- ---- ------- ----- -- ----<br>-------- ------- is ---------- --- - --- ----- ----- ----<br>---- --- --- ----- --- ---- ---- ------- ----- ---- -------<br>--- --- -- ----- -- --- ---- -- --- ---- -- ------ ------<br>--- ----- -- ----,137983.59999999963,137982.5,137521.662,137533.59999999963,137538.358,137988.198,,20,is
screen,html.Screen,2_1_0_1_21,2022-05-12T21:17:42.796Z,,,,,,,,,,,,,,,,,53,,,,,,,,,,,,,,495.70200000036857,,response,,,,99,,,,,,,Space,keypress(Space),,,,,,,,---- -- ----- -- ------ - ------- --- ----------<br>------------- ------ ------ ---- ---- ------- ----- -- ----<br>-------- ------- -- paramount. --- - --- ----- ----- ----<br>---- --- --- ----- --- ---- ---- ------- ----- ---- -------<br>--- --- -- ----- -- --- ---- -- --- ---- -- ------ ------<br>--- ----- -- ----,138485.09999999963,138483.90000000037,137971.556,137983.7999999998,137988.198,138488.048,,21,paramount.
screen,html.Screen,2_1_0_1_22,2022-05-12T21:17:43.384Z,,,,,,,,,,,,,,,,,53,,,,,,,,,,,,,,584.3520000003628,,response,,,,99,,,,,,,Space,keypress(Space),,,,,,,,---- -- ----- -- ------ - ------- --- ----------<br>------------- ------ ------ ---- ---- ------- ----- -- ----<br>-------- ------- -- ---------- But - --- ----- ----- ----<br>---- --- --- ----- --- ---- ---- ------- ----- ---- -------<br>--- --- -- ----- -- --- ---- -- --- ---- -- ------ ------<br>--- ----- -- ----,139073.5,139072.40000000037,138471.324,138485.40000000037,138488.048,139087.828,,22,But
screen,html.Screen,2_1_0_1_23,2022-05-12T21:17:43.830Z,,,,,,,,,,,,,,,,,53,,,,,,,,,,,,,,429.9719999998051,,response,,,,99,,,,,,,Space,keypress(Space),,,,,,,,---- -- ----- -- ------ - ------- --- ----------<br>------------- ------ ------ ---- ---- ------- ----- -- ----<br>-------- ------- -- ---------- --- a --- ----- ----- ----<br>---- --- --- ----- --- ---- ---- ------- ----- ---- -------<br>--- --- -- ----- -- --- ---- -- --- ---- -- ------ ------<br>--- ----- -- ----,139518.90000000037,139517.7999999998,139071.133,139073.7999999998,139087.828,139520.993,,23,a
screen,html.Screen,2_1_0_1_24,2022-05-12T21:17:44.276Z,,,,,,,,,,,,,,,,,53,,,,,,,,,,,,,,443.3069999998261,,response,,,,99,,,,,,,Space,keypress(Space),,,,,,,,---- -- ----- -- ------ - ------- --- ----------<br>------------- ------ ------ ---- ---- ------- ----- -- ----<br>-------- ------- -- ---------- --- - new ----- ----- ----<br>---- --- --- ----- --- ---- ---- ------- ----- ---- -------<br>--- --- -- ----- -- --- ---- -- --- ---- -- ------ ------<br>--- ----- -- ----,139965.5,139964.2999999998,139504.324,139519.09999999963,139520.993,139970.839,,24,new
screen,html.Screen,2_1_0_1_25,2022-05-12T21:17:44.796Z,,,,,,,,,,,,,,,,,53,,,,,,,,,,,,,,512.861000000179,,response,,,,99,,,,,,,Space,keypress(Space),,,,,,,,---- -- ----- -- ------ - ------- --- ----------<br>------------- ------ ------ ---- ---- ------- ----- -- ----<br>-------- ------- -- ---------- --- - --- study ----- ----<br>---- --- --- ----- --- ---- ---- ------- ----- ---- -------<br>--- --- -- ----- -- --- ---- -- --- ---- -- ------ ------<br>--- ----- -- ----,140484.7000000002,140483.7000000002,139954.184,139965.59999999963,139970.839,140487.34,,25,study
screen,html.Screen,2_1_0_1_26,2022-05-12T21:17:45.217Z,,,,,,,,,,,,,,,,,53,,,,,,,,,,,,,,418.36000000018976,,response,,,,99,,,,,,,Space,keypress(Space),,,,,,,,---- -- ----- -- ------ - ------- --- ----------<br>------------- ------ ------ ---- ---- ------- ----- -- ----<br>-------- ------- -- ---------- --- - --- ----- finds ----<br>---- --- --- ----- --- ---- ---- ------- ----- ---- -------<br>--- --- -- ----- -- --- ---- -- --- ---- -- ------ ------<br>--- ----- -- ----,140906.5,140905.7000000002,140470.716,140484.90000000037,140487.34,140920.602,,26,finds
screen,html.Screen,2_1_0_1_27,2022-05-12T21:17:45.604Z,,,,,,,,,,,,,,,,,53,,,,,,,,,,,,,,371.69799999980023,,response,,,,99,,,,,,,Space,keypress(Space),,,,,,,,---- -- ----- -- ------ - ------- --- ----------<br>------------- ------ ------ ---- ---- ------- ----- -- ----<br>-------- ------- -- ---------- --- - --- ----- ----- that<br>---- --- --- ----- --- ---- ---- ------- ----- ---- -------<br>--- --- -- ----- -- --- ---- -- --- ---- -- ------ ------<br>--- ----- -- ----,141293.59999999963,141292.2999999998,140903.865,140906.7999999998,140920.602,141303.752,,27,that
screen,html.Screen,2_1_0_1_28,2022-05-12T21:17:46.051Z,,,,,,,,,,,,,,,,,53,,,,,,,,,,,,,,435.64800000036485,,response,,,,99,,,,,,,Space,keypress(Space),,,,,,,,---- -- ----- -- ------ - ------- --- ----------<br>------------- ------ ------ ---- ---- ------- ----- -- ----<br>-------- ------- -- ---------- --- - --- ----- ----- ----<br>it's --- --- ----- --- ---- ---- ------- ----- ---- -------<br>--- --- -- ----- -- --- ---- -- --- ---- -- ------ ------<br>--- ----- -- ----,141740.40000000037,141739.40000000037,141287.103,141293.7000000002,141303.752,141753.602,,28,it's
screen,html.Screen,2_1_0_1_29,2022-05-12T21:17:46.438Z,,,,,,,,,,,,,,,,,53,,,,,,,,,,,,,,372.09800000017276,,response,,,,99,,,,,,,Space,keypress(Space),,,,,,,,---- -- ----- -- ------ - ------- --- ----------<br>------------- ------ ------ ---- ---- ------- ----- -- ----<br>-------- ------- -- ---------- --- - --- ----- ----- ----<br>---- not --- ----- --- ---- ---- ------- ----- ---- -------<br>--- --- -- ----- -- --- ---- -- --- ---- -- ------ ------<br>--- ----- -- ----,142126.7999999998,142125.7000000002,141736.902,141740.7000000002,141753.602,142136.859,,29,not
screen,html.Screen,2_1_0_1_30,2022-05-12T21:17:46.876Z,,,,,,,,,,,,,,,,,53,,,,,,,,,,,,,,427.0410000003758,,response,,,,99,,,,,,,Space,keypress(Space),,,,,,,,---- -- ----- -- ------ - ------- --- ----------<br>------------- ------ ------ ---- ---- ------- ----- -- ----<br>-------- ------- -- ---------- --- - --- ----- ----- ----<br>---- --- how ----- --- ---- ---- ------- ----- ---- -------<br>--- --- -- ----- -- --- ---- -- --- ---- -- ------ ------<br>--- ----- -- ----,142564.90000000037,142563.90000000037,142120.123,142127,142136.859,142569.952,,30,how
screen,html.Screen,2_1_0_1_31,2022-05-12T21:17:47.336Z,,,,,,,,,,,,,,,,,53,,,,,,,,,,,,,,454.64799999963725,,response,,,,99,,,,,,,Space,keypress(Space),,,,,,,,---- -- ----- -- ------ - ------- --- ----------<br>------------- ------ ------ ---- ---- ------- ----- -- ----<br>-------- ------- -- ---------- --- - --- ----- ----- ----<br>---- --- --- close --- ---- ---- ------- ----- ---- -------<br>--- --- -- ----- -- --- ---- -- --- ---- -- ------ ------<br>--- ----- -- ----,143025.59999999963,143024.59999999963,142553.349,142565.09999999963,142569.952,143036.486,,31,close
screen,html.Screen,2_1_0_1_32,2022-05-12T21:17:47.722Z,,,,,,,,,,,,,,,,,53,,,,,,,,,,,,,,373.61399999962305,,response,,,,99,,,,,,,Space,keypress(Space),,,,,,,,---- -- ----- -- ------ - ------- --- ----------<br>------------- ------ ------ ---- ---- ------- ----- -- ----<br>-------- ------- -- ---------- --- - --- ----- ----- ----<br>---- --- --- ----- you ---- ---- ------- ----- ---- -------<br>--- --- -- ----- -- --- ---- -- --- ---- -- ------ ------<br>--- ----- -- ----,143411.09999999963,143410.09999999963,143019.809,143025.7999999998,143036.486,143419.872,,32,you
screen,html.Screen,2_1_0_1_33,2022-05-12T21:17:48.104Z,,,,,,,,,,,,,,,,,53,,,,,,,,,,,,,,372.127999999997,,response,,,,99,,,,,,,Space,keypress(Space),,,,,,,,---- -- ----- -- ------ - ------- --- ----------<br>------------- ------ ------ ---- ---- ------- ----- -- ----<br>-------- ------- -- ---------- --- - --- ----- ----- ----<br>---- --- --- ----- --- feel ---- ------- ----- ---- -------<br>--- --- -- ----- -- --- ---- -- --- ---- -- ------ ------<br>--- ----- -- ----,143793.2000000002,143792,143403.048,143411.2999999998,143419.872,143802.929,,33,feel
screen,html.Screen,2_1_0_1_34,2022-05-12T21:17:48.479Z,,,,,,,,,,,,,,,,,53,,,,,,,,,,,,,,364.37099999981,,response,,,,99,,,,,,,Space,keypress(Space),,,,,,,,---- -- ----- -- ------ - ------- --- ----------<br>------------- ------ ------ ---- ---- ------- ----- -- ----<br>-------- ------- -- ---------- --- - --- ----- ----- ----<br>---- --- --- ----- --- ---- that ------- ----- ---- -------<br>--- --- -- ----- -- --- ---- -- --- ---- -- ------ ------<br>--- ----- -- ----,144168.2999999998,144167.2999999998,143786.233,143793.40000000037,143802.929,144196.213,,34,that
screen,html.Screen,2_1_0_1_35,2022-05-12T21:17:48.889Z,,,,,,,,,,,,,,,,,53,,,,,,,,,,,,,,380.98700000019744,,response,,,,99,,,,,,,Space,keypress(Space),,,,,,,,---- -- ----- -- ------ - ------- --- ----------<br>------------- ------ ------ ---- ---- ------- ----- -- ----<br>-------- ------- -- ---------- --- - --- ----- ----- ----<br>---- --- --- ----- --- ---- ---- matters ----- ---- -------<br>--- --- -- ----- -- --- ---- -- --- ---- -- ------ ------<br>--- ----- -- ----,144578.40000000037,144577.2000000002,144152.771,144168.59999999963,144196.213,144586.086,,35,matters
screen,html.Screen,2_1_0_1_36,2022-05-12T21:17:49.271Z,,,,,,,,,,,,,,,,,53,,,,,,,,,,,,,,373.2139999998035,,response,,,,99,,,,,,,Space,keypress(Space),,,,,,,,"---- -- ----- -- ------ - ------- --- ----------<br>------------- ------ ------ ---- ---- ------- ----- -- ----<br>-------- ------- -- ---------- --- - --- ----- ----- ----<br>---- --- --- ----- --- ---- ---- ------- most, ---- -------<br>--- --- -- ----- -- --- ---- -- --- ---- -- ------ ------<br>--- ----- -- ----",144960.2999999998,144959.2999999998,144569.324,144578.59999999963,144586.086,144969.177,,36,"most,"
screen,html.Screen,2_1_0_1_37,2022-05-12T21:17:49.730Z,,,,,,,,,,,,,,,,,53,,,,,,,,,,,,,,448.5230000001902,,response,,,,99,,,,,,,Space,keypress(Space),,,,,,,,---- -- ----- -- ------ - ------- --- ----------<br>------------- ------ ------ ---- ---- ------- ----- -- ----<br>-------- ------- -- ---------- --- - --- ----- ----- ----<br>---- --- --- ----- --- ---- ---- ------- ----- it's -------<br>--- --- -- ----- -- --- ---- -- --- ---- -- ------ ------<br>--- ----- -- ----,145418.90000000037,145417.7000000002,144952.529,144960.5,144969.177,145435.638,,37,it's
screen,html.Screen,2_1_0_1_38,2022-05-12T21:17:50.148Z,,,,,,,,,,,,,,,,,53,,,,,,,,,,,,,,401.26200000036624,,response,,,,99,,,,,,,Space,keypress(Space),,,,,,,,---- -- ----- -- ------ - ------- --- ----------<br>------------- ------ ------ ---- ---- ------- ----- -- ----<br>-------- ------- -- ---------- --- - --- ----- ----- ----<br>---- --- --- ----- --- ---- ---- ------- ----- ---- whether<br>--- --- -- ----- -- --- ---- -- --- ---- -- ------ ------<br>--- ----- -- ----,145837.40000000037,145836.90000000037,145419.036,145419.40000000037,145435.638,145852.224,,38,whether
screen,html.Screen,2_1_0_1_39,2022-05-12T21:17:50.596Z,,,,,,,,,,,,,,,,,53,,,,,,,,,,,,,,432.37599999964004,,response,,,,99,,,,,,,Space,keypress(Space),,,,,,,,---- -- ----- -- ------ - ------- --- ----------<br>------------- ------ ------ ---- ---- ------- ----- -- ----<br>-------- ------- -- ---------- --- - --- ----- ----- ----<br>---- --- --- ----- --- ---- ---- ------- ----- ---- -------<br>you --- -- ----- -- --- ---- -- --- ---- -- ------ ------<br>--- ----- -- ----,146285.5,146284.59999999963,145835.485,145837.5,145852.224,146302.08,,39,you
screen,html.Screen,2_1_0_1_40,2022-05-12T21:17:50.970Z,,,,,,,,,,,,,,,,,53,,,,,,,,,,,,,,356.4200000000128,,response,,,,99,,,,,,,Space,keypress(Space),,,,,,,,---- -- ----- -- ------ - ------- --- ----------<br>------------- ------ ------ ---- ---- ------- ----- -- ----<br>-------- ------- -- ---------- --- - --- ----- ----- ----<br>---- --- --- ----- --- ---- ---- ------- ----- ---- -------<br>--- are -- ----- -- --- ---- -- --- ---- -- ------ ------<br>--- ----- -- ----,146659.5,146658.5,146285.346,146285.7999999998,146302.08,146668.657,,40,are
screen,html.Screen,2_1_0_1_41,2022-05-12T21:17:51.404Z,,,,,,,,,,,,,,,,,53,,,,,,,,,,,,,,423.6429999998072,,response,,,,99,,,,,,,Space,keypress(Space),,,,,,,,---- -- ----- -- ------ - ------- --- ----------<br>------------- ------ ------ ---- ---- ------- ----- -- ----<br>-------- ------- -- ---------- --- - --- ----- ----- ----<br>---- --- --- ----- --- ---- ---- ------- ----- ---- -------<br>--- --- as ----- -- --- ---- -- --- ---- -- ------ ------<br>--- ----- -- ----,147093.2999999998,147092.2999999998,146651.946,146659.59999999963,146668.657,147101.825,,41,as
screen,html.Screen,2_1_0_1_42,2022-05-12T21:17:51.872Z,,,,,,,,,,,,,,,,,53,,,,,,,,,,,,,,457.8750000001746,,response,,,,99,,,,,,,Space,keypress(Space),,,,,,,,---- -- ----- -- ------ - ------- --- ----------<br>------------- ------ ------ ---- ---- ------- ----- -- ----<br>-------- ------- -- ---------- --- - --- ----- ----- ----<br>---- --- --- ----- --- ---- ---- ------- ----- ---- -------<br>--- --- -- close -- --- ---- -- --- ---- -- ------ ------<br>--- ----- -- ----,147560.7000000002,147559.7000000002,147085.124,147093.5,147101.825,147568.428,,42,close
screen,html.Screen,2_1_0_1_43,2022-05-12T21:17:52.254Z,,,,,,,,,,,,,,,,,53,,,,,,,,,,,,,,373.67199999961304,,response,,,,99,,,,,,,Space,keypress(Space),,,,,,,,---- -- ----- -- ------ - ------- --- ----------<br>------------- ------ ------ ---- ---- ------- ----- -- ----<br>-------- ------- -- ---------- --- - --- ----- ----- ----<br>---- --- --- ----- --- ---- ---- ------- ----- ---- -------<br>--- --- -- ----- as --- ---- -- --- ---- -- ------ ------<br>--- ----- -- ----,147943.09999999963,147942.09999999963,147551.581,147560.90000000037,147568.428,147951.564,,43,as
screen,html.Screen,2_1_0_1_44,2022-05-12T21:17:52.655Z,,,,,,,,,,,,,,,,,53,,,,,,,,,,,,,,391.6360000001732,,response,,,,99,,,,,,,Space,keypress(Space),,,,,,,,---- -- ----- -- ------ - ------- --- ----------<br>------------- ------ ------ ---- ---- ------- ----- -- ----<br>-------- ------- -- ---------- --- - --- ----- ----- ----<br>---- --- --- ----- --- ---- ---- ------- ----- ---- -------<br>--- --- -- ----- -- you ---- -- --- ---- -- ------ ------<br>--- ----- -- ----,148344.2000000002,148343.2000000002,147934.872,147943.2999999998,147951.564,148351.443,,44,you
screen,html.Screen,2_1_0_1_45,2022-05-12T21:17:53.150Z,,,,,,,,,,,,,,,,,53,,,,,,,,,,,,,,486.85699999981443,,response,,,,99,,,,,,,Space,keypress(Space),,,,,,,,---- -- ----- -- ------ - ------- --- ----------<br>------------- ------ ------ ---- ---- ------- ----- -- ----<br>-------- ------- -- ---------- --- - --- ----- ----- ----<br>---- --- --- ----- --- ---- ---- ------- ----- ---- -------<br>--- --- -- ----- -- --- want -- --- ---- -- ------ ------<br>--- ----- -- ----,148839.2999999998,148838.2999999998,148334.735,148344.40000000037,148351.443,148851.189,,45,want
screen,html.Screen,2_1_0_1_46,2022-05-12T21:17:53.555Z,,,,,,,,,,,,,,,,,53,,,,,,,,,,,,,,392.31099999998696,,response,,,,99,,,,,,,Space,keypress(Space),,,,,,,,---- -- ----- -- ------ - ------- --- ----------<br>------------- ------ ------ ---- ---- ------- ----- -- ----<br>-------- ------- -- ---------- --- - --- ----- ----- ----<br>---- --- --- ----- --- ---- ---- ------- ----- ---- -------<br>--- --- -- ----- -- --- ---- to --- ---- -- ------ ------<br>--- ----- -- ----,149244.59999999963,149243.5,148834.527,148839.5,148851.189,149251.042,,46,to
screen,html.Screen,2_1_0_1_47,2022-05-12T21:17:53.934Z,,,,,,,,,,,,,,,,,53,,,,,,,,,,,,,,370.757999999827,,response,,,,99,,,,,,,Space,keypress(Space),,,,,,,,"---- -- ----- -- ------ - ------- --- ----------<br>------------- ------ ------ ---- ---- ------- ----- -- ----<br>-------- ------- -- ---------- --- - --- ----- ----- ----<br>---- --- --- ----- --- ---- ---- ------- ----- ---- -------<br>--- --- -- ----- -- --- ---- -- be, ---- -- ------ ------<br>--- ----- -- ----",149622.7999999998,149621.7999999998,149234.41,149244.7999999998,149251.042,149634.267,,47,"be,"
screen,html.Screen,2_1_0_1_48,2022-05-12T21:17:54.370Z,,,,,,,,,,,,,,,,,53,,,,,,,,,,,,,,424.4330000001937,,response,,,,99,,,,,,,Space,keypress(Space),,,,,,,,---- -- ----- -- ------ - ------- --- ----------<br>------------- ------ ------ ---- ---- ------- ----- -- ----<br>-------- ------- -- ---------- --- - --- ----- ----- ----<br>---- --- --- ----- --- ---- ---- ------- ----- ---- -------<br>--- --- -- ----- -- --- ---- -- --- even -- ------ ------<br>--- ----- -- ----,150059.59999999963,150058.7000000002,149617.644,149623.09999999963,149634.267,150067.63,,48,even
screen,html.Screen,2_1_0_1_49,2022-05-12T21:17:54.757Z,,,,,,,,,,,,,,,,,53,,,,,,,,,,,,,,377.5700000001816,,response,,,,99,,,,,,,Space,keypress(Space),,,,,,,,---- -- ----- -- ------ - ------- --- ----------<br>------------- ------ ------ ---- ---- ------- ----- -- ----<br>-------- ------- -- ---------- --- - --- ----- ----- ----<br>---- --- --- ----- --- ---- ---- ------- ----- ---- -------<br>--- --- -- ----- -- --- ---- -- --- ---- if ------ ------<br>--- ----- -- ----,150445.7000000002,150445.2000000002,150050.772,150059.90000000037,150067.63,150450.611,,49,if
screen,html.Screen,2_1_0_1_50,2022-05-12T21:17:55.235Z,,,,,,,,,,,,,,,,,53,,,,,,,,,,,,,,472.98899999962305,,response,,,,99,,,,,,,Space,keypress(Space),,,,,,,,---- -- ----- -- ------ - ------- --- ----------<br>------------- ------ ------ ---- ---- ------- ----- -- ----<br>-------- ------- -- ---------- --- - --- ----- ----- ----<br>---- --- --- ----- --- ---- ---- ------- ----- ---- -------<br>--- --- -- ----- -- --- ---- -- --- ---- -- that's ------<br>--- ----- -- ----,150924.59999999963,150923.59999999963,150434.02,150445.90000000037,150450.611,150933.817,,50,that's
screen,html.Screen,2_1_0_1_51,2022-05-12T21:17:55.679Z,,,,,,,,,,,,,,,,,53,,,,,,,,,,,,,,433.68299999999,,response,,,,99,,,,,,,Space,keypress(Space),,,,,,,,---- -- ----- -- ------ - ------- --- ----------<br>------------- ------ ------ ---- ---- ------- ----- -- ----<br>-------- ------- -- ---------- --- - --- ----- ----- ----<br>---- --- --- ----- --- ---- ---- ------- ----- ---- -------<br>--- --- -- ----- -- --- ---- -- --- ---- -- ------ really<br>--- ----- -- ----,151368.59999999963,151367.5,150917.134,150924.7999999998,150933.817,151383.731,,51,really
screen,html.Screen,2_1_0_1_52,2022-05-12T21:17:56.122Z,,,,,,,,,,,,,,,,,53,,,,,,,,,,,,,,426.56899999981397,,response,,,,99,,,,,,,Space,keypress(Space),,,,,,,,---- -- ----- -- ------ - ------- --- ----------<br>------------- ------ ------ ---- ---- ------- ----- -- ----<br>-------- ------- -- ---------- --- - --- ----- ----- ----<br>---- --- --- ----- --- ---- ---- ------- ----- ---- -------<br>--- --- -- ----- -- --- ---- -- --- ---- -- ------ ------<br>not ----- -- ----,151811.40000000037,151810.2999999998,151366.942,151368.7999999998,151383.731,151816.778,,52,not
screen,html.Screen,2_1_0_1_53,2022-05-12T21:17:56.536Z,,,,,,,,,,,,,,,,,53,,,,,,,,,,,,,,406.9220000001951,,response,,,,99,,,,,,,Space,keypress(Space),,,,,,,,---- -- ----- -- ------ - ------- --- ----------<br>------------- ------ ------ ---- ---- ------- ----- -- ----<br>-------- ------- -- ---------- --- - --- ----- ----- ----<br>---- --- --- ----- --- ---- ---- ------- ----- ---- -------<br>--- --- -- ----- -- --- ---- -- --- ---- -- ------ ------<br>--- close -- ----,152224.7000000002,152223.7000000002,151800.244,151811.7000000002,151816.778,152233.36,,53,close
screen,html.Screen,2_1_0_1_54,2022-05-12T21:17:56.922Z,,,,,,,,,,,,,,,,,53,,,,,,,,,,,,,,376.4399999998277,,response,,,,99,,,,,,,Space,keypress(Space),,,,,,,,---- -- ----- -- ------ - ------- --- ----------<br>------------- ------ ------ ---- ---- ------- ----- -- ----<br>-------- ------- -- ---------- --- - --- ----- ----- ----<br>---- --- --- ----- --- ---- ---- ------- ----- ---- -------<br>--- --- -- ----- -- --- ---- -- --- ---- -- ------ ------<br>--- ----- at ----,152610.7000000002,152609.7999999998,152216.691,152225,152233.36,152616.589,,54,at
screen,html.Screen,2_1_0_1_55,2022-05-12T21:17:58.571Z,,,,,,,,,,,,,,,,,53,,,,,,,,,,,,,,1642.7109999998065,,response,,,,99,,,,,,,Space,keypress(Space),,,,,,,,---- -- ----- -- ------ - ------- --- ----------<br>------------- ------ ------ ---- ---- ------- ----- -- ----<br>-------- ------- -- ---------- --- - --- ----- ----- ----<br>---- --- --- ----- --- ---- ---- ------- ----- ---- -------<br>--- --- -- ----- -- --- ---- -- --- ---- -- ------ ------<br>--- ----- -- all.,154260.59999999963,154259.2999999998,152599.937,152610.90000000037,152616.589,154266.029,,55,all.
Item 99,flow.Loop,2_1_0_1,2022-05-12T21:17:58.572Z,,,,,,,,,,,,,,,,,,,,,,,,,,,,,,,27000.868999999817,,completion,,,,,E,,,,,,,,,,,silence,,,,,154261,154259.2999999998,127241.881,127243.09999999963,127258.431,154266.029,,,
Question 1,html.Screen,2_1_0_2,2022-05-12T21:18:04.394Z,,,,,,,,,,,,,,,,,,,,,,,,,,,,false,FALSE,,5816.171000000177,,response,,,,99,E,,,,,,TRUE,click #choice-1,,,,silence,,,,,160083.2000000002,160082.2000000002,154249.256,154261.2999999998,154266.029,160097.321,,,
Question 2,html.Screen,2_1_0_3,2022-05-12T21:18:10.845Z,,,,,,,,,,,,,,,,,,,,,,,,,,,,true,TRUE,,6435.9789999998175,,response,,,,99,E,,,,,,TRUE,click #choice-1,,,,silence,,,,,166534.2000000002,166533.2999999998,160080.753,160083.2999999998,160097.321,166545.294,,,
Item 99,flow.Sequence,2_1_0,2022-05-12T21:18:10.845Z,,,,,,,,,,,,,,,,,,,,,,,,,,,,,,,49271.49899999981,,completion,,,,,,,,,,,,,,,,,,,,,166534.2999999998,166533.2999999998,117245.24,117258,117261.801,166545.294,,,
Holding screen,html.Screen,2_1_1_0,2022-05-12T21:18:20.837Z,,,,,,,,,,,,,,,,,,,,,,,,,,,,,,,9996.543000000005,,timeout,,,,,,,,,,,,,,,,,,,,,176526.2000000002,176525.21,166528.572,166534.40000000037,166545.294,176541.837,,,
screen,html.Screen,2_1_1_1_0,2022-05-12T21:18:21.563Z,,,,,,,,,,,,,,,,,54,,,,,,,,,,,,,,709.563000000373,,response,,,,100,,,,,,,Space,keypress(Space),,,,,,,,At --- ---- --- ------ ----- ------- ---- -- --- ------- --<br>------- ---------- ------ -- ----- -- ----- -- ---- ------<br>--- ----- --- --- ------ -------- ----- --- ------ ----- --<br>----- ----- ---------- --- --- ------ ------ ---- -- ------<br>------- --- ------ ----- --- ---- ------- -- ---- --- --<br>------- ------,177252.2999999998,177251.40000000037,176525.21,176526.5,176541.837,177258.232,,0,At
screen,html.Screen,2_1_1_1_1,2022-05-12T21:18:21.996Z,,,,,,,,,,,,,,,,,54,,,,,,,,,,,,,,425.4680000001972,,response,,,,100,,,,,,,Space,keypress(Space),,,,,,,,-- the ---- --- ------ ----- ------- ---- -- --- ------- --<br>------- ---------- ------ -- ----- -- ----- -- ---- ------<br>--- ----- --- --- ------ -------- ----- --- ------ ----- --<br>----- ----- ---------- --- --- ------ ------ ---- -- ------<br>------- --- ------ ----- --- ---- ------- -- ---- --- --<br>------- ------,177684.7999999998,177683.7000000002,177241.512,177252.5,177258.232,177691.415,,1,the
screen,html.Screen,2_1_1_1_2,2022-05-12T21:18:22.380Z,,,,,,,,,,,,,,,,,54,,,,,,,,,,,,,,377.08499999999185,,response,,,,100,,,,,,,Space,keypress(Space),,,,,,,,-- --- time --- ------ ----- ------- ---- -- --- ------- --<br>------- ---------- ------ -- ----- -- ----- -- ---- ------<br>--- ----- --- --- ------ -------- ----- --- ------ ----- --<br>----- ----- ---------- --- --- ------ ------ ---- -- ------<br>------- --- ------ ----- --- ---- ------- -- ---- --- --<br>------- ------,178069.40000000037,178068.5,177674.741,177685,177691.415,178074.742,,2,time
screen,html.Screen,2_1_1_1_3,2022-05-12T21:18:22.818Z,,,,,,,,,,,,,,,,,54,,,,,,,,,,,,,,431.65800000037416,,response,,,,100,,,,,,,Space,keypress(Space),,,,,,,,-- --- ---- the ------ ----- ------- ---- -- --- ------- --<br>------- ---------- ------ -- ----- -- ----- -- ---- ------<br>--- ----- --- --- ------ -------- ----- --- ------ ----- --<br>----- ----- ---------- --- --- ------ ------ ---- -- ------<br>------- --- ------ ----- --- ---- ------- -- ---- --- --<br>------- ------,178507.40000000037,178506.40000000037,178058.004,178069.7000000002,178074.742,178524.57,,3,the
screen,html.Screen,2_1_1_1_4,2022-05-12T21:18:23.191Z,,,,,,,,,,,,,,,,,54,,,,,,,,,,,,,,354.72999999980675,,response,,,,100,,,,,,,Space,keypress(Space),,,,,,,,-- --- ---- --- French ----- ------- ---- -- --- ------- --<br>------- ---------- ------ -- ----- -- ----- -- ---- ------<br>--- ----- --- --- ------ -------- ----- --- ------ ----- --<br>----- ----- ---------- --- --- ------ ------ ---- -- ------<br>------- --- ------ ----- --- ---- ------- -- ---- --- --<br>------- ------,178880.40000000037,178879.2999999998,178507.842,178507.59999999963,178524.57,178890.968,,4,French
screen,html.Screen,2_1_1_1_5,2022-05-12T21:18:23.593Z,,,,,,,,,,,,,,,,,54,,,,,,,,,,,,,,389.7320000001928,,response,,,,100,,,,,,,Space,keypress(Space),,,,,,,,-- --- ---- --- ------ crown ------- ---- -- --- ------- --<br>------- ---------- ------ -- ----- -- ----- -- ---- ------<br>--- ----- --- --- ------ -------- ----- --- ------ ----- --<br>----- ----- ---------- --- --- ------ ------ ---- -- ------<br>------- --- ------ ----- --- ---- ------- -- ---- --- --<br>------- ------,179281.7000000002,179280.7000000002,178874.329,178880.5,178890.968,179290.902,,5,crown
screen,html.Screen,2_1_1_1_6,2022-05-12T21:18:23.976Z,,,,,,,,,,,,,,,,,54,,,,,,,,,,,,,,373.2980000001844,,response,,,,100,,,,,,,Space,keypress(Space),,,,,,,,-- --- ---- --- ------ ----- secured ---- -- --- ------- --<br>------- ---------- ------ -- ----- -- ----- -- ---- ------<br>--- ----- --- --- ------ -------- ----- --- ------ ----- --<br>----- ----- ---------- --- --- ------ ------ ---- -- ------<br>------- --- ------ ----- --- ---- ------- -- ---- --- --<br>------- ------,179665.59999999963,179664.2000000002,179274.22,179282,179290.902,179674.118,,6,secured
screen,html.Screen,2_1_1_1_7,2022-05-12T21:18:24.471Z,,,,,,,,,,,,,,,,,54,,,,,,,,,,,,,,484.38200000001234,,response,,,,100,,,,,,,Space,keypress(Space),,,,,,,,-- --- ---- --- ------ ----- ------- much -- --- ------- --<br>------- ---------- ------ -- ----- -- ----- -- ---- ------<br>--- ----- --- --- ------ -------- ----- --- ------ ----- --<br>----- ----- ---------- --- --- ------ ------ ---- -- ------<br>------- --- ------ ----- --- ---- ------- -- ---- --- --<br>------- ------,180159.7000000002,180158.5,179657.409,179666,179674.118,180173.949,,7,much
screen,html.Screen,2_1_1_1_8,2022-05-12T21:18:24.815Z,,,,,,,,,,,,,,,,,54,,,,,,,,,,,,,,329.4510000003793,,response,,,,100,,,,,,,Space,keypress(Space),,,,,,,,-- --- ---- --- ------ ----- ------- ---- of --- ------- --<br>------- ---------- ------ -- ----- -- ----- -- ---- ------<br>--- ----- --- --- ------ -------- ----- --- ------ ----- --<br>----- ----- ---------- --- --- ------ ------ ---- -- ------<br>------- --- ------ ----- --- ---- ------- -- ---- --- --<br>------- ------,180504.40000000037,180503.40000000037,180157.242,180160,180173.949,180507.155,,8,of
screen,html.Screen,2_1_1_1_9,2022-05-12T21:18:25.257Z,,,,,,,,,,,,,,,,,54,,,,,,,,,,,,,,437.6449999998149,,response,,,,100,,,,,,,Space,keypress(Space),,,,,,,,-- --- ---- --- ------ ----- ------- ---- -- its ------- --<br>------- ---------- ------ -- ----- -- ----- -- ---- ------<br>--- ----- --- --- ------ -------- ----- --- ------ ----- --<br>----- ----- ---------- --- --- ------ ------ ---- -- ------<br>------- --- ------ ----- --- ---- ------- -- ---- --- --<br>------- ------,180945.7999999998,180944.7999999998,180490.512,180504.7000000002,180507.155,180956.954,,9,its
screen,html.Screen,2_1_1_1_10,2022-05-12T21:18:25.601Z,,,,,,,,,,,,,,,,,54,,,,,,,,,,,,,,332.0460000000021,,response,,,,100,,,,,,,Space,keypress(Space),,,,,,,,-- --- ---- --- ------ ----- ------- ---- -- --- revenue --<br>------- ---------- ------ -- ----- -- ----- -- ---- ------<br>--- ----- --- --- ------ -------- ----- --- ------ ----- --<br>----- ----- ---------- --- --- ------ ------ ---- -- ------<br>------- --- ------ ----- --- ---- ------- -- ---- --- --<br>------- ------,181290.2000000002,181289,180940.3,180946,180956.954,181306.823,,10,revenue
screen,html.Screen,2_1_1_1_11,2022-05-12T21:18:26.011Z,,,,,,,,,,,,,,,,,54,,,,,,,,,,,,,,392.4769999998098,,response,,,,100,,,,,,,Space,keypress(Space),,,,,,,,-- --- ---- --- ------ ----- ------- ---- -- --- ------- by<br>------- ---------- ------ -- ----- -- ----- -- ---- ------<br>--- ----- --- --- ------ -------- ----- --- ------ ----- --<br>----- ----- ---------- --- --- ------ ------ ---- -- ------<br>------- --- ------ ----- --- ---- ------- -- ---- --- --<br>------- ------,181700.2999999998,181699.2999999998,181290.189,181290.40000000037,181306.823,181706.735,,11,by
screen,html.Screen,2_1_1_1_12,2022-05-12T21:18:26.598Z,,,,,,,,,,,,,,,,,54,,,,,,,,,,,,,,578.8649999996414,,response,,,,100,,,,,,,Space,keypress(Space),,,,,,,,-- --- ---- --- ------ ----- ------- ---- -- --- ------- --<br>issuing ---------- ------ -- ----- -- ----- -- ---- ------<br>--- ----- --- --- ------ -------- ----- --- ------ ----- --<br>----- ----- ---------- --- --- ------ ------ ---- -- ------<br>------- --- ------ ----- --- ---- ------- -- ---- --- --<br>------- ------,182286.59999999963,182285.59999999963,181690.047,181700.59999999963,181706.735,182289.886,,12,issuing
screen,html.Screen,2_1_1_1_13,2022-05-12T21:18:27.099Z,,,,,,,,,,,,,,,,,54,,,,,,,,,,,,,,496.81400000018766,,response,,,,100,,,,,,,Space,keypress(Space),,,,,,,,-- --- ---- --- ------ ----- ------- ---- -- --- ------- --<br>------- government ------ -- ----- -- ----- -- ---- ------<br>--- ----- --- --- ------ -------- ----- --- ------ ----- --<br>----- ----- ---------- --- --- ------ ------ ---- -- ------<br>------- --- ------ ----- --- ---- ------- -- ---- --- --<br>------- ------,182788,182786.7000000002,182273.127,182286.7999999998,182289.886,182818.4,,13,government
screen,html.Screen,2_1_1_1_14,2022-05-12T21:18:27.504Z,,,,,,,,,,,,,,,,,54,,,,,,,,,,,,,,373.1000000000058,,response,,,,100,,,,,,,Space,keypress(Space),,,,,,,,-- --- ---- --- ------ ----- ------- ---- -- --- ------- --<br>------- ---------- bonds. -- ----- -- ----- -- ---- ------<br>--- ----- --- --- ------ -------- ----- --- ------ ----- --<br>----- ----- ---------- --- --- ------ ------ ---- -- ------<br>------- --- ------ ----- --- ---- ------- -- ---- --- --<br>------- ------,183192.59999999963,183191.5,182773.016,182788.40000000037,182818.4,183206.256,,14,bonds.
screen,html.Screen,2_1_1_1_15,2022-05-12T21:18:27.949Z,,,,,,,,,,,,,,,,,54,,,,,,,,,,,,,,430.9440000001923,,response,,,,100,,,,,,,Space,keypress(Space),,,,,,,,-- --- ---- --- ------ ----- ------- ---- -- --- ------- --<br>------- ---------- ------ In ----- -- ----- -- ---- ------<br>--- ----- --- --- ------ -------- ----- --- ------ ----- --<br>----- ----- ---------- --- --- ------ ------ ---- -- ------<br>------- --- ------ ----- --- ---- ------- -- ---- --- --<br>------- ------,183638.2999999998,183637.2000000002,183189.574,183192.7999999998,183206.256,183663.315,,15,In
screen,html.Screen,2_1_1_1_16,2022-05-12T21:18:29.258Z,,,,,,,,,,,,,,,,,54,,,,,,,,,,,,,,1282.385000000184,,response,,,,100,,,,,,,Space,keypress(Space),,,,,,,,"-- --- ---- --- ------ ----- ------- ---- -- --- ------- --<br>------- ---------- ------ -- 1727, -- ----- -- ---- ------<br>--- ----- --- --- ------ -------- ----- --- ------ ----- --<br>----- ----- ---------- --- --- ------ ------ ---- -- ------<br>------- --- ------ ----- --- ---- ------- -- ---- --- --<br>------- ------",184946.7999999998,184945.7000000002,183622.747,183638.5,183663.315,184955.646,,16,"1727,"
screen,html.Screen,2_1_1_1_17,2022-05-12T21:18:29.861Z,,,,,,,,,,,,,,,,,54,,,,,,,,,,,,,,592.9539999996196,,response,,,,100,,,,,,,Space,keypress(Space),,,,,,,,-- --- ---- --- ------ ----- ------- ---- -- --- ------- --<br>------- ---------- ------ -- ----- in ----- -- ---- ------<br>--- ----- --- --- ------ -------- ----- --- ------ ----- --<br>----- ----- ---------- --- --- ------ ------ ---- -- ------<br>------- --- ------ ----- --- ---- ------- -- ---- --- --<br>------- ------,185549.7999999998,185548.59999999963,184938.918,184947,184955.646,185555.423,,17,in
screen,html.Screen,2_1_1_1_18,2022-05-12T21:18:30.353Z,,,,,,,,,,,,,,,,,54,,,,,,,,,,,,,,485.7770000001765,,response,,,,100,,,,,,,Space,keypress(Space),,,,,,,,-- --- ---- --- ------ ----- ------- ---- -- --- ------- --<br>------- ---------- ------ -- ----- -- order -- ---- ------<br>--- ----- --- --- ------ -------- ----- --- ------ ----- --<br>----- ----- ---------- --- --- ------ ------ ---- -- ------<br>------- --- ------ ----- --- ---- ------- -- ---- --- --<br>------- ------,186042.2000000002,186041.2000000002,185538.73,185550,185555.423,186055.332,,18,order
screen,html.Screen,2_1_1_1_19,2022-05-12T21:18:30.761Z,,,,,,,,,,,,,,,,,54,,,,,,,,,,,,,,393.96799999981886,,response,,,,100,,,,,,,Space,keypress(Space),,,,,,,,-- --- ---- --- ------ ----- ------- ---- -- --- ------- --<br>------- ---------- ------ -- ----- -- ----- to ---- ------<br>--- ----- --- --- ------ -------- ----- --- ------ ----- --<br>----- ----- ---------- --- --- ------ ------ ---- -- ------<br>------- --- ------ ----- --- ---- ------- -- ---- --- --<br>------- ------,186450.09999999963,186449.2999999998,186038.546,186042.40000000037,186055.332,186455.234,,19,to
screen,html.Screen,2_1_1_1_20,2022-05-12T21:18:31.104Z,,,,,,,,,,,,,,,,,54,,,,,,,,,,,,,,336.6660000003758,,response,,,,100,,,,,,,Space,keypress(Space),,,,,,,,-- --- ---- --- ------ ----- ------- ---- -- --- ------- --<br>------- ---------- ------ -- ----- -- ----- -- save ------<br>--- ----- --- --- ------ -------- ----- --- ------ ----- --<br>----- ----- ---------- --- --- ------ ------ ---- -- ------<br>------- --- ------ ----- --- ---- ------- -- ---- --- --<br>------- ------,186792.90000000037,186791.90000000037,186438.435,186450.2000000002,186455.234,186805.027,,20,save
screen,html.Screen,2_1_1_1_21,2022-05-12T21:18:31.490Z,,,,,,,,,,,,,,,,,54,,,,,,,,,,,,,,372.6730000001844,,response,,,,100,,,,,,,Space,keypress(Space),,,,,,,,"-- --- ---- --- ------ ----- ------- ---- -- --- ------- --<br>------- ---------- ------ -- ----- -- ----- -- ---- money,<br>--- ----- --- --- ------ -------- ----- --- ------ ----- --<br>----- ----- ---------- --- --- ------ ------ ---- -- ------<br>------- --- ------ ----- --- ---- ------- -- ---- --- --<br>------- ------",187178.7999999998,187177.7000000002,186788.336,186793.09999999963,186805.027,187188.227,,21,"money,"
screen,html.Screen,2_1_1_1_22,2022-05-12T21:18:31.892Z,,,,,,,,,,,,,,,,,54,,,,,,,,,,,,,,391.37299999961397,,response,,,,100,,,,,,,Space,keypress(Space),,,,,,,,-- --- ---- --- ------ ----- ------- ---- -- --- ------- --<br>------- ---------- ------ -- ----- -- ----- -- ---- ------<br>the ----- --- --- ------ -------- ----- --- ------ ----- --<br>----- ----- ---------- --- --- ------ ------ ---- -- ------<br>------- --- ------ ----- --- ---- ------- -- ---- --- --<br>------- ------,187580.59999999963,187579.59999999963,187171.576,187179,187188.227,187588.279,,22,the
screen,html.Screen,2_1_1_1_23,2022-05-12T21:18:32.417Z,,,,,,,,,,,,,,,,,54,,,,,,,,,,,,,,516.8209999996179,,response,,,,100,,,,,,,Space,keypress(Space),,,,,,,,-- --- ---- --- ------ ----- ------- ---- -- --- ------- --<br>------- ---------- ------ -- ----- -- ----- -- ---- ------<br>--- state --- --- ------ -------- ----- --- ------ ----- --<br>----- ----- ---------- --- --- ------ ------ ---- -- ------<br>------- --- ------ ----- --- ---- ------- -- ---- --- --<br>------- ------,188106.2000000002,188105.09999999963,187571.406,187580.90000000037,187588.279,188121.259,,23,state
screen,html.Screen,2_1_1_1_24,2022-05-12T21:18:32.900Z,,,,,,,,,,,,,,,,,54,,,,,,,,,,,,,,466.6410000003816,,response,,,,100,,,,,,,Space,keypress(Space),,,,,,,,-- --- ---- --- ------ ----- ------- ---- -- --- ------- --<br>------- ---------- ------ -- ----- -- ----- -- ---- ------<br>--- ----- cut --- ------ -------- ----- --- ------ ----- --<br>----- ----- ---------- --- --- ------ ------ ---- -- ------<br>------- --- ------ ----- --- ---- ------- -- ---- --- --<br>------- ------,188589,188587.90000000037,188104.516,188106.40000000037,188121.259,188604.434,,24,cut
screen,html.Screen,2_1_1_1_25,2022-05-12T21:18:33.363Z,,,,,,,,,,,,,,,,,54,,,,,,,,,,,,,,446.7660000001779,,response,,,,100,,,,,,,Space,keypress(Space),,,,,,,,-- --- ---- --- ------ ----- ------- ---- -- --- ------- --<br>------- ---------- ------ -- ----- -- ----- -- ---- ------<br>--- ----- --- the ------ -------- ----- --- ------ ----- --<br>----- ----- ---------- --- --- ------ ------ ---- -- ------<br>------- --- ------ ----- --- ---- ------- -- ---- --- --<br>------- ------,189052.2999999998,189051.2000000002,188587.71,188589.2000000002,188604.434,189054.237,,25,the
screen,html.Screen,2_1_1_1_26,2022-05-12T21:18:33.769Z,,,,,,,,,,,,,,,,,54,,,,,,,,,,,,,,402.86299999963376,,response,,,,100,,,,,,,Space,keypress(Space),,,,,,,,-- --- ---- --- ------ ----- ------- ---- -- --- ------- --<br>------- ---------- ------ -- ----- -- ----- -- ---- ------<br>--- ----- --- --- bonds' -------- ----- --- ------ ----- --<br>----- ----- ---------- --- --- ------ ------ ---- -- ------<br>------- --- ------ ----- --- ---- ------- -- ---- --- --<br>------- ------,189457.5,189457.09999999963,189037.579,189052.5,189054.237,189470.791,,26,bonds'
screen,html.Screen,2_1_1_1_27,2022-05-12T21:18:34.183Z,,,,,,,,,,,,,,,,,54,,,,,,,,,,,,,,400.6090000003751,,response,,,,100,,,,,,,Space,keypress(Space),,,,,,,,-- --- ---- --- ------ ----- ------- ---- -- --- ------- --<br>------- ---------- ------ -- ----- -- ----- -- ---- ------<br>--- ----- --- --- ------ interest ----- --- ------ ----- --<br>----- ----- ---------- --- --- ------ ------ ---- -- ------<br>------- --- ------ ----- --- ---- ------- -- ---- --- --<br>------- ------,189872.40000000037,189871.40000000037,189454.071,189457.7000000002,189470.791,189887.315,,27,interest
screen,html.Screen,2_1_1_1_28,2022-05-12T21:18:34.565Z,,,,,,,,,,,,,,,,,54,,,,,,,,,,,,,,365.9849999998114,,response,,,,100,,,,,,,Space,keypress(Space),,,,,,,,-- --- ---- --- ------ ----- ------- ---- -- --- ------- --<br>------- ---------- ------ -- ----- -- ----- -- ---- ------<br>--- ----- --- --- ------ -------- rate. --- ------ ----- --<br>----- ----- ---------- --- --- ------ ------ ---- -- ------<br>------- --- ------ ----- --- ---- ------- -- ---- --- --<br>------- ------,190254.2000000002,190253.2999999998,189870.677,189872.59999999963,189887.315,190270.506,,28,rate.
screen,html.Screen,2_1_1_1_29,2022-05-12T21:18:34.991Z,,,,,,,,,,,,,,,,,54,,,,,,,,,,,,,,408.1940000001923,,response,,,,100,,,,,,,Space,keypress(Space),,,,,,,,-- --- ---- --- ------ ----- ------- ---- -- --- ------- --<br>------- ---------- ------ -- ----- -- ----- -- ---- ------<br>--- ----- --- --- ------ -------- ----- The ------ ----- --<br>----- ----- ---------- --- --- ------ ------ ---- -- ------<br>------- --- ------ ----- --- ---- ------- -- ---- --- --<br>------- ------,190679.7000000002,190678.7000000002,190253.824,190254.5,190270.506,190687.038,,29,The
screen,html.Screen,2_1_1_1_30,2022-05-12T21:18:35.423Z,,,,,,,,,,,,,,,,,54,,,,,,,,,,,,,,424.26199999981327,,response,,,,100,,,,,,,Space,keypress(Space),,,,,,,,-- --- ---- --- ------ ----- ------- ---- -- --- ------- --<br>------- ---------- ------ -- ----- -- ----- -- ---- ------<br>--- ----- --- --- ------ -------- ----- --- market ----- --<br>----- ----- ---------- --- --- ------ ------ ---- -- ------<br>------- --- ------ ----- --- ---- ------- -- ---- --- --<br>------- ------,191112.2999999998,191111.2999999998,190670.376,190679.90000000037,190687.038,191120.156,,30,market
screen,html.Screen,2_1_1_1_31,2022-05-12T21:18:35.917Z,,,,,,,,,,,,,,,,,54,,,,,,,,,,,,,,484.6439999998256,,response,,,,100,,,,,,,Space,keypress(Space),,,,,,,,-- --- ---- --- ------ ----- ------- ---- -- --- ------- --<br>------- ---------- ------ -- ----- -- ----- -- ---- ------<br>--- ----- --- --- ------ -------- ----- --- ------ value --<br>----- ----- ---------- --- --- ------ ------ ---- -- ------<br>------- --- ------ ----- --- ---- ------- -- ---- --- --<br>------- ------,191605.7999999998,191604.7999999998,191103.537,191112.5,191120.156,191620.059,,31,value
screen,html.Screen,2_1_1_1_32,2022-05-12T21:18:36.306Z,,,,,,,,,,,,,,,,,54,,,,,,,,,,,,,,373.4409999999916,,response,,,,100,,,,,,,Space,keypress(Space),,,,,,,,-- --- ---- --- ------ ----- ------- ---- -- --- ------- --<br>------- ---------- ------ -- ----- -- ----- -- ---- ------<br>--- ----- --- --- ------ -------- ----- --- ------ ----- of<br>----- ----- ---------- --- --- ------ ------ ---- -- ------<br>------- --- ------ ----- --- ---- ------- -- ---- --- --<br>------- ------,191994.59999999963,191993.5,191603.347,191606,191620.059,192003.259,,32,of
screen,html.Screen,2_1_1_1_33,2022-05-12T21:18:36.743Z,,,,,,,,,,,,,,,,,54,,,,,,,,,,,,,,427.94100000019534,,response,,,,100,,,,,,,Space,keypress(Space),,,,,,,,-- --- ---- --- ------ ----- ------- ---- -- --- ------- --<br>------- ---------- ------ -- ----- -- ----- -- ---- ------<br>--- ----- --- --- ------ -------- ----- --- ------ ----- --<br>these ----- ---------- --- --- ------ ------ ---- -- ------<br>------- --- ------ ----- --- ---- ------- -- ---- --- --<br>------- ------,192432.09999999963,192431.2000000002,191986.574,191994.7999999998,192003.259,192436.43,,33,these
screen,html.Screen,2_1_1_1_34,2022-05-12T21:18:37.115Z,,,,,,,,,,,,,,,,,54,,,,,,,,,,,,,,366.4700000003795,,response,,,,100,,,,,,,Space,keypress(Space),,,,,,,,-- --- ---- --- ------ ----- ------- ---- -- --- ------- --<br>------- ---------- ------ -- ----- -- ----- -- ---- ------<br>--- ----- --- --- ------ -------- ----- --- ------ ----- --<br>----- bonds ---------- --- --- ------ ------ ---- -- ------<br>------- --- ------ ----- --- ---- ------- -- ---- --- --<br>------- ------,192803.90000000037,192802.90000000037,192419.755,192432.40000000037,192436.43,192819.647,,34,bonds
screen,html.Screen,2_1_1_1_35,2022-05-12T21:18:37.492Z,,,,,,,,,,,,,,,,,54,,,,,,,,,,,,,,360.15299999981653,,response,,,,100,,,,,,,Space,keypress(Space),,,,,,,,"-- --- ---- --- ------ ----- ------- ---- -- --- ------- --<br>------- ---------- ------ -- ----- -- ----- -- ---- ------<br>--- ----- --- --- ------ -------- ----- --- ------ ----- --<br>----- ----- plummeted, --- --- ------ ------ ---- -- ------<br>------- --- ------ ----- --- ---- ------- -- ---- --- --<br>------- ------",193180.90000000037,193179.7999999998,192803.018,192804.09999999963,192819.647,193186.14,,35,"plummeted,"
screen,html.Screen,2_1_1_1_36,2022-05-12T21:18:37.972Z,,,,,,,,,,,,,,,,,54,,,,,,,,,,,,,,474.0600000001723,,response,,,,100,,,,,,,Space,keypress(Space),,,,,,,,-- --- ---- --- ------ ----- ------- ---- -- --- ------- --<br>------- ---------- ------ -- ----- -- ----- -- ---- ------<br>--- ----- --- --- ------ -------- ----- --- ------ ----- --<br>----- ----- ---------- and --- ------ ------ ---- -- ------<br>------- --- ------ ----- --- ---- ------- -- ---- --- --<br>------- ------,193661.2000000002,193660.2000000002,193169.524,193181.2000000002,193186.14,193669.285,,36,and
screen,html.Screen,2_1_1_1_37,2022-05-12T21:18:38.363Z,,,,,,,,,,,,,,,,,54,,,,,,,,,,,,,,381.814999999624,,response,,,,100,,,,,,,Space,keypress(Space),,,,,,,,-- --- ---- --- ------ ----- ------- ---- -- --- ------- --<br>------- ---------- ------ -- ----- -- ----- -- ---- ------<br>--- ----- --- --- ------ -------- ----- --- ------ ----- --<br>----- ----- ---------- --- the ------ ------ ---- -- ------<br>------- --- ------ ----- --- ---- ------- -- ---- --- --<br>------- ------,194052.2999999998,194051.09999999963,193652.634,193661.40000000037,193669.285,194069.271,,37,the
screen,html.Screen,2_1_1_1_38,2022-05-12T21:18:38.740Z,,,,,,,,,,,,,,,,,54,,,,,,,,,,,,,,358.82899999961955,,response,,,,100,,,,,,,Space,keypress(Space),,,,,,,,-- --- ---- --- ------ ----- ------- ---- -- --- ------- --<br>------- ---------- ------ -- ----- -- ----- -- ---- ------<br>--- ----- --- --- ------ -------- ----- --- ------ ----- --<br>----- ----- ---------- --- --- market ------ ---- -- ------<br>------- --- ------ ----- --- ---- ------- -- ---- --- --<br>------- ------,194428.5,194428.09999999963,194052.528,194052.5,194069.271,194435.78,,38,market
screen,html.Screen,2_1_1_1_39,2022-05-12T21:18:39.113Z,,,,,,,,,,,,,,,,,54,,,,,,,,,,,,,,365.31999999962864,,response,,,,100,,,,,,,Space,keypress(Space),,,,,,,,-- --- ---- --- ------ ----- ------- ---- -- --- ------- --<br>------- ---------- ------ -- ----- -- ----- -- ---- ------<br>--- ----- --- --- ------ -------- ----- --- ------ ----- --<br>----- ----- ---------- --- --- ------ became ---- -- ------<br>------- --- ------ ----- --- ---- ------- -- ---- --- --<br>------- ------,194802.2999999998,194801.09999999963,194419.124,194428.59999999963,194435.78,194818.913,,39,became
screen,html.Screen,2_1_1_1_40,2022-05-12T21:18:39.449Z,,,,,,,,,,,,,,,,,54,,,,,,,,,,,,,,318.08699999999953,,response,,,,100,,,,,,,Space,keypress(Space),,,,,,,,-- --- ---- --- ------ ----- ------- ---- -- --- ------- --<br>------- ---------- ------ -- ----- -- ----- -- ---- ------<br>--- ----- --- --- ------ -------- ----- --- ------ ----- --<br>----- ----- ---------- --- --- ------ ------ wary -- ------<br>------- --- ------ ----- --- ---- ------- -- ---- --- --<br>------- ------,195138.09999999963,195137,194802.293,194802.5,194818.913,195152.244,,40,wary
screen,html.Screen,2_1_1_1_41,2022-05-12T21:18:39.821Z,,,,,,,,,,,,,,,,,54,,,,,,,,,,,,,,356.1560000003665,,response,,,,100,,,,,,,Space,keypress(Space),,,,,,,,-- --- ---- --- ------ ----- ------- ---- -- --- ------- --<br>------- ---------- ------ -- ----- -- ----- -- ---- ------<br>--- ----- --- --- ------ -------- ----- --- ------ ----- --<br>----- ----- ---------- --- --- ------ ------ ---- of ------<br>------- --- ------ ----- --- ---- ------- -- ---- --- --<br>------- ------,195509.5,195508.40000000037,195135.456,195138.2999999998,195152.244,195518.733,,41,of
screen,html.Screen,2_1_1_1_42,2022-05-12T21:18:40.142Z,,,,,,,,,,,,,,,,,54,,,,,,,,,,,,,,310.9670000001788,,response,,,,100,,,,,,,Space,keypress(Space),,,,,,,,-- --- ---- --- ------ ----- ------- ---- -- --- ------- --<br>------- ---------- ------ -- ----- -- ----- -- ---- ------<br>--- ----- --- --- ------ -------- ----- --- ------ ----- --<br>----- ----- ---------- --- --- ------ ------ ---- -- French<br>------- --- ------ ----- --- ---- ------- -- ---- --- --<br>------- ------,195830.7000000002,195829.7000000002,195502.086,195509.7999999998,195518.733,195835.301,,42,French
screen,html.Screen,2_1_1_1_43,2022-05-12T21:18:40.465Z,,,,,,,,,,,,,,,,,54,,,,,,,,,,,,,,317.2989999996207,,response,,,,100,,,,,,,Space,keypress(Space),,,,,,,,-- --- ---- --- ------ ----- ------- ---- -- --- ------- --<br>------- ---------- ------ -- ----- -- ----- -- ---- ------<br>--- ----- --- --- ------ -------- ----- --- ------ ----- --<br>----- ----- ---------- --- --- ------ ------ ---- -- ------<br>credit. --- ------ ----- --- ---- ------- -- ---- --- --<br>------- ------,196153.59999999963,196152.59999999963,195818.625,195830.90000000037,195835.301,196168.558,,43,credit.
screen,html.Screen,2_1_1_1_44,2022-05-12T21:18:40.867Z,,,,,,,,,,,,,,,,,54,,,,,,,,,,,,,,386.5419999996375,,response,,,,100,,,,,,,Space,keypress(Space),,,,,,,,-- --- ---- --- ------ ----- ------- ---- -- --- ------- --<br>------- ---------- ------ -- ----- -- ----- -- ---- ------<br>--- ----- --- --- ------ -------- ----- --- ------ ----- --<br>----- ----- ---------- --- --- ------ ------ ---- -- ------<br>------- The ------ ----- --- ---- ------- -- ---- --- --<br>------- ------,196556.2000000002,196555.09999999963,196151.92,196153.90000000037,196168.558,196568.333,,44,The
screen,html.Screen,2_1_1_1_45,2022-05-12T21:18:41.261Z,,,,,,,,,,,,,,,,,54,,,,,,,,,,,,,,380.2669999996142,,response,,,,100,,,,,,,Space,keypress(Space),,,,,,,,-- --- ---- --- ------ ----- ------- ---- -- --- ------- --<br>------- ---------- ------ -- ----- -- ----- -- ---- ------<br>--- ----- --- --- ------ -------- ----- --- ------ ----- --<br>----- ----- ---------- --- --- ------ ------ ---- -- ------<br>------- --- French ----- --- ---- ------- -- ---- --- --<br>------- ------,196949.7000000002,196948.59999999963,196551.733,196556.5,196568.333,196951.561,,45,French
screen,html.Screen,2_1_1_1_46,2022-05-12T21:18:41.643Z,,,,,,,,,,,,,,,,,54,,,,,,,,,,,,,,378.93900000001304,,response,,,,100,,,,,,,Space,keypress(Space),,,,,,,,-- --- ---- --- ------ ----- ------- ---- -- --- ------- --<br>------- ---------- ------ -- ----- -- ----- -- ---- ------<br>--- ----- --- --- ------ -------- ----- --- ------ ----- --<br>----- ----- ---------- --- --- ------ ------ ---- -- ------<br>------- --- ------ state --- ---- ------- -- ---- --- --<br>------- ------,197331.59999999963,197330.5,196934.899,196949.90000000037,196951.561,197334.748,,46,state
screen,html.Screen,2_1_1_1_47,2022-05-12T21:18:42.065Z,,,,,,,,,,,,,,,,,54,,,,,,,,,,,,,,418.6520000003802,,response,,,,100,,,,,,,Space,keypress(Space),,,,,,,,-- --- ---- --- ------ ----- ------- ---- -- --- ------- --<br>------- ---------- ------ -- ----- -- ----- -- ---- ------<br>--- ----- --- --- ------ -------- ----- --- ------ ----- --<br>----- ----- ---------- --- --- ------ ------ ---- -- ------<br>------- --- ------ ----- was ---- ------- -- ---- --- --<br>------- ------,197754.2999999998,197753.40000000037,197318.163,197331.7999999998,197334.748,197767.927,,47,was
screen,html.Screen,2_1_1_1_48,2022-05-12T21:18:42.486Z,,,,,,,,,,,,,,,,,54,,,,,,,,,,,,,,406.2730000001902,,response,,,,100,,,,,,,Space,keypress(Space),,,,,,,,-- --- ---- --- ------ ----- ------- ---- -- --- ------- --<br>------- ---------- ------ -- ----- -- ----- -- ---- ------<br>--- ----- --- --- ------ -------- ----- --- ------ ----- --<br>----- ----- ---------- --- --- ------ ------ ---- -- ------<br>------- --- ------ ----- --- left ------- -- ---- --- --<br>------- ------,198175.2000000002,198174.2000000002,197751.346,197754.5,197767.927,198184.545,,48,left
screen,html.Screen,2_1_1_1_49,2022-05-12T21:18:42.853Z,,,,,,,,,,,,,,,,,54,,,,,,,,,,,,,,355.8550000003597,,response,,,,100,,,,,,,Space,keypress(Space),,,,,,,,-- --- ---- --- ------ ----- ------- ---- -- --- ------- --<br>------- ---------- ------ -- ----- -- ----- -- ---- ------<br>--- ----- --- --- ------ -------- ----- --- ------ ----- --<br>----- ----- ---------- --- --- ------ ------ ---- -- ------<br>------- --- ------ ----- --- ---- without -- ---- --- --<br>------- ------,198541.5,198540.40000000037,198167.818,198175.40000000037,198184.545,198550.998,,49,without
screen,html.Screen,2_1_1_1_50,2022-05-12T21:18:43.220Z,,,,,,,,,,,,,,,,,54,,,,,,,,,,,,,,356.60199999963515,,response,,,,100,,,,,,,Space,keypress(Space),,,,,,,,-- --- ---- --- ------ ----- ------- ---- -- --- ------- --<br>------- ---------- ------ -- ----- -- ----- -- ---- ------<br>--- ----- --- --- ------ -------- ----- --- ------ ----- --<br>----- ----- ---------- --- --- ------ ------ ---- -- ------<br>------- --- ------ ----- --- ---- ------- an ---- --- --<br>------- ------,198908.59999999963,198907.59999999963,198534.416,198541.7000000002,198550.998,198917.583,,50,an
screen,html.Screen,2_1_1_1_51,2022-05-12T21:18:43.518Z,,,,,,,,,,,,,,,,,54,,,,,,,,,,,,,,288.617000000173,,response,,,,100,,,,,,,Space,keypress(Space),,,,,,,,-- --- ---- --- ------ ----- ------- ---- -- --- ------- --<br>------- ---------- ------ -- ----- -- ----- -- ---- ------<br>--- ----- --- --- ------ -------- ----- --- ------ ----- --<br>----- ----- ---------- --- --- ------ ------ ---- -- ------<br>------- --- ------ ----- --- ---- ------- -- easy --- --<br>------- ------,199207.2000000002,199206.2000000002,198900.922,198908.90000000037,198917.583,199217.499,,51,easy
screen,html.Screen,2_1_1_1_52,2022-05-12T21:18:43.849Z,,,,,,,,,,,,,,,,,54,,,,,,,,,,,,,,319.10099999961676,,response,,,,100,,,,,,,Space,keypress(Space),,,,,,,,-- --- ---- --- ------ ----- ------- ---- -- --- ------- --<br>------- ---------- ------ -- ----- -- ----- -- ---- ------<br>--- ----- --- --- ------ -------- ----- --- ------ ----- --<br>----- ----- ---------- --- --- ------ ------ ---- -- ------<br>------- --- ------ ----- --- ---- ------- -- ---- way --<br>------- ------,199537.5,199536.59999999963,199200.81,199207.2999999998,199217.499,199550.698,,52,way
screen,html.Screen,2_1_1_1_53,2022-05-12T21:18:44.210Z,,,,,,,,,,,,,,,,,54,,,,,,,,,,,,,,346.9019999996235,,response,,,,100,,,,,,,Space,keypress(Space),,,,,,,,-- --- ---- --- ------ ----- ------- ---- -- --- ------- --<br>------- ---------- ------ -- ----- -- ----- -- ---- ------<br>--- ----- --- --- ------ -------- ----- --- ------ ----- --<br>----- ----- ---------- --- --- ------ ------ ---- -- ------<br>------- --- ------ ----- --- ---- ------- -- ---- --- of<br>------- ------,199898.7000000002,199897.59999999963,199534.018,199537.7999999998,199550.698,199900.573,,53,of
screen,html.Screen,2_1_1_1_54,2022-05-12T21:18:44.619Z,,,,,,,,,,,,,,,,,54,,,,,,,,,,,,,,405.7269999998098,,response,,,,100,,,,,,,Space,keypress(Space),,,,,,,,-- --- ---- --- ------ ----- ------- ---- -- --- ------- --<br>------- ---------- ------ -- ----- -- ----- -- ---- ------<br>--- ----- --- --- ------ -------- ----- --- ------ ----- --<br>----- ----- ---------- --- --- ------ ------ ---- -- ------<br>------- --- ------ ----- --- ---- ------- -- ---- --- --<br>raising ------,200307.5,200306.2999999998,199883.915,199899,199900.573,200317.136,,54,raising
screen,html.Screen,2_1_1_1_55,2022-05-12T21:18:45.213Z,,,,,,,,,,,,,,,,,54,,,,,,,,,,,,,,584.0640000001877,,response,,,,100,,,,,,,Space,keypress(Space),,,,,,,,-- --- ---- --- ------ ----- ------- ---- -- --- ------- --<br>------- ---------- ------ -- ----- -- ----- -- ---- ------<br>--- ----- --- --- ------ -------- ----- --- ------ ----- --<br>----- ----- ---------- --- --- ------ ------ ---- -- ------<br>------- --- ------ ----- --- ---- ------- -- ---- --- --<br>------- money.,200902.2999999998,200901.2000000002,200300.415,200307.7999999998,200317.136,200916.873,,55,money.
Item 100,flow.Loop,2_1_1_1,2022-05-12T21:18:45.214Z,,,,,,,,,,,,,,,,,,,,,,,,,,,,,,,24359.363000000187,,completion,,,,,E,,,,,,,,,,,silence,,,,,200902.7000000002,200901.2000000002,176525.21,176526.40000000037,176541.837,200916.873,,,
Question 1,html.Screen,2_1_1_2,2022-05-12T21:18:47.778Z,,,,,,,,,,,,,,,,,,,,,,,,,,,,true,TRUE,,2549.52700000038,,response,,,,100,E,,,,,,TRUE,click #choice-1,,,,silence,,,,,203467.2999999998,203466.40000000037,200900.229,200903,200916.873,203482.697,,,
Question 2,html.Screen,2_1_1_3,2022-05-12T21:18:50.729Z,,,,,,,,,,,,,,,,,,,,,,,,,,,,true,FALSE,,2933.703000000387,,response,,,,100,E,,,,,,FALSE,click #choice-2,,,,silence,,,,,206417.5,206416.40000000037,203466.031,203467.40000000037,203482.697,206431.717,,,
Item 100,flow.Sequence,2_1_1,2022-05-12T21:18:50.729Z,,,,,,,,,,,,,,,,,,,,,,,,,,,,,,,39871.10600000038,,completion,,,,,,,,,,,,,,,,,,,,,206417.7999999998,206416.40000000037,166528.572,166534.40000000037,166545.294,206431.717,,,
End of Practice,html.Page,2_1_2,2022-05-12T21:18:56.595Z,,,,,,,,,,,,,,,,,,,,,,,,,,,,,,,5851.782999999996,,form submission,,,,,,,,,,,,,,,,,,,,,212283.7000000002,212283.5,206415.089,206417.90000000037,206431.717,212296.335,,,
Practice,flow.Sequence,2_1,2022-05-12T21:18:56.595Z,,,,,,,,,,,,,,,,,,,,,,,,,,,,,,,95021.699,,completion,,,,,,,,,,,,,,,,,,,,,212284,212283.5,117245.24,117258,117261.801,212296.335,,,
Trap_instruction,html.Page,2_2_0,2022-05-12T21:18:59.666Z,,,,,,,,,,,,,,,,,,,,,,,,,,,,,,,3057.964999999822,,form submission,,,,,,,,,,,,,,,,,,,,,215354.40000000037,215354.2999999998,212279.755,212284.09999999963,212296.335,215361.941,,,
trap_trial,html.Screen,2_2_1,2022-05-12T21:19:02.948Z,,,,,,,,,,,,,,,,,,,,,,,,,,,,true,1,,3274.2590000001946,,response,,,,,,,,,,,1,click #choice-1,,,,,,,,,218637.09999999963,218636.2000000002,215345.353,215354.59999999963,215361.941,218644.218,,,
end of trap trial,html.Page,2_2_2,2022-05-12T21:19:04.529Z,,,,,,,,,,,,,,,,,,,,,,,,,,,,,,,1573.881999999634,,form submission,,,,,,,,,,,,,,,,,,,,,220218.2000000002,220218.09999999963,218627.615,218637.2000000002,218644.218,220226.991,,,
Trap 1,flow.Sequence,2_2,2022-05-12T21:19:04.529Z,,,,,,,,,,,,,,,,,,,,,,,,,,,,,,,7921.764999999636,,completion,,,,,,,,,,,,,,,,,,,,,220218.40000000037,220218.09999999963,212279.755,212284.09999999963,212296.335,220226.991,,,
Standby,html.Page,2_3_0,2022-05-12T21:19:12.520Z,,,,,,,,,,,,,,,,,,,,,,,,,,,,,,,7997.347999999998,,timeout,,,,,,,,,,,,,,,,,,,,,228209,228207.694,220210.426,220218.40000000037,220226.991,228224.339,,,
Holding screen,html.Screen,2_3_1_0_0,2022-05-12T21:19:19.518Z,,,,,,,,,,,,,,,,,,,,,,,,,,,,,,,6997.581000000006,,timeout,,,,,,,,,,,,,,,,,,,,,235206.40000000037,235205.334,228207.694,228209.2999999998,228224.339,235221.92,,,
screen,html.Screen,2_3_1_0_1_0,2022-05-12T21:19:20.703Z,,,,,,,,,,,,,,,,,51,,,,,,,,,,,,,,1167.879999999801,,response,,,,13,E,,,,,,Space,keypress(Space),,,,silence,,,,American -------- --- --- ---- --- --- ------ -- --------<br>---- --------- --- ------- ------------ ---------- ---------<br>--- ---------- ------- ---------- ------- -- -------- ----<br>---- --- ------ ----- ------ -- ---- --- ----- -- - -------<br>-------- -- --- --- -- ----- ----------- ----- -----------<br>---- --- ---------- --- ---- --- -- ----------,236391.5,236389.7999999998,235205.334,235207,235221.92,236404.909,,0,American
screen,html.Screen,2_3_1_0_1_1,2022-05-12T21:19:21.192Z,,,,,,,,,,,,,,,,,51,,,,,,,,,,,,,,474.5909999999858,,response,,,,13,E,,,,,,Space,keypress(Space),,,,silence,,,,-------- industry --- --- ---- --- --- ------ -- --------<br>---- --------- --- ------- ------------ ---------- ---------<br>--- ---------- ------- ---------- ------- -- -------- ----<br>---- --- ------ ----- ------ -- ---- --- ----- -- - -------<br>-------- -- --- --- -- ----- ----------- ----- -----------<br>---- --- ---------- --- ---- --- -- ----------,236880.40000000037,236879.5,236388.183,236391.7000000002,236404.909,236888.052,,1,industry
screen,html.Screen,2_3_1_0_1_2,2022-05-12T21:19:21.682Z,,,,,,,,,,,,,,,,,51,,,,,,,,,,,,,,481.3480000003765,,response,,,,13,E,,,,,,Space,keypress(Space),,,,silence,,,,-------- -------- may --- ---- --- --- ------ -- --------<br>---- --------- --- ------- ------------ ---------- ---------<br>--- ---------- ------- ---------- ------- -- -------- ----<br>---- --- ------ ----- ------ -- ---- --- ----- -- - -------<br>-------- -- --- --- -- ----- ----------- ----- -----------<br>---- --- ---------- --- ---- --- -- ----------,237370.90000000037,237369.40000000037,236871.396,236880.7000000002,236888.052,237387.846,,2,may
screen,html.Screen,2_3_1_0_1_3,2022-05-12T21:19:22.130Z,,,,,,,,,,,,,,,,,51,,,,,,,,,,,,,,430.0540000003821,,response,,,,13,E,,,,,,Space,keypress(Space),,,,silence,,,,-------- -------- --- not ---- --- --- ------ -- --------<br>---- --------- --- ------- ------------ ---------- ---------<br>--- ---------- ------- ---------- ------- -- -------- ----<br>---- --- ------ ----- ------ -- ---- --- ----- -- - -------<br>-------- -- --- --- -- ----- ----------- ----- -----------<br>---- --- ---------- --- ---- --- -- ----------,237818.40000000037,237817.90000000037,237371.222,237371.2000000002,237387.846,237821.011,,3,not
screen,html.Screen,2_3_1_0_1_4,2022-05-12T21:19:22.562Z,,,,,,,,,,,,,,,,,51,,,,,,,,,,,,,,428.78899999981513,,response,,,,13,E,,,,,,Space,keypress(Space),,,,silence,,,,-------- -------- --- --- know --- --- ------ -- --------<br>---- --------- --- ------- ------------ ---------- ---------<br>--- ---------- ------- ---------- ------- -- -------- ----<br>---- --- ------ ----- ------ -- ---- --- ----- -- - -------<br>-------- -- --- --- -- ----- ----------- ----- -----------<br>---- --- ---------- --- ---- --- -- ----------,238250.7999999998,238249.7999999998,237804.374,237818.5,237821.011,238254.236,,4,know
screen,html.Screen,2_3_1_0_1_5,2022-05-12T21:19:22.998Z,,,,,,,,,,,,,,,,,51,,,,,,,,,,,,,,431.36399999962305,,response,,,,13,E,,,,,,Space,keypress(Space),,,,silence,,,,"-------- -------- --- --- ---- it, --- ------ -- --------<br>---- --------- --- ------- ------------ ---------- ---------<br>--- ---------- ------- ---------- ------- -- -------- ----<br>---- --- ------ ----- ------ -- ---- --- ----- -- - -------<br>-------- -- --- --- -- ----- ----------- ----- -----------<br>---- --- ---------- --- ---- --- -- ----------",238686.59999999963,238685.59999999963,238237.594,238251,238254.236,238704.068,,5,"it,"
screen,html.Screen,2_3_1_0_1_6,2022-05-12T21:19:23.467Z,,,,,,,,,,,,,,,,,51,,,,,,,,,,,,,,450.73199999981443,,response,,,,13,E,,,,,,Space,keypress(Space),,,,silence,,,,-------- -------- --- --- ---- --- but ------ -- --------<br>---- --------- --- ------- ------------ ---------- ---------<br>--- ---------- ------- ---------- ------- -- -------- ----<br>---- --- ------ ----- ------ -- ---- --- ----- -- - -------<br>-------- -- --- --- -- ----- ----------- ----- -----------<br>---- --- ---------- --- ---- --- -- ----------,239155.90000000037,239154.7999999998,238687.448,238686.90000000037,238704.068,239170.646,,6,but
screen,html.Screen,2_3_1_0_1_7,2022-05-12T21:19:24.044Z,,,,,,,,,,,,,,,,,51,,,,,,,,,,,,,,561.1539999998058,,response,,,,13,E,,,,,,Space,keypress(Space),,,,silence,,,,-------- -------- --- --- ---- --- --- debate -- --------<br>---- --------- --- ------- ------------ ---------- ---------<br>--- ---------- ------- ---------- ------- -- -------- ----<br>---- --- ------ ----- ------ -- ---- --- ----- -- - -------<br>-------- -- --- --- -- ----- ----------- ----- -----------<br>---- --- ---------- --- ---- --- -- ----------,239732.7999999998,239731.7999999998,239153.936,239156.2000000002,239170.646,239737.035,,7,debate
screen,html.Screen,2_3_1_0_1_8,2022-05-12T21:19:24.760Z,,,,,,,,,,,,,,,,,51,,,,,,,,,,,,,,710.564999999624,,response,,,,13,E,,,,,,Space,keypress(Space),,,,silence,,,,-------- -------- --- --- ---- --- --- ------ in --------<br>---- --------- --- ------- ------------ ---------- ---------<br>--- ---------- ------- ---------- ------- -- -------- ----<br>---- --- ------ ----- ------ -- ---- --- ----- -- - -------<br>-------- -- --- --- -- ----- ----------- ----- -----------<br>---- --- ---------- --- ---- --- -- ----------,240448.7000000002,240447.59999999963,239720.404,239733,239737.035,240453.49,,8,in
screen,html.Screen,2_3_1_0_1_9,2022-05-12T21:19:25.212Z,,,,,,,,,,,,,,,,,51,,,,,,,,,,,,,,446.41000000038184,,response,,,,13,E,,,,,,Space,keypress(Space),,,,silence,,,,-------- -------- --- --- ---- --- --- ------ -- Congress<br>---- --------- --- ------- ------------ ---------- ---------<br>--- ---------- ------- ---------- ------- -- -------- ----<br>---- --- ------ ----- ------ -- ---- --- ----- -- - -------<br>-------- -- --- --- -- ----- ----------- ----- -----------<br>---- --- ---------- --- ---- --- -- ----------,240901,240899.90000000037,240436.809,240449,240453.49,240903.369,,9,Congress
screen,html.Screen,2_3_1_0_1_10,2022-05-12T21:19:25.725Z,,,,,,,,,,,,,,,,,51,,,,,,,,,,,,,,509.4309999998077,,response,,,,13,E,,,,,,Space,keypress(Space),,,,silence,,,,-------- -------- --- --- ---- --- --- ------ -- --------<br>over --------- --- ------- ------------ ---------- ---------<br>--- ---------- ------- ---------- ------- -- -------- ----<br>---- --- ------ ----- ------ -- ---- --- ----- -- - -------<br>-------- -- --- --- -- ----- ----------- ----- -----------<br>---- --- ---------- --- ---- --- -- ----------,241413.90000000037,241412.7999999998,240886.746,240901.2000000002,240903.369,241419.879,,10,over
screen,html.Screen,2_3_1_0_1_11,2022-05-12T21:19:26.161Z,,,,,,,,,,,,,,,,,51,,,,,,,,,,,,,,429.12100000001374,,response,,,,13,E,,,,,,Space,keypress(Space),,,,silence,,,,-------- -------- --- --- ---- --- --- ------ -- --------<br>---- reforming --- ------- ------------ ---------- ---------<br>--- ---------- ------- ---------- ------- -- -------- ----<br>---- --- ------ ----- ------ -- ---- --- ----- -- - -------<br>-------- -- --- --- -- ----- ----------- ----- -----------<br>---- --- ---------- --- ---- --- -- ----------,241849.7000000002,241849,241403.178,241414,241419.879,241852.981,,11,reforming
screen,html.Screen,2_3_1_0_1_12,2022-05-12T21:19:26.585Z,,,,,,,,,,,,,,,,,51,,,,,,,,,,,,,,419.6189999996277,,response,,,,13,E,,,,,,Space,keypress(Space),,,,silence,,,,-------- -------- --- --- ---- --- --- ------ -- --------<br>---- --------- the ------- ------------ ---------- ---------<br>--- ---------- ------- ---------- ------- -- -------- ----<br>---- --- ------ ----- ------ -- ---- --- ----- -- - -------<br>-------- -- --- --- -- ----- ----------- ----- -----------<br>---- --- ---------- --- ---- --- -- ----------,242273.7000000002,242272.59999999963,241836.37,241849.7999999998,241852.981,242286.174,,12,the
screen,html.Screen,2_3_1_0_1_13,2022-05-12T21:19:27.043Z,,,,,,,,,,,,,,,,,51,,,,,,,,,,,,,,445.4259999996284,,response,,,,13,E,,,,,,Space,keypress(Space),,,,silence,,,,-------- -------- --- --- ---- --- --- ------ -- --------<br>---- --------- --- federal ------------ ---------- ---------<br>--- ---------- ------- ---------- ------- -- -------- ----<br>---- --- ------ ----- ------ -- ---- --- ----- -- - -------<br>-------- -- --- --- -- ----- ----------- ----- -----------<br>---- --- ---------- --- ---- --- -- ----------,242732.59999999963,242731.59999999963,242269.556,242273.90000000037,242286.174,242736.05,,13,federal
screen,html.Screen,2_3_1_0_1_14,2022-05-12T21:19:27.487Z,,,,,,,,,,,,,,,,,51,,,,,,,,,,,,,,438.95000000001164,,response,,,,13,E,,,,,,Space,keypress(Space),,,,silence,,,,-------- -------- --- --- ---- --- --- ------ -- --------<br>---- --------- --- ------- government's ---------- ---------<br>--- ---------- ------- ---------- ------- -- -------- ----<br>---- --- ------ ----- ------ -- ---- --- ----- -- - -------<br>-------- -- --- --- -- ----- ----------- ----- -----------<br>---- --- ---------- --- ---- --- -- ----------,243176,243175,242719.381,242732.7999999998,242736.05,243185.934,,14,government's
screen,html.Screen,2_3_1_0_1_15,2022-05-12T21:19:27.921Z,,,,,,,,,,,,,,,,,51,,,,,,,,,,,,,,423.96600000036415,,response,,,,13,E,,,,,,Space,keypress(Space),,,,silence,,,,-------- -------- --- --- ---- --- --- ------ -- --------<br>---- --------- --- ------- ------------ regulatory ---------<br>--- ---------- ------- ---------- ------- -- -------- ----<br>---- --- ------ ----- ------ -- ---- --- ----- -- - -------<br>-------- -- --- --- -- ----- ----------- ----- -----------<br>---- --- ---------- --- ---- --- -- ----------,243610.40000000037,243609.90000000037,243169.236,243176.2999999998,243185.934,243619.056,,15,regulatory
screen,html.Screen,2_3_1_0_1_16,2022-05-12T21:19:28.355Z,,,,,,,,,,,,,,,,,51,,,,,,,,,,,,,,424.04399999961606,,response,,,,13,E,,,,,,Space,keypress(Space),,,,silence,,,,-------- -------- --- --- ---- --- --- ------ -- --------<br>---- --------- --- ------- ------------ ---------- apparatus<br>--- ---------- ------- ---------- ------- -- -------- ----<br>---- --- ------ ----- ------ -- ---- --- ----- -- - -------<br>-------- -- --- --- -- ----- ----------- ----- -----------<br>---- --- ---------- --- ---- --- -- ----------,244044,244043.09999999963,243602.389,243610.5,243619.056,244052.399,,16,apparatus
screen,html.Screen,2_3_1_0_1_17,2022-05-12T21:19:28.821Z,,,,,,,,,,,,,,,,,51,,,,,,,,,,,,,,457.1009999999951,,response,,,,13,E,,,,,,Space,keypress(Space),,,,silence,,,,-------- -------- --- --- ---- --- --- ------ -- --------<br>---- --------- --- ------- ------------ ---------- ---------<br>may ---------- ------- ---------- ------- -- -------- ----<br>---- --- ------ ----- ------ -- ---- --- ----- -- - -------<br>-------- -- --- --- -- ----- ----------- ----- -----------<br>---- --- ---------- --- ---- --- -- ----------,244510.5,244509.5,244035.615,244044.2000000002,244052.399,244518.965,,17,may
screen,html.Screen,2_3_1_0_1_18,2022-05-12T21:19:29.250Z,,,,,,,,,,,,,,,,,51,,,,,,,,,,,,,,418.8349999998172,,response,,,,13,E,,,,,,Space,keypress(Space),,,,silence,,,,-------- -------- --- --- ---- --- --- ------ -- --------<br>---- --------- --- ------- ------------ ---------- ---------<br>--- profoundly ------- ---------- ------- -- -------- ----<br>---- --- ------ ----- ------ -- ---- --- ----- -- - -------<br>-------- -- --- --- -- ----- ----------- ----- -----------<br>---- --- ---------- --- ---- --- -- ----------,244938.90000000037,244937.7999999998,244502.168,244510.7000000002,244518.965,244951.966,,18,profoundly
screen,html.Screen,2_3_1_0_1_19,2022-05-12T21:19:29.706Z,,,,,,,,,,,,,,,,,51,,,,,,,,,,,,,,442.73400000020047,,response,,,,13,E,,,,,,Space,keypress(Space),,,,silence,,,,-------- -------- --- --- ---- --- --- ------ -- --------<br>---- --------- --- ------- ------------ ---------- ---------<br>--- ---------- improve ---------- ------- -- -------- ----<br>---- --- ------ ----- ------ -- ---- --- ----- -- - -------<br>-------- -- --- --- -- ----- ----------- ----- -----------<br>---- --- ---------- --- ---- --- -- ----------,245395.59999999963,245394.7000000002,244935.322,244939.09999999963,244951.966,245401.84,,19,improve
screen,html.Screen,2_3_1_0_1_20,2022-05-12T21:19:30.162Z,,,,,,,,,,,,,,,,,51,,,,,,,,,,,,,,449.1600000000035,,response,,,,13,E,,,,,,Space,keypress(Space),,,,silence,,,,-------- -------- --- --- ---- --- --- ------ -- --------<br>---- --------- --- ------- ------------ ---------- ---------<br>--- ---------- ------- companies' ------- -- -------- ----<br>---- --- ------ ----- ------ -- ---- --- ----- -- - -------<br>-------- -- --- --- -- ----- ----------- ----- -----------<br>---- --- ---------- --- ---- --- -- ----------,245851.90000000037,245851,245385.189,245395.90000000037,245401.84,245868.374,,20,companies'
screen,html.Screen,2_3_1_0_1_21,2022-05-12T21:19:30.573Z,,,,,,,,,,,,,,,,,51,,,,,,,,,,,,,,392.72599999961676,,response,,,,13,E,,,,,,Space,keypress(Space),,,,silence,,,,-------- -------- --- --- ---- --- --- ------ -- --------<br>---- --------- --- ------- ------------ ---------- ---------<br>--- ---------- ------- ---------- ability -- -------- ----<br>---- --- ------ ----- ------ -- ---- --- ----- -- - -------<br>-------- -- --- --- -- ----- ----------- ----- -----------<br>---- --- ---------- --- ---- --- -- ----------,246262.2000000002,246261.09999999963,245851.698,245852,245868.374,246268.167,,21,ability
screen,html.Screen,2_3_1_0_1_22,2022-05-12T21:19:31.071Z,,,,,,,,,,,,,,,,,51,,,,,,,,,,,,,,491.43299999964074,,response,,,,13,E,,,,,,Space,keypress(Space),,,,silence,,,,-------- -------- --- --- ---- --- --- ------ -- --------<br>---- --------- --- ------- ------------ ---------- ---------<br>--- ---------- ------- ---------- ------- to -------- ----<br>---- --- ------ ----- ------ -- ---- --- ----- -- - -------<br>-------- -- --- --- -- ----- ----------- ----- -----------<br>---- --- ---------- --- ---- --- -- ----------,246760.7000000002,246759.59999999963,246251.6,246262.40000000037,246268.167,246768.015,,22,to
screen,html.Screen,2_3_1_0_1_23,2022-05-12T21:19:31.511Z,,,,,,,,,,,,,,,,,51,,,,,,,,,,,,,,431.48499999998603,,response,,,,13,E,,,,,,Space,keypress(Space),,,,silence,,,,-------- -------- --- --- ---- --- --- ------ -- --------<br>---- --------- --- ------- ------------ ---------- ---------<br>--- ---------- ------- ---------- ------- -- survive. ----<br>---- --- ------ ----- ------ -- ---- --- ----- -- - -------<br>-------- -- --- --- -- ----- ----------- ----- -----------<br>---- --- ---------- --- ---- --- -- ----------,247200.5,247199.5,246751.372,246760.90000000037,246768.015,247217.91,,23,survive.
screen,html.Screen,2_3_1_0_1_24,2022-05-12T21:19:31.939Z,,,,,,,,,,,,,,,,,51,,,,,,,,,,,,,,409.689999999624,,response,,,,13,E,,,,,,Space,keypress(Space),,,,silence,,,,-------- -------- --- --- ---- --- --- ------ -- --------<br>---- --------- --- ------- ------------ ---------- ---------<br>--- ---------- ------- ---------- ------- -- -------- This<br>---- --- ------ ----- ------ -- ---- --- ----- -- - -------<br>-------- -- --- --- -- ----- ----------- ----- -----------<br>---- --- ---------- --- ---- --- -- ----------,247628.59999999963,247627.59999999963,247201.211,247200.7999999998,247217.91,247634.424,,24,This
screen,html.Screen,2_3_1_0_1_25,2022-05-12T21:19:32.413Z,,,,,,,,,,,,,,,,,51,,,,,,,,,,,,,,466.7760000001872,,response,,,,13,E,,,,,,Space,keypress(Space),,,,silence,,,,-------- -------- --- --- ---- --- --- ------ -- --------<br>---- --------- --- ------- ------------ ---------- ---------<br>--- ---------- ------- ---------- ------- -- -------- ----<br>week --- ------ ----- ------ -- ---- --- ----- -- - -------<br>-------- -- --- --- -- ----- ----------- ----- -----------<br>---- --- ---------- --- ---- --- -- ----------,248102.40000000037,248101.2000000002,247617.77,247628.7999999998,247634.424,248117.651,,25,week
screen,html.Screen,2_3_1_0_1_26,2022-05-12T21:19:32.828Z,,,,,,,,,,,,,,,,,51,,,,,,,,,,,,,,398.24900000035996,,response,,,,13,E,,,,,,Space,keypress(Space),,,,silence,,,,-------- -------- --- --- ---- --- --- ------ -- --------<br>---- --------- --- ------- ------------ ---------- ---------<br>--- ---------- ------- ---------- ------- -- -------- ----<br>---- the ------ ----- ------ -- ---- --- ----- -- - -------<br>-------- -- --- --- -- ----- ----------- ----- -----------<br>---- --- ---------- --- ---- --- -- ----------,248517,248515.90000000037,248101.036,248102.5,248117.651,248534.154,,26,the
screen,html.Screen,2_3_1_0_1_27,2022-05-12T21:19:33.284Z,,,,,,,,,,,,,,,,,51,,,,,,,,,,,,,,438.4459999996179,,response,,,,13,E,,,,,,Space,keypress(Space),,,,silence,,,,-------- -------- --- --- ---- --- --- ------ -- --------<br>---- --------- --- ------- ------------ ---------- ---------<br>--- ---------- ------- ---------- ------- -- -------- ----<br>---- --- Senate ----- ------ -- ---- --- ----- -- - -------<br>-------- -- --- --- -- ----- ----------- ----- -----------<br>---- --- ---------- --- ---- --- -- ----------,248973.59999999963,248972.59999999963,248517.466,248517.2999999998,248534.154,248983.96,,27,Senate
screen,html.Screen,2_3_1_0_1_28,2022-05-12T21:19:33.713Z,,,,,,,,,,,,,,,,,51,,,,,,,,,,,,,,417.6399999996356,,response,,,,13,E,,,,,,Space,keypress(Space),,,,silence,,,,-------- -------- --- --- ---- --- --- ------ -- --------<br>---- --------- --- ------- ------------ ---------- ---------<br>--- ---------- ------- ---------- ------- -- -------- ----<br>---- --- ------ seems ------ -- ---- --- ----- -- - -------<br>-------- -- --- --- -- ----- ----------- ----- -----------<br>---- --- ---------- --- ---- --- -- ----------,249402.7999999998,249401.59999999963,248967.3,248973.7999999998,248983.96,249417.186,,28,seems
screen,html.Screen,2_3_1_0_1_29,2022-05-12T21:19:34.140Z,,,,,,,,,,,,,,,,,51,,,,,,,,,,,,,,411.81400000001304,,response,,,,13,E,,,,,,Space,keypress(Space),,,,silence,,,,-------- -------- --- --- ---- --- --- ------ -- --------<br>---- --------- --- ------- ------------ ---------- ---------<br>--- ---------- ------- ---------- ------- -- -------- ----<br>---- --- ------ ----- poised -- ---- --- ----- -- - -------<br>-------- -- --- --- -- ----- ----------- ----- -----------<br>---- --- ---------- --- ---- --- -- ----------,249829.59999999963,249829,249400.456,249403,249417.186,249833.773,,29,poised
screen,html.Screen,2_3_1_0_1_30,2022-05-12T21:19:34.538Z,,,,,,,,,,,,,,,,,51,,,,,,,,,,,,,,392.42700000019977,,response,,,,13,E,,,,,,Space,keypress(Space),,,,silence,,,,-------- -------- --- --- ---- --- --- ------ -- --------<br>---- --------- --- ------- ------------ ---------- ---------<br>--- ---------- ------- ---------- ------- -- -------- ----<br>---- --- ------ ----- ------ to ---- --- ----- -- - -------<br>-------- -- --- --- -- ----- ----------- ----- -----------<br>---- --- ---------- --- ---- --- -- ----------,250227.40000000037,250226.2000000002,249817.014,249829.59999999963,249833.773,250233.51,,30,to
screen,html.Screen,2_3_1_0_1_31,2022-05-12T21:19:34.929Z,,,,,,,,,,,,,,,,,51,,,,,,,,,,,,,,383.8900000003632,,response,,,,13,E,,,,,,Space,keypress(Space),,,,silence,,,,-------- -------- --- --- ---- --- --- ------ -- --------<br>---- --------- --- ------- ------------ ---------- ---------<br>--- ---------- ------- ---------- ------- -- -------- ----<br>---- --- ------ ----- ------ -- join --- ----- -- - -------<br>-------- -- --- --- -- ----- ----------- ----- -----------<br>---- --- ---------- --- ---- --- -- ----------,250618.40000000037,250617.40000000037,250216.892,250227.59999999963,250233.51,250633.453,,31,join
screen,html.Screen,2_3_1_0_1_32,2022-05-12T21:19:35.285Z,,,,,,,,,,,,,,,,,51,,,,,,,,,,,,,,340.14699999961886,,response,,,,13,E,,,,,,Space,keypress(Space),,,,silence,,,,-------- -------- --- --- ---- --- --- ------ -- --------<br>---- --------- --- ------- ------------ ---------- ---------<br>--- ---------- ------- ---------- ------- -- -------- ----<br>---- --- ------ ----- ------ -- ---- the ----- -- - -------<br>-------- -- --- --- -- ----- ----------- ----- -----------<br>---- --- ---------- --- ---- --- -- ----------,250974.7999999998,250973.59999999963,250616.729,250618.7000000002,250633.453,250983.428,,32,the
screen,html.Screen,2_3_1_0_1_33,2022-05-12T21:19:35.688Z,,,,,,,,,,,,,,,,,51,,,,,,,,,,,,,,392.27200000017183,,response,,,,13,E,,,,,,Space,keypress(Space),,,,silence,,,,-------- -------- --- --- ---- --- --- ------ -- --------<br>---- --------- --- ------- ------------ ---------- ---------<br>--- ---------- ------- ---------- ------- -- -------- ----<br>---- --- ------ ----- ------ -- ---- --- House -- - -------<br>-------- -- --- --- -- ----- ----------- ----- -----------<br>---- --- ---------- --- ---- --- -- ----------,251376.90000000037,251375.7000000002,250966.627,250974.90000000037,250983.428,251383.116,,33,House
screen,html.Screen,2_3_1_0_1_34,2022-05-12T21:19:36.098Z,,,,,,,,,,,,,,,,,51,,,,,,,,,,,,,,403.5840000001772,,response,,,,13,E,,,,,,Space,keypress(Space),,,,silence,,,,-------- -------- --- --- ---- --- --- ------ -- --------<br>---- --------- --- ------- ------------ ---------- ---------<br>--- ---------- ------- ---------- ------- -- -------- ----<br>---- --- ------ ----- ------ -- ---- --- ----- in - -------<br>-------- -- --- --- -- ----- ----------- ----- -----------<br>---- --- ---------- --- ---- --- -- ----------,251787.7000000002,251786.7000000002,251366.461,251377.2000000002,251383.116,251799.752,,34,in
screen,html.Screen,2_3_1_0_1_35,2022-05-12T21:19:36.486Z,,,,,,,,,,,,,,,,,51,,,,,,,,,,,,,,374.9480000001786,,response,,,,13,E,,,,,,Space,keypress(Space),,,,silence,,,,-------- -------- --- --- ---- --- --- ------ -- --------<br>---- --------- --- ------- ------------ ---------- ---------<br>--- ---------- ------- ---------- ------- -- -------- ----<br>---- --- ------ ----- ------ -- ---- --- ----- -- a -------<br>-------- -- --- --- -- ----- ----------- ----- -----------<br>---- --- ---------- --- ---- --- -- ----------,252175.59999999963,252174.7000000002,251783.012,251788,251799.752,252182.951,,35,a
screen,html.Screen,2_3_1_0_1_36,2022-05-12T21:19:36.938Z,,,,,,,,,,,,,,,,,51,,,,,,,,,,,,,,443.04899999999907,,response,,,,13,E,,,,,,Space,keypress(Space),,,,silence,,,,-------- -------- --- --- ---- --- --- ------ -- --------<br>---- --------- --- ------- ------------ ---------- ---------<br>--- ---------- ------- ---------- ------- -- -------- ----<br>---- --- ------ ----- ------ -- ---- --- ----- -- - massive<br>-------- -- --- --- -- ----- ----------- ----- -----------<br>---- --- ---------- --- ---- --- -- ----------,252627,252626,252166.15,252175.7999999998,252182.951,252632.923,,36,massive
screen,html.Screen,2_3_1_0_1_37,2022-05-12T21:19:37.449Z,,,,,,,,,,,,,,,,,51,,,,,,,,,,,,,,504.2770000001765,,response,,,,13,E,,,,,,Space,keypress(Space),,,,silence,,,,-------- -------- --- --- ---- --- --- ------ -- --------<br>---- --------- --- ------- ------------ ---------- ---------<br>--- ---------- ------- ---------- ------- -- -------- ----<br>---- --- ------ ----- ------ -- ---- --- ----- -- - -------<br>overhaul -- --- --- -- ----- ----------- ----- -----------<br>---- --- ---------- --- ---- --- -- ----------,253138.2999999998,253137.2000000002,252616.064,252629,252632.923,253149.284,,37,overhaul
screen,html.Screen,2_3_1_0_1_38,2022-05-12T21:19:37.918Z,,,,,,,,,,,,,,,,,51,,,,,,,,,,,,,,457.31599999961327,,response,,,,13,E,,,,,,Space,keypress(Space),,,,silence,,,,-------- -------- --- --- ---- --- --- ------ -- --------<br>---- --------- --- ------- ------------ ---------- ---------<br>--- ---------- ------- ---------- ------- -- -------- ----<br>---- --- ------ ----- ------ -- ---- --- ----- -- - -------<br>-------- of --- --- -- ----- ----------- ----- -----------<br>---- --- ---------- --- ---- --- -- ----------,253607.59999999963,253606.59999999963,253132.601,253138.59999999963,253149.284,253615.757,,38,of
screen,html.Screen,2_3_1_0_1_39,2022-05-12T21:19:38.333Z,,,,,,,,,,,,,,,,,51,,,,,,,,,,,,,,405.84299999961513,,response,,,,13,E,,,,,,Space,keypress(Space),,,,silence,,,,-------- -------- --- --- ---- --- --- ------ -- --------<br>---- --------- --- ------- ------------ ---------- ---------<br>--- ---------- ------- ---------- ------- -- -------- ----<br>---- --- ------ ----- ------ -- ---- --- ----- -- - -------<br>-------- -- the --- -- ----- ----------- ----- -----------<br>---- --- ---------- --- ---- --- -- ----------,254022.5,254021.59999999963,253599.087,253607.7999999998,253615.757,254032.26,,39,the
