sender,sender_type,sender_id,timestamp,meta,,Blues,Classical,Country,Dance,Electronic,Folk,Gospel,Hip-Hop,Jazz,Latin,Musical/Film,New-age,Pop,Prolific_id,Provo_ID,R&B,Rap,Reggae,Religious,Rock,Soul,Swing,Traditional,age,artist_name,correct,correctResponse,distraction,duration,education,ended_on,familiarity,gender,headphone_check_performance,item,list,music_frequency,offensiveness,pleasantness,position_correct,preference,response,response_action,snippet_file,song_name,song_rating,sound,stimulus_1,stimulus_2,stimulus_3,text,time_commit,time_end,time_render,time_run,time_show,time_switch,url,word,word_ID
Prolific ID,html.Form,0,2022-04-25T14:20:59.713Z,"{""labjs_version"":""20.2.2"",""labjs_build"":{""flavor"":""production"",""commit"":""a25486e0c714a0ae2ce03ff94b7bb6896854dcfa""},""location"":""https://run.pavlovia.org/mvasilev/prolific3_music_a/"",""userAgent"":""Mozilla/5.0 (Windows NT 10.0; Win64; x64; rv:91.0) Gecko/20100101 Firefox/91.0"",""platform"":""Win32"",""language"":""en-GB"",""locale"":""en-GB"",""timeZone"":""Europe/London"",""timezoneOffset"":-60,""screen_width"":1366,""screen_height"":768,""scroll_width"":1366,""scroll_height"":567,""window_innerWidth"":1366,""window_innerHeight"":615,""devicePixelRatio"":1}",,,,,,,,,,,,,,,5d5a75c570a7c1000152623e,,,,,,,,,,,,,,,10221.900000000001,,form submission,,,,,,,,,,,,,,,,,,,,,30281,30280,20055.02,20055,20058.1,30276.12,{},,
Introduction,html.Screen,1_0,2022-04-25T14:21:09.103Z,,,,,,,,,,,,,,,,,,,,,,,,,,,,,,,9382.880000000001,,response,,,,,,,,,,,continue,click button,,,,,,,,,39671,39659,30255.54,30283,30276.12,39679.4,,,
Volume calibration,html.Screen,1_1,2022-04-25T14:21:55.347Z,,,,,,,,,,,,,,,,,,,,,,,,,,,,,,,46228.6,,response,,,,,,,,,,,continue,click button,,,,,,,,,85915,85908,39669.34,39672,39679.4,85913.26,,,
Task instructions,html.Screen,1_2,2022-04-25T14:22:33.212Z,,,,,,,,,,,,,,,,,,,,,,,,,,,,,,,37853.740000000005,,response,,,,,,,,,,,continue,click button,,,,,,,,,123781,123767,85910.86,85916,85913.26,123792.14,,,
Sounds,html.Screen,1_3_0_0,2022-04-25T14:22:37.454Z,,,,,,,,,,,,,,,,,,,,,,,,,,,,,,,4244.3399999999965,,timeout,,,,,,,,,1,,,,,,,,S,I,O,,128022,128019.82,123776.7,123782,123792.14,128036.48,,,
Judgement,html.Screen,1_3_0_1,2022-04-25T14:22:39.005Z,,,,,,,,,,,,,,,,,,,,,,,,,,,,true,1,,1527.520000000004,,response,,,,,,,,,1,,1,click #choice-1,,,,,S,I,O,,129573,129564,128019.82,128023,128036.48,129584.26,,,
Trial,flow.Sequence,1_3_0,2022-04-25T14:22:39.005Z,,,,,,,,,,,,,,,,,,,,,,,,,,,,,,,5771.860000000001,,completion,,,,,,,,,1,,,,,,,,S,I,O,,129574,129564,123776.7,123782,123792.14,129584.26,,,
Sounds,html.Screen,1_3_1_0,2022-04-25T14:22:43.245Z,,,,,,,,,,,,,,,,,,,,,,,,,,,,,,,4243.819999999992,,timeout,,,,,,,,,3,,,,,,,,I,O,S,,133813,133811.46,129571.78,129575,129584.26,133828.08,,,
Judgement,html.Screen,1_3_1_1,2022-04-25T14:22:44.301Z,,,,,,,,,,,,,,,,,,,,,,,,,,,,true,3,,1032.9200000000128,,response,,,,,,,,,3,,3,click #choice-3,,,,,I,O,S,,134870,134861,133811.46,133814,133828.08,134876.6,,,
Trial,flow.Sequence,1_3_1,2022-04-25T14:22:44.302Z,,,,,,,,,,,,,,,,,,,,,,,,,,,,,,,5276.740000000005,,completion,,,,,,,,,3,,,,,,,,I,O,S,,134871,134861,129571.78,129575,129584.26,134876.6,,,
Sounds,html.Screen,1_3_2_0,2022-04-25T14:22:48.539Z,,,,,,,,,,,,,,,,,,,,,,,,,,,,,,,4243.399999999994,,timeout,,,,,,,,,1,,,,,,,,S,O,I,,139107,139103.34,134868.94,134872,134876.6,139120,,,
Judgement,html.Screen,1_3_2_1,2022-04-25T14:22:49.519Z,,,,,,,,,,,,,,,,,,,,,,,,,,,,true,1,,960,,response,,,,,,,,,1,,1,click #choice-1,,,,,S,O,I,,140087,140080,139103.34,139107,139120,140102.4,,,
Trial,flow.Sequence,1_3_2,2022-04-25T14:22:49.519Z,,,,,,,,,,,,,,,,,,,,,,,,,,,,,,,5203.399999999994,,completion,,,,,,,,,1,,,,,,,,S,O,I,,140087,140080,134868.94,134872,134876.6,140102.4,,,
Sounds,html.Screen,1_3_3_0,2022-04-25T14:22:53.762Z,,,,,,,,,,,,,,,,,,,,,,,,,,,,,,,4243.920000000013,,timeout,,,,,,,,,2,,,,,,,,O,S,I,,144331,144329.66,140085.1,140088,140102.4,144346.32,,,
Judgement,html.Screen,1_3_3_1,2022-04-25T14:22:54.484Z,,,,,,,,,,,,,,,,,,,,,,,,,,,,true,2,,702.679999999993,,response,,,,,,,,,2,,2,click #choice-2,,,,,O,S,I,,145052,145049,144329.66,144331,144346.32,145062.16,,,
Trial,flow.Sequence,1_3_3,2022-04-25T14:22:54.484Z,,,,,,,,,,,,,,,,,,,,,,,,,,,,,,,4946.600000000006,,completion,,,,,,,,,2,,,,,,,,O,S,I,,145052,145049,140085.1,140087,140102.4,145062.16,,,
Sounds,html.Screen,1_3_4_0,2022-04-25T14:22:58.721Z,,,,,,,,,,,,,,,,,,,,,,,,,,,,,,,4243.799999999988,,timeout,,,,,,,,,2,,,,,,,,I,S,O,,149290,149289.3,145050.96,145052,145062.16,149305.96,,,
Judgement,html.Screen,1_3_4_1,2022-04-25T14:22:59.431Z,,,,,,,,,,,,,,,,,,,,,,,,,,,,true,2,,680.0400000000081,,response,,,,,,,,,2,,2,click #choice-2,,,,,I,S,O,,149999,149986,149289.3,149290,149305.96,150004.86,,,
Trial,flow.Sequence,1_3_4,2022-04-25T14:22:59.431Z,,,,,,,,,,,,,,,,,,,,,,,,,,,,,,,4923.8399999999965,,completion,,,,,,,,,2,,,,,,,,I,S,O,,149999,149986,145050.96,145052,145062.16,150004.86,,,
Sounds,html.Screen,1_3_5_0,2022-04-25T14:23:03.666Z,,,,,,,,,,,,,,,,,,,,,,,,,,,,,,,4244,,timeout,,,,,,,,,3,,,,,,,,O,I,S,,154234,154232.32,149998.24,150000,150004.86,154248.86,,,
Judgement,html.Screen,1_3_5_1,2022-04-25T14:23:04.459Z,,,,,,,,,,,,,,,,,,,,,,,,,,,,true,3,,768.140000000014,,response,,,,,,,,,3,,3,click #choice-3,,,,,O,I,S,,155027,155017,154232.32,154234,154248.86,155031.02,,,
Trial,flow.Sequence,1_3_5,2022-04-25T14:23:04.459Z,,,,,,,,,,,,,,,,,,,,,,,,,,,,,,,5012.140000000014,,completion,,,,,,,,,3,,,,,,,,O,I,S,,155027,155017,149998.24,150000,150004.86,155031.02,,,
Task,flow.Loop,1_3,2022-04-25T14:23:04.461Z,,,,,,,,,,,,,,,,,,,,,,,,,,,,,,,31224.86,,completion,,,1,,,,,,,,,,,,,,,,,,155029,155017,123776.7,123781,123792.14,155031.02,,,
Trap,html.Screen,1_4,2022-04-25T14:23:04.465Z,,,,,,,,,,,,,,,,,,,,,,,,,,,,,,,NaN,,skipped,,,,,,,,,,,,,,,,,,,,,155033,155017,,155033,,155031.02,,,
Thanks,html.Screen,1_5,2022-04-25T14:23:07.669Z,,,,,,,,,,,,,,,,,,,,,,,,,,,,,,,3189.9800000000105,,response,,,,,,,,,,,continue,click button,,,,,,,,,158237,158221,155025.74,155034,155031.02,161355.76,,,
Headphone screening,flow.Sequence,1,2022-04-25T14:23:07.669Z,,,,,,,,,,,,,,,,,,,,,,,,,,,,,,,127944.88,,completion,,,,,,,,,,,,,,,,,,,,,158237,158221,30255.54,30282,30276.12,161355.76,,,
Instructions,html.Page,2_0,2022-04-25T14:23:37.527Z,,,,,,,,,,,,,,,,,,,,,,,,,,,,,,,26739.23999999999,,form submission,,,,,,,,,,,,,,,,,,,,,188095,188095,161342.56,161335,161355.76,188100.3,,,
Holding screen,html.Screen,2_1_0_0,2022-04-25T14:23:47.520Z,,,,,,,,,,,,,,,,,,,,,,,,,,,,,,,10002.380000000005,,timeout,,,,,,,,,,,,,,,,,,,,,198088,198086.24,188091.38,188097,188100.3,198102.68,,,
screen,html.Screen,2_1_0_1_0,2022-04-25T14:23:48.477Z,,,,,,,,,,,,,,,,,53,,,,,,,,,,,,,,930.320000000007,,response,,,,99,,,,,,,Space,keypress(Space),,,,,,,,When -- ----- -- ------ - ------- --- ----------<br>------------- ------ ------ ---- ---- ------- ----- -- ----<br>-------- ------- -- ---------- --- - --- ----- ----- ----<br>---- --- --- ----- --- ---- ---- ------- ----- ---- -------<br>--- --- -- ----- -- --- ---- -- --- ---- -- ------ ------<br>--- ----- -- ----,199044,199033,198086.24,198089,198102.68,199045.88,,0,When
screen,html.Screen,2_1_0_1_1,2022-04-25T14:23:49.223Z,,,,,,,,,,,,,,,,,53,,,,,,,,,,,,,,737.1199999999953,,response,,,,99,,,,,,,Space,keypress(Space),,,,,,,,---- it ----- -- ------ - ------- --- ----------<br>------------- ------ ------ ---- ---- ------- ----- -- ----<br>-------- ------- -- ---------- --- - --- ----- ----- ----<br>---- --- --- ----- --- ---- ---- ------- ----- ---- -------<br>--- --- -- ----- -- --- ---- -- --- ---- -- ------ ------<br>--- ----- -- ----,199791,199783,199045.22,199045,199045.88,199800.36,,1,it
screen,html.Screen,2_1_0_1_2,2022-04-25T14:23:50.225Z,,,,,,,,,,,,,,,,,53,,,,,,,,,,,,,,982.640000000014,,response,,,,99,,,,,,,Space,keypress(Space),,,,,,,,---- -- comes -- ------ - ------- --- ----------<br>------------- ------ ------ ---- ---- ------- ----- -- ----<br>-------- ------- -- ---------- --- - --- ----- ----- ----<br>---- --- --- ----- --- ---- ---- ------- ----- ---- -------<br>--- --- -- ----- -- --- ---- -- --- ---- -- ------ ------<br>--- ----- -- ----,200793,200783,199792.92,199792,199800.36,200798.88,,2,comes
screen,html.Screen,2_1_0_1_3,2022-04-25T14:23:51.251Z,,,,,,,,,,,,,,,,,53,,,,,,,,,,,,,,1000.1199999999953,,response,,,,99,,,,,,,Space,keypress(Space),,,,,,,,---- -- ----- to ------ - ------- --- ----------<br>------------- ------ ------ ---- ---- ------- ----- -- ----<br>-------- ------- -- ---------- --- - --- ----- ----- ----<br>---- --- --- ----- --- ---- ---- ------- ----- ---- -------<br>--- --- -- ----- -- --- ---- -- --- ---- -- ------ ------<br>--- ----- -- ----,201820,201799,200794.04,200794,200798.88,201821.64,,3,to
screen,html.Screen,2_1_0_1_4,2022-04-25T14:23:51.772Z,,,,,,,,,,,,,,,,,53,,,,,,,,,,,,,,508.35999999998603,,response,,,,99,,,,,,,Space,keypress(Space),,,,,,,,---- -- ----- -- having - ------- --- ----------<br>------------- ------ ------ ---- ---- ------- ----- -- ----<br>-------- ------- -- ---------- --- - --- ----- ----- ----<br>---- --- --- ----- --- ---- ---- ------- ----- ---- -------<br>--- --- -- ----- -- --- ---- -- --- ---- -- ------ ------<br>--- ----- -- ----,202341,202330,201820.76,201821,201821.64,202342.22,,4,having
screen,html.Screen,2_1_0_1_5,2022-04-25T14:23:52.213Z,,,,,,,,,,,,,,,,,53,,,,,,,,,,,,,,424.77999999999884,,response,,,,99,,,,,,,Space,keypress(Space),,,,,,,,---- -- ----- -- ------ a ------- --- ----------<br>------------- ------ ------ ---- ---- ------- ----- -- ----<br>-------- ------- -- ---------- --- - --- ----- ----- ----<br>---- --- --- ----- --- ---- ---- ------- ----- ---- -------<br>--- --- -- ----- -- --- ---- -- --- ---- -- ------ ------<br>--- ----- -- ----,202780,202767,202341.5,202341,202342.22,202781.8,,5,a
screen,html.Screen,2_1_0_1_6,2022-04-25T14:23:52.819Z,,,,,,,,,,,,,,,,,53,,,,,,,,,,,,,,595.2000000000116,,response,,,,99,,,,,,,Space,keypress(Space),,,,,,,,---- -- ----- -- ------ - lasting --- ----------<br>------------- ------ ------ ---- ---- ------- ----- -- ----<br>-------- ------- -- ---------- --- - --- ----- ----- ----<br>---- --- --- ----- --- ---- ---- ------- ----- ---- -------<br>--- --- -- ----- -- --- ---- -- --- ---- -- ------ ------<br>--- ----- -- ----,203387,203377,202781.08,202781,202781.8,203389.02,,6,lasting
screen,html.Screen,2_1_0_1_7,2022-04-25T14:23:53.576Z,,,,,,,,,,,,,,,,,53,,,,,,,,,,,,,,737.9800000000105,,response,,,,99,,,,,,,Space,keypress(Space),,,,,,,,---- -- ----- -- ------ - ------- and ----------<br>------------- ------ ------ ---- ---- ------- ----- -- ----<br>-------- ------- -- ---------- --- - --- ----- ----- ----<br>---- --- --- ----- --- ---- ---- ------- ----- ---- -------<br>--- --- -- ----- -- --- ---- -- --- ---- -- ------ ------<br>--- ----- -- ----,204144,204127,203388.36,203388,203389.02,204144.9,,7,and
screen,html.Screen,2_1_0_1_8,2022-04-25T14:23:54.207Z,,,,,,,,,,,,,,,,,53,,,,,,,,,,,,,,622.1000000000058,,response,,,,99,,,,,,,Space,keypress(Space),,,,,,,,---- -- ----- -- ------ - ------- --- fulfilling<br>------------- ------ ------ ---- ---- ------- ----- -- ----<br>-------- ------- -- ---------- --- - --- ----- ----- ----<br>---- --- --- ----- --- ---- ---- ------- ----- ---- -------<br>--- --- -- ----- -- --- ---- -- --- ---- -- ------ ------<br>--- ----- -- ----,204776,204767,204144.22,204144,204144.9,204776.78,,8,fulfilling
screen,html.Screen,2_1_0_1_9,2022-04-25T14:23:55.242Z,,,,,,,,,,,,,,,,,53,,,,,,,,,,,,,,1006.2200000000012,,response,,,,99,,,,,,,Space,keypress(Space),,,,,,,,"---- -- ----- -- ------ - ------- --- ----------<br>relationship, ------ ------ ---- ---- ------- ----- -- ----<br>-------- ------- -- ---------- --- - --- ----- ----- ----<br>---- --- --- ----- --- ---- ---- ------- ----- ---- -------<br>--- --- -- ----- -- --- ---- -- --- ---- -- ------ ------<br>--- ----- -- ----",205811,205783,204776.02,204776,204776.78,205825.06,,9,"relationship,"
screen,html.Screen,2_1_0_1_10,2022-04-25T14:23:55.985Z,,,,,,,,,,,,,,,,,53,,,,,,,,,,,,,,706.9400000000023,,response,,,,99,,,,,,,Space,keypress(Space),,,,,,,,---- -- ----- -- ------ - ------- --- ----------<br>------------- common ------ ---- ---- ------- ----- -- ----<br>-------- ------- -- ---------- --- - --- ----- ----- ----<br>---- --- --- ----- --- ---- ---- ------- ----- ---- -------<br>--- --- -- ----- -- --- ---- -- --- ---- -- ------ ------<br>--- ----- -- ----,206553,206532,205812.94,205812,205825.06,206553.8,,10,common
screen,html.Screen,2_1_0_1_11,2022-04-25T14:23:56.584Z,,,,,,,,,,,,,,,,,53,,,,,,,,,,,,,,588.2000000000116,,response,,,,99,,,,,,,Space,keypress(Space),,,,,,,,---- -- ----- -- ------ - ------- --- ----------<br>------------- ------ wisdom ---- ---- ------- ----- -- ----<br>-------- ------- -- ---------- --- - --- ----- ----- ----<br>---- --- --- ----- --- ---- ---- ------- ----- ---- -------<br>--- --- -- ----- -- --- ---- -- --- ---- -- ------ ------<br>--- ----- -- ----,207152,207142,206553.26,206553,206553.8,207156.46,,11,wisdom
screen,html.Screen,2_1_0_1_12,2022-04-25T14:23:57.746Z,,,,,,,,,,,,,,,,,53,,,,,,,,,,,,,,1142.5400000000081,,response,,,,99,,,,,,,Space,keypress(Space),,,,,,,,---- -- ----- -- ------ - ------- --- ----------<br>------------- ------ ------ says ---- ------- ----- -- ----<br>-------- ------- -- ---------- --- - --- ----- ----- ----<br>---- --- --- ----- --- ---- ---- ------- ----- ---- -------<br>--- --- -- ----- -- --- ---- -- --- ---- -- ------ ------<br>--- ----- -- ----,208314,208299,207153.24,207153,207156.46,208315.28,,12,says
screen,html.Screen,2_1_0_1_13,2022-04-25T14:23:58.326Z,,,,,,,,,,,,,,,,,53,,,,,,,,,,,,,,561.7200000000012,,response,,,,99,,,,,,,Space,keypress(Space),,,,,,,,---- -- ----- -- ------ - ------- --- ----------<br>------------- ------ ------ ---- that ------- ----- -- ----<br>-------- ------- -- ---------- --- - --- ----- ----- ----<br>---- --- --- ----- --- ---- ---- ------- ----- ---- -------<br>--- --- -- ----- -- --- ---- -- --- ---- -- ------ ------<br>--- ----- -- ----,208894,208877,208314.56,208314,208315.28,208895.72,,13,that
screen,html.Screen,2_1_0_1_14,2022-04-25T14:23:58.879Z,,,,,,,,,,,,,,,,,53,,,,,,,,,,,,,,528.2799999999988,,response,,,,99,,,,,,,Space,keypress(Space),,,,,,,,---- -- ----- -- ------ - ------- --- ----------<br>------------- ------ ------ ---- ---- feeling ----- -- ----<br>-------- ------- -- ---------- --- - --- ----- ----- ----<br>---- --- --- ----- --- ---- ---- ------- ----- ---- -------<br>--- --- -- ----- -- --- ---- -- --- ---- -- ------ ------<br>--- ----- -- ----,209448,209424,208895.02,208895,208895.72,209453.22,,14,feeling
screen,html.Screen,2_1_0_1_15,2022-04-25T14:23:59.351Z,,,,,,,,,,,,,,,,,53,,,,,,,,,,,,,,454.77999999999884,,response,,,,99,,,,,,,Space,keypress(Space),,,,,,,,---- -- ----- -- ------ - ------- --- ----------<br>------------- ------ ------ ---- ---- ------- close -- ----<br>-------- ------- -- ---------- --- - --- ----- ----- ----<br>---- --- --- ----- --- ---- ---- ------- ----- ---- -------<br>--- --- -- ----- -- --- ---- -- --- ---- -- ------ ------<br>--- ----- -- ----,209920,209908,209449.82,209449,209453.22,209920.46,,15,close
screen,html.Screen,2_1_0_1_16,2022-04-25T14:23:59.766Z,,,,,,,,,,,,,,,,,53,,,,,,,,,,,,,,393.54000000000815,,response,,,,99,,,,,,,Space,keypress(Space),,,,,,,,---- -- ----- -- ------ - ------- --- ----------<br>------------- ------ ------ ---- ---- ------- ----- to ----<br>-------- ------- -- ---------- --- - --- ----- ----- ----<br>---- --- --- ----- --- ---- ---- ------- ----- ---- -------<br>--- --- -- ----- -- --- ---- -- --- ---- -- ------ ------<br>--- ----- -- ----,210334,210314,209920.08,209920,209920.46,210335.58,,16,to
screen,html.Screen,2_1_0_1_17,2022-04-25T14:24:00.247Z,,,,,,,,,,,,,,,,,53,,,,,,,,,,,,,,463.4200000000128,,response,,,,99,,,,,,,Space,keypress(Space),,,,,,,,---- -- ----- -- ------ - ------- --- ----------<br>------------- ------ ------ ---- ---- ------- ----- -- your<br>-------- ------- -- ---------- --- - --- ----- ----- ----<br>---- --- --- ----- --- ---- ---- ------- ----- ---- -------<br>--- --- -- ----- -- --- ---- -- --- ---- -- ------ ------<br>--- ----- -- ----,210815,210799,210334.88,210335,210335.58,210817.96,,17,your
screen,html.Screen,2_1_0_1_18,2022-04-25T14:24:00.885Z,,,,,,,,,,,,,,,,,53,,,,,,,,,,,,,,621.0400000000081,,response,,,,99,,,,,,,Space,keypress(Space),,,,,,,,---- -- ----- -- ------ - ------- --- ----------<br>------------- ------ ------ ---- ---- ------- ----- -- ----<br>romantic ------- -- ---------- --- - --- ----- ----- ----<br>---- --- --- ----- --- ---- ---- ------- ----- ---- -------<br>--- --- -- ----- -- --- ---- -- --- ---- -- ------ ------<br>--- ----- -- ----,211453,211439,210815.12,210815,210817.96,211454.5,,18,romantic
screen,html.Screen,2_1_0_1_19,2022-04-25T14:24:01.498Z,,,,,,,,,,,,,,,,,53,,,,,,,,,,,,,,594.5,,response,,,,99,,,,,,,Space,keypress(Space),,,,,,,,---- -- ----- -- ------ - ------- --- ----------<br>------------- ------ ------ ---- ---- ------- ----- -- ----<br>-------- partner -- ---------- --- - --- ----- ----- ----<br>---- --- --- ----- --- ---- ---- ------- ----- ---- -------<br>--- --- -- ----- -- --- ---- -- --- ---- -- ------ ------<br>--- ----- -- ----,212067,212049,211453.78,211453,211454.5,212068.64,,19,partner
screen,html.Screen,2_1_0_1_20,2022-04-25T14:24:02.033Z,,,,,,,,,,,,,,,,,53,,,,,,,,,,,,,,527.359999999986,,response,,,,99,,,,,,,Space,keypress(Space),,,,,,,,---- -- ----- -- ------ - ------- --- ----------<br>------------- ------ ------ ---- ---- ------- ----- -- ----<br>-------- ------- is ---------- --- - --- ----- ----- ----<br>---- --- --- ----- --- ---- ---- ------- ----- ---- -------<br>--- --- -- ----- -- --- ---- -- --- ---- -- ------ ------<br>--- ----- -- ----,212602,212596,212067.52,212067,212068.64,212603.08,,20,is
screen,html.Screen,2_1_0_1_21,2022-04-25T14:24:03.592Z,,,,,,,,,,,,,,,,,53,,,,,,,,,,,,,,1538.9200000000128,,response,,,,99,,,,,,,Space,keypress(Space),,,,,,,,---- -- ----- -- ------ - ------- --- ----------<br>------------- ------ ------ ---- ---- ------- ----- -- ----<br>-------- ------- -- paramount. --- - --- ----- ----- ----<br>---- --- --- ----- --- ---- ---- ------- ----- ---- -------<br>--- --- -- ----- -- --- ---- -- --- ---- -- ------ ------<br>--- ----- -- ----,214161,214142,212602.38,212603,212603.08,214163.14,,21,paramount.
screen,html.Screen,2_1_0_1_22,2022-04-25T14:24:04.063Z,,,,,,,,,,,,,,,,,53,,,,,,,,,,,,,,463.85999999998603,,response,,,,99,,,,,,,Space,keypress(Space),,,,,,,,---- -- ----- -- ------ - ------- --- ----------<br>------------- ------ ------ ---- ---- ------- ----- -- ----<br>-------- ------- -- ---------- But - --- ----- ----- ----<br>---- --- --- ----- --- ---- ---- ------- ----- ---- -------<br>--- --- -- ----- -- --- ---- -- --- ---- -- ------ ------<br>--- ----- -- ----,214631,214627,214161.2,214161,214163.14,214632.78,,22,But
screen,html.Screen,2_1_0_1_23,2022-04-25T14:24:04.503Z,,,,,,,,,,,,,,,,,53,,,,,,,,,,,,,,431.22000000000116,,response,,,,99,,,,,,,Space,keypress(Space),,,,,,,,---- -- ----- -- ------ - ------- --- ----------<br>------------- ------ ------ ---- ---- ------- ----- -- ----<br>-------- ------- -- ---------- --- a --- ----- ----- ----<br>---- --- --- ----- --- ---- ---- ------- ----- ---- -------<br>--- --- -- ----- -- --- ---- -- --- ---- -- ------ ------<br>--- ----- -- ----,215071,215064,214632.04,214632,214632.78,215072.84,,23,a
screen,html.Screen,2_1_0_1_24,2022-04-25T14:24:05.107Z,,,,,,,,,,,,,,,,,53,,,,,,,,,,,,,,585.1600000000035,,response,,,,99,,,,,,,Space,keypress(Space),,,,,,,,---- -- ----- -- ------ - ------- --- ----------<br>------------- ------ ------ ---- ---- ------- ----- -- ----<br>-------- ------- -- ---------- --- - new ----- ----- ----<br>---- --- --- ----- --- ---- ---- ------- ----- ---- -------<br>--- --- -- ----- -- --- ---- -- --- ---- -- ------ ------<br>--- ----- -- ----,215676,215658,215072.14,215072,215072.84,215676.88,,24,new
screen,html.Screen,2_1_0_1_25,2022-04-25T14:24:05.665Z,,,,,,,,,,,,,,,,,53,,,,,,,,,,,,,,544.1199999999953,,response,,,,99,,,,,,,Space,keypress(Space),,,,,,,,---- -- ----- -- ------ - ------- --- ----------<br>------------- ------ ------ ---- ---- ------- ----- -- ----<br>-------- ------- -- ---------- --- - --- study ----- ----<br>---- --- --- ----- --- ---- ---- ------- ----- ---- -------<br>--- --- -- ----- -- --- ---- -- --- ---- -- ------ ------<br>--- ----- -- ----,216234,216221,215675.86,215676,215676.88,216235.04,,25,study
screen,html.Screen,2_1_0_1_26,2022-04-25T14:24:06.154Z,,,,,,,,,,,,,,,,,53,,,,,,,,,,,,,,469.95999999999185,,response,,,,99,,,,,,,Space,keypress(Space),,,,,,,,---- -- ----- -- ------ - ------- --- ----------<br>------------- ------ ------ ---- ---- ------- ----- -- ----<br>-------- ------- -- ---------- --- - --- ----- finds ----<br>---- --- --- ----- --- ---- ---- ------- ----- ---- -------<br>--- --- -- ----- -- --- ---- -- --- ---- -- ------ ------<br>--- ----- -- ----,216722,216705,216234.28,216234,216235.04,216723.4,,26,finds
screen,html.Screen,2_1_0_1_27,2022-04-25T14:24:06.617Z,,,,,,,,,,,,,,,,,53,,,,,,,,,,,,,,450.6000000000058,,response,,,,99,,,,,,,Space,keypress(Space),,,,,,,,---- -- ----- -- ------ - ------- --- ----------<br>------------- ------ ------ ---- ---- ------- ----- -- ----<br>-------- ------- -- ---------- --- - --- ----- ----- that<br>---- --- --- ----- --- ---- ---- ------- ----- ---- -------<br>--- --- -- ----- -- --- ---- -- --- ---- -- ------ ------<br>--- ----- -- ----,217185,217174,216722.76,216723,216723.4,217186.36,,27,that
screen,html.Screen,2_1_0_1_28,2022-04-25T14:24:07.097Z,,,,,,,,,,,,,,,,,53,,,,,,,,,,,,,,455.64000000001397,,response,,,,99,,,,,,,Space,keypress(Space),,,,,,,,---- -- ----- -- ------ - ------- --- ----------<br>------------- ------ ------ ---- ---- ------- ----- -- ----<br>-------- ------- -- ---------- --- - --- ----- ----- ----<br>it's --- --- ----- --- ---- ---- ------- ----- ---- -------<br>--- --- -- ----- -- --- ---- -- --- ---- -- ------ ------<br>--- ----- -- ----,217665,217642,217185.66,217185,217186.36,217666.68,,28,it's
screen,html.Screen,2_1_0_1_29,2022-04-25T14:24:07.579Z,,,,,,,,,,,,,,,,,53,,,,,,,,,,,,,,460.320000000007,,response,,,,99,,,,,,,Space,keypress(Space),,,,,,,,---- -- ----- -- ------ - ------- --- ----------<br>------------- ------ ------ ---- ---- ------- ----- -- ----<br>-------- ------- -- ---------- --- - --- ----- ----- ----<br>---- not --- ----- --- ---- ---- ------- ----- ---- -------<br>--- --- -- ----- -- --- ---- -- --- ---- -- ------ ------<br>--- ----- -- ----,218147,218127,217665.9,217666,217666.68,218148.8,,29,not
screen,html.Screen,2_1_0_1_30,2022-04-25T14:24:08.056Z,,,,,,,,,,,,,,,,,53,,,,,,,,,,,,,,462.20000000001164,,response,,,,99,,,,,,,Space,keypress(Space),,,,,,,,---- -- ----- -- ------ - ------- --- ----------<br>------------- ------ ------ ---- ---- ------- ----- -- ----<br>-------- ------- -- ---------- --- - --- ----- ----- ----<br>---- --- how ----- --- ---- ---- ------- ----- ---- -------<br>--- --- -- ----- -- --- ---- -- --- ---- -- ------ ------<br>--- ----- -- ----,218623,218611,218147.36,218147,218148.8,218625,,30,how
screen,html.Screen,2_1_0_1_31,2022-04-25T14:24:08.588Z,,,,,,,,,,,,,,,,,53,,,,,,,,,,,,,,517,,response,,,,99,,,,,,,Space,keypress(Space),,,,,,,,---- -- ----- -- ------ - ------- --- ----------<br>------------- ------ ------ ---- ---- ------- ----- -- ----<br>-------- ------- -- ---------- --- - --- ----- ----- ----<br>---- --- --- close --- ---- ---- ------- ----- ---- -------<br>--- --- -- ----- -- --- ---- -- --- ---- -- ------ ------<br>--- ----- -- ----,219157,219142,218624.3,218624,218625,219159.08,,31,close
screen,html.Screen,2_1_0_1_32,2022-04-25T14:24:08.977Z,,,,,,,,,,,,,,,,,53,,,,,,,,,,,,,,373.9200000000128,,response,,,,99,,,,,,,Space,keypress(Space),,,,,,,,---- -- ----- -- ------ - ------- --- ----------<br>------------- ------ ------ ---- ---- ------- ----- -- ----<br>-------- ------- -- ---------- --- - --- ----- ----- ----<br>---- --- --- ----- you ---- ---- ------- ----- ---- -------<br>--- --- -- ----- -- --- ---- -- --- ---- -- ------ ------<br>--- ----- -- ----,219545,219533,219158.42,219158,219159.08,219546.42,,32,you
screen,html.Screen,2_1_0_1_33,2022-04-25T14:24:09.365Z,,,,,,,,,,,,,,,,,53,,,,,,,,,,,,,,377.5799999999872,,response,,,,99,,,,,,,Space,keypress(Space),,,,,,,,---- -- ----- -- ------ - ------- --- ----------<br>------------- ------ ------ ---- ---- ------- ----- -- ----<br>-------- ------- -- ---------- --- - --- ----- ----- ----<br>---- --- --- ----- --- feel ---- ------- ----- ---- -------<br>--- --- -- ----- -- --- ---- -- --- ---- -- ------ ------<br>--- ----- -- ----,219933,219924,219545.7,219545,219546.42,219934.32,,33,feel
screen,html.Screen,2_1_0_1_34,2022-04-25T14:24:10.248Z,,,,,,,,,,,,,,,,,53,,,,,,,,,,,,,,864.679999999993,,response,,,,99,,,,,,,Space,keypress(Space),,,,,,,,---- -- ----- -- ------ - ------- --- ----------<br>------------- ------ ------ ---- ---- ------- ----- -- ----<br>-------- ------- -- ---------- --- - --- ----- ----- ----<br>---- --- --- ----- --- ---- that ------- ----- ---- -------<br>--- --- -- ----- -- --- ---- -- --- ---- -- ------ ------<br>--- ----- -- ----,220816,220799,219933.56,219933,219934.32,220820.24,,34,that
screen,html.Screen,2_1_0_1_35,2022-04-25T14:24:11.034Z,,,,,,,,,,,,,,,,,53,,,,,,,,,,,,,,775.7600000000093,,response,,,,99,,,,,,,Space,keypress(Space),,,,,,,,---- -- ----- -- ------ - ------- --- ----------<br>------------- ------ ------ ---- ---- ------- ----- -- ----<br>-------- ------- -- ---------- --- - --- ----- ----- ----<br>---- --- --- ----- --- ---- ---- matters ----- ---- -------<br>--- --- -- ----- -- --- ---- -- --- ---- -- ------ ------<br>--- ----- -- ----,221603,221596,220816.22,220816,220820.24,221603.56,,35,matters
screen,html.Screen,2_1_0_1_36,2022-04-25T14:24:11.447Z,,,,,,,,,,,,,,,,,53,,,,,,,,,,,,,,398.4400000000023,,response,,,,99,,,,,,,Space,keypress(Space),,,,,,,,"---- -- ----- -- ------ - ------- --- ----------<br>------------- ------ ------ ---- ---- ------- ----- -- ----<br>-------- ------- -- ---------- --- - --- ----- ----- ----<br>---- --- --- ----- --- ---- ---- ------- most, ---- -------<br>--- --- -- ----- -- --- ---- -- --- ---- -- ------ ------<br>--- ----- -- ----",222015,222002,221602.84,221603,221603.56,222018.56,,36,"most,"
screen,html.Screen,2_1_0_1_37,2022-04-25T14:24:12.038Z,,,,,,,,,,,,,,,,,53,,,,,,,,,,,,,,577.4400000000023,,response,,,,99,,,,,,,Space,keypress(Space),,,,,,,,---- -- ----- -- ------ - ------- --- ----------<br>------------- ------ ------ ---- ---- ------- ----- -- ----<br>-------- ------- -- ---------- --- - --- ----- ----- ----<br>---- --- --- ----- --- ---- ---- ------- ----- it's -------<br>--- --- -- ----- -- --- ---- -- --- ---- -- ------ ------<br>--- ----- -- ----,222606,222596,222015.96,222016,222018.56,222607.7,,37,it's
screen,html.Screen,2_1_0_1_38,2022-04-25T14:24:12.554Z,,,,,,,,,,,,,,,,,53,,,,,,,,,,,,,,503.29999999998836,,response,,,,99,,,,,,,Space,keypress(Space),,,,,,,,---- -- ----- -- ------ - ------- --- ----------<br>------------- ------ ------ ---- ---- ------- ----- -- ----<br>-------- ------- -- ---------- --- - --- ----- ----- ----<br>---- --- --- ----- --- ---- ---- ------- ----- ---- whether<br>--- --- -- ----- -- --- ---- -- --- ---- -- ------ ------<br>--- ----- -- ----,223122,223111,222606.7,222607,222607.7,223123.66,,38,whether
screen,html.Screen,2_1_0_1_39,2022-04-25T14:24:12.929Z,,,,,,,,,,,,,,,,,53,,,,,,,,,,,,,,362.3399999999965,,response,,,,99,,,,,,,Space,keypress(Space),,,,,,,,---- -- ----- -- ------ - ------- --- ----------<br>------------- ------ ------ ---- ---- ------- ----- -- ----<br>-------- ------- -- ---------- --- - --- ----- ----- ----<br>---- --- --- ----- --- ---- ---- ------- ----- ---- -------<br>you --- -- ----- -- --- ---- -- --- ---- -- ------ ------<br>--- ----- -- ----,223498,223486,223122.96,223123,223123.66,223499.2,,39,you
screen,html.Screen,2_1_0_1_40,2022-04-25T14:24:13.331Z,,,,,,,,,,,,,,,,,53,,,,,,,,,,,,,,392.79999999998836,,response,,,,99,,,,,,,Space,keypress(Space),,,,,,,,---- -- ----- -- ------ - ------- --- ----------<br>------------- ------ ------ ---- ---- ------- ----- -- ----<br>-------- ------- -- ---------- --- - --- ----- ----- ----<br>---- --- --- ----- --- ---- ---- ------- ----- ---- -------<br>--- are -- ----- -- --- ---- -- --- ---- -- ------ ------<br>--- ----- -- ----,223900,223892,223498.5,223498,223499.2,223901.24,,40,are
screen,html.Screen,2_1_0_1_41,2022-04-25T14:24:13.912Z,,,,,,,,,,,,,,,,,53,,,,,,,,,,,,,,569.7600000000093,,response,,,,99,,,,,,,Space,keypress(Space),,,,,,,,---- -- ----- -- ------ - ------- --- ----------<br>------------- ------ ------ ---- ---- ------- ----- -- ----<br>-------- ------- -- ---------- --- - --- ----- ----- ----<br>---- --- --- ----- --- ---- ---- ------- ----- ---- -------<br>--- --- as ----- -- --- ---- -- --- ---- -- ------ ------<br>--- ----- -- ----,224480,224471,223900.48,223900,223901.24,224481.74,,41,as
screen,html.Screen,2_1_0_1_42,2022-04-25T14:24:14.489Z,,,,,,,,,,,,,,,,,53,,,,,,,,,,,,,,567.2600000000093,,response,,,,99,,,,,,,Space,keypress(Space),,,,,,,,---- -- ----- -- ------ - ------- --- ----------<br>------------- ------ ------ ---- ---- ------- ----- -- ----<br>-------- ------- -- ---------- --- - --- ----- ----- ----<br>---- --- --- ----- --- ---- ---- ------- ----- ---- -------<br>--- --- -- close -- --- ---- -- --- ---- -- ------ ------<br>--- ----- -- ----,225057,225049,224479.92,224480,224481.74,225058.98,,42,close
screen,html.Screen,2_1_0_1_43,2022-04-25T14:24:14.982Z,,,,,,,,,,,,,,,,,53,,,,,,,,,,,,,,474.0199999999895,,response,,,,99,,,,,,,Space,keypress(Space),,,,,,,,---- -- ----- -- ------ - ------- --- ----------<br>------------- ------ ------ ---- ---- ------- ----- -- ----<br>-------- ------- -- ---------- --- - --- ----- ----- ----<br>---- --- --- ----- --- ---- ---- ------- ----- ---- -------<br>--- --- -- ----- as --- ---- -- --- ---- -- ------ ------<br>--- ----- -- ----,225551,225533,225058.36,225058,225058.98,225551.74,,43,as
screen,html.Screen,2_1_0_1_44,2022-04-25T14:24:15.548Z,,,,,,,,,,,,,,,,,53,,,,,,,,,,,,,,544.2600000000093,,response,,,,99,,,,,,,Space,keypress(Space),,,,,,,,---- -- ----- -- ------ - ------- --- ----------<br>------------- ------ ------ ---- ---- ------- ----- -- ----<br>-------- ------- -- ---------- --- - --- ----- ----- ----<br>---- --- --- ----- --- ---- ---- ------- ----- ---- -------<br>--- --- -- ----- -- you ---- -- --- ---- -- ------ ------<br>--- ----- -- ----,226116,226096,225551.1,225551,225551.74,226148.58,,44,you
screen,html.Screen,2_1_0_1_45,2022-04-25T14:24:16.152Z,,,,,,,,,,,,,,,,,53,,,,,,,,,,,,,,556.4200000000128,,response,,,,99,,,,,,,Space,keypress(Space),,,,,,,,---- -- ----- -- ------ - ------- --- ----------<br>------------- ------ ------ ---- ---- ------- ----- -- ----<br>-------- ------- -- ---------- --- - --- ----- ----- ----<br>---- --- --- ----- --- ---- ---- ------- ----- ---- -------<br>--- --- -- ----- -- --- want -- --- ---- -- ------ ------<br>--- ----- -- ----,226721,226705,226116.52,226116,226148.58,226721.72,,45,want
screen,html.Screen,2_1_0_1_46,2022-04-25T14:24:16.499Z,,,,,,,,,,,,,,,,,53,,,,,,,,,,,,,,326.27999999999884,,response,,,,99,,,,,,,Space,keypress(Space),,,,,,,,---- -- ----- -- ------ - ------- --- ----------<br>------------- ------ ------ ---- ---- ------- ----- -- ----<br>-------- ------- -- ---------- --- - --- ----- ----- ----<br>---- --- --- ----- --- ---- ---- ------- ----- ---- -------<br>--- --- -- ----- -- --- ---- to --- ---- -- ------ ------<br>--- ----- -- ----,227067,227048,226721.08,226721,226721.72,227069.12,,46,to
screen,html.Screen,2_1_0_1_47,2022-04-25T14:24:16.857Z,,,,,,,,,,,,,,,,,53,,,,,,,,,,,,,,338.88000000000466,,response,,,,99,,,,,,,Space,keypress(Space),,,,,,,,"---- -- ----- -- ------ - ------- --- ----------<br>------------- ------ ------ ---- ---- ------- ----- -- ----<br>-------- ------- -- ---------- --- - --- ----- ----- ----<br>---- --- --- ----- --- ---- ---- ------- ----- ---- -------<br>--- --- -- ----- -- --- ---- -- be, ---- -- ------ ------<br>--- ----- -- ----",227425,227408,227068.5,227068,227069.12,227427.88,,47,"be,"
screen,html.Screen,2_1_0_1_48,2022-04-25T14:24:17.622Z,,,,,,,,,,,,,,,,,53,,,,,,,,,,,,,,746.1199999999953,,response,,,,99,,,,,,,Space,keypress(Space),,,,,,,,---- -- ----- -- ------ - ------- --- ----------<br>------------- ------ ------ ---- ---- ------- ----- -- ----<br>-------- ------- -- ---------- --- - --- ----- ----- ----<br>---- --- --- ----- --- ---- ---- ------- ----- ---- -------<br>--- --- -- ----- -- --- ---- -- --- even -- ------ ------<br>--- ----- -- ----,228190,228174,227425.9,227426,227427.88,228193.08,,48,even
screen,html.Screen,2_1_0_1_49,2022-04-25T14:24:18.444Z,,,,,,,,,,,,,,,,,53,,,,,,,,,,,,,,808.9200000000128,,response,,,,99,,,,,,,Space,keypress(Space),,,,,,,,---- -- ----- -- ------ - ------- --- ----------<br>------------- ------ ------ ---- ---- ------- ----- -- ----<br>-------- ------- -- ---------- --- - --- ----- ----- ----<br>---- --- --- ----- --- ---- ---- ------- ----- ---- -------<br>--- --- -- ----- -- --- ---- -- --- ---- if ------ ------<br>--- ----- -- ----,229013,229002,228191.04,228190,228193.08,229014.22,,49,if
screen,html.Screen,2_1_0_1_50,2022-04-25T14:24:18.944Z,,,,,,,,,,,,,,,,,53,,,,,,,,,,,,,,487.77999999999884,,response,,,,99,,,,,,,Space,keypress(Space),,,,,,,,---- -- ----- -- ------ - ------- --- ----------<br>------------- ------ ------ ---- ---- ------- ----- -- ----<br>-------- ------- -- ---------- --- - --- ----- ----- ----<br>---- --- --- ----- --- ---- ---- ------- ----- ---- -------<br>--- --- -- ----- -- --- ---- -- --- ---- -- that's ------<br>--- ----- -- ----,229512,229502,229013.5,229014,229014.22,229512.96,,50,that's
screen,html.Screen,2_1_0_1_51,2022-04-25T14:24:19.454Z,,,,,,,,,,,,,,,,,53,,,,,,,,,,,,,,504.04000000000815,,response,,,,99,,,,,,,Space,keypress(Space),,,,,,,,---- -- ----- -- ------ - ------- --- ----------<br>------------- ------ ------ ---- ---- ------- ----- -- ----<br>-------- ------- -- ---------- --- - --- ----- ----- ----<br>---- --- --- ----- --- ---- ---- ------- ----- ---- -------<br>--- --- -- ----- -- --- ---- -- --- ---- -- ------ really<br>--- ----- -- ----,230023,230017,229512.26,229512,229512.96,230024,,51,really
screen,html.Screen,2_1_0_1_52,2022-04-25T14:24:19.845Z,,,,,,,,,,,,,,,,,53,,,,,,,,,,,,,,368,,response,,,,99,,,,,,,Space,keypress(Space),,,,,,,,---- -- ----- -- ------ - ------- --- ----------<br>------------- ------ ------ ---- ---- ------- ----- -- ----<br>-------- ------- -- ---------- --- - --- ----- ----- ----<br>---- --- --- ----- --- ---- ---- ------- ----- ---- -------<br>--- --- -- ----- -- --- ---- -- --- ---- -- ------ ------<br>not ----- -- ----,230413,230392,230023.3,230023,230024,230415.32,,52,not
screen,html.Screen,2_1_0_1_53,2022-04-25T14:24:20.370Z,,,,,,,,,,,,,,,,,53,,,,,,,,,,,,,,508.679999999993,,response,,,,99,,,,,,,Space,keypress(Space),,,,,,,,---- -- ----- -- ------ - ------- --- ----------<br>------------- ------ ------ ---- ---- ------- ----- -- ----<br>-------- ------- -- ---------- --- - --- ----- ----- ----<br>---- --- --- ----- --- ---- ---- ------- ----- ---- -------<br>--- --- -- ----- -- --- ---- -- --- ---- -- ------ ------<br>--- close -- ----,230939,230924,230414.58,230415,230415.32,230940.22,,53,close
screen,html.Screen,2_1_0_1_54,2022-04-25T14:24:20.810Z,,,,,,,,,,,,,,,,,53,,,,,,,,,,,,,,420.77999999999884,,response,,,,99,,,,,,,Space,keypress(Space),,,,,,,,---- -- ----- -- ------ - ------- --- ----------<br>------------- ------ ------ ---- ---- ------- ----- -- ----<br>-------- ------- -- ---------- --- - --- ----- ----- ----<br>---- --- --- ----- --- ---- ---- ------- ----- ---- -------<br>--- --- -- ----- -- --- ---- -- --- ---- -- ------ ------<br>--- ----- at ----,231378,231361,230939.52,230939,230940.22,231380.06,,54,at
screen,html.Screen,2_1_0_1_55,2022-04-25T14:24:22.005Z,,,,,,,,,,,,,,,,,53,,,,,,,,,,,,,,1183.9400000000023,,response,,,,99,,,,,,,Space,keypress(Space),,,,,,,,---- -- ----- -- ------ - ------- --- ----------<br>------------- ------ ------ ---- ---- ------- ----- -- ----<br>-------- ------- -- ---------- --- - --- ----- ----- ----<br>---- --- --- ----- --- ---- ---- ------- ----- ---- -------<br>--- --- -- ----- -- --- ---- -- --- ---- -- ------ ------<br>--- ----- -- all.,232573,232564,231379.36,231380,231380.06,232574.96,,55,all.
Item 99,flow.Loop,2_1_0_1,2022-04-25T14:24:22.006Z,,,,,,,,,,,,,,,,,,,,,,,,,,,,,,,34461.32000000001,,completion,,,,,A,,,,,,,,,,,silence,,,,,232574,232564,198086.24,198089,198102.68,232574.96,,,
Question 1,html.Screen,2_1_0_2,2022-04-25T14:24:26.794Z,,,,,,,,,,,,,,,,,,,,,,,,,,,,true,FALSE,,4771.040000000008,,response,,,,99,A,,,,,,FALSE,click #choice-2,,,,silence,,,,,237362,237346,232574.08,232574,232574.96,237363.16,,,
Question 2,html.Screen,2_1_0_3,2022-04-25T14:24:31.293Z,,,,,,,,,,,,,,,,,,,,,,,,,,,,false,TRUE,,4482.8399999999965,,response,,,,99,A,,,,,,FALSE,click #choice-2,,,,silence,,,,,241862,241846,237361.18,237362,237363.16,241873.62,,,
Item 99,flow.Sequence,2_1_0,2022-04-25T14:24:31.295Z,,,,,,,,,,,,,,,,,,,,,,,,,,,,,,,53745.70000000001,,completion,,,,,,,,,,,,,,,,,,,,,241863,241846,188091.38,188097,188100.3,241873.62,,,
Holding screen,html.Screen,2_1_1_0,2022-04-25T14:24:41.292Z,,,,,,,,,,,,,,,,,,,,,,,,,,,,,,,10002.320000000007,,timeout,,,,,,,,,,,,,,,,,,,,,251860,251859.28,241861.46,241863,241873.62,251875.94,,,
screen,html.Screen,2_1_1_1_0,2022-04-25T14:24:42.095Z,,,,,,,,,,,,,,,,,54,,,,,,,,,,,,,,766.0599999999977,,response,,,,100,,,,,,,Space,keypress(Space),,,,,,,,At --- ---- --- ------ ----- ------- ---- -- --- ------- --<br>------- ---------- ------ -- ----- -- ----- -- ---- ------<br>--- ----- --- --- ------ -------- ----- --- ------ ----- --<br>----- ----- ---------- --- --- ------ ------ ---- -- ------<br>------- --- ------ ----- --- ---- ------- -- ---- --- --<br>------- ------,252663,252642,251859.28,251861,251875.94,252664.22,,0,At
screen,html.Screen,2_1_1_1_1,2022-04-25T14:24:42.636Z,,,,,,,,,,,,,,,,,54,,,,,,,,,,,,,,524.7799999999988,,response,,,,100,,,,,,,Space,keypress(Space),,,,,,,,-- the ---- --- ------ ----- ------- ---- -- --- ------- --<br>------- ---------- ------ -- ----- -- ----- -- ---- ------<br>--- ----- --- --- ------ -------- ----- --- ------ ----- --<br>----- ----- ---------- --- --- ------ ------ ---- -- ------<br>------- --- ------ ----- --- ---- ------- -- ---- --- --<br>------- ------,253204,253189,252663.5,252663,252664.22,253207.24,,1,the
screen,html.Screen,2_1_1_1_2,2022-04-25T14:24:43.172Z,,,,,,,,,,,,,,,,,54,,,,,,,,,,,,,,528.7600000000093,,response,,,,100,,,,,,,Space,keypress(Space),,,,,,,,-- --- time --- ------ ----- ------- ---- -- --- ------- --<br>------- ---------- ------ -- ----- -- ----- -- ---- ------<br>--- ----- --- --- ------ -------- ----- --- ------ ----- --<br>----- ----- ---------- --- --- ------ ------ ---- -- ------<br>------- --- ------ ----- --- ---- ------- -- ---- --- --<br>------- ------,253741,253736,253204.46,253204,253207.24,253742.12,,2,time
screen,html.Screen,2_1_1_1_3,2022-04-25T14:24:43.932Z,,,,,,,,,,,,,,,,,54,,,,,,,,,,,,,,743.8800000000047,,response,,,,100,,,,,,,Space,keypress(Space),,,,,,,,-- --- ---- the ------ ----- ------- ---- -- --- ------- --<br>------- ---------- ------ -- ----- -- ----- -- ---- ------<br>--- ----- --- --- ------ -------- ----- --- ------ ----- --<br>----- ----- ---------- --- --- ------ ------ ---- -- ------<br>------- --- ------ ----- --- ---- ------- -- ---- --- --<br>------- ------,254501,254486,253741.4,253742,253742.12,254501.44,,3,the
screen,html.Screen,2_1_1_1_4,2022-04-25T14:24:44.423Z,,,,,,,,,,,,,,,,,54,,,,,,,,,,,,,,484.5599999999977,,response,,,,100,,,,,,,Space,keypress(Space),,,,,,,,-- --- ---- --- French ----- ------- ---- -- --- ------- --<br>------- ---------- ------ -- ----- -- ----- -- ---- ------<br>--- ----- --- --- ------ -------- ----- --- ------ ----- --<br>----- ----- ---------- --- --- ------ ------ ---- -- ------<br>------- --- ------ ----- --- ---- ------- -- ---- --- --<br>------- ------,254991,254986,254500.74,254501,254501.44,254994.96,,4,French
screen,html.Screen,2_1_1_1_5,2022-04-25T14:24:44.865Z,,,,,,,,,,,,,,,,,54,,,,,,,,,,,,,,429.04000000000815,,response,,,,100,,,,,,,Space,keypress(Space),,,,,,,,-- --- ---- --- ------ crown ------- ---- -- --- ------- --<br>------- ---------- ------ -- ----- -- ----- -- ---- ------<br>--- ----- --- --- ------ -------- ----- --- ------ ----- --<br>----- ----- ---------- --- --- ------ ------ ---- -- ------<br>------- --- ------ ----- --- ---- ------- -- ---- --- --<br>------- ------,255434,255424,254994.22,254994,254994.96,255437.74,,5,crown
screen,html.Screen,2_1_1_1_6,2022-04-25T14:24:45.417Z,,,,,,,,,,,,,,,,,54,,,,,,,,,,,,,,533.2600000000093,,response,,,,100,,,,,,,Space,keypress(Space),,,,,,,,-- --- ---- --- ------ ----- secured ---- -- --- ------- --<br>------- ---------- ------ -- ----- -- ----- -- ---- ------<br>--- ----- --- --- ------ -------- ----- --- ------ ----- --<br>----- ----- ---------- --- --- ------ ------ ---- -- ------<br>------- --- ------ ----- --- ---- ------- -- ---- --- --<br>------- ------,255985,255971,255434.66,255435,255437.74,255986.42,,6,secured
screen,html.Screen,2_1_1_1_7,2022-04-25T14:24:45.932Z,,,,,,,,,,,,,,,,,54,,,,,,,,,,,,,,499.5799999999872,,response,,,,100,,,,,,,Space,keypress(Space),,,,,,,,-- --- ---- --- ------ ----- ------- much -- --- ------- --<br>------- ---------- ------ -- ----- -- ----- -- ---- ------<br>--- ----- --- --- ------ -------- ----- --- ------ ----- --<br>----- ----- ---------- --- --- ------ ------ ---- -- ------<br>------- --- ------ ----- --- ---- ------- -- ---- --- --<br>------- ------,256501,256486,255985.7,255985,255986.42,256502.24,,7,much
screen,html.Screen,2_1_1_1_8,2022-04-25T14:24:46.312Z,,,,,,,,,,,,,,,,,54,,,,,,,,,,,,,,358.7600000000093,,response,,,,100,,,,,,,Space,keypress(Space),,,,,,,,-- --- ---- --- ------ ----- ------- ---- of --- ------- --<br>------- ---------- ------ -- ----- -- ----- -- ---- ------<br>--- ----- --- --- ------ -------- ----- --- ------ ----- --<br>----- ----- ---------- --- --- ------ ------ ---- -- ------<br>------- --- ------ ----- --- ---- ------- -- ---- --- --<br>------- ------,256880,256861,256501.5,256502,256502.24,256881.6,,8,of
screen,html.Screen,2_1_1_1_9,2022-04-25T14:24:46.697Z,,,,,,,,,,,,,,,,,54,,,,,,,,,,,,,,370.3999999999942,,response,,,,100,,,,,,,Space,keypress(Space),,,,,,,,-- --- ---- --- ------ ----- ------- ---- -- its ------- --<br>------- ---------- ------ -- ----- -- ----- -- ---- ------<br>--- ----- --- --- ------ -------- ----- --- ------ ----- --<br>----- ----- ---------- --- --- ------ ------ ---- -- ------<br>------- --- ------ ----- --- ---- ------- -- ---- --- --<br>------- ------,257265,257252,256880.86,256881,256881.6,257268.14,,9,its
screen,html.Screen,2_1_1_1_10,2022-04-25T14:24:47.633Z,,,,,,,,,,,,,,,,,54,,,,,,,,,,,,,,920.859999999986,,response,,,,100,,,,,,,Space,keypress(Space),,,,,,,,-- --- ---- --- ------ ----- ------- ---- -- --- revenue --<br>------- ---------- ------ -- ----- -- ----- -- ---- ------<br>--- ----- --- --- ------ -------- ----- --- ------ ----- --<br>----- ----- ---------- --- --- ------ ------ ---- -- ------<br>------- --- ------ ----- --- ---- ------- -- ---- --- --<br>------- ------,258202,258189,257265.78,257265,257268.14,258202.98,,10,revenue
screen,html.Screen,2_1_1_1_11,2022-04-25T14:24:48.122Z,,,,,,,,,,,,,,,,,54,,,,,,,,,,,,,,471.0199999999895,,response,,,,100,,,,,,,Space,keypress(Space),,,,,,,,-- --- ---- --- ------ ----- ------- ---- -- --- ------- by<br>------- ---------- ------ -- ----- -- ----- -- ---- ------<br>--- ----- --- --- ------ -------- ----- --- ------ ----- --<br>----- ----- ---------- --- --- ------ ------ ---- -- ------<br>------- --- ------ ----- --- ---- ------- -- ---- --- --<br>------- ------,258690,258674,258202.32,258202,258202.98,258690.92,,11,by
screen,html.Screen,2_1_1_1_12,2022-04-25T14:24:48.746Z,,,,,,,,,,,,,,,,,54,,,,,,,,,,,,,,607.0799999999872,,response,,,,100,,,,,,,Space,keypress(Space),,,,,,,,-- --- ---- --- ------ ----- ------- ---- -- --- ------- --<br>issuing ---------- ------ -- ----- -- ----- -- ---- ------<br>--- ----- --- --- ------ -------- ----- --- ------ ----- --<br>----- ----- ---------- --- --- ------ ------ ---- -- ------<br>------- --- ------ ----- --- ---- ------- -- ---- --- --<br>------- ------,259314,259298,258690.2,258690,258690.92,259315.62,,12,issuing
screen,html.Screen,2_1_1_1_13,2022-04-25T14:24:49.331Z,,,,,,,,,,,,,,,,,54,,,,,,,,,,,,,,561.3800000000047,,response,,,,100,,,,,,,Space,keypress(Space),,,,,,,,-- --- ---- --- ------ ----- ------- ---- -- --- ------- --<br>------- government ------ -- ----- -- ----- -- ---- ------<br>--- ----- --- --- ------ -------- ----- --- ------ ----- --<br>----- ----- ---------- --- --- ------ ------ ---- -- ------<br>------- --- ------ ----- --- ---- ------- -- ---- --- --<br>------- ------,259899,259877,259314.92,259314,259315.62,259900.16,,13,government
screen,html.Screen,2_1_1_1_14,2022-04-25T14:24:51.327Z,,,,,,,,,,,,,,,,,54,,,,,,,,,,,,,,1976.8399999999965,,response,,,,100,,,,,,,Space,keypress(Space),,,,,,,,-- --- ---- --- ------ ----- ------- ---- -- --- ------- --<br>------- ---------- bonds. -- ----- -- ----- -- ---- ------<br>--- ----- --- --- ------ -------- ----- --- ------ ----- --<br>----- ----- ---------- --- --- ------ ------ ---- -- ------<br>------- --- ------ ----- --- ---- ------- -- ---- --- --<br>------- ------,261896,261877,259899.46,259899,259900.16,261896.8,,14,bonds.
screen,html.Screen,2_1_1_1_15,2022-04-25T14:24:52.090Z,,,,,,,,,,,,,,,,,54,,,,,,,,,,,,,,745.2000000000116,,response,,,,100,,,,,,,Space,keypress(Space),,,,,,,,-- --- ---- --- ------ ----- ------- ---- -- --- ------- --<br>------- ---------- ------ In ----- -- ----- -- ---- ------<br>--- ----- --- --- ------ -------- ----- --- ------ ----- --<br>----- ----- ---------- --- --- ------ ------ ---- -- ------<br>------- --- ------ ----- --- ---- ------- -- ---- --- --<br>------- ------,262658,262642,261896.1,261896,261896.8,262659.46,,15,In
screen,html.Screen,2_1_1_1_16,2022-04-25T14:24:52.973Z,,,,,,,,,,,,,,,,,54,,,,,,,,,,,,,,872.539999999979,,response,,,,100,,,,,,,Space,keypress(Space),,,,,,,,"-- --- ---- --- ------ ----- ------- ---- -- --- ------- --<br>------- ---------- ------ -- 1727, -- ----- -- ---- ------<br>--- ----- --- --- ------ -------- ----- --- ------ ----- --<br>----- ----- ---------- --- --- ------ ------ ---- -- ------<br>------- --- ------ ----- --- ---- ------- -- ---- --- --<br>------- ------",263541,263532,262658.76,262659,262659.46,263542.36,,16,"1727,"
screen,html.Screen,2_1_1_1_17,2022-04-25T14:24:53.621Z,,,,,,,,,,,,,,,,,54,,,,,,,,,,,,,,630.640000000014,,response,,,,100,,,,,,,Space,keypress(Space),,,,,,,,-- --- ---- --- ------ ----- ------- ---- -- --- ------- --<br>------- ---------- ------ -- ----- in ----- -- ---- ------<br>--- ----- --- --- ------ -------- ----- --- ------ ----- --<br>----- ----- ---------- --- --- ------ ------ ---- -- ------<br>------- --- ------ ----- --- ---- ------- -- ---- --- --<br>------- ------,264189,264173,263541.66,263541,263542.36,264208.32,,17,in
screen,html.Screen,2_1_1_1_18,2022-04-25T14:24:54.107Z,,,,,,,,,,,,,,,,,54,,,,,,,,,,,,,,449.679999999993,,response,,,,100,,,,,,,Space,keypress(Space),,,,,,,,-- --- ---- --- ------ ----- ------- ---- -- --- ------- --<br>------- ---------- ------ -- ----- -- order -- ---- ------<br>--- ----- --- --- ------ -------- ----- --- ------ ----- --<br>----- ----- ---------- --- --- ------ ------ ---- -- ------<br>------- --- ------ ----- --- ---- ------- -- ---- --- --<br>------- ------,264676,264658,264192.2,264189,264208.32,264676.86,,18,order
screen,html.Screen,2_1_1_1_19,2022-04-25T14:24:54.996Z,,,,,,,,,,,,,,,,,54,,,,,,,,,,,,,,872.140000000014,,response,,,,100,,,,,,,Space,keypress(Space),,,,,,,,-- --- ---- --- ------ ----- ------- ---- -- --- ------- --<br>------- ---------- ------ -- ----- -- ----- to ---- ------<br>--- ----- --- --- ------ -------- ----- --- ------ ----- --<br>----- ----- ---------- --- --- ------ ------ ---- -- ------<br>------- --- ------ ----- --- ---- ------- -- ---- --- --<br>------- ------,265565,265549,264676.1,264676,264676.86,265565.68,,19,to
screen,html.Screen,2_1_1_1_20,2022-04-25T14:24:55.562Z,,,,,,,,,,,,,,,,,54,,,,,,,,,,,,,,561.320000000007,,response,,,,100,,,,,,,Space,keypress(Space),,,,,,,,-- --- ---- --- ------ ----- ------- ---- -- --- ------- --<br>------- ---------- ------ -- ----- -- ----- -- save ------<br>--- ----- --- --- ------ -------- ----- --- ------ ----- --<br>----- ----- ---------- --- --- ------ ------ ---- -- ------<br>------- --- ------ ----- --- ---- ------- -- ---- --- --<br>------- ------,266131,266127,265564.98,265565,265565.68,266131.82,,20,save
screen,html.Screen,2_1_1_1_21,2022-04-25T14:24:55.993Z,,,,,,,,,,,,,,,,,54,,,,,,,,,,,,,,416.179999999993,,response,,,,100,,,,,,,Space,keypress(Space),,,,,,,,"-- --- ---- --- ------ ----- ------- ---- -- --- ------- --<br>------- ---------- ------ -- ----- -- ----- -- ---- money,<br>--- ----- --- --- ------ -------- ----- --- ------ ----- --<br>----- ----- ---------- --- --- ------ ------ ---- -- ------<br>------- --- ------ ----- --- ---- ------- -- ---- --- --<br>------- ------",266562,266548,266131.04,266131,266131.82,266562.8,,21,"money,"
screen,html.Screen,2_1_1_1_22,2022-04-25T14:24:56.753Z,,,,,,,,,,,,,,,,,54,,,,,,,,,,,,,,736.2000000000116,,response,,,,100,,,,,,,Space,keypress(Space),,,,,,,,-- --- ---- --- ------ ----- ------- ---- -- --- ------- --<br>------- ---------- ------ -- ----- -- ----- -- ---- ------<br>the ----- --- --- ------ -------- ----- --- ------ ----- --<br>----- ----- ---------- --- --- ------ ------ ---- -- ------<br>------- --- ------ ----- --- ---- ------- -- ---- --- --<br>------- ------,267321,267299,266562.36,266562,266562.8,267321.84,,22,the
screen,html.Screen,2_1_1_1_23,2022-04-25T14:24:57.476Z,,,,,,,,,,,,,,,,,54,,,,,,,,,,,,,,711.1599999999744,,response,,,,100,,,,,,,Space,keypress(Space),,,,,,,,-- --- ---- --- ------ ----- ------- ---- -- --- ------- --<br>------- ---------- ------ -- ----- -- ----- -- ---- ------<br>--- state --- --- ------ -------- ----- --- ------ ----- --<br>----- ----- ---------- --- --- ------ ------ ---- -- ------<br>------- --- ------ ----- --- ---- ------- -- ---- --- --<br>------- ------,268045,268033,267321.1,267321,267321.84,268045.98,,23,state
screen,html.Screen,2_1_1_1_24,2022-04-25T14:24:58.121Z,,,,,,,,,,,,,,,,,54,,,,,,,,,,,,,,628.0200000000186,,response,,,,100,,,,,,,Space,keypress(Space),,,,,,,,-- --- ---- --- ------ ----- ------- ---- -- --- ------- --<br>------- ---------- ------ -- ----- -- ----- -- ---- ------<br>--- ----- cut --- ------ -------- ----- --- ------ ----- --<br>----- ----- ---------- --- --- ------ ------ ---- -- ------<br>------- --- ------ ----- --- ---- ------- -- ---- --- --<br>------- ------,268690,268674,268045.28,268046,268045.98,268691.08,,24,cut
screen,html.Screen,2_1_1_1_25,2022-04-25T14:24:58.723Z,,,,,,,,,,,,,,,,,54,,,,,,,,,,,,,,591.9199999999837,,response,,,,100,,,,,,,Space,keypress(Space),,,,,,,,-- --- ---- --- ------ ----- ------- ---- -- --- ------- --<br>------- ---------- ------ -- ----- -- ----- -- ---- ------<br>--- ----- --- the ------ -------- ----- --- ------ ----- --<br>----- ----- ---------- --- --- ------ ------ ---- -- ------<br>------- --- ------ ----- --- ---- ------- -- ---- --- --<br>------- ------,269291,269283,268690.38,268691,268691.08,269292.38,,25,the
screen,html.Screen,2_1_1_1_26,2022-04-25T14:24:59.674Z,,,,,,,,,,,,,,,,,54,,,,,,,,,,,,,,943.6199999999953,,response,,,,100,,,,,,,Space,keypress(Space),,,,,,,,-- --- ---- --- ------ ----- ------- ---- -- --- ------- --<br>------- ---------- ------ -- ----- -- ----- -- ---- ------<br>--- ----- --- --- bonds' -------- ----- --- ------ ----- --<br>----- ----- ---------- --- --- ------ ------ ---- -- ------<br>------- --- ------ ----- --- ---- ------- -- ---- --- --<br>------- ------,270242,270236,269291.66,269291,269292.38,270242.8,,26,bonds'
screen,html.Screen,2_1_1_1_27,2022-04-25T14:25:00.234Z,,,,,,,,,,,,,,,,,54,,,,,,,,,,,,,,540.2000000000116,,response,,,,100,,,,,,,Space,keypress(Space),,,,,,,,-- --- ---- --- ------ ----- ------- ---- -- --- ------- --<br>------- ---------- ------ -- ----- -- ----- -- ---- ------<br>--- ----- --- --- ------ interest ----- --- ------ ----- --<br>----- ----- ---------- --- --- ------ ------ ---- -- ------<br>------- --- ------ ----- --- ---- ------- -- ---- --- --<br>------- ------,270803,270783,270242.1,270242,270242.8,270803.56,,27,interest
screen,html.Screen,2_1_1_1_28,2022-04-25T14:25:00.841Z,,,,,,,,,,,,,,,,,54,,,,,,,,,,,,,,588.4400000000023,,response,,,,100,,,,,,,Space,keypress(Space),,,,,,,,-- --- ---- --- ------ ----- ------- ---- -- --- ------- --<br>------- ---------- ------ -- ----- -- ----- -- ---- ------<br>--- ----- --- --- ------ -------- rate. --- ------ ----- --<br>----- ----- ---------- --- --- ------ ------ ---- -- ------<br>------- --- ------ ----- --- ---- ------- -- ---- --- --<br>------- ------,271410,271392,270802.86,270803,270803.56,271410.84,,28,rate.
screen,html.Screen,2_1_1_1_29,2022-04-25T14:25:01.975Z,,,,,,,,,,,,,,,,,54,,,,,,,,,,,,,,1122.1599999999744,,response,,,,100,,,,,,,Space,keypress(Space),,,,,,,,-- --- ---- --- ------ ----- ------- ---- -- --- ------- --<br>------- ---------- ------ -- ----- -- ----- -- ---- ------<br>--- ----- --- --- ------ -------- ----- The ------ ----- --<br>----- ----- ---------- --- --- ------ ------ ---- -- ------<br>------- --- ------ ----- --- ---- ------- -- ---- --- --<br>------- ------,272544,272533,271410.12,271410,271410.84,272546.28,,29,The
screen,html.Screen,2_1_1_1_30,2022-04-25T14:25:02.440Z,,,,,,,,,,,,,,,,,54,,,,,,,,,,,,,,455.71999999997206,,response,,,,100,,,,,,,Space,keypress(Space),,,,,,,,-- --- ---- --- ------ ----- ------- ---- -- --- ------- --<br>------- ---------- ------ -- ----- -- ----- -- ---- ------<br>--- ----- --- --- ------ -------- ----- --- market ----- --<br>----- ----- ---------- --- --- ------ ------ ---- -- ------<br>------- --- ------ ----- --- ---- ------- -- ---- --- --<br>------- ------,273009,273002,272544.02,272544,272546.28,273012.24,,30,market
screen,html.Screen,2_1_1_1_31,2022-04-25T14:25:02.943Z,,,,,,,,,,,,,,,,,54,,,,,,,,,,,,,,489.7600000000093,,response,,,,100,,,,,,,Space,keypress(Space),,,,,,,,-- --- ---- --- ------ ----- ------- ---- -- --- ------- --<br>------- ---------- ------ -- ----- -- ----- -- ---- ------<br>--- ----- --- --- ------ -------- ----- --- ------ value --<br>----- ----- ---------- --- --- ------ ------ ---- -- ------<br>------- --- ------ ----- --- ---- ------- -- ---- --- --<br>------- ------,273511,273502,273009.1,273009,273012.24,273528.1,,31,value
screen,html.Screen,2_1_1_1_32,2022-04-25T14:25:03.391Z,,,,,,,,,,,,,,,,,54,,,,,,,,,,,,,,410.9000000000233,,response,,,,100,,,,,,,Space,keypress(Space),,,,,,,,-- --- ---- --- ------ ----- ------- ---- -- --- ------- --<br>------- ---------- ------ -- ----- -- ----- -- ---- ------<br>--- ----- --- --- ------ -------- ----- --- ------ ----- of<br>----- ----- ---------- --- --- ------ ------ ---- -- ------<br>------- --- ------ ----- --- ---- ------- -- ---- --- --<br>------- ------,273958,273939,273512.28,273511,273528.1,273960.92,,32,of
screen,html.Screen,2_1_1_1_33,2022-04-25T14:25:03.876Z,,,,,,,,,,,,,,,,,54,,,,,,,,,,,,,,478.0800000000163,,response,,,,100,,,,,,,Space,keypress(Space),,,,,,,,-- --- ---- --- ------ ----- ------- ---- -- --- ------- --<br>------- ---------- ------ -- ----- -- ----- -- ---- ------<br>--- ----- --- --- ------ -------- ----- --- ------ ----- --<br>these ----- ---------- --- --- ------ ------ ---- -- ------<br>------- --- ------ ----- --- ---- ------- -- ---- --- --<br>------- ------,274444,274439,273958.92,273959,273960.92,274444.62,,33,these
screen,html.Screen,2_1_1_1_34,2022-04-25T14:25:04.363Z,,,,,,,,,,,,,,,,,54,,,,,,,,,,,,,,479.38000000000466,,response,,,,100,,,,,,,Space,keypress(Space),,,,,,,,-- --- ---- --- ------ ----- ------- ---- -- --- ------- --<br>------- ---------- ------ -- ----- -- ----- -- ---- ------<br>--- ----- --- --- ------ -------- ----- --- ------ ----- --<br>----- bonds ---------- --- --- ------ ------ ---- -- ------<br>------- --- ------ ----- --- ---- ------- -- ---- --- --<br>------- ------,274931,274924,274443.92,274444,274444.62,274931.92,,34,bonds
screen,html.Screen,2_1_1_1_35,2022-04-25T14:25:05.139Z,,,,,,,,,,,,,,,,,54,,,,,,,,,,,,,,756.0800000000163,,response,,,,100,,,,,,,Space,keypress(Space),,,,,,,,"-- --- ---- --- ------ ----- ------- ---- -- --- ------- --<br>------- ---------- ------ -- ----- -- ----- -- ---- ------<br>--- ----- --- --- ------ -------- ----- --- ------ ----- --<br>----- ----- plummeted, --- --- ------ ------ ---- -- ------<br>------- --- ------ ----- --- ---- ------- -- ---- --- --<br>------- ------",275707,275688,274931.16,274931,274931.92,275707.82,,35,"plummeted,"
screen,html.Screen,2_1_1_1_36,2022-04-25T14:25:05.653Z,,,,,,,,,,,,,,,,,54,,,,,,,,,,,,,,497.179999999993,,response,,,,100,,,,,,,Space,keypress(Space),,,,,,,,-- --- ---- --- ------ ----- ------- ---- -- --- ------- --<br>------- ---------- ------ -- ----- -- ----- -- ---- ------<br>--- ----- --- --- ------ -------- ----- --- ------ ----- --<br>----- ----- ---------- and --- ------ ------ ---- -- ------<br>------- --- ------ ----- --- ---- ------- -- ---- --- --<br>------- ------,276222,276205,275707.04,275707,275707.82,276224.3,,36,and
screen,html.Screen,2_1_1_1_37,2022-04-25T14:25:06.135Z,,,,,,,,,,,,,,,,,54,,,,,,,,,,,,,,463.70000000001164,,response,,,,100,,,,,,,Space,keypress(Space),,,,,,,,-- --- ---- --- ------ ----- ------- ---- -- --- ------- --<br>------- ---------- ------ -- ----- -- ----- -- ---- ------<br>--- ----- --- --- ------ -------- ----- --- ------ ----- --<br>----- ----- ---------- --- the ------ ------ ---- -- ------<br>------- --- ------ ----- --- ---- ------- -- ---- --- --<br>------- ------,276704,276688,276221.84,276222,276224.3,276706.96,,37,the
screen,html.Screen,2_1_1_1_38,2022-04-25T14:25:06.597Z,,,,,,,,,,,,,,,,,54,,,,,,,,,,,,,,451.03999999997905,,response,,,,100,,,,,,,Space,keypress(Space),,,,,,,,-- --- ---- --- ------ ----- ------- ---- -- --- ------- --<br>------- ---------- ------ -- ----- -- ----- -- ---- ------<br>--- ----- --- --- ------ -------- ----- --- ------ ----- --<br>----- ----- ---------- --- --- market ------ ---- -- ------<br>------- --- ------ ----- --- ---- ------- -- ---- --- --<br>------- ------,277166,277158,276703.84,276704,276706.96,277166.34,,38,market
screen,html.Screen,2_1_1_1_39,2022-04-25T14:25:07.075Z,,,,,,,,,,,,,,,,,54,,,,,,,,,,,,,,459.6599999999744,,response,,,,100,,,,,,,Space,keypress(Space),,,,,,,,-- --- ---- --- ------ ----- ------- ---- -- --- ------- --<br>------- ---------- ------ -- ----- -- ----- -- ---- ------<br>--- ----- --- --- ------ -------- ----- --- ------ ----- --<br>----- ----- ---------- --- --- ------ became ---- -- ------<br>------- --- ------ ----- --- ---- ------- -- ---- --- --<br>------- ------,277644,277626,277165.56,277166,277166.34,277644.8,,39,became
screen,html.Screen,2_1_1_1_40,2022-04-25T14:25:07.556Z,,,,,,,,,,,,,,,,,54,,,,,,,,,,,,,,466.20000000001164,,response,,,,100,,,,,,,Space,keypress(Space),,,,,,,,-- --- ---- --- ------ ----- ------- ---- -- --- ------- --<br>------- ---------- ------ -- ----- -- ----- -- ---- ------<br>--- ----- --- --- ------ -------- ----- --- ------ ----- --<br>----- ----- ---------- --- --- ------ ------ wary -- ------<br>------- --- ------ ----- --- ---- ------- -- ---- --- --<br>------- ------,278124,278111,277644.16,277644,277644.8,278125.94,,40,wary
screen,html.Screen,2_1_1_1_41,2022-04-25T14:25:08.227Z,,,,,,,,,,,,,,,,,54,,,,,,,,,,,,,,657.0599999999977,,response,,,,100,,,,,,,Space,keypress(Space),,,,,,,,-- --- ---- --- ------ ----- ------- ---- -- --- ------- --<br>------- ---------- ------ -- ----- -- ----- -- ---- ------<br>--- ----- --- --- ------ -------- ----- --- ------ ----- --<br>----- ----- ---------- --- --- ------ ------ ---- of ------<br>------- --- ------ ----- --- ---- ------- -- ---- --- --<br>------- ------,278796,278783,278125.18,278125,278125.94,278796.9,,41,of
screen,html.Screen,2_1_1_1_42,2022-04-25T14:25:08.742Z,,,,,,,,,,,,,,,,,54,,,,,,,,,,,,,,502.0999999999767,,response,,,,100,,,,,,,Space,keypress(Space),,,,,,,,-- --- ---- --- ------ ----- ------- ---- -- --- ------- --<br>------- ---------- ------ -- ----- -- ----- -- ---- ------<br>--- ----- --- --- ------ -------- ----- --- ------ ----- --<br>----- ----- ---------- --- --- ------ ------ ---- -- French<br>------- --- ------ ----- --- ---- ------- -- ---- --- --<br>------- ------,279311,279299,278796.26,278796,278796.9,279312.1,,42,French
screen,html.Screen,2_1_1_1_43,2022-04-25T14:25:10.010Z,,,,,,,,,,,,,,,,,54,,,,,,,,,,,,,,1251.9000000000233,,response,,,,100,,,,,,,Space,keypress(Space),,,,,,,,-- --- ---- --- ------ ----- ------- ---- -- --- ------- --<br>------- ---------- ------ -- ----- -- ----- -- ---- ------<br>--- ----- --- --- ------ -------- ----- --- ------ ----- --<br>----- ----- ---------- --- --- ------ ------ ---- -- ------<br>credit. --- ------ ----- --- ---- ------- -- ---- --- --<br>------- ------,280578,280564,279311.44,279311,279312.1,280579.64,,43,credit.
screen,html.Screen,2_1_1_1_44,2022-04-25T14:25:10.476Z,,,,,,,,,,,,,,,,,54,,,,,,,,,,,,,,452.35999999998603,,response,,,,100,,,,,,,Space,keypress(Space),,,,,,,,-- --- ---- --- ------ ----- ------- ---- -- --- ------- --<br>------- ---------- ------ -- ----- -- ----- -- ---- ------<br>--- ----- --- --- ------ -------- ----- --- ------ ----- --<br>----- ----- ---------- --- --- ------ ------ ---- -- ------<br>------- The ------ ----- --- ---- ------- -- ---- --- --<br>------- ------,281045,281032,280579,280579,280579.64,281045.58,,44,The
screen,html.Screen,2_1_1_1_45,2022-04-25T14:25:10.976Z,,,,,,,,,,,,,,,,,54,,,,,,,,,,,,,,487.4199999999837,,response,,,,100,,,,,,,Space,keypress(Space),,,,,,,,-- --- ---- --- ------ ----- ------- ---- -- --- ------- --<br>------- ---------- ------ -- ----- -- ----- -- ---- ------<br>--- ----- --- --- ------ -------- ----- --- ------ ----- --<br>----- ----- ---------- --- --- ------ ------ ---- -- ------<br>------- --- French ----- --- ---- ------- -- ---- --- --<br>------- ------,281545,281533,281044.94,281045,281045.58,281546.04,,45,French
screen,html.Screen,2_1_1_1_46,2022-04-25T14:25:11.484Z,,,,,,,,,,,,,,,,,54,,,,,,,,,,,,,,486.96000000002095,,response,,,,100,,,,,,,Space,keypress(Space),,,,,,,,-- --- ---- --- ------ ----- ------- ---- -- --- ------- --<br>------- ---------- ------ -- ----- -- ----- -- ---- ------<br>--- ----- --- --- ------ -------- ----- --- ------ ----- --<br>----- ----- ---------- --- --- ------ ------ ---- -- ------<br>------- --- ------ state --- ---- ------- -- ---- --- --<br>------- ------,282052,282033,281545.4,281545,281546.04,282066.12,,46,state
screen,html.Screen,2_1_1_1_47,2022-04-25T14:25:11.996Z,,,,,,,,,,,,,,,,,54,,,,,,,,,,,,,,482.88000000000466,,response,,,,100,,,,,,,Space,keypress(Space),,,,,,,,-- --- ---- --- ------ ----- ------- ---- -- --- ------- --<br>------- ---------- ------ -- ----- -- ----- -- ---- ------<br>--- ----- --- --- ------ -------- ----- --- ------ ----- --<br>----- ----- ---------- --- --- ------ ------ ---- -- ------<br>------- --- ------ ----- was ---- ------- -- ---- --- --<br>------- ------,282565,282549,282053.9,282053,282066.12,282565.4,,47,was
screen,html.Screen,2_1_1_1_48,2022-04-25T14:25:12.507Z,,,,,,,,,,,,,,,,,54,,,,,,,,,,,,,,498.5999999999767,,response,,,,100,,,,,,,Space,keypress(Space),,,,,,,,-- --- ---- --- ------ ----- ------- ---- -- --- ------- --<br>------- ---------- ------ -- ----- -- ----- -- ---- ------<br>--- ----- --- --- ------ -------- ----- --- ------ ----- --<br>----- ----- ---------- --- --- ------ ------ ---- -- ------<br>------- --- ------ ----- --- left ------- -- ---- --- --<br>------- ------,283076,283064,282564.7,282565,282565.4,283076.28,,48,left
screen,html.Screen,2_1_1_1_49,2022-04-25T14:25:12.993Z,,,,,,,,,,,,,,,,,54,,,,,,,,,,,,,,472.71999999997206,,response,,,,100,,,,,,,Space,keypress(Space),,,,,,,,-- --- ---- --- ------ ----- ------- ---- -- --- ------- --<br>------- ---------- ------ -- ----- -- ----- -- ---- ------<br>--- ----- --- --- ------ -------- ----- --- ------ ----- --<br>----- ----- ---------- --- --- ------ ------ ---- -- ------<br>------- --- ------ ----- --- ---- without -- ---- --- --<br>------- ------,283561,283549,283075.58,283076,283076.28,283563.8,,49,without
screen,html.Screen,2_1_1_1_50,2022-04-25T14:25:13.477Z,,,,,,,,,,,,,,,,,54,,,,,,,,,,,,,,468.20000000001164,,response,,,,100,,,,,,,Space,keypress(Space),,,,,,,,-- --- ---- --- ------ ----- ------- ---- -- --- ------- --<br>------- ---------- ------ -- ----- -- ----- -- ---- ------<br>--- ----- --- --- ------ -------- ----- --- ------ ----- --<br>----- ----- ---------- --- --- ------ ------ ---- -- ------<br>------- --- ------ ----- --- ---- ------- an ---- --- --<br>------- ------,284046,284032,283561.32,283562,283563.8,284046.64,,50,an
screen,html.Screen,2_1_1_1_51,2022-04-25T14:25:14.230Z,,,,,,,,,,,,,,,,,54,,,,,,,,,,,,,,736.359999999986,,response,,,,100,,,,,,,Space,keypress(Space),,,,,,,,-- --- ---- --- ------ ----- ------- ---- -- --- ------- --<br>------- ---------- ------ -- ----- -- ----- -- ---- ------<br>--- ----- --- --- ------ -------- ----- --- ------ ----- --<br>----- ----- ---------- --- --- ------ ------ ---- -- ------<br>------- --- ------ ----- --- ---- ------- -- easy --- --<br>------- ------,284798,284783,284046,284046,284046.64,284799.58,,51,easy
screen,html.Screen,2_1_1_1_52,2022-04-25T14:25:14.676Z,,,,,,,,,,,,,,,,,54,,,,,,,,,,,,,,436.4199999999837,,response,,,,100,,,,,,,Space,keypress(Space),,,,,,,,-- --- ---- --- ------ ----- ------- ---- -- --- ------- --<br>------- ---------- ------ -- ----- -- ----- -- ---- ------<br>--- ----- --- --- ------ -------- ----- --- ------ ----- --<br>----- ----- ---------- --- --- ------ ------ ---- -- ------<br>------- --- ------ ----- --- ---- ------- -- ---- way --<br>------- ------,285245,285236,284798.88,284798,284799.58,285245.44,,52,way
screen,html.Screen,2_1_1_1_53,2022-04-25T14:25:15.377Z,,,,,,,,,,,,,,,,,54,,,,,,,,,,,,,,678.5599999999977,,response,,,,100,,,,,,,Space,keypress(Space),,,,,,,,-- --- ---- --- ------ ----- ------- ---- -- --- ------- --<br>------- ---------- ------ -- ----- -- ----- -- ---- ------<br>--- ----- --- --- ------ -------- ----- --- ------ ----- --<br>----- ----- ---------- --- --- ------ ------ ---- -- ------<br>------- --- ------ ----- --- ---- ------- -- ---- --- of<br>------- ------,285945,285924,285244.7,285245,285245.44,285946.12,,53,of
screen,html.Screen,2_1_1_1_54,2022-04-25T14:25:15.886Z,,,,,,,,,,,,,,,,,54,,,,,,,,,,,,,,492.88000000000466,,response,,,,100,,,,,,,Space,keypress(Space),,,,,,,,-- --- ---- --- ------ ----- ------- ---- -- --- ------- --<br>------- ---------- ------ -- ----- -- ----- -- ---- ------<br>--- ----- --- --- ------ -------- ----- --- ------ ----- --<br>----- ----- ---------- --- --- ------ ------ ---- -- ------<br>------- --- ------ ----- --- ---- ------- -- ---- --- --<br>raising ------,286455,286439,285945.46,285945,285946.12,286455.72,,54,raising
screen,html.Screen,2_1_1_1_55,2022-04-25T14:25:16.500Z,,,,,,,,,,,,,,,,,54,,,,,,,,,,,,,,593.2800000000279,,response,,,,100,,,,,,,Space,keypress(Space),,,,,,,,-- --- ---- --- ------ ----- ------- ---- -- --- ------- --<br>------- ---------- ------ -- ----- -- ----- -- ---- ------<br>--- ----- --- --- ------ -------- ----- --- ------ ----- --<br>----- ----- ---------- --- --- ------ ------ ---- -- ------<br>------- --- ------ ----- --- ---- ------- -- ---- --- --<br>------- money.,287069,287049,286455.08,286455,286455.72,287070.34,,55,money.
Item 100,flow.Loop,2_1_1_1,2022-04-25T14:25:16.501Z,,,,,,,,,,,,,,,,,,,,,,,,,,,,,,,35173.06,,completion,,,,,A,,,,,,,,,,,silence,,,,,287070,287049,251859.28,251860,251875.94,287070.34,,,
Question 1,html.Screen,2_1_1_2,2022-04-25T14:25:19.492Z,,,,,,,,,,,,,,,,,,,,,,,,,,,,true,TRUE,,2977.6599999999744,,response,,,,100,A,,,,,,TRUE,click #choice-1,,,,silence,,,,,290060,290048,287069.6,287070,287070.34,290071.36,,,
Question 2,html.Screen,2_1_1_3,2022-04-25T14:25:23.051Z,,,,,,,,,,,,,,,,,,,,,,,,,,,,true,FALSE,,3524.640000000014,,response,,,,100,A,,,,,,FALSE,click #choice-2,,,,silence,,,,,293620,293596,290059.36,290060,290071.36,293632.68,,,
Item 100,flow.Sequence,2_1_1,2022-04-25T14:25:23.052Z,,,,,,,,,,,,,,,,,,,,,,,,,,,,,,,51722.380000000005,,completion,,,,,,,,,,,,,,,,,,,,,293620,293596,241861.46,241863,241873.62,293632.68,,,
End of Practice,html.Page,2_1_2,2022-04-25T14:25:27.561Z,,,,,,,,,,,,,,,,,,,,,,,,,,,,,,,4497.320000000007,,form submission,,,,,,,,,,,,,,,,,,,,,298130,298130,293618.54,293620,293632.68,298126.32,,,
Practice,flow.Sequence,2_1,2022-04-25T14:25:27.561Z,,,,,,,,,,,,,,,,,,,,,,,,,,,,,,,110029.70000000001,,completion,,,,,,,,,,,,,,,,,,,,,298130,298130,188091.38,188097,188100.3,298126.32,,,
Trap_instruction,html.Page,2_2_0,2022-04-25T14:25:33.387Z,,,,,,,,,,,,,,,,,,,,,,,,,,,,,,,5829.679999999993,,form submission,,,,,,,,,,,,,,,,,,,,,303956,303956,298125.4,298130,298126.32,303984.62,,,
trap_trial,html.Screen,2_2_1,2022-04-25T14:25:36.845Z,,,,,,,,,,,,,,,,,,,,,,,,,,,,true,1,,3423.3800000000047,,response,,,,,,,,,,,1,click #choice-1,,,,,,,,,307413,307408,303953.52,303956,303984.62,307413.02,,,
end of trap trial,html.Page,2_2_2,2022-04-25T14:25:38.954Z,,,,,,,,,,,,,,,,,,,,,,,,,,,,,,,2108.9799999999814,,form submission,,,,,,,,,,,,,,,,,,,,,309523,309522,307411.86,307414,307413.02,309526.68,,,
Trap 1,flow.Sequence,2_2,2022-04-25T14:25:38.954Z,,,,,,,,,,,,,,,,,,,,,,,,,,,,,,,11395.679999999993,,completion,,,,,,,,,,,,,,,,,,,,,309523,309522,298125.4,298130,298126.32,309526.68,,,
Standby,html.Page,2_3_0,2022-04-25T14:25:46.948Z,,,,,,,,,,,,,,,,,,,,,,,,,,,,,,,8005.200000000012,,timeout,,,,,,,,,,,,,,,,,,,,,317516,317515.2,309520.44,309523,309526.68,317531.88,,,
Holding screen,html.Screen,2_3_1_0_0,2022-04-25T14:25:53.955Z,,,,,,,,,,,,,,,,,,,,,,,,,,,,,,,7006.719999999972,,timeout,,,,,,,,,,,,,,,,,,,,,324523,324521.94,317515.2,317516,317531.88,324538.6,,,
screen,html.Screen,2_3_1_0_1_0,2022-04-25T14:25:55.036Z,,,,,,,,,,,,,,,,,40,,,,,,,,,,,,,,1056.4000000000233,,response,,,,9,A,,,,,,Space,keypress(Space),,,,silence,,,,Police -- ------- ---- ---- ---- - -------- ----- --- --<br>----- ----- ------ -- ---- -- --- - ---- -- - ----- -----<br>------ ---- ------ ---- - -------- ------- -- --- --------<br>-------- ----------- ---- ------ ---- ------ ---- --- ---<br>-------- --- -----,325605,325595,324521.94,324523,324538.6,325605.26,,0,Police
screen,html.Screen,2_3_1_0_1_1,2022-04-25T14:25:55.797Z,,,,,,,,,,,,,,,,,40,,,,,,,,,,,,,,739.7399999999907,,response,,,,9,A,,,,,,Space,keypress(Space),,,,silence,,,,------ in ------- ---- ---- ---- - -------- ----- --- --<br>----- ----- ------ -- ---- -- --- - ---- -- - ----- -----<br>------ ---- ------ ---- - -------- ------- -- --- --------<br>-------- ----------- ---- ------ ---- ------ ---- --- ---<br>-------- --- -----,326365,326345,325604.62,325605,325605.26,326369.24,,1,in
screen,html.Screen,2_3_1_0_1_2,2022-04-25T14:25:56.852Z,,,,,,,,,,,,,,,,,40,,,,,,,,,,,,,,1038.7600000000093,,response,,,,9,A,,,,,,Space,keypress(Space),,,,silence,,,,------ -- Georgia ---- ---- ---- - -------- ----- --- --<br>----- ----- ------ -- ---- -- --- - ---- -- - ----- -----<br>------ ---- ------ ---- - -------- ------- -- --- --------<br>-------- ----------- ---- ------ ---- ------ ---- --- ---<br>-------- --- -----,327421,327408,326366,326366,326369.24,327421.92,,2,Georgia
screen,html.Screen,2_3_1_0_1_3,2022-04-25T14:25:57.452Z,,,,,,,,,,,,,,,,,40,,,,,,,,,,,,,,595.0800000000163,,response,,,,9,A,,,,,,Space,keypress(Space),,,,silence,,,,------ -- ------- have ---- ---- - -------- ----- --- --<br>----- ----- ------ -- ---- -- --- - ---- -- - ----- -----<br>------ ---- ------ ---- - -------- ------- -- --- --------<br>-------- ----------- ---- ------ ---- ------ ---- --- ---<br>-------- --- -----,328022,328017,327421.22,327421,327421.92,328022.38,,3,have
screen,html.Screen,2_3_1_0_1_4,2022-04-25T14:25:58.047Z,,,,,,,,,,,,,,,,,40,,,,,,,,,,,,,,573.6199999999953,,response,,,,9,A,,,,,,Space,keypress(Space),,,,silence,,,,------ -- ------- ---- shut ---- - -------- ----- --- --<br>----- ----- ------ -- ---- -- --- - ---- -- - ----- -----<br>------ ---- ------ ---- - -------- ------- -- --- --------<br>-------- ----------- ---- ------ ---- ------ ---- --- ---<br>-------- --- -----,328616,328596,328021.68,328022,328022.38,328617.24,,4,shut
screen,html.Screen,2_3_1_0_1_5,2022-04-25T14:25:58.541Z,,,,,,,,,,,,,,,,,40,,,,,,,,,,,,,,478.7600000000093,,response,,,,9,A,,,,,,Space,keypress(Space),,,,silence,,,,------ -- ------- ---- ---- down - -------- ----- --- --<br>----- ----- ------ -- ---- -- --- - ---- -- - ----- -----<br>------ ---- ------ ---- - -------- ------- -- --- --------<br>-------- ----------- ---- ------ ---- ------ ---- --- ---<br>-------- --- -----,329109,329096,328616.4,328617,328617.24,329109.98,,5,down
screen,html.Screen,2_3_1_0_1_6,2022-04-25T14:25:58.901Z,,,,,,,,,,,,,,,,,40,,,,,,,,,,,,,,344.0200000000186,,response,,,,9,A,,,,,,Space,keypress(Space),,,,silence,,,,------ -- ------- ---- ---- ---- a -------- ----- --- --<br>----- ----- ------ -- ---- -- --- - ---- -- - ----- -----<br>------ ---- ------ ---- - -------- ------- -- --- --------<br>-------- ----------- ---- ------ ---- ------ ---- --- ---<br>-------- --- -----,329469,329454,329109.32,329109,329109.98,329470.12,,6,a
screen,html.Screen,2_3_1_0_1_7,2022-04-25T14:25:59.581Z,,,,,,,,,,,,,,,,,40,,,,,,,,,,,,,,656.8800000000047,,response,,,,9,A,,,,,,Space,keypress(Space),,,,silence,,,,------ -- ------- ---- ---- ---- - lemonade ----- --- --<br>----- ----- ------ -- ---- -- --- - ---- -- - ----- -----<br>------ ---- ------ ---- - -------- ------- -- --- --------<br>-------- ----------- ---- ------ ---- ------ ---- --- ---<br>-------- --- -----,330150,330127,329469.38,329469,329470.12,330151,,7,lemonade
screen,html.Screen,2_3_1_0_1_8,2022-04-25T14:26:00.074Z,,,,,,,,,,,,,,,,,40,,,,,,,,,,,,,,475,,response,,,,9,A,,,,,,Space,keypress(Space),,,,silence,,,,------ -- ------- ---- ---- ---- - -------- stand --- --<br>----- ----- ------ -- ---- -- --- - ---- -- - ----- -----<br>------ ---- ------ ---- - -------- ------- -- --- --------<br>-------- ----------- ---- ------ ---- ------ ---- --- ---<br>-------- --- -----,330642,330626,330150.22,330150,330151,330642.88,,8,stand
screen,html.Screen,2_3_1_0_1_9,2022-04-25T14:26:00.698Z,,,,,,,,,,,,,,,,,40,,,,,,,,,,,,,,609.1199999999953,,response,,,,9,A,,,,,,Space,keypress(Space),,,,silence,,,,------ -- ------- ---- ---- ---- - -------- ----- run --<br>----- ----- ------ -- ---- -- --- - ---- -- - ----- -----<br>------ ---- ------ ---- - -------- ------- -- --- --------<br>-------- ----------- ---- ------ ---- ------ ---- --- ---<br>-------- --- -----,331267,331252,330642.48,330643,330642.88,331267.96,,9,run
screen,html.Screen,2_3_1_0_1_10,2022-04-25T14:26:01.300Z,,,,,,,,,,,,,,,,,40,,,,,,,,,,,,,,578.039999999979,,response,,,,9,A,,,,,,Space,keypress(Space),,,,silence,,,,------ -- ------- ---- ---- ---- - -------- ----- --- by<br>----- ----- ------ -- ---- -- --- - ---- -- - ----- -----<br>------ ---- ------ ---- - -------- ------- -- --- --------<br>-------- ----------- ---- ------ ---- ------ ---- --- ---<br>-------- --- -----,331869,331846,331267.4,331267,331267.96,331869.92,,10,by
screen,html.Screen,2_3_1_0_1_11,2022-04-25T14:26:01.833Z,,,,,,,,,,,,,,,,,40,,,,,,,,,,,,,,522.0800000000163,,response,,,,9,A,,,,,,Space,keypress(Space),,,,silence,,,,------ -- ------- ---- ---- ---- - -------- ----- --- --<br>three ----- ------ -- ---- -- --- - ---- -- - ----- -----<br>------ ---- ------ ---- - -------- ------- -- --- --------<br>-------- ----------- ---- ------ ---- ------ ---- --- ---<br>-------- --- -----,332402,332392,331869.2,331869,331869.92,332402.38,,11,three
screen,html.Screen,2_3_1_0_1_12,2022-04-25T14:26:02.829Z,,,,,,,,,,,,,,,,,40,,,,,,,,,,,,,,973.6199999999953,,response,,,,9,A,,,,,,Space,keypress(Space),,,,silence,,,,------ -- ------- ---- ---- ---- - -------- ----- --- --<br>----- girls ------ -- ---- -- --- - ---- -- - ----- -----<br>------ ---- ------ ---- - -------- ------- -- --- --------<br>-------- ----------- ---- ------ ---- ------ ---- --- ---<br>-------- --- -----,333397,333376,332401.76,332402,332402.38,333398.42,,12,girls
screen,html.Screen,2_3_1_0_1_13,2022-04-25T14:26:03.804Z,,,,,,,,,,,,,,,,,40,,,,,,,,,,,,,,961.5800000000163,,response,,,,9,A,,,,,,Space,keypress(Space),,,,silence,,,,------ -- ------- ---- ---- ---- - -------- ----- --- --<br>----- ----- trying -- ---- -- --- - ---- -- - ----- -----<br>------ ---- ------ ---- - -------- ------- -- --- --------<br>-------- ----------- ---- ------ ---- ------ ---- --- ---<br>-------- --- -----,334372,334360,333397.28,333397,333398.42,334374.5,,13,trying
screen,html.Screen,2_3_1_0_1_14,2022-04-25T14:26:04.267Z,,,,,,,,,,,,,,,,,40,,,,,,,,,,,,,,439.5,,response,,,,9,A,,,,,,Space,keypress(Space),,,,silence,,,,------ -- ------- ---- ---- ---- - -------- ----- --- --<br>----- ----- ------ to ---- -- --- - ---- -- - ----- -----<br>------ ---- ------ ---- - -------- ------- -- --- --------<br>-------- ----------- ---- ------ ---- ------ ---- --- ---<br>-------- --- -----,334835,334814,334372.28,334372,334374.5,334836.8,,14,to
screen,html.Screen,2_3_1_0_1_15,2022-04-25T14:26:04.717Z,,,,,,,,,,,,,,,,,40,,,,,,,,,,,,,,430.20000000001164,,response,,,,9,A,,,,,,Space,keypress(Space),,,,silence,,,,------ -- ------- ---- ---- ---- - -------- ----- --- --<br>----- ----- ------ -- save -- --- - ---- -- - ----- -----<br>------ ---- ------ ---- - -------- ------- -- --- --------<br>-------- ----------- ---- ------ ---- ------ ---- --- ---<br>-------- --- -----,335286,335267,334836.08,334836,334836.8,335289.82,,15,save
screen,html.Screen,2_3_1_0_1_16,2022-04-25T14:26:05.141Z,,,,,,,,,,,,,,,,,40,,,,,,,,,,,,,,399.179999999993,,response,,,,9,A,,,,,,Space,keypress(Space),,,,silence,,,,------ -- ------- ---- ---- ---- - -------- ----- --- --<br>----- ----- ------ -- ---- up --- - ---- -- - ----- -----<br>------ ---- ------ ---- - -------- ------- -- --- --------<br>-------- ----------- ---- ------ ---- ------ ---- --- ---<br>-------- --- -----,335710,335689,335286.18,335286,335289.82,335710.5,,16,up
screen,html.Screen,2_3_1_0_1_17,2022-04-25T14:26:05.544Z,,,,,,,,,,,,,,,,,40,,,,,,,,,,,,,,385.5,,response,,,,9,A,,,,,,Space,keypress(Space),,,,silence,,,,------ -- ------- ---- ---- ---- - -------- ----- --- --<br>----- ----- ------ -- ---- -- for - ---- -- - ----- -----<br>------ ---- ------ ---- - -------- ------- -- --- --------<br>-------- ----------- ---- ------ ---- ------ ---- --- ---<br>-------- --- -----,336111,336096,335709.82,335710,335710.5,336112.62,,17,for
screen,html.Screen,2_3_1_0_1_18,2022-04-25T14:26:05.974Z,,,,,,,,,,,,,,,,,40,,,,,,,,,,,,,,420.38000000000466,,response,,,,9,A,,,,,,Space,keypress(Space),,,,silence,,,,------ -- ------- ---- ---- ---- - -------- ----- --- --<br>----- ----- ------ -- ---- -- --- a ---- -- - ----- -----<br>------ ---- ------ ---- - -------- ------- -- --- --------<br>-------- ----------- ---- ------ ---- ------ ---- --- ---<br>-------- --- -----,336541,336533,336111.9,336111,336112.62,336542.88,,18,a
screen,html.Screen,2_3_1_0_1_19,2022-04-25T14:26:06.401Z,,,,,,,,,,,,,,,,,40,,,,,,,,,,,,,,411.11999999999534,,response,,,,9,A,,,,,,Space,keypress(Space),,,,silence,,,,------ -- ------- ---- ---- ---- - -------- ----- --- --<br>----- ----- ------ -- ---- -- --- - trip -- - ----- -----<br>------ ---- ------ ---- - -------- ------- -- --- --------<br>-------- ----------- ---- ------ ---- ------ ---- --- ---<br>-------- --- -----,336969,336954,336542.16,336542,336542.88,336970.76,,19,trip
screen,html.Screen,2_3_1_0_1_20,2022-04-25T14:26:06.883Z,,,,,,,,,,,,,,,,,40,,,,,,,,,,,,,,468.2399999999907,,response,,,,9,A,,,,,,Space,keypress(Space),,,,silence,,,,------ -- ------- ---- ---- ---- - -------- ----- --- --<br>----- ----- ------ -- ---- -- --- - ---- to - ----- -----<br>------ ---- ------ ---- - -------- ------- -- --- --------<br>-------- ----------- ---- ------ ---- ------ ---- --- ---<br>-------- --- -----,337450,337439,336970.12,336970,336970.76,337453.46,,20,to
screen,html.Screen,2_3_1_0_1_21,2022-04-25T14:26:07.361Z,,,,,,,,,,,,,,,,,40,,,,,,,,,,,,,,454.53999999997905,,response,,,,9,A,,,,,,Space,keypress(Space),,,,silence,,,,------ -- ------- ---- ---- ---- - -------- ----- --- --<br>----- ----- ------ -- ---- -- --- - ---- -- a ----- -----<br>------ ---- ------ ---- - -------- ------- -- --- --------<br>-------- ----------- ---- ------ ---- ------ ---- --- ---<br>-------- --- -----,337929,337908,337451.1,337451,337453.46,337936.2,,21,a
screen,html.Screen,2_3_1_0_1_22,2022-04-25T14:26:07.868Z,,,,,,,,,,,,,,,,,40,,,,,,,,,,,,,,486.79999999998836,,response,,,,9,A,,,,,,Space,keypress(Space),,,,silence,,,,------ -- ------- ---- ---- ---- - -------- ----- --- --<br>----- ----- ------ -- ---- -- --- - ---- -- - water -----<br>------ ---- ------ ---- - -------- ------- -- --- --------<br>-------- ----------- ---- ------ ---- ------ ---- --- ---<br>-------- --- -----,338437,338423,337930.12,337929,337936.2,338438.86,,22,water
screen,html.Screen,2_3_1_0_1_23,2022-04-25T14:26:08.675Z,,,,,,,,,,,,,,,,,40,,,,,,,,,,,,,,797.140000000014,,response,,,,9,A,,,,,,Space,keypress(Space),,,,silence,,,,"------ -- ------- ---- ---- ---- - -------- ----- --- --<br>----- ----- ------ -- ---- -- --- - ---- -- - ----- park,<br>------ ---- ------ ---- - -------- ------- -- --- --------<br>-------- ----------- ---- ------ ---- ------ ---- --- ---<br>-------- --- -----",339243,339236,338438.2,338438,338438.86,339244.18,,23,"park,"
screen,html.Screen,2_3_1_0_1_24,2022-04-25T14:26:09.232Z,,,,,,,,,,,,,,,,,40,,,,,,,,,,,,,,538.820000000007,,response,,,,9,A,,,,,,Space,keypress(Space),,,,silence,,,,------ -- ------- ---- ---- ---- - -------- ----- --- --<br>----- ----- ------ -- ---- -- --- - ---- -- - ----- -----<br>saying ---- ------ ---- - -------- ------- -- --- --------<br>-------- ----------- ---- ------ ---- ------ ---- --- ---<br>-------- --- -----,339800,339783,339243.54,339244,339244.18,339802.12,,24,saying
screen,html.Screen,2_3_1_0_1_25,2022-04-25T14:26:09.627Z,,,,,,,,,,,,,,,,,40,,,,,,,,,,,,,,371.88000000000466,,response,,,,9,A,,,,,,Space,keypress(Space),,,,silence,,,,------ -- ------- ---- ---- ---- - -------- ----- --- --<br>----- ----- ------ -- ---- -- --- - ---- -- - ----- -----<br>------ they ------ ---- - -------- ------- -- --- --------<br>-------- ----------- ---- ------ ---- ------ ---- --- ---<br>-------- --- -----,340195,340174,339801.4,339801,339802.12,340199.44,,25,they
screen,html.Screen,2_3_1_0_1_26,2022-04-25T14:26:10.045Z,,,,,,,,,,,,,,,,,40,,,,,,,,,,,,,,396.5599999999977,,response,,,,9,A,,,,,,Space,keypress(Space),,,,silence,,,,------ -- ------- ---- ---- ---- - -------- ----- --- --<br>----- ----- ------ -- ---- -- --- - ---- -- - ----- -----<br>------ ---- didn't ---- - -------- ------- -- --- --------<br>-------- ----------- ---- ------ ---- ------ ---- --- ---<br>-------- --- -----,340614,340596,340195.72,340196,340199.44,340615.14,,26,didn't
screen,html.Screen,2_3_1_0_1_27,2022-04-25T14:26:10.488Z,,,,,,,,,,,,,,,,,40,,,,,,,,,,,,,,417.85999999998603,,response,,,,9,A,,,,,,Space,keypress(Space),,,,silence,,,,------ -- ------- ---- ---- ---- - -------- ----- --- --<br>----- ----- ------ -- ---- -- --- - ---- -- - ----- -----<br>------ ---- ------ have - -------- ------- -- --- --------<br>-------- ----------- ---- ------ ---- ------ ---- --- ---<br>-------- --- -----,341056,341033,340614.44,340614,340615.14,341058.6,,27,have
screen,html.Screen,2_3_1_0_1_28,2022-04-25T14:26:10.864Z,,,,,,,,,,,,,,,,,40,,,,,,,,,,,,,,365.4000000000233,,response,,,,9,A,,,,,,Space,keypress(Space),,,,silence,,,,------ -- ------- ---- ---- ---- - -------- ----- --- --<br>----- ----- ------ -- ---- -- --- - ---- -- - ----- -----<br>------ ---- ------ ---- a -------- ------- -- --- --------<br>-------- ----------- ---- ------ ---- ------ ---- --- ---<br>-------- --- -----,341433,341424,341057.46,341057,341058.6,341433.3,,28,a
screen,html.Screen,2_3_1_0_1_29,2022-04-25T14:26:11.334Z,,,,,,,,,,,,,,,,,40,,,,,,,,,,,,,,457.70000000001164,,response,,,,9,A,,,,,,Space,keypress(Space),,,,silence,,,,------ -- ------- ---- ---- ---- - -------- ----- --- --<br>----- ----- ------ -- ---- -- --- - ---- -- - ----- -----<br>------ ---- ------ ---- - business ------- -- --- --------<br>-------- ----------- ---- ------ ---- ------ ---- --- ---<br>-------- --- -----,341902,341891,341432.58,341433,341433.3,341903.14,,29,business
screen,html.Screen,2_3_1_0_1_30,2022-04-25T14:26:11.895Z,,,,,,,,,,,,,,,,,40,,,,,,,,,,,,,,551.859999999986,,response,,,,9,A,,,,,,Space,keypress(Space),,,,silence,,,,------ -- ------- ---- ---- ---- - -------- ----- --- --<br>----- ----- ------ -- ---- -- --- - ---- -- - ----- -----<br>------ ---- ------ ---- - -------- license -- --- --------<br>-------- ----------- ---- ------ ---- ------ ---- --- ---<br>-------- --- -----,342463,342455,341902.44,341903,341903.14,342463.94,,30,license
screen,html.Screen,2_3_1_0_1_31,2022-04-25T14:26:12.391Z,,,,,,,,,,,,,,,,,40,,,,,,,,,,,,,,475.0599999999977,,response,,,,9,A,,,,,,Space,keypress(Space),,,,silence,,,,------ -- ------- ---- ---- ---- - -------- ----- --- --<br>----- ----- ------ -- ---- -- --- - ---- -- - ----- -----<br>------ ---- ------ ---- - -------- ------- or --- --------<br>-------- ----------- ---- ------ ---- ------ ---- --- ---<br>-------- --- -----,342959,342939,342463.22,342463,342463.94,342962.16,,31,or
screen,html.Screen,2_3_1_0_1_32,2022-04-25T14:26:12.858Z,,,,,,,,,,,,,,,,,40,,,,,,,,,,,,,,445.8400000000256,,response,,,,9,A,,,,,,Space,keypress(Space),,,,silence,,,,------ -- ------- ---- ---- ---- - -------- ----- --- --<br>----- ----- ------ -- ---- -- --- - ---- -- - ----- -----<br>------ ---- ------ ---- - -------- ------- -- the --------<br>-------- ----------- ---- ------ ---- ------ ---- --- ---<br>-------- --- -----,343426,343408,342959.16,342960,342962.16,343427.76,,32,the
screen,html.Screen,2_3_1_0_1_33,2022-04-25T14:26:13.377Z,,,,,,,,,,,,,,,,,40,,,,,,,,,,,,,,511.2399999999907,,response,,,,9,A,,,,,,Space,keypress(Space),,,,silence,,,,------ -- ------- ---- ---- ---- - -------- ----- --- --<br>----- ----- ------ -- ---- -- --- - ---- -- - ----- -----<br>------ ---- ------ ---- - -------- ------- -- --- required<br>-------- ----------- ---- ------ ---- ------ ---- --- ---<br>-------- --- -----,343946,343939,343426.84,343427,343427.76,343947.66,,33,required
screen,html.Screen,2_3_1_0_1_34,2022-04-25T14:26:15.175Z,,,,,,,,,,,,,,,,,40,,,,,,,,,,,,,,1787.3400000000256,,response,,,,9,A,,,,,,Space,keypress(Space),,,,silence,,,,------ -- ------- ---- ---- ---- - -------- ----- --- --<br>----- ----- ------ -- ---- -- --- - ---- -- - ----- -----<br>------ ---- ------ ---- - -------- ------- -- --- --------<br>permits. ----------- ---- ------ ---- ------ ---- --- ---<br>-------- --- -----,345743,345735,343946.7,343947,343947.66,345744.4,,34,permits.
screen,html.Screen,2_3_1_0_1_35,2022-04-25T14:26:16.234Z,,,,,,,,,,,,,,,,,40,,,,,,,,,,,,,,1038.5999999999767,,response,,,,9,A,,,,,,Space,keypress(Space),,,,silence,,,,------ -- ------- ---- ---- ---- - -------- ----- --- --<br>----- ----- ------ -- ---- -- --- - ---- -- - ----- -----<br>------ ---- ------ ---- - -------- ------- -- --- --------<br>-------- Morningstar ---- ------ ---- ------ ---- --- ---<br>-------- --- -----,346802,346783,345743.66,345744,345744.4,346803.56,,35,Morningstar
screen,html.Screen,2_3_1_0_1_36,2022-04-25T14:26:16.970Z,,,,,,,,,,,,,,,,,40,,,,,,,,,,,,,,713.4400000000023,,response,,,,9,A,,,,,,Space,keypress(Space),,,,silence,,,,------ -- ------- ---- ---- ---- - -------- ----- --- --<br>----- ----- ------ -- ---- -- --- - ---- -- - ----- -----<br>------ ---- ------ ---- - -------- ------- -- --- --------<br>-------- ----------- says ------ ---- ------ ---- --- ---<br>-------- --- -----,347538,347517,346802.86,346803,346803.56,347539.44,,36,says
screen,html.Screen,2_3_1_0_1_37,2022-04-25T14:26:17.892Z,,,,,,,,,,,,,,,,,40,,,,,,,,,,,,,,915.5599999999977,,response,,,,9,A,,,,,,Space,keypress(Space),,,,silence,,,,------ -- ------- ---- ---- ---- - -------- ----- --- --<br>----- ----- ------ -- ---- -- --- - ---- -- - ----- -----<br>------ ---- ------ ---- - -------- ------- -- --- --------<br>-------- ----------- ---- police ---- ------ ---- --- ---<br>-------- --- -----,348460,348455,347538.7,347539,347539.44,348461.7,,37,police
screen,html.Screen,2_3_1_0_1_38,2022-04-25T14:26:18.495Z,,,,,,,,,,,,,,,,,40,,,,,,,,,,,,,,587.2999999999884,,response,,,,9,A,,,,,,Space,keypress(Space),,,,silence,,,,------ -- ------- ---- ---- ---- - -------- ----- --- --<br>----- ----- ------ -- ---- -- --- - ---- -- - ----- -----<br>------ ---- ------ ---- - -------- ------- -- --- --------<br>-------- ----------- ---- ------ also ------ ---- --- ---<br>-------- --- -----,349064,349049,348460.96,348461,348461.7,349064.52,,38,also
screen,html.Screen,2_3_1_0_1_39,2022-04-25T14:26:18.902Z,,,,,,,,,,,,,,,,,40,,,,,,,,,,,,,,390.4799999999814,,response,,,,9,A,,,,,,Space,keypress(Space),,,,silence,,,,------ -- ------- ---- ---- ---- - -------- ----- --- --<br>----- ----- ------ -- ---- -- --- - ---- -- - ----- -----<br>------ ---- ------ ---- - -------- ------- -- --- --------<br>-------- ----------- ---- ------ ---- didn't ---- --- ---<br>-------- --- -----,349471,349455,349063.82,349064,349064.52,349471.88,,39,didn't
screen,html.Screen,2_3_1_0_1_40,2022-04-25T14:26:19.326Z,,,,,,,,,,,,,,,,,40,,,,,,,,,,,,,,404.11999999999534,,response,,,,9,A,,,,,,Space,keypress(Space),,,,silence,,,,------ -- ------- ---- ---- ---- - -------- ----- --- --<br>----- ----- ------ -- ---- -- --- - ---- -- - ----- -----<br>------ ---- ------ ---- - -------- ------- -- --- --------<br>-------- ----------- ---- ------ ---- ------ know --- ---<br>-------- --- -----,349894,349876,349471.2,349472,349471.88,349895.68,,40,know
screen,html.Screen,2_3_1_0_1_41,2022-04-25T14:26:19.869Z,,,,,,,,,,,,,,,,,40,,,,,,,,,,,,,,527.320000000007,,response,,,,9,A,,,,,,Space,keypress(Space),,,,silence,,,,------ -- ------- ---- ---- ---- - -------- ----- --- --<br>----- ----- ------ -- ---- -- --- - ---- -- - ----- -----<br>------ ---- ------ ---- - -------- ------- -- --- --------<br>-------- ----------- ---- ------ ---- ------ ---- how ---<br>-------- --- -----,350437,350423,349894.92,349895,349895.68,350439.34,,41,how
screen,html.Screen,2_3_1_0_1_42,2022-04-25T14:26:20.341Z,,,,,,,,,,,,,,,,,40,,,,,,,,,,,,,,452.6599999999744,,response,,,,9,A,,,,,,Space,keypress(Space),,,,silence,,,,------ -- ------- ---- ---- ---- - -------- ----- --- --<br>----- ----- ------ -- ---- -- --- - ---- -- - ----- -----<br>------ ---- ------ ---- - -------- ------- -- --- --------<br>-------- ----------- ---- ------ ---- ------ ---- --- the<br>-------- --- -----,350909,350892,350438.66,350438,350439.34,350910.44,,42,the
screen,html.Screen,2_3_1_0_1_43,2022-04-25T14:26:20.931Z,,,,,,,,,,,,,,,,,40,,,,,,,,,,,,,,575.5599999999977,,response,,,,9,A,,,,,,Space,keypress(Space),,,,silence,,,,------ -- ------- ---- ---- ---- - -------- ----- --- --<br>----- ----- ------ -- ---- -- --- - ---- -- - ----- -----<br>------ ---- ------ ---- - -------- ------- -- --- --------<br>-------- ----------- ---- ------ ---- ------ ---- --- ---<br>lemonade --- -----,351499,351486,350909.76,350910,350910.44,351500.64,,43,lemonade
screen,html.Screen,2_3_1_0_1_44,2022-04-25T14:26:21.309Z,,,,,,,,,,,,,,,,,40,,,,,,,,,,,,,,359.35999999998603,,response,,,,9,A,,,,,,Space,keypress(Space),,,,silence,,,,------ -- ------- ---- ---- ---- - -------- ----- --- --<br>----- ----- ------ -- ---- -- --- - ---- -- - ----- -----<br>------ ---- ------ ---- - -------- ------- -- --- --------<br>-------- ----------- ---- ------ ---- ------ ---- --- ---<br>-------- was -----,351877,351860,351499.92,351500,351500.64,351877.74,,44,was
screen,html.Screen,2_3_1_0_1_45,2022-04-25T14:26:22.155Z,,,,,,,,,,,,,,,,,40,,,,,,,,,,,,,,827.2600000000093,,response,,,,9,A,,,,,,Space,keypress(Space),,,,silence,,,,------ -- ------- ---- ---- ---- - -------- ----- --- --<br>----- ----- ------ -- ---- -- --- - ---- -- - ----- -----<br>------ ---- ------ ---- - -------- ------- -- --- --------<br>-------- ----------- ---- ------ ---- ------ ---- --- ---<br>-------- --- made.,352724,352705,351876.88,351877,351877.74,352725.12,,45,made.
Item 9,flow.Loop,2_3_1_0_1,2022-04-25T14:26:22.156Z,,,,,,,,,,,,,,,,,,,,,,,,,,,,,,,28166.400000000023,,completion,,,,,,,,,,,,,,,,,,,,,352724,352705,324521.94,324523,324538.6,352725.12,,,
Question 1,html.Screen,2_3_1_0_2,2022-04-25T14:26:25.557Z,,,,,,,,,,,,,,,,,,,,,,,,,,,,true,FALSE,,3385.8800000000047,,response,,,,9,A,,,,,,FALSE,click #choice-2,,,,silence,,,,,356126,356111,352724.44,352724,352725.12,356126.66,,,
Question 2,html.Screen,2_3_1_0_3,2022-04-25T14:26:29.278Z,,,,,,,,,,,,,,,,,,,,,,,,,,,,true,FALSE,,3702.3400000000256,,response,,,,9,A,,,,,,FALSE,click #choice-2,,,,silence,,,,,359846,359829,356124.86,356126,356126.66,359854.64,,,
Item 9,flow.Sequence,2_3_1_0,2022-04-25T14:26:29.279Z,,,,,,,,,,,,,,,,,,,,,,,,,,,,,,,42297.119999999995,,completion,,,,,,,,,,,,,,,,,,,,,359846,359829,317515.2,317516,317531.88,359854.64,,,
Holding screen,html.Screen,2_3_1_1_0,2022-04-25T14:26:36.277Z,,,,,,,,,,,,,,,,,,,,,,,,,,,,,,,7006.760000000009,,timeout,,,,,,,,,,,,,,,,,,,,,366845,366844.72,359845.76,359847,359854.64,366861.4,,,
screen,html.Screen,2_3_1_1_1_0,2022-04-25T14:26:37.136Z,,,,,,,,,,,,,,,,,51,,,,,,,,,,,,,,826.5999999999767,,response,,,,13,A,,,,,,Space,keypress(Space),,,,silence,,,,American -------- --- --- ---- --- --- ------ -- --------<br>---- --------- --- ------- ------------ ---------- ---------<br>--- ---------- ------- ---------- ------- -- -------- ----<br>---- --- ------ ----- ------ -- ---- --- ----- -- - -------<br>-------- -- --- --- -- ----- ----------- ----- -----------<br>---- --- ---------- --- ---- --- -- ----------,367704,367688,366844.72,366846,366861.4,367705.12,,0,American
screen,html.Screen,2_3_1_1_1_1,2022-04-25T14:26:38.324Z,,,,,,,,,,,,,,,,,51,,,,,,,,,,,,,,1171.8800000000047,,response,,,,13,A,,,,,,Space,keypress(Space),,,,silence,,,,-------- industry --- --- ---- --- --- ------ -- --------<br>---- --------- --- ------- ------------ ---------- ---------<br>--- ---------- ------- ---------- ------- -- -------- ----<br>---- --- ------ ----- ------ -- ---- --- ----- -- - -------<br>-------- -- --- --- -- ----- ----------- ----- -----------<br>---- --- ---------- --- ---- --- -- ----------,368893,368877,367704.42,367704,367705.12,368893.58,,1,industry
screen,html.Screen,2_3_1_1_1_2,2022-04-25T14:26:39.018Z,,,,,,,,,,,,,,,,,51,,,,,,,,,,,,,,686.4199999999837,,response,,,,13,A,,,,,,Space,keypress(Space),,,,silence,,,,-------- -------- may --- ---- --- --- ------ -- --------<br>---- --------- --- ------- ------------ ---------- ---------<br>--- ---------- ------- ---------- ------- -- -------- ----<br>---- --- ------ ----- ------ -- ---- --- ----- -- - -------<br>-------- -- --- --- -- ----- ----------- ----- -----------<br>---- --- ---------- --- ---- --- -- ----------,369586,369580,368892.94,368893,368893.58,369590.8,,2,may
screen,html.Screen,2_3_1_1_1_3,2022-04-25T14:26:39.487Z,,,,,,,,,,,,,,,,,51,,,,,,,,,,,,,,457.20000000001164,,response,,,,13,A,,,,,,Space,keypress(Space),,,,silence,,,,-------- -------- --- not ---- --- --- ------ -- --------<br>---- --------- --- ------- ------------ ---------- ---------<br>--- ---------- ------- ---------- ------- -- -------- ----<br>---- --- ------ ----- ------ -- ---- --- ----- -- - -------<br>-------- -- --- --- -- ----- ----------- ----- -----------<br>---- --- ---------- --- ---- --- -- ----------,370055,370048,369586.42,369587,369590.8,370056.38,,3,not
screen,html.Screen,2_3_1_1_1_4,2022-04-25T14:26:40.250Z,,,,,,,,,,,,,,,,,51,,,,,,,,,,,,,,756.6199999999953,,response,,,,13,A,,,,,,Space,keypress(Space),,,,silence,,,,-------- -------- --- --- know --- --- ------ -- --------<br>---- --------- --- ------- ------------ ---------- ---------<br>--- ---------- ------- ---------- ------- -- -------- ----<br>---- --- ------ ----- ------ -- ---- --- ----- -- - -------<br>-------- -- --- --- -- ----- ----------- ----- -----------<br>---- --- ---------- --- ---- --- -- ----------,370818,370813,370055.66,370056,370056.38,370822.36,,4,know
screen,html.Screen,2_3_1_1_1_5,2022-04-25T14:26:41.121Z,,,,,,,,,,,,,,,,,51,,,,,,,,,,,,,,851.640000000014,,response,,,,13,A,,,,,,Space,keypress(Space),,,,silence,,,,"-------- -------- --- --- ---- it, --- ------ -- --------<br>---- --------- --- ------- ------------ ---------- ---------<br>--- ---------- ------- ---------- ------- -- -------- ----<br>---- --- ------ ----- ------ -- ---- --- ----- -- - -------<br>-------- -- --- --- -- ----- ----------- ----- -----------<br>---- --- ---------- --- ---- --- -- ----------",371689,371674,370818.56,370818,370822.36,371689.96,,5,"it,"
screen,html.Screen,2_3_1_1_1_6,2022-04-25T14:26:41.671Z,,,,,,,,,,,,,,,,,51,,,,,,,,,,,,,,546.039999999979,,response,,,,13,A,,,,,,Space,keypress(Space),,,,silence,,,,-------- -------- --- --- ---- --- but ------ -- --------<br>---- --------- --- ------- ------------ ---------- ---------<br>--- ---------- ------- ---------- ------- -- -------- ----<br>---- --- ------ ----- ------ -- ---- --- ----- -- - -------<br>-------- -- --- --- -- ----- ----------- ----- -----------<br>---- --- ---------- --- ---- --- -- ----------,372239,372236,371689.42,371689,371689.96,372240.52,,6,but
screen,html.Screen,2_3_1_1_1_7,2022-04-25T14:26:42.288Z,,,,,,,,,,,,,,,,,51,,,,,,,,,,,,,,604.4799999999814,,response,,,,13,A,,,,,,Space,keypress(Space),,,,silence,,,,-------- -------- --- --- ---- --- --- debate -- --------<br>---- --------- --- ------- ------------ ---------- ---------<br>--- ---------- ------- ---------- ------- -- -------- ----<br>---- --- ------ ----- ------ -- ---- --- ----- -- - -------<br>-------- -- --- --- -- ----- ----------- ----- -----------<br>---- --- ---------- --- ---- --- -- ----------,372856,372845,372239.82,372240,372240.52,372856.76,,7,debate
screen,html.Screen,2_3_1_1_1_8,2022-04-25T14:26:42.774Z,,,,,,,,,,,,,,,,,51,,,,,,,,,,,,,,473.2399999999907,,response,,,,13,A,,,,,,Space,keypress(Space),,,,silence,,,,-------- -------- --- --- ---- --- --- ------ in --------<br>---- --------- --- ------- ------------ ---------- ---------<br>--- ---------- ------- ---------- ------- -- -------- ----<br>---- --- ------ ----- ------ -- ---- --- ----- -- - -------<br>-------- -- --- --- -- ----- ----------- ----- -----------<br>---- --- ---------- --- ---- --- -- ----------,373342,373330,372856.26,372856,372856.76,373343.8,,8,in
screen,html.Screen,2_3_1_1_1_9,2022-04-25T14:26:43.337Z,,,,,,,,,,,,,,,,,51,,,,,,,,,,,,,,548.2000000000116,,response,,,,13,A,,,,,,Space,keypress(Space),,,,silence,,,,-------- -------- --- --- ---- --- --- ------ -- Congress<br>---- --------- --- ------- ------------ ---------- ---------<br>--- ---------- ------- ---------- ------- -- -------- ----<br>---- --- ------ ----- ------ -- ---- --- ----- -- - -------<br>-------- -- --- --- -- ----- ----------- ----- -----------<br>---- --- ---------- --- ---- --- -- ----------,373905,373892,373343,373343,373343.8,373906.04,,9,Congress
