sender,sender_type,sender_id,timestamp,meta,,Blues,Classical,Country,Dance,Electronic,Folk,Gospel,Hip-Hop,Jazz,Latin,Musical/Film,New-age,Pop,Prolific_id,Provo_ID,R&B,Rap,Reggae,Religious,Rock,Soul,Swing,Traditional,age,artist_name,correct,correctResponse,distraction,duration,education,ended_on,familiarity,gender,headphone_check_performance,item,list,music_frequency,offensiveness,pleasantness,position_correct,preference,response,response_action,snippet_file,song_name,song_rating,sound,stimulus_1,stimulus_2,stimulus_3,text,time_commit,time_end,time_render,time_run,time_show,time_switch,url,word,word_ID
Prolific ID,html.Form,0,2022-05-02T10:15:08.349Z,"{""labjs_version"":""20.2.2"",""labjs_build"":{""flavor"":""production"",""commit"":""a25486e0c714a0ae2ce03ff94b7bb6896854dcfa""},""location"":""https://run.pavlovia.org/mvasilev/prolific3_music_e/"",""userAgent"":""Mozilla/5.0 (Macintosh; Intel Mac OS X 10_13_6) AppleWebKit/537.36 (KHTML, like Gecko) Chrome/100.0.4896.127 Safari/537.36"",""platform"":""MacIntel"",""language"":""en-GB"",""locale"":""en-GB"",""timeZone"":""Europe/London"",""timezoneOffset"":-60,""screen_width"":1440,""screen_height"":900,""scroll_width"":1304,""scroll_height"":678,""window_innerWidth"":1304,""window_innerHeight"":726,""devicePixelRatio"":1}",,,,,,,,,,,,,,,5f784d0ac0c40e3ca59f3d71,,,,,,,,,,,,,,,8375.444999976158,,form submission,,,,,,,,,,,,,,,,,,,,,16488.19999998808,16487.399999976158,8078.621,8092.0999999940395,8111.955,16495.871,{},,
Introduction,html.Screen,1_0,2022-05-02T10:15:11.946Z,,,,,,,,,,,,,,,,,,,,,,,,,,,,,,,3586.9289999821194,,response,,,,,,,,,,,continue,click button,,,,,,,,,20085.399999976158,20082.79999998212,16479.204,16488.59999999404,16495.871,20095.943,,,
Volume calibration,html.Screen,1_1,2022-05-02T10:15:32.287Z,,,,,,,,,,,,,,,,,,,,,,,,,,,,,,,20326.557,,response,,,,,,,,,,,continue,click button,,,,,,,,,40425.19999998808,40422.5,20079.276,20085.59999999404,20095.943,40430.96,,,
Task instructions,html.Screen,1_2,2022-05-02T10:15:41.478Z,,,,,,,,,,,,,,,,,,,,,,,,,,,,,,,9183.23999998808,,response,,,,,,,,,,,continue,click button,,,,,,,,,49616.59999999404,49614.19999998808,40414.293,40425.5,40430.96,49631.144,,,
Sounds,html.Screen,1_3_0_0,2022-05-02T10:15:45.730Z,,,,,,,,,,,,,,,,,,,,,,,,,,,,,,,4250.786,,timeout,,,,,,,,,3,,,,,,,,I,O,S,,53868.09999999404,53865.263,49614.477,49617,49631.144,53881.93,,,
Judgement,html.Screen,1_3_0_1,2022-05-02T10:15:46.928Z,,,,,,,,,,,,,,,,,,,,,,,,,,,,true,3,,1181.2699999880788,,response,,,,,,,,,3,,3,click #choice-3,,,,,I,O,S,,55066.59999999404,55063.19999998808,53865.263,53868.19999998808,53881.93,55081.954,,,
Trial,flow.Sequence,1_3_0,2022-05-02T10:15:46.929Z,,,,,,,,,,,,,,,,,,,,,,,,,,,,,,,5432.055999988079,,completion,,,,,,,,,3,,,,,,,,I,O,S,,55067.29999998212,55063.19999998808,49614.477,49616.89999997616,49631.144,55081.954,,,
Sounds,html.Screen,1_3_1_0,2022-05-02T10:15:51.180Z,,,,,,,,,,,,,,,,,,,,,,,,,,,,,,,4250.084999999999,,timeout,,,,,,,,,3,,,,,,,,O,I,S,,59318.19999998808,59315.372,55065.287,55067.89999997616,55081.954,59332.039,,,
Judgement,html.Screen,1_3_1_1,2022-05-02T10:15:51.704Z,,,,,,,,,,,,,,,,,,,,,,,,,,,,true,3,,506.8609999761611,,response,,,,,,,,,3,,3,click #choice-3,,,,,O,I,S,,59841.69999998808,59838.89999997616,59315.372,59318.39999997616,59332.039,59848.716,,,
Trial,flow.Sequence,1_3_1,2022-05-02T10:15:51.704Z,,,,,,,,,,,,,,,,,,,,,,,,,,,,,,,4756.94599997616,,completion,,,,,,,,,3,,,,,,,,O,I,S,,59842.09999999404,59838.89999997616,55065.287,55067.59999999404,55081.954,59848.716,,,
Sounds,html.Screen,1_3_2_0,2022-05-02T10:15:55.947Z,,,,,,,,,,,,,,,,,,,,,,,,,,,,,,,4250.084999999999,,timeout,,,,,,,,,2,,,,,,,,O,S,I,,64084.69999998808,64082.134,59832.049,59842.39999997616,59848.716,64098.801,,,
Judgement,html.Screen,1_3_2_1,2022-05-02T10:15:56.553Z,,,,,,,,,,,,,,,,,,,,,,,,,,,,true,2,,589.9989999821191,,response,,,,,,,,,2,,2,click #choice-2,,,,,O,S,I,,64691.19999998808,64688.79999998212,64082.134,64084.89999997616,64098.801,64699.399,,,
Trial,flow.Sequence,1_3_2,2022-05-02T10:15:56.554Z,,,,,,,,,,,,,,,,,,,,,,,,,,,,,,,4840.083999982118,,completion,,,,,,,,,2,,,,,,,,O,S,I,,64691.59999999404,64688.79999998212,59832.049,59842.29999998212,59848.716,64699.399,,,
Sounds,html.Screen,1_3_3_0,2022-05-02T10:16:00.797Z,,,,,,,,,,,,,,,,,,,,,,,,,,,,,,,4250.084999999999,,timeout,,,,,,,,,1,,,,,,,,S,I,O,,68934.79999998212,68932.817,64682.732,64691.89999997616,64699.399,68949.484,,,
Judgement,html.Screen,1_3_3_1,2022-05-02T10:16:01.399Z,,,,,,,,,,,,,,,,,,,,,,,,,,,,true,1,,584.4159999761614,,response,,,,,,,,,1,,1,click #choice-1,,,,,S,I,O,,69536.5,69533.89999997616,68932.817,68935,68949.484,69549.496,,,
Trial,flow.Sequence,1_3_3,2022-05-02T10:16:01.399Z,,,,,,,,,,,,,,,,,,,,,,,,,,,,,,,4834.5009999761605,,completion,,,,,,,,,1,,,,,,,,S,I,O,,69536.69999998808,69533.89999997616,64682.732,64691.79999998212,64699.399,69549.496,,,
Sounds,html.Screen,1_3_4_0,2022-05-02T10:16:05.647Z,,,,,,,,,,,,,,,,,,,,,,,,,,,,,,,4250.085000000006,,timeout,,,,,,,,,1,,,,,,,,S,O,I,,73785.09999999404,73782.914,69532.829,69536.89999997616,69549.496,73799.581,,,
Judgement,html.Screen,1_3_4_1,2022-05-02T10:16:06.107Z,,,,,,,,,,,,,,,,,,,,,,,,,,,,true,1,,442.718999982113,,response,,,,,,,,,1,,1,click #choice-1,,,,,S,O,I,,74244.79999998212,74242.29999998212,73782.914,73785.29999998212,73799.581,74249.59,,,
Trial,flow.Sequence,1_3_4,2022-05-02T10:16:06.107Z,,,,,,,,,,,,,,,,,,,,,,,,,,,,,,,4692.803999982119,,completion,,,,,,,,,1,,,,,,,,S,O,I,,74245,74242.29999998212,69532.829,69536.89999997616,69549.496,74249.59,,,
Sounds,html.Screen,1_3_5_0,2022-05-02T10:16:10.349Z,,,,,,,,,,,,,,,,,,,,,,,,,,,,,,,4250.771999999997,,timeout,,,,,,,,,2,,,,,,,,I,S,O,,78486.39999997616,78483.695,74232.923,74245.19999998808,74249.59,78500.362,,,
Judgement,html.Screen,1_3_5_1,2022-05-02T10:16:10.822Z,,,,,,,,,,,,,,,,,,,,,,,,,,,,true,2,,456.4379999821249,,response,,,,,,,,,2,,2,click #choice-2,,,,,I,S,O,,78959.29999998212,78956.79999998212,78483.695,78486.79999998212,78500.362,78967.038,,,
Trial,flow.Sequence,1_3_5,2022-05-02T10:16:10.822Z,,,,,,,,,,,,,,,,,,,,,,,,,,,,,,,4707.209999982122,,completion,,,,,,,,,2,,,,,,,,I,S,O,,78959.59999999404,78956.79999998212,74232.923,74245.09999999404,74249.59,78967.038,,,
Task,flow.Loop,1_3,2022-05-02T10:16:10.823Z,,,,,,,,,,,,,,,,,,,,,,,,,,,,,,,29325.65599998212,,completion,,,1,,,,,,,,,,,,,,,,,,78960.39999997616,78956.79999998212,49614.477,49616.89999997616,49631.144,78967.038,,,
Trap,html.Screen,1_4,2022-05-02T10:16:10.825Z,,,,,,,,,,,,,,,,,,,,,,,,,,,,,,,NaN,,skipped,,,,,,,,,,,,,,,,,,,,,78962.39999997616,78956.79999998212,,78962,,78967.038,,,
Thanks,html.Screen,1_5,2022-05-02T10:16:27.552Z,,,,,,,,,,,,,,,,,,,,,,,,,,,,,,,16719.761999982118,,response,,,,,,,,,,,continue,click button,,,,,,,,,95689.09999999404,95686.79999998212,78950.371,78962.59999999404,78967.038,98135.149,,,
Headphone screening,flow.Sequence,1,2022-05-02T10:16:27.552Z,,,,,,,,,,,,,,,,,,,,,,,,,,,,,,,79190.92899998212,,completion,,,,,,,,,,,,,,,,,,,,,95689.29999998212,95686.79999998212,16479.204,16488.59999999404,16495.871,98135.149,,,
Instructions,html.Page,2_0,2022-05-02T10:16:50.313Z,,,,,,,,,,,,,,,,,,,,,,,,,,,,,,,20313.450999994035,,form submission,,,,,,,,,,,,,,,,,,,,,118449.09999999404,118448.59999999404,98118.482,98123,98135.149,118452.222,,,
Holding screen,html.Screen,2_1_0_0,2022-05-02T10:17:00.303Z,,,,,,,,,,,,,,,,,,,,,,,,,,,,,,,10001.269,,timeout,,,,,,,,,,,,,,,,,,,,,128439.29999998212,128436.824,118435.555,118449.39999997616,118452.222,128453.491,,,
screen,html.Screen,2_1_0_1_0,2022-05-02T10:17:01.109Z,,,,,,,,,,,,,,,,,53,,,,,,,,,,,,,,787.5090000000055,,response,,,,99,,,,,,,Space,keypress(Space),,,,,,,,When -- ----- -- ------ - ------- --- ----------<br>------------- ------ ------ ---- ---- ------- ----- -- ----<br>-------- ------- -- ---------- --- - --- ----- ----- ----<br>---- --- --- ----- --- ---- ---- ------- ----- ---- -------<br>--- --- -- ----- -- --- ---- -- --- ---- -- ------ ------<br>--- ----- -- ----,129245.09999999404,129241,128436.824,128439.5,128453.491,129254.01,,0,When
screen,html.Screen,2_1_0_1_1,2022-05-02T10:17:01.754Z,,,,,,,,,,,,,,,,,53,,,,,,,,,,,,,,632.4900000000052,,response,,,,99,,,,,,,Space,keypress(Space),,,,,,,,---- it ----- -- ------ - ------- --- ----------<br>------------- ------ ------ ---- ---- ------- ----- -- ----<br>-------- ------- -- ---------- --- - --- ----- ----- ----<br>---- --- --- ----- --- ---- ---- ------- ----- ---- -------<br>--- --- -- ----- -- --- ---- -- --- ---- -- ------ ------<br>--- ----- -- ----,129889.89999997616,129886.5,129237.343,129245.29999998212,129254.01,129904.023,,1,it
screen,html.Screen,2_1_0_1_2,2022-05-02T10:17:02.379Z,,,,,,,,,,,,,,,,,53,,,,,,,,,,,,,,607.476999999999,,response,,,,99,,,,,,,Space,keypress(Space),,,,,,,,---- -- comes -- ------ - ------- --- ----------<br>------------- ------ ------ ---- ---- ------- ----- -- ----<br>-------- ------- -- ---------- --- - --- ----- ----- ----<br>---- --- --- ----- --- ---- ---- ------- ----- ---- -------<br>--- --- -- ----- -- --- ---- -- --- ---- -- ------ ------<br>--- ----- -- ----,130514.79999998212,130511.5,129887.356,129890,129904.023,130520.702,,2,comes
screen,html.Screen,2_1_0_1_3,2022-05-02T10:17:03.007Z,,,,,,,,,,,,,,,,,53,,,,,,,,,,,,,,618.6979999761534,,response,,,,99,,,,,,,Space,keypress(Space),,,,,,,,---- -- ----- to ------ - ------- --- ----------<br>------------- ------ ------ ---- ---- ------- ----- -- ----<br>-------- ------- -- ---------- --- - --- ----- ----- ----<br>---- --- --- ----- --- ---- ---- ------- ----- ---- -------<br>--- --- -- ----- -- --- ---- -- --- ---- -- ------ ------<br>--- ----- -- ----,131142.5,131139.39999997616,130504.035,130515,130520.702,131154.048,,3,to
screen,html.Screen,2_1_0_1_4,2022-05-02T10:17:03.621Z,,,,,,,,,,,,,,,,,53,,,,,,,,,,,,,,599.3519999761484,,response,,,,99,,,,,,,Space,keypress(Space),,,,,,,,---- -- ----- -- having - ------- --- ----------<br>------------- ------ ------ ---- ---- ------- ----- -- ----<br>-------- ------- -- ---------- --- - --- ----- ----- ----<br>---- --- --- ----- --- ---- ---- ------- ----- ---- -------<br>--- --- -- ----- -- --- ---- -- --- ---- -- ------ ------<br>--- ----- -- ----,131756.5,131753.39999997616,131137.381,131142.69999998808,131154.048,131770.727,,4,having
screen,html.Screen,2_1_0_1_5,2022-05-02T10:17:04.175Z,,,,,,,,,,,,,,,,,53,,,,,,,,,,,,,,536.6729999761446,,response,,,,99,,,,,,,Space,keypress(Space),,,,,,,,---- -- ----- -- ------ a ------- --- ----------<br>------------- ------ ------ ---- ---- ------- ----- -- ----<br>-------- ------- -- ---------- --- - --- ----- ----- ----<br>---- --- --- ----- --- ---- ---- ------- ----- ---- -------<br>--- --- -- ----- -- --- ---- -- --- ---- -- ------ ------<br>--- ----- -- ----,132310.5,132307.39999997616,131754.06,131756.69999998808,131770.727,132320.738,,5,a
screen,html.Screen,2_1_0_1_6,2022-05-02T10:17:04.667Z,,,,,,,,,,,,,,,,,53,,,,,,,,,,,,,,477.66199997614603,,response,,,,99,,,,,,,Space,keypress(Space),,,,,,,,---- -- ----- -- ------ - lasting --- ----------<br>------------- ------ ------ ---- ---- ------- ----- -- ----<br>-------- ------- -- ---------- --- - --- ----- ----- ----<br>---- --- --- ----- --- ---- ---- ------- ----- ---- -------<br>--- --- -- ----- -- --- ---- -- --- ---- -- ------ ------<br>--- ----- -- ----,132802.59999999404,132798.39999997616,132304.071,132310.69999998808,132320.738,132804.081,,6,lasting
screen,html.Screen,2_1_0_1_7,2022-05-02T10:17:05.173Z,,,,,,,,,,,,,,,,,53,,,,,,,,,,,,,,501.218999982113,,response,,,,99,,,,,,,Space,keypress(Space),,,,,,,,---- -- ----- -- ------ - ------- and ----------<br>------------- ------ ------ ---- ---- ------- ----- -- ----<br>-------- ------- -- ---------- --- - --- ----- ----- ----<br>---- --- --- ----- --- ---- ---- ------- ----- ---- -------<br>--- --- -- ----- -- --- ---- -- --- ---- -- ------ ------<br>--- ----- -- ----,133308.5,133305.29999998212,132787.414,132802.89999997616,132804.081,133320.758,,7,and
screen,html.Screen,2_1_0_1_8,2022-05-02T10:17:05.793Z,,,,,,,,,,,,,,,,,53,,,,,,,,,,,,,,604.4419999880774,,response,,,,99,,,,,,,Space,keypress(Space),,,,,,,,---- -- ----- -- ------ - ------- --- fulfilling<br>------------- ------ ------ ---- ---- ------- ----- -- ----<br>-------- ------- -- ---------- --- - --- ----- ----- ----<br>---- --- --- ----- --- ---- ---- ------- ----- ---- -------<br>--- --- -- ----- -- --- ---- -- --- ---- -- ------ ------<br>--- ----- -- ----,133928.39999997616,133925.19999998808,133304.091,133308.69999998808,133320.758,133937.437,,8,fulfilling
screen,html.Screen,2_1_0_1_9,2022-05-02T10:17:06.622Z,,,,,,,,,,,,,,,,,53,,,,,,,,,,,,,,816.8629999821133,,response,,,,99,,,,,,,Space,keypress(Space),,,,,,,,"---- -- ----- -- ------ - ------- --- ----------<br>relationship, ------ ------ ---- ---- ------- ----- -- ----<br>-------- ------- -- ---------- --- - --- ----- ----- ----<br>---- --- --- ----- --- ---- ---- ------- ----- ---- -------<br>--- --- -- ----- -- --- ---- -- --- ---- -- ------ ------<br>--- ----- -- ----",134757.79999998212,134754.29999998212,133920.77,133928.59999999404,133937.437,134770.787,,9,"relationship,"
screen,html.Screen,2_1_0_1_10,2022-05-02T10:17:07.119Z,,,,,,,,,,,,,,,,,53,,,,,,,,,,,,,,480.4129999880679,,response,,,,99,,,,,,,Space,keypress(Space),,,,,,,,---- -- ----- -- ------ - ------- --- ----------<br>------------- common ------ ---- ---- ------- ----- -- ----<br>-------- ------- -- ---------- --- - --- ----- ----- ----<br>---- --- --- ----- --- ---- ---- ------- ----- ---- -------<br>--- --- -- ----- -- --- ---- -- --- ---- -- ------ ------<br>--- ----- -- ----,135254.5,135251.19999998808,134754.12,134758,134770.787,135270.797,,10,common
screen,html.Screen,2_1_0_1_11,2022-05-02T10:17:07.601Z,,,,,,,,,,,,,,,,,53,,,,,,,,,,,,,,462.4029999880877,,response,,,,99,,,,,,,Space,keypress(Space),,,,,,,,---- -- ----- -- ------ - ------- --- ----------<br>------------- ------ wisdom ---- ---- ------- ----- -- ----<br>-------- ------- -- ---------- --- - --- ----- ----- ----<br>---- --- --- ----- --- ---- ---- ------- ----- ---- -------<br>--- --- -- ----- -- --- ---- -- --- ---- -- ------ ------<br>--- ----- -- ----,135736.39999997616,135733.19999998808,135254.13,135254.79999998212,135270.797,135737.473,,11,wisdom
screen,html.Screen,2_1_0_1_12,2022-05-02T10:17:08.145Z,,,,,,,,,,,,,,,,,53,,,,,,,,,,,,,,539.6269999940414,,response,,,,99,,,,,,,Space,keypress(Space),,,,,,,,---- -- ----- -- ------ - ------- --- ----------<br>------------- ------ ------ says ---- ------- ----- -- ----<br>-------- ------- -- ---------- --- - --- ----- ----- ----<br>---- --- --- ----- --- ---- ---- ------- ----- ---- -------<br>--- --- -- ----- -- --- ---- -- --- ---- -- ------ ------<br>--- ----- -- ----,136280.19999998808,136277.09999999404,135720.806,135736.5,135737.473,136287.484,,12,says
screen,html.Screen,2_1_0_1_13,2022-05-02T10:17:08.575Z,,,,,,,,,,,,,,,,,53,,,,,,,,,,,,,,420.6159999940428,,response,,,,99,,,,,,,Space,keypress(Space),,,,,,,,---- -- ----- -- ------ - ------- --- ----------<br>------------- ------ ------ ---- that ------- ----- -- ----<br>-------- ------- -- ---------- --- - --- ----- ----- ----<br>---- --- --- ----- --- ---- ---- ------- ----- ---- -------<br>--- --- -- ----- -- --- ---- -- --- ---- -- ------ ------<br>--- ----- -- ----,136711.19999998808,136708.09999999404,136270.817,136280.5,136287.484,136720.826,,13,that
screen,html.Screen,2_1_0_1_14,2022-05-02T10:17:09.210Z,,,,,,,,,,,,,,,,,53,,,,,,,,,,,,,,621.1739999999991,,response,,,,99,,,,,,,Space,keypress(Space),,,,,,,,---- -- ----- -- ------ - ------- --- ----------<br>------------- ------ ------ ---- ---- feeling ----- -- ----<br>-------- ------- -- ---------- --- - --- ----- ----- ----<br>---- --- --- ----- --- ---- ---- ------- ----- ---- -------<br>--- --- -- ----- -- --- ---- -- --- ---- -- ------ ------<br>--- ----- -- ----,137345.19999998808,137342,136704.159,136711.39999997616,136720.826,137354.172,,14,feeling
screen,html.Screen,2_1_0_1_15,2022-05-02T10:17:09.849Z,,,,,,,,,,,,,,,,,53,,,,,,,,,,,,,,627.8280000000086,,response,,,,99,,,,,,,Space,keypress(Space),,,,,,,,---- -- ----- -- ------ - ------- --- ----------<br>------------- ------ ------ ---- ---- ------- close -- ----<br>-------- ------- -- ---------- --- - --- ----- ----- ----<br>---- --- --- ----- --- ---- ---- ------- ----- ---- -------<br>--- --- -- ----- -- --- ---- -- --- ---- -- ------ ------<br>--- ----- -- ----,137985.19999998808,137982,137337.505,137345.39999997616,137354.172,137987.518,,15,close
screen,html.Screen,2_1_0_1_16,2022-05-02T10:17:10.311Z,,,,,,,,,,,,,,,,,53,,,,,,,,,,,,,,455.5819999940286,,response,,,,99,,,,,,,Space,keypress(Space),,,,,,,,---- -- ----- -- ------ - ------- --- ----------<br>------------- ------ ------ ---- ---- ------- ----- to ----<br>-------- ------- -- ---------- --- - --- ----- ----- ----<br>---- --- --- ----- --- ---- ---- ------- ----- ---- -------<br>--- --- -- ----- -- --- ---- -- --- ---- -- ------ ------<br>--- ----- -- ----,138446.39999997616,138443.09999999404,137970.851,137985.29999998212,137987.518,138454.194,,16,to
screen,html.Screen,2_1_0_1_17,2022-05-02T10:17:10.824Z,,,,,,,,,,,,,,,,,53,,,,,,,,,,,,,,502.70599997616955,,response,,,,99,,,,,,,Space,keypress(Space),,,,,,,,---- -- ----- -- ------ - ------- --- ----------<br>------------- ------ ------ ---- ---- ------- ----- -- your<br>-------- ------- -- ---------- --- - --- ----- ----- ----<br>---- --- --- ----- --- ---- ---- ------- ----- ---- -------<br>--- --- -- ----- -- --- ---- -- --- ---- -- ------ ------<br>--- ----- -- ----,138960.09999999404,138956.89999997616,138437.527,138446.5,138454.194,138971.299,,17,your
screen,html.Screen,2_1_0_1_18,2022-05-02T10:17:11.302Z,,,,,,,,,,,,,,,,,53,,,,,,,,,,,,,,462.70100000000093,,response,,,,99,,,,,,,Space,keypress(Space),,,,,,,,---- -- ----- -- ------ - ------- --- ----------<br>------------- ------ ------ ---- ---- ------- ----- -- ----<br>romantic ------- -- ---------- --- - --- ----- ----- ----<br>---- --- --- ----- --- ---- ---- ------- ----- ---- -------<br>--- --- -- ----- -- --- ---- -- --- ---- -- ------ ------<br>--- ----- -- ----,139437.59999999404,139434,138954.632,138960.39999997616,138971.299,139454.642,,18,romantic
screen,html.Screen,2_1_0_1_19,2022-05-02T10:17:11.794Z,,,,,,,,,,,,,,,,,53,,,,,,,,,,,,,,471.35800000000745,,response,,,,99,,,,,,,Space,keypress(Space),,,,,,,,---- -- ----- -- ------ - ------- --- ----------<br>------------- ------ ------ ---- ---- ------- ----- -- ----<br>-------- partner -- ---------- --- - --- ----- ----- ----<br>---- --- --- ----- --- ---- ---- ------- ----- ---- -------<br>--- --- -- ----- -- --- ---- -- --- ---- -- ------ ------<br>--- ----- -- ----,139929.5,139926,139437.975,139437.79999998212,139454.642,139937.985,,19,partner
screen,html.Screen,2_1_0_1_20,2022-05-02T10:17:12.228Z,,,,,,,,,,,,,,,,,53,,,,,,,,,,,,,,422.9149999761721,,response,,,,99,,,,,,,Space,keypress(Space),,,,,,,,---- -- ----- -- ------ - ------- --- ----------<br>------------- ------ ------ ---- ---- ------- ----- -- ----<br>-------- ------- is ---------- --- - --- ----- ----- ----<br>---- --- --- ----- --- ---- ---- ------- ----- ---- -------<br>--- --- -- ----- -- --- ---- -- --- ---- -- ------ ------<br>--- ----- -- ----,140364,140360.89999997616,139921.318,139929.59999999404,139937.985,140371.327,,20,is
screen,html.Screen,2_1_0_1_21,2022-05-02T10:17:13.156Z,,,,,,,,,,,,,,,,,53,,,,,,,,,,,,,,916.4729999821284,,response,,,,99,,,,,,,Space,keypress(Space),,,,,,,,---- -- ----- -- ------ - ------- --- ----------<br>------------- ------ ------ ---- ---- ------- ----- -- ----<br>-------- ------- -- paramount. --- - --- ----- ----- ----<br>---- --- --- ----- --- ---- ---- ------- ----- ---- -------<br>--- --- -- ----- -- --- ---- -- --- ---- -- ------ ------<br>--- ----- -- ----,141291.09999999404,141287.79999998212,140354.66,140364.09999999404,140371.327,141304.679,,21,paramount.
screen,html.Screen,2_1_0_1_22,2022-05-02T10:17:13.575Z,,,,,,,,,,,,,,,,,53,,,,,,,,,,,,,,403.02099998807535,,response,,,,99,,,,,,,Space,keypress(Space),,,,,,,,---- -- ----- -- ------ - ------- --- ----------<br>------------- ------ ------ ---- ---- ------- ----- -- ----<br>-------- ------- -- ---------- But - --- ----- ----- ----<br>---- --- --- ----- --- ---- ---- ------- ----- ---- -------<br>--- --- -- ----- -- --- ---- -- --- ---- -- ------ ------<br>--- ----- -- ----,141710.69999998808,141707.69999998808,141288.012,141291.29999998212,141304.679,141721.354,,22,But
screen,html.Screen,2_1_0_1_23,2022-05-02T10:17:13.963Z,,,,,,,,,,,,,,,,,53,,,,,,,,,,,,,,374.4459999821265,,response,,,,99,,,,,,,Space,keypress(Space),,,,,,,,---- -- ----- -- ------ - ------- --- ----------<br>------------- ------ ------ ---- ---- ------- ----- -- ----<br>-------- ------- -- ---------- --- a --- ----- ----- ----<br>---- --- --- ----- --- ---- ---- ------- ----- ---- -------<br>--- --- -- ----- -- --- ---- -- --- ---- -- ------ ------<br>--- ----- -- ----,142099,142095.79999998212,141704.687,141710.89999997616,141721.354,142104.695,,23,a
screen,html.Screen,2_1_0_1_24,2022-05-02T10:17:14.493Z,,,,,,,,,,,,,,,,,53,,,,,,,,,,,,,,521.0049999880721,,response,,,,99,,,,,,,Space,keypress(Space),,,,,,,,---- -- ----- -- ------ - ------- --- ----------<br>------------- ------ ------ ---- ---- ------- ----- -- ----<br>-------- ------- -- ---------- --- - new ----- ----- ----<br>---- --- --- ----- --- ---- ---- ------- ----- ---- -------<br>--- --- -- ----- -- --- ---- -- --- ---- -- ------ ------<br>--- ----- -- ----,142629,142625.69999998808,142088.028,142099.09999999404,142104.695,142638.039,,24,new
screen,html.Screen,2_1_0_1_25,2022-05-02T10:17:14.929Z,,,,,,,,,,,,,,,,,53,,,,,,,,,,,,,,423.6609999880893,,response,,,,99,,,,,,,Space,keypress(Space),,,,,,,,---- -- ----- -- ------ - ------- --- ----------<br>------------- ------ ------ ---- ---- ------- ----- -- ----<br>-------- ------- -- ---------- --- - --- study ----- ----<br>---- --- --- ----- --- ---- ---- ------- ----- ---- -------<br>--- --- -- ----- -- --- ---- -- --- ---- -- ------ ------<br>--- ----- -- ----,143064.89999997616,143061.69999998808,142621.372,142629.19999998808,142638.039,143071.381,,25,study
screen,html.Screen,2_1_0_1_26,2022-05-02T10:17:15.285Z,,,,,,,,,,,,,,,,,53,,,,,,,,,,,,,,346.3189999880851,,response,,,,99,,,,,,,Space,keypress(Space),,,,,,,,---- -- ----- -- ------ - ------- --- ----------<br>------------- ------ ------ ---- ---- ------- ----- -- ----<br>-------- ------- -- ---------- --- - --- ----- finds ----<br>---- --- --- ----- --- ---- ---- ------- ----- ---- -------<br>--- --- -- ----- -- --- ---- -- --- ---- -- ------ ------<br>--- ----- -- ----,143420.79999998212,143417.69999998808,143054.714,143065.09999999404,143071.381,143438.055,,26,finds
screen,html.Screen,2_1_0_1_27,2022-05-02T10:17:15.646Z,,,,,,,,,,,,,,,,,53,,,,,,,,,,,,,,340.64499998808606,,response,,,,99,,,,,,,Space,keypress(Space),,,,,,,,---- -- ----- -- ------ - ------- --- ----------<br>------------- ------ ------ ---- ---- ------- ----- -- ----<br>-------- ------- -- ---------- --- - --- ----- ----- that<br>---- --- --- ----- --- ---- ---- ------- ----- ---- -------<br>--- --- -- ----- -- --- ---- -- --- ---- -- ------ ------<br>--- ----- -- ----,143782,143778.69999998808,143421.388,143420.89999997616,143438.055,143788.062,,27,that
screen,html.Screen,2_1_0_1_28,2022-05-02T10:17:16.113Z,,,,,,,,,,,,,,,,,53,,,,,,,,,,,,,,457.6379999880737,,response,,,,99,,,,,,,Space,keypress(Space),,,,,,,,---- -- ----- -- ------ - ------- --- ----------<br>------------- ------ ------ ---- ---- ------- ----- -- ----<br>-------- ------- -- ---------- --- - --- ----- ----- ----<br>it's --- --- ----- --- ---- ---- ------- ----- ---- -------<br>--- --- -- ----- -- --- ---- -- --- ---- -- ------ ------<br>--- ----- -- ----,144248.89999997616,144245.69999998808,143771.395,143782.19999998808,143788.062,144254.738,,28,it's
screen,html.Screen,2_1_0_1_29,2022-05-02T10:17:16.506Z,,,,,,,,,,,,,,,,,53,,,,,,,,,,,,,,383.8619999940274,,response,,,,99,,,,,,,Space,keypress(Space),,,,,,,,---- -- ----- -- ------ - ------- --- ----------<br>------------- ------ ------ ---- ---- ------- ----- -- ----<br>-------- ------- -- ---------- --- - --- ----- ----- ----<br>---- not --- ----- --- ---- ---- ------- ----- ---- -------<br>--- --- -- ----- -- --- ---- -- --- ---- -- ------ ------<br>--- ----- -- ----,144642,144638.59999999404,144238.071,144249,144254.738,144654.746,,29,not
screen,html.Screen,2_1_0_1_30,2022-05-02T10:17:17.012Z,,,,,,,,,,,,,,,,,53,,,,,,,,,,,,,,489.8539999940258,,response,,,,99,,,,,,,Space,keypress(Space),,,,,,,,---- -- ----- -- ------ - ------- --- ----------<br>------------- ------ ------ ---- ---- ------- ----- -- ----<br>-------- ------- -- ---------- --- - --- ----- ----- ----<br>---- --- how ----- --- ---- ---- ------- ----- ---- -------<br>--- --- -- ----- -- --- ---- -- --- ---- -- ------ ------<br>--- ----- -- ----,145147.79999998212,145144.59999999404,144638.079,144642.09999999404,144654.746,145154.756,,30,how
screen,html.Screen,2_1_0_1_31,2022-05-02T10:17:17.379Z,,,,,,,,,,,,,,,,,53,,,,,,,,,,,,,,356.74400000000605,,response,,,,99,,,,,,,Space,keypress(Space),,,,,,,,---- -- ----- -- ------ - ------- --- ----------<br>------------- ------ ------ ---- ---- ------- ----- -- ----<br>-------- ------- -- ---------- --- - --- ----- ----- ----<br>---- --- --- close --- ---- ---- ------- ----- ---- -------<br>--- --- -- ----- -- --- ---- -- --- ---- -- ------ ------<br>--- ----- -- ----,145514.69999998808,145511.5,145138.089,145148,145154.756,145521.43,,31,close
screen,html.Screen,2_1_0_1_32,2022-05-02T10:17:17.744Z,,,,,,,,,,,,,,,,,53,,,,,,,,,,,,,,355.070000000007,,response,,,,99,,,,,,,Space,keypress(Space),,,,,,,,---- -- ----- -- ------ - ------- --- ----------<br>------------- ------ ------ ---- ---- ------- ----- -- ----<br>-------- ------- -- ---------- --- - --- ----- ----- ----<br>---- --- --- ----- you ---- ---- ------- ----- ---- -------<br>--- --- -- ----- -- --- ---- -- --- ---- -- ------ ------<br>--- ----- -- ----,145879.79999998212,145876.5,145504.763,145514.89999997616,145521.43,145888.104,,32,you
screen,html.Screen,2_1_0_1_33,2022-05-02T10:17:18.074Z,,,,,,,,,,,,,,,,,53,,,,,,,,,,,,,,318.3960000000079,,response,,,,99,,,,,,,Space,keypress(Space),,,,,,,,---- -- ----- -- ------ - ------- --- ----------<br>------------- ------ ------ ---- ---- ------- ----- -- ----<br>-------- ------- -- ---------- --- - --- ----- ----- ----<br>---- --- --- ----- --- feel ---- ------- ----- ---- -------<br>--- --- -- ----- -- --- ---- -- --- ---- -- ------ ------<br>--- ----- -- ----,146209.59999999404,146206.5,145871.437,145880,145888.104,146221.444,,33,feel
screen,html.Screen,2_1_0_1_34,2022-05-02T10:17:18.521Z,,,,,,,,,,,,,,,,,53,,,,,,,,,,,,,,431.0560000000114,,response,,,,99,,,,,,,Space,keypress(Space),,,,,,,,---- -- ----- -- ------ - ------- --- ----------<br>------------- ------ ------ ---- ---- ------- ----- -- ----<br>-------- ------- -- ---------- --- - --- ----- ----- ----<br>---- --- --- ----- --- ---- that ------- ----- ---- -------<br>--- --- -- ----- -- --- ---- -- --- ---- -- ------ ------<br>--- ----- -- ----,146656.09999999404,146652.5,146204.777,146209.79999998212,146221.444,146671.453,,34,that
screen,html.Screen,2_1_0_1_35,2022-05-02T10:17:18.914Z,,,,,,,,,,,,,,,,,53,,,,,,,,,,,,,,374.9469999761495,,response,,,,99,,,,,,,Space,keypress(Space),,,,,,,,---- -- ----- -- ------ - ------- --- ----------<br>------------- ------ ------ ---- ---- ------- ----- -- ----<br>-------- ------- -- ---------- --- - --- ----- ----- ----<br>---- --- --- ----- --- ---- ---- matters ----- ---- -------<br>--- --- -- ----- -- --- ---- -- --- ---- -- ------ ------<br>--- ----- -- ----,147049.59999999404,147046.39999997616,146654.786,146656.5,146671.453,147054.794,,35,matters
screen,html.Screen,2_1_0_1_36,2022-05-02T10:17:19.432Z,,,,,,,,,,,,,,,,,53,,,,,,,,,,,,,,510.40599998808466,,response,,,,99,,,,,,,Space,keypress(Space),,,,,,,,"---- -- ----- -- ------ - ------- --- ----------<br>------------- ------ ------ ---- ---- ------- ----- -- ----<br>-------- ------- -- ---------- --- - --- ----- ----- ----<br>---- --- --- ----- --- ---- ---- ------- most, ---- -------<br>--- --- -- ----- -- --- ---- -- --- ---- -- ------ ------<br>--- ----- -- ----",147567.39999997616,147565.19999998808,147038.127,147049.79999998212,147054.794,147571.471,,36,"most,"
screen,html.Screen,2_1_0_1_37,2022-05-02T10:17:19.875Z,,,,,,,,,,,,,,,,,53,,,,,,,,,,,,,,436.7289999880886,,response,,,,99,,,,,,,Space,keypress(Space),,,,,,,,---- -- ----- -- ------ - ------- --- ----------<br>------------- ------ ------ ---- ---- ------- ----- -- ----<br>-------- ------- -- ---------- --- - --- ----- ----- ----<br>---- --- --- ----- --- ---- ---- ------- ----- it's -------<br>--- --- -- ----- -- --- ---- -- --- ---- -- ------ ------<br>--- ----- -- ----,148010.69999998808,148008.19999998808,147554.804,147567.5,147571.471,148021.48,,37,it's
screen,html.Screen,2_1_0_1_38,2022-05-02T10:17:20.490Z,,,,,,,,,,,,,,,,,53,,,,,,,,,,,,,,601.7199999880686,,response,,,,99,,,,,,,Space,keypress(Space),,,,,,,,---- -- ----- -- ------ - ------- --- ----------<br>------------- ------ ------ ---- ---- ------- ----- -- ----<br>-------- ------- -- ---------- --- - --- ----- ----- ----<br>---- --- --- ----- --- ---- ---- ------- ----- ---- whether<br>--- --- -- ----- -- --- ---- -- --- ---- -- ------ ------<br>--- ----- -- ----,148625.29999998212,148623.19999998808,148004.813,148010.79999998212,148021.48,148638.159,,38,whether
screen,html.Screen,2_1_0_1_39,2022-05-02T10:17:20.936Z,,,,,,,,,,,,,,,,,53,,,,,,,,,,,,,,431.04099998806487,,response,,,,99,,,,,,,Space,keypress(Space),,,,,,,,---- -- ----- -- ------ - ------- --- ----------<br>------------- ------ ------ ---- ---- ------- ----- -- ----<br>-------- ------- -- ---------- --- - --- ----- ----- ----<br>---- --- --- ----- --- ---- ---- ------- ----- ---- -------<br>you --- -- ----- -- --- ---- -- --- ---- -- ------ ------<br>--- ----- -- ----,149071.09999999404,149069.19999998808,148621.492,148625.5,148638.159,149072.107,,39,you
screen,html.Screen,2_1_0_1_40,2022-05-02T10:17:21.339Z,,,,,,,,,,,,,,,,,53,,,,,,,,,,,,,,398.9929999940505,,response,,,,99,,,,,,,Space,keypress(Space),,,,,,,,---- -- ----- -- ------ - ------- --- ----------<br>------------- ------ ------ ---- ---- ------- ----- -- ----<br>-------- ------- -- ---------- --- - --- ----- ----- ----<br>---- --- --- ----- --- ---- ---- ------- ----- ---- -------<br>--- are -- ----- -- --- ---- -- --- ---- -- ------ ------<br>--- ----- -- ----,149474,149471.09999999404,149055.44,149071.19999998808,149072.107,149488.782,,40,are
screen,html.Screen,2_1_0_1_41,2022-05-02T10:17:21.690Z,,,,,,,,,,,,,,,,,53,,,,,,,,,,,,,,333.317999994033,,response,,,,99,,,,,,,Space,keypress(Space),,,,,,,,---- -- ----- -- ------ - ------- --- ----------<br>------------- ------ ------ ---- ---- ------- ----- -- ----<br>-------- ------- -- ---------- --- - --- ----- ----- ----<br>---- --- --- ----- --- ---- ---- ------- ----- ---- -------<br>--- --- as ----- -- --- ---- -- --- ---- -- ------ ------<br>--- ----- -- ----,149825.29999998212,149822.09999999404,149472.115,149474.09999999404,149488.782,149838.789,,41,as
screen,html.Screen,2_1_0_1_42,2022-05-02T10:17:22.117Z,,,,,,,,,,,,,,,,,53,,,,,,,,,,,,,,410.3109999940498,,response,,,,99,,,,,,,Space,keypress(Space),,,,,,,,---- -- ----- -- ------ - ------- --- ----------<br>------------- ------ ------ ---- ---- ------- ----- -- ----<br>-------- ------- -- ---------- --- - --- ----- ----- ----<br>---- --- --- ----- --- ---- ---- ------- ----- ---- -------<br>--- --- -- close -- --- ---- -- --- ---- -- ------ ------<br>--- ----- -- ----,150252.39999997616,150249.09999999404,149822.122,149825.39999997616,149838.789,150272.131,,42,close
screen,html.Screen,2_1_0_1_43,2022-05-02T10:17:22.529Z,,,,,,,,,,,,,,,,,53,,,,,,,,,,,,,,388.9689999940456,,response,,,,99,,,,,,,Space,keypress(Space),,,,,,,,---- -- ----- -- ------ - ------- --- ----------<br>------------- ------ ------ ---- ---- ------- ----- -- ----<br>-------- ------- -- ---------- --- - --- ----- ----- ----<br>---- --- --- ----- --- ---- ---- ------- ----- ---- -------<br>--- --- -- ----- as --- ---- -- --- ---- -- ------ ------<br>--- ----- -- ----,150664.19999998808,150661.09999999404,150255.464,150252.5,150272.131,150672.139,,43,as
screen,html.Screen,2_1_0_1_44,2022-05-02T10:17:22.900Z,,,,,,,,,,,,,,,,,53,,,,,,,,,,,,,,360.0609999880835,,response,,,,99,,,,,,,Space,keypress(Space),,,,,,,,---- -- ----- -- ------ - ------- --- ----------<br>------------- ------ ------ ---- ---- ------- ----- -- ----<br>-------- ------- -- ---------- --- - --- ----- ----- ----<br>---- --- --- ----- --- ---- ---- ------- ----- ---- -------<br>--- --- -- ----- -- you ---- -- --- ---- -- ------ ------<br>--- ----- -- ----,151035.5,151032.19999998808,150655.472,150664.39999997616,150672.139,151038.813,,44,you
screen,html.Screen,2_1_0_1_45,2022-05-02T10:17:23.293Z,,,,,,,,,,,,,,,,,53,,,,,,,,,,,,,,386.3869999880844,,response,,,,99,,,,,,,Space,keypress(Space),,,,,,,,---- -- ----- -- ------ - ------- --- ----------<br>------------- ------ ------ ---- ---- ------- ----- -- ----<br>-------- ------- -- ---------- --- - --- ----- ----- ----<br>---- --- --- ----- --- ---- ---- ------- ----- ---- -------<br>--- --- -- ----- -- --- want -- --- ---- -- ------ ------<br>--- ----- -- ----,151428.29999998212,151425.19999998808,151022.146,151035.69999998808,151038.813,151438.821,,45,want
screen,html.Screen,2_1_0_1_46,2022-05-02T10:17:23.680Z,,,,,,,,,,,,,,,,,53,,,,,,,,,,,,,,373.3789999880828,,response,,,,99,,,,,,,Space,keypress(Space),,,,,,,,---- -- ----- -- ------ - ------- --- ----------<br>------------- ------ ------ ---- ---- ------- ----- -- ----<br>-------- ------- -- ---------- --- - --- ----- ----- ----<br>---- --- --- ----- --- ---- ---- ------- ----- ---- -------<br>--- --- -- ----- -- --- ---- to --- ---- -- ------ ------<br>--- ----- -- ----,151815.39999997616,151812.19999998808,151422.154,151428.59999999404,151438.821,151822.162,,46,to
screen,html.Screen,2_1_0_1_47,2022-05-02T10:17:24.473Z,,,,,,,,,,,,,,,,,53,,,,,,,,,,,,,,783.0379999880679,,response,,,,99,,,,,,,Space,keypress(Space),,,,,,,,"---- -- ----- -- ------ - ------- --- ----------<br>------------- ------ ------ ---- ---- ------- ----- -- ----<br>-------- ------- -- ---------- --- - --- ----- ----- ----<br>---- --- --- ----- --- ---- ---- ------- ----- ---- -------<br>--- --- -- ----- -- --- ---- -- be, ---- -- ------ ------<br>--- ----- -- ----",152608.39999997616,152605.19999998808,151805.495,151815.69999998808,151822.162,152622.178,,47,"be,"
screen,html.Screen,2_1_0_1_48,2022-05-02T10:17:24.867Z,,,,,,,,,,,,,,,,,53,,,,,,,,,,,,,,376.9219999940251,,response,,,,99,,,,,,,Space,keypress(Space),,,,,,,,---- -- ----- -- ------ - ------- --- ----------<br>------------- ------ ------ ---- ---- ------- ----- -- ----<br>-------- ------- -- ---------- --- - --- ----- ----- ----<br>---- --- --- ----- --- ---- ---- ------- ----- ---- -------<br>--- --- -- ----- -- --- ---- -- --- even -- ------ ------<br>--- ----- -- ----,153002.29999998212,152999.09999999404,152605.511,152608.59999999404,152622.178,153005.519,,48,even
screen,html.Screen,2_1_0_1_49,2022-05-02T10:17:25.308Z,,,,,,,,,,,,,,,,,53,,,,,,,,,,,,,,434.5809999940393,,response,,,,99,,,,,,,Space,keypress(Space),,,,,,,,---- -- ----- -- ------ - ------- --- ----------<br>------------- ------ ------ ---- ---- ------- ----- -- ----<br>-------- ------- -- ---------- --- - --- ----- ----- ----<br>---- --- --- ----- --- ---- ---- ------- ----- ---- -------<br>--- --- -- ----- -- --- ---- -- --- ---- if ------ ------<br>--- ----- -- ----,153443.29999998212,153440.09999999404,152988.852,153002.39999997616,153005.519,153455.528,,49,if
screen,html.Screen,2_1_0_1_50,2022-05-02T10:17:25.978Z,,,,,,,,,,,,,,,,,53,,,,,,,,,,,,,,654.4720000000088,,response,,,,99,,,,,,,Space,keypress(Space),,,,,,,,---- -- ----- -- ------ - ------- --- ----------<br>------------- ------ ------ ---- ---- ------- ----- -- ----<br>-------- ------- -- ---------- --- - --- ----- ----- ----<br>---- --- --- ----- --- ---- ---- ------- ----- ---- -------<br>--- --- -- ----- -- --- ---- -- --- ---- -- that's ------<br>--- ----- -- ----,154113.19999998808,154110,153438.861,153443.5,153455.528,154122.208,,50,that's
screen,html.Screen,2_1_0_1_51,2022-05-02T10:17:26.524Z,,,,,,,,,,,,,,,,,53,,,,,,,,,,,,,,533.7919999999867,,response,,,,99,,,,,,,Space,keypress(Space),,,,,,,,---- -- ----- -- ------ - ------- --- ----------<br>------------- ------ ------ ---- ---- ------- ----- -- ----<br>-------- ------- -- ---------- --- - --- ----- ----- ----<br>---- --- --- ----- --- ---- ---- ------- ----- ---- -------<br>--- --- -- ----- -- --- ---- -- --- ---- -- ------ really<br>--- ----- -- ----,154659.39999997616,154656,154105.541,154113.39999997616,154122.208,154672.219,,51,really
screen,html.Screen,2_1_0_1_52,2022-05-02T10:17:26.950Z,,,,,,,,,,,,,,,,,53,,,,,,,,,,,,,,409.7809999999881,,response,,,,99,,,,,,,Space,keypress(Space),,,,,,,,---- -- ----- -- ------ - ------- --- ----------<br>------------- ------ ------ ---- ---- ------- ----- -- ----<br>-------- ------- -- ---------- --- - --- ----- ----- ----<br>---- --- --- ----- --- ---- ---- ------- ----- ---- -------<br>--- --- -- ----- -- --- ---- -- --- ---- -- ------ ------<br>not ----- -- ----,155085.09999999404,155082,154655.552,154659.59999999404,154672.219,155088.894,,52,not
screen,html.Screen,2_1_0_1_53,2022-05-02T10:17:27.449Z,,,,,,,,,,,,,,,,,53,,,,,,,,,,,,,,492.0059999761579,,response,,,,99,,,,,,,Space,keypress(Space),,,,,,,,---- -- ----- -- ------ - ------- --- ----------<br>------------- ------ ------ ---- ---- ------- ----- -- ----<br>-------- ------- -- ---------- --- - --- ----- ----- ----<br>---- --- --- ----- --- ---- ---- ------- ----- ---- -------<br>--- --- -- ----- -- --- ---- -- --- ---- -- ------ ------<br>--- close -- ----,155584,155580.89999997616,155072.227,155085.29999998212,155088.894,155588.904,,53,close
screen,html.Screen,2_1_0_1_54,2022-05-02T10:17:27.836Z,,,,,,,,,,,,,,,,,53,,,,,,,,,,,,,,378.9959999761486,,response,,,,99,,,,,,,Space,keypress(Space),,,,,,,,---- -- ----- -- ------ - ------- --- ----------<br>------------- ------ ------ ---- ---- ------- ----- -- ----<br>-------- ------- -- ---------- --- - --- ----- ----- ----<br>---- --- --- ----- --- ---- ---- ------- ----- ---- -------<br>--- --- -- ----- -- --- ---- -- --- ---- -- ------ ------<br>--- ----- at ----,155971.19999998808,155967.89999997616,155572.237,155584.29999998212,155588.904,155972.245,,54,at
screen,html.Screen,2_1_0_1_55,2022-05-02T10:17:28.675Z,,,,,,,,,,,,,,,,,53,,,,,,,,,,,,,,834.6549999761628,,response,,,,99,,,,,,,Space,keypress(Space),,,,,,,,---- -- ----- -- ------ - ------- --- ----------<br>------------- ------ ------ ---- ---- ------- ----- -- ----<br>-------- ------- -- ---------- --- - --- ----- ----- ----<br>---- --- --- ----- --- ---- ---- ------- ----- ---- -------<br>--- --- -- ----- -- --- ---- -- --- ---- -- ------ ------<br>--- ----- -- all.,156810,156806.89999997616,155955.578,155971.39999997616,155972.245,156822.262,,55,all.
Item 99,flow.Loop,2_1_0_1,2022-05-02T10:17:28.675Z,,,,,,,,,,,,,,,,,,,,,,,,,,,,,,,28353.408999976164,,completion,,,,,E,,,,,,,,,,,silence,,,,,156810.29999998212,156806.89999997616,128436.824,128439.5,128453.491,156822.262,,,
Question 1,html.Screen,2_1_0_2,2022-05-02T10:17:35.100Z,,,,,,,,,,,,,,,,,,,,,,,,,,,,true,FALSE,,6410.238000000012,,response,,,,99,E,,,,,,FALSE,click #choice-2,,,,silence,,,,,163234.89999997616,163232.5,156805.595,156810.5,156822.262,163239.549,,,
Question 2,html.Screen,2_1_0_3,2022-05-02T10:17:39.546Z,,,,,,,,,,,,,,,,,,,,,,,,,,,,true,TRUE,,4438.451000000001,,response,,,,99,E,,,,,,TRUE,click #choice-1,,,,silence,,,,,167680.5,167678,163222.882,163235.09999999404,163239.549,167689.638,,,
Item 99,flow.Sequence,2_1_0,2022-05-02T10:17:39.546Z,,,,,,,,,,,,,,,,,,,,,,,,,,,,,,,49225.778000000006,,completion,,,,,,,,,,,,,,,,,,,,,167680.69999998808,167678,118435.555,118449.29999998212,118452.222,167689.638,,,
Holding screen,html.Screen,2_1_1_0,2022-05-02T10:17:49.541Z,,,,,,,,,,,,,,,,,,,,,,,,,,,,,,,10000.747999999992,,timeout,,,,,,,,,,,,,,,,,,,,,177675.69999998808,177673.719,167672.971,167681,167689.638,177690.386,,,
screen,html.Screen,2_1_1_1_0,2022-05-02T10:17:50.325Z,,,,,,,,,,,,,,,,,54,,,,,,,,,,,,,,765.2139999940409,,response,,,,100,,,,,,,Space,keypress(Space),,,,,,,,At --- ---- --- ------ ----- ------- ---- -- --- ------- --<br>------- ---------- ------ -- ----- -- ----- -- ---- ------<br>--- ----- --- --- ------ -------- ----- --- ------ ----- --<br>----- ----- ---------- --- --- ------ ------ ---- -- ------<br>------- --- ------ ----- --- ---- ------- -- ---- --- --<br>------- ------,178459.39999997616,178455.59999999404,177673.719,177675.89999997616,177690.386,178473.735,,0,At
screen,html.Screen,2_1_1_1_1,2022-05-02T10:17:50.733Z,,,,,,,,,,,,,,,,,54,,,,,,,,,,,,,,390.96499998809304,,response,,,,100,,,,,,,Space,keypress(Space),,,,,,,,-- the ---- --- ------ ----- ------- ---- -- --- ------- --<br>------- ---------- ------ -- ----- -- ----- -- ---- ------<br>--- ----- --- --- ------ -------- ----- --- ------ ----- --<br>----- ----- ---------- --- --- ------ ------ ---- -- ------<br>------- --- ------ ----- --- ---- ------- -- ---- --- --<br>------- ------,178867.69999998808,178864.69999998808,178457.068,178459.5,178473.735,178873.743,,1,the
screen,html.Screen,2_1_1_1_2,2022-05-02T10:17:51.148Z,,,,,,,,,,,,,,,,,54,,,,,,,,,,,,,,405.9569999880914,,response,,,,100,,,,,,,Space,keypress(Space),,,,,,,,-- --- time --- ------ ----- ------- ---- -- --- ------- --<br>------- ---------- ------ -- ----- -- ----- -- ---- ------<br>--- ----- --- --- ------ -------- ----- --- ------ ----- --<br>----- ----- ---------- --- --- ------ ------ ---- -- ------<br>------- --- ------ ----- --- ---- ------- -- ---- --- --<br>------- ------,179282.69999998808,179279.69999998808,178857.076,178867.89999997616,178873.743,179290.418,,2,time
screen,html.Screen,2_1_1_1_3,2022-05-02T10:17:51.566Z,,,,,,,,,,,,,,,,,54,,,,,,,,,,,,,,407.28199998807395,,response,,,,100,,,,,,,Space,keypress(Space),,,,,,,,-- --- ---- the ------ ----- ------- ---- -- --- ------- --<br>------- ---------- ------ -- ----- -- ----- -- ---- ------<br>--- ----- --- --- ------ -------- ----- --- ------ ----- --<br>----- ----- ---------- --- --- ------ ------ ---- -- ------<br>------- --- ------ ----- --- ---- ------- -- ---- --- --<br>------- ------,179700.89999997616,179697.69999998808,179273.751,179282.89999997616,179290.418,179707.093,,3,the
screen,html.Screen,2_1_1_1_4,2022-05-02T10:17:52.108Z,,,,,,,,,,,,,,,,,54,,,,,,,,,,,,,,532.4070000000065,,response,,,,100,,,,,,,Space,keypress(Space),,,,,,,,-- --- ---- --- French ----- ------- ---- -- --- ------- --<br>------- ---------- ------ -- ----- -- ----- -- ---- ------<br>--- ----- --- --- ------ -------- ----- --- ------ ----- --<br>----- ----- ---------- --- --- ------ ------ ---- -- ------<br>------- --- ------ ----- --- ---- ------- -- ---- --- --<br>------- ------,180242.79999998212,180239.5,179690.426,179701.09999999404,179707.093,180257.104,,4,French
screen,html.Screen,2_1_1_1_5,2022-05-02T10:17:52.510Z,,,,,,,,,,,,,,,,,54,,,,,,,,,,,,,,384.3960000000079,,response,,,,100,,,,,,,Space,keypress(Space),,,,,,,,-- --- ---- --- ------ crown ------- ---- -- --- ------- --<br>------- ---------- ------ -- ----- -- ----- -- ---- ------<br>--- ----- --- --- ------ -------- ----- --- ------ ----- --<br>----- ----- ---------- --- --- ------ ------ ---- -- ------<br>------- --- ------ ----- --- ---- ------- -- ---- --- --<br>------- ------,180644.79999998212,180641.5,180240.437,180242.89999997616,180257.104,180657.579,,5,crown
screen,html.Screen,2_1_1_1_6,2022-05-02T10:17:53.005Z,,,,,,,,,,,,,,,,,54,,,,,,,,,,,,,,478.9210000000021,,response,,,,100,,,,,,,Space,keypress(Space),,,,,,,,-- --- ---- --- ------ ----- secured ---- -- --- ------- --<br>------- ---------- ------ -- ----- -- ----- -- ---- ------<br>--- ----- --- --- ------ -------- ----- --- ------ ----- --<br>----- ----- ---------- --- --- ------ ------ ---- -- ------<br>------- --- ------ ----- --- ---- ------- -- ---- --- --<br>------- ------,181139.79999998212,181136.5,180640.912,180644.89999997616,180657.579,181140.922,,6,secured
screen,html.Screen,2_1_1_1_7,2022-05-02T10:17:53.629Z,,,,,,,,,,,,,,,,,54,,,,,,,,,,,,,,619.5780000000086,,response,,,,100,,,,,,,Space,keypress(Space),,,,,,,,-- --- ---- --- ------ ----- ------- much -- --- ------- --<br>------- ---------- ------ -- ----- -- ----- -- ---- ------<br>--- ----- --- --- ------ -------- ----- --- ------ ----- --<br>----- ----- ---------- --- --- ------ ------ ---- -- ------<br>------- --- ------ ----- --- ---- ------- -- ---- --- --<br>------- ------,181763.69999998808,181760.5,181124.255,181140,181140.922,181774.268,,7,much
screen,html.Screen,2_1_1_1_8,2022-05-02T10:17:54.045Z,,,,,,,,,,,,,,,,,54,,,,,,,,,,,,,,402.23199999998906,,response,,,,100,,,,,,,Space,keypress(Space),,,,,,,,-- --- ---- --- ------ ----- ------- ---- of --- ------- --<br>------- ---------- ------ -- ----- -- ----- -- ---- ------<br>--- ----- --- --- ------ -------- ----- --- ------ ----- --<br>----- ----- ---------- --- --- ------ ------ ---- -- ------<br>------- --- ------ ----- --- ---- ------- -- ---- --- --<br>------- ------,182179.5,182176.5,181757.601,181763.89999997616,181774.268,182190.943,,8,of
screen,html.Screen,2_1_1_1_9,2022-05-02T10:17:54.474Z,,,,,,,,,,,,,,,,,54,,,,,,,,,,,,,,414.5570000000007,,response,,,,100,,,,,,,Space,keypress(Space),,,,,,,,-- --- ---- --- ------ ----- ------- ---- -- its ------- --<br>------- ---------- ------ -- ----- -- ----- -- ---- ------<br>--- ----- --- --- ------ -------- ----- --- ------ ----- --<br>----- ----- ---------- --- --- ------ ------ ---- -- ------<br>------- --- ------ ----- --- ---- ------- -- ---- --- --<br>------- ------,182608.69999998808,182605.5,182174.276,182179.69999998808,182190.943,182624.285,,9,its
screen,html.Screen,2_1_1_1_10,2022-05-02T10:17:54.865Z,,,,,,,,,,,,,,,,,54,,,,,,,,,,,,,,372.11499997615465,,response,,,,100,,,,,,,Space,keypress(Space),,,,,,,,-- --- ---- --- ------ ----- ------- ---- -- --- revenue --<br>------- ---------- ------ -- ----- -- ----- -- ---- ------<br>--- ----- --- --- ------ -------- ----- --- ------ ----- --<br>----- ----- ---------- --- --- ------ ------ ---- -- ------<br>------- --- ------ ----- --- ---- ------- -- ---- --- --<br>------- ------,182999.5,182996.39999997616,182607.618,182608.79999998212,182624.285,183007.626,,10,revenue
screen,html.Screen,2_1_1_1_11,2022-05-02T10:17:55.337Z,,,,,,,,,,,,,,,,,54,,,,,,,,,,,,,,460.77399997616885,,response,,,,100,,,,,,,Space,keypress(Space),,,,,,,,-- --- ---- --- ------ ----- ------- ---- -- --- ------- by<br>------- ---------- ------ -- ----- -- ----- -- ---- ------<br>--- ----- --- --- ------ -------- ----- --- ------ ----- --<br>----- ----- ---------- --- --- ------ ------ ---- -- ------<br>------- --- ------ ----- --- ---- ------- -- ---- --- --<br>------- ------,183471.59999999404,183468.39999997616,182990.959,182999.69999998808,183007.626,183474.302,,11,by
screen,html.Screen,2_1_1_1_12,2022-05-02T10:17:55.814Z,,,,,,,,,,,,,,,,,54,,,,,,,,,,,,,,470.89799998808303,,response,,,,100,,,,,,,Space,keypress(Space),,,,,,,,-- --- ---- --- ------ ----- ------- ---- -- --- ------- --<br>issuing ---------- ------ -- ----- -- ----- -- ---- ------<br>--- ----- --- --- ------ -------- ----- --- ------ ----- --<br>----- ----- ---------- --- --- ------ ------ ---- -- ------<br>------- --- ------ ----- --- ---- ------- -- ---- --- --<br>------- ------,183948.19999998808,183945.19999998808,183457.635,183471.79999998212,183474.302,183957.645,,12,issuing
screen,html.Screen,2_1_1_1_13,2022-05-02T10:17:56.359Z,,,,,,,,,,,,,,,,,54,,,,,,,,,,,,,,532.6549999821291,,response,,,,100,,,,,,,Space,keypress(Space),,,,,,,,-- --- ---- --- ------ ----- ------- ---- -- --- ------- --<br>------- government ------ -- ----- -- ----- -- ---- ------<br>--- ----- --- --- ------ -------- ----- --- ------ ----- --<br>----- ----- ---------- --- --- ------ ------ ---- -- ------<br>------- --- ------ ----- --- ---- ------- -- ---- --- --<br>------- ------,184493.59999999404,184490.29999998212,183940.978,183948.5,183957.645,184507.656,,13,government
screen,html.Screen,2_1_1_1_14,2022-05-02T10:17:57.771Z,,,,,,,,,,,,,,,,,54,,,,,,,,,,,,,,1394.6439999821305,,response,,,,100,,,,,,,Space,keypress(Space),,,,,,,,-- --- ---- --- ------ ----- ------- ---- -- --- ------- --<br>------- ---------- bonds. -- ----- -- ----- -- ---- ------<br>--- ----- --- --- ------ -------- ----- --- ------ ----- --<br>----- ----- ---------- --- --- ------ ------ ---- -- ------<br>------- --- ------ ----- --- ---- ------- -- ---- --- --<br>------- ------,185905.5,185902.29999998212,184490.989,184493.69999998808,184507.656,185907.684,,14,bonds.
screen,html.Screen,2_1_1_1_15,2022-05-02T10:17:58.224Z,,,,,,,,,,,,,,,,,54,,,,,,,,,,,,,,447.5159999880707,,response,,,,100,,,,,,,Space,keypress(Space),,,,,,,,-- --- ---- --- ------ ----- ------- ---- -- --- ------- --<br>------- ---------- ------ In ----- -- ----- -- ---- ------<br>--- ----- --- --- ------ -------- ----- --- ------ ----- --<br>----- ----- ---------- --- --- ------ ------ ---- -- ------<br>------- --- ------ ----- --- ---- ------- -- ---- --- --<br>------- ------,186358.39999997616,186355.19999998808,185891.017,185905.59999999404,185907.684,186374.36,,15,In
screen,html.Screen,2_1_1_1_16,2022-05-02T10:17:59.479Z,,,,,,,,,,,,,,,,,54,,,,,,,,,,,,,,1234.7399999940535,,response,,,,100,,,,,,,Space,keypress(Space),,,,,,,,"-- --- ---- --- ------ ----- ------- ---- -- --- ------- --<br>------- ---------- ------ -- 1727, -- ----- -- ---- ------<br>--- ----- --- --- ------ -------- ----- --- ------ ----- --<br>----- ----- ---------- --- --- ------ ------ ---- -- ------<br>------- --- ------ ----- --- ---- ------- -- ---- --- --<br>------- ------",187613.29999998212,187609.09999999404,186357.693,186358.5,186374.36,187624.385,,16,"1727,"
screen,html.Screen,2_1_1_1_17,2022-05-02T10:17:59.983Z,,,,,,,,,,,,,,,,,54,,,,,,,,,,,,,,489.7149999940302,,response,,,,100,,,,,,,Space,keypress(Space),,,,,,,,-- --- ---- --- ------ ----- ------- ---- -- --- ------- --<br>------- ---------- ------ -- ----- in ----- -- ---- ------<br>--- ----- --- --- ------ -------- ----- --- ------ ----- --<br>----- ----- ---------- --- --- ------ ------ ---- -- ------<br>------- --- ------ ----- --- ---- ------- -- ---- --- --<br>------- ------,188117.19999998808,188114.09999999404,187607.718,187613.5,187624.385,188124.395,,17,in
screen,html.Screen,2_1_1_1_18,2022-05-02T10:18:00.477Z,,,,,,,,,,,,,,,,,54,,,,,,,,,,,,,,482.6050000000105,,response,,,,100,,,,,,,Space,keypress(Space),,,,,,,,-- --- ---- --- ------ ----- ------- ---- -- --- ------- --<br>------- ---------- ------ -- ----- -- order -- ---- ------<br>--- ----- --- --- ------ -------- ----- --- ------ ----- --<br>----- ----- ---------- --- --- ------ ------ ---- -- ------<br>------- --- ------ ----- --- ---- ------- -- ---- --- --<br>------- ------,188610.69999998808,188607,188107.728,188117.39999997616,188124.395,188624.405,,18,order
screen,html.Screen,2_1_1_1_19,2022-05-02T10:18:00.872Z,,,,,,,,,,,,,,,,,54,,,,,,,,,,,,,,378.59500000000116,,response,,,,100,,,,,,,Space,keypress(Space),,,,,,,,-- --- ---- --- ------ ----- ------- ---- -- --- ------- --<br>------- ---------- ------ -- ----- -- ----- to ---- ------<br>--- ----- --- --- ------ -------- ----- --- ------ ----- --<br>----- ----- ---------- --- --- ------ ------ ---- -- ------<br>------- --- ------ ----- --- ---- ------- -- ---- --- --<br>------- ------,189006.19999998808,189003,188607.738,188611,188624.405,189007.746,,19,to
screen,html.Screen,2_1_1_1_20,2022-05-02T10:18:01.386Z,,,,,,,,,,,,,,,,,54,,,,,,,,,,,,,,509.25399999998626,,response,,,,100,,,,,,,Space,keypress(Space),,,,,,,,-- --- ---- --- ------ ----- ------- ---- -- --- ------- --<br>------- ---------- ------ -- ----- -- ----- -- save ------<br>--- ----- --- --- ------ -------- ----- --- ------ ----- --<br>----- ----- ---------- --- --- ------ ------ ---- -- ------<br>------- --- ------ ----- --- ---- ------- -- ---- --- --<br>------- ------,189520.19999998808,189517,188991.079,189006.29999998212,189007.746,189524.423,,20,save
screen,html.Screen,2_1_1_1_21,2022-05-02T10:18:02.176Z,,,,,,,,,,,,,,,,,54,,,,,,,,,,,,,,782.5769999999902,,response,,,,100,,,,,,,Space,keypress(Space),,,,,,,,"-- --- ---- --- ------ ----- ------- ---- -- --- ------- --<br>------- ---------- ------ -- ----- -- ----- -- ---- money,<br>--- ----- --- --- ------ -------- ----- --- ------ ----- --<br>----- ----- ---------- --- --- ------ ------ ---- -- ------<br>------- --- ------ ----- --- ---- ------- -- ---- --- --<br>------- ------",190310.09999999404,190307,189507.756,189520.29999998212,189524.423,190324.439,,21,"money,"
screen,html.Screen,2_1_1_1_22,2022-05-02T10:18:02.587Z,,,,,,,,,,,,,,,,,54,,,,,,,,,,,,,,393.36099998210557,,response,,,,100,,,,,,,Space,keypress(Space),,,,,,,,-- --- ---- --- ------ ----- ------- ---- -- --- ------- --<br>------- ---------- ------ -- ----- -- ----- -- ---- ------<br>the ----- --- --- ------ -------- ----- --- ------ ----- --<br>----- ----- ---------- --- --- ------ ------ ---- -- ------<br>------- --- ------ ----- --- ---- ------- -- ---- --- --<br>------- ------,190721.09999999404,190717.79999998212,190307.772,190310.29999998212,190324.439,190724.447,,22,the
screen,html.Screen,2_1_1_1_23,2022-05-02T10:18:02.990Z,,,,,,,,,,,,,,,,,54,,,,,,,,,,,,,,396.4529999761726,,response,,,,100,,,,,,,Space,keypress(Space),,,,,,,,-- --- ---- --- ------ ----- ------- ---- -- --- ------- --<br>------- ---------- ------ -- ----- -- ----- -- ---- ------<br>--- state --- --- ------ -------- ----- --- ------ ----- --<br>----- ----- ---------- --- --- ------ ------ ---- -- ------<br>------- --- ------ ----- --- ---- ------- -- ---- --- --<br>------- ------,191124,191120.89999997616,190707.78,190721.29999998212,190724.447,191125.001,,23,state
screen,html.Screen,2_1_1_1_24,2022-05-02T10:18:03.393Z,,,,,,,,,,,,,,,,,54,,,,,,,,,,,,,,398.89899997616885,,response,,,,100,,,,,,,Space,keypress(Space),,,,,,,,-- --- ---- --- ------ ----- ------- ---- -- --- ------- --<br>------- ---------- ------ -- ----- -- ----- -- ---- ------<br>--- ----- cut --- ------ -------- ----- --- ------ ----- --<br>----- ----- ---------- --- --- ------ ------ ---- -- ------<br>------- --- ------ ----- --- ---- ------- -- ---- --- --<br>------- ------,191527.09999999404,191523.89999997616,191108.334,191124.19999998808,191125.001,191541.676,,24,cut
screen,html.Screen,2_1_1_1_25,2022-05-02T10:18:03.794Z,,,,,,,,,,,,,,,,,54,,,,,,,,,,,,,,383.32399999999325,,response,,,,100,,,,,,,Space,keypress(Space),,,,,,,,-- --- ---- --- ------ ----- ------- ---- -- --- ------- --<br>------- ---------- ------ -- ----- -- ----- -- ---- ------<br>--- ----- --- the ------ -------- ----- --- ------ ----- --<br>----- ----- ---------- --- --- ------ ------ ---- -- ------<br>------- --- ------ ----- --- ---- ------- -- ---- --- --<br>------- ------,191928.19999998808,191925,191525.009,191527.29999998212,191541.676,191941.684,,25,the
screen,html.Screen,2_1_1_1_26,2022-05-02T10:18:04.201Z,,,,,,,,,,,,,,,,,54,,,,,,,,,,,,,,390.1159999821102,,response,,,,100,,,,,,,Space,keypress(Space),,,,,,,,-- --- ---- --- ------ ----- ------- ---- -- --- ------- --<br>------- ---------- ------ -- ----- -- ----- -- ---- ------<br>--- ----- --- --- bonds' -------- ----- --- ------ ----- --<br>----- ----- ---------- --- --- ------ ------ ---- -- ------<br>------- --- ------ ----- --- ---- ------- -- ---- --- --<br>------- ------,192335,192331.79999998212,191925.017,191928.39999997616,191941.684,192341.692,,26,bonds'
screen,html.Screen,2_1_1_1_27,2022-05-02T10:18:04.717Z,,,,,,,,,,,,,,,,,54,,,,,,,,,,,,,,506.1079999821086,,response,,,,100,,,,,,,Space,keypress(Space),,,,,,,,-- --- ---- --- ------ ----- ------- ---- -- --- ------- --<br>------- ---------- ------ -- ----- -- ----- -- ---- ------<br>--- ----- --- --- ------ interest ----- --- ------ ----- --<br>----- ----- ---------- --- --- ------ ------ ---- -- ------<br>------- --- ------ ----- --- ---- ------- -- ---- --- --<br>------- ------,192850.79999998212,192847.79999998212,192325.025,192335.09999999404,192341.692,192858.369,,27,interest
screen,html.Screen,2_1_1_1_28,2022-05-02T10:18:05.819Z,,,,,,,,,,,,,,,,,54,,,,,,,,,,,,,,1091.4309999821126,,response,,,,100,,,,,,,Space,keypress(Space),,,,,,,,-- --- ---- --- ------ ----- ------- ---- -- --- ------- --<br>------- ---------- ------ -- ----- -- ----- -- ---- ------<br>--- ----- --- --- ------ -------- rate. --- ------ ----- --<br>----- ----- ---------- --- --- ------ ------ ---- -- ------<br>------- --- ------ ----- --- ---- ------- -- ---- --- --<br>------- ------,193952.89999997616,193949.79999998212,192841.702,192851.09999999404,192858.369,193958.391,,28,rate.
screen,html.Screen,2_1_1_1_29,2022-05-02T10:18:06.253Z,,,,,,,,,,,,,,,,,54,,,,,,,,,,,,,,425.3089999880758,,response,,,,100,,,,,,,Space,keypress(Space),,,,,,,,-- --- ---- --- ------ ----- ------- ---- -- --- ------- --<br>------- ---------- ------ -- ----- -- ----- -- ---- ------<br>--- ----- --- --- ------ -------- ----- The ------ ----- --<br>----- ----- ---------- --- --- ------ ------ ---- -- ------<br>------- --- ------ ----- --- ---- ------- -- ---- --- --<br>------- ------,194386.79999998212,194383.69999998808,193941.724,193953,193958.391,194391.733,,29,The
screen,html.Screen,2_1_1_1_30,2022-05-02T10:18:06.694Z,,,,,,,,,,,,,,,,,54,,,,,,,,,,,,,,432.9669999880716,,response,,,,100,,,,,,,Space,keypress(Space),,,,,,,,-- --- ---- --- ------ ----- ------- ---- -- --- ------- --<br>------- ---------- ------ -- ----- -- ----- -- ---- ------<br>--- ----- --- --- ------ -------- ----- --- market ----- --<br>----- ----- ---------- --- --- ------ ------ ---- -- ------<br>------- --- ------ ----- --- ---- ------- -- ---- --- --<br>------- ------,194827.89999997616,194824.69999998808,194375.066,194387,194391.733,194841.742,,30,market
screen,html.Screen,2_1_1_1_31,2022-05-02T10:18:07.183Z,,,,,,,,,,,,,,,,,54,,,,,,,,,,,,,,471.9579999880807,,response,,,,100,,,,,,,Space,keypress(Space),,,,,,,,-- --- ---- --- ------ ----- ------- ---- -- --- ------- --<br>------- ---------- ------ -- ----- -- ----- -- ---- ------<br>--- ----- --- --- ------ -------- ----- --- ------ value --<br>----- ----- ---------- --- --- ------ ------ ---- -- ------<br>------- --- ------ ----- --- ---- ------- -- ---- --- --<br>------- ------,195316.79999998212,195313.69999998808,194825.075,194828,194841.742,195325.085,,31,value
screen,html.Screen,2_1_1_1_32,2022-05-02T10:18:07.665Z,,,,,,,,,,,,,,,,,54,,,,,,,,,,,,,,470.5149999940477,,response,,,,100,,,,,,,Space,keypress(Space),,,,,,,,-- --- ---- --- ------ ----- ------- ---- -- --- ------- --<br>------- ---------- ------ -- ----- -- ----- -- ---- ------<br>--- ----- --- --- ------ -------- ----- --- ------ ----- of<br>----- ----- ---------- --- --- ------ ------ ---- -- ------<br>------- --- ------ ----- --- ---- ------- -- ---- --- --<br>------- ------,195798.89999997616,195795.59999999404,195308.418,195317,195325.085,195808.428,,32,of
screen,html.Screen,2_1_1_1_33,2022-05-02T10:18:08.121Z,,,,,,,,,,,,,,,,,54,,,,,,,,,,,,,,443.1719999940251,,response,,,,100,,,,,,,Space,keypress(Space),,,,,,,,-- --- ---- --- ------ ----- ------- ---- -- --- ------- --<br>------- ---------- ------ -- ----- -- ----- -- ---- ------<br>--- ----- --- --- ------ -------- ----- --- ------ ----- --<br>these ----- ---------- --- --- ------ ------ ---- -- ------<br>------- --- ------ ----- --- ---- ------- -- ---- --- --<br>------- ------,196254.59999999404,196251.59999999404,195791.761,195799,195808.428,196258.437,,33,these
screen,html.Screen,2_1_1_1_34,2022-05-02T10:18:08.514Z,,,,,,,,,,,,,,,,,54,,,,,,,,,,,,,,386.1629999940342,,response,,,,100,,,,,,,Space,keypress(Space),,,,,,,,-- --- ---- --- ------ ----- ------- ---- -- --- ------- --<br>------- ---------- ------ -- ----- -- ----- -- ---- ------<br>--- ----- --- --- ------ -------- ----- --- ------ ----- --<br>----- bonds ---------- --- --- ------ ------ ---- -- ------<br>------- --- ------ ----- --- ---- ------- -- ---- --- --<br>------- ------,196647.59999999404,196644.59999999404,196241.77,196254.79999998212,196258.437,196658.445,,34,bonds
screen,html.Screen,2_1_1_1_35,2022-05-02T10:18:09.392Z,,,,,,,,,,,,,,,,,54,,,,,,,,,,,,,,864.1549999940326,,response,,,,100,,,,,,,Space,keypress(Space),,,,,,,,"-- --- ---- --- ------ ----- ------- ---- -- --- ------- --<br>------- ---------- ------ -- ----- -- ----- -- ---- ------<br>--- ----- --- --- ------ -------- ----- --- ------ ----- --<br>----- ----- plummeted, --- --- ------ ------ ---- -- ------<br>------- --- ------ ----- --- ---- ------- -- ---- --- --<br>------- ------",197525.79999998212,197522.59999999404,196641.778,196647.79999998212,196658.445,197541.796,,35,"plummeted,"
screen,html.Screen,2_1_1_1_36,2022-05-02T10:18:09.806Z,,,,,,,,,,,,,,,,,54,,,,,,,,,,,,,,394.80399999403744,,response,,,,100,,,,,,,Space,keypress(Space),,,,,,,,-- --- ---- --- ------ ----- ------- ---- -- --- ------- --<br>------- ---------- ------ -- ----- -- ----- -- ---- ------<br>--- ----- --- --- ------ -------- ----- --- ------ ----- --<br>----- ----- ---------- and --- ------ ------ ---- -- ------<br>------- --- ------ ----- --- ---- ------- -- ---- --- --<br>------- ------,197940.39999997616,197936.59999999404,197525.129,197525.89999997616,197541.796,197941.804,,36,and
screen,html.Screen,2_1_1_1_37,2022-05-02T10:18:10.168Z,,,,,,,,,,,,,,,,,54,,,,,,,,,,,,,,356.6959999999963,,response,,,,100,,,,,,,Space,keypress(Space),,,,,,,,-- --- ---- --- ------ ----- ------- ---- -- --- ------- --<br>------- ---------- ------ -- ----- -- ----- -- ---- ------<br>--- ----- --- --- ------ -------- ----- --- ------ ----- --<br>----- ----- ---------- --- the ------ ------ ---- -- ------<br>------- --- ------ ----- --- ---- ------- -- ---- --- --<br>------- ------,198301.59999999404,198298.5,197925.137,197940.59999999404,197941.804,198308.478,,37,the
screen,html.Screen,2_1_1_1_38,2022-05-02T10:18:10.623Z,,,,,,,,,,,,,,,,,54,,,,,,,,,,,,,,444.92199997615535,,response,,,,100,,,,,,,Space,keypress(Space),,,,,,,,-- --- ---- --- ------ ----- ------- ---- -- --- ------- --<br>------- ---------- ------ -- ----- -- ----- -- ---- ------<br>--- ----- --- --- ------ -------- ----- --- ------ ----- --<br>----- ----- ---------- --- --- market ------ ---- -- ------<br>------- --- ------ ----- --- ---- ------- -- ---- --- --<br>------- ------,198757,198753.39999997616,198291.811,198301.69999998808,198308.478,198758.487,,38,market
screen,html.Screen,2_1_1_1_39,2022-05-02T10:18:11.268Z,,,,,,,,,,,,,,,,,54,,,,,,,,,,,,,,639.9129999761644,,response,,,,100,,,,,,,Space,keypress(Space),,,,,,,,-- --- ---- --- ------ ----- ------- ---- -- --- ------- --<br>------- ---------- ------ -- ----- -- ----- -- ---- ------<br>--- ----- --- --- ------ -------- ----- --- ------ ----- --<br>----- ----- ---------- --- --- ------ became ---- -- ------<br>------- --- ------ ----- --- ---- ------- -- ---- --- --<br>------- ------,199401.69999998808,199398.39999997616,198741.82,198757.19999998808,198758.487,199408.5,,39,became
screen,html.Screen,2_1_1_1_40,2022-05-02T10:18:11.797Z,,,,,,,,,,,,,,,,,54,,,,,,,,,,,,,,518.8999999761581,,response,,,,100,,,,,,,Space,keypress(Space),,,,,,,,-- --- ---- --- ------ ----- ------- ---- -- --- ------- --<br>------- ---------- ------ -- ----- -- ----- -- ---- ------<br>--- ----- --- --- ------ -------- ----- --- ------ ----- --<br>----- ----- ---------- --- --- ------ ------ wary -- ------<br>------- --- ------ ----- --- ---- ------- -- ---- --- --<br>------- ------,199930.69999998808,199927.39999997616,199391.833,199401.79999998212,199408.5,199941.844,,40,wary
screen,html.Screen,2_1_1_1_41,2022-05-02T10:18:12.210Z,,,,,,,,,,,,,,,,,54,,,,,,,,,,,,,,398.3559999880672,,response,,,,100,,,,,,,Space,keypress(Space),,,,,,,,-- --- ---- --- ------ ----- ------- ---- -- --- ------- --<br>------- ---------- ------ -- ----- -- ----- -- ---- ------<br>--- ----- --- --- ------ -------- ----- --- ------ ----- --<br>----- ----- ---------- --- --- ------ ------ ---- of ------<br>------- --- ------ ----- --- ---- ------- -- ---- --- --<br>------- ------,200343.39999997616,200340.19999998808,199925.177,199930.79999998212,199941.844,200358.519,,41,of
screen,html.Screen,2_1_1_1_42,2022-05-02T10:18:12.673Z,,,,,,,,,,,,,,,,,54,,,,,,,,,,,,,,444.8809999761579,,response,,,,100,,,,,,,Space,keypress(Space),,,,,,,,-- --- ---- --- ------ ----- ------- ---- -- --- ------- --<br>------- ---------- ------ -- ----- -- ----- -- ---- ------<br>--- ----- --- --- ------ -------- ----- --- ------ ----- --<br>----- ----- ---------- --- --- ------ ------ ---- -- French<br>------- --- ------ ----- --- ---- ------- -- ---- --- --<br>------- ------,200806.39999997616,200803.39999997616,200341.852,200343.59999999404,200358.519,200808.528,,42,French
screen,html.Screen,2_1_1_1_43,2022-05-02T10:18:13.847Z,,,,,,,,,,,,,,,,,54,,,,,,,,,,,,,,1169.671999988088,,response,,,,100,,,,,,,Space,keypress(Space),,,,,,,,-- --- ---- --- ------ ----- ------- ---- -- --- ------- --<br>------- ---------- ------ -- ----- -- ----- -- ---- ------<br>--- ----- --- --- ------ -------- ----- --- ------ ----- --<br>----- ----- ---------- --- --- ------ ------ ---- -- ------<br>credit. --- ------ ----- --- ---- ------- -- ---- --- --<br>------- ------,201981.29999998212,201978.19999998808,200791.861,200806.59999999404,200808.528,201992.318,,43,credit.
screen,html.Screen,2_1_1_1_44,2022-05-02T10:18:14.256Z,,,,,,,,,,,,,,,,,54,,,,,,,,,,,,,,393.88199998807977,,response,,,,100,,,,,,,Space,keypress(Space),,,,,,,,-- --- ---- --- ------ ----- ------- ---- -- --- ------- --<br>------- ---------- ------ -- ----- -- ----- -- ---- ------<br>--- ----- --- --- ------ -------- ----- --- ------ ----- --<br>----- ----- ---------- --- --- ------ ------ ---- -- ------<br>------- The ------ ----- --- ---- ------- -- ---- --- --<br>------- ------,202389.5,202386.19999998808,201975.651,201981.5,201992.318,202392.326,,44,The
screen,html.Screen,2_1_1_1_45,2022-05-02T10:18:14.690Z,,,,,,,,,,,,,,,,,54,,,,,,,,,,,,,,427.9739999821177,,response,,,,100,,,,,,,Space,keypress(Space),,,,,,,,-- --- ---- --- ------ ----- ------- ---- -- --- ------- --<br>------- ---------- ------ -- ----- -- ----- -- ---- ------<br>--- ----- --- --- ------ -------- ----- --- ------ ----- --<br>----- ----- ---------- --- --- ------ ------ ---- -- ------<br>------- --- French ----- --- ---- ------- -- ---- --- --<br>------- ------,202823.5,202820.29999998212,202375.659,202389.69999998808,202392.326,202825.668,,45,French
screen,html.Screen,2_1_1_1_46,2022-05-02T10:18:15.108Z,,,,,,,,,,,,,,,,,54,,,,,,,,,,,,,,412.53199998807395,,response,,,,100,,,,,,,Space,keypress(Space),,,,,,,,-- --- ---- --- ------ ----- ------- ---- -- --- ------- --<br>------- ---------- ------ -- ----- -- ----- -- ---- ------<br>--- ----- --- --- ------ -------- ----- --- ------ ----- --<br>----- ----- ---------- --- --- ------ ------ ---- -- ------<br>------- --- ------ state --- ---- ------- -- ---- --- --<br>------- ------,203241.39999997616,203238.19999998808,202809.001,202823.69999998808,202825.668,203242.343,,46,state
screen,html.Screen,2_1_1_1_47,2022-05-02T10:18:15.326Z,,,,,,,,,,,,,,,,,54,,,,,,,,,,,,,,213.75699999404605,,response,,,,100,,,,,,,Space,keypress(Space),,,,,,,,-- --- ---- --- ------ ----- ------- ---- -- --- ------- --<br>------- ---------- ------ -- ----- -- ----- -- ---- ------<br>--- ----- --- --- ------ -------- ----- --- ------ ----- --<br>----- ----- ---------- --- --- ------ ------ ---- -- ------<br>------- --- ------ ----- was ---- ------- -- ---- --- --<br>------- ------,203459.29999998212,203456.09999999404,203225.676,203241.5,203242.343,203475.681,,47,was
screen,html.Screen,2_1_1_1_48,2022-05-02T10:18:16.253Z,,,,,,,,,,,,,,,,,54,,,,,,,,,,,,,,908.4189999940281,,response,,,,100,,,,,,,Space,keypress(Space),,,,,,,,-- --- ---- --- ------ ----- ------- ---- -- --- ------- --<br>------- ---------- ------ -- ----- -- ----- -- ---- ------<br>--- ----- --- --- ------ -------- ----- --- ------ ----- --<br>----- ----- ---------- --- --- ------ ------ ---- -- ------<br>------- --- ------ ----- --- left ------- -- ---- --- --<br>------- ------,204387.19999998808,204384.09999999404,203459.014,203459.5,203475.681,204392.366,,48,left
screen,html.Screen,2_1_1_1_49,2022-05-02T10:18:16.632Z,,,,,,,,,,,,,,,,,54,,,,,,,,,,,,,,369.73399999403046,,response,,,,100,,,,,,,Space,keypress(Space),,,,,,,,-- --- ---- --- ------ ----- ------- ---- -- --- ------- --<br>------- ---------- ------ -- ----- -- ----- -- ---- ------<br>--- ----- --- --- ------ -------- ----- --- ------ ----- --<br>----- ----- ---------- --- --- ------ ------ ---- -- ------<br>------- --- ------ ----- --- ---- without -- ---- --- --<br>------- ------,204765.29999998212,204762.09999999404,204375.699,204387.39999997616,204392.366,204775.707,,49,without
screen,html.Screen,2_1_1_1_50,2022-05-02T10:18:17.048Z,,,,,,,,,,,,,,,,,54,,,,,,,,,,,,,,403.39299999404466,,response,,,,100,,,,,,,Space,keypress(Space),,,,,,,,-- --- ---- --- ------ ----- ------- ---- -- --- ------- --<br>------- ---------- ------ -- ----- -- ----- -- ---- ------<br>--- ----- --- --- ------ -------- ----- --- ------ ----- --<br>----- ----- ---------- --- --- ------ ------ ---- -- ------<br>------- --- ------ ----- --- ---- ------- an ---- --- --<br>------- ------,205182.09999999404,205179.09999999404,204759.04,204765.5,204775.707,205192.382,,50,an
screen,html.Screen,2_1_1_1_51,2022-05-02T10:18:17.359Z,,,,,,,,,,,,,,,,,54,,,,,,,,,,,,,,296.7179999940272,,response,,,,100,,,,,,,Space,keypress(Space),,,,,,,,-- --- ---- --- ------ ----- ------- ---- -- --- ------- --<br>------- ---------- ------ -- ----- -- ----- -- ---- ------<br>--- ----- --- --- ------ -------- ----- --- ------ ----- --<br>----- ----- ---------- --- --- ------ ------ ---- -- ------<br>------- --- ------ ----- --- ---- ------- -- easy --- --<br>------- ------,205492.29999998212,205489.09999999404,205175.715,205182.39999997616,205192.382,205509.055,,51,easy
screen,html.Screen,2_1_1_1_52,2022-05-02T10:18:17.719Z,,,,,,,,,,,,,,,,,54,,,,,,,,,,,,,,340.0449999940465,,response,,,,100,,,,,,,Space,keypress(Space),,,,,,,,-- --- ---- --- ------ ----- ------- ---- -- --- ------- --<br>------- ---------- ------ -- ----- -- ----- -- ---- ------<br>--- ----- --- --- ------ -------- ----- --- ------ ----- --<br>----- ----- ---------- --- --- ------ ------ ---- -- ------<br>------- --- ------ ----- --- ---- ------- -- ---- way --<br>------- ------,205852.39999997616,205849.09999999404,205492.388,205492.5,205509.055,205859.062,,52,way
screen,html.Screen,2_1_1_1_53,2022-05-02T10:18:18.070Z,,,,,,,,,,,,,,,,,54,,,,,,,,,,,,,,341.93799999999464,,response,,,,100,,,,,,,Space,keypress(Space),,,,,,,,-- --- ---- --- ------ ----- ------- ---- -- --- ------- --<br>------- ---------- ------ -- ----- -- ----- -- ---- ------<br>--- ----- --- --- ------ -------- ----- --- ------ ----- --<br>----- ----- ---------- --- --- ------ ------ ---- -- ------<br>------- --- ------ ----- --- ---- ------- -- ---- --- of<br>------- ------,206204.09999999404,206201,205842.395,205852.5,205859.062,206209.069,,53,of
screen,html.Screen,2_1_1_1_54,2022-05-02T10:18:18.718Z,,,,,,,,,,,,,,,,,54,,,,,,,,,,,,,,628.73099998213,,response,,,,100,,,,,,,Space,keypress(Space),,,,,,,,-- --- ---- --- ------ ----- ------- ---- -- --- ------- --<br>------- ---------- ------ -- ----- -- ----- -- ---- ------<br>--- ----- --- --- ------ -------- ----- --- ------ ----- --<br>----- ----- ---------- --- --- ------ ------ ---- -- ------<br>------- --- ------ ----- --- ---- ------- -- ---- --- --<br>raising ------,206852.19999998808,206837.79999998212,206192.402,206204.19999998808,206209.069,206875.749,,54,raising
screen,html.Screen,2_1_1_1_55,2022-05-02T10:18:19.432Z,,,,,,,,,,,,,,,,,54,,,,,,,,,,,,,,688.0509999821079,,response,,,,100,,,,,,,Space,keypress(Space),,,,,,,,-- --- ---- --- ------ ----- ------- ---- -- --- ------- --<br>------- ---------- ------ -- ----- -- ----- -- ---- ------<br>--- ----- --- --- ------ -------- ----- --- ------ ----- --<br>----- ----- ---------- --- --- ------ ------ ---- -- ------<br>------- --- ------ ----- --- ---- ------- -- ---- --- --<br>------- money.,207566.09999999404,207563.79999998212,206859.082,206852.19999998808,206875.749,207575.763,,55,money.
Item 100,flow.Loop,2_1_1_1,2022-05-02T10:18:19.433Z,,,,,,,,,,,,,,,,,,,,,,,,,,,,,,,29873.41399998212,,completion,,,,,E,,,,,,,,,,,silence,,,,,207566.39999997616,207563.79999998212,177673.719,177675.89999997616,177690.386,207575.763,,,
Question 1,html.Screen,2_1_1_2,2022-05-02T10:18:21.952Z,,,,,,,,,,,,,,,,,,,,,,,,,,,,true,TRUE,,2508.3369999940332,,response,,,,100,E,,,,,,TRUE,click #choice-1,,,,silence,,,,,210085.79999998212,210084.09999999404,207559.096,207566.5,207575.763,210092.48,,,
Question 2,html.Screen,2_1_1_3,2022-05-02T10:18:24.023Z,,,,,,,,,,,,,,,,,,,,,,,,,,,,true,FALSE,,2062.0199999999895,,response,,,,100,E,,,,,,FALSE,click #choice-2,,,,silence,,,,,212157,212154.5,210075.813,210085.89999997616,210092.48,212159.754,,,
Item 100,flow.Sequence,2_1_1,2022-05-02T10:18:24.024Z,,,,,,,,,,,,,,,,,,,,,,,,,,,,,,,44464.861999999994,,completion,,,,,,,,,,,,,,,,,,,,,212157.19999998808,212154.5,167672.971,167680.89999997616,167689.638,212159.754,,,
End of Practice,html.Page,2_1_2,2022-05-02T10:18:44.013Z,,,,,,,,,,,,,,,,,,,,,,,,,,,,,,,20000.400000000023,,timeout,,,,,,,,,,,,,,,,,,,,,232145.39999997616,232143.487,212143.087,212157.29999998212,212159.754,232160.154,,,
Practice,flow.Sequence,2_1,2022-05-02T10:18:44.013Z,,,,,,,,,,,,,,,,,,,,,,,,,,,,,,,113691.265,,completion,,,,,,,,,,,,,,,,,,,,,232145.69999998808,232143.487,118435.555,118449.19999998808,118452.222,232160.154,,,
Trap_instruction,html.Page,2_2_0,2022-05-02T10:18:51.517Z,,,,,,,,,,,,,,,,,,,,,,,,,,,,,,,7489.5459999880695,,form submission,,,,,,,,,,,,,,,,,,,,,239650.09999999404,239649.69999998808,232143.487,232145.79999998212,232160.154,239661.332,,,
trap_trial,html.Screen,2_2_1,2022-05-02T10:18:53.795Z,,,,,,,,,,,,,,,,,,,,,,,,,,,,true,1,,2263.9679999821237,,response,,,,,,,,,,,1,click #choice-1,,,,,,,,,241928,241925.29999998212,239644.665,239650.39999997616,239661.332,241928.044,,,
end of trap trial,html.Page,2_2_2,2022-05-02T10:19:01.744Z,,,,,,,,,,,,,,,,,,,,,,,,,,,,,,,7947.956000000006,,form submission,,,,,,,,,,,,,,,,,,,,,249876.39999997616,249876,241911.377,241928.29999998212,241928.044,249878.203,,,
Trap 1,flow.Sequence,2_2,2022-05-02T10:19:01.744Z,,,,,,,,,,,,,,,,,,,,,,,,,,,,,,,17715.84599999999,,completion,,,,,,,,,,,,,,,,,,,,,249876.69999998808,249876,232143.487,232145.79999998212,232160.154,249878.203,,,
Standby,html.Page,2_3_0,2022-05-02T10:19:09.732Z,,,,,,,,,,,,,,,,,,,,,,,,,,,,,,,8000.731,,timeout,,,,,,,,,,,,,,,,,,,,,257864.5,257862.267,249861.536,249876.89999997616,249878.203,257878.934,,,
Holding screen,html.Screen,2_3_1_0_0,2022-05-02T10:19:16.734Z,,,,,,,,,,,,,,,,,,,,,,,,,,,,,,,7000.864000000001,,timeout,,,,,,,,,,,,,,,,,,,,,264865.6999999881,264863.131,257862.267,257864.69999998808,257878.934,264879.798,,,
screen,html.Screen,2_3_1_0_1_0,2022-05-02T10:19:17.850Z,,,,,,,,,,,,,,,,,19,,,,,,,,,,,,,,1097.9019999880693,,response,,,,17,E,,,,,,Space,keypress(Space),,,,silence,,,,"Interestingly, --- -------- -------- ---------- ---- -------<br>-- ---------- -- --- ----- ------ ----- ---- --------- ----<br>------- ------ -------- -- ------ ---------- ------ ---<br>------ -- -- ---- -- ---------- -------- ------ ---- -------<br>---- --- --------- ------- ----- --------- ---- ----- --<br>------ -------- -- ------ -- ---- ------------",265982.09999999404,265977.6999999881,264863.131,264865.89999997616,264879.798,265996.487,,0,"Interestingly,"
screen,html.Screen,2_3_1_0_1_1,2022-05-02T10:19:18.568Z,,,,,,,,,,,,,,,,,19,,,,,,,,,,,,,,700.0129999999772,,response,,,,17,E,,,,,,Space,keypress(Space),,,,silence,,,,-------------- the -------- -------- ---------- ---- -------<br>-- ---------- -- --- ----- ------ ----- ---- --------- ----<br>------- ------ -------- -- ------ ---------- ------ ---<br>------ -- -- ---- -- ---------- -------- ------ ---- -------<br>---- --- --------- ------- ----- --------- ---- ----- --<br>------ -------- -- ------ -- ---- ------------,266699.7999999821,266696.5,265979.82,265982.2999999821,265996.487,266713.168,,1,the
screen,html.Screen,2_3_1_0_1_2,2022-05-02T10:19:19.193Z,,,,,,,,,,,,,,,,,19,,,,,,,,,,,,,,609.1319999821135,,response,,,,17,E,,,,,,Space,keypress(Space),,,,silence,,,,-------------- --- heaviest -------- ---------- ---- -------<br>-- ---------- -- --- ----- ------ ----- ---- --------- ----<br>------- ------ -------- -- ------ ---------- ------ ---<br>------ -- -- ---- -- ---------- -------- ------ ---- -------<br>---- --- --------- ------- ----- --------- ---- ----- --<br>------ -------- -- ------ -- ---- ------------,267324.7999999821,267322.2999999821,266696.501,266700.09999999404,266713.168,267329.847,,2,heaviest
screen,html.Screen,2_3_1_0_1_3,2022-05-02T10:19:19.712Z,,,,,,,,,,,,,,,,,19,,,,,,,,,,,,,,511.3529999880702,,response,,,,17,E,,,,,,Space,keypress(Space),,,,silence,,,,-------------- --- -------- isotopes ---------- ---- -------<br>-- ---------- -- --- ----- ------ ----- ---- --------- ----<br>------- ------ -------- -- ------ ---------- ------ ---<br>------ -- -- ---- -- ---------- -------- ------ ---- -------<br>---- --- --------- ------- ----- --------- ---- ----- --<br>------ -------- -- ------ -- ---- ------------,267843.39999997616,267841.1999999881,267313.18,267324.7999999821,267329.847,267846.524,,3,isotopes
screen,html.Screen,2_3_1_0_1_4,2022-05-02T10:19:20.433Z,,,,,,,,,,,,,,,,,19,,,,,,,,,,,,,,716.2759999821428,,response,,,,17,E,,,,,,Space,keypress(Space),,,,silence,,,,-------------- --- -------- -------- physicists ---- -------<br>-- ---------- -- --- ----- ------ ----- ---- --------- ----<br>------- ------ -------- -- ------ ---------- ------ ---<br>------ -- -- ---- -- ---------- -------- ------ ---- -------<br>---- --- --------- ------- ----- --------- ---- ----- --<br>------ -------- -- ------ -- ---- ------------,268565.09999999404,268562.7999999821,267829.857,267843.39999997616,267846.524,268579.872,,4,physicists
screen,html.Screen,2_3_1_0_1_5,2022-05-02T10:19:20.852Z,,,,,,,,,,,,,,,,,19,,,,,,,,,,,,,,402.32799998810515,,response,,,,17,E,,,,,,Space,keypress(Space),,,,silence,,,,-------------- --- -------- -------- ---------- have -------<br>-- ---------- -- --- ----- ------ ----- ---- --------- ----<br>------- ------ -------- -- ------ ---------- ------ ---<br>------ -- -- ---- -- ---------- -------- ------ ---- -------<br>---- --- --------- ------- ----- --------- ---- ----- --<br>------ -------- -- ------ -- ---- ------------,268984,268982.1999999881,268563.205,268565.2999999821,268579.872,268996.547,,5,have
screen,html.Screen,2_3_1_0_1_6,2022-05-02T10:19:21.509Z,,,,,,,,,,,,,,,,,19,,,,,,,,,,,,,,640.8529999761377,,response,,,,17,E,,,,,,Space,keypress(Space),,,,silence,,,,-------------- --- -------- -------- ---------- ---- managed<br>-- ---------- -- --- ----- ------ ----- ---- --------- ----<br>------- ------ -------- -- ------ ---------- ------ ---<br>------ -- -- ---- -- ---------- -------- ------ ---- -------<br>---- --- --------- ------- ----- --------- ---- ----- --<br>------ -------- -- ------ -- ---- ------------,269640.5,269637.39999997616,268979.88,268984.09999999404,268996.547,269647.084,,6,managed
screen,html.Screen,2_3_1_0_1_7,2022-05-02T10:19:21.880Z,,,,,,,,,,,,,,,,,19,,,,,,,,,,,,,,361.21599998214515,,response,,,,17,E,,,,,,Space,keypress(Space),,,,silence,,,,-------------- --- -------- -------- ---------- ---- -------<br>to ---------- -- --- ----- ------ ----- ---- --------- ----<br>------- ------ -------- -- ------ ---------- ------ ---<br>------ -- -- ---- -- ---------- -------- ------ ---- -------<br>---- --- --------- ------- ----- --------- ---- ----- --<br>------ -------- -- ------ -- ---- ------------,270011.5,270008.2999999821,269630.417,269640.59999999404,269647.084,270013.758,,7,to
screen,html.Screen,2_3_1_0_1_8,2022-05-02T10:19:22.582Z,,,,,,,,,,,,,,,,,19,,,,,,,,,,,,,,696.5419999821461,,response,,,,17,E,,,,,,Space,keypress(Space),,,,silence,,,,-------------- --- -------- -------- ---------- ---- -------<br>-- synthesize -- --- ----- ------ ----- ---- --------- ----<br>------- ------ -------- -- ------ ---------- ------ ---<br>------ -- -- ---- -- ---------- -------- ------ ---- -------<br>---- --- --------- ------- ----- --------- ---- ----- --<br>------ -------- -- ------ -- ---- ------------,270713.39999997616,270710.2999999821,269997.091,270011.7999999821,270013.758,270730.439,,8,synthesize
screen,html.Screen,2_3_1_0_1_9,2022-05-02T10:19:23.016Z,,,,,,,,,,,,,,,,,19,,,,,,,,,,,,,,413.76099998806603,,response,,,,17,E,,,,,,Space,keypress(Space),,,,silence,,,,-------------- --- -------- -------- ---------- ---- -------<br>-- ---------- so --- ----- ------ ----- ---- --------- ----<br>------- ------ -------- -- ------ ---------- ------ ---<br>------ -- -- ---- -- ---------- -------- ------ ---- -------<br>---- --- --------- ------- ----- --------- ---- ----- --<br>------ -------- -- ------ -- ---- ------------,271147.39999997616,271144.1999999881,270713.772,270713.59999999404,270730.439,271163.781,,9,so
screen,html.Screen,2_3_1_0_1_10,2022-05-02T10:19:23.436Z,,,,,,,,,,,,,,,,,19,,,,,,,,,,,,,,400.8189999940223,,response,,,,17,E,,,,,,Space,keypress(Space),,,,silence,,,,-------------- --- -------- -------- ---------- ---- -------<br>-- ---------- -- far ----- ------ ----- ---- --------- ----<br>------- ------ -------- -- ------ ---------- ------ ---<br>------ -- -- ---- -- ---------- -------- ------ ---- -------<br>---- --- --------- ------- ----- --------- ---- ----- --<br>------ -------- -- ------ -- ---- ------------,271567.7999999821,271564.59999999404,271147.114,271147.5,271163.781,271580.456,,10,far
screen,html.Screen,2_3_1_0_1_11,2022-05-02T10:19:24.054Z,,,,,,,,,,,,,,,,,19,,,,,,,,,,,,,,601.7439999880735,,response,,,,17,E,,,,,,Space,keypress(Space),,,,silence,,,,-------------- --- -------- -------- ---------- ---- -------<br>-- ---------- -- --- don't ------ ----- ---- --------- ----<br>------- ------ -------- -- ------ ---------- ------ ---<br>------ -- -- ---- -- ---------- -------- ------ ---- -------<br>---- --- --------- ------- ----- --------- ---- ----- --<br>------ -------- -- ------ -- ---- ------------,272185.5,272182.1999999881,271563.789,271568,271580.456,272197.135,,11,don't
screen,html.Screen,2_3_1_0_1_12,2022-05-02T10:19:24.505Z,,,,,,,,,,,,,,,,,19,,,,,,,,,,,,,,435.8649999999907,,response,,,,17,E,,,,,,Space,keypress(Space),,,,silence,,,,-------------- --- -------- -------- ---------- ---- -------<br>-- ---------- -- --- ----- behave ----- ---- --------- ----<br>------- ------ -------- -- ------ ---------- ------ ---<br>------ -- -- ---- -- ---------- -------- ------ ---- -------<br>---- --- --------- ------- ----- --------- ---- ----- --<br>------ -------- -- ------ -- ---- ------------,272636.1999999881,272633,272180.468,272185.59999999404,272197.135,272647.144,,12,behave
screen,html.Screen,2_3_1_0_1_13,2022-05-02T10:19:24.901Z,,,,,,,,,,,,,,,,,19,,,,,,,,,,,,,,381.9559999940684,,response,,,,17,E,,,,,,Space,keypress(Space),,,,silence,,,,-------------- --- -------- -------- ---------- ---- -------<br>-- ---------- -- --- ----- ------ quite ---- --------- ----<br>------- ------ -------- -- ------ ---------- ------ ---<br>------ -- -- ---- -- ---------- -------- ------ ---- -------<br>---- --- --------- ------- ----- --------- ---- ----- --<br>------ -------- -- ------ -- ---- ------------,273032.39999997616,273029.09999999404,272630.477,272636.39999997616,272647.144,273047.152,,13,quite
screen,html.Screen,2_3_1_0_1_14,2022-05-02T10:19:25.292Z,,,,,,,,,,,,,,,,,19,,,,,,,,,,,,,,372.9479999940377,,response,,,,17,E,,,,,,Space,keypress(Space),,,,silence,,,,-------------- --- -------- -------- ---------- ---- -------<br>-- ---------- -- --- ----- ------ ----- like --------- ----<br>------- ------ -------- -- ------ ---------- ------ ---<br>------ -- -- ---- -- ---------- -------- ------ ---- -------<br>---- --- --------- ------- ----- --------- ---- ----- --<br>------ -------- -- ------ -- ---- ------------,273423.2999999821,273420.09999999404,273030.485,273032.5,273047.152,273430.493,,14,like
screen,html.Screen,2_3_1_0_1_15,2022-05-02T10:19:25.810Z,,,,,,,,,,,,,,,,,19,,,,,,,,,,,,,,507.6069999940228,,response,,,,17,E,,,,,,Space,keypress(Space),,,,silence,,,,-------------- --- -------- -------- ---------- ---- -------<br>-- ---------- -- --- ----- ------ ----- ---- science's ----<br>------- ------ -------- -- ------ ---------- ------ ---<br>------ -- -- ---- -- ---------- -------- ------ ---- -------<br>---- --- --------- ------- ----- --------- ---- ----- --<br>------ -------- -- ------ -- ---- ------------,273941.39999997616,273938.09999999404,273413.826,273423.39999997616,273430.493,273947.17,,15,science's
screen,html.Screen,2_3_1_0_1_16,2022-05-02T10:19:26.332Z,,,,,,,,,,,,,,,,,19,,,,,,,,,,,,,,512.9299999940558,,response,,,,17,E,,,,,,Space,keypress(Space),,,,silence,,,,-------------- --- -------- -------- ---------- ---- -------<br>-- ---------- -- --- ----- ------ ----- ---- --------- best<br>------- ------ -------- -- ------ ---------- ------ ---<br>------ -- -- ---- -- ---------- -------- ------ ---- -------<br>---- --- --------- ------- ----- --------- ---- ----- --<br>------ -------- -- ------ -- ---- ------------,274463.2999999821,274460.09999999404,273930.503,273941.5,273947.17,274480.514,,16,best
screen,html.Screen,2_3_1_0_1_17,2022-05-02T10:19:26.771Z,,,,,,,,,,,,,,,,,19,,,,,,,,,,,,,,418.4859999999753,,response,,,,17,E,,,,,,Space,keypress(Space),,,,silence,,,,-------------- --- -------- -------- ---------- ---- -------<br>-- ---------- -- --- ----- ------ ----- ---- --------- ----<br>current ------ -------- -- ------ ---------- ------ ---<br>------ -- -- ---- -- ---------- -------- ------ ---- -------<br>---- --- --------- ------- ----- --------- ---- ----- --<br>------ -------- -- ------ -- ---- ------------,274902.1999999881,274899,274463.847,274463.5,274480.514,274913.856,,17,current
screen,html.Screen,2_3_1_0_1_18,2022-05-02T10:19:27.269Z,,,,,,,,,,,,,,,,,19,,,,,,,,,,,,,,483.14399999997113,,response,,,,17,E,,,,,,Space,keypress(Space),,,,silence,,,,-------------- --- -------- -------- ---------- ---- -------<br>-- ---------- -- --- ----- ------ ----- ---- --------- ----<br>------- models -------- -- ------ ---------- ------ ---<br>------ -- -- ---- -- ---------- -------- ------ ---- -------<br>---- --- --------- ------- ----- --------- ---- ----- --<br>------ -------- -- ------ -- ---- ------------,275400.39999997616,275397,274897.189,274902.39999997616,274913.856,275413.866,,18,models
screen,html.Screen,2_3_1_0_1_19,2022-05-02T10:19:28.226Z,,,,,,,,,,,,,,,,,19,,,,,,,,,,,,,,940.13400000002,,response,,,,17,E,,,,,,Space,keypress(Space),,,,silence,,,,"-------------- --- -------- -------- ---------- ---- -------<br>-- ---------- -- --- ----- ------ ----- ---- --------- ----<br>------- ------ predict, -- ------ ---------- ------ ---<br>------ -- -- ---- -- ---------- -------- ------ ---- -------<br>---- --- --------- ------- ----- --------- ---- ----- --<br>------ -------- -- ------ -- ---- ------------",276357.5,276354,275397.199,275400.5,275413.866,276363.885,,19,"predict,"
screen,html.Screen,2_3_1_0_1_20,2022-05-02T10:19:28.751Z,,,,,,,,,,,,,,,,,19,,,,,,,,,,,,,,515.1149999999907,,response,,,,17,E,,,,,,Space,keypress(Space),,,,silence,,,,-------------- --- -------- -------- ---------- ---- -------<br>-- ---------- -- --- ----- ------ ----- ---- --------- ----<br>------- ------ -------- so ------ ---------- ------ ---<br>------ -- -- ---- -- ---------- -------- ------ ---- -------<br>---- --- --------- ------- ----- --------- ---- ----- --<br>------ -------- -- ------ -- ---- ------------,276882.1999999881,276879,276347.218,276357.6999999881,276363.885,276897.229,,20,so
screen,html.Screen,2_3_1_0_1_21,2022-05-02T10:19:29.400Z,,,,,,,,,,,,,,,,,19,,,,,,,,,,,,,,630.6709999761661,,response,,,,17,E,,,,,,Space,keypress(Space),,,,silence,,,,-------------- --- -------- -------- ---------- ---- -------<br>-- ---------- -- --- ----- ------ ----- ---- --------- ----<br>------- ------ -------- -- stable ---------- ------ ---<br>------ -- -- ---- -- ---------- -------- ------ ---- -------<br>---- --- --------- ------- ----- --------- ---- ----- --<br>------ -------- -- ------ -- ---- ------------,277531,277527.89999997616,276880.562,276882.39999997616,276897.229,277547.242,,21,stable
screen,html.Screen,2_3_1_0_1_22,2022-05-02T10:19:30.589Z,,,,,,,,,,,,,,,,,19,,,,,,,,,,,,,,1170.5579999820911,,response,,,,17,E,,,,,,Space,keypress(Space),,,,silence,,,,-------------- --- -------- -------- ---------- ---- -------<br>-- ---------- -- --- ----- ------ ----- ---- --------- ----<br>------- ------ -------- -- ------ superheavy ------ ---<br>------ -- -- ---- -- ---------- -------- ------ ---- -------<br>---- --- --------- ------- ----- --------- ---- ----- --<br>------ -------- -- ------ -- ---- ------------,278721,278717.7999999821,277530.575,277531.2999999821,277547.242,278730.599,,22,superheavy
screen,html.Screen,2_3_1_0_1_23,2022-05-02T10:19:31.298Z,,,,,,,,,,,,,,,,,19,,,,,,,,,,,,,,695.2009999821312,,response,,,,17,E,,,,,,Space,keypress(Space),,,,silence,,,,-------------- --- -------- -------- ---------- ---- -------<br>-- ---------- -- --- ----- ------ ----- ---- --------- ----<br>------- ------ -------- -- ------ ---------- nuclei ---<br>------ -- -- ---- -- ---------- -------- ------ ---- -------<br>---- --- --------- ------- ----- --------- ---- ----- --<br>------ -------- -- ------ -- ---- ------------,279429,279425.7999999821,278713.932,278721.09999999404,278730.599,279430.613,,23,nuclei
screen,html.Screen,2_3_1_0_1_24,2022-05-02T10:19:31.836Z,,,,,,,,,,,,,,,,,19,,,,,,,,,,,,,,533.086999988067,,response,,,,17,E,,,,,,Space,keypress(Space),,,,silence,,,,-------------- --- -------- -------- ---------- ---- -------<br>-- ---------- -- --- ----- ------ ----- ---- --------- ----<br>------- ------ -------- -- ------ ---------- ------ are<br>------ -- -- ---- -- ---------- -------- ------ ---- -------<br>---- --- --------- ------- ----- --------- ---- ----- --<br>------ -------- -- ------ -- ---- ------------,279966.89999997616,279963.6999999881,279413.946,279429.1999999881,279430.613,279981.113,,24,are
screen,html.Screen,2_3_1_0_1_25,2022-05-02T10:19:32.248Z,,,,,,,,,,,,,,,,,19,,,,,,,,,,,,,,394.58699998806696,,response,,,,17,E,,,,,,Space,keypress(Space),,,,silence,,,,-------------- --- -------- -------- ---------- ---- -------<br>-- ---------- -- --- ----- ------ ----- ---- --------- ----<br>------- ------ -------- -- ------ ---------- ------ ---<br>likely -- -- ---- -- ---------- -------- ------ ---- -------<br>---- --- --------- ------- ----- --------- ---- ----- --<br>------ -------- -- ------ -- ---- ------------,280378.89999997616,280375.6999999881,279964.446,279967.09999999404,279981.113,280381.121,,25,likely
screen,html.Screen,2_3_1_0_1_26,2022-05-02T10:19:32.664Z,,,,,,,,,,,,,,,,,19,,,,,,,,,,,,,,411.57899998809444,,response,,,,17,E,,,,,,Space,keypress(Space),,,,silence,,,,-------------- --- -------- -------- ---------- ---- -------<br>-- ---------- -- --- ----- ------ ----- ---- --------- ----<br>------- ------ -------- -- ------ ---------- ------ ---<br>------ to -- ---- -- ---------- -------- ------ ---- -------<br>---- --- --------- ------- ----- --------- ---- ----- --<br>------ -------- -- ------ -- ---- ------------,280795.6999999881,280792.6999999881,280364.454,280379.2999999821,280381.121,280797.796,,26,to
screen,html.Screen,2_3_1_0_1_27,2022-05-02T10:19:33.082Z,,,,,,,,,,,,,,,,,19,,,,,,,,,,,,,,412.80399999406654,,response,,,,17,E,,,,,,Space,keypress(Space),,,,silence,,,,-------------- --- -------- -------- ---------- ---- -------<br>-- ---------- -- --- ----- ------ ----- ---- --------- ----<br>------- ------ -------- -- ------ ---------- ------ ---<br>------ -- be ---- -- ---------- -------- ------ ---- -------<br>---- --- --------- ------- ----- --------- ---- ----- --<br>------ -------- -- ------ -- ---- ------------,281213.7999999821,281210.59999999404,280781.129,280795.89999997616,280797.796,281231.138,,27,be
screen,html.Screen,2_3_1_0_1_28,2022-05-02T10:19:33.535Z,,,,,,,,,,,,,,,,,19,,,,,,,,,,,,,,432.46199999406235,,response,,,,17,E,,,,,,Space,keypress(Space),,,,silence,,,,-------------- --- -------- -------- ---------- ---- -------<br>-- ---------- -- --- ----- ------ ----- ---- --------- ----<br>------- ------ -------- -- ------ ---------- ------ ---<br>------ -- -- full -- ---------- -------- ------ ---- -------<br>---- --- --------- ------- ----- --------- ---- ----- --<br>------ -------- -- ------ -- ---- ------------,281666.7999999821,281663.59999999404,281214.471,281213.89999997616,281231.138,281681.147,,28,full
screen,html.Screen,2_3_1_0_1_29,2022-05-02T10:19:33.993Z,,,,,,,,,,,,,,,,,19,,,,,,,,,,,,,,440.45299999404233,,response,,,,17,E,,,,,,Space,keypress(Space),,,,silence,,,,-------------- --- -------- -------- ---------- ---- -------<br>-- ---------- -- --- ----- ------ ----- ---- --------- ----<br>------- ------ -------- -- ------ ---------- ------ ---<br>------ -- -- ---- of ---------- -------- ------ ---- -------<br>---- --- --------- ------- ----- --------- ---- ----- --<br>------ -------- -- ------ -- ---- ------------,282124.6999999881,282121.59999999404,281664.48,281667,281681.147,282131.156,,29,of
screen,html.Screen,2_3_1_0_1_30,2022-05-02T10:19:34.813Z,,,,,,,,,,,,,,,,,19,,,,,,,,,,,,,,810.4439999940223,,response,,,,17,E,,,,,,Space,keypress(Space),,,,silence,,,,-------------- --- -------- -------- ---------- ---- -------<br>-- ---------- -- --- ----- ------ ----- ---- --------- ----<br>------- ------ -------- -- ------ ---------- ------ ---<br>------ -- -- ---- -- surprises. -------- ------ ---- -------<br>---- --- --------- ------- ----- --------- ---- ----- --<br>------ -------- -- ------ -- ---- ------------,282944.6999999881,282941.59999999404,282114.489,282124.7999999821,282131.156,282947.839,,30,surprises.
screen,html.Screen,2_3_1_0_1_31,2022-05-02T10:19:35.340Z,,,,,,,,,,,,,,,,,19,,,,,,,,,,,,,,520.6610000000219,,response,,,,17,E,,,,,,Space,keypress(Space),,,,silence,,,,-------------- --- -------- -------- ---------- ---- -------<br>-- ---------- -- --- ----- ------ ----- ---- --------- ----<br>------- ------ -------- -- ------ ---------- ------ ---<br>------ -- -- ---- -- ---------- Chemists ------ ---- -------<br>---- --- --------- ------- ----- --------- ---- ----- --<br>------ -------- -- ------ -- ---- ------------,283471.59999999404,283468.5,282931.172,282944.89999997616,282947.839,283481.183,,31,Chemists
screen,html.Screen,2_3_1_0_1_32,2022-05-02T10:19:35.897Z,,,,,,,,,,,,,,,,,19,,,,,,,,,,,,,,544.216999976139,,response,,,,17,E,,,,,,Space,keypress(Space),,,,silence,,,,-------------- --- -------- -------- ---------- ---- -------<br>-- ---------- -- --- ----- ------ ----- ---- --------- ----<br>------- ------ -------- -- ------ ---------- ------ ---<br>------ -- -- ---- -- ---------- -------- cannot ---- -------<br>---- --- --------- ------- ----- --------- ---- ----- --<br>------ -------- -- ------ -- ---- ------------,284028.5,284025.39999997616,283464.516,283471.6999999881,283481.183,284031.194,,32,cannot
screen,html.Screen,2_3_1_0_1_33,2022-05-02T10:19:36.337Z,,,,,,,,,,,,,,,,,19,,,,,,,,,,,,,,434.20599997614045,,response,,,,17,E,,,,,,Space,keypress(Space),,,,silence,,,,-------------- --- -------- -------- ---------- ---- -------<br>-- ---------- -- --- ----- ------ ----- ---- --------- ----<br>------- ------ -------- -- ------ ---------- ------ ---<br>------ -- -- ---- -- ---------- -------- ------ even -------<br>---- --- --------- ------- ----- --------- ---- ----- --<br>------ -------- -- ------ -- ---- ------------,284468.59999999404,284465.39999997616,284014.527,284028.6999999881,284031.194,284481.203,,33,even
screen,html.Screen,2_3_1_0_1_34,2022-05-02T10:19:36.863Z,,,,,,,,,,,,,,,,,19,,,,,,,,,,,,,,510.19699997617863,,response,,,,17,E,,,,,,Space,keypress(Space),,,,silence,,,,-------------- --- -------- -------- ---------- ---- -------<br>-- ---------- -- --- ----- ------ ----- ---- --------- ----<br>------- ------ -------- -- ------ ---------- ------ ---<br>------ -- -- ---- -- ---------- -------- ------ ---- predict<br>---- --- --------- ------- ----- --------- ---- ----- --<br>------ -------- -- ------ -- ---- ------------,284994.59999999404,284991.39999997616,284464.536,284468.7999999821,284481.203,284997.88,,34,predict
screen,html.Screen,2_3_1_0_1_35,2022-05-02T10:19:37.280Z,,,,,,,,,,,,,,,,,19,,,,,,,,,,,,,,410.5199999761535,,response,,,,17,E,,,,,,Space,keypress(Space),,,,silence,,,,-------------- --- -------- -------- ---------- ---- -------<br>-- ---------- -- --- ----- ------ ----- ---- --------- ----<br>------- ------ -------- -- ------ ---------- ------ ---<br>------ -- -- ---- -- ---------- -------- ------ ---- -------<br>with --- --------- ------- ----- --------- ---- ----- --<br>------ -------- -- ------ -- ---- ------------,285411.5,285408.39999997616,284981.213,284994.7999999821,284997.88,285414.555,,35,with
screen,html.Screen,2_3_1_0_1_36,2022-05-02T10:19:37.727Z,,,,,,,,,,,,,,,,,19,,,,,,,,,,,,,,440.8449999761651,,response,,,,17,E,,,,,,Space,keypress(Space),,,,silence,,,,-------------- --- -------- -------- ---------- ---- -------<br>-- ---------- -- --- ----- ------ ----- ---- --------- ----<br>------- ------ -------- -- ------ ---------- ------ ---<br>------ -- -- ---- -- ---------- -------- ------ ---- -------<br>---- any --------- ------- ----- --------- ---- ----- --<br>------ -------- -- ------ -- ---- ------------,285858.5,285855.39999997616,285397.888,285411.6999999881,285414.555,285864.564,,36,any
screen,html.Screen,2_3_1_0_1_37,2022-05-02T10:19:38.178Z,,,,,,,,,,,,,,,,,19,,,,,,,,,,,,,,441.73599998210557,,response,,,,17,E,,,,,,Space,keypress(Space),,,,silence,,,,-------------- --- -------- -------- ---------- ---- -------<br>-- ---------- -- --- ----- ------ ----- ---- --------- ----<br>------- ------ -------- -- ------ ---------- ------ ---<br>------ -- -- ---- -- ---------- -------- ------ ---- -------<br>---- --- certainty ------- ----- --------- ---- ----- --<br>------ -------- -- ------ -- ---- ------------,286309.2999999821,286306.2999999821,285847.897,285858.59999999404,285864.564,286314.573,,37,certainty
screen,html.Screen,2_3_1_0_1_38,2022-05-02T10:19:38.610Z,,,,,,,,,,,,,,,,,19,,,,,,,,,,,,,,422.72699998214375,,response,,,,17,E,,,,,,Space,keypress(Space),,,,silence,,,,-------------- --- -------- -------- ---------- ---- -------<br>-- ---------- -- --- ----- ------ ----- ---- --------- ----<br>------- ------ -------- -- ------ ---------- ------ ---<br>------ -- -- ---- -- ---------- -------- ------ ---- -------<br>---- --- --------- whether ----- --------- ---- ----- --<br>------ -------- -- ------ -- ---- ------------,286740.89999997616,286737.2999999821,286297.906,286309.5,286314.573,286747.915,,38,whether
screen,html.Screen,2_3_1_0_1_39,2022-05-02T10:19:39.029Z,,,,,,,,,,,,,,,,,19,,,,,,,,,,,,,,409.38499998213956,,response,,,,17,E,,,,,,Space,keypress(Space),,,,silence,,,,-------------- --- -------- -------- ---------- ---- -------<br>-- ---------- -- --- ----- ------ ----- ---- --------- ----<br>------- ------ -------- -- ------ ---------- ------ ---<br>------ -- -- ---- -- ---------- -------- ------ ---- -------<br>---- --- --------- ------- these --------- ---- ----- --<br>------ -------- -- ------ -- ---- ------------,287160.5,287157.2999999821,286731.248,286741,286747.915,287164.59,,39,these
