sender,sender_type,sender_id,timestamp,meta,,Blues,Classical,Country,Dance,Electronic,Folk,Gospel,Hip-Hop,Jazz,Latin,Musical/Film,New-age,Pop,Prolific_id,Provo_ID,R&B,Rap,Reggae,Religious,Rock,Soul,Swing,Traditional,age,artist_name,correct,correctResponse,distraction,duration,education,ended_on,familiarity,gender,headphone_check_performance,item,list,music_frequency,offensiveness,pleasantness,position_correct,preference,response,response_action,snippet_file,song_name,song_rating,sound,stimulus_1,stimulus_2,stimulus_3,text,time_commit,time_end,time_render,time_run,time_show,time_switch,url,word,word_ID
Prolific ID,html.Form,0,2022-04-25T11:51:29.111Z,"{""labjs_version"":""20.2.2"",""labjs_build"":{""flavor"":""production"",""commit"":""a25486e0c714a0ae2ce03ff94b7bb6896854dcfa""},""location"":""https://run.pavlovia.org/mvasilev/prolific3_music_a/"",""userAgent"":""Mozilla/5.0 (X11; CrOS x86_64 14526.89.0) AppleWebKit/537.36 (KHTML, like Gecko) Chrome/100.0.4896.133 Safari/537.36"",""platform"":""Linux x86_64"",""language"":""en-GB"",""locale"":""en-GB"",""timeZone"":""Europe/London"",""timezoneOffset"":-60,""screen_width"":1366,""screen_height"":768,""scroll_width"":1366,""scroll_height"":569,""window_innerWidth"":1366,""window_innerHeight"":617,""devicePixelRatio"":1}",,,,,,,,,,,,,,,5e482352020bde2be9b4ded1,,,,,,,,,,,,,,,5638.481000000069,,form submission,,,,,,,,,,,,,,,,,,,,,27933.099999999977,27932.20000000007,22260.419,22261.70000000001,22293.719,27938.27,{},,
Introduction,html.Screen,1_0,2022-04-25T11:51:35.042Z,,,,,,,,,,,,,,,,,,,,,,,,,,,,,,,5919.130000000023,,response,,,,,,,,,,,continue,click button,,,,,,,,,33864.90000000002,33857.40000000002,27921.62,27933.5,27938.27,33865.752,,,
Volume calibration,html.Screen,1_1,2022-04-25T11:52:03.993Z,,,,,,,,,,,,,,,,,,,,,,,,,,,,,,,28941.748,,response,,,,,,,,,,,continue,click button,,,,,,,,,62815.30000000005,62807.5,33849.102,33865.09999999998,33865.752,62820.552,,,
Task instructions,html.Screen,1_2,2022-04-25T11:52:10.448Z,,,,,,,,,,,,,,,,,,,,,,,,,,,,,,,6443.6480000000665,,response,,,,,,,,,,,continue,click button,,,,,,,,,69270.20000000007,69264.20000000007,62803.902,62815.40000000002,62820.552,69280.79,,,
Sounds,html.Screen,1_3_0_0,2022-04-25T11:52:14.693Z,,,,,,,,,,,,,,,,,,,,,,,,,,,,,,,4245.860000000001,,timeout,,,,,,,,,3,,,,,,,,O,I,S,,73515.20000000007,73510,69264.14,69270.40000000002,69280.79,73526.65,,,
Judgement,html.Screen,1_3_0_1,2022-04-25T11:52:21.839Z,,,,,,,,,,,,,,,,,,,,,,,,,,,,false,3,,7130.550000000076,,response,,,,,,,,,3,,2,click #choice-2,,,,,O,I,S,,80661.5,80657.20000000007,73510,73515.40000000002,73526.65,80669.572,,,
Trial,flow.Sequence,1_3_0,2022-04-25T11:52:21.842Z,,,,,,,,,,,,,,,,,,,,,,,,,,,,,,,11376.410000000076,,completion,,,,,,,,,3,,,,,,,,O,I,S,,80665,80657.20000000007,69264.14,69270.40000000002,69280.79,80669.572,,,
Sounds,html.Screen,1_3_1_0,2022-04-25T11:52:26.078Z,,,,,,,,,,,,,,,,,,,,,,,,,,,,,,,4245.817999999999,,timeout,,,,,,,,,1,,,,,,,,S,O,I,,84900.09999999998,84898.74,80652.922,80665.30000000005,80669.572,84915.39,,,
Judgement,html.Screen,1_3_1_1,2022-04-25T11:52:26.934Z,,,,,,,,,,,,,,,,,,,,,,,,,,,,true,1,,837.2099999999773,,response,,,,,,,,,1,,1,click #choice-1,,,,,S,O,I,,85756.5,85752.59999999998,84898.74,84900.5,84915.39,85764.604,,,
Trial,flow.Sequence,1_3_1,2022-04-25T11:52:26.935Z,,,,,,,,,,,,,,,,,,,,,,,,,,,,,,,5083.027999999977,,completion,,,,,,,,,1,,,,,,,,S,O,I,,85757.09999999998,85752.59999999998,80652.922,80665.20000000007,80669.572,85764.604,,,
Sounds,html.Screen,1_3_2_0,2022-04-25T11:52:31.173Z,,,,,,,,,,,,,,,,,,,,,,,,,,,,,,,4245.756999999998,,timeout,,,,,,,,,1,,,,,,,,S,I,O,,89995.09999999998,89993.711,85747.954,85757.70000000007,85764.604,90010.361,,,
Judgement,html.Screen,1_3_2_1,2022-04-25T11:52:32.451Z,,,,,,,,,,,,,,,,,,,,,,,,,,,,true,1,,1258.4390000000421,,response,,,,,,,,,1,,1,click #choice-1,,,,,S,I,O,,91273.59999999998,91268.80000000005,89993.711,89995.40000000002,90010.361,91275.825,,,
Trial,flow.Sequence,1_3_2,2022-04-25T11:52:32.451Z,,,,,,,,,,,,,,,,,,,,,,,,,,,,,,,5504.19600000004,,completion,,,,,,,,,1,,,,,,,,S,I,O,,91274,91268.80000000005,85747.954,85757.59999999998,85764.604,91275.825,,,
Sounds,html.Screen,1_3_3_0,2022-04-25T11:52:36.684Z,,,,,,,,,,,,,,,,,,,,,,,,,,,,,,,4245.770000000004,,timeout,,,,,,,,,3,,,,,,,,I,O,S,,95506.80000000005,95504.945,91259.175,91274.30000000005,91275.825,95521.595,,,
Judgement,html.Screen,1_3_3_1,2022-04-25T11:52:37.325Z,,,,,,,,,,,,,,,,,,,,,,,,,,,,true,3,,621.9049999999988,,response,,,,,,,,,3,,3,click #choice-3,,,,,I,O,S,,96148,96143.5,95504.945,95507.09999999998,95521.595,96154.361,,,
Trial,flow.Sequence,1_3_3,2022-04-25T11:52:37.326Z,,,,,,,,,,,,,,,,,,,,,,,,,,,,,,,4867.675000000003,,completion,,,,,,,,,3,,,,,,,,I,O,S,,96148.30000000005,96143.5,91259.175,91274.20000000007,91275.825,96154.361,,,
Sounds,html.Screen,1_3_4_0,2022-04-25T11:52:41.562Z,,,,,,,,,,,,,,,,,,,,,,,,,,,,,,,4245.758999999991,,timeout,,,,,,,,,2,,,,,,,,I,S,O,,100384.80000000005,100383.47,96137.711,96148.5,96154.361,100400.12,,,
Judgement,html.Screen,1_3_4_1,2022-04-25T11:52:42.119Z,,,,,,,,,,,,,,,,,,,,,,,,,,,,true,2,,538.1800000000512,,response,,,,,,,,,2,,2,click #choice-2,,,,,I,S,O,,100942,100938.30000000005,100383.47,100385,100400.12,100949.635,,,
Trial,flow.Sequence,1_3_4,2022-04-25T11:52:42.120Z,,,,,,,,,,,,,,,,,,,,,,,,,,,,,,,4783.939000000042,,completion,,,,,,,,,2,,,,,,,,I,S,O,,100942.40000000002,100938.30000000005,96137.711,96148.40000000002,96154.361,100949.635,,,
Sounds,html.Screen,1_3_5_0,2022-04-25T11:52:46.357Z,,,,,,,,,,,,,,,,,,,,,,,,,,,,,,,4245.758000000002,,timeout,,,,,,,,,2,,,,,,,,O,S,I,,105179.90000000002,105178.743,100932.985,100942.59999999998,100949.635,105195.393,,,
Judgement,html.Screen,1_3_5_1,2022-04-25T11:52:46.756Z,,,,,,,,,,,,,,,,,,,,,,,,,,,,true,2,,378.2069999999803,,response,,,,,,,,,2,,2,click #choice-2,,,,,O,S,I,,105578.70000000007,105573.59999999998,105178.743,105180.30000000005,105195.393,105578.408,,,
Trial,flow.Sequence,1_3_5,2022-04-25T11:52:46.757Z,,,,,,,,,,,,,,,,,,,,,,,,,,,,,,,4623.964999999982,,completion,,,,,,,,,2,,,,,,,,O,S,I,,105579.30000000005,105573.59999999998,100932.985,100942.59999999998,100949.635,105578.408,,,
Task,flow.Loop,1_3,2022-04-25T11:52:46.764Z,,,,,,,,,,,,,,,,,,,,,,,,,,,,,,,36292.80999999998,,completion,,,0.8333333333333334,,,,,,,,,,,,,,,,,,105586.40000000002,105573.59999999998,69264.14,69270.40000000002,69280.79,105578.408,,,
Trap,html.Screen,1_4,2022-04-25T11:52:46.766Z,,,,,,,,,,,,,,,,,,,,,,,,,,,,,,,NaN,,skipped,,,,,,,,,,,,,,,,,,,,,105588.59999999998,105573.59999999998,,105588.40000000002,,105578.408,,,
Thanks,html.Screen,1_5,2022-04-25T11:52:51.871Z,,,,,,,,,,,,,,,,,,,,,,,,,,,,,,,5110.4920000000275,,response,,,,,,,,,,,continue,click button,,,,,,,,,110693.09999999998,110688.90000000002,105561.758,105588.70000000007,105578.408,115118.946,,,
Headphone screening,flow.Sequence,1,2022-04-25T11:52:51.871Z,,,,,,,,,,,,,,,,,,,,,,,,,,,,,,,82750.63000000002,,completion,,,,,,,,,,,,,,,,,,,,,110693.5,110688.90000000002,27921.62,27933.5,27938.27,115118.946,,,
Instructions,html.Page,2_0,2022-04-25T11:53:21.913Z,,,,,,,,,,,,,,,,,,,,,,,,,,,,,,,25615.754000000074,,form submission,,,,,,,,,,,,,,,,,,,,,140735.70000000007,140734.70000000007,115102.296,115089.5,115118.946,140743.741,,,
Holding screen,html.Screen,2_1_0_0,2022-04-25T11:53:31.913Z,,,,,,,,,,,,,,,,,,,,,,,,,,,,,,,10006.799999999988,,timeout,,,,,,,,,,,,,,,,,,,,,150735.5,150733.891,140727.091,140736,140743.741,150750.541,,,
screen,html.Screen,2_1_0_1_0,2022-04-25T11:53:36.327Z,,,,,,,,,,,,,,,,,53,,,,,,,,,,,,,,4391.558999999979,,response,,,,99,,,,,,,Space,keypress(Space),,,,,,,,When -- ----- -- ------ - ------- --- ----------<br>------------- ------ ------ ---- ---- ------- ----- -- ----<br>-------- ------- -- ---------- --- - --- ----- ----- ----<br>---- --- --- ----- --- ---- ---- ------- ----- ---- -------<br>--- --- -- ----- -- --- ---- -- --- ---- -- ------ ------<br>--- ----- -- ----,155149.09999999998,155142.09999999998,150733.891,150735.80000000005,150750.541,155162.806,,0,When
screen,html.Screen,2_1_0_1_1,2022-04-25T11:53:37.762Z,,,,,,,,,,,,,,,,,53,,,,,,,,,,,,,,1419.0940000000119,,response,,,,99,,,,,,,Space,keypress(Space),,,,,,,,---- it ----- -- ------ - ------- --- ----------<br>------------- ------ ------ ---- ---- ------- ----- -- ----<br>-------- ------- -- ---------- --- - --- ----- ----- ----<br>---- --- --- ----- --- ---- ---- ------- ----- ---- -------<br>--- --- -- ----- -- --- ---- -- --- ---- -- ------ ------<br>--- ----- -- ----,156584.70000000007,156581.90000000002,155146.156,155149.30000000005,155162.806,156594.773,,1,it
screen,html.Screen,2_1_0_1_2,2022-04-25T11:53:38.699Z,,,,,,,,,,,,,,,,,53,,,,,,,,,,,,,,923.7270000000135,,response,,,,99,,,,,,,Space,keypress(Space),,,,,,,,---- -- comes -- ------ - ------- --- ----------<br>------------- ------ ------ ---- ---- ------- ----- -- ----<br>-------- ------- -- ---------- --- - --- ----- ----- ----<br>---- --- --- ----- --- ---- ---- ------- ----- ---- -------<br>--- --- -- ----- -- --- ---- -- --- ---- -- ------ ------<br>--- ----- -- ----,157521.09999999998,157518.5,156578.123,156585.09999999998,156594.773,157527.195,,2,comes
screen,html.Screen,2_1_0_1_3,2022-04-25T11:53:39.364Z,,,,,,,,,,,,,,,,,53,,,,,,,,,,,,,,657.2050000000163,,response,,,,99,,,,,,,Space,keypress(Space),,,,,,,,---- -- ----- to ------ - ------- --- ----------<br>------------- ------ ------ ---- ---- ------- ----- -- ----<br>-------- ------- -- ---------- --- - --- ----- ----- ----<br>---- --- --- ----- --- ---- ---- ------- ----- ---- -------<br>--- --- -- ----- -- --- ---- -- --- ---- -- ------ ------<br>--- ----- -- ----,158187,158184.40000000002,157510.545,157521.40000000002,157527.195,158193.21,,3,to
screen,html.Screen,2_1_0_1_4,2022-04-25T11:53:39.985Z,,,,,,,,,,,,,,,,,53,,,,,,,,,,,,,,611.8899999999849,,response,,,,99,,,,,,,Space,keypress(Space),,,,,,,,---- -- ----- -- having - ------- --- ----------<br>------------- ------ ------ ---- ---- ------- ----- -- ----<br>-------- ------- -- ---------- --- - --- ----- ----- ----<br>---- --- --- ----- --- ---- ---- ------- ----- ---- -------<br>--- --- -- ----- -- --- ---- -- --- ---- -- ------ ------<br>--- ----- -- ----,158807.59999999998,158805.09999999998,158176.56,158187.30000000005,158193.21,158809.27,,4,having
screen,html.Screen,2_1_0_1_5,2022-04-25T11:53:40.458Z,,,,,,,,,,,,,,,,,53,,,,,,,,,,,,,,468.3299999999872,,response,,,,99,,,,,,,Space,keypress(Space),,,,,,,,---- -- ----- -- ------ a ------- --- ----------<br>------------- ------ ------ ---- ---- ------- ----- -- ----<br>-------- ------- -- ---------- --- - --- ----- ----- ----<br>---- --- --- ----- --- ---- ---- ------- ----- ---- -------<br>--- --- -- ----- -- --- ---- -- --- ---- -- ------ ------<br>--- ----- -- ----,159280,159277.59999999998,158792.62,158807.80000000005,158809.27,159292.13,,5,a
screen,html.Screen,2_1_0_1_6,2022-04-25T11:53:41.309Z,,,,,,,,,,,,,,,,,53,,,,,,,,,,,,,,837.0700000000652,,response,,,,99,,,,,,,Space,keypress(Space),,,,,,,,---- -- ----- -- ------ - lasting --- ----------<br>------------- ------ ------ ---- ---- ------- ----- -- ----<br>-------- ------- -- ---------- --- - --- ----- ----- ----<br>---- --- --- ----- --- ---- ---- ------- ----- ---- -------<br>--- --- -- ----- -- --- ---- -- --- ---- -- ------ ------<br>--- ----- -- ----,160131.59999999998,160129.20000000007,159275.48,159280.30000000005,159292.13,160141.287,,6,lasting
screen,html.Screen,2_1_0_1_7,2022-04-25T11:53:42.206Z,,,,,,,,,,,,,,,,,53,,,,,,,,,,,,,,884.7129999999888,,response,,,,99,,,,,,,Space,keypress(Space),,,,,,,,---- -- ----- -- ------ - ------- and ----------<br>------------- ------ ------ ---- ---- ------- ----- -- ----<br>-------- ------- -- ---------- --- - --- ----- ----- ----<br>---- --- --- ----- --- ---- ---- ------- ----- ---- -------<br>--- --- -- ----- -- --- ---- -- --- ---- -- ------ ------<br>--- ----- -- ----,161029,161026,160124.637,160131.80000000005,160141.287,161040.399,,7,and
screen,html.Screen,2_1_0_1_8,2022-04-25T11:53:42.982Z,,,,,,,,,,,,,,,,,53,,,,,,,,,,,,,,760.4010000000417,,response,,,,99,,,,,,,Space,keypress(Space),,,,,,,,---- -- ----- -- ------ - ------- --- fulfilling<br>------------- ------ ------ ---- ---- ------- ----- -- ----<br>-------- ------- -- ---------- --- - --- ----- ----- ----<br>---- --- --- ----- --- ---- ---- ------- ----- ---- -------<br>--- --- -- ----- -- --- ---- -- --- ---- -- ------ ------<br>--- ----- -- ----,161804.09999999998,161800.80000000005,161023.749,161029.30000000005,161040.399,161806.313,,8,fulfilling
screen,html.Screen,2_1_0_1_9,2022-04-25T11:53:43.786Z,,,,,,,,,,,,,,,,,53,,,,,,,,,,,,,,799.2869999999821,,response,,,,99,,,,,,,Space,keypress(Space),,,,,,,,"---- -- ----- -- ------ - ------- --- ----------<br>relationship, ------ ------ ---- ---- ------- ----- -- ----<br>-------- ------- -- ---------- --- - --- ----- ----- ----<br>---- --- --- ----- --- ---- ---- ------- ----- ---- -------<br>--- --- -- ----- -- --- ---- -- --- ---- -- ------ ------<br>--- ----- -- ----",162608.5,162605.59999999998,161789.663,161804.5,161806.313,162622.175,,9,"relationship,"
screen,html.Screen,2_1_0_1_10,2022-04-25T11:53:44.640Z,,,,,,,,,,,,,,,,,53,,,,,,,,,,,,,,837.3250000000116,,response,,,,99,,,,,,,Space,keypress(Space),,,,,,,,---- -- ----- -- ------ - ------- --- ----------<br>------------- common ------ ---- ---- ------- ----- -- ----<br>-------- ------- -- ---------- --- - --- ----- ----- ----<br>---- --- --- ----- --- ---- ---- ------- ----- ---- -------<br>--- --- -- ----- -- --- ---- -- --- ---- -- ------ ------<br>--- ----- -- ----,163462.09999999998,163459.5,162605.525,162608.70000000007,162622.175,163471.338,,10,common
screen,html.Screen,2_1_0_1_11,2022-04-25T11:53:45.423Z,,,,,,,,,,,,,,,,,53,,,,,,,,,,,,,,772.0620000000345,,response,,,,99,,,,,,,Space,keypress(Space),,,,,,,,---- -- ----- -- ------ - ------- --- ----------<br>------------- ------ wisdom ---- ---- ------- ----- -- ----<br>-------- ------- -- ---------- --- - --- ----- ----- ----<br>---- --- --- ----- --- ---- ---- ------- ----- ---- -------<br>--- --- -- ----- -- --- ---- -- --- ---- -- ------ ------<br>--- ----- -- ----,164245.90000000002,164243.40000000002,163454.688,163462.40000000002,163471.338,164253.9,,11,wisdom
screen,html.Screen,2_1_0_1_12,2022-04-25T11:53:46.182Z,,,,,,,,,,,,,,,,,53,,,,,,,,,,,,,,748.4000000000524,,response,,,,99,,,,,,,Space,keypress(Space),,,,,,,,---- -- ----- -- ------ - ------- --- ----------<br>------------- ------ ------ says ---- ------- ----- -- ----<br>-------- ------- -- ---------- --- - --- ----- ----- ----<br>---- --- --- ----- --- ---- ---- ------- ----- ---- -------<br>--- --- -- ----- -- --- ---- -- --- ---- -- ------ ------<br>--- ----- -- ----,165004.5,165002.30000000005,164237.25,164246.40000000002,164253.9,165019.813,,12,says
screen,html.Screen,2_1_0_1_13,2022-04-25T11:53:46.851Z,,,,,,,,,,,,,,,,,53,,,,,,,,,,,,,,650.5870000000286,,response,,,,99,,,,,,,Space,keypress(Space),,,,,,,,---- -- ----- -- ------ - ------- --- ----------<br>------------- ------ ------ ---- that ------- ----- -- ----<br>-------- ------- -- ---------- --- - --- ----- ----- ----<br>---- --- --- ----- --- ---- ---- ------- ----- ---- -------<br>--- --- -- ----- -- --- ---- -- --- ---- -- ------ ------<br>--- ----- -- ----,165673.90000000002,165670.40000000002,165003.163,165004.90000000002,165019.813,165685.824,,13,that
screen,html.Screen,2_1_0_1_14,2022-04-25T11:53:47.695Z,,,,,,,,,,,,,,,,,53,,,,,,,,,,,,,,829.07600000003,,response,,,,99,,,,,,,Space,keypress(Space),,,,,,,,---- -- ----- -- ------ - ------- --- ----------<br>------------- ------ ------ ---- ---- feeling ----- -- ----<br>-------- ------- -- ---------- --- - --- ----- ----- ----<br>---- --- --- ----- --- ---- ---- ------- ----- ---- -------<br>--- --- -- ----- -- --- ---- -- --- ---- -- ------ ------<br>--- ----- -- ----,166517.20000000007,166514.90000000002,165669.174,165674.30000000005,165685.824,166534.985,,14,feeling
screen,html.Screen,2_1_0_1_15,2022-04-25T11:53:48.359Z,,,,,,,,,,,,,,,,,53,,,,,,,,,,,,,,643.7150000000838,,response,,,,99,,,,,,,Space,keypress(Space),,,,,,,,---- -- ----- -- ------ - ------- --- ----------<br>------------- ------ ------ ---- ---- ------- close -- ----<br>-------- ------- -- ---------- --- - --- ----- ----- ----<br>---- --- --- ----- --- ---- ---- ------- ----- ---- -------<br>--- --- -- ----- -- --- ---- -- --- ---- -- ------ ------<br>--- ----- -- ----,167181.70000000007,167178.70000000007,166518.335,166517.5,166534.985,167184.348,,15,close
screen,html.Screen,2_1_0_1_16,2022-04-25T11:53:48.978Z,,,,,,,,,,,,,,,,,53,,,,,,,,,,,,,,614.8520000000717,,response,,,,99,,,,,,,Space,keypress(Space),,,,,,,,---- -- ----- -- ------ - ------- --- ----------<br>------------- ------ ------ ---- ---- ------- ----- to ----<br>-------- ------- -- ---------- --- - --- ----- ----- ----<br>---- --- --- ----- --- ---- ---- ------- ----- ---- -------<br>--- --- -- ----- -- --- ---- -- --- ---- -- ------ ------<br>--- ----- -- ----,167801,167799.20000000007,167167.698,167181.90000000002,167184.348,167817.058,,16,to
screen,html.Screen,2_1_0_1_17,2022-04-25T11:53:49.625Z,,,,,,,,,,,,,,,,,53,,,,,,,,,,,,,,627.7420000000566,,response,,,,99,,,,,,,Space,keypress(Space),,,,,,,,---- -- ----- -- ------ - ------- --- ----------<br>------------- ------ ------ ---- ---- ------- ----- -- your<br>-------- ------- -- ---------- --- - --- ----- ----- ----<br>---- --- --- ----- --- ---- ---- ------- ----- ---- -------<br>--- --- -- ----- -- --- ---- -- --- ---- -- ------ ------<br>--- ----- -- ----,168447.20000000007,168444.80000000005,167800.408,167801.20000000007,167817.058,168449.767,,17,your
screen,html.Screen,2_1_0_1_18,2022-04-25T11:53:50.308Z,,,,,,,,,,,,,,,,,53,,,,,,,,,,,,,,678.533000000054,,response,,,,99,,,,,,,Space,keypress(Space),,,,,,,,---- -- ----- -- ------ - ------- --- ----------<br>------------- ------ ------ ---- ---- ------- ----- -- ----<br>romantic ------- -- ---------- --- - --- ----- ----- ----<br>---- --- --- ----- --- ---- ---- ------- ----- ---- -------<br>--- --- -- ----- -- --- ---- -- --- ---- -- ------ ------<br>--- ----- -- ----,169130.70000000007,169128.30000000005,168433.117,168447.5,168449.767,169132.427,,18,romantic
screen,html.Screen,2_1_0_1_19,2022-04-25T11:53:51.042Z,,,,,,,,,,,,,,,,,53,,,,,,,,,,,,,,728.9730000000272,,response,,,,99,,,,,,,Space,keypress(Space),,,,,,,,---- -- ----- -- ------ - ------- --- ----------<br>------------- ------ ------ ---- ---- ------- ----- -- ----<br>-------- partner -- ---------- --- - --- ----- ----- ----<br>---- --- --- ----- --- ---- ---- ------- ----- ---- -------<br>--- --- -- ----- -- --- ---- -- --- ---- -- ------ ------<br>--- ----- -- ----,169864.20000000007,169861.40000000002,169115.777,169131.09999999998,169132.427,169881.687,,19,partner
screen,html.Screen,2_1_0_1_20,2022-04-25T11:53:51.869Z,,,,,,,,,,,,,,,,,53,,,,,,,,,,,,,,806.7130000000179,,response,,,,99,,,,,,,Space,keypress(Space),,,,,,,,---- -- ----- -- ------ - ------- --- ----------<br>------------- ------ ------ ---- ---- ------- ----- -- ----<br>-------- ------- is ---------- --- - --- ----- ----- ----<br>---- --- --- ----- --- ---- ---- ------- ----- ---- -------<br>--- --- -- ----- -- --- ---- -- --- ---- -- ------ ------<br>--- ----- -- ----,170691.09999999998,170688.40000000002,169865.037,169864.40000000002,169881.687,170697.549,,20,is
screen,html.Screen,2_1_0_1_21,2022-04-25T11:53:53.144Z,,,,,,,,,,,,,,,,,53,,,,,,,,,,,,,,1266.2510000000475,,response,,,,99,,,,,,,Space,keypress(Space),,,,,,,,---- -- ----- -- ------ - ------- --- ----------<br>------------- ------ ------ ---- ---- ------- ----- -- ----<br>-------- ------- -- paramount. --- - --- ----- ----- ----<br>---- --- --- ----- --- ---- ---- ------- ----- ---- -------<br>--- --- -- ----- -- --- ---- -- --- ---- -- ------ ------<br>--- ----- -- ----,171966.30000000005,171963.80000000005,170680.899,170691.30000000005,170697.549,171979.612,,21,paramount.
screen,html.Screen,2_1_0_1_22,2022-04-25T11:53:53.837Z,,,,,,,,,,,,,,,,,53,,,,,,,,,,,,,,677.2880000000296,,response,,,,99,,,,,,,Space,keypress(Space),,,,,,,,---- -- ----- -- ------ - ------- --- ----------<br>------------- ------ ------ ---- ---- ------- ----- -- ----<br>-------- ------- -- ---------- But - --- ----- ----- ----<br>---- --- --- ----- --- ---- ---- ------- ----- ---- -------<br>--- --- -- ----- -- --- ---- -- --- ---- -- ------ ------<br>--- ----- -- ----,172659.90000000002,172656.90000000002,171962.962,171966.5,171979.612,172662.281,,22,But
screen,html.Screen,2_1_0_1_23,2022-04-25T11:53:54.565Z,,,,,,,,,,,,,,,,,53,,,,,,,,,,,,,,722.8189999999886,,response,,,,99,,,,,,,Space,keypress(Space),,,,,,,,---- -- ----- -- ------ - ------- --- ----------<br>------------- ------ ------ ---- ---- ------- ----- -- ----<br>-------- ------- -- ---------- --- a --- ----- ----- ----<br>---- --- --- ----- --- ---- ---- ------- ----- ---- -------<br>--- --- -- ----- -- --- ---- -- --- ---- -- ------ ------<br>--- ----- -- ----,173387.40000000002,173385.09999999998,172645.631,172660.20000000007,172662.281,173394.892,,23,a
screen,html.Screen,2_1_0_1_24,2022-04-25T11:53:55.161Z,,,,,,,,,,,,,,,,,53,,,,,,,,,,,,,,585.408000000054,,response,,,,99,,,,,,,Space,keypress(Space),,,,,,,,---- -- ----- -- ------ - ------- --- ----------<br>------------- ------ ------ ---- ---- ------- ----- -- ----<br>-------- ------- -- ---------- --- - new ----- ----- ----<br>---- --- --- ----- --- ---- ---- ------- ----- ---- -------<br>--- --- -- ----- -- --- ---- -- --- ---- -- ------ ------<br>--- ----- -- ----,173983.20000000007,173980.30000000005,173378.242,173387.70000000007,173394.892,173994.303,,24,new
screen,html.Screen,2_1_0_1_25,2022-04-25T11:53:55.781Z,,,,,,,,,,,,,,,,,53,,,,,,,,,,,,,,606.0970000000088,,response,,,,99,,,,,,,Space,keypress(Space),,,,,,,,---- -- ----- -- ------ - ------- --- ----------<br>------------- ------ ------ ---- ---- ------- ----- -- ----<br>-------- ------- -- ---------- --- - --- study ----- ----<br>---- --- --- ----- --- ---- ---- ------- ----- ---- -------<br>--- --- -- ----- -- --- ---- -- --- ---- -- ------ ------<br>--- ----- -- ----,174603,174600.40000000002,173977.653,173983.40000000002,173994.303,174610.362,,25,study
screen,html.Screen,2_1_0_1_26,2022-04-25T11:53:56.473Z,,,,,,,,,,,,,,,,,53,,,,,,,,,,,,,,683.3380000000761,,response,,,,99,,,,,,,Space,keypress(Space),,,,,,,,---- -- ----- -- ------ - ------- --- ----------<br>------------- ------ ------ ---- ---- ------- ----- -- ----<br>-------- ------- -- ---------- --- - --- ----- finds ----<br>---- --- --- ----- --- ---- ---- ------- ----- ---- -------<br>--- --- -- ----- -- --- ---- -- --- ---- -- ------ ------<br>--- ----- -- ----,175296,175293.70000000007,174593.712,174603.40000000002,174610.362,175309.672,,26,finds
screen,html.Screen,2_1_0_1_27,2022-04-25T11:53:57.273Z,,,,,,,,,,,,,,,,,53,,,,,,,,,,,,,,782.8280000000086,,response,,,,99,,,,,,,Space,keypress(Space),,,,,,,,---- -- ----- -- ------ - ------- --- ----------<br>------------- ------ ------ ---- ---- ------- ----- -- ----<br>-------- ------- -- ---------- --- - --- ----- ----- that<br>---- --- --- ----- --- ---- ---- ------- ----- ---- -------<br>--- --- -- ----- -- --- ---- -- --- ---- -- ------ ------<br>--- ----- -- ----,176095.90000000002,176092.5,175293.022,175296.30000000005,175309.672,176108.882,,27,that
screen,html.Screen,2_1_0_1_28,2022-04-25T11:53:58.014Z,,,,,,,,,,,,,,,,,53,,,,,,,,,,,,,,723.6179999999877,,response,,,,99,,,,,,,Space,keypress(Space),,,,,,,,---- -- ----- -- ------ - ------- --- ----------<br>------------- ------ ------ ---- ---- ------- ----- -- ----<br>-------- ------- -- ---------- --- - --- ----- ----- ----<br>it's --- --- ----- --- ---- ---- ------- ----- ---- -------<br>--- --- -- ----- -- --- ---- -- --- ---- -- ------ ------<br>--- ----- -- ----,176836.09999999998,176832.5,176092.232,176096.20000000007,176108.882,176841.494,,28,it's
screen,html.Screen,2_1_0_1_29,2022-04-25T11:53:58.746Z,,,,,,,,,,,,,,,,,53,,,,,,,,,,,,,,724.505999999994,,response,,,,99,,,,,,,Space,keypress(Space),,,,,,,,---- -- ----- -- ------ - ------- --- ----------<br>------------- ------ ------ ---- ---- ------- ----- -- ----<br>-------- ------- -- ---------- --- - --- ----- ----- ----<br>---- not --- ----- --- ---- ---- ------- ----- ---- -------<br>--- --- -- ----- -- --- ---- -- --- ---- -- ------ ------<br>--- ----- -- ----,177568.70000000007,177566,176824.844,176836.30000000005,176841.494,177574.105,,29,not
screen,html.Screen,2_1_0_1_30,2022-04-25T11:53:59.426Z,,,,,,,,,,,,,,,,,53,,,,,,,,,,,,,,672.2950000000128,,response,,,,99,,,,,,,Space,keypress(Space),,,,,,,,---- -- ----- -- ------ - ------- --- ----------<br>------------- ------ ------ ---- ---- ------- ----- -- ----<br>-------- ------- -- ---------- --- - --- ----- ----- ----<br>---- --- how ----- --- ---- ---- ------- ----- ---- -------<br>--- --- -- ----- -- --- ---- -- --- ---- -- ------ ------<br>--- ----- -- ----,178248.5,178246.40000000002,177557.455,177569,177574.105,178256.767,,30,how
screen,html.Screen,2_1_0_1_31,2022-04-25T11:54:00.059Z,,,,,,,,,,,,,,,,,53,,,,,,,,,,,,,,622.4330000000773,,response,,,,99,,,,,,,Space,keypress(Space),,,,,,,,---- -- ----- -- ------ - ------- --- ----------<br>------------- ------ ------ ---- ---- ------- ----- -- ----<br>-------- ------- -- ---------- --- - --- ----- ----- ----<br>---- --- --- close --- ---- ---- ------- ----- ---- -------<br>--- --- -- ----- -- --- ---- -- --- ---- -- ------ ------<br>--- ----- -- ----,178881.40000000002,178879.20000000007,178240.117,178248.70000000007,178256.767,178889.477,,31,close
screen,html.Screen,2_1_0_1_32,2022-04-25T11:54:00.690Z,,,,,,,,,,,,,,,,,53,,,,,,,,,,,,,,620.4230000000098,,response,,,,99,,,,,,,Space,keypress(Space),,,,,,,,---- -- ----- -- ------ - ------- --- ----------<br>------------- ------ ------ ---- ---- ------- ----- -- ----<br>-------- ------- -- ---------- --- - --- ----- ----- ----<br>---- --- --- ----- you ---- ---- ------- ----- ---- -------<br>--- --- -- ----- -- --- ---- -- --- ---- -- ------ ------<br>--- ----- -- ----,179512.20000000007,179509.90000000002,178872.827,178881.59999999998,178889.477,179522.187,,32,you
screen,html.Screen,2_1_0_1_33,2022-04-25T11:54:01.315Z,,,,,,,,,,,,,,,,,53,,,,,,,,,,,,,,612.8129999999946,,response,,,,99,,,,,,,Space,keypress(Space),,,,,,,,---- -- ----- -- ------ - ------- --- ----------<br>------------- ------ ------ ---- ---- ------- ----- -- ----<br>-------- ------- -- ---------- --- - --- ----- ----- ----<br>---- --- --- ----- --- feel ---- ------- ----- ---- -------<br>--- --- -- ----- -- --- ---- -- --- ---- -- ------ ------<br>--- ----- -- ----,180137.20000000007,180135,179505.537,179512.5,179522.187,180154.897,,33,feel
screen,html.Screen,2_1_0_1_34,2022-04-25T11:54:02.055Z,,,,,,,,,,,,,,,,,53,,,,,,,,,,,,,,720.6030000000028,,response,,,,99,,,,,,,Space,keypress(Space),,,,,,,,---- -- ----- -- ------ - ------- --- ----------<br>------------- ------ ------ ---- ---- ------- ----- -- ----<br>-------- ------- -- ---------- --- - --- ----- ----- ----<br>---- --- --- ----- --- ---- that ------- ----- ---- -------<br>--- --- -- ----- -- --- ---- -- --- ---- -- ------ ------<br>--- ----- -- ----,180877.80000000005,180875.5,180138.247,180137.59999999998,180154.897,180887.506,,34,that
screen,html.Screen,2_1_0_1_35,2022-04-25T11:54:02.886Z,,,,,,,,,,,,,,,,,53,,,,,,,,,,,,,,816.6940000000759,,response,,,,99,,,,,,,Space,keypress(Space),,,,,,,,---- -- ----- -- ------ - ------- --- ----------<br>------------- ------ ------ ---- ---- ------- ----- -- ----<br>-------- ------- -- ---------- --- - --- ----- ----- ----<br>---- --- --- ----- --- ---- ---- matters ----- ---- -------<br>--- --- -- ----- -- --- ---- -- --- ---- -- ------ ------<br>--- ----- -- ----,181708.80000000005,181704.20000000007,180870.856,180878.09999999998,180887.506,181720.017,,35,matters
screen,html.Screen,2_1_0_1_36,2022-04-25T11:54:03.776Z,,,,,,,,,,,,,,,,,53,,,,,,,,,,,,,,875.3830000000307,,response,,,,99,,,,,,,Space,keypress(Space),,,,,,,,"---- -- ----- -- ------ - ------- --- ----------<br>------------- ------ ------ ---- ---- ------- ----- -- ----<br>-------- ------- -- ---------- --- - --- ----- ----- ----<br>---- --- --- ----- --- ---- ---- ------- most, ---- -------<br>--- --- -- ----- -- --- ---- -- --- ---- -- ------ ------<br>--- ----- -- ----",182598.09999999998,182595.40000000002,181703.367,181709,181720.017,182602.48,,36,"most,"
screen,html.Screen,2_1_0_1_37,2022-04-25T11:54:04.428Z,,,,,,,,,,,,,,,,,53,,,,,,,,,,,,,,645.8200000000361,,response,,,,99,,,,,,,Space,keypress(Space),,,,,,,,---- -- ----- -- ------ - ------- --- ----------<br>------------- ------ ------ ---- ---- ------- ----- -- ----<br>-------- ------- -- ---------- --- - --- ----- ----- ----<br>---- --- --- ----- --- ---- ---- ------- ----- it's -------<br>--- --- -- ----- -- --- ---- -- --- ---- -- ------ ------<br>--- ----- -- ----,183250.80000000005,183248.30000000005,182585.83,182598.30000000005,182602.48,183268.494,,37,it's
screen,html.Screen,2_1_0_1_38,2022-04-25T11:54:05.119Z,,,,,,,,,,,,,,,,,53,,,,,,,,,,,,,,670.7060000000638,,response,,,,99,,,,,,,Space,keypress(Space),,,,,,,,---- -- ----- -- ------ - ------- --- ----------<br>------------- ------ ------ ---- ---- ------- ----- -- ----<br>-------- ------- -- ---------- --- - --- ----- ----- ----<br>---- --- --- ----- --- ---- ---- ------- ----- ---- whether<br>--- --- -- ----- -- --- ---- -- --- ---- -- ------ ------<br>--- ----- -- ----,183941.70000000007,183939.20000000007,183251.844,183251.09999999998,183268.494,183951.154,,38,whether
screen,html.Screen,2_1_0_1_39,2022-04-25T11:54:05.790Z,,,,,,,,,,,,,,,,,53,,,,,,,,,,,,,,658.3459999999905,,response,,,,99,,,,,,,Space,keypress(Space),,,,,,,,---- -- ----- -- ------ - ------- --- ----------<br>------------- ------ ------ ---- ---- ------- ----- -- ----<br>-------- ------- -- ---------- --- - --- ----- ----- ----<br>---- --- --- ----- --- ---- ---- ------- ----- ---- -------<br>you --- -- ----- -- --- ---- -- --- ---- -- ------ ------<br>--- ----- -- ----,184612.30000000005,184609.5,183934.504,183943.90000000002,183951.154,184617.165,,39,you
screen,html.Screen,2_1_0_1_40,2022-04-25T11:54:06.460Z,,,,,,,,,,,,,,,,,53,,,,,,,,,,,,,,662.8349999999919,,response,,,,99,,,,,,,Space,keypress(Space),,,,,,,,---- -- ----- -- ------ - ------- --- ----------<br>------------- ------ ------ ---- ---- ------- ----- -- ----<br>-------- ------- -- ---------- --- - --- ----- ----- ----<br>---- --- --- ----- --- ---- ---- ------- ----- ---- -------<br>--- are -- ----- -- --- ---- -- --- ---- -- ------ ------<br>--- ----- -- ----,185282.20000000007,185280,184600.515,184612.5,184617.165,185299.825,,40,are
screen,html.Screen,2_1_0_1_41,2022-04-25T11:54:07.215Z,,,,,,,,,,,,,,,,,53,,,,,,,,,,,,,,735.6749999999884,,response,,,,99,,,,,,,Space,keypress(Space),,,,,,,,---- -- ----- -- ------ - ------- --- ----------<br>------------- ------ ------ ---- ---- ------- ----- -- ----<br>-------- ------- -- ---------- --- - --- ----- ----- ----<br>---- --- --- ----- --- ---- ---- ------- ----- ---- -------<br>--- --- as ----- -- --- ---- -- --- ---- -- ------ ------<br>--- ----- -- ----,186037.80000000005,186035.5,185283.175,185282.59999999998,185299.825,186049.085,,41,as
screen,html.Screen,2_1_0_1_42,2022-04-25T11:54:07.884Z,,,,,,,,,,,,,,,,,53,,,,,,,,,,,,,,654.115000000078,,response,,,,99,,,,,,,Space,keypress(Space),,,,,,,,---- -- ----- -- ------ - ------- --- ----------<br>------------- ------ ------ ---- ---- ------- ----- -- ----<br>-------- ------- -- ---------- --- - --- ----- ----- ----<br>---- --- --- ----- --- ---- ---- ------- ----- ---- -------<br>--- --- -- close -- --- ---- -- --- ---- -- ------ ------<br>--- ----- -- ----,186706.5,186703.20000000007,186032.435,186038.09999999998,186049.085,186715.097,,42,close
screen,html.Screen,2_1_0_1_43,2022-04-25T11:54:08.506Z,,,,,,,,,,,,,,,,,53,,,,,,,,,,,,,,610.9029999999912,,response,,,,99,,,,,,,Space,keypress(Space),,,,,,,,---- -- ----- -- ------ - ------- --- ----------<br>------------- ------ ------ ---- ---- ------- ----- -- ----<br>-------- ------- -- ---------- --- - --- ----- ----- ----<br>---- --- --- ----- --- ---- ---- ------- ----- ---- -------<br>--- --- -- ----- as --- ---- -- --- ---- -- ------ ------<br>--- ----- -- ----,187328.70000000007,187326,186698.447,186706.80000000005,186715.097,187331.157,,43,as
screen,html.Screen,2_1_0_1_44,2022-04-25T11:54:09.207Z,,,,,,,,,,,,,,,,,53,,,,,,,,,,,,,,695.7430000000168,,response,,,,99,,,,,,,Space,keypress(Space),,,,,,,,---- -- ----- -- ------ - ------- --- ----------<br>------------- ------ ------ ---- ---- ------- ----- -- ----<br>-------- ------- -- ---------- --- - --- ----- ----- ----<br>---- --- --- ----- --- ---- ---- ------- ----- ---- -------<br>--- --- -- ----- -- you ---- -- --- ---- -- ------ ------<br>--- ----- -- ----,188029.5,188026.90000000002,187314.507,187329,187331.157,188047.116,,44,you
screen,html.Screen,2_1_0_1_45,2022-04-25T11:54:10.046Z,,,,,,,,,,,,,,,,,53,,,,,,,,,,,,,,818.5840000000608,,response,,,,99,,,,,,,Space,keypress(Space),,,,,,,,---- -- ----- -- ------ - ------- --- ----------<br>------------- ------ ------ ---- ---- ------- ----- -- ----<br>-------- ------- -- ---------- --- - --- ----- ----- ----<br>---- --- --- ----- --- ---- ---- ------- ----- ---- -------<br>--- --- -- ----- -- --- want -- --- ---- -- ------ ------<br>--- ----- -- ----,188868.5,188865.70000000007,188030.466,188029.80000000005,188047.116,188879.627,,45,want
screen,html.Screen,2_1_0_1_46,2022-04-25T11:54:10.709Z,,,,,,,,,,,,,,,,,53,,,,,,,,,,,,,,649.6730000000389,,response,,,,99,,,,,,,Space,keypress(Space),,,,,,,,---- -- ----- -- ------ - ------- --- ----------<br>------------- ------ ------ ---- ---- ------- ----- -- ----<br>-------- ------- -- ---------- --- - --- ----- ----- ----<br>---- --- --- ----- --- ---- ---- ------- ----- ---- -------<br>--- --- -- ----- -- --- ---- to --- ---- -- ------ ------<br>--- ----- -- ----,189531.59999999998,189529.30000000005,188862.977,188868.70000000007,188879.627,189545.64,,46,to
screen,html.Screen,2_1_0_1_47,2022-04-25T11:54:11.486Z,,,,,,,,,,,,,,,,,53,,,,,,,,,,,,,,759.359999999986,,response,,,,99,,,,,,,Space,keypress(Space),,,,,,,,"---- -- ----- -- ------ - ------- --- ----------<br>------------- ------ ------ ---- ---- ------- ----- -- ----<br>-------- ------- -- ---------- --- - --- ----- ----- ----<br>---- --- --- ----- --- ---- ---- ------- ----- ---- -------<br>--- --- -- ----- -- --- ---- -- be, ---- -- ------ ------<br>--- ----- -- ----",190308.30000000005,190305,189528.99,189531.90000000002,189545.64,190311.55,,47,"be,"
screen,html.Screen,2_1_0_1_48,2022-04-25T11:54:12.148Z,,,,,,,,,,,,,,,,,53,,,,,,,,,,,,,,656.4500000000116,,response,,,,99,,,,,,,Space,keypress(Space),,,,,,,,---- -- ----- -- ------ - ------- --- ----------<br>------------- ------ ------ ---- ---- ------- ----- -- ----<br>-------- ------- -- ---------- --- - --- ----- ----- ----<br>---- --- --- ----- --- ---- ---- ------- ----- ---- -------<br>--- --- -- ----- -- --- ---- -- --- even -- ------ ------<br>--- ----- -- ----,190970.40000000002,190968,190294.9,190308.5,190311.55,190977.562,,48,even
screen,html.Screen,2_1_0_1_49,2022-04-25T11:54:12.819Z,,,,,,,,,,,,,,,,,53,,,,,,,,,,,,,,660.9379999999946,,response,,,,99,,,,,,,Space,keypress(Space),,,,,,,,---- -- ----- -- ------ - ------- --- ----------<br>------------- ------ ------ ---- ---- ------- ----- -- ----<br>-------- ------- -- ---------- --- - --- ----- ----- ----<br>---- --- --- ----- --- ---- ---- ------- ----- ---- -------<br>--- --- -- ----- -- --- ---- -- --- ---- if ------ ------<br>--- ----- -- ----,191641.40000000002,191638.5,190960.912,190970.70000000007,190977.562,191643.572,,49,if
screen,html.Screen,2_1_0_1_50,2022-04-25T11:54:13.511Z,,,,,,,,,,,,,,,,,53,,,,,,,,,,,,,,687.9280000000144,,response,,,,99,,,,,,,Space,keypress(Space),,,,,,,,---- -- ----- -- ------ - ------- --- ----------<br>------------- ------ ------ ---- ---- ------- ----- -- ----<br>-------- ------- -- ---------- --- - --- ----- ----- ----<br>---- --- --- ----- --- ---- ---- ------- ----- ---- -------<br>--- --- -- ----- -- --- ---- -- --- ---- -- that's ------<br>--- ----- -- ----,192334,192331.5,191626.922,191641.70000000007,191643.572,192342.882,,50,that's
screen,html.Screen,2_1_0_1_51,2022-04-25T11:54:14.247Z,,,,,,,,,,,,,,,,,53,,,,,,,,,,,,,,724.7179999999644,,response,,,,99,,,,,,,Space,keypress(Space),,,,,,,,---- -- ----- -- ------ - ------- --- ----------<br>------------- ------ ------ ---- ---- ------- ----- -- ----<br>-------- ------- -- ---------- --- - --- ----- ----- ----<br>---- --- --- ----- --- ---- ---- ------- ----- ---- -------<br>--- --- -- ----- -- --- ---- -- --- ---- -- ------ really<br>--- ----- -- ----,193069.80000000005,193067.59999999998,192326.232,192334.20000000007,192342.882,193075.492,,51,really
screen,html.Screen,2_1_0_1_52,2022-04-25T11:54:15.009Z,,,,,,,,,,,,,,,,,53,,,,,,,,,,,,,,752.8080000000482,,response,,,,99,,,,,,,Space,keypress(Space),,,,,,,,---- -- ----- -- ------ - ------- --- ----------<br>------------- ------ ------ ---- ---- ------- ----- -- ----<br>-------- ------- -- ---------- --- - --- ----- ----- ----<br>---- --- --- ----- --- ---- ---- ------- ----- ---- -------<br>--- --- -- ----- -- --- ---- -- --- ---- -- ------ ------<br>not ----- -- ----,193832,193828.30000000005,193058.842,193070.20000000007,193075.492,193841.404,,52,not
screen,html.Screen,2_1_0_1_53,2022-04-25T11:54:15.741Z,,,,,,,,,,,,,,,,,53,,,,,,,,,,,,,,720.396000000037,,response,,,,99,,,,,,,Space,keypress(Space),,,,,,,,---- -- ----- -- ------ - ------- --- ----------<br>------------- ------ ------ ---- ---- ------- ----- -- ----<br>-------- ------- -- ---------- --- - --- ----- ----- ----<br>---- --- --- ----- --- ---- ---- ------- ----- ---- -------<br>--- --- -- ----- -- --- ---- -- --- ---- -- ------ ------<br>--- close -- ----,194563.90000000002,194561.80000000005,193824.754,193832.20000000007,193841.404,194574.015,,53,close
screen,html.Screen,2_1_0_1_54,2022-04-25T11:54:16.457Z,,,,,,,,,,,,,,,,,53,,,,,,,,,,,,,,703.484999999986,,response,,,,99,,,,,,,Space,keypress(Space),,,,,,,,---- -- ----- -- ------ - ------- --- ----------<br>------------- ------ ------ ---- ---- ------- ----- -- ----<br>-------- ------- -- ---------- --- - --- ----- ----- ----<br>---- --- --- ----- --- ---- ---- ------- ----- ---- -------<br>--- --- -- ----- -- --- ---- -- --- ---- -- ------ ------<br>--- ----- at ----,195279.80000000005,195277.5,194557.365,194564.20000000007,194574.015,195289.977,,54,at
screen,html.Screen,2_1_0_1_55,2022-04-25T11:54:17.394Z,,,,,,,,,,,,,,,,,53,,,,,,,,,,,,,,923.7230000000563,,response,,,,99,,,,,,,Space,keypress(Space),,,,,,,,---- -- ----- -- ------ - ------- --- ----------<br>------------- ------ ------ ---- ---- ------- ----- -- ----<br>-------- ------- -- ---------- --- - --- ----- ----- ----<br>---- --- --- ----- --- ---- ---- ------- ----- ---- -------<br>--- --- -- ----- -- --- ---- -- --- ---- -- ------ ------<br>--- ----- -- all.,196216.30000000005,196213.70000000007,195273.327,195280.09999999998,195289.977,196222.388,,55,all.
Item 99,flow.Loop,2_1_0_1,2022-04-25T11:54:17.394Z,,,,,,,,,,,,,,,,,,,,,,,,,,,,,,,45463.15900000007,,completion,,,,,A,,,,,,,,,,,silence,,,,,196216.90000000002,196213.70000000007,150733.891,150735.70000000007,150750.541,196222.388,,,
Question 1,html.Screen,2_1_0_2,2022-04-25T11:54:28.295Z,,,,,,,,,,,,,,,,,,,,,,,,,,,,true,FALSE,,10890.21199999997,,response,,,,99,A,,,,,,FALSE,click #choice-2,,,,silence,,,,,207117.80000000005,207112.59999999998,196205.738,196217.09999999998,196222.388,207128.311,,,
Question 2,html.Screen,2_1_0_3,2022-04-25T11:54:39.509Z,,,,,,,,,,,,,,,,,,,,,,,,,,,,true,TRUE,,11197.189000000013,,response,,,,99,A,,,,,,TRUE,click #choice-1,,,,silence,,,,,218331.09999999998,218325.5,207111.661,207118,207128.311,218333.938,,,
Item 99,flow.Sequence,2_1_0,2022-04-25T11:54:39.509Z,,,,,,,,,,,,,,,,,,,,,,,,,,,,,,,77581.75899999999,,completion,,,,,,,,,,,,,,,,,,,,,218331.30000000005,218325.5,140727.091,140735.90000000002,140743.741,218333.938,,,
Holding screen,html.Screen,2_1_1_0,2022-04-25T11:54:49.503Z,,,,,,,,,,,,,,,,,,,,,,,,,,,,,,,10006.790999999997,,timeout,,,,,,,,,,,,,,,,,,,,,228325.30000000005,228324.079,218317.288,218331.40000000002,218333.938,228340.729,,,
screen,html.Screen,2_1_1_1_0,2022-04-25T11:54:50.800Z,,,,,,,,,,,,,,,,,54,,,,,,,,,,,,,,1278.4710000000778,,response,,,,100,,,,,,,Space,keypress(Space),,,,,,,,At --- ---- --- ------ ----- ------- ---- -- --- ------- --<br>------- ---------- ------ -- ----- -- ----- -- ---- ------<br>--- ----- --- --- ------ -------- ----- --- ------ ----- --<br>----- ----- ---------- --- --- ------ ------ ---- -- ------<br>------- --- ------ ----- --- ---- ------- -- ---- --- --<br>------- ------,229623,229619.20000000007,228324.079,228325.59999999998,228340.729,229639.444,,0,At
screen,html.Screen,2_1_1_1_1,2022-04-25T11:54:51.365Z,,,,,,,,,,,,,,,,,54,,,,,,,,,,,,,,544.7560000000813,,response,,,,100,,,,,,,Space,keypress(Space),,,,,,,,-- the ---- --- ------ ----- ------- ---- -- --- ------- --<br>------- ---------- ------ -- ----- -- ----- -- ---- ------<br>--- ----- --- --- ------ -------- ----- --- ------ ----- --<br>----- ----- ---------- --- --- ------ ------ ---- -- ------<br>------- --- ------ ----- --- ---- ------- -- ---- --- --<br>------- ------,230187.20000000007,230184.20000000007,229622.794,229623.20000000007,229639.444,230188.914,,1,the
screen,html.Screen,2_1_1_1_2,2022-04-25T11:54:51.843Z,,,,,,,,,,,,,,,,,54,,,,,,,,,,,,,,474.58600000001024,,response,,,,100,,,,,,,Space,keypress(Space),,,,,,,,-- --- time --- ------ ----- ------- ---- -- --- ------- --<br>------- ---------- ------ -- ----- -- ----- -- ---- ------<br>--- ----- --- --- ------ -------- ----- --- ------ ----- --<br>----- ----- ---------- --- --- ------ ------ ---- -- ------<br>------- --- ------ ----- --- ---- ------- -- ---- --- --<br>------- ------,230665.90000000002,230663.5,230172.264,230187.5,230188.914,230671.773,,2,time
screen,html.Screen,2_1_1_1_3,2022-04-25T11:54:52.238Z,,,,,,,,,,,,,,,,,54,,,,,,,,,,,,,,385.92700000008335,,response,,,,100,,,,,,,Space,keypress(Space),,,,,,,,-- --- ---- the ------ ----- ------- ---- -- --- ------- --<br>------- ---------- ------ -- ----- -- ----- -- ---- ------<br>--- ----- --- --- ------ -------- ----- --- ------ ----- --<br>----- ----- ---------- --- --- ------ ------ ---- -- ------<br>------- --- ------ ----- --- ---- ------- -- ---- --- --<br>------- ------,231060.09999999998,231057.70000000007,230655.123,230666.09999999998,230671.773,231071.38,,3,the
screen,html.Screen,2_1_1_1_4,2022-04-25T11:54:52.968Z,,,,,,,,,,,,,,,,,54,,,,,,,,,,,,,,717.3200000000652,,response,,,,100,,,,,,,Space,keypress(Space),,,,,,,,-- --- ---- --- French ----- ------- ---- -- --- ------- --<br>------- ---------- ------ -- ----- -- ----- -- ---- ------<br>--- ----- --- --- ------ -------- ----- --- ------ ----- --<br>----- ----- ---------- --- --- ------ ------ ---- -- ------<br>------- --- ------ ----- --- ---- ------- -- ---- --- --<br>------- ------,231790.90000000002,231788.70000000007,231054.73,231060.30000000005,231071.38,231803.986,,4,French
screen,html.Screen,2_1_1_1_5,2022-04-25T11:54:53.644Z,,,,,,,,,,,,,,,,,54,,,,,,,,,,,,,,660.0139999999956,,response,,,,100,,,,,,,Space,keypress(Space),,,,,,,,-- --- ---- --- ------ crown ------- ---- -- --- ------- --<br>------- ---------- ------ -- ----- -- ----- -- ---- ------<br>--- ----- --- --- ------ -------- ----- --- ------ ----- --<br>----- ----- ---------- --- --- ------ ------ ---- -- ------<br>------- --- ------ ----- --- ---- ------- -- ---- --- --<br>------- ------,232466.30000000005,232464,231787.336,231791.20000000007,231803.986,232469.997,,5,crown
screen,html.Screen,2_1_1_1_6,2022-04-25T11:54:54.279Z,,,,,,,,,,,,,,,,,54,,,,,,,,,,,,,,629.6029999999737,,response,,,,100,,,,,,,Space,keypress(Space),,,,,,,,-- --- ---- --- ------ ----- secured ---- -- --- ------- --<br>------- ---------- ------ -- ----- -- ----- -- ---- ------<br>--- ----- --- --- ------ -------- ----- --- ------ ----- --<br>----- ----- ---------- --- --- ------ ------ ---- -- ------<br>------- --- ------ ----- --- ---- ------- -- ---- --- --<br>------- ------,233101.90000000002,233099.59999999998,232453.347,232466.59999999998,232469.997,233119.358,,6,secured
screen,html.Screen,2_1_1_1_7,2022-04-25T11:54:54.948Z,,,,,,,,,,,,,,,,,54,,,,,,,,,,,,,,648.3420000000624,,response,,,,100,,,,,,,Space,keypress(Space),,,,,,,,-- --- ---- --- ------ ----- ------- much -- --- ------- --<br>------- ---------- ------ -- ----- -- ----- -- ---- ------<br>--- ----- --- --- ------ -------- ----- --- ------ ----- --<br>----- ----- ---------- --- --- ------ ------ ---- -- ------<br>------- --- ------ ----- --- ---- ------- -- ---- --- --<br>------- ------,233770.30000000005,233767.70000000007,233102.708,233102.20000000007,233119.358,233785.368,,7,much
screen,html.Screen,2_1_1_1_8,2022-04-25T11:54:55.536Z,,,,,,,,,,,,,,,,,54,,,,,,,,,,,,,,570.5320000000356,,response,,,,100,,,,,,,Space,keypress(Space),,,,,,,,-- --- ---- --- ------ ----- ------- ---- of --- ------- --<br>------- ---------- ------ -- ----- -- ----- -- ---- ------<br>--- ----- --- --- ------ -------- ----- --- ------ ----- --<br>----- ----- ---------- --- --- ------ ------ ---- -- ------<br>------- --- ------ ----- --- ---- ------- -- ---- --- --<br>------- ------,234359,234355.90000000002,233768.718,233770.5,233785.368,234368.128,,8,of
screen,html.Screen,2_1_1_1_9,2022-04-25T11:54:56.175Z,,,,,,,,,,,,,,,,,54,,,,,,,,,,,,,,626.2720000000263,,response,,,,100,,,,,,,Space,keypress(Space),,,,,,,,-- --- ---- --- ------ ----- ------- ---- -- its ------- --<br>------- ---------- ------ -- ----- -- ----- -- ---- ------<br>--- ----- --- --- ------ -------- ----- --- ------ ----- --<br>----- ----- ---------- --- --- ------ ------ ---- -- ------<br>------- --- ------ ----- --- ---- ------- -- ---- --- --<br>------- ------,234997.70000000007,234994.40000000002,234351.478,234359.30000000005,234368.128,235000.836,,9,its
screen,html.Screen,2_1_1_1_10,2022-04-25T11:54:56.831Z,,,,,,,,,,,,,,,,,54,,,,,,,,,,,,,,649.064000000013,,response,,,,100,,,,,,,Space,keypress(Space),,,,,,,,-- --- ---- --- ------ ----- ------- ---- -- --- revenue --<br>------- ---------- ------ -- ----- -- ----- -- ---- ------<br>--- ----- --- --- ------ -------- ----- --- ------ ----- --<br>----- ----- ---------- --- --- ------ ------ ---- -- ------<br>------- --- ------ ----- --- ---- ------- -- ---- --- --<br>------- ------,235653.09999999998,235649.90000000002,234984.186,234997.90000000002,235000.836,235666.847,,10,revenue
screen,html.Screen,2_1_1_1_11,2022-04-25T11:54:57.466Z,,,,,,,,,,,,,,,,,54,,,,,,,,,,,,,,618.853000000061,,response,,,,100,,,,,,,Space,keypress(Space),,,,,,,,-- --- ---- --- ------ ----- ------- ---- -- --- ------- by<br>------- ---------- ------ -- ----- -- ----- -- ---- ------<br>--- ----- --- --- ------ -------- ----- --- ------ ----- --<br>----- ----- ---------- --- --- ------ ------ ---- -- ------<br>------- --- ------ ----- --- ---- ------- -- ---- --- --<br>------- ------,236288.80000000005,236285.70000000007,235650.197,235653.40000000002,235666.847,236299.557,,11,by
screen,html.Screen,2_1_1_1_12,2022-04-25T11:54:58.086Z,,,,,,,,,,,,,,,,,54,,,,,,,,,,,,,,606.2430000000459,,response,,,,100,,,,,,,Space,keypress(Space),,,,,,,,-- --- ---- --- ------ ----- ------- ---- -- --- ------- --<br>issuing ---------- ------ -- ----- -- ----- -- ---- ------<br>--- ----- --- --- ------ -------- ----- --- ------ ----- --<br>----- ----- ---------- --- --- ------ ------ ---- -- ------<br>------- --- ------ ----- --- ---- ------- -- ---- --- --<br>------- ------,236908.5,236905.80000000005,236282.907,236288.90000000002,236299.557,236915.616,,12,issuing
screen,html.Screen,2_1_1_1_13,2022-04-25T11:54:58.662Z,,,,,,,,,,,,,,,,,54,,,,,,,,,,,,,,565.9839999999676,,response,,,,100,,,,,,,Space,keypress(Space),,,,,,,,-- --- ---- --- ------ ----- ------- ---- -- --- ------- --<br>------- government ------ -- ----- -- ----- -- ---- ------<br>--- ----- --- --- ------ -------- ----- --- ------ ----- --<br>----- ----- ---------- --- --- ------ ------ ---- -- ------<br>------- --- ------ ----- --- ---- ------- -- ---- --- --<br>------- ------,237484.5,237481.59999999998,236898.966,236908.80000000005,236915.616,237498.376,,13,government
screen,html.Screen,2_1_1_1_14,2022-04-25T11:55:00.095Z,,,,,,,,,,,,,,,,,54,,,,,,,,,,,,,,1416.8240000000806,,response,,,,100,,,,,,,Space,keypress(Space),,,,,,,,-- --- ---- --- ------ ----- ------- ---- -- --- ------- --<br>------- ---------- bonds. -- ----- -- ----- -- ---- ------<br>--- ----- --- --- ------ -------- ----- --- ------ ----- --<br>----- ----- ---------- --- --- ------ ------ ---- -- ------<br>------- --- ------ ----- --- ---- ------- -- ---- --- --<br>------- ------,238917.5,238915.20000000007,237481.726,237484.70000000007,237498.376,238930.285,,14,bonds.
screen,html.Screen,2_1_1_1_15,2022-04-25T11:55:00.609Z,,,,,,,,,,,,,,,,,54,,,,,,,,,,,,,,497.7149999999965,,response,,,,100,,,,,,,Space,keypress(Space),,,,,,,,-- --- ---- --- ------ ----- ------- ---- -- --- ------- --<br>------- ---------- ------ In ----- -- ----- -- ---- ------<br>--- ----- --- --- ------ -------- ----- --- ------ ----- --<br>----- ----- ---------- --- --- ------ ------ ---- -- ------<br>------- --- ------ ----- --- ---- ------- -- ---- --- --<br>------- ------,239431.20000000007,239428,238913.635,238917.70000000007,238930.285,239446.456,,15,In
screen,html.Screen,2_1_1_1_16,2022-04-25T11:55:02.272Z,,,,,,,,,,,,,,,,,54,,,,,,,,,,,,,,1645.0439999999944,,response,,,,100,,,,,,,Space,keypress(Space),,,,,,,,"-- --- ---- --- ------ ----- ------- ---- -- --- ------- --<br>------- ---------- ------ -- 1727, -- ----- -- ---- ------<br>--- ----- --- --- ------ -------- ----- --- ------ ----- --<br>----- ----- ---------- --- --- ------ ------ ---- -- ------<br>------- --- ------ ----- --- ---- ------- -- ---- --- --<br>------- ------",241094.80000000005,241091.5,239429.806,239431.5,239446.456,241111.465,,16,"1727,"
screen,html.Screen,2_1_1_1_17,2022-04-25T11:55:02.814Z,,,,,,,,,,,,,,,,,54,,,,,,,,,,,,,,523.1349999999802,,response,,,,100,,,,,,,Space,keypress(Space),,,,,,,,-- --- ---- --- ------ ----- ------- ---- -- --- ------- --<br>------- ---------- ------ -- ----- in ----- -- ---- ------<br>--- ----- --- --- ------ -------- ----- --- ------ ----- --<br>----- ----- ---------- --- --- ------ ------ ---- -- ------<br>------- --- ------ ----- --- ---- ------- -- ---- --- --<br>------- ------,241636.80000000005,241634.59999999998,241094.815,241095.09999999998,241111.465,241644.29,,17,in
screen,html.Screen,2_1_1_1_18,2022-04-25T11:55:03.482Z,,,,,,,,,,,,,,,,,54,,,,,,,,,,,,,,658.0100000000384,,response,,,,100,,,,,,,Space,keypress(Space),,,,,,,,-- --- ---- --- ------ ----- ------- ---- -- --- ------- --<br>------- ---------- ------ -- ----- -- order -- ---- ------<br>--- ----- --- --- ------ -------- ----- --- ------ ----- --<br>----- ----- ---------- --- --- ------ ------ ---- -- ------<br>------- --- ------ ----- --- ---- ------- -- ---- --- --<br>------- ------,242304.90000000002,242302.30000000005,241627.64,241637.09999999998,241644.29,242310.298,,18,order
screen,html.Screen,2_1_1_1_19,2022-04-25T11:55:03.928Z,,,,,,,,,,,,,,,,,54,,,,,,,,,,,,,,437.5020000000368,,response,,,,100,,,,,,,Space,keypress(Space),,,,,,,,-- --- ---- --- ------ ----- ------- ---- -- --- ------- --<br>------- ---------- ------ -- ----- -- ----- to ---- ------<br>--- ----- --- --- ------ -------- ----- --- ------ ----- --<br>----- ----- ---------- --- --- ------ ------ ---- -- ------<br>------- --- ------ ----- --- ---- ------- -- ---- --- --<br>------- ------,242750.5,242747.80000000005,242293.648,242305.09999999998,242310.298,242759.859,,19,to
screen,html.Screen,2_1_1_1_20,2022-04-25T11:55:04.390Z,,,,,,,,,,,,,,,,,54,,,,,,,,,,,,,,450.14100000000326,,response,,,,100,,,,,,,Space,keypress(Space),,,,,,,,-- --- ---- --- ------ ----- ------- ---- -- --- ------- --<br>------- ---------- ------ -- ----- -- ----- -- save ------<br>--- ----- --- --- ------ -------- ----- --- ------ ----- --<br>----- ----- ---------- --- --- ------ ------ ---- -- ------<br>------- --- ------ ----- --- ---- ------- -- ---- --- --<br>------- ------,243212.40000000002,243210,242743.209,242750.80000000005,242759.859,243226.065,,20,save
screen,html.Screen,2_1_1_1_21,2022-04-25T11:55:04.932Z,,,,,,,,,,,,,,,,,54,,,,,,,,,,,,,,526.2350000000442,,response,,,,100,,,,,,,Space,keypress(Space),,,,,,,,"-- --- ---- --- ------ ----- ------- ---- -- --- ------- --<br>------- ---------- ------ -- ----- -- ----- -- ---- money,<br>--- ----- --- --- ------ -------- ----- --- ------ ----- --<br>----- ----- ---------- --- --- ------ ------ ---- -- ------<br>------- --- ------ ----- --- ---- ------- -- ---- --- --<br>------- ------",243754.5,243752.30000000005,243209.415,243212.70000000007,243226.065,243758.872,,21,"money,"
screen,html.Screen,2_1_1_1_22,2022-04-25T11:55:05.571Z,,,,,,,,,,,,,,,,,54,,,,,,,,,,,,,,631.4280000000435,,response,,,,100,,,,,,,Space,keypress(Space),,,,,,,,-- --- ---- --- ------ ----- ------- ---- -- --- ------- --<br>------- ---------- ------ -- ----- -- ----- -- ---- ------<br>the ----- --- --- ------ -------- ----- --- ------ ----- --<br>----- ----- ---------- --- --- ------ ------ ---- -- ------<br>------- --- ------ ----- --- ---- ------- -- ---- --- --<br>------- ------,244393.20000000007,244390.30000000005,243742.222,243754.80000000005,243758.872,244408.231,,22,the
screen,html.Screen,2_1_1_1_23,2022-04-25T11:55:06.148Z,,,,,,,,,,,,,,,,,54,,,,,,,,,,,,,,559.6690000000235,,response,,,,100,,,,,,,Space,keypress(Space),,,,,,,,-- --- ---- --- ------ ----- ------- ---- -- --- ------- --<br>------- ---------- ------ -- ----- -- ----- -- ---- ------<br>--- state --- --- ------ -------- ----- --- ------ ----- --<br>----- ----- ---------- --- --- ------ ------ ---- -- ------<br>------- --- ------ ----- --- ---- ------- -- ---- --- --<br>------- ------,244970.59999999998,244967.90000000002,244391.581,244393.40000000002,244408.231,244974.34,,23,state
screen,html.Screen,2_1_1_1_24,2022-04-25T11:55:06.743Z,,,,,,,,,,,,,,,,,54,,,,,,,,,,,,,,588.7599999999802,,response,,,,100,,,,,,,Space,keypress(Space),,,,,,,,-- --- ---- --- ------ ----- ------- ---- -- --- ------- --<br>------- ---------- ------ -- ----- -- ----- -- ---- ------<br>--- ----- cut --- ------ -------- ----- --- ------ ----- --<br>----- ----- ---------- --- --- ------ ------ ---- -- ------<br>------- --- ------ ----- --- ---- ------- -- ---- --- --<br>------- ------,245565.40000000002,245563.09999999998,244957.69,244970.90000000002,244974.34,245573.749,,24,cut
screen,html.Screen,2_1_1_1_25,2022-04-25T11:55:07.324Z,,,,,,,,,,,,,,,,,54,,,,,,,,,,,,,,569.2509999999893,,response,,,,100,,,,,,,Space,keypress(Space),,,,,,,,-- --- ---- --- ------ ----- ------- ---- -- --- ------- --<br>------- ---------- ------ -- ----- -- ----- -- ---- ------<br>--- ----- --- the ------ -------- ----- --- ------ ----- --<br>----- ----- ---------- --- --- ------ ------ ---- -- ------<br>------- --- ------ ----- --- ---- ------- -- ---- --- --<br>------- ------,246146.40000000002,246143,245557.099,245565.59999999998,245573.749,246156.509,,25,the
screen,html.Screen,2_1_1_1_26,2022-04-25T11:55:07.957Z,,,,,,,,,,,,,,,,,54,,,,,,,,,,,,,,619.4910000000091,,response,,,,100,,,,,,,Space,keypress(Space),,,,,,,,-- --- ---- --- ------ ----- ------- ---- -- --- ------- --<br>------- ---------- ------ -- ----- -- ----- -- ---- ------<br>--- ----- --- --- bonds' -------- ----- --- ------ ----- --<br>----- ----- ---------- --- --- ------ ------ ---- -- ------<br>------- --- ------ ----- --- ---- ------- -- ---- --- --<br>------- ------,246779,246776,246139.859,246146.70000000007,246156.509,246789.217,,26,bonds'
screen,html.Screen,2_1_1_1_27,2022-04-25T11:55:08.576Z,,,,,,,,,,,,,,,,,54,,,,,,,,,,,,,,606.9830000000657,,response,,,,100,,,,,,,Space,keypress(Space),,,,,,,,-- --- ---- --- ------ ----- ------- ---- -- --- ------- --<br>------- ---------- ------ -- ----- -- ----- -- ---- ------<br>--- ----- --- --- ------ interest ----- --- ------ ----- --<br>----- ----- ---------- --- --- ------ ------ ---- -- ------<br>------- --- ------ ----- --- ---- ------- -- ---- --- --<br>------- ------,247398.40000000002,247396.20000000007,246772.567,246779.30000000005,246789.217,247405.276,,27,interest
screen,html.Screen,2_1_1_1_28,2022-04-25T11:55:09.114Z,,,,,,,,,,,,,,,,,54,,,,,,,,,,,,,,528.4240000000573,,response,,,,100,,,,,,,Space,keypress(Space),,,,,,,,-- --- ---- --- ------ ----- ------- ---- -- --- ------- --<br>------- ---------- ------ -- ----- -- ----- -- ---- ------<br>--- ----- --- --- ------ -------- rate. --- ------ ----- --<br>----- ----- ---------- --- --- ------ ------ ---- -- ------<br>------- --- ------ ----- --- ---- ------- -- ---- --- --<br>------- ------,247936.40000000002,247933.70000000007,247388.626,247398.59999999998,247405.276,247938.087,,28,rate.
screen,html.Screen,2_1_1_1_29,2022-04-25T11:55:09.663Z,,,,,,,,,,,,,,,,,54,,,,,,,,,,,,,,545.213000000047,,response,,,,100,,,,,,,Space,keypress(Space),,,,,,,,-- --- ---- --- ------ ----- ------- ---- -- --- ------- --<br>------- ---------- ------ -- ----- -- ----- -- ---- ------<br>--- ----- --- --- ------ -------- ----- The ------ ----- --<br>----- ----- ---------- --- --- ------ ------ ---- -- ------<br>------- --- ------ ----- --- ---- ------- -- ---- --- --<br>------- ------,248485.59999999998,248483.30000000005,247921.437,247936.59999999998,247938.087,248487.545,,29,The
screen,html.Screen,2_1_1_1_30,2022-04-25T11:55:10.306Z,,,,,,,,,,,,,,,,,54,,,,,,,,,,,,,,638.3550000000105,,response,,,,100,,,,,,,Space,keypress(Space),,,,,,,,-- --- ---- --- ------ ----- ------- ---- -- --- ------- --<br>------- ---------- ------ -- ----- -- ----- -- ---- ------<br>--- ----- --- --- ------ -------- ----- --- market ----- --<br>----- ----- ---------- --- --- ------ ------ ---- -- ------<br>------- --- ------ ----- --- ---- ------- -- ---- --- --<br>------- ------,249128.20000000007,249125.90000000002,248470.895,248485.90000000002,248487.545,249136.903,,30,market
screen,html.Screen,2_1_1_1_31,2022-04-25T11:55:10.921Z,,,,,,,,,,,,,,,,,54,,,,,,,,,,,,,,604.3970000000554,,response,,,,100,,,,,,,Space,keypress(Space),,,,,,,,-- --- ---- --- ------ ----- ------- ---- -- --- ------- --<br>------- ---------- ------ -- ----- -- ----- -- ---- ------<br>--- ----- --- --- ------ -------- ----- --- ------ value --<br>----- ----- ---------- --- --- ------ ------ ---- -- ------<br>------- --- ------ ----- --- ---- ------- -- ---- --- --<br>------- ------,249743.90000000002,249741.30000000005,249120.253,249128.5,249136.903,249752.963,,31,value
screen,html.Screen,2_1_1_1_32,2022-04-25T11:55:11.502Z,,,,,,,,,,,,,,,,,54,,,,,,,,,,,,,,568.9370000000345,,response,,,,100,,,,,,,Space,keypress(Space),,,,,,,,-- --- ---- --- ------ ----- ------- ---- -- --- ------- --<br>------- ---------- ------ -- ----- -- ----- -- ---- ------<br>--- ----- --- --- ------ -------- ----- --- ------ ----- of<br>----- ----- ---------- --- --- ------ ------ ---- -- ------<br>------- --- ------ ----- --- ---- ------- -- ---- --- --<br>------- ------,250324.20000000007,250321.90000000002,249736.313,249744.20000000007,249752.963,250335.722,,32,of
screen,html.Screen,2_1_1_1_33,2022-04-25T11:55:12.205Z,,,,,,,,,,,,,,,,,54,,,,,,,,,,,,,,689.478000000061,,response,,,,100,,,,,,,Space,keypress(Space),,,,,,,,-- --- ---- --- ------ ----- ------- ---- -- --- ------- --<br>------- ---------- ------ -- ----- -- ----- -- ---- ------<br>--- ----- --- --- ------ -------- ----- --- ------ ----- --<br>these ----- ---------- --- --- ------ ------ ---- -- ------<br>------- --- ------ ----- --- ---- ------- -- ---- --- --<br>------- ------,251027.5,251025.20000000007,250319.072,250324.5,250335.722,251035.031,,33,these
screen,html.Screen,2_1_1_1_34,2022-04-25T11:55:12.739Z,,,,,,,,,,,,,,,,,54,,,,,,,,,,,,,,522.5689999999886,,response,,,,100,,,,,,,Space,keypress(Space),,,,,,,,-- --- ---- --- ------ ----- ------- ---- -- --- ------- --<br>------- ---------- ------ -- ----- -- ----- -- ---- ------<br>--- ----- --- --- ------ -------- ----- --- ------ ----- --<br>----- bonds ---------- --- --- ------ ------ ---- -- ------<br>------- --- ------ ----- --- ---- ------- -- ---- --- --<br>------- ------,251561.40000000002,251557.59999999998,251018.381,251027.80000000005,251035.031,251567.842,,34,bonds
screen,html.Screen,2_1_1_1_35,2022-04-25T11:55:13.559Z,,,,,,,,,,,,,,,,,54,,,,,,,,,,,,,,811.2579999999725,,response,,,,100,,,,,,,Space,keypress(Space),,,,,,,,"-- --- ---- --- ------ ----- ------- ---- -- --- ------- --<br>------- ---------- ------ -- ----- -- ----- -- ---- ------<br>--- ----- --- --- ------ -------- ----- --- ------ ----- --<br>----- ----- plummeted, --- --- ------ ------ ---- -- ------<br>------- --- ------ ----- --- ---- ------- -- ---- --- --<br>------- ------",252381.30000000005,252379.09999999998,251551.192,251561.59999999998,251567.842,252383.7,,35,"plummeted,"
screen,html.Screen,2_1_1_1_36,2022-04-25T11:55:14.149Z,,,,,,,,,,,,,,,,,54,,,,,,,,,,,,,,585.1000000000349,,response,,,,100,,,,,,,Space,keypress(Space),,,,,,,,-- --- ---- --- ------ ----- ------- ---- -- --- ------- --<br>------- ---------- ------ -- ----- -- ----- -- ---- ------<br>--- ----- --- --- ------ -------- ----- --- ------ ----- --<br>----- ----- ---------- and --- ------ ------ ---- -- ------<br>------- --- ------ ----- --- ---- ------- -- ---- --- --<br>------- ------,252971.09999999998,252968.80000000005,252367.05,252381.59999999998,252383.7,252983.113,,36,and
screen,html.Screen,2_1_1_1_37,2022-04-25T11:55:14.745Z,,,,,,,,,,,,,,,,,54,,,,,,,,,,,,,,581.1870000000345,,response,,,,100,,,,,,,Space,keypress(Space),,,,,,,,-- --- ---- --- ------ ----- ------- ---- -- --- ------- --<br>------- ---------- ------ -- ----- -- ----- -- ---- ------<br>--- ----- --- --- ------ -------- ----- --- ------ ----- --<br>----- ----- ---------- --- the ------ ------ ---- -- ------<br>------- --- ------ ----- --- ---- ------- -- ---- --- --<br>------- ------,253567.20000000007,253564.30000000005,252966.463,252971.30000000005,252983.113,253582.522,,37,the
screen,html.Screen,2_1_1_1_38,2022-04-25T11:55:15.353Z,,,,,,,,,,,,,,,,,54,,,,,,,,,,,,,,589.8780000000261,,response,,,,100,,,,,,,Space,keypress(Space),,,,,,,,-- --- ---- --- ------ ----- ------- ---- -- --- ------- --<br>------- ---------- ------ -- ----- -- ----- -- ---- ------<br>--- ----- --- --- ------ -------- ----- --- ------ ----- --<br>----- ----- ---------- --- --- market ------ ---- -- ------<br>------- --- ------ ----- --- ---- ------- -- ---- --- --<br>------- ------,254175.30000000005,254172.40000000002,253565.872,253567.40000000002,253582.522,254181.931,,38,market
screen,html.Screen,2_1_1_1_39,2022-04-25T11:55:16.020Z,,,,,,,,,,,,,,,,,54,,,,,,,,,,,,,,658.2690000000584,,response,,,,100,,,,,,,Space,keypress(Space),,,,,,,,-- --- ---- --- ------ ----- ------- ---- -- --- ------- --<br>------- ---------- ------ -- ----- -- ----- -- ---- ------<br>--- ----- --- --- ------ -------- ----- --- ------ ----- --<br>----- ----- ---------- --- --- ------ became ---- -- ------<br>------- --- ------ ----- --- ---- ------- -- ---- --- --<br>------- ------,254842.80000000005,254840.20000000007,254165.281,254175.70000000007,254181.931,254847.94,,39,became
screen,html.Screen,2_1_1_1_40,2022-04-25T11:55:16.733Z,,,,,,,,,,,,,,,,,54,,,,,,,,,,,,,,705.7600000000675,,response,,,,100,,,,,,,Space,keypress(Space),,,,,,,,-- --- ---- --- ------ ----- ------- ---- -- --- ------- --<br>------- ---------- ------ -- ----- -- ----- -- ---- ------<br>--- ----- --- --- ------ -------- ----- --- ------ ----- --<br>----- ----- ---------- --- --- ------ ------ wary -- ------<br>------- --- ------ ----- --- ---- ------- -- ---- --- --<br>------- ------,255555.90000000002,255553.70000000007,254831.29,254843.09999999998,254847.94,255563.901,,40,wary
screen,html.Screen,2_1_1_1_41,2022-04-25T11:55:17.296Z,,,,,,,,,,,,,,,,,54,,,,,,,,,,,,,,552.4990000000107,,response,,,,100,,,,,,,Space,keypress(Space),,,,,,,,-- --- ---- --- ------ ----- ------- ---- -- --- ------- --<br>------- ---------- ------ -- ----- -- ----- -- ---- ------<br>--- ----- --- --- ------ -------- ----- --- ------ ----- --<br>----- ----- ---------- --- --- ------ ------ ---- of ------<br>------- --- ------ ----- --- ---- ------- -- ---- --- --<br>------- ------,256118.59999999998,256116.40000000002,255547.251,255556.20000000007,255563.901,256130.011,,41,of
screen,html.Screen,2_1_1_1_42,2022-04-25T11:55:17.904Z,,,,,,,,,,,,,,,,,54,,,,,,,,,,,,,,594.289000000048,,response,,,,100,,,,,,,Space,keypress(Space),,,,,,,,-- --- ---- --- ------ ----- ------- ---- -- --- ------- --<br>------- ---------- ------ -- ----- -- ----- -- ---- ------<br>--- ----- --- --- ------ -------- ----- --- ------ ----- --<br>----- ----- ---------- --- --- ------ ------ ---- -- French<br>------- --- ------ ----- --- ---- ------- -- ---- --- --<br>------- ------,256726.90000000002,256724.30000000005,256113.361,256118.70000000007,256130.011,256729.42,,42,French
screen,html.Screen,2_1_1_1_43,2022-04-25T11:55:18.610Z,,,,,,,,,,,,,,,,,54,,,,,,,,,,,,,,700.6799999999639,,response,,,,100,,,,,,,Space,keypress(Space),,,,,,,,-- --- ---- --- ------ ----- ------- ---- -- --- ------- --<br>------- ---------- ------ -- ----- -- ----- -- ---- ------<br>--- ----- --- --- ------ -------- ----- --- ------ ----- --<br>----- ----- ---------- --- --- ------ ------ ---- -- ------<br>credit. --- ------ ----- --- ---- ------- -- ---- --- --<br>------- ------,257432.70000000007,257430.09999999998,256712.77,256727.09999999998,256729.42,257445.379,,43,credit.
screen,html.Screen,2_1_1_1_44,2022-04-25T11:55:19.261Z,,,,,,,,,,,,,,,,,54,,,,,,,,,,,,,,634.9210000000603,,response,,,,100,,,,,,,Space,keypress(Space),,,,,,,,-- --- ---- --- ------ ----- ------- ---- -- --- ------- --<br>------- ---------- ------ -- ----- -- ----- -- ---- ------<br>--- ----- --- --- ------ -------- ----- --- ------ ----- --<br>----- ----- ---------- --- --- ------ ------ ---- -- ------<br>------- The ------ ----- --- ---- ------- -- ---- --- --<br>------- ------,258083.09999999998,258080.30000000005,257428.729,257433,257445.379,258094.74,,44,The
screen,html.Screen,2_1_1_1_45,2022-04-25T11:55:19.830Z,,,,,,,,,,,,,,,,,54,,,,,,,,,,,,,,555.6600000000326,,response,,,,100,,,,,,,Space,keypress(Space),,,,,,,,-- --- ---- --- ------ ----- ------- ---- -- --- ------- --<br>------- ---------- ------ -- ----- -- ----- -- ---- ------<br>--- ----- --- --- ------ -------- ----- --- ------ ----- --<br>----- ----- ---------- --- --- ------ ------ ---- -- ------<br>------- --- French ----- --- ---- ------- -- ---- --- --<br>------- ------,258652.70000000007,258650.40000000002,258078.09,258083.30000000005,258094.74,258660.85,,45,French
screen,html.Screen,2_1_1_1_46,2022-04-25T11:55:20.461Z,,,,,,,,,,,,,,,,,54,,,,,,,,,,,,,,620.0500000000175,,response,,,,100,,,,,,,Space,keypress(Space),,,,,,,,-- --- ---- --- ------ ----- ------- ---- -- --- ------- --<br>------- ---------- ------ -- ----- -- ----- -- ---- ------<br>--- ----- --- --- ------ -------- ----- --- ------ ----- --<br>----- ----- ---------- --- --- ------ ------ ---- -- ------<br>------- --- ------ state --- ---- ------- -- ---- --- --<br>------- ------,259283.59999999998,259280.90000000002,258644.2,258652.90000000002,258660.85,259293.558,,46,state
screen,html.Screen,2_1_1_1_47,2022-04-25T11:55:21.041Z,,,,,,,,,,,,,,,,,54,,,,,,,,,,,,,,567.44200000001,,response,,,,100,,,,,,,Space,keypress(Space),,,,,,,,-- --- ---- --- ------ ----- ------- ---- -- --- ------- --<br>------- ---------- ------ -- ----- -- ----- -- ---- ------<br>--- ----- --- --- ------ -------- ----- --- ------ ----- --<br>----- ----- ---------- --- --- ------ ------ ---- -- ------<br>------- --- ------ ----- was ---- ------- -- ---- --- --<br>------- ------,259863.90000000002,259861,259276.908,259283.80000000005,259293.558,259876.318,,47,was
screen,html.Screen,2_1_1_1_48,2022-04-25T11:55:21.631Z,,,,,,,,,,,,,,,,,54,,,,,,,,,,,,,,574.582000000024,,response,,,,100,,,,,,,Space,keypress(Space),,,,,,,,-- --- ---- --- ------ ----- ------- ---- -- --- ------- --<br>------- ---------- ------ -- ----- -- ----- -- ---- ------<br>--- ----- --- --- ------ -------- ----- --- ------ ----- --<br>----- ----- ---------- --- --- ------ ------ ---- -- ------<br>------- --- ------ ----- --- left ------- -- ---- --- --<br>------- ------,260453.20000000007,260450.90000000002,259859.668,259864.20000000007,259876.318,260459.077,,48,left
screen,html.Screen,2_1_1_1_49,2022-04-25T11:55:22.209Z,,,,,,,,,,,,,,,,,54,,,,,,,,,,,,,,569.4230000000098,,response,,,,100,,,,,,,Space,keypress(Space),,,,,,,,-- --- ---- --- ------ ----- ------- ---- -- --- ------- --<br>------- ---------- ------ -- ----- -- ----- -- ---- ------<br>--- ----- --- --- ------ -------- ----- --- ------ ----- --<br>----- ----- ---------- --- --- ------ ------ ---- -- ------<br>------- --- ------ ----- --- ---- without -- ---- --- --<br>------- ------,261031.20000000007,261028.5,260442.427,260453.5,260459.077,261041.837,,49,without
screen,html.Screen,2_1_1_1_50,2022-04-25T11:55:22.797Z,,,,,,,,,,,,,,,,,54,,,,,,,,,,,,,,574.0630000000237,,response,,,,100,,,,,,,Space,keypress(Space),,,,,,,,-- --- ---- --- ------ ----- ------- ---- -- --- ------- --<br>------- ---------- ------ -- ----- -- ----- -- ---- ------<br>--- ----- --- --- ------ -------- ----- --- ------ ----- --<br>----- ----- ---------- --- --- ------ ------ ---- -- ------<br>------- --- ------ ----- --- ---- ------- an ---- --- --<br>------- ------,261619.5,261615.90000000002,261025.187,261031.40000000002,261041.837,261624.595,,50,an
screen,html.Screen,2_1_1_1_51,2022-04-25T11:55:23.376Z,,,,,,,,,,,,,,,,,54,,,,,,,,,,,,,,571.2050000000454,,response,,,,100,,,,,,,Space,keypress(Space),,,,,,,,-- --- ---- --- ------ ----- ------- ---- -- --- ------- --<br>------- ---------- ------ -- ----- -- ----- -- ---- ------<br>--- ----- --- --- ------ -------- ----- --- ------ ----- --<br>----- ----- ---------- --- --- ------ ------ ---- -- ------<br>------- --- ------ ----- --- ---- ------- -- easy --- --<br>------- ------,262198.30000000005,262195.80000000005,261607.945,261619.80000000005,261624.595,262207.354,,51,easy
screen,html.Screen,2_1_1_1_52,2022-04-25T11:55:23.991Z,,,,,,,,,,,,,,,,,54,,,,,,,,,,,,,,603.6460000000079,,response,,,,100,,,,,,,Space,keypress(Space),,,,,,,,-- --- ---- --- ------ ----- ------- ---- -- --- ------- --<br>------- ---------- ------ -- ----- -- ----- -- ---- ------<br>--- ----- --- --- ------ -------- ----- --- ------ ----- --<br>----- ----- ---------- --- --- ------ ------ ---- -- ------<br>------- --- ------ ----- --- ---- ------- -- ---- way --<br>------- ------,262813.5,262811,262190.704,262198.5,262207.354,262823.413,,52,way
screen,html.Screen,2_1_1_1_53,2022-04-25T11:55:24.695Z,,,,,,,,,,,,,,,,,54,,,,,,,,,,,,,,691.0869999999995,,response,,,,100,,,,,,,Space,keypress(Space),,,,,,,,-- --- ---- --- ------ ----- ------- ---- -- --- ------- --<br>------- ---------- ------ -- ----- -- ----- -- ---- ------<br>--- ----- --- --- ------ -------- ----- --- ------ ----- --<br>----- ----- ---------- --- --- ------ ------ ---- -- ------<br>------- --- ------ ----- --- ---- ------- -- ---- --- of<br>------- ------,263517.1,263514.5,262806.763,262813.9,262823.413,263522.722,,53,of
screen,html.Screen,2_1_1_1_54,2022-04-25T11:55:25.335Z,,,,,,,,,,,,,,,,,54,,,,,,,,,,,,,,632.0780000000377,,response,,,,100,,,,,,,Space,keypress(Space),,,,,,,,-- --- ---- --- ------ ----- ------- ---- -- --- ------- --<br>------- ---------- ------ -- ----- -- ----- -- ---- ------<br>--- ----- --- --- ------ -------- ----- --- ------ ----- --<br>----- ----- ---------- --- --- ------ ------ ---- -- ------<br>------- --- ------ ----- --- ---- ------- -- ---- --- --<br>raising ------,264157.30000000005,264154.80000000005,263506.072,263517.30000000005,263522.722,264172.084,,54,raising
screen,html.Screen,2_1_1_1_55,2022-04-25T11:55:26.003Z,,,,,,,,,,,,,,,,,54,,,,,,,,,,,,,,650.4160000000265,,response,,,,100,,,,,,,Space,keypress(Space),,,,,,,,-- --- ---- --- ------ ----- ------- ---- -- --- ------- --<br>------- ---------- ------ -- ----- -- ----- -- ---- ------<br>--- ----- --- --- ------ -------- ----- --- ------ ----- --<br>----- ----- ---------- --- --- ------ ------ ---- -- ------<br>------- --- ------ ----- --- ---- ------- -- ---- --- --<br>------- money.,264825.20000000007,264822.5,264155.434,264157.6,264172.084,264838.093,,55,money.
Item 100,flow.Loop,2_1_1_1,2022-04-25T11:55:26.003Z,,,,,,,,,,,,,,,,,,,,,,,,,,,,,,,36481.77100000001,,completion,,,,,A,,,,,,,,,,,silence,,,,,264825.6,264822.5,228324.079,228325.59999999998,228340.729,264838.093,,,
Question 1,html.Screen,2_1_1_2,2022-04-25T11:55:30.999Z,,,,,,,,,,,,,,,,,,,,,,,,,,,,true,TRUE,,4979.006999999983,,response,,,,100,A,,,,,,TRUE,click #choice-1,,,,silence,,,,,269821.70000000007,269817.1,264821.443,264825.80000000005,264838.093,269833.165,,,
Question 2,html.Screen,2_1_1_3,2022-04-25T11:55:35.375Z,,,,,,,,,,,,,,,,,,,,,,,,,,,,true,FALSE,,4359.1350000000675,,response,,,,100,A,,,,,,FALSE,click #choice-2,,,,silence,,,,,274197.4,274192.30000000005,269816.515,269821.9,269833.165,274212.191,,,
Item 100,flow.Sequence,2_1_1,2022-04-25T11:55:35.375Z,,,,,,,,,,,,,,,,,,,,,,,,,,,,,,,55858.36200000005,,completion,,,,,,,,,,,,,,,,,,,,,274197.9,274192.30000000005,218317.288,218331.40000000002,218333.938,274212.191,,,
End of Practice,html.Page,2_1_2,2022-04-25T11:55:40.882Z,,,,,,,,,,,,,,,,,,,,,,,,,,,,,,,5491.609000000055,,form submission,,,,,,,,,,,,,,,,,,,,,279704.4,279703.80000000005,274195.541,274198.1,274212.191,279706.77,,,
Practice,flow.Sequence,2_1,2022-04-25T11:55:40.882Z,,,,,,,,,,,,,,,,,,,,,,,,,,,,,,,138960.05900000004,,completion,,,,,,,,,,,,,,,,,,,,,279704.6,279703.80000000005,140727.091,140735.90000000002,140743.741,279706.77,,,
Trap_instruction,html.Page,2_2_0,2022-04-25T11:55:47.920Z,,,,,,,,,,,,,,,,,,,,,,,,,,,,,,,7035.530000000028,,form submission,,,,,,,,,,,,,,,,,,,,,286742.70000000007,286742.30000000005,279690.12,279704.80000000005,279706.77,286766.381,,,
trap_trial,html.Screen,2_2_1,2022-04-25T11:55:52.022Z,,,,,,,,,,,,,,,,,,,,,,,,,,,,true,1,,4074.2189999999828,,response,,,,,,,,,,,1,click #choice-1,,,,,,,,,290844.70000000007,290840.6,286733.081,286742.9,286766.381,290845.742,,,
end of trap trial,html.Page,2_2_2,2022-04-25T11:55:54.236Z,,,,,,,,,,,,,,,,,,,,,,,,,,,,,,,2212.3579999999492,,form submission,,,,,,,,,,,,,,,,,,,,,293058.6,293058.1,290829.092,290844.9,290845.742,293060.277,,,
Trap 1,flow.Sequence,2_2,2022-04-25T11:55:54.236Z,,,,,,,,,,,,,,,,,,,,,,,,,,,,,,,13351.329999999958,,completion,,,,,,,,,,,,,,,,,,,,,293058.9,293058.1,279690.12,279704.80000000005,279706.77,293060.277,,,
Standby,html.Page,2_3_0,2022-04-25T11:56:02.214Z,,,,,,,,,,,,,,,,,,,,,,,,,,,,,,,7992.00900000002,,timeout,,,,,,,,,,,,,,,,,,,,,301036.70000000007,301035.636,293043.627,293059.20000000007,293060.277,301052.286,,,
Holding screen,html.Screen,2_3_1_0_0,2022-04-25T11:56:09.207Z,,,,,,,,,,,,,,,,,,,,,,,,,,,,,,,6993.213999999978,,timeout,,,,,,,,,,,,,,,,,,,,,308030,308028.85,301035.636,301037.1,301052.286,308045.5,,,
screen,html.Screen,2_3_1_0_1_0,2022-04-25T11:56:11.483Z,,,,,,,,,,,,,,,,,2,,,,,,,,,,,,,,2256.70000000007,,response,,,,1,A,,,,,,Space,keypress(Space),,,,silence,,,,Two ---- ------ --- ------- ---------- ------- ----------<br>--- --------- --- ----------- ------- ----- ------- ---<br>--------- ---- -- --- ---- -- --------- -- ---- -------<br>-- --------- ------ --- ----- ------ ---- --- --------- --<br>------ - ---- -- --- ----------- ------- ---- ----- -----<br>--- -------- - ------ ---- -- ----- ---- --- --- -----------<br>-- -------,310305.80000000005,310302.20000000007,308028.85,308030.5,308045.5,310309.926,,0,Two
screen,html.Screen,2_3_1_0_1_1,2022-04-25T11:56:12.037Z,,,,,,,,,,,,,,,,,2,,,,,,,,,,,,,,547.1739999999991,,response,,,,1,A,,,,,,Space,keypress(Space),,,,silence,,,,--- days ------ --- ------- ---------- ------- ----------<br>--- --------- --- ----------- ------- ----- ------- ---<br>--------- ---- -- --- ---- -- --------- -- ---- -------<br>-- --------- ------ --- ----- ------ ---- --- --------- --<br>------ - ---- -- --- ----------- ------- ---- ----- -----<br>--- -------- - ------ ---- -- ----- ---- --- --- -----------<br>-- -------,310859.30000000005,310857.1,310293.276,310306.1,310309.926,310876.05,,1,days
screen,html.Screen,2_3_1_0_1_2,2022-04-25T11:56:12.685Z,,,,,,,,,,,,,,,,,2,,,,,,,,,,,,,,628.9500000000116,,response,,,,1,A,,,,,,Space,keypress(Space),,,,silence,,,,"--- ---- later, --- ------- ---------- ------- ----------<br>--- --------- --- ----------- ------- ----- ------- ---<br>--------- ---- -- --- ---- -- --------- -- ---- -------<br>-- --------- ------ --- ----- ------ ---- --- --------- --<br>------ - ---- -- --- ----------- ------- ---- ----- -----<br>--- -------- - ------ ---- -- ----- ---- --- --- -----------<br>-- -------",311507.20000000007,311505,310859.4,310859.5,310876.05,311508.759,,2,"later,"
screen,html.Screen,2_3_1_0_1_3,2022-04-25T11:56:13.210Z,,,,,,,,,,,,,,,,,2,,,,,,,,,,,,,,521.5410000000265,,response,,,,1,A,,,,,,Space,keypress(Space),,,,silence,,,,--- ---- ------ the ------- ---------- ------- ----------<br>--- --------- --- ----------- ------- ----- ------- ---<br>--------- ---- -- --- ---- -- --------- -- ---- -------<br>-- --------- ------ --- ----- ------ ---- --- --------- --<br>------ - ---- -- --- ----------- ------- ---- ----- -----<br>--- -------- - ------ ---- -- ----- ---- --- --- -----------<br>-- -------,312032.9,312030.30000000005,311492.109,311507.30000000005,311508.759,312041.568,,3,the
screen,html.Screen,2_3_1_0_1_4,2022-04-25T11:56:13.597Z,,,,,,,,,,,,,,,,,2,,,,,,,,,,,,,,376.13200000004144,,response,,,,1,A,,,,,,Space,keypress(Space),,,,silence,,,,--- ---- ------ --- British ---------- ------- ----------<br>--- --------- --- ----------- ------- ----- ------- ---<br>--------- ---- -- --- ---- -- --------- -- ---- -------<br>-- --------- ------ --- ----- ------ ---- --- --------- --<br>------ - ---- -- --- ----------- ------- ---- ----- -----<br>--- -------- - ------ ---- -- ----- ---- --- --- -----------<br>-- -------,312420,312417.70000000007,312024.918,312033.1,312041.568,312424.526,,4,British
screen,html.Screen,2_3_1_0_1_5,2022-04-25T11:56:14.156Z,,,,,,,,,,,,,,,,,2,,,,,,,,,,,,,,551.274000000034,,response,,,,1,A,,,,,,Space,keypress(Space),,,,silence,,,,--- ---- ------ --- ------- astronomer ------- ----------<br>--- --------- --- ----------- ------- ----- ------- ---<br>--------- ---- -- --- ---- -- --------- -- ---- -------<br>-- --------- ------ --- ----- ------ ---- --- --------- --<br>------ - ---- -- --- ----------- ------- ---- ----- -----<br>--- -------- - ------ ---- -- ----- ---- --- --- -----------<br>-- -------,312978.1,312975.80000000005,312407.876,312420.20000000007,312424.526,312990.632,,5,astronomer
screen,html.Screen,2_3_1_0_1_6,2022-04-25T11:56:14.613Z,,,,,,,,,,,,,,,,,2,,,,,,,,,,,,,,442.86800000001676,,response,,,,1,A,,,,,,Space,keypress(Space),,,,silence,,,,--- ---- ------ --- ------- ---------- Richard ----------<br>--- --------- --- ----------- ------- ----- ------- ---<br>--------- ---- -- --- ---- -- --------- -- ---- -------<br>-- --------- ------ --- ----- ------ ---- --- --------- --<br>------ - ---- -- --- ----------- ------- ---- ----- -----<br>--- -------- - ------ ---- -- ----- ---- --- --- -----------<br>-- -------,313435.80000000005,313433.5,312973.982,312978.4,312990.632,313440.191,,6,Richard
screen,html.Screen,2_3_1_0_1_7,2022-04-25T11:56:15.227Z,,,,,,,,,,,,,,,,,2,,,,,,,,,,,,,,606.4089999999851,,response,,,,1,A,,,,,,Space,keypress(Space),,,,silence,,,,--- ---- ------ --- ------- ---------- ------- Carrington<br>--- --------- --- ----------- ------- ----- ------- ---<br>--------- ---- -- --- ---- -- --------- -- ---- -------<br>-- --------- ------ --- ----- ------ ---- --- --------- --<br>------ - ---- -- --- ----------- ------- ---- ----- -----<br>--- -------- - ------ ---- -- ----- ---- --- --- -----------<br>-- -------,314049.30000000005,314046.6,313423.541,313436,313440.191,314056.248,,7,Carrington
screen,html.Screen,2_3_1_0_1_8,2022-04-25T11:56:15.759Z,,,,,,,,,,,,,,,,,2,,,,,,,,,,,,,,522.5520000000251,,response,,,,1,A,,,,,,Space,keypress(Space),,,,silence,,,,--- ---- ------ --- ------- ---------- ------- ----------<br>was --------- --- ----------- ------- ----- ------- ---<br>--------- ---- -- --- ---- -- --------- -- ---- -------<br>-- --------- ------ --- ----- ------ ---- --- --------- --<br>------ - ---- -- --- ----------- ------- ---- ----- -----<br>--- -------- - ------ ---- -- ----- ---- --- --- -----------<br>-- -------,314581.1,314578.80000000005,314039.598,314049.5,314056.248,314589.058,,8,was
screen,html.Screen,2_3_1_0_1_9,2022-04-25T11:56:16.276Z,,,,,,,,,,,,,,,,,2,,,,,,,,,,,,,,507.2420000000275,,response,,,,1,A,,,,,,Space,keypress(Space),,,,silence,,,,--- ---- ------ --- ------- ---------- ------- ----------<br>--- observing --- ----------- ------- ----- ------- ---<br>--------- ---- -- --- ---- -- --------- -- ---- -------<br>-- --------- ------ --- ----- ------ ---- --- --------- --<br>------ - ---- -- --- ----------- ------- ---- ----- -----<br>--- -------- - ------ ---- -- ----- ---- --- --- -----------<br>-- -------,315098.6,315096.30000000005,314572.408,314581.30000000005,314589.058,315105.216,,9,observing
screen,html.Screen,2_3_1_0_1_10,2022-04-25T11:56:16.629Z,,,,,,,,,,,,,,,,,2,,,,,,,,,,,,,,343.08400000003166,,response,,,,1,A,,,,,,Space,keypress(Space),,,,silence,,,,--- ---- ------ --- ------- ---------- ------- ----------<br>--- --------- the ----------- ------- ----- ------- ---<br>--------- ---- -- --- ---- -- --------- -- ---- -------<br>-- --------- ------ --- ----- ------ ---- --- --------- --<br>------ - ---- -- --- ----------- ------- ---- ----- -----<br>--- -------- - ------ ---- -- ----- ---- --- --- -----------<br>-- -------,315451.4,315448.30000000005,315088.566,315098.70000000007,315105.216,315454.874,,10,the
screen,html.Screen,2_3_1_0_1_11,2022-04-25T11:56:17.151Z,,,,,,,,,,,,,,,,,2,,,,,,,,,,,,,,516.225999999966,,response,,,,1,A,,,,,,Space,keypress(Space),,,,silence,,,,--- ---- ------ --- ------- ---------- ------- ----------<br>--- --------- --- interesting ------- ----- ------- ---<br>--------- ---- -- --- ---- -- --------- -- ---- -------<br>-- --------- ------ --- ----- ------ ---- --- --------- --<br>------ - ---- -- --- ----------- ------- ---- ----- -----<br>--- -------- - ------ ---- -- ----- ---- --- --- -----------<br>-- -------,315973.70000000007,315971.1,315438.224,315451.6,315454.874,315987.679,,11,interesting
screen,html.Screen,2_3_1_0_1_12,2022-04-25T11:56:17.598Z,,,,,,,,,,,,,,,,,2,,,,,,,,,,,,,,430.920999999973,,response,,,,1,A,,,,,,Space,keypress(Space),,,,silence,,,,--- ---- ------ --- ------- ---------- ------- ----------<br>--- --------- --- ----------- sunspot ----- ------- ---<br>--------- ---- -- --- ---- -- --------- -- ---- -------<br>-- --------- ------ --- ----- ------ ---- --- --------- --<br>------ - ---- -- --- ----------- ------- ---- ----- -----<br>--- -------- - ------ ---- -- ----- ---- --- --- -----------<br>-- -------,316420.80000000005,316418.6,315971.029,315974,315987.679,316437.237,,12,sunspot
screen,html.Screen,2_3_1_0_1_13,2022-04-25T11:56:18.169Z,,,,,,,,,,,,,,,,,2,,,,,,,,,,,,,,552.0630000000237,,response,,,,1,A,,,,,,Space,keypress(Space),,,,silence,,,,--- ---- ------ --- ------- ---------- ------- ----------<br>--- --------- --- ----------- ------- group ------- ---<br>--------- ---- -- --- ---- -- --------- -- ---- -------<br>-- --------- ------ --- ----- ------ ---- --- --------- --<br>------ - ---- -- --- ----------- ------- ---- ----- -----<br>--- -------- - ------ ---- -- ----- ---- --- --- -----------<br>-- -------,316991.5,316989.30000000005,316420.587,316421.1,316437.237,317003.344,,13,group
screen,html.Screen,2_3_1_0_1_14,2022-04-25T11:56:18.597Z,,,,,,,,,,,,,,,,,2,,,,,,,,,,,,,,413.25599999999395,,response,,,,1,A,,,,,,Space,keypress(Space),,,,silence,,,,--- ---- ------ --- ------- ---------- ------- ----------<br>--- --------- --- ----------- ------- ----- through ---<br>--------- ---- -- --- ---- -- --------- -- ---- -------<br>-- --------- ------ --- ----- ------ ---- --- --------- --<br>------ - ---- -- --- ----------- ------- ---- ----- -----<br>--- -------- - ------ ---- -- ----- ---- --- --- -----------<br>-- -------,317419.5,317416.6,316986.694,316991.80000000005,317003.344,317436.252,,14,through
screen,html.Screen,2_3_1_0_1_15,2022-04-25T11:56:19.138Z,,,,,,,,,,,,,,,,,2,,,,,,,,,,,,,,521.2480000000214,,response,,,,1,A,,,,,,Space,keypress(Space),,,,silence,,,,--- ---- ------ --- ------- ---------- ------- ----------<br>--- --------- --- ----------- ------- ----- ------- his<br>--------- ---- -- --- ---- -- --------- -- ---- -------<br>-- --------- ------ --- ----- ------ ---- --- --------- --<br>------ - ---- -- --- ----------- ------- ---- ----- -----<br>--- -------- - ------ ---- -- ----- ---- --- --- -----------<br>-- -------,317960.1,317957.5,317419.602,317419.70000000007,317436.252,317969.059,,15,his
screen,html.Screen,2_3_1_0_1_16,2022-04-25T11:56:19.726Z,,,,,,,,,,,,,,,,,2,,,,,,,,,,,,,,576.4409999999916,,response,,,,1,A,,,,,,Space,keypress(Space),,,,silence,,,,--- ---- ------ --- ------- ---------- ------- ----------<br>--- --------- --- ----------- ------- ----- ------- ---<br>telescope ---- -- --- ---- -- --------- -- ---- -------<br>-- --------- ------ --- ----- ------ ---- --- --------- --<br>------ - ---- -- --- ----------- ------- ---- ----- -----<br>--- -------- - ------ ---- -- ----- ---- --- --- -----------<br>-- -------,318548.1,318545.5,317952.409,317960.4,317969.059,318551.817,,16,telescope
screen,html.Screen,2_3_1_0_1_17,2022-04-25T11:56:20.491Z,,,,,,,,,,,,,,,,,2,,,,,,,,,,,,,,758.4830000000657,,response,,,,1,A,,,,,,Space,keypress(Space),,,,silence,,,,--- ---- ------ --- ------- ---------- ------- ----------<br>--- --------- --- ----------- ------- ----- ------- ---<br>--------- when -- --- ---- -- --------- -- ---- -------<br>-- --------- ------ --- ----- ------ ---- --- --------- --<br>------ - ---- -- --- ----------- ------- ---- ----- -----<br>--- -------- - ------ ---- -- ----- ---- --- --- -----------<br>-- -------,319313.30000000005,319310.30000000005,318535.167,318548.5,318551.817,319317.726,,17,when
screen,html.Screen,2_3_1_0_1_18,2022-04-25T11:56:20.943Z,,,,,,,,,,,,,,,,,2,,,,,,,,,,,,,,444.97400000004563,,response,,,,1,A,,,,,,Space,keypress(Space),,,,silence,,,,--- ---- ------ --- ------- ---------- ------- ----------<br>--- --------- --- ----------- ------- ----- ------- ---<br>--------- ---- he --- ---- -- --------- -- ---- -------<br>-- --------- ------ --- ----- ------ ---- --- --------- --<br>------ - ---- -- --- ----------- ------- ---- ----- -----<br>--- -------- - ------ ---- -- ----- ---- --- --- -----------<br>-- -------,319765.9,319762.70000000007,319301.076,319313.5,319317.726,319767.288,,18,he
screen,html.Screen,2_3_1_0_1_19,2022-04-25T11:56:21.410Z,,,,,,,,,,,,,,,,,2,,,,,,,,,,,,,,463.31199999997625,,response,,,,1,A,,,,,,Space,keypress(Space),,,,silence,,,,--- ---- ------ --- ------- ---------- ------- ----------<br>--- --------- --- ----------- ------- ----- ------- ---<br>--------- ---- -- saw ---- -- --------- -- ---- -------<br>-- --------- ------ --- ----- ------ ---- --- --------- --<br>------ - ---- -- --- ----------- ------- ---- ----- -----<br>--- -------- - ------ ---- -- ----- ---- --- --- -----------<br>-- -------,320232.80000000005,320230.6,319750.638,319766.1,319767.288,320250.145,,19,saw
screen,html.Screen,2_3_1_0_1_20,2022-04-25T11:56:21.990Z,,,,,,,,,,,,,,,,,2,,,,,,,,,,,,,,558.2550000000047,,response,,,,1,A,,,,,,Space,keypress(Space),,,,silence,,,,--- ---- ------ --- ------- ---------- ------- ----------<br>--- --------- --- ----------- ------- ----- ------- ---<br>--------- ---- -- --- what -- --------- -- ---- -------<br>-- --------- ------ --- ----- ------ ---- --- --------- --<br>------ - ---- -- --- ----------- ------- ---- ----- -----<br>--- -------- - ------ ---- -- ----- ---- --- --- -----------<br>-- -------,320812.70000000007,320808.4,320233.495,320233.20000000007,320250.145,320816.252,,20,what
screen,html.Screen,2_3_1_0_1_21,2022-04-25T11:56:22.536Z,,,,,,,,,,,,,,,,,2,,,,,,,,,,,,,,539.7480000000214,,response,,,,1,A,,,,,,Space,keypress(Space),,,,silence,,,,--- ---- ------ --- ------- ---------- ------- ----------<br>--- --------- --- ----------- ------- ----- ------- ---<br>--------- ---- -- --- ---- he --------- -- ---- -------<br>-- --------- ------ --- ----- ------ ---- --- --------- --<br>------ - ---- -- --- ----------- ------- ---- ----- -----<br>--- -------- - ------ ---- -- ----- ---- --- --- -----------<br>-- -------,321358.4,321356,320799.602,320813,320816.252,321365.711,,21,he
screen,html.Screen,2_3_1_0_1_22,2022-04-25T11:56:23.005Z,,,,,,,,,,,,,,,,,2,,,,,,,,,,,,,,459.9890000000596,,response,,,,1,A,,,,,,Space,keypress(Space),,,,silence,,,,--- ---- ------ --- ------- ---------- ------- ----------<br>--- --------- --- ----------- ------- ----- ------- ---<br>--------- ---- -- --- ---- -- described -- ---- -------<br>-- --------- ------ --- ----- ------ ---- --- --------- --<br>------ - ---- -- --- ----------- ------- ---- ----- -----<br>--- -------- - ------ ---- -- ----- ---- --- --- -----------<br>-- -------,321828,321825.70000000007,321349.061,321358.6,321365.711,321831.92,,22,described
screen,html.Screen,2_3_1_0_1_23,2022-04-25T11:56:23.445Z,,,,,,,,,,,,,,,,,2,,,,,,,,,,,,,,433.179999999993,,response,,,,1,A,,,,,,Space,keypress(Space),,,,silence,,,,--- ---- ------ --- ------- ---------- ------- ----------<br>--- --------- --- ----------- ------- ----- ------- ---<br>--------- ---- -- --- ---- -- --------- as ---- -------<br>-- --------- ------ --- ----- ------ ---- --- --------- --<br>------ - ---- -- --- ----------- ------- ---- ----- -----<br>--- -------- - ------ ---- -- ----- ---- --- --- -----------<br>-- -------,322267.30000000005,322265.1,321815.27,321828.30000000005,321831.92,322281.477,,23,as
screen,html.Screen,2_3_1_0_1_24,2022-04-25T11:56:24.011Z,,,,,,,,,,,,,,,,,2,,,,,,,,,,,,,,548.8230000000331,,response,,,,1,A,,,,,,Space,keypress(Space),,,,silence,,,,"--- ---- ------ --- ------- ---------- ------- ----------<br>--- --------- --- ----------- ------- ----- ------- ---<br>--------- ---- -- --- ---- -- --------- -- ""two -------<br>-- --------- ------ --- ----- ------ ---- --- --------- --<br>------ - ---- -- --- ----------- ------- ---- ----- -----<br>--- -------- - ------ ---- -- ----- ---- --- --- -----------<br>-- -------",322833.4,322830.30000000005,322264.827,322267.5,322281.477,322847.583,,24,"""two"
screen,html.Screen,2_3_1_0_1_25,2022-04-25T11:56:24.656Z,,,,,,,,,,,,,,,,,2,,,,,,,,,,,,,,628.5169999999925,,response,,,,1,A,,,,,,Space,keypress(Space),,,,silence,,,,--- ---- ------ --- ------- ---------- ------- ----------<br>--- --------- --- ----------- ------- ----- ------- ---<br>--------- ---- -- --- ---- -- --------- -- ---- patches<br>-- --------- ------ --- ----- ------ ---- --- --------- --<br>------ - ---- -- --- ----------- ------- ---- ----- -----<br>--- -------- - ------ ---- -- ----- ---- --- --- -----------<br>-- -------,323478.4,323476.1,322830.933,322833.70000000007,322847.583,323480.292,,25,patches
screen,html.Screen,2_3_1_0_1_26,2022-04-25T11:56:25.289Z,,,,,,,,,,,,,,,,,2,,,,,,,,,,,,,,628.908000000054,,response,,,,1,A,,,,,,Space,keypress(Space),,,,silence,,,,--- ---- ------ --- ------- ---------- ------- ----------<br>--- --------- --- ----------- ------- ----- ------- ---<br>--------- ---- -- --- ---- -- --------- -- ---- -------<br>of --------- ------ --- ----- ------ ---- --- --------- --<br>------ - ---- -- --- ----------- ------- ---- ----- -----<br>--- -------- - ------ ---- -- ----- ---- --- --- -----------<br>-- -------,324111.9,324109.20000000007,323463.642,323478.70000000007,323480.292,324113.002,,26,of
screen,html.Screen,2_3_1_0_1_27,2022-04-25T11:56:26.514Z,,,,,,,,,,,,,,,,,2,,,,,,,,,,,,,,1221.1980000000913,,response,,,,1,A,,,,,,Space,keypress(Space),,,,silence,,,,--- ---- ------ --- ------- ---------- ------- ----------<br>--- --------- --- ----------- ------- ----- ------- ---<br>--------- ---- -- --- ---- -- --------- -- ---- -------<br>-- intensely ------ --- ----- ------ ---- --- --------- --<br>------ - ---- -- --- ----------- ------- ---- ----- -----<br>--- -------- - ------ ---- -- ----- ---- --- --- -----------<br>-- -------,325336.70000000007,325334.20000000007,324096.352,324112.20000000007,324113.002,325345.112,,27,intensely
screen,html.Screen,2_3_1_0_1_28,2022-04-25T11:56:27.073Z,,,,,,,,,,,,,,,,,2,,,,,,,,,,,,,,546.3879999999772,,response,,,,1,A,,,,,,Space,keypress(Space),,,,silence,,,,--- ---- ------ --- ------- ---------- ------- ----------<br>--- --------- --- ----------- ------- ----- ------- ---<br>--------- ---- -- --- ---- -- --------- -- ---- -------<br>-- --------- bright --- ----- ------ ---- --- --------- --<br>------ - ---- -- --- ----------- ------- ---- ----- -----<br>--- -------- - ------ ---- -- ----- ---- --- --- -----------<br>-- -------,325895.1,325891.5,325328.462,325336.9,325345.112,325911.231,,28,bright
screen,html.Screen,2_3_1_0_1_29,2022-04-25T11:56:27.546Z,,,,,,,,,,,,,,,,,2,,,,,,,,,,,,,,454.86899999994785,,response,,,,1,A,,,,,,Space,keypress(Space),,,,silence,,,,--- ---- ------ --- ------- ---------- ------- ----------<br>--- --------- --- ----------- ------- ----- ------- ---<br>--------- ---- -- --- ---- -- --------- -- ---- -------<br>-- --------- ------ and ----- ------ ---- --- --------- --<br>------ - ---- -- --- ----------- ------- ---- ----- -----<br>--- -------- - ------ ---- -- ----- ---- --- --- -----------<br>-- -------,326368.80000000005,326366.1,325894.581,325895.30000000005,325911.231,326377.439,,29,and
screen,html.Screen,2_3_1_0_1_30,2022-04-25T11:56:28.134Z,,,,,,,,,,,,,,,,,2,,,,,,,,,,,,,,575.8610000000335,,response,,,,1,A,,,,,,Space,keypress(Space),,,,silence,,,,--- ---- ------ --- ------- ---------- ------- ----------<br>--- --------- --- ----------- ------- ----- ------- ---<br>--------- ---- -- --- ---- -- --------- -- ---- -------<br>-- --------- ------ --- white ------ ---- --- --------- --<br>------ - ---- -- --- ----------- ------- ---- ----- -----<br>--- -------- - ------ ---- -- ----- ---- --- --- -----------<br>-- -------,326956.70000000007,326953.30000000005,326360.789,326369.1,326377.439,326960.196,,30,white
screen,html.Screen,2_3_1_0_1_31,2022-04-25T11:56:28.779Z,,,,,,,,,,,,,,,,,2,,,,,,,,,,,,,,638.6040000000503,,response,,,,1,A,,,,,,Space,keypress(Space),,,,silence,,,,"--- ---- ------ --- ------- ---------- ------- ----------<br>--- --------- --- ----------- ------- ----- ------- ---<br>--------- ---- -- --- ---- -- --------- -- ---- -------<br>-- --------- ------ --- ----- light"" ---- --- --------- --<br>------ - ---- -- --- ----------- ------- ---- ----- -----<br>--- -------- - ------ ---- -- ----- ---- --- --- -----------<br>-- -------",327601.6,327598.80000000005,326943.546,326956.9,326960.196,327609.555,,31,"light"""
screen,html.Screen,2_3_1_0_1_32,2022-04-25T11:56:29.334Z,,,,,,,,,,,,,,,,,2,,,,,,,,,,,,,,544.1450000000768,,response,,,,1,A,,,,,,Space,keypress(Space),,,,silence,,,,--- ---- ------ --- ------- ---------- ------- ----------<br>--- --------- --- ----------- ------- ----- ------- ---<br>--------- ---- -- --- ---- -- --------- -- ---- -------<br>-- --------- ------ --- ----- ------ over --- --------- --<br>------ - ---- -- --- ----------- ------- ---- ----- -----<br>--- -------- - ------ ---- -- ----- ---- --- --- -----------<br>-- -------,328156.4,328153.70000000007,327592.905,327601.80000000005,327609.555,328159.015,,32,over
screen,html.Screen,2_3_1_0_1_33,2022-04-25T11:56:29.781Z,,,,,,,,,,,,,,,,,2,,,,,,,,,,,,,,441.8850000000093,,response,,,,1,A,,,,,,Space,keypress(Space),,,,silence,,,,--- ---- ------ --- ------- ---------- ------- ----------<br>--- --------- --- ----------- ------- ----- ------- ---<br>--------- ---- -- --- ---- -- --------- -- ---- -------<br>-- --------- ------ --- ----- ------ ---- the --------- --<br>------ - ---- -- --- ----------- ------- ---- ----- -----<br>--- -------- - ------ ---- -- ----- ---- --- --- -----------<br>-- -------,328603.6,328600.9,328142.365,328156.6,328159.015,328608.574,,33,the
screen,html.Screen,2_3_1_0_1_34,2022-04-25T11:56:30.848Z,,,,,,,,,,,,,,,,,2,,,,,,,,,,,,,,1060.0259999999544,,response,,,,1,A,,,,,,Space,keypress(Space),,,,silence,,,,--- ---- ------ --- ------- ---------- ------- ----------<br>--- --------- --- ----------- ------- ----- ------- ---<br>--------- ---- -- --- ---- -- --------- -- ---- -------<br>-- --------- ------ --- ----- ------ ---- --- sunspots. --<br>------ - ---- -- --- ----------- ------- ---- ----- -----<br>--- -------- - ------ ---- -- ----- ---- --- --- -----------<br>-- -------,329670.9,329668.6,328591.924,328603.80000000005,328608.574,329674.18,,34,sunspots.
screen,html.Screen,2_3_1_0_1_35,2022-04-25T11:56:31.537Z,,,,,,,,,,,,,,,,,2,,,,,,,,,,,,,,682.6200000000536,,response,,,,1,A,,,,,,Space,keypress(Space),,,,silence,,,,--- ---- ------ --- ------- ---------- ------- ----------<br>--- --------- --- ----------- ------- ----- ------- ---<br>--------- ---- -- --- ---- -- --------- -- ---- -------<br>-- --------- ------ --- ----- ------ ---- --- --------- He<br>------ - ---- -- --- ----------- ------- ---- ----- -----<br>--- -------- - ------ ---- -- ----- ---- --- --- -----------<br>-- -------,330359.80000000005,330356.80000000005,329657.53,329671.20000000007,329674.18,330373.497,,35,He
screen,html.Screen,2_3_1_0_1_36,2022-04-25T11:56:32.265Z,,,,,,,,,,,,,,,,,2,,,,,,,,,,,,,,709.7030000000959,,response,,,,1,A,,,,,,Space,keypress(Space),,,,silence,,,,--- ---- ------ --- ------- ---------- ------- ----------<br>--- --------- --- ----------- ------- ----- ------- ---<br>--------- ---- -- --- ---- -- --------- -- ---- -------<br>-- --------- ------ --- ----- ------ ---- --- --------- --<br>jotted - ---- -- --- ----------- ------- ---- ----- -----<br>--- -------- - ------ ---- -- ----- ---- --- --- -----------<br>-- -------,331087.6,331083.20000000007,330356.847,330360.1,330373.497,331089.457,,36,jotted
screen,html.Screen,2_3_1_0_1_37,2022-04-25T11:56:32.726Z,,,,,,,,,,,,,,,,,2,,,,,,,,,,,,,,456.4430000000284,,response,,,,1,A,,,,,,Space,keypress(Space),,,,silence,,,,--- ---- ------ --- ------- ---------- ------- ----------<br>--- --------- --- ----------- ------- ----- ------- ---<br>--------- ---- -- --- ---- -- --------- -- ---- -------<br>-- --------- ------ --- ----- ------ ---- --- --------- --<br>------ a ---- -- --- ----------- ------- ---- ----- -----<br>--- -------- - ------ ---- -- ----- ---- --- --- -----------<br>-- -------,331548.6,331545.9,331072.807,331087.80000000005,331089.457,331555.669,,37,a
screen,html.Screen,2_3_1_0_1_38,2022-04-25T11:56:33.217Z,,,,,,,,,,,,,,,,,2,,,,,,,,,,,,,,480.63100000005215,,response,,,,1,A,,,,,,Space,keypress(Space),,,,silence,,,,--- ---- ------ --- ------- ---------- ------- ----------<br>--- --------- --- ----------- ------- ----- ------- ---<br>--------- ---- -- --- ---- -- --------- -- ---- -------<br>-- --------- ------ --- ----- ------ ---- --- --------- --<br>------ - note -- --- ----------- ------- ---- ----- -----<br>--- -------- - ------ ---- -- ----- ---- --- --- -----------<br>-- -------,332039.80000000005,332036.30000000005,331539.019,331548.80000000005,331555.669,332055.176,,38,note
