sender,sender_type,sender_id,timestamp,meta,,Blues,Classical,Country,Dance,Electronic,Folk,Gospel,Hip-Hop,Jazz,Latin,Musical/Film,New-age,Pop,Prolific_id,Provo_ID,R&B,Rap,Reggae,Religious,Rock,Soul,Swing,Traditional,age,artist_name,correct,correctResponse,distraction,duration,education,ended_on,familiarity,gender,headphone_check_performance,item,list,music_frequency,offensiveness,pleasantness,position_correct,preference,response,response_action,snippet_file,song_name,song_rating,sound,stimulus_1,stimulus_2,stimulus_3,text,time_commit,time_end,time_render,time_run,time_show,time_switch,url,word,word_ID
Prolific ID,html.Form,0,2022-04-27T12:46:46.850Z,"{""labjs_version"":""20.2.2"",""labjs_build"":{""flavor"":""production"",""commit"":""a25486e0c714a0ae2ce03ff94b7bb6896854dcfa""},""location"":""https://run.pavlovia.org/mvasilev/prolific3_music_c/"",""userAgent"":""Mozilla/5.0 (Windows NT 10.0; Win64; x64; rv:99.0) Gecko/20100101 Firefox/99.0"",""platform"":""Win32"",""language"":""en-GB"",""locale"":""en-GB"",""timeZone"":""Europe/London"",""timezoneOffset"":-60,""screen_width"":1366,""screen_height"":768,""scroll_width"":1366,""scroll_height"":605,""window_innerWidth"":1366,""window_innerHeight"":653,""devicePixelRatio"":1}",,,,,,,,,,,,,,,5c9803202b67f500016cc426,,,,,,,,,,,,,,,3622.4799999999996,,form submission,,,,,,,,,,,,,,,,,,,,,16842,16841,13206.48,13206,13218.52,16848.06,{},,
Introduction,html.Screen,1_0,2022-04-27T12:46:55.060Z,,,,,,,,,,,,,,,,,,,,,,,,,,,,,,,8185.939999999999,,response,,,,,,,,,,,continue,click button,,,,,,,,,25051,25034,16832.54,16842,16848.06,25056.24,,,
Volume calibration,html.Screen,1_1,2022-04-27T12:47:14.255Z,,,,,,,,,,,,,,,,,,,,,,,,,,,,,,,19180.76,,response,,,,,,,,,,,continue,click button,,,,,,,,,44245,44237,25050,25051,25056.24,44252.88,,,
Task instructions,html.Screen,1_2,2022-04-27T12:47:20.326Z,,,,,,,,,,,,,,,,,,,,,,,,,,,,,,,6047.120000000003,,response,,,,,,,,,,,continue,click button,,,,,,,,,50316,50300,44244.02,44245,44252.88,50329.88,,,
Sounds,html.Screen,1_3_0_0,2022-04-27T12:47:24.570Z,,,,,,,,,,,,,,,,,,,,,,,,,,,,,,,4245.68,,timeout,,,,,,,,,2,,,,,,,,I,S,O,,54561,54559.16,50314.34,50317,50329.88,54575.56,,,
Judgement,html.Screen,1_3_0_1,2022-04-27T12:47:27.620Z,,,,,,,,,,,,,,,,,,,,,,,,,,,,true,2,,3020.4400000000023,,response,,,,,,,,,2,,2,click #choice-2,,,,,I,S,O,,57610,57596,54559.16,54562,54575.56,57622.3,,,
Trial,flow.Sequence,1_3_0,2022-04-27T12:47:27.622Z,,,,,,,,,,,,,,,,,,,,,,,,,,,,,,,7266.120000000003,,completion,,,,,,,,,2,,,,,,,,I,S,O,,57612,57596,50314.34,50317,50329.88,57622.3,,,
Sounds,html.Screen,1_3_1_0,2022-04-27T12:47:31.863Z,,,,,,,,,,,,,,,,,,,,,,,,,,,,,,,4246,,timeout,,,,,,,,,3,,,,,,,,I,O,S,,61854,61851.62,57605.84,57614,57622.3,61868.3,,,
Judgement,html.Screen,1_3_1_1,2022-04-27T12:47:33.149Z,,,,,,,,,,,,,,,,,,,,,,,,,,,,true,3,,1260.699999999997,,response,,,,,,,,,3,,3,click #choice-3,,,,,I,O,S,,63140,63129,61851.62,61854,61868.3,63150.06,,,
Trial,flow.Sequence,1_3_1,2022-04-27T12:47:33.150Z,,,,,,,,,,,,,,,,,,,,,,,,,,,,,,,5506.699999999997,,completion,,,,,,,,,3,,,,,,,,I,O,S,,63140,63129,57605.84,57613,57622.3,63150.06,,,
Sounds,html.Screen,1_3_2_0,2022-04-27T12:47:37.389Z,,,,,,,,,,,,,,,,,,,,,,,,,,,,,,,4245.619999999995,,timeout,,,,,,,,,2,,,,,,,,O,S,I,,67381,67379.22,63135.58,63141,63150.06,67395.68,,,
Judgement,html.Screen,1_3_2_1,2022-04-27T12:47:39.434Z,,,,,,,,,,,,,,,,,,,,,,,,,,,,true,2,,2013.320000000007,,response,,,,,,,,,2,,2,click #choice-2,,,,,O,S,I,,69425,69409,67379.22,67381,67395.68,69426.66,,,
Trial,flow.Sequence,1_3_2,2022-04-27T12:47:39.435Z,,,,,,,,,,,,,,,,,,,,,,,,,,,,,,,6258.940000000002,,completion,,,,,,,,,2,,,,,,,,O,S,I,,69425,69409,63135.58,63141,63150.06,69426.66,,,
Sounds,html.Screen,1_3_3_0,2022-04-27T12:47:43.671Z,,,,,,,,,,,,,,,,,,,,,,,,,,,,,,,4245.779999999999,,timeout,,,,,,,,,1,,,,,,,,S,O,I,,73661,73655.8,69423.16,69426,69426.66,73672.44,,,
Judgement,html.Screen,1_3_3_1,2022-04-27T12:47:44.596Z,,,,,,,,,,,,,,,,,,,,,,,,,,,,true,1,,909.5599999999977,,response,,,,,,,,,1,,1,click #choice-1,,,,,S,O,I,,74587,74582,73655.8,73663,73672.44,74587.9,,,
Trial,flow.Sequence,1_3_3,2022-04-27T12:47:44.597Z,,,,,,,,,,,,,,,,,,,,,,,,,,,,,,,5155.3399999999965,,completion,,,,,,,,,1,,,,,,,,S,O,I,,74587,74582,69423.16,69426,69426.66,74587.9,,,
Sounds,html.Screen,1_3_4_0,2022-04-27T12:47:48.828Z,,,,,,,,,,,,,,,,,,,,,,,,,,,,,,,4246.100000000006,,timeout,,,,,,,,,3,,,,,,,,O,I,S,,78818,78816.84,74584.28,74587,74587.9,78834,,,
Judgement,html.Screen,1_3_4_1,2022-04-27T12:47:49.822Z,,,,,,,,,,,,,,,,,,,,,,,,,,,,true,3,,966,,response,,,,,,,,,3,,3,click #choice-3,,,,,O,I,S,,79812,79800,78816.84,78819,78834,79815.92,,,
Trial,flow.Sequence,1_3_4,2022-04-27T12:47:49.822Z,,,,,,,,,,,,,,,,,,,,,,,,,,,,,,,5212.100000000006,,completion,,,,,,,,,3,,,,,,,,O,I,S,,79812,79800,74584.28,74587,74587.9,79815.92,,,
Sounds,html.Screen,1_3_5_0,2022-04-27T12:47:54.056Z,,,,,,,,,,,,,,,,,,,,,,,,,,,,,,,4245.479999999996,,timeout,,,,,,,,,1,,,,,,,,S,I,O,,84046,84044.76,79805.52,79812,79815.92,84061.4,,,
Judgement,html.Screen,1_3_5_1,2022-04-27T12:47:55.150Z,,,,,,,,,,,,,,,,,,,,,,,,,,,,true,1,,1067.6000000000058,,response,,,,,,,,,1,,1,click #choice-1,,,,,S,I,O,,85140,85129,84044.76,84047,84061.4,85160.32,,,
Trial,flow.Sequence,1_3_5,2022-04-27T12:47:55.150Z,,,,,,,,,,,,,,,,,,,,,,,,,,,,,,,5313.080000000002,,completion,,,,,,,,,1,,,,,,,,S,I,O,,85140,85129,79805.52,79812,79815.92,85160.32,,,
Task,flow.Loop,1_3,2022-04-27T12:47:55.153Z,,,,,,,,,,,,,,,,,,,,,,,,,,,,,,,34799.12,,completion,,,1,,,,,,,,,,,,,,,,,,85143,85129,50314.34,50317,50329.88,85160.32,,,
Trap,html.Screen,1_4,2022-04-27T12:47:55.162Z,,,,,,,,,,,,,,,,,,,,,,,,,,,,,,,NaN,,skipped,,,,,,,,,,,,,,,,,,,,,85151,85129,,85150,,85160.32,,,
Thanks,html.Screen,1_5,2022-04-27T12:47:59.160Z,,,,,,,,,,,,,,,,,,,,,,,,,,,,,,,3967.679999999993,,response,,,,,,,,,,,continue,click button,,,,,,,,,89150,89128,85135.88,85152,85160.32,93218.46,,,
Headphone screening,flow.Sequence,1,2022-04-27T12:47:59.160Z,,,,,,,,,,,,,,,,,,,,,,,,,,,,,,,72279.94,,completion,,,,,,,,,,,,,,,,,,,,,89151,89128,16832.54,16842,16848.06,93218.46,,,
Instructions,html.Page,2_0,2022-04-27T12:48:15.446Z,,,,,,,,,,,,,,,,,,,,,,,,,,,,,,,12216.539999999994,,form submission,,,,,,,,,,,,,,,,,,,,,105437,105435,93201.96,93197,93218.46,105439.1,,,
Holding screen,html.Screen,2_1_0_0,2022-04-27T12:48:25.441Z,,,,,,,,,,,,,,,,,,,,,,,,,,,,,,,10006.220000000001,,timeout,,,,,,,,,,,,,,,,,,,,,115430,115428.76,105425.62,105437,105439.1,115445.32,,,
screen,html.Screen,2_1_0_1_0,2022-04-27T12:48:26.359Z,,,,,,,,,,,,,,,,,53,,,,,,,,,,,,,,886.679999999993,,response,,,,99,,,,,,,Space,keypress(Space),,,,,,,,When -- ----- -- ------ - ------- --- ----------<br>------------- ------ ------ ---- ---- ------- ----- -- ----<br>-------- ------- -- ---------- --- - --- ----- ----- ----<br>---- --- --- ----- --- ---- ---- ------- ----- ---- -------<br>--- --- -- ----- -- --- ---- -- --- ---- -- ------ ------<br>--- ----- -- ----,116348,116332,115428.76,115430,115445.32,116361.36,,0,When
screen,html.Screen,2_1_0_1_1,2022-04-27T12:48:26.743Z,,,,,,,,,,,,,,,,,53,,,,,,,,,,,,,,360.6399999999994,,response,,,,99,,,,,,,Space,keypress(Space),,,,,,,,---- it ----- -- ------ - ------- --- ----------<br>------------- ------ ------ ---- ---- ------- ----- -- ----<br>-------- ------- -- ---------- --- - --- ----- ----- ----<br>---- --- --- ----- --- ---- ---- ------- ----- ---- -------<br>--- --- -- ----- -- --- ---- -- --- ---- -- ------ ------<br>--- ----- -- ----,116733,116722,116349,116349,116361.36,116744,,1,it
screen,html.Screen,2_1_0_1_2,2022-04-27T12:48:27.145Z,,,,,,,,,,,,,,,,,53,,,,,,,,,,,,,,385,,response,,,,99,,,,,,,Space,keypress(Space),,,,,,,,---- -- comes -- ------ - ------- --- ----------<br>------------- ------ ------ ---- ---- ------- ----- -- ----<br>-------- ------- -- ---------- --- - --- ----- ----- ----<br>---- --- --- ----- --- ---- ---- ------- ----- ---- -------<br>--- --- -- ----- -- --- ---- -- --- ---- -- ------ ------<br>--- ----- -- ----,117135,117129,116733.38,116733,116744,117143.64,,2,comes
screen,html.Screen,2_1_0_1_3,2022-04-27T12:48:27.523Z,,,,,,,,,,,,,,,,,53,,,,,,,,,,,,,,344.3600000000006,,response,,,,99,,,,,,,Space,keypress(Space),,,,,,,,---- -- ----- to ------ - ------- --- ----------<br>------------- ------ ------ ---- ---- ------- ----- -- ----<br>-------- ------- -- ---------- --- - --- ----- ----- ----<br>---- --- --- ----- --- ---- ---- ------- ----- ---- -------<br>--- --- -- ----- -- --- ---- -- --- ---- -- ------ ------<br>--- ----- -- ----,117512,117488,117134.96,117135,117143.64,117526.5,,3,to
screen,html.Screen,2_1_0_1_4,2022-04-27T12:48:27.889Z,,,,,,,,,,,,,,,,,53,,,,,,,,,,,,,,335.5,,response,,,,99,,,,,,,Space,keypress(Space),,,,,,,,---- -- ----- -- having - ------- --- ----------<br>------------- ------ ------ ---- ---- ------- ----- -- ----<br>-------- ------- -- ---------- --- - --- ----- ----- ----<br>---- --- --- ----- --- ---- ---- ------- ----- ---- -------<br>--- --- -- ----- -- --- ---- -- --- ---- -- ------ ------<br>--- ----- -- ----,117878,117862,117512.54,117512,117526.5,117893.28,,4,having
screen,html.Screen,2_1_0_1_5,2022-04-27T12:48:28.216Z,,,,,,,,,,,,,,,,,53,,,,,,,,,,,,,,296.72000000000116,,response,,,,99,,,,,,,Space,keypress(Space),,,,,,,,---- -- ----- -- ------ a ------- --- ----------<br>------------- ------ ------ ---- ---- ------- ----- -- ----<br>-------- ------- -- ---------- --- - --- ----- ----- ----<br>---- --- --- ----- --- ---- ---- ------- ----- ---- -------<br>--- --- -- ----- -- --- ---- -- --- ---- -- ------ ------<br>--- ----- -- ----,118205,118190,117878.48,117878,117893.28,118209.22,,5,a
screen,html.Screen,2_1_0_1_6,2022-04-27T12:48:28.601Z,,,,,,,,,,,,,,,,,53,,,,,,,,,,,,,,371.77999999999884,,response,,,,99,,,,,,,Space,keypress(Space),,,,,,,,---- -- ----- -- ------ - lasting --- ----------<br>------------- ------ ------ ---- ---- ------- ----- -- ----<br>-------- ------- -- ---------- --- - --- ----- ----- ----<br>---- --- --- ----- --- ---- ---- ------- ----- ---- -------<br>--- --- -- ----- -- --- ---- -- --- ---- -- ------ ------<br>--- ----- -- ----,118591,118581,118205.52,118205,118209.22,118592.1,,6,lasting
screen,html.Screen,2_1_0_1_7,2022-04-27T12:48:28.970Z,,,,,,,,,,,,,,,,,53,,,,,,,,,,,,,,364.8999999999942,,response,,,,99,,,,,,,Space,keypress(Space),,,,,,,,---- -- ----- -- ------ - ------- and ----------<br>------------- ------ ------ ---- ---- ------- ----- -- ----<br>-------- ------- -- ---------- --- - --- ----- ----- ----<br>---- --- --- ----- --- ---- ---- ------- ----- ---- -------<br>--- --- -- ----- -- --- ---- -- --- ---- -- ------ ------<br>--- ----- -- ----,118960,118957,118590.9,118591,118592.1,118975.22,,7,and
screen,html.Screen,2_1_0_1_8,2022-04-27T12:48:29.385Z,,,,,,,,,,,,,,,,,53,,,,,,,,,,,,,,386.77999999999884,,response,,,,99,,,,,,,Space,keypress(Space),,,,,,,,---- -- ----- -- ------ - ------- --- fulfilling<br>------------- ------ ------ ---- ---- ------- ----- -- ----<br>-------- ------- -- ---------- --- - --- ----- ----- ----<br>---- --- --- ----- --- ---- ---- ------- ----- ---- -------<br>--- --- -- ----- -- --- ---- -- --- ---- -- ------ ------<br>--- ----- -- ----,119375,119362,118960.34,118960,118975.22,119391.58,,8,fulfilling
screen,html.Screen,2_1_0_1_9,2022-04-27T12:48:29.724Z,,,,,,,,,,,,,,,,,53,,,,,,,,,,,,,,298.41999999999825,,response,,,,99,,,,,,,Space,keypress(Space),,,,,,,,"---- -- ----- -- ------ - ------- --- ----------<br>relationship, ------ ------ ---- ---- ------- ----- -- ----<br>-------- ------- -- ---------- --- - --- ----- ----- ----<br>---- --- --- ----- --- ---- ---- ------- ----- ---- -------<br>--- --- -- ----- -- --- ---- -- --- ---- -- ------ ------<br>--- ----- -- ----",119713,119690,119374.88,119375,119391.58,119724.24,,9,"relationship,"
screen,html.Screen,2_1_0_1_10,2022-04-27T12:48:30.106Z,,,,,,,,,,,,,,,,,53,,,,,,,,,,,,,,356.75999999999476,,response,,,,99,,,,,,,Space,keypress(Space),,,,,,,,---- -- ----- -- ------ - ------- --- ----------<br>------------- common ------ ---- ---- ------- ----- -- ----<br>-------- ------- -- ---------- --- - --- ----- ----- ----<br>---- --- --- ----- --- ---- ---- ------- ----- ---- -------<br>--- --- -- ----- -- --- ---- -- --- ---- -- ------ ------<br>--- ----- -- ----,120096,120081,119714.24,119714,119724.24,120107.06,,10,common
screen,html.Screen,2_1_0_1_11,2022-04-27T12:48:30.404Z,,,,,,,,,,,,,,,,,53,,,,,,,,,,,,,,271.9400000000023,,response,,,,99,,,,,,,Space,keypress(Space),,,,,,,,---- -- ----- -- ------ - ------- --- ----------<br>------------- ------ wisdom ---- ---- ------- ----- -- ----<br>-------- ------- -- ---------- --- - --- ----- ----- ----<br>---- --- --- ----- --- ---- ---- ------- ----- ---- -------<br>--- --- -- ----- -- --- ---- -- --- ---- -- ------ ------<br>--- ----- -- ----,120394,120379,120095.82,120096,120107.06,120407.1,,11,wisdom
screen,html.Screen,2_1_0_1_12,2022-04-27T12:48:30.746Z,,,,,,,,,,,,,,,,,53,,,,,,,,,,,,,,314.8999999999942,,response,,,,99,,,,,,,Space,keypress(Space),,,,,,,,---- -- ----- -- ------ - ------- --- ----------<br>------------- ------ ------ says ---- ------- ----- -- ----<br>-------- ------- -- ---------- --- - --- ----- ----- ----<br>---- --- --- ----- --- ---- ---- ------- ----- ---- -------<br>--- --- -- ----- -- --- ---- -- --- ---- -- ------ ------<br>--- ----- -- ----,120735,120722,120394.52,120394,120407.1,120740.04,,12,says
screen,html.Screen,2_1_0_1_13,2022-04-27T12:48:31.081Z,,,,,,,,,,,,,,,,,53,,,,,,,,,,,,,,309.9600000000064,,response,,,,99,,,,,,,Space,keypress(Space),,,,,,,,---- -- ----- -- ------ - ------- --- ----------<br>------------- ------ ------ ---- that ------- ----- -- ----<br>-------- ------- -- ---------- --- - --- ----- ----- ----<br>---- --- --- ----- --- ---- ---- ------- ----- ---- -------<br>--- --- -- ----- -- --- ---- -- --- ---- -- ------ ------<br>--- ----- -- ----,121070,121050,120736.28,120736,120740.04,121072.9,,13,that
screen,html.Screen,2_1_0_1_14,2022-04-27T12:48:31.361Z,,,,,,,,,,,,,,,,,53,,,,,,,,,,,,,,258.1000000000058,,response,,,,99,,,,,,,Space,keypress(Space),,,,,,,,---- -- ----- -- ------ - ------- --- ----------<br>------------- ------ ------ ---- ---- feeling ----- -- ----<br>-------- ------- -- ---------- --- - --- ----- ----- ----<br>---- --- --- ----- --- ---- ---- ------- ----- ---- -------<br>--- --- -- ----- -- --- ---- -- --- ---- -- ------ ------<br>--- ----- -- ----,121350,121331,121070.18,121070,121072.9,121355.86,,14,feeling
screen,html.Screen,2_1_0_1_15,2022-04-27T12:48:31.718Z,,,,,,,,,,,,,,,,,53,,,,,,,,,,,,,,334.1399999999994,,response,,,,99,,,,,,,Space,keypress(Space),,,,,,,,---- -- ----- -- ------ - ------- --- ----------<br>------------- ------ ------ ---- ---- ------- close -- ----<br>-------- ------- -- ---------- --- - --- ----- ----- ----<br>---- --- --- ----- --- ---- ---- ------- ----- ---- -------<br>--- --- -- ----- -- --- ---- -- --- ---- -- ------ ------<br>--- ----- -- ----,121707,121690,121351,121351,121355.86,121722.48,,15,close
screen,html.Screen,2_1_0_1_16,2022-04-27T12:48:32.037Z,,,,,,,,,,,,,,,,,53,,,,,,,,,,,,,,295.5200000000041,,response,,,,99,,,,,,,Space,keypress(Space),,,,,,,,---- -- ----- -- ------ - ------- --- ----------<br>------------- ------ ------ ---- ---- ------- ----- to ----<br>-------- ------- -- ---------- --- - --- ----- ----- ----<br>---- --- --- ----- --- ---- ---- ------- ----- ---- -------<br>--- --- -- ----- -- --- ---- -- --- ---- -- ------ ------<br>--- ----- -- ----,122026,122018,121707.68,121707,121722.48,122038.68,,16,to
screen,html.Screen,2_1_0_1_17,2022-04-27T12:48:32.429Z,,,,,,,,,,,,,,,,,53,,,,,,,,,,,,,,370.320000000007,,response,,,,99,,,,,,,Space,keypress(Space),,,,,,,,---- -- ----- -- ------ - ------- --- ----------<br>------------- ------ ------ ---- ---- ------- ----- -- your<br>-------- ------- -- ---------- --- - --- ----- ----- ----<br>---- --- --- ----- --- ---- ---- ------- ----- ---- -------<br>--- --- -- ----- -- --- ---- -- --- ---- -- ------ ------<br>--- ----- -- ----,122419,122409,122026.48,122026,122038.68,122421.52,,17,your
screen,html.Screen,2_1_0_1_18,2022-04-27T12:48:32.727Z,,,,,,,,,,,,,,,,,53,,,,,,,,,,,,,,285.4799999999959,,response,,,,99,,,,,,,Space,keypress(Space),,,,,,,,---- -- ----- -- ------ - ------- --- ----------<br>------------- ------ ------ ---- ---- ------- ----- -- ----<br>romantic ------- -- ---------- --- - --- ----- ----- ----<br>---- --- --- ----- --- ---- ---- ------- ----- ---- -------<br>--- --- -- ----- -- --- ---- -- --- ---- -- ------ ------<br>--- ----- -- ----,122716,122707,122419.06,122419,122421.52,122721,,18,romantic
screen,html.Screen,2_1_0_1_19,2022-04-27T12:48:33.012Z,,,,,,,,,,,,,,,,,53,,,,,,,,,,,,,,267,,response,,,,99,,,,,,,Space,keypress(Space),,,,,,,,---- -- ----- -- ------ - ------- --- ----------<br>------------- ------ ------ ---- ---- ------- ----- -- ----<br>-------- partner -- ---------- --- - --- ----- ----- ----<br>---- --- --- ----- --- ---- ---- ------- ----- ---- -------<br>--- --- -- ----- -- --- ---- -- --- ---- -- ------ ------<br>--- ----- -- ----,123001,122988,122716.74,122717,122721,123004.12,,19,partner
screen,html.Screen,2_1_0_1_20,2022-04-27T12:48:33.299Z,,,,,,,,,,,,,,,,,53,,,,,,,,,,,,,,263.88000000000466,,response,,,,99,,,,,,,Space,keypress(Space),,,,,,,,---- -- ----- -- ------ - ------- --- ----------<br>------------- ------ ------ ---- ---- ------- ----- -- ----<br>-------- ------- is ---------- --- - --- ----- ----- ----<br>---- --- --- ----- --- ---- ---- ------- ----- ---- -------<br>--- --- -- ----- -- --- ---- -- --- ---- -- ------ ------<br>--- ----- -- ----,123288,123268,123002.24,123002,123004.12,123303.78,,20,is
screen,html.Screen,2_1_0_1_21,2022-04-27T12:48:33.625Z,,,,,,,,,,,,,,,,,53,,,,,,,,,,,,,,292.22000000000116,,response,,,,99,,,,,,,Space,keypress(Space),,,,,,,,---- -- ----- -- ------ - ------- --- ----------<br>------------- ------ ------ ---- ---- ------- ----- -- ----<br>-------- ------- -- paramount. --- - --- ----- ----- ----<br>---- --- --- ----- --- ---- ---- ------- ----- ---- -------<br>--- --- -- ----- -- --- ---- -- --- ---- -- ------ ------<br>--- ----- -- ----,123614,123596,123288.86,123288,123303.78,123620.18,,21,paramount.
screen,html.Screen,2_1_0_1_22,2022-04-27T12:48:33.964Z,,,,,,,,,,,,,,,,,53,,,,,,,,,,,,,,319.820000000007,,response,,,,99,,,,,,,Space,keypress(Space),,,,,,,,---- -- ----- -- ------ - ------- --- ----------<br>------------- ------ ------ ---- ---- ------- ----- -- ----<br>-------- ------- -- ---------- But - --- ----- ----- ----<br>---- --- --- ----- --- ---- ---- ------- ----- ---- -------<br>--- --- -- ----- -- --- ---- -- --- ---- -- ------ ------<br>--- ----- -- ----,123953,123940,123614.8,123614,123620.18,123969.84,,22,But
screen,html.Screen,2_1_0_1_23,2022-04-27T12:48:34.234Z,,,,,,,,,,,,,,,,,53,,,,,,,,,,,,,,236.1600000000035,,response,,,,99,,,,,,,Space,keypress(Space),,,,,,,,---- -- ----- -- ------ - ------- --- ----------<br>------------- ------ ------ ---- ---- ------- ----- -- ----<br>-------- ------- -- ---------- --- a --- ----- ----- ----<br>---- --- --- ----- --- ---- ---- ------- ----- ---- -------<br>--- --- -- ----- -- --- ---- -- --- ---- -- ------ ------<br>--- ----- -- ----,124224,124206,123953.58,123953,123969.84,124236.44,,23,a
screen,html.Screen,2_1_0_1_24,2022-04-27T12:48:34.510Z,,,,,,,,,,,,,,,,,53,,,,,,,,,,,,,,251.55999999999767,,response,,,,99,,,,,,,Space,keypress(Space),,,,,,,,---- -- ----- -- ------ - ------- --- ----------<br>------------- ------ ------ ---- ---- ------- ----- -- ----<br>-------- ------- -- ---------- --- - new ----- ----- ----<br>---- --- --- ----- --- ---- ---- ------- ----- ---- -------<br>--- --- -- ----- -- --- ---- -- --- ---- -- ------ ------<br>--- ----- -- ----,124499,124488,124223.56,124224,124236.44,124502.52,,24,new
screen,html.Screen,2_1_0_1_25,2022-04-27T12:48:34.791Z,,,,,,,,,,,,,,,,,53,,,,,,,,,,,,,,265.4799999999959,,response,,,,99,,,,,,,Space,keypress(Space),,,,,,,,---- -- ----- -- ------ - ------- --- ----------<br>------------- ------ ------ ---- ---- ------- ----- -- ----<br>-------- ------- -- ---------- --- - --- study ----- ----<br>---- --- --- ----- --- ---- ---- ------- ----- ---- -------<br>--- --- -- ----- -- --- ---- -- --- ---- -- ------ ------<br>--- ----- -- ----,124781,124768,124499.14,124499,124502.52,124785.72,,25,study
screen,html.Screen,2_1_0_1_26,2022-04-27T12:48:35.053Z,,,,,,,,,,,,,,,,,53,,,,,,,,,,,,,,233.27999999999884,,response,,,,99,,,,,,,Space,keypress(Space),,,,,,,,---- -- ----- -- ------ - ------- --- ----------<br>------------- ------ ------ ---- ---- ------- ----- -- ----<br>-------- ------- -- ---------- --- - --- ----- finds ----<br>---- --- --- ----- --- ---- ---- ------- ----- ---- -------<br>--- --- -- ----- -- --- ---- -- --- ---- -- ------ ------<br>--- ----- -- ----,125042,125019,124781.34,124781,124785.72,125052.22,,26,finds
screen,html.Screen,2_1_0_1_27,2022-04-27T12:48:35.400Z,,,,,,,,,,,,,,,,,53,,,,,,,,,,,,,,325.77999999999884,,response,,,,99,,,,,,,Space,keypress(Space),,,,,,,,---- -- ----- -- ------ - ------- --- ----------<br>------------- ------ ------ ---- ---- ------- ----- -- ----<br>-------- ------- -- ---------- --- - --- ----- ----- that<br>---- --- --- ----- --- ---- ---- ------- ----- ---- -------<br>--- --- -- ----- -- --- ---- -- --- ---- -- ------ ------<br>--- ----- -- ----,125390,125378,125042.48,125042,125052.22,125401.9,,27,that
screen,html.Screen,2_1_0_1_28,2022-04-27T12:48:35.720Z,,,,,,,,,,,,,,,,,53,,,,,,,,,,,,,,288.1000000000058,,response,,,,99,,,,,,,Space,keypress(Space),,,,,,,,---- -- ----- -- ------ - ------- --- ----------<br>------------- ------ ------ ---- ---- ------- ----- -- ----<br>-------- ------- -- ---------- --- - --- ----- ----- ----<br>it's --- --- ----- --- ---- ---- ------- ----- ---- -------<br>--- --- -- ----- -- --- ---- -- --- ---- -- ------ ------<br>--- ----- -- ----,125709,125690,125389.68,125390,125401.9,125718.14,,28,it's
screen,html.Screen,2_1_0_1_29,2022-04-27T12:48:35.999Z,,,,,,,,,,,,,,,,,53,,,,,,,,,,,,,,252.86000000000058,,response,,,,99,,,,,,,Space,keypress(Space),,,,,,,,---- -- ----- -- ------ - ------- --- ----------<br>------------- ------ ------ ---- ---- ------- ----- -- ----<br>-------- ------- -- ---------- --- - --- ----- ----- ----<br>---- not --- ----- --- ---- ---- ------- ----- ---- -------<br>--- --- -- ----- -- --- ---- -- --- ---- -- ------ ------<br>--- ----- -- ----,125987,125971,125709.74,125709,125718.14,126001.34,,29,not
screen,html.Screen,2_1_0_1_30,2022-04-27T12:48:36.245Z,,,,,,,,,,,,,,,,,53,,,,,,,,,,,,,,220.6600000000035,,response,,,,99,,,,,,,Space,keypress(Space),,,,,,,,---- -- ----- -- ------ - ------- --- ----------<br>------------- ------ ------ ---- ---- ------- ----- -- ----<br>-------- ------- -- ---------- --- - --- ----- ----- ----<br>---- --- how ----- --- ---- ---- ------- ----- ---- -------<br>--- --- -- ----- -- --- ---- -- --- ---- -- ------ ------<br>--- ----- -- ----,126234,126222,125988.18,125988,126001.34,126251.08,,30,how
screen,html.Screen,2_1_0_1_31,2022-04-27T12:48:36.457Z,,,,,,,,,,,,,,,,,53,,,,,,,,,,,,,,188.91999999999825,,response,,,,99,,,,,,,Space,keypress(Space),,,,,,,,---- -- ----- -- ------ - ------- --- ----------<br>------------- ------ ------ ---- ---- ------- ----- -- ----<br>-------- ------- -- ---------- --- - --- ----- ----- ----<br>---- --- --- close --- ---- ---- ------- ----- ---- -------<br>--- --- -- ----- -- --- ---- -- --- ---- -- ------ ------<br>--- ----- -- ----,126446,126440,126234.54,126234,126251.08,126450.48,,31,close
screen,html.Screen,2_1_0_1_32,2022-04-27T12:48:36.682Z,,,,,,,,,,,,,,,,,53,,,,,,,,,,,,,,209.52000000000407,,response,,,,99,,,,,,,Space,keypress(Space),,,,,,,,---- -- ----- -- ------ - ------- --- ----------<br>------------- ------ ------ ---- ---- ------- ----- -- ----<br>-------- ------- -- ---------- --- - --- ----- ----- ----<br>---- --- --- ----- you ---- ---- ------- ----- ---- -------<br>--- --- -- ----- -- --- ---- -- --- ---- -- ------ ------<br>--- ----- -- ----,126672,126660,126446.56,126446,126450.48,126683.76,,32,you
screen,html.Screen,2_1_0_1_33,2022-04-27T12:48:36.882Z,,,,,,,,,,,,,,,,,53,,,,,,,,,,,,,,179.24000000000524,,response,,,,99,,,,,,,Space,keypress(Space),,,,,,,,---- -- ----- -- ------ - ------- --- ----------<br>------------- ------ ------ ---- ---- ------- ----- -- ----<br>-------- ------- -- ---------- --- - --- ----- ----- ----<br>---- --- --- ----- --- feel ---- ------- ----- ---- -------<br>--- --- -- ----- -- --- ---- -- --- ---- -- ------ ------<br>--- ----- -- ----,126872,126863,126672.36,126672,126683.76,126883.44,,33,feel
screen,html.Screen,2_1_0_1_34,2022-04-27T12:48:37.335Z,,,,,,,,,,,,,,,,,53,,,,,,,,,,,,,,416.5599999999977,,response,,,,99,,,,,,,Space,keypress(Space),,,,,,,,---- -- ----- -- ------ - ------- --- ----------<br>------------- ------ ------ ---- ---- ------- ----- -- ----<br>-------- ------- -- ---------- --- - --- ----- ----- ----<br>---- --- --- ----- --- ---- that ------- ----- ---- -------<br>--- --- -- ----- -- --- ---- -- --- ---- -- ------ ------<br>--- ----- -- ----,127325,127300,126871.76,126872,126883.44,127333.3,,34,that
screen,html.Screen,2_1_0_1_35,2022-04-27T12:48:37.595Z,,,,,,,,,,,,,,,,,53,,,,,,,,,,,,,,247.6999999999971,,response,,,,99,,,,,,,Space,keypress(Space),,,,,,,,---- -- ----- -- ------ - ------- --- ----------<br>------------- ------ ------ ---- ---- ------- ----- -- ----<br>-------- ------- -- ---------- --- - --- ----- ----- ----<br>---- --- --- ----- --- ---- ---- matters ----- ---- -------<br>--- --- -- ----- -- --- ---- -- --- ---- -- ------ ------<br>--- ----- -- ----,127584,127581,127325.72,127326,127333.3,127599.76,,35,matters
screen,html.Screen,2_1_0_1_36,2022-04-27T12:48:37.897Z,,,,,,,,,,,,,,,,,53,,,,,,,,,,,,,,263.24000000000524,,response,,,,99,,,,,,,Space,keypress(Space),,,,,,,,"---- -- ----- -- ------ - ------- --- ----------<br>------------- ------ ------ ---- ---- ------- ----- -- ----<br>-------- ------- -- ---------- --- - --- ----- ----- ----<br>---- --- --- ----- --- ---- ---- ------- most, ---- -------<br>--- --- -- ----- -- --- ---- -- --- ---- -- ------ ------<br>--- ----- -- ----",127886,127863,127584.24,127584,127599.76,127899.32,,36,"most,"
screen,html.Screen,2_1_0_1_37,2022-04-27T12:48:38.209Z,,,,,,,,,,,,,,,,,53,,,,,,,,,,,,,,290.679999999993,,response,,,,99,,,,,,,Space,keypress(Space),,,,,,,,---- -- ----- -- ------ - ------- --- ----------<br>------------- ------ ------ ---- ---- ------- ----- -- ----<br>-------- ------- -- ---------- --- - --- ----- ----- ----<br>---- --- --- ----- --- ---- ---- ------- ----- it's -------<br>--- --- -- ----- -- --- ---- -- --- ---- -- ------ ------<br>--- ----- -- ----,128199,128190,127886.28,127886,127899.32,128215.56,,37,it's
screen,html.Screen,2_1_0_1_38,2022-04-27T12:48:38.566Z,,,,,,,,,,,,,,,,,53,,,,,,,,,,,,,,318.4400000000023,,response,,,,99,,,,,,,Space,keypress(Space),,,,,,,,---- -- ----- -- ------ - ------- --- ----------<br>------------- ------ ------ ---- ---- ------- ----- -- ----<br>-------- ------- -- ---------- --- - --- ----- ----- ----<br>---- --- --- ----- --- ---- ---- ------- ----- ---- whether<br>--- --- -- ----- -- --- ---- -- --- ---- -- ------ ------<br>--- ----- -- ----,128555,128534,128199,128199,128215.56,128564.98,,38,whether
screen,html.Screen,2_1_0_1_39,2022-04-27T12:48:38.904Z,,,,,,,,,,,,,,,,,53,,,,,,,,,,,,,,313.0200000000041,,response,,,,99,,,,,,,Space,keypress(Space),,,,,,,,---- -- ----- -- ------ - ------- --- ----------<br>------------- ------ ------ ---- ---- ------- ----- -- ----<br>-------- ------- -- ---------- --- - --- ----- ----- ----<br>---- --- --- ----- --- ---- ---- ------- ----- ---- -------<br>you --- -- ----- -- --- ---- -- --- ---- -- ------ ------<br>--- ----- -- ----,128894,128878,128555.04,128555,128564.98,128898.1,,39,you
screen,html.Screen,2_1_0_1_40,2022-04-27T12:48:39.149Z,,,,,,,,,,,,,,,,,53,,,,,,,,,,,,,,229.89999999999418,,response,,,,99,,,,,,,Space,keypress(Space),,,,,,,,---- -- ----- -- ------ - ------- --- ----------<br>------------- ------ ------ ---- ---- ------- ----- -- ----<br>-------- ------- -- ---------- --- - --- ----- ----- ----<br>---- --- --- ----- --- ---- ---- ------- ----- ---- -------<br>--- are -- ----- -- --- ---- -- --- ---- -- ------ ------<br>--- ----- -- ----,129138,129128,128893.5,128894,128898.1,129147.9,,40,are
screen,html.Screen,2_1_0_1_41,2022-04-27T12:48:39.380Z,,,,,,,,,,,,,,,,,53,,,,,,,,,,,,,,215.10000000000582,,response,,,,99,,,,,,,Space,keypress(Space),,,,,,,,---- -- ----- -- ------ - ------- --- ----------<br>------------- ------ ------ ---- ---- ------- ----- -- ----<br>-------- ------- -- ---------- --- - --- ----- ----- ----<br>---- --- --- ----- --- ---- ---- ------- ----- ---- -------<br>--- --- as ----- -- --- ---- -- --- ---- -- ------ ------<br>--- ----- -- ----,129369,129363,129137.92,129138,129147.9,129381.12,,41,as
screen,html.Screen,2_1_0_1_42,2022-04-27T12:48:39.607Z,,,,,,,,,,,,,,,,,53,,,,,,,,,,,,,,199.88000000000466,,response,,,,99,,,,,,,Space,keypress(Space),,,,,,,,---- -- ----- -- ------ - ------- --- ----------<br>------------- ------ ------ ---- ---- ------- ----- -- ----<br>-------- ------- -- ---------- --- - --- ----- ----- ----<br>---- --- --- ----- --- ---- ---- ------- ----- ---- -------<br>--- --- -- close -- --- ---- -- --- ---- -- ------ ------<br>--- ----- -- ----,129596,129581,129369.12,129369,129381.12,129597.24,,42,close
screen,html.Screen,2_1_0_1_43,2022-04-27T12:48:39.830Z,,,,,,,,,,,,,,,,,53,,,,,,,,,,,,,,202.75999999999476,,response,,,,99,,,,,,,Space,keypress(Space),,,,,,,,---- -- ----- -- ------ - ------- --- ----------<br>------------- ------ ------ ---- ---- ------- ----- -- ----<br>-------- ------- -- ---------- --- - --- ----- ----- ----<br>---- --- --- ----- --- ---- ---- ------- ----- ---- -------<br>--- --- -- ----- as --- ---- -- --- ---- -- ------ ------<br>--- ----- -- ----,129820,129800,129595.98,129596,129597.24,129830.58,,43,as
screen,html.Screen,2_1_0_1_44,2022-04-27T12:48:40.056Z,,,,,,,,,,,,,,,,,53,,,,,,,,,,,,,,188.41999999999825,,response,,,,99,,,,,,,Space,keypress(Space),,,,,,,,---- -- ----- -- ------ - ------- --- ----------<br>------------- ------ ------ ---- ---- ------- ----- -- ----<br>-------- ------- -- ---------- --- - --- ----- ----- ----<br>---- --- --- ----- --- ---- ---- ------- ----- ---- -------<br>--- --- -- ----- -- you ---- -- --- ---- -- ------ ------<br>--- ----- -- ----,130046,130019,129819.86,129820,129830.58,130046.88,,44,you
screen,html.Screen,2_1_0_1_45,2022-04-27T12:48:40.296Z,,,,,,,,,,,,,,,,,53,,,,,,,,,,,,,,222.11999999999534,,response,,,,99,,,,,,,Space,keypress(Space),,,,,,,,---- -- ----- -- ------ - ------- --- ----------<br>------------- ------ ------ ---- ---- ------- ----- -- ----<br>-------- ------- -- ---------- --- - --- ----- ----- ----<br>---- --- --- ----- --- ---- ---- ------- ----- ---- -------<br>--- --- -- ----- -- --- want -- --- ---- -- ------ ------<br>--- ----- -- ----,130287,130269,130045.84,130046,130046.88,130296.66,,45,want
screen,html.Screen,2_1_0_1_46,2022-04-27T12:48:40.612Z,,,,,,,,,,,,,,,,,53,,,,,,,,,,,,,,284.3399999999965,,response,,,,99,,,,,,,Space,keypress(Space),,,,,,,,---- -- ----- -- ------ - ------- --- ----------<br>------------- ------ ------ ---- ---- ------- ----- -- ----<br>-------- ------- -- ---------- --- - --- ----- ----- ----<br>---- --- --- ----- --- ---- ---- ------- ----- ---- -------<br>--- --- -- ----- -- --- ---- to --- ---- -- ------ ------<br>--- ----- -- ----,130601,130581,130286.64,130287,130296.66,130612.82,,46,to
screen,html.Screen,2_1_0_1_47,2022-04-27T12:48:40.900Z,,,,,,,,,,,,,,,,,53,,,,,,,,,,,,,,266.179999999993,,response,,,,99,,,,,,,Space,keypress(Space),,,,,,,,"---- -- ----- -- ------ - ------- --- ----------<br>------------- ------ ------ ---- ---- ------- ----- -- ----<br>-------- ------- -- ---------- --- - --- ----- ----- ----<br>---- --- --- ----- --- ---- ---- ------- ----- ---- -------<br>--- --- -- ----- -- --- ---- -- be, ---- -- ------ ------<br>--- ----- -- ----",130890,130879,130601.98,130602,130612.82,130896.08,,47,"be,"
screen,html.Screen,2_1_0_1_48,2022-04-27T12:48:41.230Z,,,,,,,,,,,,,,,,,53,,,,,,,,,,,,,,309.91999999999825,,response,,,,99,,,,,,,Space,keypress(Space),,,,,,,,---- -- ----- -- ------ - ------- --- ----------<br>------------- ------ ------ ---- ---- ------- ----- -- ----<br>-------- ------- -- ---------- --- - --- ----- ----- ----<br>---- --- --- ----- --- ---- ---- ------- ----- ---- -------<br>--- --- -- ----- -- --- ---- -- --- even -- ------ ------<br>--- ----- -- ----,131219,131206,130889.72,130890,130896.08,131229.06,,48,even
screen,html.Screen,2_1_0_1_49,2022-04-27T12:48:41.534Z,,,,,,,,,,,,,,,,,53,,,,,,,,,,,,,,274.9400000000023,,response,,,,99,,,,,,,Space,keypress(Space),,,,,,,,---- -- ----- -- ------ - ------- --- ----------<br>------------- ------ ------ ---- ---- ------- ----- -- ----<br>-------- ------- -- ---------- --- - --- ----- ----- ----<br>---- --- --- ----- --- ---- ---- ------- ----- ---- -------<br>--- --- -- ----- -- --- ---- -- --- ---- if ------ ------<br>--- ----- -- ----,131523,131504,131219.82,131219,131229.06,131528.6,,49,if
screen,html.Screen,2_1_0_1_50,2022-04-27T12:48:41.851Z,,,,,,,,,,,,,,,,,53,,,,,,,,,,,,,,303.3999999999942,,response,,,,99,,,,,,,Space,keypress(Space),,,,,,,,---- -- ----- -- ------ - ------- --- ----------<br>------------- ------ ------ ---- ---- ------- ----- -- ----<br>-------- ------- -- ---------- --- - --- ----- ----- ----<br>---- --- --- ----- --- ---- ---- ------- ----- ---- -------<br>--- --- -- ----- -- --- ---- -- --- ---- -- that's ------<br>--- ----- -- ----,131841,131832,131523.26,131523,131528.6,131844.92,,50,that's
screen,html.Screen,2_1_0_1_51,2022-04-27T12:48:42.313Z,,,,,,,,,,,,,,,,,53,,,,,,,,,,,,,,439.0799999999872,,response,,,,99,,,,,,,Space,keypress(Space),,,,,,,,---- -- ----- -- ------ - ------- --- ----------<br>------------- ------ ------ ---- ---- ------- ----- -- ----<br>-------- ------- -- ---------- --- - --- ----- ----- ----<br>---- --- --- ----- --- ---- ---- ------- ----- ---- -------<br>--- --- -- ----- -- --- ---- -- --- ---- -- ------ really<br>--- ----- -- ----,132303,132284,131841.04,131841,131844.92,132311.12,,51,really
screen,html.Screen,2_1_0_1_52,2022-04-27T12:48:42.679Z,,,,,,,,,,,,,,,,,53,,,,,,,,,,,,,,348.88000000000466,,response,,,,99,,,,,,,Space,keypress(Space),,,,,,,,---- -- ----- -- ------ - ------- --- ----------<br>------------- ------ ------ ---- ---- ------- ----- -- ----<br>-------- ------- -- ---------- --- - --- ----- ----- ----<br>---- --- --- ----- --- ---- ---- ------- ----- ---- -------<br>--- --- -- ----- -- --- ---- -- --- ---- -- ------ ------<br>not ----- -- ----,132669,132660,132303.42,132303,132311.12,132677.56,,52,not
screen,html.Screen,2_1_0_1_53,2022-04-27T12:48:43.031Z,,,,,,,,,,,,,,,,,53,,,,,,,,,,,,,,326.4400000000023,,response,,,,99,,,,,,,Space,keypress(Space),,,,,,,,---- -- ----- -- ------ - ------- --- ----------<br>------------- ------ ------ ---- ---- ------- ----- -- ----<br>-------- ------- -- ---------- --- - --- ----- ----- ----<br>---- --- --- ----- --- ---- ---- ------- ----- ---- -------<br>--- --- -- ----- -- --- ---- -- --- ---- -- ------ ------<br>--- close -- ----,133020,133004,132669.36,132670,132677.56,133027.04,,53,close
screen,html.Screen,2_1_0_1_54,2022-04-27T12:48:43.382Z,,,,,,,,,,,,,,,,,53,,,,,,,,,,,,,,334.95999999999185,,response,,,,99,,,,,,,Space,keypress(Space),,,,,,,,---- -- ----- -- ------ - ------- --- ----------<br>------------- ------ ------ ---- ---- ------- ----- -- ----<br>-------- ------- -- ---------- --- - --- ----- ----- ----<br>---- --- --- ----- --- ---- ---- ------- ----- ---- -------<br>--- --- -- ----- -- --- ---- -- --- ---- -- ------ ------<br>--- ----- at ----,133371,133362,133020.7,133021,133027.04,133376.74,,54,at
screen,html.Screen,2_1_0_1_55,2022-04-27T12:48:44.546Z,,,,,,,,,,,,,,,,,53,,,,,,,,,,,,,,1141.2600000000093,,response,,,,99,,,,,,,Space,keypress(Space),,,,,,,,---- -- ----- -- ------ - ------- --- ----------<br>------------- ------ ------ ---- ---- ------- ----- -- ----<br>-------- ------- -- ---------- --- - --- ----- ----- ----<br>---- --- --- ----- --- ---- ---- ------- ----- ---- -------<br>--- --- -- ----- -- --- ---- -- --- ---- -- ------ ------<br>--- ----- -- all.,134536,134518,133372.1,133372,133376.74,134542.1,,55,all.
Item 99,flow.Loop,2_1_0_1,2022-04-27T12:48:44.547Z,,,,,,,,,,,,,,,,,,,,,,,,,,,,,,,19072.679999999993,,completion,,,,,C,,,,,,,,,,,silence,,,,,134536,134518,115428.76,115430,115445.32,134542.1,,,
Question 1,html.Screen,2_1_0_2,2022-04-27T12:48:49.780Z,,,,,,,,,,,,,,,,,,,,,,,,,,,,true,FALSE,,5211.899999999994,,response,,,,99,C,,,,,,FALSE,click #choice-2,,,,silence,,,,,139769,139754,134536.54,134537,134542.1,139770,,,
Question 2,html.Screen,2_1_0_3,2022-04-27T12:48:54.497Z,,,,,,,,,,,,,,,,,,,,,,,,,,,,false,TRUE,,4701,,response,,,,99,C,,,,,,FALSE,click #choice-2,,,,silence,,,,,144486,144471,139765.56,139770,139770,144498.5,,,
Item 99,flow.Sequence,2_1_0,2022-04-27T12:48:54.498Z,,,,,,,,,,,,,,,,,,,,,,,,,,,,,,,39031.899999999994,,completion,,,,,,,,,,,,,,,,,,,,,144486,144471,105425.62,105437,105439.1,144498.5,,,
Holding screen,html.Screen,2_1_1_0,2022-04-27T12:49:04.501Z,,,,,,,,,,,,,,,,,,,,,,,,,,,,,,,10006.100000000006,,timeout,,,,,,,,,,,,,,,,,,,,,154489,154488.04,144484.36,144487,144498.5,154504.6,,,
screen,html.Screen,2_1_1_1_0,2022-04-27T12:49:05.240Z,,,,,,,,,,,,,,,,,54,,,,,,,,,,,,,,716.3999999999942,,response,,,,100,,,,,,,Space,keypress(Space),,,,,,,,At --- ---- --- ------ ----- ------- ---- -- --- ------- --<br>------- ---------- ------ -- ----- -- ----- -- ---- ------<br>--- ----- --- --- ------ -------- ----- --- ------ ----- --<br>----- ----- ---------- --- --- ------ ------ ---- -- ------<br>------- --- ------ ----- --- ---- ------- -- ---- --- --<br>------- ------,155228,155221,154488.04,154490,154504.6,155237.32,,0,At
screen,html.Screen,2_1_1_1_1,2022-04-27T12:49:05.567Z,,,,,,,,,,,,,,,,,54,,,,,,,,,,,,,,313.679999999993,,response,,,,100,,,,,,,Space,keypress(Space),,,,,,,,-- the ---- --- ------ ----- ------- ---- -- --- ------- --<br>------- ---------- ------ -- ----- -- ----- -- ---- ------<br>--- ----- --- --- ------ -------- ----- --- ------ ----- --<br>----- ----- ---------- --- --- ------ ------ ---- -- ------<br>------- --- ------ ----- --- ---- ------- -- ---- --- --<br>------- ------,155556,155551,155228.58,155228,155237.32,155570.52,,1,the
screen,html.Screen,2_1_1_1_2,2022-04-27T12:49:05.801Z,,,,,,,,,,,,,,,,,54,,,,,,,,,,,,,,198.48000000001048,,response,,,,100,,,,,,,Space,keypress(Space),,,,,,,,-- --- time --- ------ ----- ------- ---- -- --- ------- --<br>------- ---------- ------ -- ----- -- ----- -- ---- ------<br>--- ----- --- --- ------ -------- ----- --- ------ ----- --<br>----- ----- ---------- --- --- ------ ------ ---- -- ------<br>------- --- ------ ----- --- ---- ------- -- ---- --- --<br>------- ------,155790,155769,155556.74,155557,155570.52,155803.34,,2,time
screen,html.Screen,2_1_1_1_3,2022-04-27T12:49:06.069Z,,,,,,,,,,,,,,,,,54,,,,,,,,,,,,,,246.6600000000035,,response,,,,100,,,,,,,Space,keypress(Space),,,,,,,,-- --- ---- the ------ ----- ------- ---- -- --- ------- --<br>------- ---------- ------ -- ----- -- ----- -- ---- ------<br>--- ----- --- --- ------ -------- ----- --- ------ ----- --<br>----- ----- ---------- --- --- ------ ------ ---- -- ------<br>------- --- ------ ----- --- ---- ------- -- ---- --- --<br>------- ------,156058,156050,155790.7,155791,155803.34,156069.66,,3,the
screen,html.Screen,2_1_1_1_4,2022-04-27T12:49:06.353Z,,,,,,,,,,,,,,,,,54,,,,,,,,,,,,,,261.3399999999965,,response,,,,100,,,,,,,Space,keypress(Space),,,,,,,,-- --- ---- --- French ----- ------- ---- -- --- ------- --<br>------- ---------- ------ -- ----- -- ----- -- ---- ------<br>--- ----- --- --- ------ -------- ----- --- ------ ----- --<br>----- ----- ---------- --- --- ------ ------ ---- -- ------<br>------- --- ------ ----- --- ---- ------- -- ---- --- --<br>------- ------,156342,156331,156058.14,156058,156069.66,156352.76,,4,French
screen,html.Screen,2_1_1_1_5,2022-04-27T12:49:06.633Z,,,,,,,,,,,,,,,,,54,,,,,,,,,,,,,,260.2399999999907,,response,,,,100,,,,,,,Space,keypress(Space),,,,,,,,-- --- ---- --- ------ crown ------- ---- -- --- ------- --<br>------- ---------- ------ -- ----- -- ----- -- ---- ------<br>--- ----- --- --- ------ -------- ----- --- ------ ----- --<br>----- ----- ---------- --- --- ------ ------ ---- -- ------<br>------- --- ------ ----- --- ---- ------- -- ---- --- --<br>------- ------,156623,156613,156342.34,156342,156352.76,156635.96,,5,crown
screen,html.Screen,2_1_1_1_6,2022-04-27T12:49:06.915Z,,,,,,,,,,,,,,,,,54,,,,,,,,,,,,,,243.04000000000815,,response,,,,100,,,,,,,Space,keypress(Space),,,,,,,,-- --- ---- --- ------ ----- secured ---- -- --- ------- --<br>------- ---------- ------ -- ----- -- ----- -- ---- ------<br>--- ----- --- --- ------ -------- ----- --- ------ ----- --<br>----- ----- ---------- --- --- ------ ------ ---- -- ------<br>------- --- ------ ----- --- ---- ------- -- ---- --- --<br>------- ------,156904,156879,156623.22,156623,156635.96,156919.1,,6,secured
screen,html.Screen,2_1_1_1_7,2022-04-27T12:49:07.184Z,,,,,,,,,,,,,,,,,54,,,,,,,,,,,,,,240.89999999999418,,response,,,,100,,,,,,,Space,keypress(Space),,,,,,,,-- --- ---- --- ------ ----- ------- much -- --- ------- --<br>------- ---------- ------ -- ----- -- ----- -- ---- ------<br>--- ----- --- --- ------ -------- ----- --- ------ ----- --<br>----- ----- ---------- --- --- ------ ------ ---- -- ------<br>------- --- ------ ----- --- ---- ------- -- ---- --- --<br>------- ------,157172,157160,156903.9,156904,156919.1,157185.38,,7,much
screen,html.Screen,2_1_1_1_8,2022-04-27T12:49:07.546Z,,,,,,,,,,,,,,,,,54,,,,,,,,,,,,,,332.61999999999534,,response,,,,100,,,,,,,Space,keypress(Space),,,,,,,,-- --- ---- --- ------ ----- ------- ---- of --- ------- --<br>------- ---------- ------ -- ----- -- ----- -- ---- ------<br>--- ----- --- --- ------ -------- ----- --- ------ ----- --<br>----- ----- ---------- --- --- ------ ------ ---- -- ------<br>------- --- ------ ----- --- ---- ------- -- ---- --- --<br>------- ------,157535,157518,157172.74,157172,157185.38,157551.78,,8,of
screen,html.Screen,2_1_1_1_9,2022-04-27T12:49:07.837Z,,,,,,,,,,,,,,,,,54,,,,,,,,,,,,,,263.22000000000116,,response,,,,100,,,,,,,Space,keypress(Space),,,,,,,,-- --- ---- --- ------ ----- ------- ---- -- its ------- --<br>------- ---------- ------ -- ----- -- ----- -- ---- ------<br>--- ----- --- --- ------ -------- ----- --- ------ ----- --<br>----- ----- ---------- --- --- ------ ------ ---- -- ------<br>------- --- ------ ----- --- ---- ------- -- ---- --- --<br>------- ------,157826,157815,157535,157535,157551.78,157834.64,,9,its
screen,html.Screen,2_1_1_1_10,2022-04-27T12:49:08.166Z,,,,,,,,,,,,,,,,,54,,,,,,,,,,,,,,308.35999999998603,,response,,,,100,,,,,,,Space,keypress(Space),,,,,,,,-- --- ---- --- ------ ----- ------- ---- -- --- revenue --<br>------- ---------- ------ -- ----- -- ----- -- ---- ------<br>--- ----- --- --- ------ -------- ----- --- ------ ----- --<br>----- ----- ---------- --- --- ------ ------ ---- -- ------<br>------- --- ------ ----- --- ---- ------- -- ---- --- --<br>------- ------,158155,158143,157826,157826,157834.64,158167.48,,10,revenue
screen,html.Screen,2_1_1_1_11,2022-04-27T12:49:08.468Z,,,,,,,,,,,,,,,,,54,,,,,,,,,,,,,,272.5199999999895,,response,,,,100,,,,,,,Space,keypress(Space),,,,,,,,-- --- ---- --- ------ ----- ------- ---- -- --- ------- by<br>------- ---------- ------ -- ----- -- ----- -- ---- ------<br>--- ----- --- --- ------ -------- ----- --- ------ ----- --<br>----- ----- ---------- --- --- ------ ------ ---- -- ------<br>------- --- ------ ----- --- ---- ------- -- ---- --- --<br>------- ------,158458,158440,158155.72,158155,158167.48,158467.32,,11,by
screen,html.Screen,2_1_1_1_12,2022-04-27T12:49:08.738Z,,,,,,,,,,,,,,,,,54,,,,,,,,,,,,,,254.67999999999302,,response,,,,100,,,,,,,Space,keypress(Space),,,,,,,,-- --- ---- --- ------ ----- ------- ---- -- --- ------- --<br>issuing ---------- ------ -- ----- -- ----- -- ---- ------<br>--- ----- --- --- ------ -------- ----- --- ------ ----- --<br>----- ----- ---------- --- --- ------ ------ ---- -- ------<br>------- --- ------ ----- --- ---- ------- -- ---- --- --<br>------- ------,158727,158722,158458.08,158458,158467.32,158733.68,,12,issuing
screen,html.Screen,2_1_1_1_13,2022-04-27T12:49:08.986Z,,,,,,,,,,,,,,,,,54,,,,,,,,,,,,,,237.32000000000698,,response,,,,100,,,,,,,Space,keypress(Space),,,,,,,,-- --- ---- --- ------ ----- ------- ---- -- --- ------- --<br>------- government ------ -- ----- -- ----- -- ---- ------<br>--- ----- --- --- ------ -------- ----- --- ------ ----- --<br>----- ----- ---------- --- --- ------ ------ ---- -- ------<br>------- --- ------ ----- --- ---- ------- -- ---- --- --<br>------- ------,158975,158971,158727.32,158728,158733.68,158983.2,,13,government
screen,html.Screen,2_1_1_1_14,2022-04-27T12:49:09.213Z,,,,,,,,,,,,,,,,,54,,,,,,,,,,,,,,206.79999999998836,,response,,,,100,,,,,,,Space,keypress(Space),,,,,,,,-- --- ---- --- ------ ----- ------- ---- -- --- ------- --<br>------- ---------- bonds. -- ----- -- ----- -- ---- ------<br>--- ----- --- --- ------ -------- ----- --- ------ ----- --<br>----- ----- ---------- --- --- ------ ------ ---- -- ------<br>------- --- ------ ----- --- ---- ------- -- ---- --- --<br>------- ------,159203,159190,158975.26,158975,158983.2,159216.72,,14,bonds.
screen,html.Screen,2_1_1_1_15,2022-04-27T12:49:09.492Z,,,,,,,,,,,,,,,,,54,,,,,,,,,,,,,,255.27999999999884,,response,,,,100,,,,,,,Space,keypress(Space),,,,,,,,-- --- ---- --- ------ ----- ------- ---- -- --- ------- --<br>------- ---------- ------ In ----- -- ----- -- ---- ------<br>--- ----- --- --- ------ -------- ----- --- ------ ----- --<br>----- ----- ---------- --- --- ------ ------ ---- -- ------<br>------- --- ------ ----- --- ---- ------- -- ---- --- --<br>------- ------,159481,159472,159202.92,159203,159216.72,159482.86,,15,In
screen,html.Screen,2_1_1_1_16,2022-04-27T12:49:09.773Z,,,,,,,,,,,,,,,,,54,,,,,,,,,,,,,,270.14000000001397,,response,,,,100,,,,,,,Space,keypress(Space),,,,,,,,"-- --- ---- --- ------ ----- ------- ---- -- --- ------- --<br>------- ---------- ------ -- 1727, -- ----- -- ---- ------<br>--- ----- --- --- ------ -------- ----- --- ------ ----- --<br>----- ----- ---------- --- --- ------ ------ ---- -- ------<br>------- --- ------ ----- --- ---- ------- -- ---- --- --<br>------- ------",159761,159753,159481.92,159482,159482.86,159765.88,,16,"1727,"
screen,html.Screen,2_1_1_1_17,2022-04-27T12:49:10.078Z,,,,,,,,,,,,,,,,,54,,,,,,,,,,,,,,284.11999999999534,,response,,,,100,,,,,,,Space,keypress(Space),,,,,,,,-- --- ---- --- ------ ----- ------- ---- -- --- ------- --<br>------- ---------- ------ -- ----- in ----- -- ---- ------<br>--- ----- --- --- ------ -------- ----- --- ------ ----- --<br>----- ----- ---------- --- --- ------ ------ ---- -- ------<br>------- --- ------ ----- --- ---- ------- -- ---- --- --<br>------- ------,160067,160050,159762.04,159762,159765.88,160082.6,,17,in
screen,html.Screen,2_1_1_1_18,2022-04-27T12:49:10.363Z,,,,,,,,,,,,,,,,,54,,,,,,,,,,,,,,249.39999999999418,,response,,,,100,,,,,,,Space,keypress(Space),,,,,,,,-- --- ---- --- ------ ----- ------- ---- -- --- ------- --<br>------- ---------- ------ -- ----- -- order -- ---- ------<br>--- ----- --- --- ------ -------- ----- --- ------ ----- --<br>----- ----- ---------- --- --- ------ ------ ---- -- ------<br>------- --- ------ ----- --- ---- ------- -- ---- --- --<br>------- ------,160352,160332,160067,160067,160082.6,160365.4,,18,order
screen,html.Screen,2_1_1_1_19,2022-04-27T12:49:10.617Z,,,,,,,,,,,,,,,,,54,,,,,,,,,,,,,,230.60000000000582,,response,,,,100,,,,,,,Space,keypress(Space),,,,,,,,-- --- ---- --- ------ ----- ------- ---- -- --- ------- --<br>------- ---------- ------ -- ----- -- ----- to ---- ------<br>--- ----- --- --- ------ -------- ----- --- ------ ----- --<br>----- ----- ---------- --- --- ------ ------ ---- -- ------<br>------- --- ------ ----- --- ---- ------- -- ---- --- --<br>------- ------,160606,160596,160352.32,160352,160365.4,160615.08,,19,to
screen,html.Screen,2_1_1_1_20,2022-04-27T12:49:10.872Z,,,,,,,,,,,,,,,,,54,,,,,,,,,,,,,,231.9200000000128,,response,,,,100,,,,,,,Space,keypress(Space),,,,,,,,-- --- ---- --- ------ ----- ------- ---- -- --- ------- --<br>------- ---------- ------ -- ----- -- ----- -- save ------<br>--- ----- --- --- ------ -------- ----- --- ------ ----- --<br>----- ----- ---------- --- --- ------ ------ ---- -- ------<br>------- --- ------ ----- --- ---- ------- -- ---- --- --<br>------- ------,160861,160847,160606.2,160606,160615.08,160864.66,,20,save
screen,html.Screen,2_1_1_1_21,2022-04-27T12:49:11.106Z,,,,,,,,,,,,,,,,,54,,,,,,,,,,,,,,216.3399999999965,,response,,,,100,,,,,,,Space,keypress(Space),,,,,,,,"-- --- ---- --- ------ ----- ------- ---- -- --- ------- --<br>------- ---------- ------ -- ----- -- ----- -- ---- money,<br>--- ----- --- --- ------ -------- ----- --- ------ ----- --<br>----- ----- ---------- --- --- ------ ------ ---- -- ------<br>------- --- ------ ----- --- ---- ------- -- ---- --- --<br>------- ------",161095,161081,160861.18,160861,160864.66,161097.7,,21,"money,"
screen,html.Screen,2_1_1_1_22,2022-04-27T12:49:11.396Z,,,,,,,,,,,,,,,,,54,,,,,,,,,,,,,,281.29999999998836,,response,,,,100,,,,,,,Space,keypress(Space),,,,,,,,-- --- ---- --- ------ ----- ------- ---- -- --- ------- --<br>------- ---------- ------ -- ----- -- ----- -- ---- ------<br>the ----- --- --- ------ -------- ----- --- ------ ----- --<br>----- ----- ---------- --- --- ------ ------ ---- -- ------<br>------- --- ------ ----- --- ---- ------- -- ---- --- --<br>------- ------,161385,161379,161095.14,161095,161097.7,161397.4,,22,the
screen,html.Screen,2_1_1_1_23,2022-04-27T12:49:11.645Z,,,,,,,,,,,,,,,,,54,,,,,,,,,,,,,,214.60000000000582,,response,,,,100,,,,,,,Space,keypress(Space),,,,,,,,-- --- ---- --- ------ ----- ------- ---- -- --- ------- --<br>------- ---------- ------ -- ----- -- ----- -- ---- ------<br>--- state --- --- ------ -------- ----- --- ------ ----- --<br>----- ----- ---------- --- --- ------ ------ ---- -- ------<br>------- --- ------ ----- --- ---- ------- -- ---- --- --<br>------- ------,161635,161612,161385.2,161385,161397.4,161647.56,,23,state
screen,html.Screen,2_1_1_1_24,2022-04-27T12:49:11.868Z,,,,,,,,,,,,,,,,,54,,,,,,,,,,,,,,198.44000000000233,,response,,,,100,,,,,,,Space,keypress(Space),,,,,,,,-- --- ---- --- ------ ----- ------- ---- -- --- ------- --<br>------- ---------- ------ -- ----- -- ----- -- ---- ------<br>--- ----- cut --- ------ -------- ----- --- ------ ----- --<br>----- ----- ---------- --- --- ------ ------ ---- -- ------<br>------- --- ------ ----- --- ---- ------- -- ---- --- --<br>------- ------,161856,161846,161635.52,161636,161647.56,161863.84,,24,cut
screen,html.Screen,2_1_1_1_25,2022-04-27T12:49:12.100Z,,,,,,,,,,,,,,,,,54,,,,,,,,,,,,,,218.1600000000035,,response,,,,100,,,,,,,Space,keypress(Space),,,,,,,,-- --- ---- --- ------ ----- ------- ---- -- --- ------- --<br>------- ---------- ------ -- ----- -- ----- -- ---- ------<br>--- ----- --- the ------ -------- ----- --- ------ ----- --<br>----- ----- ---------- --- --- ------ ------ ---- -- ------<br>------- --- ------ ----- --- ---- ------- -- ---- --- --<br>------- ------,162088,162082,161856.78,161857,161863.84,162096.72,,25,the
screen,html.Screen,2_1_1_1_26,2022-04-27T12:49:12.320Z,,,,,,,,,,,,,,,,,54,,,,,,,,,,,,,,203.27999999999884,,response,,,,100,,,,,,,Space,keypress(Space),,,,,,,,-- --- ---- --- ------ ----- ------- ---- -- --- ------- --<br>------- ---------- ------ -- ----- -- ----- -- ---- ------<br>--- ----- --- --- bonds' -------- ----- --- ------ ----- --<br>----- ----- ---------- --- --- ------ ------ ---- -- ------<br>------- --- ------ ----- --- ---- ------- -- ---- --- --<br>------- ------,162308,162300,162088.7,162089,162096.72,162313.14,,26,bonds'
screen,html.Screen,2_1_1_1_27,2022-04-27T12:49:12.545Z,,,,,,,,,,,,,,,,,54,,,,,,,,,,,,,,204.85999999998603,,response,,,,100,,,,,,,Space,keypress(Space),,,,,,,,-- --- ---- --- ------ ----- ------- ---- -- --- ------- --<br>------- ---------- ------ -- ----- -- ----- -- ---- ------<br>--- ----- --- --- ------ interest ----- --- ------ ----- --<br>----- ----- ---------- --- --- ------ ------ ---- -- ------<br>------- --- ------ ----- --- ---- ------- -- ---- --- --<br>------- ------,162535,162518,162308.92,162309,162313.14,162546.22,,27,interest
screen,html.Screen,2_1_1_1_28,2022-04-27T12:49:12.891Z,,,,,,,,,,,,,,,,,54,,,,,,,,,,,,,,316.77999999999884,,response,,,,100,,,,,,,Space,keypress(Space),,,,,,,,-- --- ---- --- ------ ----- ------- ---- -- --- ------- --<br>------- ---------- ------ -- ----- -- ----- -- ---- ------<br>--- ----- --- --- ------ -------- rate. --- ------ ----- --<br>----- ----- ---------- --- --- ------ ------ ---- -- ------<br>------- --- ------ ----- --- ---- ------- -- ---- --- --<br>------- ------,162880,162863,162535.1,162535,162546.22,162896.2,,28,rate.
screen,html.Screen,2_1_1_1_29,2022-04-27T12:49:13.199Z,,,,,,,,,,,,,,,,,54,,,,,,,,,,,,,,278.79999999998836,,response,,,,100,,,,,,,Space,keypress(Space),,,,,,,,-- --- ---- --- ------ ----- ------- ---- -- --- ------- --<br>------- ---------- ------ -- ----- -- ----- -- ---- ------<br>--- ----- --- --- ------ -------- ----- The ------ ----- --<br>----- ----- ---------- --- --- ------ ------ ---- -- ------<br>------- --- ------ ----- --- ---- ------- -- ---- --- --<br>------- ------,163189,163175,162880.36,162880,162896.2,163195.6,,29,The
screen,html.Screen,2_1_1_1_30,2022-04-27T12:49:13.485Z,,,,,,,,,,,,,,,,,54,,,,,,,,,,,,,,261.3999999999942,,response,,,,100,,,,,,,Space,keypress(Space),,,,,,,,-- --- ---- --- ------ ----- ------- ---- -- --- ------- --<br>------- ---------- ------ -- ----- -- ----- -- ---- ------<br>--- ----- --- --- ------ -------- ----- --- market ----- --<br>----- ----- ---------- --- --- ------ ------ ---- -- ------<br>------- --- ------ ----- --- ---- ------- -- ---- --- --<br>------- ------,163474,163457,163188.78,163189,163195.6,163478.66,,30,market
screen,html.Screen,2_1_1_1_31,2022-04-27T12:49:13.783Z,,,,,,,,,,,,,,,,,54,,,,,,,,,,,,,,274.3399999999965,,response,,,,100,,,,,,,Space,keypress(Space),,,,,,,,-- --- ---- --- ------ ----- ------- ---- -- --- ------- --<br>------- ---------- ------ -- ----- -- ----- -- ---- ------<br>--- ----- --- --- ------ -------- ----- --- ------ value --<br>----- ----- ---------- --- --- ------ ------ ---- -- ------<br>------- --- ------ ----- --- ---- ------- -- ---- --- --<br>------- ------,163773,163753,163474.32,163474,163478.66,163778.32,,31,value
screen,html.Screen,2_1_1_1_32,2022-04-27T12:49:14.152Z,,,,,,,,,,,,,,,,,54,,,,,,,,,,,,,,349.679999999993,,response,,,,100,,,,,,,Space,keypress(Space),,,,,,,,-- --- ---- --- ------ ----- ------- ---- -- --- ------- --<br>------- ---------- ------ -- ----- -- ----- -- ---- ------<br>--- ----- --- --- ------ -------- ----- --- ------ ----- of<br>----- ----- ---------- --- --- ------ ------ ---- -- ------<br>------- --- ------ ----- --- ---- ------- -- ---- --- --<br>------- ------,164140,164128,163772.86,163773,163778.32,164144.54,,32,of
screen,html.Screen,2_1_1_1_33,2022-04-27T12:49:14.471Z,,,,,,,,,,,,,,,,,54,,,,,,,,,,,,,,296.45999999999185,,response,,,,100,,,,,,,Space,keypress(Space),,,,,,,,-- --- ---- --- ------ ----- ------- ---- -- --- ------- --<br>------- ---------- ------ -- ----- -- ----- -- ---- ------<br>--- ----- --- --- ------ -------- ----- --- ------ ----- --<br>these ----- ---------- --- --- ------ ------ ---- -- ------<br>------- --- ------ ----- --- ---- ------- -- ---- --- --<br>------- ------,164459,164441,164140.56,164140,164144.54,164461,,33,these
screen,html.Screen,2_1_1_1_34,2022-04-27T12:49:14.739Z,,,,,,,,,,,,,,,,,54,,,,,,,,,,,,,,260,,response,,,,100,,,,,,,Space,keypress(Space),,,,,,,,-- --- ---- --- ------ ----- ------- ---- -- --- ------- --<br>------- ---------- ------ -- ----- -- ----- -- ---- ------<br>--- ----- --- --- ------ -------- ----- --- ------ ----- --<br>----- bonds ---------- --- --- ------ ------ ---- -- ------<br>------- --- ------ ----- --- ---- ------- -- ---- --- --<br>------- ------,164728,164721,164459.86,164460,164461,164744,,34,bonds
screen,html.Screen,2_1_1_1_35,2022-04-27T12:49:14.994Z,,,,,,,,,,,,,,,,,54,,,,,,,,,,,,,,227,,response,,,,100,,,,,,,Space,keypress(Space),,,,,,,,"-- --- ---- --- ------ ----- ------- ---- -- --- ------- --<br>------- ---------- ------ -- ----- -- ----- -- ---- ------<br>--- ----- --- --- ------ -------- ----- --- ------ ----- --<br>----- ----- plummeted, --- --- ------ ------ ---- -- ------<br>------- --- ------ ----- --- ---- ------- -- ---- --- --<br>------- ------",164983,164971,164728.78,164728,164744,164993.72,,35,"plummeted,"
screen,html.Screen,2_1_1_1_36,2022-04-27T12:49:15.277Z,,,,,,,,,,,,,,,,,54,,,,,,,,,,,,,,260.27999999999884,,response,,,,100,,,,,,,Space,keypress(Space),,,,,,,,-- --- ---- --- ------ ----- ------- ---- -- --- ------- --<br>------- ---------- ------ -- ----- -- ----- -- ---- ------<br>--- ----- --- --- ------ -------- ----- --- ------ ----- --<br>----- ----- ---------- and --- ------ ------ ---- -- ------<br>------- --- ------ ----- --- ---- ------- -- ---- --- --<br>------- ------,165266,165254,164983.3,164983,164993.72,165276.88,,36,and
screen,html.Screen,2_1_1_1_37,2022-04-27T12:49:15.564Z,,,,,,,,,,,,,,,,,54,,,,,,,,,,,,,,258.11999999999534,,response,,,,100,,,,,,,Space,keypress(Space),,,,,,,,-- --- ---- --- ------ ----- ------- ---- -- --- ------- --<br>------- ---------- ------ -- ----- -- ----- -- ---- ------<br>--- ----- --- --- ------ -------- ----- --- ------ ----- --<br>----- ----- ---------- --- the ------ ------ ---- -- ------<br>------- --- ------ ----- --- ---- ------- -- ---- --- --<br>------- ------,165552,165535,165266.16,165266,165276.88,165559.7,,37,the
screen,html.Screen,2_1_1_1_38,2022-04-27T12:49:15.827Z,,,,,,,,,,,,,,,,,54,,,,,,,,,,,,,,241.29999999998836,,response,,,,100,,,,,,,Space,keypress(Space),,,,,,,,-- --- ---- --- ------ ----- ------- ---- -- --- ------- --<br>------- ---------- ------ -- ----- -- ----- -- ---- ------<br>--- ----- --- --- ------ -------- ----- --- ------ ----- --<br>----- ----- ---------- --- --- market ------ ---- -- ------<br>------- --- ------ ----- --- ---- ------- -- ---- --- --<br>------- ------,165817,165801,165552.28,165552,165559.7,165826.34,,38,market
screen,html.Screen,2_1_1_1_39,2022-04-27T12:49:16.110Z,,,,,,,,,,,,,,,,,54,,,,,,,,,,,,,,255.6600000000035,,response,,,,100,,,,,,,Space,keypress(Space),,,,,,,,-- --- ---- --- ------ ----- ------- ---- -- --- ------- --<br>------- ---------- ------ -- ----- -- ----- -- ---- ------<br>--- ----- --- --- ------ -------- ----- --- ------ ----- --<br>----- ----- ---------- --- --- ------ became ---- -- ------<br>------- --- ------ ----- --- ---- ------- -- ---- --- --<br>------- ------,166098,166082,165816.84,165817,165826.34,166109.46,,39,became
screen,html.Screen,2_1_1_1_40,2022-04-27T12:49:16.459Z,,,,,,,,,,,,,,,,,54,,,,,,,,,,,,,,330.54000000000815,,response,,,,100,,,,,,,Space,keypress(Space),,,,,,,,-- --- ---- --- ------ ----- ------- ---- -- --- ------- --<br>------- ---------- ------ -- ----- -- ----- -- ---- ------<br>--- ----- --- --- ------ -------- ----- --- ------ ----- --<br>----- ----- ---------- --- --- ------ ------ wary -- ------<br>------- --- ------ ----- --- ---- ------- -- ---- --- --<br>------- ------,166448,166440,166098.62,166099,166109.46,166458.78,,40,wary
screen,html.Screen,2_1_1_1_41,2022-04-27T12:49:16.773Z,,,,,,,,,,,,,,,,,54,,,,,,,,,,,,,,278.22000000000116,,response,,,,100,,,,,,,Space,keypress(Space),,,,,,,,-- --- ---- --- ------ ----- ------- ---- -- --- ------- --<br>------- ---------- ------ -- ----- -- ----- -- ---- ------<br>--- ----- --- --- ------ -------- ----- --- ------ ----- --<br>----- ----- ---------- --- --- ------ ------ ---- of ------<br>------- --- ------ ----- --- ---- ------- -- ---- --- --<br>------- ------,166763,166737,166448.28,166449,166458.78,166775.34,,41,of
screen,html.Screen,2_1_1_1_42,2022-04-27T12:49:17.063Z,,,,,,,,,,,,,,,,,54,,,,,,,,,,,,,,259.6600000000035,,response,,,,100,,,,,,,Space,keypress(Space),,,,,,,,-- --- ---- --- ------ ----- ------- ---- -- --- ------- --<br>------- ---------- ------ -- ----- -- ----- -- ---- ------<br>--- ----- --- --- ------ -------- ----- --- ------ ----- --<br>----- ----- ---------- --- --- ------ ------ ---- -- French<br>------- --- ------ ----- --- ---- ------- -- ---- --- --<br>------- ------,167052,167035,166762.54,166763,166775.34,167058.2,,42,French
screen,html.Screen,2_1_1_1_43,2022-04-27T12:49:17.369Z,,,,,,,,,,,,,,,,,54,,,,,,,,,,,,,,287.79999999998836,,response,,,,100,,,,,,,Space,keypress(Space),,,,,,,,-- --- ---- --- ------ ----- ------- ---- -- --- ------- --<br>------- ---------- ------ -- ----- -- ----- -- ---- ------<br>--- ----- --- --- ------ -------- ----- --- ------ ----- --<br>----- ----- ---------- --- --- ------ ------ ---- -- ------<br>credit. --- ------ ----- --- ---- ------- -- ---- --- --<br>------- ------,167357,167346,167052.42,167052,167058.2,167357.86,,43,credit.
screen,html.Screen,2_1_1_1_44,2022-04-27T12:49:17.640Z,,,,,,,,,,,,,,,,,54,,,,,,,,,,,,,,254.14000000001397,,response,,,,100,,,,,,,Space,keypress(Space),,,,,,,,-- --- ---- --- ------ ----- ------- ---- -- --- ------- --<br>------- ---------- ------ -- ----- -- ----- -- ---- ------<br>--- ----- --- --- ------ -------- ----- --- ------ ----- --<br>----- ----- ---------- --- --- ------ ------ ---- -- ------<br>------- The ------ ----- --- ---- ------- -- ---- --- --<br>------- ------,167629,167612,167357.52,167357,167357.86,167641.24,,44,The
screen,html.Screen,2_1_1_1_45,2022-04-27T12:49:17.893Z,,,,,,,,,,,,,,,,,54,,,,,,,,,,,,,,220.7600000000093,,response,,,,100,,,,,,,Space,keypress(Space),,,,,,,,-- --- ---- --- ------ ----- ------- ---- -- --- ------- --<br>------- ---------- ------ -- ----- -- ----- -- ---- ------<br>--- ----- --- --- ------ -------- ----- --- ------ ----- --<br>----- ----- ---------- --- --- ------ ------ ---- -- ------<br>------- --- French ----- --- ---- ------- -- ---- --- --<br>------- ------,167883,167862,167628.98,167629,167641.24,167890.62,,45,French
screen,html.Screen,2_1_1_1_46,2022-04-27T12:49:18.123Z,,,,,,,,,,,,,,,,,54,,,,,,,,,,,,,,206.38000000000466,,response,,,,100,,,,,,,Space,keypress(Space),,,,,,,,-- --- ---- --- ------ ----- ------- ---- -- --- ------- --<br>------- ---------- ------ -- ----- -- ----- -- ---- ------<br>--- ----- --- --- ------ -------- ----- --- ------ ----- --<br>----- ----- ---------- --- --- ------ ------ ---- -- ------<br>------- --- ------ state --- ---- ------- -- ---- --- --<br>------- ------,168111,168097,167882.74,167883,167890.62,168123.82,,46,state
screen,html.Screen,2_1_1_1_47,2022-04-27T12:49:18.337Z,,,,,,,,,,,,,,,,,54,,,,,,,,,,,,,,191.17999999999302,,response,,,,100,,,,,,,Space,keypress(Space),,,,,,,,-- --- ---- --- ------ ----- ------- ---- -- --- ------- --<br>------- ---------- ------ -- ----- -- ----- -- ---- ------<br>--- ----- --- --- ------ -------- ----- --- ------ ----- --<br>----- ----- ---------- --- --- ------ ------ ---- -- ------<br>------- --- ------ ----- was ---- ------- -- ---- --- --<br>------- ------,168325,168315,168111.92,168112,168123.82,168340.56,,47,was
screen,html.Screen,2_1_1_1_48,2022-04-27T12:49:18.551Z,,,,,,,,,,,,,,,,,54,,,,,,,,,,,,,,177.44000000000233,,response,,,,100,,,,,,,Space,keypress(Space),,,,,,,,-- --- ---- --- ------ ----- ------- ---- -- --- ------- --<br>------- ---------- ------ -- ----- -- ----- -- ---- ------<br>--- ----- --- --- ------ -------- ----- --- ------ ----- --<br>----- ----- ---------- --- --- ------ ------ ---- -- ------<br>------- --- ------ ----- --- left ------- -- ---- --- --<br>------- ------,168540,168518,168326,168326,168340.56,168556.66,,48,left
screen,html.Screen,2_1_1_1_49,2022-04-27T12:49:18.788Z,,,,,,,,,,,,,,,,,54,,,,,,,,,,,,,,197.3399999999965,,response,,,,100,,,,,,,Space,keypress(Space),,,,,,,,-- --- ---- --- ------ ----- ------- ---- -- --- ------- --<br>------- ---------- ------ -- ----- -- ----- -- ---- ------<br>--- ----- --- --- ------ -------- ----- --- ------ ----- --<br>----- ----- ---------- --- --- ------ ------ ---- -- ------<br>------- --- ------ ----- --- ---- without -- ---- --- --<br>------- ------,168776,168754,168540.36,168540,168556.66,168790.08,,49,without
screen,html.Screen,2_1_1_1_50,2022-04-27T12:49:19.032Z,,,,,,,,,,,,,,,,,54,,,,,,,,,,,,,,213.9200000000128,,response,,,,100,,,,,,,Space,keypress(Space),,,,,,,,-- --- ---- --- ------ ----- ------- ---- -- --- ------- --<br>------- ---------- ------ -- ----- -- ----- -- ---- ------<br>--- ----- --- --- ------ -------- ----- --- ------ ----- --<br>----- ----- ---------- --- --- ------ ------ ---- -- ------<br>------- --- ------ ----- --- ---- ------- an ---- --- --<br>------- ------,169022,169004,168776.24,168776,168790.08,169022.82,,50,an
screen,html.Screen,2_1_1_1_51,2022-04-27T12:49:19.430Z,,,,,,,,,,,,,,,,,54,,,,,,,,,,,,,,387.179999999993,,response,,,,100,,,,,,,Space,keypress(Space),,,,,,,,-- --- ---- --- ------ ----- ------- ---- -- --- ------- --<br>------- ---------- ------ -- ----- -- ----- -- ---- ------<br>--- ----- --- --- ------ -------- ----- --- ------ ----- --<br>----- ----- ---------- --- --- ------ ------ ---- -- ------<br>------- --- ------ ----- --- ---- ------- -- easy --- --<br>------- ------,169418,169410,169021.7,169022,169022.82,169422.42,,51,easy
screen,html.Screen,2_1_1_1_52,2022-04-27T12:49:19.805Z,,,,,,,,,,,,,,,,,54,,,,,,,,,,,,,,345.5799999999872,,response,,,,100,,,,,,,Space,keypress(Space),,,,,,,,-- --- ---- --- ------ ----- ------- ---- -- --- ------- --<br>------- ---------- ------ -- ----- -- ----- -- ---- ------<br>--- ----- --- --- ------ -------- ----- --- ------ ----- --<br>----- ----- ---------- --- --- ------ ------ ---- -- ------<br>------- --- ------ ----- --- ---- ------- -- ---- way --<br>------- ------,169794,169768,169418.72,169419,169422.42,169805.64,,52,way
screen,html.Screen,2_1_1_1_53,2022-04-27T12:49:20.277Z,,,,,,,,,,,,,,,,,54,,,,,,,,,,,,,,448.35999999998603,,response,,,,100,,,,,,,Space,keypress(Space),,,,,,,,-- --- ---- --- ------ ----- ------- ---- -- --- ------- --<br>------- ---------- ------ -- ----- -- ----- -- ---- ------<br>--- ----- --- --- ------ -------- ----- --- ------ ----- --<br>----- ----- ---------- --- --- ------ ------ ---- -- ------<br>------- --- ------ ----- --- ---- ------- -- ---- --- of<br>------- ------,170266,170254,169794.04,169794,169805.64,170271.64,,53,of
screen,html.Screen,2_1_1_1_54,2022-04-27T12:49:21.111Z,,,,,,,,,,,,,,,,,54,,,,,,,,,,,,,,809.359999999986,,response,,,,100,,,,,,,Space,keypress(Space),,,,,,,,-- --- ---- --- ------ ----- ------- ---- -- --- ------- --<br>------- ---------- ------ -- ----- -- ----- -- ---- ------<br>--- ----- --- --- ------ -------- ----- --- ------ ----- --<br>----- ----- ---------- --- --- ------ ------ ---- -- ------<br>------- --- ------ ----- --- ---- ------- -- ---- --- --<br>raising ------,171101,171081,170265.9,170266,170271.64,171103.96,,54,raising
screen,html.Screen,2_1_1_1_55,2022-04-27T12:49:21.573Z,,,,,,,,,,,,,,,,,54,,,,,,,,,,,,,,447.04000000000815,,response,,,,100,,,,,,,Space,keypress(Space),,,,,,,,-- --- ---- --- ------ ----- ------- ---- -- --- ------- --<br>------- ---------- ------ -- ----- -- ----- -- ---- ------<br>--- ----- --- --- ------ -------- ----- --- ------ ----- --<br>----- ----- ---------- --- --- ------ ------ ---- -- ------<br>------- --- ------ ----- --- ---- ------- -- ---- --- --<br>------- money.,171561,171551,171100.48,171101,171103.96,171570.16,,55,money.
Item 100,flow.Loop,2_1_1_1,2022-04-27T12:49:21.573Z,,,,,,,,,,,,,,,,,,,,,,,,,,,,,,,17046.399999999994,,completion,,,,,C,,,,,,,,,,,silence,,,,,171561,171551,154488.04,154490,154504.6,171570.16,,,
Question 1,html.Screen,2_1_1_2,2022-04-27T12:49:23.737Z,,,,,,,,,,,,,,,,,,,,,,,,,,,,true,TRUE,,2150.8399999999965,,response,,,,100,C,,,,,,TRUE,click #choice-1,,,,silence,,,,,173726,173721,171561.34,171561,171570.16,173734.76,,,
Question 2,html.Screen,2_1_1_3,2022-04-27T12:49:25.799Z,,,,,,,,,,,,,,,,,,,,,,,,,,,,false,FALSE,,2033.2399999999907,,response,,,,100,C,,,,,,TRUE,click #choice-1,,,,silence,,,,,175787,175768,173724.42,173726,173734.76,175799.42,,,
Item 100,flow.Sequence,2_1_1,2022-04-27T12:49:25.799Z,,,,,,,,,,,,,,,,,,,,,,,,,,,,,,,31269.5,,completion,,,,,,,,,,,,,,,,,,,,,175788,175768,144484.36,144487,144498.5,175799.42,,,
End of Practice,html.Page,2_1_2,2022-04-27T12:49:30.772Z,,,,,,,,,,,,,,,,,,,,,,,,,,,,,,,4960.579999999987,,form submission,,,,,,,,,,,,,,,,,,,,,180761,180760,175784.58,175788,175799.42,180760.54,,,
Practice,flow.Sequence,2_1,2022-04-27T12:49:30.772Z,,,,,,,,,,,,,,,,,,,,,,,,,,,,,,,75320.9,,completion,,,,,,,,,,,,,,,,,,,,,180761,180760,105425.62,105437,105439.1,180760.54,,,
Trap_instruction,html.Page,2_2_0,2022-04-27T12:49:33.747Z,,,,,,,,,,,,,,,,,,,,,,,,,,,,,,,2974.459999999992,,form submission,,,,,,,,,,,,,,,,,,,,,183736,183735,180755.76,180761,180760.54,183757.38,,,
trap_trial,html.Screen,2_2_1,2022-04-27T12:49:36.797Z,,,,,,,,,,,,,,,,,,,,,,,,,,,,true,1,,3010.6199999999953,,response,,,,,,,,,,,1,click #choice-1,,,,,,,,,186786,186768,183725.72,183736,183757.38,186787.6,,,
end of trap trial,html.Page,2_2_2,2022-04-27T12:49:38.751Z,,,,,,,,,,,,,,,,,,,,,,,,,,,,,,,1948.3999999999942,,form submission,,,,,,,,,,,,,,,,,,,,,188739,188736,186784.86,186786,186787.6,188735.68,,,
Trap 1,flow.Sequence,2_2,2022-04-27T12:49:38.751Z,,,,,,,,,,,,,,,,,,,,,,,,,,,,,,,7975.459999999992,,completion,,,,,,,,,,,,,,,,,,,,,188740,188736,180755.76,180761,180760.54,188735.68,,,
Standby,html.Page,2_3_0,2022-04-27T12:49:46.723Z,,,,,,,,,,,,,,,,,,,,,,,,,,,,,,,7991.619999999995,,timeout,,,,,,,,,,,,,,,,,,,,,196712,196710.98,188725.88,188740,188735.68,196727.3,,,
Holding screen,html.Screen,2_3_1_0_0,2022-04-27T12:49:53.716Z,,,,,,,,,,,,,,,,,,,,,,,,,,,,,,,6992.880000000005,,timeout,,,,,,,,,,,,,,,,,,,,,203704,203703.28,196710.98,196712,196727.3,203720.18,,,
screen,html.Screen,2_3_1_0_1_0,2022-04-27T12:49:54.444Z,,,,,,,,,,,,,,,,,51,,,,,,,,,,,,,,688.820000000007,,response,,,,13,C,,,,,,Space,keypress(Space),,,,instrumental,,,,American -------- --- --- ---- --- --- ------ -- --------<br>---- --------- --- ------- ------------ ---------- ---------<br>--- ---------- ------- ---------- ------- -- -------- ----<br>---- --- ------ ----- ------ -- ---- --- ----- -- - -------<br>-------- -- --- --- -- ----- ----------- ----- -----------<br>---- --- ---------- --- ---- --- -- ----------,204432,204409,203703.28,203704,203720.18,204436,,0,American
screen,html.Screen,2_3_1_0_1_1,2022-04-27T12:49:55.109Z,,,,,,,,,,,,,,,,,51,,,,,,,,,,,,,,645,,response,,,,13,C,,,,,,Space,keypress(Space),,,,instrumental,,,,-------- industry --- --- ---- --- --- ------ -- --------<br>---- --------- --- ------- ------------ ---------- ---------<br>--- ---------- ------- ---------- ------- -- -------- ----<br>---- --- ------ ----- ------ -- ---- --- ----- -- - -------<br>-------- -- --- --- -- ----- ----------- ----- -----------<br>---- --- ---------- --- ---- --- -- ----------,205098,205081,204432.98,204433,204436,205101.82,,1,industry
screen,html.Screen,2_3_1_0_1_2,2022-04-27T12:49:55.479Z,,,,,,,,,,,,,,,,,51,,,,,,,,,,,,,,354.179999999993,,response,,,,13,C,,,,,,Space,keypress(Space),,,,instrumental,,,,-------- -------- may --- ---- --- --- ------ -- --------<br>---- --------- --- ------- ------------ ---------- ---------<br>--- ---------- ------- ---------- ------- -- -------- ----<br>---- --- ------ ----- ------ -- ---- --- ----- -- - -------<br>-------- -- --- --- -- ----- ----------- ----- -----------<br>---- --- ---------- --- ---- --- -- ----------,205468,205456,205097.92,205098,205101.82,205484.98,,2,may
screen,html.Screen,2_3_1_0_1_3,2022-04-27T12:49:55.771Z,,,,,,,,,,,,,,,,,51,,,,,,,,,,,,,,253.01999999998952,,response,,,,13,C,,,,,,Space,keypress(Space),,,,instrumental,,,,-------- -------- --- not ---- --- --- ------ -- --------<br>---- --------- --- ------- ------------ ---------- ---------<br>--- ---------- ------- ---------- ------- -- -------- ----<br>---- --- ------ ----- ------ -- ---- --- ----- -- - -------<br>-------- -- --- --- -- ----- ----------- ----- -----------<br>---- --- ---------- --- ---- --- -- ----------,205760,205738,205467.96,205468,205484.98,205767.88,,3,not
screen,html.Screen,2_3_1_0_1_4,2022-04-27T12:49:56.102Z,,,,,,,,,,,,,,,,,51,,,,,,,,,,,,,,314.11999999999534,,response,,,,13,C,,,,,,Space,keypress(Space),,,,instrumental,,,,-------- -------- --- --- know --- --- ------ -- --------<br>---- --------- --- ------- ------------ ---------- ---------<br>--- ---------- ------- ---------- ------- -- -------- ----<br>---- --- ------ ----- ------ -- ---- --- ----- -- - -------<br>-------- -- --- --- -- ----- ----------- ----- -----------<br>---- --- ---------- --- ---- --- -- ----------,206091,206082,205760.18,205760,205767.88,206101.2,,4,know
screen,html.Screen,2_3_1_0_1_5,2022-04-27T12:49:56.413Z,,,,,,,,,,,,,,,,,51,,,,,,,,,,,,,,277.79999999998836,,response,,,,13,C,,,,,,Space,keypress(Space),,,,instrumental,,,,"-------- -------- --- --- ---- it, --- ------ -- --------<br>---- --------- --- ------- ------------ ---------- ---------<br>--- ---------- ------- ---------- ------- -- -------- ----<br>---- --- ------ ----- ------ -- ---- --- ----- -- - -------<br>-------- -- --- --- -- ----- ----------- ----- -----------<br>---- --- ---------- --- ---- --- -- ----------",206402,206379,206091.24,206091,206101.2,206417.44,,5,"it,"
screen,html.Screen,2_3_1_0_1_6,2022-04-27T12:49:56.706Z,,,,,,,,,,,,,,,,,51,,,,,,,,,,,,,,272.5599999999977,,response,,,,13,C,,,,,,Space,keypress(Space),,,,instrumental,,,,-------- -------- --- --- ---- --- but ------ -- --------<br>---- --------- --- ------- ------------ ---------- ---------<br>--- ---------- ------- ---------- ------- -- -------- ----<br>---- --- ------ ----- ------ -- ---- --- ----- -- - -------<br>-------- -- --- --- -- ----- ----------- ----- -----------<br>---- --- ---------- --- ---- --- -- ----------,206694,206690,206402.5,206403,206417.44,206700.38,,6,but
screen,html.Screen,2_3_1_0_1_7,2022-04-27T12:49:56.962Z,,,,,,,,,,,,,,,,,51,,,,,,,,,,,,,,240.61999999999534,,response,,,,13,C,,,,,,Space,keypress(Space),,,,instrumental,,,,-------- -------- --- --- ---- --- --- debate -- --------<br>---- --------- --- ------- ------------ ---------- ---------<br>--- ---------- ------- ---------- ------- -- -------- ----<br>---- --- ------ ----- ------ -- ---- --- ----- -- - -------<br>-------- -- --- --- -- ----- ----------- ----- -----------<br>---- --- ---------- --- ---- --- -- ----------,206951,206941,206694.56,206694,206700.38,206966.84,,7,debate
screen,html.Screen,2_3_1_0_1_8,2022-04-27T12:49:57.282Z,,,,,,,,,,,,,,,,,51,,,,,,,,,,,,,,287.1600000000035,,response,,,,13,C,,,,,,Space,keypress(Space),,,,instrumental,,,,-------- -------- --- --- ---- --- --- ------ in --------<br>---- --------- --- ------- ------------ ---------- ---------<br>--- ---------- ------- ---------- ------- -- -------- ----<br>---- --- ------ ----- ------ -- ---- --- ----- -- - -------<br>-------- -- --- --- -- ----- ----------- ----- -----------<br>---- --- ---------- --- ---- --- -- ----------,207271,207254,206951.18,206951,206966.84,207283.24,,8,in
screen,html.Screen,2_3_1_0_1_9,2022-04-27T12:49:57.574Z,,,,,,,,,,,,,,,,,51,,,,,,,,,,,,,,266.7600000000093,,response,,,,13,C,,,,,,Space,keypress(Space),,,,instrumental,,,,-------- -------- --- --- ---- --- --- ------ -- Congress<br>---- --------- --- ------- ------------ ---------- ---------<br>--- ---------- ------- ---------- ------- -- -------- ----<br>---- --- ------ ----- ------ -- ---- --- ----- -- - -------<br>-------- -- --- --- -- ----- ----------- ----- -----------<br>---- --- ---------- --- ---- --- -- ----------,207563,207550,207270.74,207271,207283.24,207565.9,,9,Congress
screen,html.Screen,2_3_1_0_1_10,2022-04-27T12:49:57.917Z,,,,,,,,,,,,,,,,,51,,,,,,,,,,,,,,328.1000000000058,,response,,,,13,C,,,,,,Space,keypress(Space),,,,instrumental,,,,-------- -------- --- --- ---- --- --- ------ -- --------<br>over --------- --- ------- ------------ ---------- ---------<br>--- ---------- ------- ---------- ------- -- -------- ----<br>---- --- ------ ----- ------ -- ---- --- ----- -- - -------<br>-------- -- --- --- -- ----- ----------- ----- -----------<br>---- --- ---------- --- ---- --- -- ----------,207906,207894,207563.02,207563,207565.9,207915.8,,10,over
screen,html.Screen,2_3_1_0_1_11,2022-04-27T12:49:58.161Z,,,,,,,,,,,,,,,,,51,,,,,,,,,,,,,,212.20000000001164,,response,,,,13,C,,,,,,Space,keypress(Space),,,,instrumental,,,,-------- -------- --- --- ---- --- --- ------ -- --------<br>---- reforming --- ------- ------------ ---------- ---------<br>--- ---------- ------- ---------- ------- -- -------- ----<br>---- --- ------ ----- ------ -- ---- --- ----- -- - -------<br>-------- -- --- --- -- ----- ----------- ----- -----------<br>---- --- ---------- --- ---- --- -- ----------,208150,208128,207905.94,207906,207915.8,208165.56,,11,reforming
screen,html.Screen,2_3_1_0_1_12,2022-04-27T12:49:58.406Z,,,,,,,,,,,,,,,,,51,,,,,,,,,,,,,,213.44000000000233,,response,,,,13,C,,,,,,Space,keypress(Space),,,,instrumental,,,,-------- -------- --- --- ---- --- --- ------ -- --------<br>---- --------- the ------- ------------ ---------- ---------<br>--- ---------- ------- ---------- ------- -- -------- ----<br>---- --- ------ ----- ------ -- ---- --- ----- -- - -------<br>-------- -- --- --- -- ----- ----------- ----- -----------<br>---- --- ---------- --- ---- --- -- ----------,208395,208379,208150.4,208150,208165.56,208398.38,,12,the
screen,html.Screen,2_3_1_0_1_13,2022-04-27T12:49:58.710Z,,,,,,,,,,,,,,,,,51,,,,,,,,,,,,,,292.61999999999534,,response,,,,13,C,,,,,,Space,keypress(Space),,,,instrumental,,,,-------- -------- --- --- ---- --- --- ------ -- --------<br>---- --------- --- federal ------------ ---------- ---------<br>--- ---------- ------- ---------- ------- -- -------- ----<br>---- --- ------ ----- ------ -- ---- --- ----- -- - -------<br>-------- -- --- --- -- ----- ----------- ----- -----------<br>---- --- ---------- --- ---- --- -- ----------,208698,208691,208395.5,208395,208398.38,208714.8,,13,federal
screen,html.Screen,2_3_1_0_1_14,2022-04-27T12:49:59.004Z,,,,,,,,,,,,,,,,,51,,,,,,,,,,,,,,257.20000000001164,,response,,,,13,C,,,,,,Space,keypress(Space),,,,instrumental,,,,-------- -------- --- --- ---- --- --- ------ -- --------<br>---- --------- --- ------- government's ---------- ---------<br>--- ---------- ------- ---------- ------- -- -------- ----<br>---- --- ------ ----- ------ -- ---- --- ----- -- - -------<br>-------- -- --- --- -- ----- ----------- ----- -----------<br>---- --- ---------- --- ---- --- -- ----------,208992,208972,208698,208698,208714.8,208997.82,,14,government's
screen,html.Screen,2_3_1_0_1_15,2022-04-27T12:49:59.375Z,,,,,,,,,,,,,,,,,51,,,,,,,,,,,,,,348.179999999993,,response,,,,13,C,,,,,,Space,keypress(Space),,,,instrumental,,,,-------- -------- --- --- ---- --- --- ------ -- --------<br>---- --------- --- ------- ------------ regulatory ---------<br>--- ---------- ------- ---------- ------- -- -------- ----<br>---- --- ------ ----- ------ -- ---- --- ----- -- - -------<br>-------- -- --- --- -- ----- ----------- ----- -----------<br>---- --- ---------- --- ---- --- -- ----------,209364,209346,208993.1,208993,208997.82,209381.04,,15,regulatory
screen,html.Screen,2_3_1_0_1_16,2022-04-27T12:49:59.770Z,,,,,,,,,,,,,,,,,51,,,,,,,,,,,,,,372.95999999999185,,response,,,,13,C,,,,,,Space,keypress(Space),,,,instrumental,,,,-------- -------- --- --- ---- --- --- ------ -- --------<br>---- --------- --- ------- ------------ ---------- apparatus<br>--- ---------- ------- ---------- ------- -- -------- ----<br>---- --- ------ ----- ------ -- ---- --- ----- -- - -------<br>-------- -- --- --- -- ----- ----------- ----- -----------<br>---- --- ---------- --- ---- --- -- ----------,209759,209754,209364.2,209364,209381.04,209763.6,,16,apparatus
screen,html.Screen,2_3_1_0_1_17,2022-04-27T12:50:00.130Z,,,,,,,,,,,,,,,,,51,,,,,,,,,,,,,,348.3999999999942,,response,,,,13,C,,,,,,Space,keypress(Space),,,,instrumental,,,,-------- -------- --- --- ---- --- --- ------ -- --------<br>---- --------- --- ------- ------------ ---------- ---------<br>may ---------- ------- ---------- ------- -- -------- ----<br>---- --- ------ ----- ------ -- ---- --- ----- -- - -------<br>-------- -- --- --- -- ----- ----------- ----- -----------<br>---- --- ---------- --- ---- --- -- ----------,210119,210112,209759,209759,209763.6,210129.96,,17,may
screen,html.Screen,2_3_1_0_1_18,2022-04-27T12:50:00.416Z,,,,,,,,,,,,,,,,,51,,,,,,,,,,,,,,248.04000000000815,,response,,,,13,C,,,,,,Space,keypress(Space),,,,instrumental,,,,-------- -------- --- --- ---- --- --- ------ -- --------<br>---- --------- --- ------- ------------ ---------- ---------<br>--- profoundly ------- ---------- ------- -- -------- ----<br>---- --- ------ ----- ------ -- ---- --- ----- -- - -------<br>-------- -- --- --- -- ----- ----------- ----- -----------<br>---- --- ---------- --- ---- --- -- ----------,210405,210378,210118.7,210119,210129.96,210413.2,,18,profoundly
screen,html.Screen,2_3_1_0_1_19,2022-04-27T12:50:00.685Z,,,,,,,,,,,,,,,,,51,,,,,,,,,,,,,,245.79999999998836,,response,,,,13,C,,,,,,Space,keypress(Space),,,,instrumental,,,,-------- -------- --- --- ---- --- --- ------ -- --------<br>---- --------- --- ------- ------------ ---------- ---------<br>--- ---------- improve ---------- ------- -- -------- ----<br>---- --- ------ ----- ------ -- ---- --- ----- -- - -------<br>-------- -- --- --- -- ----- ----------- ----- -----------<br>---- --- ---------- --- ---- --- -- ----------,210673,210659,210405.66,210405,210413.2,210679.44,,19,improve
screen,html.Screen,2_3_1_0_1_20,2022-04-27T12:50:00.935Z,,,,,,,,,,,,,,,,,51,,,,,,,,,,,,,,230.55999999999767,,response,,,,13,C,,,,,,Space,keypress(Space),,,,instrumental,,,,-------- -------- --- --- ---- --- --- ------ -- --------<br>---- --------- --- ------- ------------ ---------- ---------<br>--- ---------- ------- companies' ------- -- -------- ----<br>---- --- ------ ----- ------ -- ---- --- ----- -- - -------<br>-------- -- --- --- -- ----- ----------- ----- -----------<br>---- --- ---------- --- ---- --- -- ----------,210923,210910,210673.18,210673,210679.44,210929.16,,20,companies'
screen,html.Screen,2_3_1_0_1_21,2022-04-27T12:50:01.278Z,,,,,,,,,,,,,,,,,51,,,,,,,,,,,,,,323.8399999999965,,response,,,,13,C,,,,,,Space,keypress(Space),,,,instrumental,,,,-------- -------- --- --- ---- --- --- ------ -- --------<br>---- --------- --- ------- ------------ ---------- ---------<br>--- ---------- ------- ---------- ability -- -------- ----<br>---- --- ------ ----- ------ -- ---- --- ----- -- - -------<br>-------- -- --- --- -- ----- ----------- ----- -----------<br>---- --- ---------- --- ---- --- -- ----------,211266,211253,210923.76,210924,210929.16,211279.08,,21,ability
screen,html.Screen,2_3_1_0_1_22,2022-04-27T12:50:01.613Z,,,,,,,,,,,,,,,,,51,,,,,,,,,,,,,,301.9200000000128,,response,,,,13,C,,,,,,Space,keypress(Space),,,,instrumental,,,,-------- -------- --- --- ---- --- --- ------ -- --------<br>---- --------- --- ------- ------------ ---------- ---------<br>--- ---------- ------- ---------- ------- to -------- ----<br>---- --- ------ ----- ------ -- ---- --- ----- -- - -------<br>-------- -- --- --- -- ----- ----------- ----- -----------<br>---- --- ---------- --- ---- --- -- ----------,211602,211581,211267.14,211267,211279.08,211611.98,,22,to
screen,html.Screen,2_3_1_0_1_23,2022-04-27T12:50:01.925Z,,,,,,,,,,,,,,,,,51,,,,,,,,,,,,,,281.0199999999895,,response,,,,13,C,,,,,,Space,keypress(Space),,,,instrumental,,,,-------- -------- --- --- ---- --- --- ------ -- --------<br>---- --------- --- ------- ------------ ---------- ---------<br>--- ---------- ------- ---------- ------- -- survive. ----<br>---- --- ------ ----- ------ -- ---- --- ----- -- - -------<br>-------- -- --- --- -- ----- ----------- ----- -----------<br>---- --- ---------- --- ---- --- -- ----------,211914,211893,211601.76,211602,211611.98,211928.4,,23,survive.
screen,html.Screen,2_3_1_0_1_24,2022-04-27T12:50:02.322Z,,,,,,,,,,,,,,,,,51,,,,,,,,,,,,,,371.6000000000058,,response,,,,13,C,,,,,,Space,keypress(Space),,,,instrumental,,,,-------- -------- --- --- ---- --- --- ------ -- --------<br>---- --------- --- ------- ------------ ---------- ---------<br>--- ---------- ------- ---------- ------- -- -------- This<br>---- --- ------ ----- ------ -- ---- --- ----- -- - -------<br>-------- -- --- --- -- ----- ----------- ----- -----------<br>---- --- ---------- --- ---- --- -- ----------,212310,212300,211913.7,211914,211928.4,212327.9,,24,This
screen,html.Screen,2_3_1_0_1_25,2022-04-27T12:50:02.616Z,,,,,,,,,,,,,,,,,51,,,,,,,,,,,,,,253.10000000000582,,response,,,,13,C,,,,,,Space,keypress(Space),,,,instrumental,,,,-------- -------- --- --- ---- --- --- ------ -- --------<br>---- --------- --- ------- ------------ ---------- ---------<br>--- ---------- ------- ---------- ------- -- -------- ----<br>week --- ------ ----- ------ -- ---- --- ----- -- - -------<br>-------- -- --- --- -- ----- ----------- ----- -----------<br>---- --- ---------- --- ---- --- -- ----------,212605,212581,212310.9,212311,212327.9,212610.74,,25,week
screen,html.Screen,2_3_1_0_1_26,2022-04-27T12:50:02.897Z,,,,,,,,,,,,,,,,,51,,,,,,,,,,,,,,267.2600000000093,,response,,,,13,C,,,,,,Space,keypress(Space),,,,instrumental,,,,-------- -------- --- --- ---- --- --- ------ -- --------<br>---- --------- --- ------- ------------ ---------- ---------<br>--- ---------- ------- ---------- ------- -- -------- ----<br>---- the ------ ----- ------ -- ---- --- ----- -- - -------<br>-------- -- --- --- -- ----- ----------- ----- -----------<br>---- --- ---------- --- ---- --- -- ----------,212886,212878,212605.3,212605,212610.74,212893.68,,26,the
screen,html.Screen,2_3_1_0_1_27,2022-04-27T12:50:03.151Z,,,,,,,,,,,,,,,,,51,,,,,,,,,,,,,,234.32000000000698,,response,,,,13,C,,,,,,Space,keypress(Space),,,,instrumental,,,,-------- -------- --- --- ---- --- --- ------ -- --------<br>---- --------- --- ------- ------------ ---------- ---------<br>--- ---------- ------- ---------- ------- -- -------- ----<br>---- --- Senate ----- ------ -- ---- --- ----- -- - -------<br>-------- -- --- --- -- ----- ----------- ----- -----------<br>---- --- ---------- --- ---- --- -- ----------,213140,213128,212886.06,212886,212893.68,213143.56,,27,Senate
screen,html.Screen,2_3_1_0_1_28,2022-04-27T12:50:03.404Z,,,,,,,,,,,,,,,,,51,,,,,,,,,,,,,,235.44000000000233,,response,,,,13,C,,,,,,Space,keypress(Space),,,,instrumental,,,,-------- -------- --- --- ---- --- --- ------ -- --------<br>---- --------- --- ------- ------------ ---------- ---------<br>--- ---------- ------- ---------- ------- -- -------- ----<br>---- --- ------ seems ------ -- ---- --- ----- -- - -------<br>-------- -- --- --- -- ----- ----------- ----- -----------<br>---- --- ---------- --- ---- --- -- ----------,213392,213379,213140.44,213140,213143.56,213393.24,,28,seems
screen,html.Screen,2_3_1_0_1_29,2022-04-27T12:50:03.682Z,,,,,,,,,,,,,,,,,51,,,,,,,,,,,,,,265.7600000000093,,response,,,,13,C,,,,,,Space,keypress(Space),,,,instrumental,,,,-------- -------- --- --- ---- --- --- ------ -- --------<br>---- --------- --- ------- ------------ ---------- ---------<br>--- ---------- ------- ---------- ------- -- -------- ----<br>---- --- ------ ----- poised -- ---- --- ----- -- - -------<br>-------- -- --- --- -- ----- ----------- ----- -----------<br>---- --- ---------- --- ---- --- -- ----------,213670,213659,213392.86,213393,213393.24,213676.34,,29,poised
screen,html.Screen,2_3_1_0_1_30,2022-04-27T12:50:03.959Z,,,,,,,,,,,,,,,,,51,,,,,,,,,,,,,,264.6600000000035,,response,,,,13,C,,,,,,Space,keypress(Space),,,,instrumental,,,,-------- -------- --- --- ---- --- --- ------ -- --------<br>---- --------- --- ------- ------------ ---------- ---------<br>--- ---------- ------- ---------- ------- -- -------- ----<br>---- --- ------ ----- ------ to ---- --- ----- -- - -------<br>-------- -- --- --- -- ----- ----------- ----- -----------<br>---- --- ---------- --- ---- --- -- ----------,213947,213941,213670.52,213670,213676.34,213959.48,,30,to
screen,html.Screen,2_3_1_0_1_31,2022-04-27T12:50:04.232Z,,,,,,,,,,,,,,,,,51,,,,,,,,,,,,,,246.51999999998952,,response,,,,13,C,,,,,,Space,keypress(Space),,,,instrumental,,,,-------- -------- --- --- ---- --- --- ------ -- --------<br>---- --------- --- ------- ------------ ---------- ---------<br>--- ---------- ------- ---------- ------- -- -------- ----<br>---- --- ------ ----- ------ -- join --- ----- -- - -------<br>-------- -- --- --- -- ----- ----------- ----- -----------<br>---- --- ---------- --- ---- --- -- ----------,214221,214206,213947.54,213948,213959.48,214225.74,,31,join
screen,html.Screen,2_3_1_0_1_32,2022-04-27T12:50:04.501Z,,,,,,,,,,,,,,,,,51,,,,,,,,,,,,,,246.2600000000093,,response,,,,13,C,,,,,,Space,keypress(Space),,,,instrumental,,,,-------- -------- --- --- ---- --- --- ------ -- --------<br>---- --------- --- ------- ------------ ---------- ---------<br>--- ---------- ------- ---------- ------- -- -------- ----<br>---- --- ------ ----- ------ -- ---- the ----- -- - -------<br>-------- -- --- --- -- ----- ----------- ----- -----------<br>---- --- ---------- --- ---- --- -- ----------,214490,214472,214221.7,214221,214225.74,214492.1,,32,the
screen,html.Screen,2_3_1_0_1_33,2022-04-27T12:50:04.803Z,,,,,,,,,,,,,,,,,51,,,,,,,,,,,,,,292.8999999999942,,response,,,,13,C,,,,,,Space,keypress(Space),,,,instrumental,,,,-------- -------- --- --- ---- --- --- ------ -- --------<br>---- --------- --- ------- ------------ ---------- ---------<br>--- ---------- ------- ---------- ------- -- -------- ----<br>---- --- ------ ----- ------ -- ---- --- House -- - -------<br>-------- -- --- --- -- ----- ----------- ----- -----------<br>---- --- ---------- --- ---- --- -- ----------,214791,214785,214490.54,214490,214492.1,214791.8,,33,House
screen,html.Screen,2_3_1_0_1_34,2022-04-27T12:50:05.105Z,,,,,,,,,,,,,,,,,51,,,,,,,,,,,,,,289.20000000001164,,response,,,,13,C,,,,,,Space,keypress(Space),,,,instrumental,,,,-------- -------- --- --- ---- --- --- ------ -- --------<br>---- --------- --- ------- ------------ ---------- ---------<br>--- ---------- ------- ---------- ------- -- -------- ----<br>---- --- ------ ----- ------ -- ---- --- ----- in - -------<br>-------- -- --- --- -- ----- ----------- ----- -----------<br>---- --- ---------- --- ---- --- -- ----------,215093,215081,214791.48,214792,214791.8,215108.42,,34,in
screen,html.Screen,2_3_1_0_1_35,2022-04-27T12:50:05.393Z,,,,,,,,,,,,,,,,,51,,,,,,,,,,,,,,253.5799999999872,,response,,,,13,C,,,,,,Space,keypress(Space),,,,instrumental,,,,-------- -------- --- --- ---- --- --- ------ -- --------<br>---- --------- --- ------- ------------ ---------- ---------<br>--- ---------- ------- ---------- ------- -- -------- ----<br>---- --- ------ ----- ------ -- ---- --- ----- -- a -------<br>-------- -- --- --- -- ----- ----------- ----- -----------<br>---- --- ---------- --- ---- --- -- ----------,215382,215362,215093.94,215094,215108.42,215391.36,,35,a
screen,html.Screen,2_3_1_0_1_36,2022-04-27T12:50:05.780Z,,,,,,,,,,,,,,,,,51,,,,,,,,,,,,,,362.64000000001397,,response,,,,13,C,,,,,,Space,keypress(Space),,,,instrumental,,,,-------- -------- --- --- ---- --- --- ------ -- --------<br>---- --------- --- ------- ------------ ---------- ---------<br>--- ---------- ------- ---------- ------- -- -------- ----<br>---- --- ------ ----- ------ -- ---- --- ----- -- - massive<br>-------- -- --- --- -- ----- ----------- ----- -----------<br>---- --- ---------- --- ---- --- -- ----------,215768,215754,215381.54,215382,215391.36,215774.08,,36,massive
screen,html.Screen,2_3_1_0_1_37,2022-04-27T12:50:06.088Z,,,,,,,,,,,,,,,,,51,,,,,,,,,,,,,,290.9200000000128,,response,,,,13,C,,,,,,Space,keypress(Space),,,,instrumental,,,,-------- -------- --- --- ---- --- --- ------ -- --------<br>---- --------- --- ------- ------------ ---------- ---------<br>--- ---------- ------- ---------- ------- -- -------- ----<br>---- --- ------ ----- ------ -- ---- --- ----- -- - -------<br>overhaul -- --- --- -- ----- ----------- ----- -----------<br>---- --- ---------- --- ---- --- -- ----------,216076,216065,215768.32,215769,215774.08,216090.76,,37,overhaul
screen,html.Screen,2_3_1_0_1_38,2022-04-27T12:50:06.352Z,,,,,,,,,,,,,,,,,51,,,,,,,,,,,,,,240.2399999999907,,response,,,,13,C,,,,,,Space,keypress(Space),,,,instrumental,,,,-------- -------- --- --- ---- --- --- ------ -- --------<br>---- --------- --- ------- ------------ ---------- ---------<br>--- ---------- ------- ---------- ------- -- -------- ----<br>---- --- ------ ----- ------ -- ---- --- ----- -- - -------<br>-------- of --- --- -- ----- ----------- ----- -----------<br>---- --- ---------- --- ---- --- -- ----------,216341,216331,216076.36,216076,216090.76,216357.12,,38,of
screen,html.Screen,2_3_1_0_1_39,2022-04-27T12:50:06.612Z,,,,,,,,,,,,,,,,,51,,,,,,,,,,,,,,223.88000000000466,,response,,,,13,C,,,,,,Space,keypress(Space),,,,instrumental,,,,-------- -------- --- --- ---- --- --- ------ -- --------<br>---- --------- --- ------- ------------ ---------- ---------<br>--- ---------- ------- ---------- ------- -- -------- ----<br>---- --- ------ ----- ------ -- ---- --- ----- -- - -------<br>-------- -- the --- -- ----- ----------- ----- -----------<br>---- --- ---------- --- ---- --- -- ----------,216600,216581,216340.64,216341,216357.12,216606.62,,39,the
screen,html.Screen,2_3_1_0_1_40,2022-04-27T12:50:06.869Z,,,,,,,,,,,,,,,,,51,,,,,,,,,,,,,,239.38000000000466,,response,,,,13,C,,,,,,Space,keypress(Space),,,,instrumental,,,,-------- -------- --- --- ---- --- --- ------ -- --------<br>---- --------- --- ------- ------------ ---------- ---------<br>--- ---------- ------- ---------- ------- -- -------- ----<br>---- --- ------ ----- ------ -- ---- --- ----- -- - -------<br>-------- -- --- way -- ----- ----------- ----- -----------<br>---- --- ---------- --- ---- --- -- ----------,216857,216846,216601.16,216602,216606.62,216873.06,,40,way
screen,html.Screen,2_3_1_0_1_41,2022-04-27T12:50:07.151Z,,,,,,,,,,,,,,,,,51,,,,,,,,,,,,,,254.94000000000233,,response,,,,13,C,,,,,,Space,keypress(Space),,,,instrumental,,,,-------- -------- --- --- ---- --- --- ------ -- --------<br>---- --------- --- ------- ------------ ---------- ---------<br>--- ---------- ------- ---------- ------- -- -------- ----<br>---- --- ------ ----- ------ -- ---- --- ----- -- - -------<br>-------- -- --- --- in ----- ----------- ----- -----------<br>---- --- ---------- --- ---- --- -- ----------,217140,217128,216857.98,216858,216873.06,217156.2,,41,in
screen,html.Screen,2_3_1_0_1_42,2022-04-27T12:50:07.384Z,,,,,,,,,,,,,,,,,51,,,,,,,,,,,,,,206.79999999998836,,response,,,,13,C,,,,,,Space,keypress(Space),,,,instrumental,,,,-------- -------- --- --- ---- --- --- ------ -- --------<br>---- --------- --- ------- ------------ ---------- ---------<br>--- ---------- ------- ---------- ------- -- -------- ----<br>---- --- ------ ----- ------ -- ---- --- ----- -- - -------<br>-------- -- --- --- -- which ----------- ----- -----------<br>---- --- ---------- --- ---- --- -- ----------,217373,217363,217140.38,217140,217156.2,217389.44,,42,which
screen,html.Screen,2_3_1_0_1_43,2022-04-27T12:50:07.629Z,,,,,,,,,,,,,,,,,51,,,,,,,,,,,,,,223.55999999999767,,response,,,,13,C,,,,,,Space,keypress(Space),,,,instrumental,,,,-------- -------- --- --- ---- --- --- ------ -- --------<br>---- --------- --- ------- ------------ ---------- ---------<br>--- ---------- ------- ---------- ------- -- -------- ----<br>---- --- ------ ----- ------ -- ---- --- ----- -- - -------<br>-------- -- --- --- -- ----- bureaucrats ----- -----------<br>---- --- ---------- --- ---- --- -- ----------,217617,217613,217373,217373,217389.44,217622.12,,43,bureaucrats
screen,html.Screen,2_3_1_0_1_44,2022-04-27T12:50:08.062Z,,,,,,,,,,,,,,,,,51,,,,,,,,,,,,,,412.88000000000466,,response,,,,13,C,,,,,,Space,keypress(Space),,,,instrumental,,,,-------- -------- --- --- ---- --- --- ------ -- --------<br>---- --------- --- ------- ------------ ---------- ---------<br>--- ---------- ------- ---------- ------- -- -------- ----<br>---- --- ------ ----- ------ -- ---- --- ----- -- - -------<br>-------- -- --- --- -- ----- ----------- enact -----------<br>---- --- ---------- --- ---- --- -- ----------,218050,218035,217616.74,217617,217622.12,218055.04,,44,enact
screen,html.Screen,2_3_1_0_1_45,2022-04-27T12:50:08.500Z,,,,,,,,,,,,,,,,,51,,,,,,,,,,,,,,415.95999999999185,,response,,,,13,C,,,,,,Space,keypress(Space),,,,instrumental,,,,-------- -------- --- --- ---- --- --- ------ -- --------<br>---- --------- --- ------- ------------ ---------- ---------<br>--- ---------- ------- ---------- ------- -- -------- ----<br>---- --- ------ ----- ------ -- ---- --- ----- -- - -------<br>-------- -- --- --- -- ----- ----------- ----- regulations<br>---- --- ---------- --- ---- --- -- ----------,218488,218471,218050.74,218050,218055.04,218504.56,,45,regulations
screen,html.Screen,2_3_1_0_1_46,2022-04-27T12:50:08.869Z,,,,,,,,,,,,,,,,,51,,,,,,,,,,,,,,342.4400000000023,,response,,,,13,C,,,,,,Space,keypress(Space),,,,instrumental,,,,-------- -------- --- --- ---- --- --- ------ -- --------<br>---- --------- --- ------- ------------ ---------- ---------<br>--- ---------- ------- ---------- ------- -- -------- ----<br>---- --- ------ ----- ------ -- ---- --- ----- -- - -------<br>-------- -- --- --- -- ----- ----------- ----- -----------<br>that --- ---------- --- ---- --- -- ----------,218858,218847,218488.8,218488,218504.56,218871.18,,46,that
screen,html.Screen,2_3_1_0_1_47,2022-04-27T12:50:09.181Z,,,,,,,,,,,,,,,,,51,,,,,,,,,,,,,,288.820000000007,,response,,,,13,C,,,,,,Space,keypress(Space),,,,instrumental,,,,-------- -------- --- --- ---- --- --- ------ -- --------<br>---- --------- --- ------- ------------ ---------- ---------<br>--- ---------- ------- ---------- ------- -- -------- ----<br>---- --- ------ ----- ------ -- ---- --- ----- -- - -------<br>-------- -- --- --- -- ----- ----------- ----- -----------<br>---- are ---------- --- ---- --- -- ----------,219170,219160,218857.84,218858,218871.18,219170.54,,47,are
screen,html.Screen,2_3_1_0_1_48,2022-04-27T12:50:09.505Z,,,,,,,,,,,,,,,,,51,,,,,,,,,,,,,,300.45999999999185,,response,,,,13,C,,,,,,Space,keypress(Space),,,,instrumental,,,,-------- -------- --- --- ---- --- --- ------ -- --------<br>---- --------- --- ------- ------------ ---------- ---------<br>--- ---------- ------- ---------- ------- -- -------- ----<br>---- --- ------ ----- ------ -- ---- --- ----- -- - -------<br>-------- -- --- --- -- ----- ----------- ----- -----------<br>---- --- strangling --- ---- --- -- ----------,219494,219471,219170,219170,219170.54,219503.68,,48,strangling
screen,html.Screen,2_3_1_0_1_49,2022-04-27T12:50:09.859Z,,,,,,,,,,,,,,,,,51,,,,,,,,,,,,,,328.320000000007,,response,,,,13,C,,,,,,Space,keypress(Space),,,,instrumental,,,,-------- -------- --- --- ---- --- --- ------ -- --------<br>---- --------- --- ------- ------------ ---------- ---------<br>--- ---------- ------- ---------- ------- -- -------- ----<br>---- --- ------ ----- ------ -- ---- --- ----- -- - -------<br>-------- -- --- --- -- ----- ----------- ----- -----------<br>---- --- ---------- the ---- --- -- ----------,219848,219832,219494.22,219495,219503.68,219853.16,,49,the
